##NAMES=Titanite
##RRUFFID=R050472
##IDEAL CHEMISTRY=CaTi^4+^SiO_5_
##LOCALITY=Turner's Island, Lake Clear, Wadawaska, Ontario, Canada
##OWNER=RRUFF
##SOURCE=California Institute of Technology
##DESCRIPTION=Brown flattened wedge-shaped crystal
##STATUS=The identification of this mineral has been confirmed by X-ray diffraction and chemical analysis
##URL=rruff.info/R050472
##MEASURED CHEMISTRY=(Ca_0.99_Na_0.01_)(Ti_0.81_Al_0.09_Fe^3+^_0.07_Nb_0.03_)Si_1.00_O_4_(O_0.80_F_0.20_)
91.00781, 17.18147
91.48993, 17.21406
91.97205, 17.22762
92.45416, 17.11579
92.93628, 16.98871
93.41840, 17.07997
93.90051, 17.41891
94.38263, 17.99775
94.86475, 18.87870
95.34686, 20.05954
95.82898, 21.33193
96.31110, 22.43627
96.79321, 23.41361
97.27533, 24.67465
97.75745, 26.30436
98.23956, 28.26938
98.72168, 30.40134
99.20380, 32.68074
99.68591, 35.12014
100.1680, 37.61682
100.6501, 40.03385
101.1323, 43.08569
101.6144, 47.08910
102.0965, 52.12602
102.5786, 57.05617
103.0607, 61.74733
103.5428, 66.48428
104.0250, 71.84573
104.5071, 77.85307
104.9892, 84.37688
105.4713, 91.41850
105.9534, 99.41125
106.4355, 106.9080
106.9177, 113.4607
107.3998, 119.4935
107.8819, 126.6202
108.3640, 136.1558
108.8461, 145.6484
109.3282, 154.0807
109.8104, 160.4295
110.2925, 166.7090
110.7746, 172.7348
111.2567, 178.5679
111.7388, 184.9451
112.2209, 192.0279
112.7031, 199.5590
113.1852, 207.4463
113.6673, 215.1755
114.1494, 223.6616
114.6315, 233.3528
115.1136, 244.3720
115.5958, 255.6380
116.0779, 266.8268
116.5600, 278.0896
117.0421, 289.5464
117.5242, 301.8041
118.0063, 313.9745
118.4885, 325.5768
118.9706, 336.4247
119.4527, 347.4865
119.9348, 359.6028
120.4169, 372.2450
120.8990, 384.6445
121.3812, 396.1655
121.8633, 407.3077
122.3454, 418.4764
122.8275, 429.9604
123.3096, 441.1138
123.7917, 451.4646
124.2739, 461.0356
124.7560, 469.9110
125.2381, 477.4004
125.7202, 484.3737
126.2023, 492.2294
126.6844, 501.5353
127.1666, 511.6066
127.6487, 521.5214
128.1308, 531.3439
128.6129, 541.3141
129.0950, 551.6510
129.5771, 562.3750
130.0593, 573.6382
130.5414, 585.5504
131.0235, 597.9034
131.5056, 609.3085
131.9877, 617.3273
132.4698, 622.7740
132.9520, 629.8380
133.4341, 638.4455
133.9162, 647.2682
134.3983, 655.5543
134.8804, 663.4816
135.3625, 672.8173
135.8447, 683.7994
136.3268, 695.6501
136.8089, 707.5344
137.2910, 719.4952
137.7731, 731.5917
138.2552, 744.3025
138.7374, 757.8055
139.2195, 769.9112
139.7016, 780.4495
140.1837, 789.9388
140.6658, 799.7217
141.1479, 811.0540
141.6301, 820.0237
142.1122, 824.7976
142.5943, 824.5563
143.0764, 822.3977
143.5585, 818.2281
144.0406, 812.2533
144.5228, 804.8339
145.0049, 795.2220
145.4870, 785.1888
145.9691, 775.7345
146.4512, 766.2607
146.9333, 758.1501
147.4155, 751.6611
147.8976, 746.6376
148.3797, 742.1682
148.8618, 737.7657
149.3439, 734.2083
149.8260, 731.9839
150.3082, 732.2039
150.7903, 732.4752
151.2724, 732.4393
151.7545, 732.0688
152.2366, 732.1804
152.7188, 732.3469
153.2009, 733.1888
153.6830, 735.2050
154.1651, 739.9898
154.6472, 744.4124
155.1293, 747.7559
155.6115, 749.9736
156.0936, 751.4700
156.5757, 750.8787
157.0578, 750.0899
157.5399, 751.1869
158.0220, 757.1711
158.5042, 762.9835
158.9863, 766.6267
159.4684, 767.6552
159.9505, 768.1833
160.4326, 768.2144
160.9147, 768.2574
161.3969, 769.0635
161.8790, 772.0220
162.3611, 775.0052
162.8432, 776.7468
163.3253, 776.6957
163.8074, 776.5385
164.2896, 777.0668
164.7717, 778.0135
165.2538, 778.8545
165.7359, 779.2065
166.2180, 779.4207
166.7001, 779.8526
167.1823, 780.8080
167.6644, 781.3918
168.1465, 780.6603
168.6286, 779.0234
169.1107, 777.6454
169.5928, 777.8528
170.0750, 778.3618
170.5571, 777.6002
171.0392, 774.2676
171.5213, 771.1923
172.0034, 771.4979
172.4855, 774.4697
172.9677, 776.9125
173.4498, 776.0521
173.9319, 773.6013
174.4140, 772.0168
174.8961, 772.2480
175.3782, 773.2474
175.8604, 773.7385
176.3425, 773.8271
176.8246, 774.3710
177.3067, 776.7678
177.7888, 780.0656
178.2709, 782.2596
178.7531, 782.4317
179.2352, 781.4901
179.7173, 780.2843
180.1994, 778.8443
180.6815, 778.2256
181.1636, 780.2094
181.6458, 783.9258
182.1279, 786.6721
182.6100, 786.9713
183.0921, 786.0300
183.5742, 786.5028
184.0563, 788.4411
184.5385, 790.5645
185.0206, 791.2582
185.5027, 790.8693
185.9848, 791.0549
186.4669, 792.6154
186.9490, 795.1398
187.4312, 797.5593
187.9133, 799.8353
188.3954, 801.9515
188.8775, 803.5223
189.3596, 804.6500
189.8417, 806.4477
190.3239, 809.6196
190.8060, 813.8984
191.2881, 817.8898
191.7702, 821.5977
192.2523, 824.8819
192.7344, 827.4332
193.2166, 829.2483
193.6987, 831.0024
194.1808, 832.8859
194.6629, 834.9141
195.1450, 837.2928
195.6271, 840.0242
196.1093, 843.1019
196.5914, 846.5687
197.0735, 850.4385
197.5556, 854.4734
198.0377, 858.6454
198.5198, 862.9879
199.0020, 867.0539
199.4841, 870.7781
199.9662, 874.3311
200.4483, 878.0500
200.9304, 881.9446
201.4125, 885.9078
201.8947, 889.7765
202.3768, 893.4969
202.8589, 897.9460
203.3410, 903.4855
203.8231, 909.3126
204.3052, 913.6479
204.7874, 916.1639
205.2695, 918.7059
205.7516, 922.2755
206.2337, 927.1201
206.7158, 931.1864
207.1979, 934.0412
207.6801, 936.5354
208.1622, 940.5302
208.6443, 946.4813
209.1264, 952.5878
209.6085, 958.0419
210.0906, 962.7316
210.5728, 967.1888
211.0549, 971.0303
211.5370, 974.9013
212.0191, 980.2164
212.5012, 987.3098
212.9833, 995.1376
213.4655, 1003.353
213.9476, 1012.328
214.4297, 1020.395
214.9118, 1027.023
215.3939, 1032.983
215.8760, 1040.205
216.3581, 1048.351
216.8403, 1058.328
217.3224, 1071.335
217.8045, 1089.817
218.2866, 1103.699
218.7687, 1110.838
219.2508, 1113.910
219.7330, 1119.931
220.2151, 1129.730
220.6972, 1140.844
221.1793, 1152.139
221.6614, 1163.972
222.1435, 1175.107
222.6257, 1185.103
223.1078, 1194.529
223.5899, 1205.380
224.0720, 1218.517
224.5541, 1231.777
225.0362, 1244.307
225.5184, 1255.338
226.0005, 1267.459
226.4826, 1281.539
226.9647, 1296.584
227.4468, 1310.172
227.9289, 1321.663
228.4111, 1332.598
228.8932, 1343.504
229.3753, 1353.778
229.8574, 1365.599
230.3395, 1379.954
230.8216, 1395.553
231.3038, 1409.268
231.7859, 1421.396
232.2680, 1431.029
232.7501, 1437.212
233.2322, 1437.264
233.7143, 1440.112
234.1965, 1447.919
234.6786, 1458.109
235.1607, 1463.261
235.6428, 1460.379
236.1249, 1456.768
236.6070, 1455.853
237.0892, 1459.767
237.5713, 1461.520
238.0534, 1460.248
238.5355, 1457.019
239.0176, 1454.594
239.4997, 1453.370
239.9819, 1452.326
240.4640, 1451.009
240.9461, 1449.150
241.4282, 1447.659
241.9103, 1446.668
242.3924, 1446.015
242.8746, 1445.314
243.3567, 1444.560
243.8388, 1443.795
244.3209, 1442.997
244.8030, 1442.039
245.2851, 1441.494
245.7673, 1441.586
246.2494, 1442.024
246.7315, 1442.252
247.2136, 1442.591
247.6957, 1442.237
248.1778, 1440.947
248.6600, 1438.849
249.1421, 1435.313
249.6242, 1429.484
250.1063, 1422.645
250.5884, 1417.505
251.0705, 1415.459
251.5527, 1412.677
252.0348, 1407.596
252.5169, 1399.383
252.9990, 1391.788
253.4811, 1385.339
253.9632, 1379.061
254.4454, 1371.350
254.9275, 1361.873
255.4096, 1351.479
255.8917, 1340.123
256.3738, 1327.445
256.8560, 1315.854
257.3381, 1305.697
257.8202, 1296.254
258.3023, 1286.169
258.7844, 1275.228
259.2665, 1264.368
259.7487, 1253.945
260.2308, 1244.142
260.7129, 1233.777
261.1950, 1222.534
261.6771, 1211.115
262.1592, 1200.481
262.6414, 1190.830
263.1235, 1181.692
263.6056, 1173.097
264.0877, 1164.995
264.5698, 1157.157
265.0519, 1149.765
265.5341, 1142.427
266.0162, 1134.580
266.4983, 1126.185
266.9804, 1117.504
267.4625, 1108.075
267.9446, 1098.014
268.4268, 1090.155
268.9089, 1085.210
269.3910, 1081.477
269.8731, 1077.110
270.3552, 1071.813
270.8373, 1067.212
271.3195, 1063.822
271.8016, 1061.509
272.2837, 1058.776
272.7658, 1055.548
273.2479, 1051.974
273.7300, 1047.743
274.2122, 1042.544
274.6943, 1038.774
275.1764, 1037.161
275.6585, 1037.387
276.1406, 1037.942
276.6227, 1038.962
277.1049, 1039.889
277.5870, 1039.956
278.0691, 1039.008
278.5512, 1039.060
279.0333, 1040.502
279.5154, 1043.127
279.9976, 1046.221
280.4797, 1049.743
280.9618, 1053.979
281.4439, 1059.646
281.9260, 1066.737
282.4081, 1072.871
282.8903, 1077.277
283.3724, 1081.057
283.8545, 1087.141
284.3366, 1095.721
284.8187, 1104.600
285.3008, 1112.008
285.7830, 1118.188
286.2651, 1125.420
286.7472, 1134.337
287.2293, 1143.664
287.7114, 1150.707
288.1935, 1155.480
288.6757, 1160.395
289.1578, 1167.397
289.6399, 1175.914
290.1220, 1182.422
290.6041, 1186.418
291.0862, 1189.511
291.5684, 1194.448
292.0505, 1200.964
292.5326, 1206.409
293.0147, 1208.813
293.4968, 1209.145
293.9789, 1210.530
294.4611, 1213.171
294.9432, 1216.060
295.4253, 1217.718
295.9074, 1218.504
296.3895, 1219.900
296.8716, 1222.812
297.3538, 1226.715
297.8359, 1230.362
298.3180, 1233.746
298.8001, 1237.745
299.2822, 1244.374
299.7643, 1252.441
300.2465, 1258.654
300.7286, 1260.255
301.2107, 1260.438
301.6928, 1263.741
302.1749, 1269.996
302.6570, 1277.089
303.1392, 1283.534
303.6213, 1289.621
304.1034, 1295.697
304.5855, 1301.982
305.0676, 1308.251
305.5497, 1314.571
306.0319, 1320.842
306.5140, 1326.885
306.9961, 1332.043
307.4782, 1337.002
307.9603, 1342.774
308.4424, 1350.003
308.9246, 1357.192
309.4067, 1362.831
309.8888, 1367.384
310.3709, 1372.314
310.8530, 1379.111
311.3351, 1386.168
311.8173, 1391.912
312.2994, 1395.716
312.7815, 1399.574
313.2636, 1405.357
313.7457, 1411.937
314.2278, 1417.321
314.7100, 1420.477
315.1921, 1422.273
315.6742, 1423.068
316.1563, 1422.827
316.6384, 1422.154
317.1205, 1421.512
317.6027, 1420.547
318.0848, 1418.812
318.5669, 1415.904
319.0490, 1412.425
319.5311, 1408.796
320.0132, 1405.060
320.4954, 1400.170
320.9775, 1392.538
321.4596, 1384.264
321.9417, 1377.244
322.4238, 1372.782
322.9059, 1368.635
323.3881, 1364.335
323.8702, 1359.927
324.3523, 1355.622
324.8344, 1351.209
325.3165, 1347.090
325.7986, 1343.463
326.2808, 1339.803
326.7629, 1337.297
327.2450, 1336.863
327.7271, 1337.871
328.2092, 1337.818
328.6913, 1335.711
329.1735, 1333.401
329.6556, 1331.501
330.1377, 1329.645
330.6198, 1328.926
331.1019, 1330.203
331.5840, 1332.338
332.0662, 1333.081
332.5483, 1330.986
333.0304, 1329.555
333.5125, 1330.243
333.9946, 1333.726
334.4767, 1335.589
334.9589, 1335.000
335.4410, 1333.577
335.9231, 1333.525
336.4052, 1335.588
336.8873, 1337.080
337.3694, 1337.309
337.8516, 1336.342
338.3336, 1334.852
338.8158, 1332.322
339.2979, 1330.418
339.7800, 1331.119
340.2621, 1334.935
340.7442, 1337.920
341.2263, 1339.338
341.7085, 1339.477
342.1906, 1339.203
342.6727, 1338.559
343.1548, 1337.245
343.6369, 1334.401
344.1190, 1330.212
344.6012, 1327.799
345.0833, 1328.086
345.5654, 1329.122
346.0475, 1327.519
346.5296, 1323.373
347.0117, 1318.067
347.4939, 1312.255
347.9760, 1305.906
348.4581, 1298.911
348.9402, 1291.324
349.4223, 1282.798
349.9044, 1272.761
350.3866, 1261.305
350.8687, 1248.665
351.3508, 1234.203
351.8329, 1218.823
352.3150, 1204.177
352.7971, 1190.155
353.2793, 1175.325
353.7614, 1156.780
354.2435, 1136.736
354.7256, 1118.751
355.2077, 1104.714
355.6898, 1092.066
356.1720, 1078.754
356.6541, 1064.839
357.1362, 1050.717
357.6183, 1036.148
358.1004, 1021.566
358.5826, 1007.332
359.0647, 993.4880
359.5468, 980.0598
360.0289, 966.8640
360.5110, 954.1039
360.9931, 942.1188
361.4753, 931.5200
361.9574, 921.4984
362.4395, 911.8516
362.9216, 902.6648
363.4037, 893.1644
363.8858, 882.3757
364.3680, 871.4593
364.8501, 861.5982
365.3322, 853.5165
365.8143, 846.1781
366.2964, 839.7517
366.7785, 834.1728
367.2607, 828.0428
367.7428, 820.3622
368.2249, 812.6354
368.7070, 805.7493
369.1891, 800.1105
369.6712, 794.8666
370.1534, 790.1622
370.6355, 785.8072
371.1176, 781.2027
371.5997, 776.0644
372.0818, 770.9974
372.5639, 766.2108
373.0461, 761.7477
373.5282, 757.1346
374.0103, 751.7298
374.4924, 745.0518
374.9745, 745.5194
375.4566, 745.1902
375.9388, 744.1113
376.4209, 739.7974
376.9030, 739.8453
377.3851, 738.2578
377.8672, 736.6802
378.3493, 737.5717
378.8315, 734.1416
379.3136, 735.1559
379.7957, 734.5087
380.2778, 734.7390
380.7599, 733.3234
381.2420, 732.5212
381.7242, 733.5263
382.2063, 733.6556
382.6884, 732.3627
383.1705, 733.1258
383.6526, 730.4392
384.1347, 730.9307
384.6169, 732.8390
385.0990, 732.0346
385.5811, 733.2311
386.0632, 733.7765
386.5453, 731.0781
387.0274, 734.2410
387.5096, 734.9844
387.9917, 733.2410
388.4738, 736.4468
388.9559, 735.2180
389.4380, 735.6812
389.9201, 737.4375
390.4023, 738.0101
390.8844, 740.6562
391.3665, 741.4622
391.8486, 743.2249
392.3307, 746.0043
392.8128, 748.2536
393.2950, 750.2881
393.7771, 752.3588
394.2592, 754.5670
394.7413, 756.5923
395.2234, 758.3209
395.7055, 759.7738
396.1877, 760.9891
396.6698, 761.0468
397.1519, 761.7471
397.6340, 763.7952
398.1161, 767.3513
398.5982, 771.0212
399.0804, 775.0624
399.5625, 778.9943
400.0446, 782.4730
400.5267, 785.4233
401.0088, 788.0366
401.4909, 789.8032
401.9731, 791.2035
402.4552, 794.2744
402.9373, 799.9108
403.4194, 805.7706
403.9015, 810.4857
404.3836, 813.3463
404.8658, 818.1105
405.3479, 825.4379
405.8300, 833.6869
406.3121, 840.3569
406.7942, 845.1960
407.2763, 850.1073
407.7585, 855.5865
408.2406, 861.6390
408.7227, 868.3732
409.2048, 875.8381
409.6869, 883.2432
410.1690, 889.9935
410.6512, 896.0505
411.1333, 901.3721
411.6154, 905.6200
412.0975, 909.7581
412.5796, 915.6373
413.0617, 922.9310
413.5439, 930.0845
414.0260, 936.3875
414.5081, 942.0378
414.9902, 947.0378
415.4723, 951.3583
415.9544, 955.7773
416.4366, 961.5366
416.9187, 967.6438
417.4008, 972.5886
417.8829, 975.7656
418.3650, 977.6996
418.8471, 978.5965
419.3293, 978.4850
419.8114, 977.5897
420.2935, 975.0530
420.7756, 972.3650
421.2577, 970.8389
421.7398, 972.2264
422.2220, 971.7392
422.7041, 966.8669
423.1862, 959.6736
423.6683, 953.8665
424.1504, 951.9772
424.6325, 949.3512
425.1147, 944.6946
425.5968, 937.7491
426.0789, 930.5253
426.5610, 922.2567
427.0431, 914.3991
427.5252, 908.5118
428.0074, 906.1507
428.4895, 901.9954
428.9716, 894.8221
429.4537, 885.7458
429.9358, 878.3866
430.4179, 873.0127
430.9001, 868.4345
431.3822, 864.4735
431.8643, 861.1516
432.3464, 856.6129
432.8285, 850.4798
433.3106, 844.3537
433.7928, 840.3926
434.2749, 838.4015
434.7570, 836.7838
435.2391, 835.2448
435.7212, 833.6268
436.2033, 831.4972
436.6855, 828.9260
437.1676, 826.3879
437.6497, 824.0577
438.1318, 822.0395
438.6139, 820.5756
439.0960, 819.8182
439.5782, 819.2023
440.0603, 817.9542
440.5424, 816.5361
441.0245, 815.8278
441.5066, 816.9523
441.9887, 818.2623
442.4709, 818.8489
442.9530, 818.6879
443.4351, 818.1789
443.9172, 817.0821
444.3993, 815.9141
444.8814, 815.0605
445.3636, 814.6347
445.8457, 814.4315
446.3278, 815.0287
446.8099, 815.8307
447.2920, 815.3354
447.7741, 811.6570
448.2563, 808.7714
448.7384, 808.1251
449.2205, 810.0713
449.7026, 811.4307
450.1847, 812.1555
450.6668, 812.3611
451.1490, 812.0891
451.6311, 811.2518
452.1132, 810.2424
452.5953, 808.9252
453.0774, 807.6149
453.5595, 807.2001
454.0417, 807.7543
454.5238, 808.4902
455.0059, 809.0867
455.4880, 809.5170
455.9701, 809.4915
456.4522, 808.8894
456.9344, 808.5501
457.4165, 809.6331
457.8986, 811.7326
458.3807, 813.6735
458.8628, 814.9756
459.3449, 816.0927
459.8271, 817.5592
460.3092, 819.3163
460.7913, 821.1305
461.2734, 822.8371
461.7555, 824.5547
462.2376, 826.3964
462.7198, 828.3594
463.2019, 830.4544
463.6840, 832.9560
464.1661, 835.4770
464.6482, 837.5490
465.1303, 837.9638
465.6125, 839.0286
466.0946, 841.8034
466.5767, 846.0739
467.0588, 849.5883
467.5409, 851.5605
468.0230, 853.3029
468.5052, 855.4208
468.9873, 858.2426
469.4694, 860.6204
469.9515, 862.3662
470.4336, 863.8400
470.9157, 865.6350
471.3979, 867.9258
471.8800, 869.9261
472.3621, 871.3561
472.8442, 872.3478
473.3263, 873.6842
473.8084, 875.4388
474.2906, 876.9570
474.7727, 877.2090
475.2548, 876.6427
475.7369, 877.8121
476.2190, 881.3561
476.7011, 885.1074
477.1833, 886.1047
477.6654, 885.1781
478.1475, 884.6120
478.6296, 885.6378
479.1117, 887.2886
479.5938, 888.9772
480.0760, 890.5975
480.5581, 891.3922
481.0402, 890.3425
481.5223, 888.6599
482.0044, 887.2411
482.4865, 886.1765
482.9687, 885.6288
483.4508, 886.2283
483.9329, 887.2341
484.4150, 887.5827
484.8971, 887.0042
485.3792, 885.8375
485.8614, 883.9090
486.3435, 881.2853
486.8256, 878.8922
487.3077, 876.9313
487.7898, 874.9949
488.2719, 872.8369
488.7541, 870.4050
489.2362, 868.1150
489.7183, 866.1385
490.2004, 864.0738
490.6825, 861.2363
491.1646, 857.5579
491.6468, 853.5630
492.1289, 849.0031
492.6110, 844.4205
493.0931, 841.5500
493.5752, 840.3553
494.0573, 838.9877
494.5395, 835.8215
495.0216, 831.5621
495.5037, 827.7104
495.9858, 824.6360
496.4679, 821.2644
496.9500, 816.0704
497.4322, 810.0436
497.9143, 804.9174
498.3964, 802.1859
498.8785, 799.8127
499.3606, 796.6169
499.8427, 792.7594
500.3249, 789.2204
500.8070, 786.1599
501.2891, 783.6044
501.7712, 781.7843
502.2533, 781.2606
502.7354, 779.9323
503.2176, 776.7802
503.6997, 773.2003
504.1818, 770.6341
504.6639, 769.6819
505.1460, 768.5621
505.6281, 766.7567
506.1103, 764.6115
506.5924, 763.7223
507.0745, 764.4145
507.5566, 765.1793
508.0387, 764.9626
508.5208, 763.8596
509.0030, 764.2498
509.4851, 766.4349
509.9672, 768.4213
510.4493, 767.2842
510.9314, 764.0582
511.4135, 762.3152
511.8957, 763.3243
512.3778, 765.5876
512.8599, 767.8796
513.3420, 770.0839
513.8242, 771.8304
514.3063, 772.3138
514.7884, 772.7403
515.2705, 773.9084
515.7526, 775.8663
516.2347, 778.6295
516.7169, 783.1204
517.1990, 787.8688
517.6811, 791.7141
518.1632, 792.8953
518.6453, 795.2813
519.1274, 800.0079
519.6096, 806.0487
520.0917, 811.4834
520.5738, 815.8782
521.0559, 820.3196
521.5380, 824.9980
522.0201, 829.9240
522.5023, 835.2958
522.9844, 841.1804
523.4665, 847.4108
523.9486, 853.8088
524.4307, 860.4166
524.9128, 867.7274
525.3950, 875.8866
525.8771, 884.1256
526.3592, 891.3946
526.8413, 897.7977
527.3234, 903.9863
527.8055, 910.0699
528.2877, 916.0565
528.7698, 921.5114
529.2519, 926.7198
529.7340, 933.1232
530.2161, 943.3510
530.6982, 953.8322
531.1804, 961.7932
531.6625, 966.3547
532.1446, 970.8885
532.6267, 976.5743
533.1088, 982.6732
533.5909, 988.4147
534.0731, 993.9525
534.5552, 998.8811
535.0373, 1002.721
535.5194, 1006.008
536.0015, 1010.592
536.4836, 1017.787
536.9658, 1023.479
537.4479, 1025.780
537.9300, 1024.852
538.4121, 1024.759
538.8942, 1025.706
539.3763, 1026.557
539.8585, 1026.066
540.3406, 1024.510
540.8227, 1023.711
541.3048, 1024.108
541.7869, 1024.492
542.2690, 1022.934
542.7512, 1020.158
543.2333, 1017.990
543.7154, 1017.530
544.1975, 1017.697
544.6796, 1017.897
545.1617, 1018.056
545.6439, 1017.834
546.1260, 1016.735
546.6081, 1015.475
547.0902, 1014.158
547.5723, 1012.411
548.0544, 1012.352
548.5366, 1016.197
549.0187, 1020.774
549.5008, 1023.145
549.9829, 1020.908
550.4650, 1020.926
550.9471, 1024.474
551.4293, 1030.224
551.9114, 1035.266
552.3935, 1039.544
552.8756, 1043.351
553.3577, 1046.355
553.8398, 1048.983
554.3220, 1053.298
554.8041, 1059.352
555.2862, 1066.253
555.7683, 1073.902
556.2504, 1081.821
556.7325, 1088.957
557.2147, 1094.944
557.6968, 1101.375
558.1789, 1109.740
558.6610, 1119.406
559.1431, 1129.346
559.6252, 1139.224
560.1074, 1149.234
560.5895, 1159.252
561.0716, 1169.454
561.5537, 1180.213
562.0358, 1192.520
562.5179, 1204.639
563.0001, 1215.615
563.4822, 1225.173
563.9643, 1236.188
564.4464, 1249.999
564.9285, 1263.406
565.4106, 1273.646
565.8928, 1280.045
566.3749, 1288.150
566.8570, 1298.811
567.3391, 1310.568
567.8212, 1322.070
568.3033, 1333.155
568.7855, 1341.761
569.2676, 1346.613
569.7497, 1349.316
570.2318, 1352.240
570.7139, 1355.165
571.1960, 1357.377
571.6782, 1358.805
572.1603, 1359.064
572.6424, 1357.602
573.1245, 1354.295
573.6066, 1350.475
574.0887, 1346.839
574.5709, 1342.756
575.0530, 1337.673
575.5351, 1330.014
576.0172, 1323.513
576.4993, 1319.390
576.9814, 1315.943
577.4636, 1310.405
577.9457, 1302.115
578.4278, 1293.395
578.9099, 1284.438
579.3920, 1275.724
579.8741, 1269.329
580.3563, 1265.399
580.8384, 1262.198
581.3205, 1259.212
581.8026, 1256.095
582.2847, 1251.686
582.7668, 1245.904
583.2490, 1240.270
583.7311, 1236.243
584.2132, 1233.073
584.6953, 1229.629
585.1774, 1225.273
585.6595, 1221.588
586.1416, 1220.221
586.6237, 1219.859
587.1058, 1218.486
587.5880, 1214.334
588.0701, 1210.561
588.5522, 1207.919
589.0343, 1206.253
589.5164, 1205.001
589.9985, 1204.694
590.4807, 1203.853
590.9628, 1201.386
591.4449, 1197.215
591.9270, 1195.565
592.4091, 1196.960
592.8912, 1198.574
593.3734, 1197.466
593.8555, 1194.240
594.3376, 1191.847
594.8197, 1190.815
595.3018, 1190.201
595.7839, 1188.958
596.2661, 1187.405
596.7482, 1186.138
597.2303, 1184.981
597.7124, 1184.630
598.1945, 1186.103
598.6766, 1188.796
599.1588, 1190.910
599.6409, 1191.579
600.1230, 1191.894
600.6051, 1192.103
601.0872, 1192.185
601.5693, 1192.730
602.0515, 1194.008
602.5336, 1195.350
603.0157, 1196.213
603.4978, 1196.389
603.9799, 1197.325
604.4620, 1199.130
604.9442, 1201.462
605.4263, 1204.281
605.9084, 1207.405
606.3905, 1209.478
606.8726, 1209.918
607.3547, 1209.784
607.8369, 1210.400
608.3190, 1211.502
608.8011, 1212.437
609.2832, 1212.398
609.7653, 1212.498
610.2474, 1213.936
610.7296, 1216.434
611.2117, 1217.734
611.6938, 1215.817
612.1759, 1213.725
612.6580, 1213.082
613.1401, 1214.354
613.6223, 1215.079
614.1044, 1215.373
614.5865, 1214.961
615.0686, 1213.248
615.5507, 1209.987
616.0328, 1207.858
616.5150, 1207.375
616.9971, 1207.577
617.4792, 1207.329
617.9613, 1206.607
618.4434, 1205.136
618.9255, 1202.264
619.4077, 1199.335
619.8898, 1197.962
620.3719, 1197.833
620.8540, 1197.917
621.3361, 1197.868
621.8182, 1197.752
622.3004, 1197.604
622.7825, 1197.423
623.2646, 1197.184
623.7467, 1197.289
624.2288, 1196.957
624.7109, 1195.519
625.1931, 1192.062
625.6752, 1190.814
626.1573, 1192.716
626.6394, 1195.197
627.1215, 1195.341
627.6036, 1193.100
628.0858, 1191.390
628.5679, 1190.799
629.0500, 1190.498
629.5321, 1188.854
630.0142, 1186.398
630.4963, 1184.902
630.9785, 1185.746
631.4606, 1187.171
631.9427, 1187.786
632.4248, 1187.752
632.9069, 1187.555
633.3890, 1187.817
633.8712, 1187.599
634.3533, 1186.293
634.8354, 1183.791
635.3175, 1181.486
635.7996, 1178.980
636.2817, 1177.164
636.7639, 1176.703
637.2460, 1177.984
637.7281, 1178.596
638.2102, 1178.486
638.6923, 1177.799
639.1744, 1176.518
639.6566, 1174.731
640.1387, 1172.920
640.6208, 1171.188
641.1029, 1169.529
641.5850, 1167.859
642.0671, 1166.295
642.5493, 1165.029
643.0314, 1164.084
643.5135, 1163.556
643.9956, 1164.376
644.4777, 1165.794
644.9598, 1165.465
645.4420, 1160.486
645.9241, 1156.209
646.4062, 1154.669
646.8883, 1155.715
647.3704, 1155.422
647.8525, 1153.188
648.3347, 1150.951
648.8168, 1150.141
649.2989, 1150.674
649.7810, 1150.074
650.2631, 1148.214
650.7452, 1146.184
651.2274, 1145.467
651.7095, 1145.293
652.1916, 1143.733
652.6737, 1139.980
653.1558, 1136.678
653.6379, 1136.033
654.1201, 1136.885
654.6022, 1137.697
655.0843, 1138.760
655.5664, 1138.871
656.0485, 1137.261
656.5306, 1134.543
657.0128, 1132.100
657.4949, 1130.035
657.9770, 1128.095
658.4591, 1126.409
658.9412, 1124.788
659.4233, 1122.053
659.9055, 1118.038
660.3876, 1114.685
660.8697, 1113.989
661.3518, 1114.549
661.8339, 1112.554
662.3160, 1108.138
662.7982, 1103.560
663.2803, 1100.236
663.7624, 1097.633
664.2445, 1095.482
664.7266, 1093.881
665.2087, 1091.785
665.6909, 1088.143
666.1730, 1084.274
666.6551, 1081.327
667.1372, 1080.286
667.6193, 1078.418
668.1014, 1075.337
668.5836, 1071.822
669.0657, 1068.951
669.5478, 1066.793
670.0299, 1064.784
670.5120, 1062.958
670.9941, 1060.970
671.4763, 1058.039
671.9584, 1054.372
672.4405, 1050.733
672.9226, 1047.503
673.4047, 1044.389
673.8868, 1040.844
674.3690, 1037.154
674.8511, 1034.209
675.3332, 1033.581
675.8153, 1032.636
676.2974, 1029.703
676.7795, 1024.621
677.2617, 1021.341
677.7438, 1021.153
678.2259, 1020.747
678.7080, 1018.065
679.1901, 1012.863
679.6722, 1009.164
680.1544, 1007.098
680.6365, 1005.461
681.1186, 1002.982
681.6007, 1000.056
682.0828, 997.8528
682.5649, 996.7582
683.0471, 995.1769
683.5292, 990.8772
684.0113, 985.7255
684.4934, 982.1483
684.9755, 982.4042
685.4576, 981.7176
685.9398, 977.9281
686.4219, 972.7438
686.9040, 969.0090
687.3861, 967.5258
687.8682, 965.9452
688.3503, 964.0248
688.8325, 961.7022
689.3146, 958.6558
689.7967, 954.8932
690.2788, 951.3831
690.7609, 948.6609
691.2430, 946.3826
691.7252, 943.6129
692.2073, 940.5604
692.6894, 938.2808
693.1715, 938.6115
693.6536, 938.9368
694.1357, 937.0107
694.6179, 932.8351
695.1000, 929.2406
695.5821, 927.5480
696.0642, 926.0061
696.5463, 923.7291
697.0284, 920.5349
697.5106, 917.8412
697.9927, 915.7957
698.4748, 913.9184
698.9569, 911.9008
699.4390, 909.7485
699.9211, 907.3718
700.4033, 904.7181
700.8854, 902.3333
701.3675, 901.2037
701.8496, 900.5897
702.3317, 899.1998
702.8138, 896.3791
703.2960, 893.7462
703.7781, 892.7795
704.2602, 892.1963
704.7423, 890.4252
705.2244, 885.3376
705.7065, 881.4547
706.1887, 879.3244
706.6708, 878.4023
707.1529, 877.8382
707.6350, 877.7723
708.1171, 877.1400
708.5992, 875.6249
709.0814, 873.4181
709.5635, 870.3084
710.0456, 866.6268
710.5277, 864.0021
711.0098, 864.5504
711.4919, 865.4796
711.9741, 863.9799
712.4562, 860.6663
712.9383, 857.9739
713.4204, 857.9552
713.9025, 857.6378
714.3846, 855.2761
714.8668, 851.0042
715.3489, 848.2191
715.8310, 847.5636
716.3131, 847.0695
716.7952, 845.7499
717.2773, 843.6595
717.7595, 841.2045
718.2416, 838.3503
718.7237, 835.9167
719.2058, 835.0814
719.6879, 834.8976
720.1700, 833.6760
720.6522, 831.1672
721.1343, 828.9748
721.6164, 828.5658
722.0985, 828.5143
722.5806, 827.4928
723.0627, 824.3524
723.5449, 822.5589
724.0270, 823.1084
724.5091, 824.2243
724.9912, 824.2870
725.4733, 823.1555
725.9554, 821.7535
726.4376, 820.1458
726.9197, 818.3278
727.4018, 816.0127
727.8839, 813.4772
728.3660, 811.6091
728.8481, 810.6843
729.3303, 810.3290
729.8124, 810.9492
730.2945, 811.7394
730.7766, 811.4653
731.2587, 808.7833
731.7408, 806.1346
732.2230, 803.8012
732.7051, 801.9043
733.1872, 800.8177
733.6693, 800.8856
734.1514, 800.8133
734.6335, 800.3448
735.1157, 799.5120
735.5978, 798.2065
736.0799, 796.5070
736.5620, 795.0547
737.0441, 794.3583
737.5262, 793.9017
738.0084, 793.3461
738.4905, 792.5673
738.9726, 791.1340
739.4547, 787.6130
739.9368, 784.5916
740.4189, 783.8114
740.9011, 785.0749
741.3832, 784.5943
741.8653, 781.5519
742.3474, 778.1882
742.8295, 775.2991
743.3116, 772.8646
743.7938, 770.9495
744.2759, 769.5576
744.7580, 768.4071
745.2401, 767.5656
745.7222, 766.7482
746.2043, 765.5723
746.6865, 764.0149
747.1686, 762.0320
747.6507, 758.6874
748.1328, 755.6057
748.6149, 754.0906
749.0970, 754.7628
749.5792, 754.7426
750.0613, 753.5692
750.5434, 752.1759
751.0255, 751.1705
751.5076, 750.6141
751.9897, 749.8705
752.4719, 748.9506
752.9540, 747.6652
753.4361, 745.2896
753.9182, 742.5101
754.4003, 740.7731
754.8824, 740.3702
755.3646, 740.2598
755.8467, 739.8131
756.3288, 739.3055
756.8109, 738.9886
757.2930, 738.8351
757.7751, 739.0188
758.2573, 739.5385
758.7394, 740.3959
759.2215, 741.8684
759.7036, 744.2354
760.1857, 745.0694
760.6678, 743.8073
761.1500, 742.1678
761.6321, 742.3297
762.1142, 743.8343
762.5963, 745.6618
763.0784, 747.7064
763.5605, 749.5830
764.0427, 750.9213
764.5248, 751.9645
765.0069, 753.0187
765.4890, 754.5242
765.9711, 755.5040
766.4532, 755.4809
766.9354, 755.2122
767.4175, 755.8697
767.8996, 757.6185
768.3817, 759.3749
768.8638, 761.0439
769.3459, 762.4709
769.8281, 762.6436
770.3102, 762.2924
770.7923, 763.7688
771.2744, 769.3951
771.7565, 774.7030
772.2386, 775.7166
772.7208, 774.5326
773.2029, 774.8019
773.6850, 778.5668
774.1671, 782.3675
774.6492, 785.8658
775.1313, 789.0228
775.6135, 791.7384
776.0956, 793.9550
776.5777, 795.8892
777.0598, 797.4694
777.5419, 798.9852
778.0240, 801.1944
778.5062, 803.8367
778.9883, 806.1049
779.4704, 807.0470
779.9525, 808.0740
780.4346, 810.3217
780.9167, 813.2994
781.3989, 815.8386
781.8810, 817.1634
782.3631, 818.7090
782.8452, 820.7805
783.3273, 823.2081
783.8094, 825.5309
784.2916, 827.7524
784.7737, 829.9973
785.2558, 832.4876
785.7379, 834.8808
786.2200, 836.3516
786.7021, 837.1374
787.1843, 837.9531
787.6664, 839.4045
788.1485, 840.7693
788.6306, 841.3074
789.1127, 841.3640
789.5948, 842.2864
790.0770, 845.5413
790.5591, 847.6435
791.0412, 847.3261
791.5233, 845.4003
792.0054, 844.8777
792.4875, 845.7828
792.9697, 846.7357
793.4518, 846.9996
793.9339, 847.0521
794.4160, 847.6307
794.8981, 848.6396
795.3802, 849.7689
795.8624, 851.9606
796.3445, 853.1552
796.8266, 851.5488
797.3087, 847.8460
797.7908, 845.7423
798.2729, 846.2100
798.7551, 846.5909
799.2372, 846.0065
799.7193, 844.8246
800.2014, 844.2392
800.6835, 844.2549
801.1656, 844.8722
801.6478, 846.3521
802.1299, 848.2371
802.6120, 850.2346
803.0941, 852.2192
803.5762, 853.8308
804.0583, 854.0186
804.5405, 854.7006
805.0226, 857.2639
805.5047, 861.0119
805.9868, 863.0534
806.4689, 862.7051
806.9510, 862.6505
807.4332, 863.7437
807.9153, 865.7922
808.3974, 868.4797
808.8795, 871.7038
809.3616, 874.8776
809.8438, 877.2100
810.3259, 879.7522
810.8080, 883.8695
811.2901, 888.9640
811.7722, 893.1729
812.2543, 894.5693
812.7365, 896.7215
813.2186, 900.7297
813.7007, 906.1122
814.1828, 911.1170
814.6649, 915.7556
815.1470, 920.0641
815.6292, 923.9493
816.1113, 927.5411
816.5934, 930.7269
817.0755, 933.7571
817.5576, 937.4248
818.0397, 942.4694
818.5219, 947.8733
819.0040, 953.3381
819.4861, 958.7845
819.9682, 963.8832
820.4503, 968.7291
820.9324, 973.1193
821.4146, 976.6491
821.8967, 979.8956
822.3788, 984.4785
822.8609, 990.2762
823.3430, 995.9451
823.8251, 1001.069
824.3073, 1005.708
824.7894, 1009.550
825.2715, 1013.025
825.7536, 1017.252
826.2357, 1023.516
826.7178, 1029.521
827.2000, 1033.967
827.6821, 1037.866
828.1642, 1043.182
828.6463, 1050.620
829.1284, 1057.154
829.6105, 1062.207
830.0927, 1066.188
830.5748, 1069.186
831.0569, 1071.728
831.5390, 1075.748
832.0211, 1082.773
832.5032, 1090.134
832.9854, 1095.546
833.4675, 1100.155
833.9496, 1105.580
834.4317, 1112.599
834.9138, 1119.888
835.3959, 1127.570
835.8781, 1135.199
836.3602, 1142.140
836.8423, 1148.308
837.3244, 1154.367
837.8065, 1160.281
838.2886, 1166.592
838.7708, 1173.997
839.2529, 1182.282
839.7350, 1191.301
840.2171, 1201.856
840.6992, 1211.420
841.1813, 1218.775
841.6635, 1224.980
842.1456, 1231.239
842.6277, 1237.610
843.1098, 1243.716
843.5919, 1249.465
844.0740, 1255.185
844.5562, 1261.508
845.0383, 1268.088
845.5204, 1273.697
846.0025, 1278.071
846.4846, 1282.129
846.9667, 1286.286
847.4489, 1290.620
847.9310, 1295.205
848.4131, 1300.311
848.8952, 1305.133
849.3773, 1310.026
849.8594, 1314.146
850.3416, 1316.364
850.8237, 1316.753
851.3058, 1318.937
851.7879, 1323.209
852.2700, 1326.795
852.7521, 1326.546
853.2343, 1324.853
853.7164, 1324.852
854.1985, 1326.942
854.6806, 1328.081
855.1627, 1326.960
855.6448, 1324.846
856.1270, 1322.357
856.6091, 1319.477
857.0912, 1315.967
857.5733, 1311.630
858.0554, 1307.887
858.5375, 1306.409
859.0197, 1305.932
859.5018, 1303.521
859.9839, 1299.399
860.4660, 1295.032
860.9481, 1291.765
861.4302, 1287.979
861.9124, 1282.043
862.3945, 1274.331
862.8766, 1268.673
863.3587, 1266.166
863.8408, 1263.492
864.3229, 1259.748
864.8051, 1254.946
865.2872, 1248.619
865.7693, 1241.062
866.2514, 1234.299
866.7335, 1230.164
867.2156, 1226.446
867.6978, 1221.570
868.1799, 1215.882
868.6620, 1210.084
869.1441, 1205.199
869.6262, 1199.071
870.1083, 1191.006
870.5905, 1181.759
871.0726, 1172.919
871.5547, 1164.367
872.0368, 1155.491
872.5189, 1145.875
873.0010, 1136.622
873.4832, 1130.133
873.9653, 1124.432
874.4474, 1116.259
874.9295, 1103.161
875.4116, 1090.098
875.8937, 1078.412
876.3759, 1067.083
876.8580, 1055.262
877.3401, 1042.794
877.8222, 1030.727
878.3043, 1019.169
878.7864, 1007.657
879.2686, 995.1160
879.7507, 982.2850
880.2328, 970.7845
880.7149, 961.0131
881.1970, 950.8638
881.6791, 938.9600
882.1613, 926.5941
882.6434, 914.3803
883.1255, 902.2419
883.6076, 891.3029
884.0897, 882.0156
884.5718, 872.5004
885.0540, 860.8546
885.5361, 847.9532
886.0182, 837.0489
886.5003, 827.9415
886.9824, 819.5931
887.4645, 811.4635
887.9467, 803.8000
888.4288, 797.0179
888.9109, 791.0404
889.3930, 784.4112
889.8751, 776.9030
890.3572, 769.2032
890.8394, 761.3690
891.3215, 753.7092
891.8036, 747.5645
892.2857, 742.6708
892.7678, 737.2430
893.2499, 729.9351
893.7321, 722.6077
894.2142, 716.4144
894.6963, 711.1706
895.1784, 706.6169
895.6605, 703.0490
896.1426, 699.6155
896.6248, 696.1677
897.1069, 692.8781
897.5890, 690.0524
898.0711, 687.6295
898.5532, 685.2325
899.0353, 682.7371
899.5175, 680.3962
899.9996, 678.3344
900.4817, 676.5717
900.9638, 675.2438
901.4459, 674.6624
901.9280, 673.5408
902.4102, 671.2568
902.8923, 668.9644
903.3744, 667.6082
903.8565, 667.2027
904.3386, 666.1199
904.8207, 664.3499
905.3029, 662.4227
905.7850, 660.3765
906.2671, 658.6754
906.7492, 658.2469
907.2313, 658.9763
907.7134, 658.8344
908.1956, 656.5428
908.6777, 654.0339
909.1598, 652.1116
909.6419, 650.4916
910.1240, 647.5053
910.6061, 643.1424
911.0883, 639.0663
911.5704, 636.2829
912.0525, 633.8588
912.5346, 630.9974
913.0167, 627.4844
913.4988, 622.8557
913.9810, 615.8074
914.4631, 609.0684
914.9452, 603.4658
915.4273, 598.2661
915.9094, 592.3105
916.3915, 585.5693
916.8737, 579.1417
917.3558, 573.2133
917.8379, 567.4873
918.3200, 562.0821
918.8021, 556.4758
919.2842, 549.5570
919.7664, 540.6964
920.2485, 532.8207
920.7306, 527.9774
921.2127, 523.3967
921.6948, 517.4518
922.1769, 510.0180
922.6591, 502.5548
923.1412, 494.9687
923.6233, 488.0342
924.1054, 482.4792
924.5875, 477.7194
925.0696, 473.1153
925.5518, 468.5473
926.0339, 463.5116
926.5160, 457.0634
926.9981, 451.0232
927.4802, 446.0931
927.9623, 442.0221
928.4445, 437.9228
928.9266, 433.7402
929.4087, 430.1324
929.8908, 427.4520
930.3729, 425.0190
930.8550, 422.1051
931.3372, 418.7043
931.8193, 414.7799
932.3014, 409.1696
932.7835, 404.9259
933.2656, 403.9029
933.7477, 403.6395
934.2299, 401.8351
934.7120, 398.2981
935.1941, 395.0416
935.6762, 392.1469
936.1583, 389.7891
936.6404, 388.6436
937.1226, 387.8979
937.6047, 386.4811
938.0868, 384.2910
938.5689, 381.9694
939.0510, 379.0300
939.5331, 376.7705
940.0153, 375.8243
940.4974, 375.9990
940.9795, 376.0909
941.4616, 376.1021
941.9437, 375.6885
942.4258, 374.6451
942.9080, 373.1627
943.3901, 371.1249
943.8722, 368.8789
944.3543, 367.1659
944.8364, 366.2956
945.3185, 365.9591
945.8007, 366.4988
946.2828, 367.1616
946.7649, 366.8780
947.2470, 365.6728
947.7291, 364.2671
948.2112, 362.6695
948.6934, 361.5089
949.1755, 361.6454
949.6576, 362.3798
950.1397, 362.9142
950.6218, 363.0582
951.1039, 363.5408
951.5861, 365.0089
952.0682, 366.0050
952.5503, 365.5300
953.0324, 363.9057
953.5145, 363.5109
953.9966, 364.2491
954.4788, 364.9037
954.9609, 364.4063
955.4430, 363.8919
955.9251, 364.4678
956.4072, 365.7397
956.8893, 366.6232
957.3715, 366.5475
957.8536, 366.8398
958.3357, 367.8716
958.8178, 369.0239
959.2999, 369.0367
959.7820, 368.2352
960.2642, 368.2281
960.7463, 369.4571
961.2284, 370.6658
961.7105, 370.7963
962.1926, 370.5993
962.6747, 370.8221
963.1569, 371.7209
963.6390, 371.9289
964.1211, 371.1346
964.6032, 370.5010
965.0853, 370.9092
965.5674, 371.9854
966.0496, 372.6409
966.5317, 372.9565
967.0138, 373.3382
967.4959, 374.0805
967.9780, 374.8600
968.4601, 375.4931
968.9423, 376.0565
969.4244, 376.7314
969.9065, 377.5990
970.3886, 378.2107
970.8707, 378.4035
971.3528, 378.5948
971.8350, 379.6002
972.3171, 380.9351
972.7992, 381.6548
973.2813, 381.4282
973.7634, 381.3232
974.2455, 381.6978
974.7277, 382.3669
975.2098, 383.2980
975.6919, 384.4974
976.1740, 385.3595
976.6561, 385.8747
977.1382, 386.2384
977.6204, 386.4444
978.1025, 386.6602
978.5846, 387.0045
979.0667, 387.5205
979.5488, 388.3458
980.0309, 390.0829
980.5131, 391.3409
980.9952, 391.7534
981.4773, 391.7421
981.9594, 391.9470
982.4415, 392.3524
982.9236, 392.9143
983.4058, 393.6555
983.8879, 394.2889
984.3700, 394.6658
984.8521, 394.7567
985.3342, 394.3942
985.8163, 393.3647
986.2985, 393.0456
986.7806, 393.7742
987.2627, 394.4648
987.7448, 394.4600
988.2269, 394.0371
988.7090, 394.0352
989.1912, 394.3870
989.6733, 394.7945
990.1554, 395.6833
990.6375, 395.9750
991.1196, 394.4662
991.6017, 392.2741
992.0839, 391.3524
992.5660, 391.9598
993.0481, 392.7541
993.5302, 393.6467
994.0123, 394.4432
994.4944, 394.8066
994.9766, 394.9752
995.4587, 395.3350
995.9408, 395.9393
996.4229, 396.4825
996.9050, 397.1117
997.3871, 397.3383
997.8693, 396.7796
998.3514, 395.6292
998.8335, 395.0660
999.3156, 395.0767
999.7977, 395.4175
1000.280, 396.1602
1000.762, 396.9540
1001.244, 397.4450
1001.726, 397.7795
1002.208, 398.2063
1002.690, 398.9164
1003.173, 399.4481
1003.655, 399.6458
1004.137, 399.9551
1004.619, 401.0963
1005.101, 402.7266
1005.583, 403.5652
1006.065, 403.5579
1006.547, 403.2296
1007.029, 402.0918
1007.512, 401.4586
1007.994, 402.6578
1008.476, 405.1075
1008.958, 406.1780
1009.440, 405.6584
1009.922, 405.0476
1010.404, 404.8596
1010.886, 404.6467
1011.369, 403.6070
1011.851, 402.1571
1012.333, 401.0751
1012.815, 400.9886
1013.297, 400.1716
1013.779, 397.5759
1014.261, 395.1019
1014.743, 394.3292
1015.225, 395.1269
1015.708, 394.9868
1016.190, 393.9340
1016.672, 392.3318
1017.154, 390.0646
1017.636, 387.6818
1018.118, 385.6475
1018.600, 383.8291
1019.082, 381.7433
1019.565, 379.4091
1020.047, 376.5771
1020.529, 372.8848
1021.011, 369.4395
1021.493, 368.5476
1021.975, 368.8111
1022.457, 367.0287
1022.939, 362.4279
1023.421, 357.9301
1023.904, 355.0900
1024.386, 352.3940
1024.868, 348.8581
1025.350, 344.6513
1025.832, 341.6298
1026.314, 339.7765
1026.796, 337.2561
1027.278, 332.7983
1027.760, 327.8360
1028.243, 323.4178
1028.725, 319.5905
1029.207, 316.4934
1029.689, 314.8618
1030.171, 312.7656
1030.653, 310.1260
1031.135, 307.0960
1031.617, 303.5690
1032.100, 299.8268
1032.582, 296.5526
1033.064, 293.7415
1033.546, 291.0306
1034.028, 287.9653
1034.510, 285.1801
1034.992, 283.0954
1035.474, 281.4926
1035.957, 280.0460
1036.439, 278.7839
1036.921, 276.7251
1037.403, 273.3592
1037.885, 270.0531
1038.367, 268.8299
1038.849, 268.3518
1039.331, 266.8254
1039.813, 263.4245
1040.296, 261.2127
1040.778, 260.8017
1041.260, 260.6691
1041.742, 260.0482
1042.224, 259.0456
1042.706, 258.0826
1043.188, 257.1005
1043.670, 255.8176
1044.152, 253.4976
1044.635, 251.5597
1045.117, 250.7599
1045.599, 250.6049
1046.081, 250.6442
1046.563, 251.0037
1047.045, 250.3719
1047.527, 248.6002
1048.009, 246.6551
1048.492, 245.1145
1048.974, 244.0706
1049.456, 243.9064
1049.938, 244.5199
1050.420, 244.6029
1050.902, 243.8848
1051.384, 242.8743
1051.866, 241.4927
1052.349, 240.1903
1052.831, 240.0709
1053.313, 240.7248
1053.795, 241.0119
1054.277, 240.5889
1054.759, 240.0520
1055.241, 239.5910
1055.723, 239.1765
1056.205, 238.7726
1056.688, 238.3803
1057.170, 238.1491
1057.652, 238.0780
1058.134, 237.9319
1058.616, 237.5281
1059.098, 237.0594
1059.580, 236.7533
1060.062, 236.5014
1060.544, 236.0835
1061.027, 235.2770
1061.509, 234.7277
1061.991, 234.5311
1062.473, 234.3942
1062.955, 233.9571
1063.437, 233.3945
1063.919, 233.1552
1064.401, 233.2154
1064.884, 233.1512
1065.366, 232.7254
1065.848, 232.1948
1066.330, 231.6165
1066.812, 231.0206
1067.294, 230.5041
1067.776, 230.0570
1068.258, 229.4560
1068.740, 228.5975
1069.223, 227.9406
1069.705, 228.2699
1070.187, 228.6491
1070.669, 228.2142
1071.151, 226.8918
1071.633, 225.2961
1072.115, 223.1846
1072.597, 221.9954
1073.079, 222.8120
1073.562, 224.2940
1074.044, 224.2855
1074.526, 223.4696
1075.008, 223.1488
1075.490, 224.3868
1075.972, 224.8693
1076.454, 224.2167
1076.936, 223.1451
1077.419, 222.1204
1077.901, 221.1492
1078.383, 220.1222
1078.865, 219.0952
1079.347, 218.5025
1079.829, 219.0733
1080.311, 219.5866
1080.793, 219.2843
1081.275, 218.6660
1081.758, 218.6535
1082.240, 219.3140
1082.722, 219.2264
1083.204, 218.1687
1083.686, 216.8132
1084.168, 215.3982
1084.650, 214.2068
1085.132, 213.5837
1085.615, 213.5379
1086.097, 213.4475
1086.579, 213.2757
1087.061, 213.1587
1087.543, 213.2085
1088.025, 213.1931
1088.507, 212.6463
1088.989, 211.7959
1089.471, 211.0230
1089.953, 210.3859
1090.436, 209.9454
1090.918, 209.8513
1091.400, 209.7528
1091.882, 209.3772
1092.364, 208.8593
1092.846, 208.9051
1093.328, 209.4089
1093.810, 209.8828
1094.293, 210.1391
1094.775, 210.2616
1095.257, 210.3046
1095.739, 210.2147
1096.221, 209.9405
1096.703, 209.4714
1097.185, 208.7717
1097.667, 207.8231
1098.150, 207.1530
1098.632, 207.5503
1099.114, 208.0545
1099.596, 207.6107
1100.078, 206.5843
1100.560, 206.2699
1101.042, 207.0824
1101.524, 207.5264
1102.006, 207.3632
1102.489, 206.9612
1102.971, 206.6191
1103.453, 206.3723
1103.935, 206.3815
1104.417, 206.6433
1104.899, 206.6169
1105.381, 205.7503
1105.863, 205.2728
1106.345, 205.7295
1106.828, 206.4889
1107.310, 206.0409
1107.792, 204.7543
1108.274, 203.7599
1108.756, 203.3457
1109.238, 203.0719
1109.720, 202.8720
1110.202, 202.6006
1110.685, 202.0593
1111.167, 201.3522
1111.649, 201.4023
1112.131, 202.1391
1112.613, 202.8953
1113.095, 203.4238
1113.577, 203.7950
1114.059, 204.0685
1114.542, 204.1882
1115.024, 204.0431
1115.506, 203.5193
1115.988, 203.3823
1116.470, 203.6738
1116.952, 203.9270
1117.434, 203.9614
1117.916, 203.6859
1118.398, 202.6579
1118.880, 201.2781
1119.363, 200.5528
1119.845, 200.9123
1120.327, 201.2905
1120.809, 201.6581
1121.291, 201.9098
1121.773, 201.9160
1122.255, 201.7437
1122.737, 201.4648
1123.220, 201.1038
1123.702, 200.7723
1124.184, 200.3487
1124.666, 200.2264
1125.148, 200.6111
1125.630, 201.1283
1126.112, 201.0809
1126.594, 200.6749
1127.077, 200.6147
1127.559, 201.0166
1128.041, 201.2571
1128.523, 200.8331
1129.005, 200.4012
1129.487, 200.2664
1129.969, 200.3294
1130.451, 200.1668
1130.933, 199.8538
1131.416, 200.1074
1131.898, 201.3433
1132.380, 202.2277
1132.862, 201.3495
1133.344, 200.1689
1133.826, 199.8544
1134.308, 200.3733
1134.790, 201.0679
1135.272, 201.9537
1135.755, 202.3043
1136.237, 201.5556
1136.719, 200.6520
1137.201, 200.4947
1137.683, 200.7069
1138.165, 200.8347
1138.647, 200.8609
1139.129, 200.6667
1139.612, 200.2001
1140.094, 199.8775
1140.576, 200.0916
1141.058, 200.4917
1141.540, 200.8033
1142.022, 200.9298
1142.504, 200.6411
1142.986, 199.3951
1143.469, 198.7466
1143.951, 198.8483
1144.433, 199.1782
1144.915, 199.3308
1145.397, 199.3792
1145.879, 199.4705
1146.361, 199.5847
1146.843, 199.6217
1147.325, 199.4654
1147.807, 199.3498
1148.290, 199.3084
1148.772, 199.3065
1149.254, 199.3877
1149.736, 199.4549
1150.218, 199.2070
1150.700, 198.6454
1151.182, 198.0909
1151.664, 197.2639
1152.147, 197.0691
1152.629, 198.0056
1153.111, 199.3869
1153.593, 199.9231
1154.075, 199.7721
1154.557, 199.6138
1155.039, 199.5616
1155.521, 199.3007
1156.004, 198.0931
1156.486, 197.2966
1156.968, 197.7781
1157.450, 198.9861
1157.932, 199.0877
1158.414, 198.2512
1158.896, 197.6764
1159.378, 197.6867
1159.860, 197.8602
1160.343, 197.9903
1160.825, 198.1232
1161.307, 198.3270
1161.789, 198.5749
1162.271, 198.6678
1162.753, 198.6043
1163.235, 198.3064
1163.717, 197.5765
1164.199, 197.0249
1164.682, 197.2509
1165.164, 197.8423
1165.646, 198.5218
1166.128, 199.3110
1166.610, 199.2200
1167.092, 198.2069
1167.574, 197.4624
1168.056, 197.7471
1168.539, 198.2938
1169.021, 198.6593
1169.503, 198.7382
1169.985, 198.2690
1170.467, 197.0390
1170.949, 196.3678
1171.431, 196.3038
1171.913, 196.4379
1172.396, 196.6478
1172.878, 196.8053
1173.360, 196.6739
1173.842, 196.4199
1174.324, 196.4095
1174.806, 196.9561
1175.288, 196.7822
1175.770, 195.6617
1176.252, 194.8617
1176.734, 196.0502
1177.217, 197.6223
1177.699, 197.1670
1178.181, 195.4365
1178.663, 194.7913
1179.145, 196.1697
1179.627, 197.0729
1180.109, 197.2727
1180.591, 197.1871
1181.074, 197.2454
1181.556, 197.2471
1182.038, 196.8130
1182.520, 196.0355
1183.002, 195.4054
1183.484, 194.8736
1183.966, 194.8268
1184.448, 195.4631
1184.931, 196.1443
1185.413, 196.0007
1185.895, 195.4944
1186.377, 195.4825
1186.859, 195.9225
1187.341, 195.9343
1187.823, 195.0462
1188.305, 194.3228
1188.787, 193.9421
1189.270, 193.8337
1189.752, 194.0933
1190.234, 194.4726
1190.716, 194.4810
1191.198, 194.0837
1191.680, 193.8441
1192.162, 193.9636
1192.644, 194.0996
1193.126, 194.1877
1193.609, 194.2319
1194.091, 194.2926
1194.573, 194.2960
1195.055, 194.0190
1195.537, 193.4080
1196.019, 193.0559
1196.501, 193.2083
1196.983, 193.4239
1197.466, 193.6111
1197.948, 193.7259
1198.430, 193.6420
1198.912, 193.4389
1199.394, 193.2650
1199.876, 193.1433
1200.358, 193.0910
1200.840, 193.1882
1201.323, 193.2017
1201.805, 193.0136
1202.287, 192.7395
1202.769, 192.6400
1203.251, 192.6363
1203.733, 192.5433
1204.215, 192.2805
1204.697, 192.1441
1205.179, 192.3295
1205.661, 192.3677
1206.144, 191.9915
1206.626, 191.4128
1207.108, 190.8606
1207.590, 190.5361
1208.072, 191.0749
1208.554, 193.2140
1209.036, 194.1704
1209.518, 193.0930
1210.001, 191.7348
1210.483, 190.7635
1210.965, 190.2963
1211.447, 191.0388
1211.929, 192.4476
1212.411, 193.3101
1212.893, 192.9549
1213.375, 192.9558
1213.858, 193.8691
1214.340, 194.3510
1214.822, 193.3454
1215.304, 191.6168
1215.786, 191.0361
1216.268, 191.1940
1216.750, 191.1666
1217.232, 190.3242
1217.714, 190.1652
1218.197, 191.1225
1218.679, 192.0129
1219.161, 191.9412
1219.643, 191.3866
1220.125, 191.4747
1220.607, 191.8963
1221.089, 191.9214
1221.571, 190.9204
1222.053, 190.2845
1222.536, 190.1164
1223.018, 190.2163
1223.500, 190.7162
1223.982, 191.2195
1224.464, 190.5566
1224.946, 189.3215
1225.428, 188.8698
1225.910, 190.7081
1226.393, 191.3339
1226.875, 190.3186
1227.357, 189.2579
1227.839, 189.6029
1228.321, 190.4709
1228.803, 190.3312
1229.285, 189.5517
1229.767, 188.9712
1230.250, 188.6668
1230.732, 188.9549
1231.214, 190.0758
1231.696, 190.8759
1232.178, 189.9388
1232.660, 188.5408
1233.142, 188.6538
1233.624, 189.6649
1234.106, 190.0850
1234.589, 189.3940
1235.071, 188.9528
1235.553, 188.8320
1236.035, 188.7526
1236.517, 188.3906
1236.999, 188.0436
1237.481, 188.1468
1237.963, 188.5133
1238.445, 188.7127
1238.928, 188.6913
1239.410, 188.5258
1239.892, 188.1789
1240.374, 188.0116
1240.856, 188.5025
1241.338, 189.1061
1241.820, 189.3255
1242.302, 189.2882
1242.785, 189.3159
1243.267, 189.5017
1243.749, 189.2716
1244.231, 188.5861
1244.713, 187.9521
1245.195, 187.6474
1245.677, 187.6254
1246.159, 187.9979
1246.641, 188.5851
1247.124, 189.1297
1247.606, 189.6737
1248.088, 189.4699
1248.570, 188.5052
1249.052, 187.8436
1249.534, 188.7381
1250.016, 189.5560
1250.498, 188.9827
1250.980, 187.9379
1251.463, 187.6883
1251.945, 188.2208
1252.427, 188.4707
1252.909, 188.4214
1253.391, 188.3924
1253.873, 188.8745
1254.355, 189.0547
1254.837, 188.2375
1255.320, 187.2358
1255.802, 187.0202
1256.284, 187.4556
1256.766, 187.7041
1257.248, 187.7594
1257.730, 187.8407
1258.212, 188.3439
1258.694, 188.4497
1259.177, 187.6271
1259.659, 186.8174
1260.141, 187.2486
1260.623, 188.4741
1261.105, 189.0450
1261.587, 188.9769
1262.069, 188.6192
1262.551, 187.6367
1263.033, 187.1373
1263.516, 187.4213
1263.998, 187.8307
1264.480, 187.6665
1264.962, 187.1854
1265.444, 186.7874
1265.926, 186.5432
1266.408, 186.6462
1266.890, 187.5949
1267.372, 188.0703
1267.855, 187.9658
1268.337, 187.5098
1268.819, 186.3535
1269.301, 185.3540
1269.783, 186.1224
1270.265, 188.0037
1270.747, 189.1430
1271.229, 189.2505
1271.712, 188.9009
1272.194, 188.0284
1272.676, 187.3708
1273.158, 187.7529
1273.640, 188.3693
1274.122, 188.3815
1274.604, 188.1127
1275.086, 188.2613
1275.568, 188.9613
1276.051, 189.2376
1276.533, 189.0622
1277.015, 188.7447
1277.497, 188.2466
1277.979, 187.9404
1278.461, 188.2481
1278.943, 188.7589
1279.425, 189.0349
1279.907, 189.0770
1280.390, 188.5433
1280.872, 187.5291
1281.354, 186.8230
1281.836, 187.0674
1282.318, 187.4309
1282.800, 187.6767
1283.282, 187.8680
1283.764, 187.9992
1284.247, 188.1182
1284.729, 188.6541
1285.211, 189.4156
1285.693, 189.6788
1286.175, 188.6295
1286.657, 187.8179
1287.139, 187.3960
1287.621, 187.2806
1288.104, 187.5574
1288.586, 188.0111
1289.068, 188.1352
1289.550, 188.0810
1290.032, 188.2162
1290.514, 189.0623
1290.996, 189.1316
1291.478, 188.2021
1291.960, 187.4253
1292.443, 187.6552
1292.925, 188.2986
1293.407, 188.8862
1293.889, 189.2791
1294.371, 189.1519
1294.853, 188.3822
1295.335, 187.8677
1295.817, 187.6053
1296.299, 187.5635
1296.782, 187.7388
1297.264, 188.1044
1297.746, 188.8497
1298.228, 189.6163
1298.710, 190.0998
1299.192, 190.3058
1299.674, 190.1353
1300.156, 189.6542
1300.639, 189.2777
1301.121, 189.2722
1301.603, 189.1798
1302.085, 188.5670
1302.567, 188.1118
1303.049, 188.1319
1303.531, 188.5954
##END=



