##NAMES=Titanite
##RRUFFID=R100136
##IDEAL CHEMISTRY=CaTi^4+^SiO_5_
##LOCALITY=Baja California, Mexico
##OWNER=RRUFF
##SOURCE=William W. Pinch
##DESCRIPTION=Yellow cut gemstone, full of inclusions
##STATUS=The identification of this mineral has been confirmed by single-crystal X-ray diffraction.
##URL=rruff.info/R100136
91.03516, 179.8420
91.51727, 178.1015
91.99939, 179.6122
92.48151, 183.3572
92.96362, 186.4563
93.44574, 186.8820
93.92786, 185.6832
94.40997, 185.1996
94.89210, 185.7555
95.37421, 186.5345
95.85633, 185.9116
96.33845, 183.9742
96.82056, 182.6232
97.30268, 183.6279
97.78480, 186.7001
98.26691, 188.9401
98.74903, 189.8965
99.23115, 189.8549
99.71326, 189.3295
100.1954, 188.1149
100.6775, 187.2204
101.1596, 187.6031
101.6417, 189.5221
102.1239, 191.4384
102.6060, 192.9931
103.0881, 194.2462
103.5702, 196.1338
104.0523, 199.2712
104.5344, 202.3145
105.0166, 203.7034
105.4987, 202.2423
105.9808, 201.2542
106.4629, 201.7484
106.9450, 204.2908
107.4271, 205.7225
107.9093, 205.2392
108.3914, 203.9368
108.8735, 203.4556
109.3556, 204.5670
109.8377, 205.7914
110.3198, 206.6575
110.8020, 206.5756
111.2841, 207.2581
111.7662, 209.2082
112.2483, 211.9721
112.7304, 214.5469
113.2125, 217.5152
113.6947, 219.8005
114.1768, 220.7968
114.6589, 219.1340
115.1410, 217.9291
115.6231, 218.0805
116.1052, 219.3273
116.5874, 220.6931
117.0695, 222.0455
117.5516, 223.2835
118.0337, 224.3153
118.5158, 225.0242
118.9980, 225.6133
119.4801, 225.8631
119.9622, 225.8557
120.4443, 226.5271
120.9264, 228.8294
121.4085, 232.0004
121.8907, 235.1146
122.3728, 237.7914
122.8549, 240.2457
123.3370, 242.3006
123.8191, 243.9056
124.3012, 246.2157
124.7834, 249.8349
125.2655, 254.8307
125.7476, 261.3784
126.2297, 269.6002
126.7118, 279.3510
127.1939, 289.8455
127.6761, 300.6735
128.1582, 314.0568
128.6403, 333.1227
129.1224, 357.2771
129.6045, 383.6531
130.0867, 409.3515
130.5688, 436.0685
131.0509, 467.9759
131.5330, 505.9182
132.0151, 549.0112
132.4972, 595.3469
132.9794, 644.9221
133.4615, 700.0441
133.9436, 760.1770
134.4257, 826.1813
134.9078, 901.6525
135.3899, 987.1514
135.8721, 1082.888
136.3542, 1190.139
136.8363, 1307.595
137.3184, 1443.052
137.8005, 1598.105
138.2826, 1772.707
138.7648, 1979.587
139.2469, 2224.658
139.7290, 2506.214
140.2111, 2794.434
140.6932, 3091.203
141.1753, 3395.913
141.6575, 3709.179
142.1396, 4045.436
142.6217, 4359.837
143.1038, 4643.688
143.5859, 4899.299
144.0681, 5126.742
144.5502, 5334.002
145.0323, 5507.926
145.5144, 5634.415
145.9965, 5695.529
146.4786, 5734.490
146.9608, 5752.799
147.4429, 5739.384
147.9250, 5753.389
148.4071, 5788.813
148.8892, 5853.948
149.3713, 5959.461
149.8535, 6103.841
150.3356, 6291.820
150.8177, 6526.011
151.2998, 6811.831
151.7819, 7132.214
152.2640, 7493.651
152.7462, 7890.281
153.2283, 8304.809
153.7104, 8745.567
154.1925, 9196.857
154.6746, 9653.932
155.1567, 10122.63
155.6389, 10575.28
156.1210, 11022.13
156.6031, 11453.25
157.0852, 11849.47
157.5673, 12205.82
158.0495, 12525.75
158.5316, 12814.04
159.0137, 13066.96
159.4958, 13290.83
159.9779, 13481.39
160.4600, 13643.98
160.9422, 13796.13
161.4243, 13940.91
161.9064, 14078.79
162.3885, 14209.49
162.8706, 14334.10
163.3527, 14452.27
163.8349, 14571.59
164.3170, 14688.28
164.7991, 14784.30
165.2812, 14848.02
165.7633, 14888.60
166.2454, 14914.26
166.7276, 14928.23
167.2097, 14927.26
167.6918, 14905.89
168.1739, 14865.70
168.6560, 14818.58
169.1381, 14770.66
169.6203, 14639.59
170.1024, 14552.23
170.5845, 14332.56
171.0666, 14118.64
171.5487, 13919.75
172.0309, 13736.16
172.5130, 13564.56
172.9951, 13402.25
173.4772, 13250.38
173.9593, 13110.29
174.4414, 12982.32
174.9236, 12866.49
175.4057, 12765.50
175.8878, 12678.01
176.3699, 12601.95
176.8520, 12535.31
177.3341, 12477.35
177.8163, 12426.83
178.2984, 12385.99
178.7805, 12351.15
179.2626, 12315.69
179.7447, 12279.48
180.2268, 12248.00
180.7090, 12223.96
181.1911, 12208.66
181.6732, 12207.18
182.1553, 12231.28
182.6374, 12269.49
183.1195, 12296.80
183.6017, 12312.22
184.0838, 12321.43
184.5659, 12331.10
185.0480, 12340.64
185.5301, 12347.51
186.0123, 12353.25
186.4944, 12355.51
186.9765, 12345.13
187.4586, 12320.08
187.9407, 12288.16
188.4228, 12256.29
188.9050, 12225.04
189.3871, 12200.76
189.8692, 12187.36
190.3513, 12183.94
190.8334, 12185.45
191.3155, 12190.58
191.7977, 12203.43
192.2798, 12233.46
192.7619, 12280.67
193.2440, 12331.19
193.7261, 12375.78
194.2082, 12415.76
194.6904, 12468.30
195.1725, 12535.71
195.6546, 12613.42
196.1367, 12689.42
196.6188, 12763.43
197.1009, 12843.85
197.5831, 12937.11
198.0652, 13043.90
198.5473, 13147.80
199.0294, 13245.75
199.5115, 13343.15
199.9937, 13453.04
200.4758, 13575.43
200.9579, 13700.00
201.4400, 13819.15
201.9221, 13932.18
202.4042, 14048.03
202.8864, 14168.35
203.3685, 14290.30
203.8506, 14408.37
204.3327, 14521.59
204.8148, 14630.08
205.2969, 14733.87
205.7791, 14833.08
206.2612, 14926.93
206.7433, 15016.37
207.2254, 15099.71
207.7075, 15171.94
208.1896, 15232.00
208.6718, 15284.77
209.1539, 15333.34
209.6360, 15377.38
210.1181, 15417.23
210.6002, 15452.72
211.0823, 15484.53
211.5645, 15513.60
212.0466, 15538.90
212.5287, 15565.11
213.0108, 15593.83
213.4929, 15624.12
213.9750, 15661.67
214.4572, 15706.29
214.9393, 15758.55
215.4214, 15821.45
215.9035, 15895.48
216.3856, 15979.66
216.8678, 16071.94
217.3499, 16173.64
217.8320, 16281.50
218.3141, 16393.79
218.7962, 16511.18
219.2783, 16635.05
219.7605, 16762.76
220.2426, 16898.71
220.7247, 17044.68
221.2068, 17202.22
221.6889, 17363.46
222.1710, 17527.31
222.6532, 17694.52
223.1353, 17861.65
223.6174, 18030.42
224.0995, 18199.89
224.5816, 18369.26
225.0637, 18539.85
225.5459, 18711.71
226.0280, 18882.52
226.5101, 19055.89
226.9922, 19237.78
227.4743, 19435.62
227.9564, 19632.75
228.4386, 19822.96
228.9207, 19996.32
229.4028, 20178.68
229.8849, 20376.70
230.3670, 20582.45
230.8492, 20780.35
231.3313, 20967.11
231.8134, 21147.93
232.2955, 21329.48
232.7776, 21517.46
233.2597, 21688.64
233.7419, 21852.20
234.2240, 21997.52
234.7061, 22089.81
235.1882, 22112.70
235.6703, 22108.81
236.1524, 22095.07
236.6346, 22071.22
237.1167, 22035.94
237.5988, 21973.04
238.0809, 21904.26
238.5630, 21878.38
239.0451, 21895.34
239.5273, 21955.30
240.0094, 22059.44
240.4915, 22213.09
240.9736, 22397.04
241.4557, 22612.23
241.9378, 22857.42
242.4200, 23130.66
242.9021, 23442.06
243.3842, 23770.07
243.8663, 24109.21
244.3484, 24464.10
244.8306, 24818.79
245.3127, 25178.37
245.7948, 25532.04
246.2769, 25859.88
246.7590, 26162.73
247.2411, 26433.20
247.7233, 26672.08
248.2054, 26887.05
248.6875, 27043.45
249.1696, 27136.78
249.6517, 27174.15
250.1338, 27166.11
250.6160, 27116.02
251.0981, 27014.61
251.5802, 26858.28
252.0623, 26643.30
252.5444, 26388.85
253.0265, 26092.59
253.5087, 25760.80
253.9908, 25407.64
254.4729, 25029.33
254.9550, 24633.38
255.4371, 24219.50
255.9192, 23790.95
256.4014, 23348.26
256.8835, 22885.97
257.3656, 22414.77
257.8477, 21932.74
258.3298, 21433.30
258.8120, 20934.64
259.2941, 20437.93
259.7762, 19941.09
260.2583, 19444.35
260.7404, 18939.26
261.2225, 18438.36
261.7047, 17938.72
262.1868, 17431.00
262.6689, 16945.25
263.1510, 16485.53
263.6331, 16055.01
264.1152, 15626.48
264.5974, 15198.36
265.0795, 14778.79
265.5616, 14388.50
266.0437, 14026.37
266.5258, 13677.83
267.0079, 13341.04
267.4901, 13013.97
267.9722, 12706.01
268.4543, 12416.83
268.9364, 12141.56
269.4185, 11874.00
269.9006, 11611.96
270.3828, 11368.45
270.8649, 11143.22
271.3470, 10936.75
271.8291, 10749.05
272.3112, 10580.85
272.7933, 10423.08
273.2755, 10269.19
273.7576, 10117.30
274.2397, 9978.689
274.7218, 9856.377
275.2039, 9748.104
275.6860, 9647.639
276.1682, 9553.730
276.6503, 9468.828
277.1324, 9394.145
277.6145, 9330.547
278.0966, 9276.241
278.5787, 9231.894
279.0609, 9196.563
279.5430, 9166.547
280.0251, 9141.512
280.5072, 9126.605
280.9893, 9127.261
281.4715, 9143.487
281.9536, 9159.652
282.4357, 9173.236
282.9178, 9190.105
283.3999, 9219.065
283.8820, 9259.963
284.3642, 9312.876
284.8463, 9379.875
285.3284, 9460.312
285.8105, 9544.361
286.2926, 9631.993
286.7747, 9723.497
287.2569, 9822.391
287.7390, 9928.095
288.2211, 10029.08
288.7032, 10122.96
289.1853, 10208.50
289.6674, 10282.73
290.1496, 10346.38
290.6317, 10397.44
291.1138, 10432.99
291.5959, 10453.76
292.0780, 10462.70
292.5602, 10456.19
293.0423, 10440.64
293.5244, 10430.01
294.0065, 10424.35
294.4886, 10426.50
294.9707, 10433.33
295.4529, 10448.90
295.9350, 10486.21
296.4171, 10545.07
296.8992, 10631.42
297.3813, 10758.02
297.8634, 10922.94
298.3456, 11113.74
298.8277, 11322.79
299.3098, 11548.94
299.7919, 11789.40
300.2740, 12042.10
300.7561, 12308.73
301.2383, 12587.52
301.7204, 12879.47
302.2025, 13170.62
302.6846, 13459.60
303.1667, 13742.25
303.6488, 14019.90
304.1310, 14291.94
304.6131, 14552.98
305.0952, 14795.20
305.5773, 15019.27
306.0594, 15226.07
306.5415, 15417.48
307.0237, 15592.58
307.5058, 15751.38
307.9879, 15891.74
308.4700, 16023.09
308.9521, 16146.71
309.4343, 16267.27
309.9164, 16395.59
310.3985, 16532.04
310.8806, 16682.21
311.3627, 16847.63
311.8448, 17029.72
312.3270, 17234.52
312.8091, 17470.34
313.2912, 17729.74
313.7733, 18003.93
314.2554, 18310.49
314.7375, 18613.25
315.2197, 18908.11
315.7018, 19192.71
316.1839, 19426.84
316.6660, 19603.27
317.1481, 19717.06
317.6302, 19763.23
318.1124, 19748.56
318.5945, 19658.72
319.0766, 19476.01
319.5587, 19210.88
320.0408, 18898.44
320.5229, 18519.60
321.0051, 18117.56
321.4872, 17710.81
321.9693, 17290.73
322.4514, 16896.42
322.9335, 16531.47
323.4156, 16198.10
323.8978, 15900.61
324.3799, 15641.53
324.8620, 15416.86
325.3441, 15223.65
325.8262, 15061.55
326.3083, 14937.74
326.7905, 14867.39
327.2726, 14830.69
327.7547, 14804.03
328.2368, 14780.40
328.7189, 14772.80
329.2010, 14787.89
329.6832, 14827.72
330.1653, 14865.99
330.6474, 14903.66
331.1295, 14939.09
331.6116, 14972.12
332.0938, 15009.62
332.5759, 15033.95
333.0580, 15043.98
333.5401, 15039.36
334.0222, 15017.75
334.5043, 14980.40
334.9865, 14924.14
335.4686, 14846.47
335.9507, 14745.54
336.4328, 14626.66
336.9149, 14487.57
337.3970, 14329.90
337.8792, 14162.95
338.3613, 13982.81
338.8434, 13798.08
339.3255, 13609.99
339.8076, 13417.12
340.2898, 13226.18
340.7719, 13033.68
341.2540, 12846.62
341.7361, 12670.15
342.2182, 12507.36
342.7003, 12354.64
343.1825, 12210.82
343.6646, 12076.14
344.1467, 11961.27
344.6288, 11865.33
345.1109, 11788.26
345.5930, 11728.50
346.0752, 11686.78
346.5573, 11663.17
347.0394, 11659.62
347.5215, 11672.00
348.0036, 11695.00
348.4857, 11728.22
348.9679, 11762.17
349.4500, 11795.65
349.9321, 11824.92
350.4142, 11842.06
350.8963, 11849.90
351.3784, 11835.80
351.8606, 11786.30
352.3427, 11702.04
352.8248, 11582.92
353.3069, 11423.41
353.7890, 11232.35
354.2711, 11014.67
354.7533, 10770.14
355.2354, 10513.84
355.7175, 10253.25
356.1996, 9992.765
356.6817, 9739.979
357.1638, 9488.080
357.6460, 9252.639
358.1281, 9045.996
358.6102, 8867.744
359.0923, 8700.260
359.5744, 8534.960
360.0565, 8376.949
360.5387, 8231.418
361.0208, 8103.877
361.5029, 7983.475
361.9850, 7866.342
362.4671, 7753.171
362.9492, 7647.760
363.4314, 7557.827
363.9135, 7471.381
364.3956, 7381.383
364.8777, 7283.763
365.3598, 7189.227
365.8419, 7100.553
366.3241, 7016.223
366.8062, 6934.542
367.2883, 6856.732
367.7704, 6780.099
368.2526, 6703.340
368.7347, 6625.486
369.2168, 6551.639
369.6989, 6483.419
370.1810, 6417.849
370.6631, 6351.531
371.1453, 6280.538
371.6274, 6214.552
372.1095, 6155.181
372.5916, 6101.466
373.0737, 6048.994
373.5558, 5996.696
374.0380, 5946.525
374.5201, 5898.271
375.0022, 5850.940
375.4843, 5810.631
375.9664, 5778.860
376.4485, 5753.074
376.9307, 5726.789
377.4128, 5698.987
377.8949, 5675.903
378.3770, 5660.604
378.8591, 5652.886
379.3412, 5648.089
379.8234, 5645.902
380.3055, 5647.842
380.7876, 5656.482
381.2697, 5671.656
381.7518, 5688.487
382.2339, 5704.094
382.7161, 5721.743
383.1982, 5750.562
383.6803, 5790.101
384.1624, 5834.226
384.6445, 5878.440
385.1266, 5923.448
385.6088, 5971.713
386.0909, 6024.365
386.5730, 6077.560
387.0551, 6127.179
387.5372, 6173.063
388.0193, 6215.646
388.5015, 6257.685
388.9836, 6294.632
389.4657, 6321.651
389.9478, 6338.417
390.4299, 6346.841
390.9120, 6345.758
391.3942, 6337.852
391.8763, 6326.410
392.3584, 6311.959
392.8405, 6294.842
393.3226, 6275.136
393.8047, 6252.894
394.2869, 6228.315
394.7690, 6199.724
395.2511, 6170.044
395.7332, 6140.685
396.2154, 6110.482
396.6975, 6083.700
397.1796, 6062.097
397.6617, 6044.109
398.1438, 6027.179
398.6259, 6011.061
399.1081, 5995.646
399.5902, 5980.688
400.0723, 5965.950
400.5544, 5952.646
401.0365, 5938.023
401.5186, 5926.708
402.0008, 5923.296
402.4829, 5933.789
402.9650, 5940.216
403.4471, 5937.932
403.9292, 5930.068
404.4113, 5930.081
404.8935, 5939.634
405.3756, 5953.146
405.8577, 5967.292
406.3398, 5981.266
406.8219, 6001.153
407.3040, 6027.295
407.7862, 6059.114
408.2683, 6095.943
408.7504, 6137.802
409.2325, 6186.099
409.7146, 6241.508
410.1967, 6303.483
410.6789, 6373.358
411.1610, 6451.180
411.6431, 6537.904
412.1252, 6633.925
412.6073, 6738.954
413.0894, 6851.875
413.5716, 6970.047
414.0537, 7095.875
414.5358, 7230.438
415.0179, 7373.304
415.5000, 7527.958
415.9821, 7697.254
416.4643, 7876.557
416.9464, 8061.757
417.4285, 8251.660
417.9106, 8445.971
418.3927, 8648.208
418.8748, 8853.828
419.3570, 9053.786
419.8391, 9253.187
420.3212, 9440.657
420.8033, 9619.891
421.2854, 9786.738
421.7675, 9925.989
422.2497, 10038.35
422.7318, 10118.42
423.2139, 10162.63
423.6960, 10171.43
424.1781, 10143.38
424.6602, 10075.66
425.1424, 9971.331
425.6245, 9834.642
426.1066, 9652.589
426.5887, 9457.743
427.0709, 9255.824
427.5530, 9046.763
428.0351, 8834.565
428.5172, 8613.026
428.9993, 8393.283
429.4814, 8181.125
429.9636, 7974.786
430.4457, 7782.563
430.9278, 7605.320
431.4099, 7442.302
431.8920, 7291.556
432.3741, 7151.244
432.8563, 7027.310
433.3384, 6923.519
433.8205, 6838.389
434.3026, 6766.680
434.7847, 6708.711
435.2668, 6658.523
435.7490, 6607.694
436.2311, 6558.809
436.7132, 6523.315
437.1953, 6506.275
437.6774, 6500.959
438.1595, 6499.931
438.6417, 6502.995
439.1238, 6509.314
439.6059, 6517.092
440.0880, 6528.569
440.5701, 6547.292
441.0522, 6574.576
441.5344, 6603.317
442.0165, 6627.944
442.4986, 6651.835
442.9807, 6679.000
443.4628, 6709.919
443.9449, 6745.168
444.4271, 6784.576
444.9092, 6828.305
445.3913, 6877.763
445.8734, 6932.804
446.3555, 6992.825
446.8376, 7057.905
447.3198, 7131.467
447.8019, 7203.366
448.2840, 7269.635
448.7661, 7335.048
449.2482, 7406.008
449.7303, 7482.533
450.2125, 7563.380
450.6946, 7647.761
451.1767, 7736.462
451.6588, 7834.929
452.1409, 7945.474
452.6230, 8062.241
453.1052, 8179.407
453.5873, 8297.580
454.0694, 8421.559
454.5515, 8551.054
455.0337, 8687.265
455.5158, 8830.793
455.9979, 8982.410
456.4800, 9134.954
456.9621, 9283.845
457.4442, 9433.485
457.9264, 9594.979
458.4085, 9767.553
458.8906, 9951.294
459.3727, 10145.19
459.8548, 10349.32
460.3369, 10559.01
460.8191, 10774.09
461.3012, 10998.82
461.7833, 11241.09
462.2654, 11496.10
462.7475, 11752.64
463.2296, 12013.03
463.7118, 12271.16
464.1939, 12529.17
464.6760, 12789.57
465.1581, 13027.42
465.6402, 13240.96
466.1223, 13423.56
466.6045, 13567.34
467.0866, 13680.61
467.5687, 13742.53
468.0508, 13755.64
468.5329, 13716.78
469.0150, 13617.35
469.4972, 13455.30
469.9793, 13238.19
470.4614, 12965.12
470.9435, 12634.86
471.4256, 12273.27
471.9077, 11874.67
472.3899, 11456.64
472.8720, 11028.82
473.3541, 10583.31
473.8362, 10160.26
474.3183, 9762.697
474.8004, 9387.991
475.2826, 9028.960
475.7647, 8686.212
476.2468, 8369.144
476.7289, 8084.210
477.2110, 7826.858
477.6931, 7592.217
478.1753, 7379.048
478.6574, 7187.131
479.1395, 7018.390
479.6216, 6870.173
480.1037, 6739.158
480.5858, 6625.923
481.0680, 6526.300
481.5501, 6438.593
482.0322, 6362.049
482.5143, 6295.989
482.9964, 6242.048
483.4786, 6196.995
483.9607, 6159.439
484.4428, 6129.667
484.9249, 6107.227
485.4070, 6093.705
485.8892, 6086.768
486.3713, 6085.114
486.8534, 6091.438
487.3355, 6098.706
487.8176, 6106.411
488.2997, 6115.029
488.7819, 6125.865
489.2640, 6139.447
489.7461, 6154.115
490.2282, 6169.782
490.7103, 6186.366
491.1924, 6200.619
491.6746, 6212.162
492.1567, 6223.036
492.6388, 6234.721
493.1209, 6247.261
493.6030, 6260.630
494.0851, 6275.958
494.5673, 6289.358
495.0494, 6293.815
495.5315, 6291.116
496.0136, 6287.607
496.4957, 6287.310
496.9778, 6287.165
497.4600, 6283.549
497.9421, 6276.680
498.4242, 6268.673
498.9063, 6261.584
499.3884, 6253.478
499.8705, 6241.885
500.3527, 6224.300
500.8348, 6208.551
501.3169, 6197.884
501.7990, 6190.875
502.2811, 6185.492
502.7632, 6180.541
503.2454, 6178.280
503.7275, 6179.755
504.2096, 6184.727
504.6917, 6190.333
505.1738, 6194.180
505.6559, 6201.898
506.1381, 6215.959
506.6202, 6236.058
507.1023, 6264.277
507.5844, 6301.059
508.0665, 6345.158
508.5486, 6395.138
509.0308, 6451.295
509.5129, 6510.180
509.9950, 6570.521
510.4771, 6633.603
510.9592, 6704.616
511.4413, 6782.626
511.9235, 6862.304
512.4056, 6938.100
512.8877, 7013.882
513.3698, 7096.590
513.8519, 7186.734
514.3340, 7282.440
514.8162, 7386.762
515.2983, 7494.227
515.7804, 7598.003
516.2625, 7690.061
516.7446, 7786.322
517.2267, 7893.001
517.7089, 8008.255
518.1910, 8126.452
518.6731, 8250.895
519.1552, 8374.621
519.6373, 8492.060
520.1194, 8602.588
520.6016, 8721.256
521.0837, 8850.896
521.5658, 8983.804
522.0479, 9114.808
522.5300, 9242.262
523.0121, 9368.487
523.4943, 9492.274
523.9764, 9616.521
524.4585, 9746.541
524.9406, 9880.115
525.4227, 10020.39
525.9048, 10168.99
526.3870, 10324.12
526.8691, 10484.97
527.3513, 10652.29
527.8334, 10825.39
528.3155, 11003.18
528.7976, 11188.93
529.2797, 11386.75
529.7618, 11597.57
530.2440, 11824.58
530.7261, 12069.68
531.2082, 12331.22
531.6903, 12602.41
532.1724, 12889.24
532.6545, 13179.75
533.1367, 13474.55
533.6188, 13772.06
534.1009, 14077.97
534.5830, 14403.57
535.0651, 14724.89
535.5472, 15032.28
536.0294, 15328.78
536.5115, 15609.87
536.9936, 15878.96
537.4757, 16128.12
537.9578, 16350.17
538.4399, 16546.60
538.9221, 16720.97
539.4042, 16880.20
539.8863, 17009.63
540.3684, 17081.35
540.8505, 17097.39
541.3326, 17081.60
541.8148, 17042.29
542.2969, 16978.32
542.7790, 16882.67
543.2611, 16757.31
543.7432, 16615.59
544.2253, 16460.28
544.7075, 16296.58
545.1896, 16127.22
545.6717, 15950.53
546.1538, 15779.99
546.6359, 15627.88
547.1180, 15482.62
547.6002, 15333.87
548.0823, 15167.49
548.5644, 15010.66
549.0465, 14870.92
549.5286, 14743.48
550.0107, 14614.94
550.4929, 14482.56
550.9750, 14353.10
551.4571, 14230.20
551.9392, 14113.32
552.4213, 13991.18
552.9034, 13862.87
553.3856, 13729.94
553.8677, 13592.09
554.3498, 13449.79
554.8319, 13308.91
555.3140, 13170.17
555.7961, 13031.81
556.2783, 12891.97
556.7604, 12751.74
557.2425, 12616.13
557.7246, 12491.93
558.2067, 12367.68
558.6888, 12232.85
559.1710, 12089.41
559.6531, 11945.08
560.1352, 11800.54
560.6173, 11660.06
561.0994, 11529.22
561.5815, 11408.70
562.0637, 11289.03
562.5458, 11162.21
563.0279, 11039.86
563.5100, 10928.75
563.9921, 10831.22
564.4742, 10739.89
564.9564, 10653.90
565.4385, 10574.50
565.9206, 10502.92
566.4027, 10438.29
566.8848, 10387.83
567.3669, 10353.38
567.8491, 10335.03
568.3312, 10336.72
568.8133, 10357.98
569.2954, 10389.34
569.7775, 10422.52
570.2596, 10462.23
570.7418, 10517.80
571.2239, 10590.53
571.7060, 10670.81
572.1881, 10752.85
572.6702, 10837.69
573.1523, 10927.97
573.6345, 11025.86
574.1166, 11124.93
574.5987, 11218.78
575.0808, 11311.95
575.5629, 11413.89
576.0450, 11525.34
576.5272, 11644.25
577.0093, 11768.52
577.4914, 11898.21
577.9735, 12038.00
578.4556, 12186.18
578.9377, 12345.89
579.4199, 12521.60
579.9020, 12711.37
580.3841, 12911.00
580.8662, 13119.08
581.3483, 13341.49
581.8304, 13579.74
582.3126, 13834.76
582.7947, 14111.08
583.2768, 14411.85
583.7589, 14727.18
584.2410, 15045.21
584.7231, 15370.07
585.2053, 15709.95
585.6874, 16068.80
586.1696, 16442.67
586.6517, 16833.48
587.1338, 17238.33
587.6159, 17645.69
588.0980, 18044.18
588.5801, 18450.98
589.0623, 18875.29
589.5444, 19318.51
590.0265, 19764.50
590.5086, 20211.63
590.9907, 20663.49
591.4728, 21125.18
591.9550, 21593.68
592.4371, 22069.19
592.9192, 22548.36
593.4013, 23032.05
593.8834, 23521.33
594.3655, 24015.30
594.8477, 24507.35
595.3298, 24987.03
595.8119, 25466.99
596.2940, 25967.96
596.7761, 26480.47
597.2582, 26988.15
597.7404, 27473.00
598.2225, 27955.43
598.7046, 28460.92
599.1867, 28987.44
599.6688, 29483.12
600.1509, 29921.29
600.6331, 30336.99
601.1152, 30747.67
601.5973, 31167.40
602.0794, 31560.23
602.5615, 31925.32
603.0436, 32260.97
603.5258, 32559.01
604.0079, 32816.20
604.4900, 33052.66
604.9721, 33274.93
605.4542, 33470.18
605.9363, 33609.45
606.4185, 33694.01
606.9006, 33742.22
607.3827, 33761.82
607.8648, 33749.49
608.3469, 33700.17
608.8290, 33613.71
609.3112, 33491.68
609.7933, 33331.84
610.2754, 33137.75
610.7575, 32906.01
611.2396, 32638.43
611.7217, 32345.49
612.2039, 32025.38
612.6860, 31686.91
613.1681, 31332.39
613.6502, 30961.15
614.1323, 30569.60
614.6144, 30167.66
615.0966, 29738.54
615.5787, 29298.39
616.0608, 28846.86
616.5429, 28402.41
617.0250, 27974.75
617.5071, 27551.53
617.9893, 27111.78
618.4714, 26656.12
618.9535, 26206.59
619.4356, 25763.43
619.9177, 25329.66
620.3998, 24906.65
620.8820, 24494.46
621.3641, 24094.20
621.8462, 23706.20
622.3283, 23323.93
622.8104, 22944.40
623.2925, 22562.49
623.7747, 22191.82
624.2568, 21837.78
624.7389, 21493.73
625.2210, 21154.69
625.7031, 20819.82
626.1852, 20490.23
626.6674, 20170.05
627.1495, 19854.86
627.6316, 19537.57
628.1137, 19217.72
628.5958, 18908.43
629.0779, 18614.53
629.5601, 18332.50
630.0422, 18058.26
630.5243, 17792.39
631.0064, 17525.17
631.4885, 17244.52
631.9706, 16965.58
632.4528, 16701.62
632.9349, 16454.70
633.4170, 16215.90
633.8991, 15982.46
634.3812, 15755.94
634.8633, 15534.31
635.3455, 15319.63
635.8276, 15110.50
636.3097, 14907.39
636.7918, 14709.16
637.2739, 14513.76
637.7560, 14321.94
638.2382, 14134.94
638.7203, 13952.93
639.2024, 13778.19
639.6845, 13613.76
640.1666, 13458.08
640.6487, 13306.12
641.1309, 13154.24
641.6130, 13004.48
642.0951, 12863.73
642.5772, 12729.37
643.0594, 12600.28
643.5415, 12476.38
644.0236, 12355.64
644.5057, 12235.39
644.9879, 12115.51
645.4700, 11999.87
645.9521, 11886.05
646.4342, 11778.96
646.9163, 11680.65
647.3984, 11591.45
647.8806, 11505.18
648.3627, 11421.27
648.8448, 11340.76
649.3269, 11262.38
649.8090, 11186.34
650.2911, 11119.52
650.7733, 11062.60
651.2554, 11010.31
651.7375, 10955.27
652.2196, 10899.22
652.7017, 10845.97
653.1838, 10796.95
653.6660, 10749.86
654.1481, 10702.90
654.6302, 10656.56
655.1123, 10611.10
655.5944, 10568.48
656.0765, 10524.86
656.5587, 10478.22
657.0408, 10429.25
657.5229, 10380.65
658.0050, 10333.80
658.4871, 10286.03
658.9692, 10236.68
659.4514, 10185.67
659.9335, 10132.55
660.4156, 10077.61
660.8977, 10020.05
661.3798, 9959.700
661.8619, 9897.079
662.3441, 9830.733
662.8262, 9760.557
663.3083, 9691.339
663.7904, 9629.127
664.2725, 9569.022
664.7546, 9505.469
665.2368, 9436.159
665.7189, 9366.588
666.2010, 9297.752
666.6831, 9229.606
667.1652, 9162.101
667.6473, 9094.043
668.1295, 9028.325
668.6116, 8964.420
669.0937, 8902.830
669.5758, 8846.427
670.0579, 8795.563
670.5400, 8743.657
671.0222, 8688.044
671.5043, 8630.772
671.9864, 8573.327
672.4685, 8516.332
672.9506, 8463.137
673.4327, 8417.788
673.9149, 8375.962
674.3970, 8333.932
674.8791, 8291.407
675.3612, 8249.129
675.8433, 8209.340
676.3254, 8167.601
676.8076, 8120.705
677.2897, 8067.328
677.7718, 8018.610
678.2539, 7979.801
678.7360, 7939.476
679.2181, 7887.981
679.7003, 7824.128
680.1824, 7768.941
680.6645, 7725.164
681.1466, 7682.484
681.6287, 7628.717
682.1108, 7566.729
682.5930, 7506.197
683.0751, 7448.737
683.5572, 7391.649
684.0393, 7332.333
684.5214, 7271.093
685.0035, 7208.108
685.4857, 7142.713
685.9678, 7076.225
686.4499, 7009.048
686.9320, 6941.539
687.4141, 6873.595
687.8962, 6805.412
688.3784, 6737.316
688.8605, 6669.550
689.3426, 6601.961
689.8247, 6533.851
690.3068, 6464.662
690.7889, 6396.429
691.2711, 6328.921
691.7532, 6263.354
692.2353, 6205.890
692.7174, 6155.484
693.1995, 6102.327
693.6816, 6036.594
694.1638, 5968.784
694.6459, 5907.392
695.1280, 5853.270
695.6101, 5801.179
696.0922, 5751.092
696.5743, 5701.806
697.0565, 5652.002
697.5386, 5600.125
698.0207, 5552.867
698.5028, 5510.987
698.9849, 5472.248
699.4670, 5435.493
699.9492, 5400.451
700.4313, 5363.883
700.9135, 5325.445
701.3956, 5286.930
701.8777, 5250.620
702.3598, 5215.515
702.8419, 5179.891
703.3240, 5142.764
703.8062, 5105.624
704.2883, 5068.746
704.7704, 5032.545
705.2525, 4998.404
705.7346, 4969.282
706.2167, 4938.365
706.6989, 4904.644
707.1810, 4869.041
707.6631, 4833.111
708.1452, 4797.459
708.6273, 4762.103
709.1094, 4727.000
709.5916, 4692.542
710.0737, 4659.766
710.5558, 4628.703
711.0379, 4597.890
711.5200, 4566.491
712.0021, 4535.133
712.4843, 4503.758
712.9664, 4472.243
713.4485, 4440.011
713.9306, 4406.201
714.4127, 4372.388
714.8948, 4339.375
715.3770, 4306.814
715.8591, 4276.394
716.3412, 4249.725
716.8233, 4222.159
717.3054, 4190.925
717.7875, 4155.982
718.2697, 4122.179
718.7518, 4089.224
719.2339, 4057.985
719.7160, 4030.368
720.1981, 4004.574
720.6802, 3977.148
721.1624, 3947.805
721.6445, 3918.340
722.1266, 3888.632
722.6087, 3860.232
723.0908, 3835.164
723.5729, 3817.583
724.0551, 3795.835
724.5372, 3767.121
725.0193, 3736.454
725.5014, 3709.339
725.9835, 3686.390
726.4656, 3663.206
726.9478, 3638.834
727.4299, 3614.728
727.9120, 3594.202
728.3941, 3575.751
728.8762, 3555.344
729.3583, 3531.158
729.8405, 3506.118
730.3226, 3481.938
730.8047, 3458.529
731.2868, 3436.527
731.7689, 3417.476
732.2510, 3397.941
732.7332, 3376.495
733.2153, 3354.271
733.6974, 3333.463
734.1795, 3315.303
734.6616, 3295.251
735.1437, 3271.673
735.6259, 3246.227
736.1080, 3223.276
736.5901, 3202.677
737.0722, 3183.248
737.5543, 3165.248
738.0364, 3147.452
738.5186, 3127.979
739.0007, 3107.456
739.4828, 3087.526
739.9649, 3071.175
740.4470, 3053.431
740.9291, 3030.621
741.4113, 3003.383
741.8934, 2979.810
742.3755, 2961.753
742.8576, 2944.011
743.3397, 2924.090
743.8218, 2902.426
744.3040, 2882.518
744.7861, 2864.572
745.2682, 2847.171
745.7503, 2828.699
746.2324, 2810.343
746.7145, 2795.186
747.1967, 2782.941
747.6788, 2770.142
748.1609, 2753.529
748.6430, 2736.736
749.1251, 2722.183
749.6072, 2710.581
750.0894, 2698.495
750.5715, 2685.596
751.0536, 2672.518
751.5357, 2660.070
752.0178, 2648.321
752.4999, 2634.695
752.9821, 2618.751
753.4642, 2603.399
753.9463, 2591.845
754.4284, 2582.879
754.9105, 2574.159
755.3926, 2565.275
755.8748, 2556.815
756.3569, 2550.316
756.8390, 2543.592
757.3211, 2534.199
757.8032, 2519.398
758.2853, 2507.347
758.7675, 2499.245
759.2496, 2493.210
759.7318, 2487.695
760.2139, 2482.810
760.6960, 2477.959
761.1781, 2473.049
761.6602, 2468.534
762.1423, 2465.182
762.6245, 2462.664
763.1066, 2460.214
763.5887, 2457.760
764.0708, 2455.125
764.5529, 2451.923
765.0350, 2448.612
765.5172, 2445.727
765.9993, 2443.937
766.4814, 2441.717
766.9635, 2438.073
767.4456, 2434.587
767.9277, 2433.923
768.4099, 2436.769
768.8920, 2437.211
769.3741, 2433.587
769.8562, 2428.985
770.3383, 2428.194
770.8204, 2430.102
771.3026, 2431.770
771.7847, 2432.461
772.2668, 2432.403
772.7489, 2430.572
773.2310, 2428.457
773.7131, 2428.393
774.1953, 2433.751
774.6774, 2437.519
775.1595, 2438.121
775.6416, 2437.307
776.1237, 2438.433
776.6058, 2441.796
777.0880, 2444.709
777.5701, 2446.227
778.0522, 2447.460
778.5343, 2450.403
779.0164, 2454.589
779.4985, 2458.735
779.9807, 2462.042
780.4628, 2465.353
780.9449, 2469.387
781.4270, 2473.728
781.9091, 2477.630
782.3912, 2479.450
782.8734, 2482.768
783.3555, 2488.909
783.8376, 2496.500
784.3197, 2501.495
784.8018, 2503.609
785.2839, 2507.543
785.7661, 2515.746
786.2482, 2525.104
786.7303, 2529.315
787.2124, 2530.181
787.6945, 2532.944
788.1766, 2541.898
788.6588, 2551.482
789.1409, 2558.558
789.6230, 2564.108
790.1051, 2571.258
790.5872, 2581.202
791.0693, 2591.250
791.5515, 2600.703
792.0336, 2609.979
792.5157, 2620.428
792.9978, 2632.073
793.4799, 2642.443
793.9620, 2650.052
794.4442, 2656.705
794.9263, 2665.190
795.4084, 2675.029
795.8905, 2684.964
796.3726, 2694.508
796.8547, 2703.876
797.3369, 2712.752
797.8190, 2721.499
798.3011, 2731.380
798.7832, 2742.441
799.2653, 2754.685
799.7474, 2768.299
800.2296, 2782.917
800.7117, 2797.887
801.1938, 2813.121
801.6759, 2827.767
802.1580, 2841.732
802.6401, 2854.676
803.1223, 2864.004
803.6044, 2871.852
804.0865, 2883.546
804.5686, 2905.176
805.0507, 2926.575
805.5328, 2944.300
806.0150, 2959.595
806.4971, 2975.390
806.9792, 2991.100
807.4613, 3009.508
807.9434, 3032.328
808.4255, 3057.267
808.9077, 3079.912
809.3898, 3100.465
809.8719, 3119.859
810.3540, 3137.238
810.8361, 3154.880
811.3182, 3175.292
811.8004, 3197.203
812.2825, 3218.102
812.7646, 3237.273
813.2467, 3255.378
813.7288, 3272.838
814.2109, 3289.328
814.6931, 3303.421
815.1752, 3315.032
815.6573, 3326.676
816.1394, 3339.916
816.6215, 3352.491
817.1037, 3359.698
817.5858, 3363.086
818.0679, 3366.889
818.5500, 3373.348
819.0322, 3380.168
819.5143, 3385.855
819.9964, 3391.022
820.4785, 3397.134
820.9606, 3406.513
821.4427, 3412.290
821.9249, 3412.670
822.4070, 3409.625
822.8891, 3406.490
823.3712, 3403.376
823.8533, 3401.391
824.3354, 3400.483
824.8176, 3401.667
825.2997, 3407.173
825.7818, 3415.411
826.2639, 3423.509
826.7460, 3431.218
827.2281, 3438.007
827.7103, 3441.422
828.1924, 3445.065
828.6745, 3454.104
829.1566, 3469.439
829.6387, 3486.591
830.1208, 3505.371
830.6030, 3524.274
831.0851, 3539.233
831.5672, 3551.932
832.0493, 3567.488
832.5314, 3587.898
833.0135, 3609.210
833.4957, 3626.582
833.9778, 3643.960
834.4599, 3666.323
834.9420, 3696.652
835.4241, 3728.843
835.9063, 3762.220
836.3884, 3798.295
836.8705, 3838.482
837.3526, 3882.780
837.8347, 3929.131
838.3168, 3977.469
838.7990, 4030.298
839.2811, 4092.870
839.7632, 4161.354
840.2453, 4229.681
840.7274, 4295.806
841.2095, 4366.891
841.6917, 4445.789
842.1738, 4530.513
842.6559, 4620.188
843.1380, 4715.720
843.6201, 4812.653
844.1022, 4910.623
844.5844, 5011.183
845.0665, 5115.683
845.5486, 5224.407
846.0307, 5335.498
846.5128, 5449.278
846.9949, 5568.432
847.4771, 5699.102
847.9592, 5832.834
848.4413, 5962.955
848.9234, 6087.756
849.4055, 6214.598
849.8876, 6343.072
850.3698, 6472.764
850.8519, 6603.080
851.3340, 6734.007
851.8161, 6861.057
852.2982, 6984.117
852.7803, 7096.575
853.2625, 7194.546
853.7446, 7278.335
854.2267, 7352.181
854.7088, 7415.604
855.1909, 7462.380
855.6730, 7491.058
856.1552, 7500.520
856.6373, 7491.373
857.1194, 7463.603
857.6015, 7415.989
858.0836, 7347.440
858.5657, 7264.828
859.0479, 7168.487
859.5300, 7061.077
860.0121, 6948.645
860.4942, 6830.634
860.9763, 6705.467
861.4584, 6568.222
861.9406, 6430.979
862.4227, 6300.259
862.9048, 6174.785
863.3869, 6052.705
863.8690, 5932.182
864.3511, 5816.906
864.8333, 5705.258
865.3154, 5600.666
865.7975, 5506.275
866.2796, 5421.503
866.7617, 5342.587
867.2438, 5268.080
867.7260, 5197.797
868.2081, 5130.958
868.6902, 5067.706
869.1723, 5006.979
869.6544, 4951.729
870.1365, 4893.833
870.6187, 4833.891
871.1008, 4770.144
871.5829, 4701.004
872.0650, 4626.574
872.5471, 4548.555
873.0292, 4467.476
873.5114, 4381.609
873.9935, 4287.401
874.4756, 4188.177
874.9577, 4088.321
875.4399, 3987.670
875.9220, 3886.223
876.4041, 3782.355
876.8862, 3680.032
877.3683, 3582.070
877.8505, 3488.745
878.3326, 3397.434
878.8147, 3308.253
879.2968, 3222.136
879.7789, 3140.580
880.2610, 3063.699
880.7432, 2990.520
881.2253, 2920.970
881.7074, 2854.535
882.1895, 2788.321
882.6716, 2727.699
883.1537, 2677.025
883.6359, 2635.827
884.1180, 2593.673
884.6001, 2549.368
885.0822, 2508.357
885.5643, 2473.998
886.0464, 2444.333
886.5286, 2414.306
887.0107, 2384.615
887.4928, 2357.923
887.9749, 2336.097
888.4570, 2317.899
888.9391, 2304.226
889.4213, 2293.893
889.9034, 2282.628
890.3855, 2268.437
890.8676, 2258.000
891.3497, 2252.862
891.8318, 2251.855
892.3140, 2253.147
892.7961, 2256.556
893.2782, 2261.271
893.7603, 2266.579
894.2424, 2274.151
894.7245, 2285.811
895.2067, 2300.086
895.6888, 2315.326
896.1709, 2329.206
896.6530, 2347.517
897.1351, 2371.129
897.6172, 2397.592
898.0994, 2424.065
898.5815, 2450.821
899.0636, 2479.067
899.5457, 2508.514
900.0278, 2540.108
900.5099, 2575.485
900.9921, 2612.976
901.4742, 2651.256
901.9563, 2689.540
902.4384, 2731.699
902.9205, 2779.702
903.4026, 2827.842
903.8848, 2872.948
904.3669, 2915.508
904.8490, 2964.138
905.3311, 3018.424
905.8132, 3072.300
906.2953, 3122.390
906.7775, 3170.663
907.2596, 3220.259
907.7417, 3270.307
908.2238, 3318.727
908.7059, 3364.334
909.1880, 3408.682
909.6702, 3454.922
910.1523, 3498.419
910.6344, 3527.367
911.1165, 3541.963
911.5986, 3550.818
912.0807, 3556.854
912.5629, 3556.695
913.0450, 3547.487
913.5271, 3529.306
914.0092, 3501.656
914.4913, 3462.397
914.9734, 3417.798
915.4556, 3368.684
915.9377, 3314.986
916.4198, 3255.625
916.9019, 3190.264
917.3840, 3124.753
917.8661, 3059.044
918.3483, 2994.228
918.8304, 2931.801
919.3125, 2869.619
919.7946, 2803.762
920.2767, 2734.351
920.7589, 2667.615
921.2410, 2606.093
921.7231, 2547.179
922.2052, 2489.246
922.6873, 2432.527
923.1694, 2379.507
923.6516, 2330.682
924.1337, 2282.414
924.6158, 2232.300
925.0979, 2182.182
925.5800, 2134.849
926.0621, 2090.041
926.5443, 2046.490
927.0264, 2002.892
927.5085, 1961.837
927.9906, 1924.214
928.4727, 1888.420
928.9548, 1852.014
929.4370, 1815.073
929.9191, 1779.466
930.4012, 1745.836
930.8833, 1713.841
931.3654, 1683.728
931.8475, 1654.974
932.3297, 1626.419
932.8118, 1598.131
933.2939, 1569.559
933.7761, 1539.233
934.2582, 1509.855
934.7403, 1483.611
935.2224, 1460.354
935.7045, 1437.110
936.1866, 1413.678
936.6688, 1390.606
937.1509, 1367.722
937.6330, 1345.733
938.1151, 1326.142
938.5972, 1308.340
939.0793, 1290.057
939.5615, 1269.526
940.0436, 1249.384
940.5257, 1230.240
941.0078, 1212.091
941.4899, 1195.630
941.9720, 1180.843
942.4542, 1167.470
942.9363, 1155.518
943.4184, 1144.362
943.9005, 1132.320
944.3826, 1121.020
944.8647, 1112.669
945.3469, 1110.721
945.8290, 1106.095
946.3111, 1096.437
946.7932, 1086.077
947.2753, 1078.779
947.7574, 1074.342
948.2396, 1070.566
948.7217, 1067.366
949.2038, 1063.673
949.6859, 1057.226
950.1680, 1051.001
950.6501, 1048.167
951.1323, 1048.682
951.6144, 1048.533
952.0965, 1047.256
952.5786, 1045.176
953.0607, 1041.911
953.5428, 1038.223
954.0250, 1036.518
954.5071, 1036.566
954.9892, 1037.093
955.4713, 1037.763
955.9534, 1038.464
956.4355, 1039.378
956.9177, 1040.157
957.3998, 1040.293
957.8819, 1039.534
958.3640, 1038.430
958.8461, 1036.769
959.3282, 1035.226
959.8104, 1034.414
960.2925, 1034.337
960.7746, 1035.383
961.2567, 1037.580
961.7388, 1039.428
962.2209, 1039.408
962.7031, 1039.192
963.1852, 1040.062
963.6673, 1041.976
964.1494, 1043.279
964.6315, 1043.755
965.1136, 1044.222
965.5958, 1044.755
966.0779, 1045.718
966.5600, 1048.107
967.0421, 1051.565
967.5242, 1055.068
968.0063, 1058.211
968.4885, 1061.389
968.9706, 1064.957
969.4527, 1068.569
969.9348, 1071.714
970.4169, 1074.090
970.8990, 1077.456
971.3812, 1081.919
971.8633, 1087.251
972.3454, 1093.880
972.8275, 1100.822
973.3096, 1106.650
973.7917, 1111.206
974.2739, 1115.458
974.7560, 1119.088
975.2381, 1123.145
975.7202, 1127.747
976.2023, 1133.115
976.6844, 1140.924
977.1666, 1151.205
977.6487, 1161.019
978.1308, 1168.451
978.6129, 1175.888
979.0950, 1186.100
979.5771, 1198.049
980.0593, 1210.075
980.5414, 1221.705
981.0235, 1233.467
981.5056, 1245.608
981.9877, 1257.742
982.4698, 1269.455
982.9520, 1280.906
983.4341, 1292.960
983.9162, 1305.671
984.3983, 1319.493
984.8804, 1335.282
985.3625, 1351.906
985.8447, 1368.813
986.3268, 1385.894
986.8089, 1401.755
987.2910, 1416.234
987.7731, 1429.855
988.2552, 1442.458
988.7374, 1454.833
989.2195, 1469.674
989.7016, 1485.435
990.1837, 1497.748
990.6658, 1503.804
991.1479, 1508.899
991.6301, 1516.172
992.1122, 1522.812
992.5944, 1526.211
993.0765, 1526.008
993.5586, 1524.176
994.0407, 1520.714
994.5228, 1515.688
995.0049, 1509.169
995.4871, 1501.104
995.9692, 1490.941
996.4513, 1478.849
996.9334, 1466.358
997.4155, 1453.246
997.8976, 1440.736
998.3798, 1429.285
998.8619, 1418.530
999.3440, 1407.037
999.8261, 1394.944
1000.308, 1384.313
1000.790, 1376.177
1001.272, 1367.929
1001.755, 1356.639
1002.237, 1344.358
1002.719, 1333.231
1003.201, 1323.133
1003.683, 1315.594
1004.165, 1311.278
1004.647, 1307.692
1005.129, 1302.747
1005.612, 1297.297
1006.094, 1293.806
1006.576, 1292.049
1007.058, 1290.771
1007.540, 1290.596
1008.022, 1289.426
1008.504, 1284.722
1008.986, 1279.085
1009.468, 1277.721
1009.951, 1281.537
1010.433, 1281.981
1010.915, 1277.368
1011.397, 1270.834
1011.879, 1265.611
1012.361, 1260.766
1012.843, 1254.807
1013.325, 1247.284
1013.807, 1241.047
1014.290, 1238.032
1014.772, 1234.234
1015.254, 1228.183
1015.736, 1219.961
1016.218, 1208.697
1016.700, 1194.979
1017.182, 1182.228
1017.664, 1172.346
1018.147, 1163.258
1018.629, 1154.691
1019.111, 1145.657
1019.593, 1134.277
1020.075, 1119.248
1020.557, 1106.127
1021.039, 1095.601
1021.521, 1085.181
1022.003, 1072.326
1022.486, 1057.971
1022.968, 1043.885
1023.450, 1030.100
1023.932, 1016.207
1024.414, 1002.840
1024.896, 988.3287
1025.378, 971.8619
1025.860, 954.1012
1026.343, 936.7590
1026.825, 920.0616
1027.307, 903.2985
1027.789, 886.2800
1028.271, 869.2519
1028.753, 852.3920
1029.235, 835.5979
1029.717, 818.7790
1030.199, 801.2445
1030.682, 785.8464
1031.164, 773.0338
1031.646, 760.7566
1032.128, 747.0889
1032.610, 733.0662
1033.092, 721.7433
1033.574, 712.5968
1034.056, 704.0753
1034.539, 695.1450
1035.021, 687.1644
1035.503, 680.8770
1035.985, 675.5631
1036.467, 670.5611
1036.949, 665.9504
1037.431, 659.3062
1037.913, 650.0817
1038.396, 642.1022
1038.878, 640.4042
1039.360, 640.3406
1039.842, 637.3070
1040.324, 630.9158
1040.806, 624.9338
1041.288, 618.5862
1041.770, 615.1646
1042.252, 616.9590
1042.734, 620.4902
1043.217, 617.8088
1043.699, 611.0143
1044.181, 605.6145
1044.663, 603.4969
1045.145, 602.3102
1045.627, 601.7616
1046.109, 601.2421
1046.591, 600.0682
1047.074, 598.1593
1047.556, 598.1808
1048.038, 600.1417
1048.520, 601.5742
1049.002, 599.3300
1049.484, 597.1694
1049.966, 599.4023
1050.448, 604.3467
1050.931, 606.9464
1051.413, 604.7131
1051.895, 604.8336
1052.377, 608.7389
1052.859, 613.5960
1053.341, 615.7273
1053.823, 616.3079
1054.305, 618.0693
1054.787, 621.3308
1055.270, 624.5338
1055.752, 626.3320
1056.234, 628.6758
1056.716, 632.4269
1057.198, 637.2878
1057.680, 642.5979
1058.162, 648.2258
1058.644, 651.9155
1059.126, 652.2235
1059.609, 652.2133
1060.091, 654.3256
1060.573, 657.7358
1061.055, 661.6989
1061.537, 666.4278
1062.019, 670.5023
1062.501, 673.8996
1062.983, 676.7664
1063.466, 678.9783
1063.948, 680.8203
1064.430, 682.5995
1064.912, 684.4722
1065.394, 686.9021
1065.876, 691.6381
1066.358, 694.6786
1066.840, 694.7969
1067.323, 693.7484
1067.805, 693.6605
1068.287, 694.3790
1068.769, 695.0090
1069.251, 695.4637
1069.733, 695.2722
1070.215, 694.0436
1070.697, 692.0807
1071.179, 689.4642
1071.661, 686.2651
1072.144, 682.6802
1072.626, 678.6605
1073.108, 674.7462
1073.590, 671.0781
1074.072, 667.6944
1074.554, 665.1804
1075.036, 662.7919
1075.518, 659.3690
1076.001, 654.3569
1076.483, 650.0236
1076.965, 646.1517
1077.447, 643.8669
1077.929, 644.5670
1078.411, 646.8282
1078.893, 646.2375
1079.375, 643.5794
1079.858, 641.4342
1080.340, 641.6016
1080.822, 641.3348
1081.304, 639.0286
1081.786, 636.3270
1082.268, 634.7691
1082.750, 634.3850
1083.232, 633.9143
1083.714, 633.3163
1084.197, 632.2350
1084.679, 629.9467
1085.161, 627.5203
1085.643, 625.8707
1086.125, 624.7841
1086.607, 623.3640
1087.089, 621.5518
1087.571, 619.8254
1088.054, 618.5154
1088.536, 616.3332
1089.018, 611.4283
1089.500, 604.8166
1089.982, 597.7783
1090.464, 590.4255
1090.946, 583.4179
1091.428, 577.5169
1091.911, 570.9306
1092.393, 563.1339
1092.875, 554.2551
1093.357, 543.4513
1093.839, 531.8440
1094.321, 522.9941
1094.803, 518.8459
1095.285, 514.4411
1095.767, 508.1509
1096.250, 500.1363
1096.732, 489.9490
1097.214, 477.8712
1097.696, 467.9185
1098.178, 460.0309
1098.660, 453.6573
1099.142, 449.1802
1099.624, 445.1965
1100.106, 440.7784
1100.589, 436.1003
1101.071, 431.3096
1101.553, 425.9320
1102.035, 422.1776
1102.517, 420.3493
1102.999, 418.5309
1103.481, 414.8203
1103.963, 410.3830
1104.446, 406.7058
1104.928, 403.7379
1105.410, 400.9843
1105.892, 398.5752
1106.374, 395.8904
1106.856, 392.4975
1107.338, 389.4648
1107.820, 388.7633
1108.302, 389.4082
1108.785, 388.8665
1109.267, 386.8525
1109.749, 384.8727
1110.231, 383.6425
1110.713, 382.5052
1111.195, 381.3816
1111.677, 380.0699
1112.159, 377.5299
1112.641, 374.1011
1113.124, 372.0898
1113.606, 372.3950
1114.088, 372.7420
1114.570, 371.4703
1115.052, 369.7178
1115.534, 368.3451
1116.016, 367.3659
1116.498, 366.5431
1116.981, 365.8807
1117.463, 365.0039
1117.945, 363.6265
1118.427, 362.1519
1118.909, 360.6453
1119.391, 359.4377
1119.873, 359.1766
1120.355, 360.6465
1120.838, 360.6775
1121.320, 359.0363
1121.802, 356.9411
1122.284, 354.9972
1122.766, 353.2853
1123.248, 351.9521
1123.730, 350.9135
1124.212, 349.9229
1124.694, 348.6840
1125.177, 347.9102
1125.659, 347.8396
1126.141, 347.8786
1126.623, 347.2465
1127.105, 346.2654
1127.587, 346.0545
1128.069, 346.4870
1128.551, 346.2242
1129.033, 343.9179
1129.516, 341.7499
1129.998, 340.2082
1130.480, 339.2332
1130.962, 339.1021
1131.444, 339.5179
1131.926, 338.5229
1132.408, 335.7494
1132.890, 333.8526
1133.373, 335.9778
1133.855, 337.9565
1134.337, 336.8561
1134.819, 333.8532
1135.301, 333.4005
1135.783, 335.3916
1136.265, 336.4865
1136.747, 335.6501
1137.229, 334.4326
1137.712, 334.1545
1138.194, 334.1003
1138.676, 333.5997
1139.158, 332.6355
1139.640, 331.6566
1140.122, 330.6482
1140.604, 329.6250
1141.086, 328.3551
1141.569, 327.4858
1142.051, 328.2981
1142.533, 329.6753
1143.015, 329.9878
1143.497, 328.4523
1143.979, 327.9461
1144.461, 328.8356
1144.943, 329.2677
1145.426, 327.0633
1145.908, 324.5917
1146.390, 326.9063
1146.872, 331.7080
1147.354, 334.2104
1147.836, 330.8969
1148.318, 328.4279
1148.800, 327.2068
1149.282, 326.2919
1149.765, 324.6890
1150.247, 322.8911
1150.729, 322.1860
1151.211, 322.3440
1151.693, 322.2860
1152.175, 321.2051
1152.657, 320.4733
1153.139, 320.4943
1153.621, 320.6523
1154.104, 319.9821
1154.586, 318.8580
1155.068, 318.7185
1155.550, 319.5524
1156.032, 320.1949
1156.514, 320.6164
1156.996, 319.9648
1157.478, 317.5148
1157.961, 314.4288
1158.443, 312.8620
1158.925, 312.5688
1159.407, 312.0799
1159.889, 311.1794
1160.371, 310.7470
1160.853, 311.9603
1161.335, 313.0949
1161.818, 313.1152
1162.300, 313.6290
1162.782, 313.7038
1163.264, 313.1766
1163.746, 313.1283
1164.228, 311.9438
1164.710, 310.7904
1165.192, 310.6819
1165.674, 310.7886
1166.156, 310.5579
1166.639, 310.0045
1167.121, 309.1841
1167.603, 308.1034
1168.085, 306.9589
1168.567, 305.7136
1169.049, 304.7083
1169.531, 304.4843
1170.013, 304.4785
1170.496, 303.9210
1170.978, 302.7682
1171.460, 303.0830
1171.942, 305.0038
1172.424, 305.8026
1172.906, 303.6467
1173.388, 300.9454
1173.870, 300.3709
1174.353, 300.5942
1174.835, 299.5859
1175.317, 299.3909
1175.799, 299.8028
1176.281, 298.2497
1176.763, 299.9538
1177.245, 298.9940
1177.727, 297.2058
1178.209, 296.7278
1178.692, 296.8708
1179.174, 296.3919
1179.656, 294.7106
1180.138, 293.7123
1180.620, 293.5185
1181.102, 293.3290
1181.584, 292.1244
1182.066, 290.9258
1182.548, 291.8286
1183.031, 290.3518
1183.513, 289.2013
1183.995, 289.1968
1184.477, 286.7676
1184.959, 286.7096
1185.441, 287.2215
1185.923, 286.6074
1186.405, 286.7827
1186.888, 285.7417
1187.370, 286.5050
1187.852, 286.8314
1188.334, 286.5355
1188.816, 285.6252
1189.298, 283.8766
1189.780, 282.2767
1190.262, 281.9104
1190.745, 282.3147
1191.227, 283.4865
1191.709, 284.9760
1192.191, 284.4449
1192.673, 279.7232
1193.155, 276.3631
1193.637, 275.2193
1194.119, 275.2835
1194.601, 275.9177
1195.084, 276.6456
1195.566, 276.7845
1196.048, 276.2718
1196.530, 275.0838
1197.012, 272.8831
1197.494, 270.6337
1197.976, 268.3404
1198.458, 266.4775
1198.941, 266.2713
1199.423, 266.7258
1199.905, 265.8734
1200.387, 263.5573
1200.869, 262.2014
1201.351, 263.1632
1201.833, 263.1490
1202.315, 260.8935
1202.797, 258.2624
1203.280, 258.7528
1203.762, 260.8060
1204.244, 261.8867
1204.726, 261.6125
1205.208, 260.2070
1205.690, 256.8715
1206.172, 254.2556
1206.654, 253.3241
1207.136, 253.1503
1207.619, 252.1575
1208.101, 250.7292
1208.583, 249.4268
1209.065, 248.2905
1209.547, 247.8130
1210.029, 248.3889
1210.511, 248.8285
1210.993, 248.7430
1211.476, 248.2283
1211.958, 247.4954
1212.440, 246.4519
1212.922, 244.7749
1213.404, 242.1323
1213.886, 240.2933
1214.368, 239.4921
1214.850, 239.3695
1215.333, 240.1870
1215.815, 240.9893
1216.297, 239.5373
1216.779, 236.9482
1217.261, 235.3218
1217.743, 235.4493
1218.225, 235.1109
1218.707, 234.0145
1219.189, 232.7533
1219.672, 231.5272
1220.154, 230.3804
1220.636, 229.2050
1221.118, 228.2192
1221.600, 227.8987
1222.082, 228.7184
1222.564, 229.0936
1223.046, 229.0126
1223.528, 228.2896
1224.011, 226.4628
1224.493, 224.3741
1224.975, 223.6757
1225.457, 223.6878
1225.939, 223.1296
1226.421, 221.1721
1226.903, 220.3645
1227.385, 221.1293
1227.868, 221.5884
1228.350, 220.4763
1228.832, 218.6975
1229.314, 217.6787
1229.796, 216.9789
1230.278, 215.7772
1230.760, 213.4231
1231.242, 212.1729
1231.724, 212.2930
1232.207, 212.1952
1232.689, 210.4666
1233.171, 208.5076
1233.653, 207.6196
1234.135, 207.9384
1234.617, 210.1244
1235.099, 215.8987
1235.581, 217.5105
1236.063, 214.4762
1236.546, 210.5704
1237.028, 207.7952
1237.510, 205.7075
1237.992, 203.8384
1238.474, 202.3110
1238.956, 201.4575
1239.438, 201.5222
1239.920, 201.0412
1240.403, 199.9828
1240.885, 198.9042
1241.367, 198.2178
1241.849, 197.6129
1242.331, 196.6164
1242.813, 195.6409
1243.295, 195.3624
1243.777, 195.9595
1244.260, 196.2994
1244.742, 196.3862
1245.224, 196.0822
1245.706, 195.1419
1246.188, 193.9572
1246.670, 192.7222
1247.152, 191.4198
1247.634, 189.8648
1248.116, 187.9309
1248.599, 187.5163
1249.081, 188.5486
1249.563, 189.8108
1250.045, 191.2450
1250.527, 191.9268
1251.009, 190.7987
1251.491, 189.0526
1251.973, 187.8635
1252.455, 187.2122
1252.938, 186.6450
1253.420, 186.1400
1253.902, 185.5571
1254.384, 183.5081
1254.866, 183.1172
1255.348, 187.1659
1255.830, 191.6743
1256.313, 193.2359
1256.795, 192.1221
1257.277, 189.2003
1257.759, 184.9575
1258.241, 181.7654
1258.723, 180.9779
1259.205, 181.1375
1259.687, 182.7823
1260.169, 183.8671
1260.651, 181.6010
1261.134, 177.5273
1261.616, 177.0573
1262.098, 179.2849
1262.580, 180.8621
1263.062, 180.2749
1263.544, 179.2007
1264.026, 177.4952
1264.508, 176.0651
1264.991, 176.0293
1265.473, 176.6085
1265.955, 176.1123
1266.437, 174.9796
1266.919, 174.4142
1267.401, 175.5840
1267.883, 175.5099
1268.365, 173.7178
1268.848, 172.3628
1269.330, 173.9724
1269.812, 176.2950
1270.294, 176.3276
1270.776, 174.8584
1271.258, 173.6267
1271.740, 172.8790
1272.222, 171.9861
1272.704, 170.8547
1273.187, 170.4025
1273.669, 172.0528
1274.151, 173.8746
1274.633, 174.1856
1275.115, 173.5050
1275.597, 172.7464
1276.079, 171.9858
1276.561, 170.5729
1277.043, 168.5565
1277.526, 167.3376
1278.008, 168.9236
1278.490, 170.2562
1278.972, 168.8618
1279.454, 166.7955
1279.936, 166.2679
1280.418, 167.2180
1280.900, 167.5735
1281.383, 167.3988
1281.865, 167.1281
1282.347, 166.7908
1282.829, 166.6588
1283.311, 167.1089
1283.793, 167.4429
1284.275, 166.9621
1284.757, 165.9394
1285.240, 165.4150
1285.722, 165.3531
1286.204, 165.6831
1286.686, 166.9974
1287.168, 167.5576
1287.650, 167.0965
1288.132, 166.1418
1288.614, 164.6037
1289.096, 163.1550
1289.578, 163.5388
1290.061, 164.9957
1290.543, 165.9432
1291.025, 165.5567
1291.507, 165.8368
1291.989, 167.0174
1292.471, 167.7459
1292.953, 167.0605
1293.435, 165.7591
1293.918, 164.4895
1294.400, 163.3726
1294.882, 162.6145
1295.364, 162.2346
1295.846, 161.9072
1296.328, 161.6357
1296.810, 161.4353
1297.292, 161.2981
1297.775, 161.2327
1298.257, 161.2748
1298.739, 161.4160
1299.221, 161.7155
1299.703, 162.1174
1300.185, 161.9624
1300.667, 161.3425
1301.149, 160.7843
1301.631, 160.4859
1302.114, 160.2281
1302.596, 160.1314
##END=



