##NAMES=Tobermorite
##RRUFFID=R060147
##IDEAL CHEMISTRY=Ca_5_Si_6_O_16_(OH)_2_&#183;nH_2_O
##LOCALITY=Crestmore Quarries, Riverside County, California
##OWNER=RRUFF
##SOURCE=University of Arizona Mineral Museum
##DESCRIPTION=White fibers bundled in divergent tufts
##STATUS=The identification of this mineral has been confirmed by X-ray diffraction and chemical analysis
##URL=rruff.info/R060147
##MEASURED CHEMISTRY=(Ca_4.91_Al_0.06_[box]_0.03_)_Σ=5_Si_6.00_O_16_(OH)_2_·5H_2_O ; H not measured but estimated by difference
92.02539, 380.8603
92.50751, 385.5621
92.98962, 390.5446
93.47174, 390.6119
93.95386, 388.4194
94.43597, 383.1884
94.91809, 374.8191
95.40021, 364.4375
95.88232, 354.1707
96.36444, 343.6603
96.84656, 333.8165
97.32867, 324.7365
97.81078, 316.6021
98.29290, 309.7720
98.77502, 304.5191
99.25713, 300.6532
99.73925, 295.7744
100.2214, 289.0677
100.7035, 282.4170
101.1856, 276.4997
101.6677, 271.3869
102.1498, 266.8917
102.6320, 262.7910
103.1141, 258.9829
103.5962, 255.9296
104.0783, 253.5415
104.5604, 251.8606
105.0425, 251.2746
105.5247, 252.0995
106.0068, 253.2248
106.4889, 252.5901
106.9710, 250.1441
107.4531, 247.2360
107.9352, 244.5046
108.4173, 241.8420
108.8995, 238.5650
109.3816, 233.7332
109.8637, 228.6813
110.3458, 224.7489
110.8279, 222.1071
111.3100, 220.3750
111.7922, 219.2347
112.2743, 218.8614
112.7564, 218.5406
113.2385, 217.9869
113.7206, 217.4158
114.2027, 217.0798
114.6849, 217.1296
115.1670, 217.3764
115.6491, 217.1522
116.1312, 216.0418
116.6133, 214.8786
117.0954, 213.8063
117.5776, 212.7720
118.0597, 211.6227
118.5418, 210.2046
119.0239, 208.5014
119.5060, 207.4941
119.9881, 207.3158
120.4703, 207.5296
120.9524, 208.1178
121.4345, 208.9957
121.9166, 209.9632
122.3987, 210.9100
122.8808, 211.8363
123.3630, 212.2047
123.8451, 211.7209
124.3272, 210.8294
124.8093, 209.9266
125.2914, 209.0667
125.7735, 208.2152
126.2557, 207.1932
126.7378, 206.0573
127.2199, 205.2803
127.7020, 205.3897
128.1841, 206.0591
128.6662, 206.1602
129.1483, 205.0305
129.6305, 203.8971
130.1126, 203.7549
130.5947, 204.5362
131.0768, 205.5171
131.5589, 206.4161
132.0410, 207.3788
132.5232, 207.0555
133.0053, 203.6527
133.4874, 199.9890
133.9695, 197.4569
134.4516, 196.3350
134.9337, 196.0529
135.4159, 195.7482
135.8980, 195.2660
136.3801, 195.0846
136.8622, 195.5718
137.3443, 196.1384
137.8264, 196.2293
138.3086, 195.6428
138.7907, 194.6485
139.2728, 194.0002
139.7549, 194.1888
140.2370, 194.1684
140.7191, 193.8163
141.2013, 193.2161
141.6834, 192.4393
142.1655, 191.4868
142.6476, 190.4497
143.1297, 189.7483
143.6118, 189.4940
144.0939, 189.3746
144.5761, 189.3739
145.0582, 189.4486
145.5403, 189.3820
146.0224, 188.9715
146.5045, 188.3391
146.9866, 187.8670
147.4688, 187.5542
147.9509, 187.4207
148.4330, 187.5354
148.9151, 187.9305
149.3972, 188.3726
149.8793, 188.9987
150.3615, 189.5352
150.8436, 189.5386
151.3257, 188.5939
151.8078, 187.1421
152.2899, 186.2626
152.7720, 186.3547
153.2542, 186.3072
153.7363, 185.5733
154.2184, 184.4420
154.7005, 183.3249
155.1826, 182.4496
155.6647, 181.8099
156.1469, 181.3739
156.6290, 181.3797
157.1111, 181.3747
157.5932, 181.3170
158.0753, 181.1590
158.5574, 180.8126
159.0396, 180.1575
159.5217, 179.1230
160.0038, 178.4467
160.4859, 178.4277
160.9680, 178.4431
161.4501, 178.2780
161.9323, 177.9069
162.4144, 177.3912
162.8965, 176.7940
163.3786, 176.1021
163.8607, 175.3242
164.3428, 174.4091
164.8250, 173.4553
165.3071, 172.4740
165.7892, 171.4784
166.2713, 170.6139
166.7534, 170.1244
167.2355, 170.0849
167.7177, 169.8666
168.1998, 169.1980
168.6819, 168.3853
169.1640, 167.9066
169.6461, 167.9415
170.1282, 168.0072
170.6104, 167.5902
171.0925, 166.7596
171.5746, 165.4578
172.0567, 163.0616
172.5388, 160.1087
173.0209, 158.3290
173.5031, 158.6726
173.9852, 159.4043
174.4673, 158.8139
174.9494, 157.0366
175.4315, 155.3394
175.9136, 154.7939
176.3958, 155.3517
176.8779, 155.6274
177.3600, 155.5975
177.8421, 155.0283
178.3242, 153.4665
178.8063, 151.0252
179.2885, 148.6191
179.7706, 147.2758
180.2527, 147.2659
180.7348, 147.1495
181.2169, 146.5861
181.6990, 146.0714
182.1812, 145.9791
182.6633, 146.3156
183.1454, 146.7173
183.6275, 146.6103
184.1096, 145.5404
184.5917, 144.9352
185.0738, 143.1534
185.5560, 145.3783
186.0381, 146.7400
186.5202, 147.2849
187.0023, 144.5669
187.4844, 146.0623
187.9665, 145.8692
188.4487, 145.6069
188.9308, 147.6954
189.4129, 145.4520
189.8950, 147.5031
190.3771, 147.8400
190.8592, 147.3427
191.3414, 148.9610
191.8235, 149.7162
192.3056, 149.6547
192.7877, 146.3303
193.2698, 147.2192
193.7519, 146.4197
194.2341, 145.5508
194.7162, 147.0328
195.1983, 144.1829
195.6804, 145.6276
196.1625, 145.3580
196.6446, 145.8730
197.1268, 141.2694
197.6089, 138.2269
198.0910, 136.1989
198.5731, 134.9664
199.0552, 134.1503
199.5373, 133.7532
200.0195, 133.5823
200.5016, 133.6485
200.9837, 133.8973
201.4658, 134.0442
201.9479, 133.9760
202.4300, 133.7924
202.9122, 133.5690
203.3943, 133.2917
203.8764, 133.1322
204.3585, 133.3488
204.8406, 133.9387
205.3227, 134.2785
205.8048, 133.9486
206.2870, 133.5101
206.7691, 133.4437
207.2512, 133.7952
207.7333, 134.1167
208.2154, 133.8396
208.6975, 132.8279
209.1797, 132.0260
209.6618, 131.6209
210.1439, 131.4578
210.6260, 131.6085
211.1081, 132.0384
211.5902, 132.4442
212.0724, 132.3840
212.5545, 131.6659
213.0366, 131.0593
213.5187, 130.6485
214.0008, 130.3337
214.4829, 130.1179
214.9651, 129.9753
215.4472, 129.7932
215.9293, 129.3532
216.4114, 128.3330
216.8935, 127.7484
217.3756, 127.7262
217.8578, 127.9614
218.3399, 128.4006
218.8220, 128.9636
219.3041, 129.3996
219.7862, 129.2702
220.2683, 126.3973
220.7505, 128.1049
221.2326, 128.9493
221.7147, 128.9770
222.1968, 125.7418
222.6789, 126.7200
223.1610, 126.0096
223.6432, 125.2300
224.1253, 126.8012
224.6074, 124.0406
225.0895, 125.5745
225.5716, 126.0601
226.0537, 126.5508
226.5358, 126.5750
227.0180, 126.4579
227.5001, 126.6957
227.9822, 127.5092
228.4643, 127.9407
228.9464, 127.5262
229.4285, 126.8895
229.9107, 126.7541
230.3928, 127.2921
230.8749, 128.0399
231.3570, 128.4008
231.8391, 128.3436
232.3212, 128.2902
232.8034, 128.2932
233.2855, 128.3390
233.7676, 128.3809
234.2497, 128.3945
234.7318, 128.5035
235.2139, 129.0085
235.6961, 129.8474
236.1782, 130.3811
236.6603, 130.2955
237.1424, 129.8539
237.6245, 129.3135
238.1066, 128.5676
238.5888, 128.1908
239.0709, 129.1451
239.5530, 131.0123
240.0351, 132.4995
240.5172, 133.1046
240.9993, 133.0583
241.4815, 132.6328
241.9636, 131.5951
242.4457, 130.8367
242.9278, 131.4236
243.4099, 132.7736
243.8920, 133.6661
244.3742, 133.3040
244.8563, 132.1786
245.3384, 131.4147
245.8205, 131.1247
246.3026, 130.9579
246.7847, 130.6767
247.2668, 130.3794
247.7490, 130.2672
248.2311, 130.6259
248.7132, 131.1339
249.1953, 130.9085
249.6774, 129.5527
250.1595, 128.2578
250.6417, 127.5166
251.1238, 127.1267
251.6059, 126.8722
252.0880, 126.6960
252.5701, 126.5452
253.0522, 126.3073
253.5344, 126.0526
254.0165, 125.5500
254.4986, 124.4624
254.9807, 123.2341
255.4628, 122.3507
255.9449, 122.0404
256.4271, 122.1337
256.9092, 122.2629
257.3913, 122.4818
257.8734, 122.6293
258.3555, 122.7740
258.8376, 122.8028
259.3198, 122.4921
259.8019, 121.7482
260.2840, 120.9197
260.7661, 120.8187
261.2482, 122.0637
261.7303, 122.8560
262.2125, 122.8486
262.6946, 122.4721
263.1767, 121.9675
263.6588, 121.4374
264.1409, 121.0338
264.6230, 121.0754
265.1052, 121.9365
265.5873, 122.5123
266.0694, 122.4536
266.5515, 122.3327
267.0336, 122.6688
267.5157, 123.5322
267.9979, 124.4989
268.4800, 124.8820
268.9621, 124.1857
269.4442, 123.9915
269.9263, 124.5639
270.4084, 125.3385
270.8906, 126.0574
271.3727, 126.6308
271.8548, 126.9904
272.3369, 126.9806
272.8190, 126.3001
273.3011, 126.2996
273.7833, 127.4574
274.2654, 128.7553
274.7475, 129.7314
275.2296, 130.3092
275.7117, 130.5425
276.1938, 130.4305
276.6760, 129.8607
277.1581, 129.6584
277.6402, 130.0963
278.1223, 130.5594
278.6044, 130.6868
279.0865, 130.5602
279.5686, 130.5529
280.0508, 131.0139
280.5329, 131.9621
281.0150, 132.3934
281.4971, 131.8301
281.9792, 131.3447
282.4613, 131.4132
282.9435, 131.8847
283.4256, 132.3843
283.9077, 132.6986
284.3898, 132.8132
284.8719, 132.5664
285.3540, 131.3479
285.8362, 130.5024
286.3183, 130.6562
286.8004, 131.4005
287.2825, 131.9916
287.7646, 132.0413
288.2467, 131.6964
288.7289, 131.4641
289.2110, 131.4559
289.6931, 131.4150
290.1752, 131.2418
290.6573, 131.0302
291.1394, 130.9302
291.6216, 131.0046
292.1037, 131.1670
292.5858, 131.2476
293.0679, 131.2716
293.5500, 131.1641
294.0321, 130.8527
294.5143, 130.4343
294.9964, 129.9970
295.4785, 129.5634
295.9606, 129.1506
296.4427, 128.7700
296.9248, 128.3903
297.4070, 128.1716
297.8891, 128.2854
298.3712, 128.4637
298.8533, 128.4774
299.3354, 128.2912
299.8175, 127.9842
300.2997, 127.6043
300.7818, 127.1281
301.2639, 126.8052
301.7460, 126.7134
302.2281, 126.7109
302.7102, 126.7383
303.1924, 126.7776
303.6745, 126.7897
304.1566, 126.7566
304.6387, 126.6678
305.1208, 126.4576
305.6029, 125.7750
306.0851, 125.3143
306.5672, 125.5830
307.0493, 126.3993
307.5314, 127.1997
308.0135, 127.7117
308.4956, 127.9248
308.9778, 127.7793
309.4599, 126.8353
309.9420, 126.1383
310.4241, 126.2155
310.9062, 126.7576
311.3883, 127.1883
311.8705, 127.2796
312.3526, 127.1142
312.8347, 126.8168
313.3168, 126.2286
313.7989, 125.8877
314.2810, 126.1685
314.7632, 126.6640
315.2453, 126.7297
315.7274, 126.1682
316.2095, 125.5332
316.6916, 125.6939
317.1737, 126.9620
317.6559, 127.6095
318.1380, 126.9488
318.6201, 125.9372
319.1022, 125.4306
319.5843, 125.5405
320.0664, 125.9558
320.5485, 126.4723
321.0306, 127.0950
321.5128, 127.4009
321.9949, 127.4323
322.4770, 127.1286
322.9591, 126.2346
323.4412, 124.8863
323.9233, 123.6543
324.4055, 122.9193
324.8876, 122.6365
325.3697, 122.4518
325.8518, 122.3374
326.3339, 122.3297
326.8160, 122.5272
327.2982, 122.8401
327.7803, 123.1181
328.2624, 123.3237
328.7445, 123.3720
329.2266, 122.9607
329.7087, 121.6295
330.1909, 120.7255
330.6730, 121.0427
331.1551, 121.7360
331.6372, 121.5961
332.1193, 120.2623
332.6014, 118.4742
333.0836, 117.3050
333.5657, 117.0807
334.0478, 116.5223
334.5299, 115.2245
335.0120, 113.8216
335.4941, 112.8343
335.9763, 112.3224
336.4584, 112.0184
336.9405, 111.7005
337.4226, 111.3671
337.9047, 111.0020
338.3868, 110.3706
338.8690, 109.9226
339.3511, 110.1511
339.8332, 110.8065
340.3153, 111.0847
340.7974, 110.4108
341.2795, 108.9876
341.7617, 108.1337
342.2438, 108.4833
342.7259, 108.5686
343.2080, 107.6822
343.6901, 106.4186
344.1722, 104.9902
344.6544, 105.7417
345.1365, 106.2025
345.6186, 106.3883
346.1007, 105.4755
346.5828, 105.9813
347.0649, 105.9186
347.5471, 105.8327
348.0292, 106.5382
348.5113, 105.7851
348.9934, 106.4781
349.4755, 106.5938
349.9576, 106.9738
350.4398, 106.7817
350.9219, 106.7662
351.4040, 107.5057
351.8861, 107.8503
352.3682, 107.9198
352.8503, 106.8907
353.3325, 107.2803
353.8146, 107.1013
354.2967, 106.8991
354.7788, 107.4883
355.2609, 106.6190
355.7430, 107.1957
356.2252, 107.1952
356.7073, 107.4588
357.1894, 107.1504
357.6715, 107.0187
358.1536, 107.4592
358.6357, 107.5829
359.1179, 107.2087
359.5999, 107.4891
360.0821, 106.5999
360.5642, 106.7370
361.0463, 107.3171
361.5284, 106.9716
362.0105, 107.2625
362.4926, 107.3110
362.9748, 107.1388
363.4569, 106.3906
363.9390, 105.5362
364.4211, 104.9633
364.9032, 104.6675
365.3853, 104.5045
365.8675, 104.3666
366.3496, 104.2614
366.8317, 104.2856
367.3138, 104.8207
367.7959, 104.9743
368.2780, 104.2638
368.7602, 103.1847
369.2423, 102.3604
369.7244, 102.0687
370.2065, 102.0602
370.6886, 101.8472
371.1707, 101.3593
371.6529, 100.8370
372.1350, 100.2517
372.6171, 99.68856
373.0992, 99.21523
373.5813, 98.83601
374.0634, 98.47386
374.5456, 98.02470
375.0277, 97.47998
375.5098, 97.04977
375.9919, 96.74767
376.4740, 96.56815
376.9561, 96.63247
377.4383, 96.81176
377.9204, 96.80367
378.4025, 96.32946
378.8846, 95.60900
379.3667, 95.29324
379.8488, 95.53769
380.3310, 95.78687
380.8131, 95.77852
381.2952, 95.67715
381.7773, 95.65864
382.2594, 95.78284
382.7415, 95.92338
383.2237, 95.95127
383.7058, 95.86703
384.1879, 95.01200
384.6700, 95.73357
385.1521, 96.10989
385.6342, 96.15952
386.1164, 94.90394
386.5985, 95.33376
387.0806, 95.08815
387.5627, 94.81484
388.0448, 95.48186
388.5269, 94.41615
389.0091, 95.06824
389.4912, 95.03462
389.9733, 95.31484
390.4554, 94.91547
390.9375, 94.72601
391.4196, 95.21635
391.9018, 95.33027
392.3839, 94.85266
392.8660, 95.15283
393.3481, 94.06336
393.8302, 94.19333
394.3123, 94.84941
394.7945, 94.40597
395.2766, 94.71856
395.7587, 94.74322
396.2408, 94.53743
396.7229, 94.30607
397.2050, 94.04700
397.6872, 94.72826
398.1693, 93.67677
398.6514, 94.34312
399.1335, 94.32374
399.6156, 94.61821
400.0977, 94.23308
400.5798, 94.05785
401.0620, 94.56242
401.5441, 94.69060
402.0262, 94.22723
402.5083, 94.54165
402.9904, 93.46642
403.4725, 93.61063
403.9547, 94.28094
404.4368, 93.85175
404.9189, 94.17859
405.4010, 94.21749
405.8831, 92.94784
406.3652, 93.37791
406.8474, 94.01546
407.3295, 94.30781
407.8116, 94.27345
408.2937, 92.93391
408.7758, 93.27975
409.2579, 92.95016
409.7401, 92.59285
410.2222, 93.17590
410.7043, 92.02619
411.1864, 92.59434
411.6685, 92.47675
412.1506, 92.67299
412.6328, 92.18961
413.1149, 91.91618
413.5970, 92.32255
414.0791, 92.35250
414.5612, 91.79092
415.0433, 92.00712
415.5255, 90.83365
416.0076, 90.87964
416.4897, 91.45176
416.9718, 90.92435
417.4539, 91.15298
417.9360, 90.43996
418.4182, 91.14919
418.9003, 91.92120
419.3824, 92.24637
419.8645, 92.24021
420.3466, 92.48582
420.8287, 93.22983
421.3109, 93.69799
421.7930, 93.25607
422.2751, 92.52190
422.7572, 92.22784
423.2393, 92.63103
423.7214, 93.22775
424.2036, 93.38466
424.6857, 93.12993
425.1678, 93.25152
425.6499, 94.18319
426.1320, 95.21738
426.6141, 95.65667
427.0963, 95.57072
427.5784, 95.49353
428.0605, 95.77642
428.5426, 96.15276
429.0247, 96.09129
429.5068, 95.52848
429.9890, 95.16020
430.4711, 95.52102
430.9532, 96.39905
431.4353, 97.03297
431.9174, 97.34962
432.3995, 97.52823
432.8817, 97.45998
433.3638, 97.33495
433.8459, 97.65229
434.3280, 98.61451
434.8101, 99.73380
435.2922, 100.3057
435.7744, 100.1527
436.2565, 100.1339
436.7386, 100.3219
437.2207, 100.6157
437.7028, 100.9729
438.1849, 101.3756
438.6671, 101.8064
439.1492, 102.2650
439.6313, 102.7295
440.1134, 103.0592
440.5955, 102.9573
441.0776, 103.0910
441.5598, 103.7650
442.0418, 104.5919
442.5240, 105.2026
443.0061, 105.4891
443.4882, 105.5392
443.9703, 105.4387
444.4524, 105.1504
444.9345, 104.8876
445.4167, 104.5874
445.8988, 104.3776
446.3809, 104.5707
446.8630, 104.8635
447.3451, 104.6072
447.8272, 103.3233
448.3094, 101.5391
448.7915, 100.6605
449.2736, 101.0371
449.7557, 101.3218
450.2378, 101.1374
450.7199, 100.7721
451.2021, 100.4668
451.6842, 100.2328
452.1663, 99.80760
452.6484, 98.70108
453.1305, 97.16291
453.6126, 96.51231
454.0948, 97.28599
454.5769, 97.85680
455.0590, 96.55740
455.5411, 94.36095
456.0232, 93.00655
456.5053, 93.22443
456.9875, 93.91397
457.4696, 94.35752
457.9517, 94.53348
458.4338, 94.29965
458.9159, 93.51878
459.3980, 92.47997
459.8802, 91.55653
460.3623, 90.72385
460.8444, 90.10460
461.3265, 89.74680
461.8086, 89.59710
462.2907, 89.78017
462.7729, 90.20277
463.2550, 90.34425
463.7371, 89.76492
464.2192, 88.66099
464.7013, 88.16244
465.1834, 88.93123
465.6656, 89.41832
466.1477, 89.18089
466.6298, 88.66914
467.1119, 88.22879
467.5940, 88.00224
468.0761, 87.49335
468.5583, 88.42593
469.0404, 89.01322
469.5225, 89.27382
470.0046, 88.22923
470.4867, 88.87002
470.9688, 88.83538
471.4510, 88.77307
471.9331, 89.65106
472.4152, 88.79630
472.8973, 89.65938
473.3794, 90.47192
473.8615, 90.66613
474.3437, 90.50481
474.8258, 89.33117
475.3079, 88.39430
475.7900, 88.79572
476.2721, 90.31049
476.7542, 91.54347
477.2364, 91.32695
477.7185, 90.29158
478.2006, 89.92778
478.6827, 90.34890
479.1648, 90.81531
479.6469, 91.04735
480.1291, 91.03156
480.6112, 90.72124
481.0933, 89.96671
481.5754, 89.33476
482.0575, 89.26252
482.5396, 89.47364
483.0217, 89.43730
483.5038, 89.04240
483.9860, 88.55138
484.4681, 88.27107
484.9502, 88.20576
485.4323, 87.65947
485.9144, 85.80553
486.3965, 84.37605
486.8787, 84.51740
487.3608, 85.52043
487.8429, 86.04690
488.3250, 85.56204
488.8071, 84.55325
489.2892, 83.88056
489.7714, 83.66125
490.2535, 83.49410
490.7356, 83.42833
491.2177, 83.36018
491.6998, 83.33253
492.1819, 83.25971
492.6641, 82.89651
493.1462, 82.00599
493.6283, 80.90341
494.1104, 80.63796
494.5925, 81.66511
495.0746, 82.29209
495.5568, 81.73389
496.0389, 80.90321
496.5210, 80.48244
497.0031, 80.49342
497.4852, 80.39233
497.9673, 79.63958
498.4495, 78.49775
498.9316, 77.63927
499.4137, 77.05988
499.8958, 76.91171
500.3779, 77.60542
500.8600, 78.69188
501.3422, 79.22869
501.8243, 78.99853
502.3064, 78.59280
502.7885, 78.19921
503.2706, 77.85544
503.7527, 77.65430
504.2349, 77.61866
504.7170, 77.61657
505.1991, 77.53383
505.6812, 77.36684
506.1633, 77.09591
506.6454, 76.43812
507.1276, 75.99979
507.6097, 76.08996
508.0918, 76.51862
508.5739, 77.08419
509.0560, 77.69405
509.5381, 78.15042
510.0203, 78.08833
510.5024, 77.31121
510.9845, 76.68919
511.4666, 76.23919
511.9487, 75.93047
512.4308, 75.75674
512.9130, 75.71606
513.3951, 75.79417
513.8772, 75.97044
514.3593, 76.30480
514.8414, 77.15111
515.3235, 78.69558
515.8057, 79.29203
516.2878, 77.87102
516.7699, 76.05446
517.2520, 75.06693
517.7341, 74.88946
518.2162, 75.24783
518.6984, 76.47585
519.1805, 77.92214
519.6626, 78.75728
520.1447, 78.99111
520.6268, 78.95316
521.1089, 78.71783
521.5911, 78.40015
522.0732, 78.28309
522.5553, 78.42152
523.0374, 78.55245
523.5195, 78.72599
524.0016, 78.80955
524.4838, 78.56593
524.9659, 78.07225
525.4480, 77.72198
525.9301, 77.81880
526.4122, 78.26719
526.8943, 78.57842
527.3765, 78.65823
527.8586, 78.72351
528.3407, 78.80387
528.8228, 78.87133
529.3049, 78.84448
529.7870, 78.75221
530.2692, 78.77661
530.7513, 79.17088
531.2334, 79.83111
531.7155, 80.14584
532.1976, 80.08371
532.6797, 79.74350
533.1619, 78.69177
533.6440, 77.61547
534.1261, 77.38025
534.6082, 78.23150
535.0903, 78.96713
535.5724, 78.57085
536.0546, 77.54990
536.5367, 77.06481
537.0188, 77.29454
537.5009, 77.50251
537.9830, 77.05997
538.4651, 76.13924
538.9473, 75.71994
539.4294, 76.28690
539.9115, 76.69463
540.3936, 76.46412
540.8757, 75.97520
541.3578, 75.86961
541.8400, 76.18848
542.3221, 76.13115
542.8042, 74.68398
543.2863, 71.80032
543.7684, 70.44579
544.2505, 72.41499
544.7326, 73.80820
545.2147, 73.43968
545.6968, 72.35666
546.1790, 71.69642
546.6611, 71.75212
547.1432, 72.09527
547.6253, 72.34116
548.1074, 72.48949
548.5895, 72.51988
549.0717, 72.41799
549.5538, 72.22855
550.0359, 71.90498
550.5180, 71.52857
551.0001, 71.19654
551.4822, 70.87319
551.9644, 70.72440
552.4465, 71.16036
552.9286, 71.78564
553.4107, 71.60982
553.8928, 70.42223
554.3749, 69.21980
554.8571, 68.89438
555.3392, 69.42825
555.8213, 70.02489
556.3034, 70.99642
556.7855, 71.64463
557.2676, 71.57656
557.7498, 71.19376
558.2319, 70.94839
558.7140, 70.95445
559.1961, 71.08002
559.6782, 71.22350
560.1603, 71.38777
560.6425, 71.30605
561.1246, 70.92052
561.6067, 70.35490
562.0888, 69.33083
562.5709, 68.32412
563.0530, 67.90090
563.5352, 68.20737
564.0173, 68.83273
564.4994, 69.63835
564.9815, 70.49102
565.4636, 70.93640
565.9457, 70.90707
566.4279, 70.59293
566.9100, 70.00655
567.3921, 69.24406
567.8742, 68.62907
568.3563, 67.99571
568.8384, 67.77893
569.3206, 68.48973
569.8027, 69.51472
570.2848, 70.13958
570.7669, 70.24929
571.2490, 70.05016
571.7311, 69.65083
572.2133, 69.10804
572.6954, 69.08373
573.1775, 70.36260
573.6596, 71.07282
574.1417, 70.49431
574.6238, 69.60094
575.1060, 69.26758
575.5881, 69.56992
576.0702, 69.96507
576.5523, 70.01152
577.0344, 69.78943
577.5165, 69.54341
577.9987, 69.22224
578.4808, 69.12521
578.9629, 69.64451
579.4450, 70.27702
579.9271, 70.25545
580.4092, 69.46280
580.8914, 68.77213
581.3735, 68.50085
581.8556, 68.50471
582.3377, 68.68279
582.8198, 68.99833
583.3019, 69.35514
583.7841, 69.70729
584.2662, 70.04063
584.7483, 70.32554
585.2304, 70.69786
585.7125, 70.77759
586.1946, 70.34044
586.6768, 69.82823
587.1589, 69.46845
587.6410, 69.26960
588.1231, 69.16123
588.6052, 69.09892
589.0873, 69.11497
589.5695, 69.32877
590.0516, 69.78605
590.5337, 70.10622
591.0158, 70.16101
591.4979, 70.12038
591.9800, 70.03959
592.4622, 69.96455
592.9443, 70.09669
593.4264, 70.95493
593.9085, 71.63074
594.3906, 70.98566
594.8727, 69.54790
595.3549, 68.82356
595.8370, 69.30947
596.3191, 70.37728
596.8012, 71.35424
597.2833, 72.30745
597.7654, 72.66284
598.2476, 71.97227
598.7297, 71.29732
599.2118, 70.81667
599.6939, 70.60310
600.1760, 70.77631
600.6581, 71.34907
601.1403, 72.09284
601.6224, 72.87977
602.1045, 73.69203
602.5866, 73.97231
603.0687, 73.45675
603.5508, 72.98853
604.0330, 73.01324
604.5151, 73.31255
604.9972, 73.67728
605.4793, 74.12643
605.9614, 74.44282
606.4435, 74.33999
606.9257, 74.12797
607.4078, 74.26022
607.8899, 74.75407
608.3720, 75.38602
608.8541, 76.05200
609.3362, 76.68825
609.8184, 77.09709
610.3005, 77.26620
610.7826, 77.19713
611.2647, 76.35453
611.7468, 75.74911
612.2289, 76.35694
612.7111, 77.76599
613.1932, 78.76074
613.6753, 78.60009
614.1574, 77.82469
614.6395, 77.37659
615.1216, 77.26057
615.6038, 77.42448
616.0859, 78.03901
616.5680, 78.67334
617.0501, 78.97500
617.5322, 79.00425
618.0143, 78.92962
618.4965, 78.70959
618.9786, 78.47856
619.4607, 78.21066
619.9428, 78.01392
620.4249, 78.29259
620.9070, 79.09341
621.3892, 79.57111
621.8713, 78.73534
622.3534, 76.61346
622.8355, 75.47153
623.3176, 76.39817
623.7997, 76.92712
624.2819, 76.35205
624.7640, 75.45934
625.2461, 74.83052
625.7282, 74.60696
626.2103, 74.81567
626.6924, 75.76017
627.1745, 77.05117
627.6566, 77.72737
628.1387, 77.76940
628.6208, 77.40710
629.1030, 76.49374
629.5851, 75.48851
630.0672, 75.06197
630.5493, 75.19311
631.0314, 75.65299
631.5135, 76.87410
631.9957, 77.97179
632.4778, 78.32507
632.9599, 78.14063
633.4420, 77.80113
633.9241, 77.46922
634.4063, 77.30728
634.8884, 77.59907
635.3705, 78.41897
635.8526, 79.07925
636.3347, 79.50084
636.8168, 79.86146
637.2990, 80.25040
637.7811, 80.60625
638.2632, 80.86027
638.7453, 80.99754
639.2274, 81.03343
639.7095, 80.73611
640.1917, 80.43230
640.6738, 80.77589
641.1559, 81.78966
641.6380, 83.02998
642.1201, 84.33989
642.6022, 85.58751
643.0844, 86.45424
643.5665, 86.61140
644.0486, 87.06480
644.5307, 87.73180
645.0128, 88.76905
645.4949, 90.50571
645.9771, 92.63804
646.4592, 94.62122
646.9413, 96.20794
647.4234, 97.54595
647.9055, 98.72141
648.3876, 99.74387
648.8698, 101.0826
649.3519, 102.7128
649.8340, 104.8052
650.3161, 107.9756
650.7982, 111.5463
651.2803, 113.9627
651.7625, 114.4933
652.2446, 115.4925
652.7267, 118.2860
653.2088, 121.7488
653.6909, 124.5633
654.1730, 126.7557
654.6552, 129.1913
655.1373, 132.4335
655.6194, 136.0831
656.1015, 139.0273
656.5836, 140.6815
657.0657, 143.1250
657.5479, 147.0969
658.0300, 151.2985
658.5121, 155.3418
658.9942, 159.1958
659.4763, 162.8158
659.9584, 166.1625
660.4406, 169.4017
660.9227, 172.8470
661.4048, 176.2771
661.8869, 179.0560
662.3690, 181.0740
662.8511, 183.0182
663.3333, 185.4987
663.8154, 188.2263
664.2975, 189.9646
664.7796, 190.3086
665.2617, 190.1975
665.7438, 189.7305
666.2260, 188.7467
666.7081, 186.7804
667.1902, 184.2160
667.6723, 182.0628
668.1544, 180.9196
668.6365, 180.0159
669.1187, 178.0713
669.6008, 175.1274
670.0829, 172.1031
670.5650, 169.1057
671.0471, 166.1211
671.5292, 163.0850
672.0114, 160.0814
672.4935, 157.4246
672.9756, 155.2191
673.4577, 153.1887
673.9398, 151.5013
674.4219, 149.8039
674.9041, 147.5343
675.3862, 144.8667
675.8683, 142.5411
676.3504, 141.0029
676.8325, 140.0968
677.3146, 139.6500
677.7968, 139.9359
678.2789, 139.2845
678.7610, 136.7127
679.2431, 134.2068
679.7252, 133.3391
680.2073, 133.3134
680.6895, 132.4829
681.1716, 130.3047
681.6537, 127.8137
682.1358, 125.3268
682.6179, 123.0229
683.1000, 121.3643
683.5822, 120.2621
684.0643, 118.8075
684.5464, 116.3494
685.0285, 113.3304
685.5106, 111.0528
685.9927, 109.9827
686.4749, 108.5700
686.9570, 106.5519
687.4391, 104.3963
687.9212, 102.0253
688.4033, 99.72695
688.8854, 98.06261
689.3676, 97.33768
689.8497, 96.72975
690.3318, 95.59850
690.8139, 94.07491
691.2960, 92.38036
691.7781, 90.53957
692.2603, 88.69348
692.7424, 86.88147
693.2245, 85.17376
693.7066, 83.72158
694.1887, 82.40744
694.6708, 81.62102
695.1530, 81.90064
695.6351, 82.11617
696.1172, 81.67737
696.5993, 80.80804
697.0814, 79.89439
697.5635, 79.06120
698.0457, 78.39792
698.5278, 78.15676
699.0099, 78.15361
699.4920, 77.73661
699.9741, 76.84212
700.4562, 75.88655
700.9384, 75.05552
701.4205, 74.33646
701.9026, 73.68668
702.3847, 73.00029
702.8668, 72.71053
703.3489, 73.33424
703.8311, 73.82564
704.3132, 73.45560
704.7953, 72.68239
705.2774, 72.32496
705.7595, 72.62035
706.2416, 72.98361
706.7238, 72.77712
707.2059, 72.10638
707.6880, 71.33106
708.1701, 70.40083
708.6522, 69.85162
709.1343, 70.06573
709.6164, 70.58450
710.0985, 70.67046
710.5806, 70.25374
711.0627, 69.94650
711.5449, 69.95277
712.0270, 69.89696
712.5091, 69.46511
712.9912, 68.92091
713.4733, 68.65357
713.9554, 68.74158
714.4376, 68.96194
714.9197, 69.15733
715.4018, 69.29639
715.8839, 69.20030
716.3660, 68.82030
716.8481, 68.57455
717.3303, 68.62288
717.8124, 68.81630
718.2945, 69.08879
718.7766, 69.41981
719.2587, 69.44062
719.7408, 68.98390
720.2230, 68.37158
720.7051, 67.47294
721.1872, 66.63315
721.6693, 66.34129
722.1514, 66.58311
722.6335, 66.89574
723.1157, 66.96529
723.5978, 66.79462
724.0799, 66.28397
724.5620, 65.36689
725.0441, 64.74843
725.5262, 64.53396
726.0084, 64.70721
726.4905, 65.54841
726.9726, 66.80336
727.4547, 67.44509
727.9368, 67.04088
728.4189, 66.62176
728.9011, 66.44263
729.3832, 66.42001
729.8653, 66.63551
730.3474, 66.94772
730.8295, 66.96082
731.3116, 66.44297
731.7938, 65.62908
732.2759, 64.77329
732.7580, 63.86915
733.2401, 63.62893
733.7222, 64.32275
734.2043, 65.12810
734.6865, 65.62328
735.1686, 65.89198
735.6507, 66.16585
736.1328, 66.52815
736.6149, 66.60715
737.0970, 65.97387
737.5792, 65.36189
738.0613, 65.42133
738.5434, 65.85288
739.0255, 65.95518
739.5076, 65.50555
739.9897, 65.01189
740.4719, 65.16412
740.9540, 65.84306
741.4361, 66.20726
741.9182, 66.23760
742.4003, 65.98846
742.8824, 65.20670
743.3646, 64.46578
743.8467, 64.74911
744.3288, 66.07458
744.8109, 66.80315
745.2930, 66.55155
745.7751, 65.97372
746.2573, 65.01398
746.7394, 64.05331
747.2215, 63.52806
747.7036, 63.48634
748.1857, 63.73169
748.6678, 64.23759
749.1500, 64.74633
749.6321, 64.50186
750.1142, 63.50502
750.5963, 62.95229
751.0784, 63.13178
751.5605, 63.65862
752.0427, 64.39082
752.5248, 65.22513
753.0069, 65.61162
753.4890, 65.45055
753.9711, 65.04223
754.4532, 63.82170
754.9354, 62.89479
755.4175, 63.47985
755.8996, 64.94735
756.3817, 65.74804
756.8638, 65.20596
757.3459, 64.20033
757.8281, 63.69925
758.3102, 63.60447
758.7923, 63.56213
759.2744, 63.54917
759.7565, 63.60161
760.2386, 63.73541
760.7208, 63.95154
761.2029, 64.28121
761.6850, 64.80876
762.1671, 65.09945
762.6492, 65.21250
763.1313, 65.03767
763.6135, 64.16408
764.0956, 63.21070
764.5777, 62.91424
765.0598, 63.32190
765.5419, 63.82048
766.0240, 64.04825
766.5062, 64.11118
766.9883, 64.11078
767.4704, 64.06958
767.9525, 64.12434
768.4346, 64.31474
768.9167, 64.40893
769.3989, 64.18612
769.8810, 63.69612
770.3631, 63.23495
770.8452, 62.60123
771.3273, 62.36821
771.8094, 62.95135
772.2916, 63.55851
772.7737, 63.78654
773.2558, 63.71905
773.7379, 63.53588
774.2200, 63.23540
774.7021, 63.04443
775.1843, 63.13978
775.6664, 63.41772
776.1485, 63.87164
776.6306, 64.39822
777.1127, 64.57576
777.5948, 64.20699
778.0770, 63.71300
778.5591, 63.79025
779.0412, 64.48507
779.5233, 64.71187
780.0054, 64.15426
780.4875, 63.79864
780.9697, 64.19489
781.4518, 64.75955
781.9339, 64.98358
782.4160, 64.86484
782.8981, 64.48405
783.3802, 63.48745
783.8624, 62.66169
784.3445, 62.54335
784.8266, 62.75101
785.3087, 62.73551
785.7908, 62.49688
786.2729, 62.49921
786.7551, 63.09699
787.2372, 63.92308
787.7193, 64.17114
788.2014, 63.84828
788.6835, 63.65247
789.1656, 63.64347
789.6478, 63.83954
790.1299, 64.38161
790.6120, 65.05759
791.0941, 65.34561
791.5762, 65.17418
792.0583, 64.85673
792.5404, 64.06721
793.0225, 63.50932
793.5046, 63.80971
793.9868, 64.39400
794.4689, 64.39874
794.9510, 63.69651
795.4331, 63.00019
795.9152, 62.85118
796.3973, 63.03397
796.8795, 63.26529
797.3616, 63.52528
797.8437, 63.68670
798.3258, 63.71382
798.8079, 63.76367
799.2900, 64.00647
799.7722, 64.37068
800.2543, 64.45496
800.7364, 64.21729
801.2185, 63.78593
801.7006, 62.84085
802.1827, 62.03472
802.6649, 61.61312
803.1470, 61.56614
803.6291, 61.97037
804.1112, 62.96370
804.5933, 63.73157
805.0754, 63.67691
805.5576, 63.34882
806.0397, 63.29585
806.5218, 63.43099
807.0039, 63.39825
807.4860, 63.09712
807.9681, 62.88311
808.4503, 63.26482
808.9324, 64.04562
809.4145, 64.01081
809.8966, 62.96326
810.3787, 62.36418
810.8608, 62.75984
811.3430, 63.36384
811.8251, 63.43746
812.3072, 63.07724
812.7893, 62.98200
813.2714, 63.46838
813.7535, 63.74298
814.2357, 63.48421
814.7178, 63.17196
815.1999, 63.19512
815.6820, 63.40997
816.1641, 63.44124
816.6462, 63.15450
817.1284, 62.87170
817.6105, 62.99799
818.0926, 63.28489
818.5747, 63.13430
819.0568, 62.63063
819.5389, 62.47534
820.0211, 62.93610
820.5032, 63.44191
820.9853, 63.25523
821.4674, 62.46299
821.9495, 62.49035
822.4316, 63.98877
822.9138, 64.88059
823.3959, 64.41182
823.8780, 63.61927
824.3601, 62.85742
824.8422, 62.32838
825.3243, 62.66992
825.8065, 64.56413
826.2886, 65.91177
826.7707, 65.42182
827.2528, 64.46161
827.7349, 64.25440
828.2170, 64.56828
828.6992, 64.59117
829.1813, 64.06310
829.6634, 63.58109
830.1455, 63.94654
830.6276, 64.83839
831.1097, 65.09651
831.5919, 64.73202
832.0740, 64.49458
832.5561, 64.64201
833.0382, 64.76347
833.5203, 64.40556
834.0024, 63.66738
834.4846, 63.29771
834.9667, 63.48612
835.4488, 63.74427
835.9309, 64.27554
836.4130, 64.63129
836.8951, 64.32753
837.3773, 63.76794
837.8594, 63.75482
838.3415, 64.53764
838.8236, 65.20688
839.3057, 65.16822
839.7878, 64.90918
840.2700, 64.85039
840.7521, 64.95797
841.2342, 65.20724
841.7163, 65.53890
842.1984, 65.59321
842.6805, 64.91621
843.1627, 63.88320
843.6448, 63.71908
844.1269, 64.45104
844.6090, 65.10981
845.0911, 65.57889
845.5732, 65.76705
846.0554, 65.54469
846.5375, 65.03476
847.0196, 64.57979
847.5017, 64.16594
847.9838, 63.84703
848.4659, 63.53176
848.9481, 63.41092
849.4302, 63.76423
849.9123, 64.23177
850.3944, 64.33481
850.8765, 64.04395
851.3586, 63.80629
851.8408, 63.94863
852.3229, 64.13165
852.8050, 64.06428
853.2871, 63.83954
853.7692, 63.54471
854.2513, 63.24179
854.7335, 63.14613
855.2156, 63.42659
855.6977, 63.76183
856.1798, 63.26599
856.6619, 61.51549
857.1440, 62.10929
857.6262, 62.41670
858.1083, 62.45315
858.5904, 61.40699
859.0725, 61.75879
859.5546, 61.55035
860.0367, 61.31895
860.5189, 61.86748
861.0010, 60.97879
861.4831, 61.51498
861.9652, 61.48238
862.4473, 61.71009
862.9294, 61.37412
863.4116, 61.21223
863.8937, 61.61425
864.3758, 61.70403
864.8579, 61.30315
865.3400, 61.54742
865.8221, 60.63904
866.3043, 60.74210
866.7864, 61.28159
867.2685, 60.90907
867.7506, 61.16364
868.2327, 61.17937
868.7148, 60.10972
869.1970, 60.92766
869.6791, 60.92929
870.1612, 60.09271
870.6433, 60.84599
871.1254, 60.12497
871.6075, 59.93019
872.0897, 59.95972
872.5718, 59.33456
873.0539, 59.07807
873.5360, 59.43982
874.0181, 59.59797
874.5002, 59.51952
874.9823, 59.26756
875.4644, 58.55127
875.9465, 57.85847
876.4286, 57.90394
876.9108, 58.68520
877.3929, 59.13922
877.8750, 58.42263
878.3571, 57.84746
878.8392, 58.44497
879.3214, 59.39318
879.8035, 59.80269
880.2856, 59.59170
880.7677, 58.85451
881.2498, 57.57645
881.7319, 56.49612
882.2141, 56.82530
882.6962, 58.04592
883.1783, 58.48885
883.6604, 58.17335
884.1425, 58.15809
884.6246, 58.86538
885.1068, 59.46744
885.5889, 58.95003
886.0710, 57.52521
886.5531, 56.93832
887.0352, 57.56527
887.5173, 57.92616
887.9995, 57.69601
888.4816, 57.35982
888.9637, 57.06865
889.4458, 56.92347
889.9279, 57.27563
890.4100, 58.44838
890.8922, 58.79657
891.3743, 57.25896
891.8564, 55.81438
892.3385, 55.43461
892.8206, 55.58237
893.3027, 55.73306
893.7849, 55.76032
894.2670, 55.58128
894.7491, 55.01666
895.2312, 54.53375
895.7133, 54.63869
896.1954, 55.07221
896.6776, 55.55842
897.1597, 55.97650
897.6418, 55.93121
898.1239, 55.26830
898.6060, 54.68568
899.0881, 55.29422
899.5703, 56.71498
900.0524, 56.80503
900.5345, 55.49076
901.0166, 54.18335
901.4987, 53.09967
901.9808, 52.53997
902.4630, 52.86033
902.9451, 53.80655
903.4272, 54.50661
903.9093, 55.02820
904.3914, 55.14301
904.8735, 54.42007
905.3557, 53.82721
905.8378, 53.88799
906.3199, 54.12471
906.8020, 53.87592
907.2841, 53.17048
907.7662, 52.94432
908.2484, 53.90604
908.7305, 54.76759
909.2126, 54.79348
909.6947, 54.66240
910.1768, 55.13309
910.6589, 55.98059
911.1411, 56.53989
911.6232, 56.56158
912.1053, 56.23717
912.5874, 55.39227
913.0695, 54.51585
913.5516, 54.68456
914.0338, 55.46673
914.5159, 55.27936
914.9980, 53.86681
915.4801, 52.71462
915.9622, 53.05116
916.4443, 54.20139
916.9265, 54.54644
917.4086, 54.08857
917.8907, 53.59777
918.3728, 53.08432
918.8549, 52.85389
919.3370, 53.22834
919.8192, 53.51775
920.3013, 51.77485
920.7834, 52.74724
921.2655, 53.37534
921.7476, 53.67766
922.2297, 52.67836
922.7119, 53.35988
923.1940, 53.36777
923.6761, 53.22079
924.1582, 52.53606
924.6403, 52.36937
925.1224, 52.95002
925.6046, 53.33114
926.0867, 53.01232
926.5688, 52.73970
927.0509, 53.16648
927.5330, 53.69444
928.0151, 53.37131
928.4973, 52.35936
928.9794, 51.85814
929.4615, 52.59713
929.9436, 53.61431
930.4257, 54.28177
930.9078, 54.58123
931.3900, 54.27615
931.8721, 53.58732
932.3542, 53.20050
932.8363, 53.33460
933.3184, 53.60747
933.8005, 53.62129
934.2827, 53.51654
934.7648, 53.85362
935.2469, 54.52740
935.7290, 54.34799
936.2111, 53.08446
936.6932, 51.95163
937.1754, 51.67288
937.6575, 51.90058
938.1396, 51.98555
938.6217, 51.89261
939.1038, 52.19081
939.5859, 53.23405
940.0681, 53.67801
940.5502, 52.77587
941.0323, 51.74350
941.5144, 51.71931
941.9965, 52.42035
942.4786, 52.61088
942.9608, 51.79754
943.4429, 51.51746
943.9250, 52.48872
944.4071, 53.22998
944.8892, 52.86866
945.3713, 52.14064
945.8535, 51.82449
946.3356, 51.98836
946.8177, 52.42461
947.2998, 53.42190
947.7819, 54.13536
948.2640, 53.96400
948.7462, 53.48360
949.2283, 53.21265
949.7104, 53.07275
950.1925, 52.72970
950.6746, 52.10632
951.1567, 51.58410
951.6389, 51.55891
952.1210, 51.70487
952.6031, 51.47185
953.0852, 51.12431
953.5673, 51.32137
954.0494, 52.06588
954.5316, 52.82569
955.0137, 53.31728
955.4958, 53.70057
955.9779, 54.34263
956.4600, 55.09455
956.9421, 55.05367
957.4242, 54.25538
957.9063, 53.81251
958.3884, 54.04797
958.8705, 54.20562
959.3527, 53.59595
959.8348, 52.62085
960.3169, 52.61116
960.7990, 53.89569
961.2811, 54.29297
961.7632, 53.43558
962.2454, 52.59866
962.7275, 52.14207
963.2096, 52.08137
963.6917, 52.69252
964.1738, 53.83694
964.6559, 53.93146
965.1381, 51.44164
965.6202, 50.39737
966.1023, 52.28873
966.5844, 54.04212
967.0665, 54.08899
967.5486, 53.36023
968.0308, 53.06430
968.5129, 53.28715
968.9950, 53.62770
969.4771, 54.58860
969.9592, 54.87492
970.4413, 53.03706
970.9235, 51.26296
971.4056, 51.51577
971.8877, 53.15842
972.3698, 54.89991
972.8519, 56.39956
973.3340, 57.02121
973.8162, 55.38337
974.2983, 53.77866
974.7804, 54.49578
975.2625, 56.19835
975.7446, 56.90811
976.2267, 56.64869
976.7089, 56.64669
977.1910, 57.49508
977.6731, 58.33721
978.1552, 57.87073
978.6373, 57.05182
979.1194, 57.83381
979.6016, 59.70731
980.0837, 60.91609
980.5658, 61.14744
981.0479, 61.27768
981.5300, 61.91133
982.0121, 62.70867
982.4943, 62.96549
982.9764, 62.81822
983.4585, 63.02421
983.9406, 63.60604
984.4227, 64.50168
984.9048, 65.71459
985.3870, 66.91036
985.8691, 67.75279
986.3512, 68.39817
986.8333, 69.48412
987.3154, 71.14210
987.7975, 71.97042
988.2797, 71.55643
988.7618, 71.73554
989.2439, 73.41501
989.7260, 75.62500
990.2081, 77.33808
990.6902, 78.56054
991.1724, 79.35409
991.6545, 79.34521
992.1366, 79.79450
992.6187, 81.05627
993.1008, 82.37527
993.5829, 83.41586
994.0651, 84.31743
994.5472, 85.35625
995.0293, 86.54107
995.5114, 87.24170
995.9935, 87.13834
996.4756, 87.00829
996.9578, 86.85045
997.4399, 86.79317
997.9220, 87.10011
998.4041, 87.46531
998.8862, 87.39289
999.3683, 86.82285
999.8505, 86.14735
1000.333, 85.24024
1000.815, 84.53944
1001.297, 84.39516
1001.779, 84.36052
1002.261, 84.07891
1002.743, 83.61562
1003.225, 83.18839
1003.707, 82.85318
1004.190, 82.39651
1004.672, 81.58145
1005.154, 80.75999
1005.636, 80.05794
1006.118, 79.55049
1006.600, 79.40823
1007.082, 79.51845
1007.564, 79.61504
1008.046, 79.60319
1008.529, 79.38023
1009.011, 78.62212
1009.493, 77.83025
1009.975, 77.86304
1010.457, 78.13036
1010.939, 77.11250
1011.421, 75.14668
1011.903, 74.49167
1012.385, 76.29090
1012.868, 78.40991
1013.350, 78.41662
1013.832, 77.20874
1014.314, 76.17083
1014.796, 75.40351
1015.278, 75.27893
1015.760, 75.74464
1016.242, 76.09060
1016.725, 75.89893
1017.207, 75.38696
1017.689, 74.64454
1018.171, 73.86970
1018.653, 74.13156
1019.135, 75.18102
1019.617, 74.96412
1020.099, 73.09471
1020.581, 71.76700
1021.064, 72.57903
1021.546, 74.25185
1022.028, 74.25043
1022.510, 72.75737
1022.992, 71.89434
1023.474, 71.67411
1023.956, 72.08662
1024.438, 73.21760
1024.921, 74.06162
1025.403, 73.80058
1025.885, 72.92027
1026.367, 72.54544
1026.849, 72.70254
1027.331, 73.00114
1027.813, 73.49140
1028.295, 73.81299
1028.777, 73.80836
1029.260, 73.82029
1029.742, 74.12571
1030.224, 74.65235
1030.706, 75.22800
1031.188, 75.92285
1031.670, 76.29732
1032.152, 76.32260
1032.634, 76.08463
1033.116, 75.46345
1033.599, 74.88400
1034.081, 74.85354
1034.563, 75.04362
1035.045, 74.31801
1035.527, 72.12730
1036.009, 70.98833
1036.491, 71.61985
1036.973, 71.91428
1037.456, 71.06422
1037.938, 69.96887
1038.420, 69.26427
1038.902, 68.93340
1039.384, 69.00889
1039.866, 70.00169
1040.348, 69.94524
1040.830, 67.91527
1041.313, 66.16054
1041.795, 65.12603
1042.277, 64.69645
1042.759, 65.17783
1043.241, 66.17534
1043.723, 66.35743
1044.205, 65.17255
1044.687, 64.67206
1045.169, 65.83230
1045.651, 66.51068
1046.134, 65.72575
1046.616, 64.56258
1047.098, 63.79252
1047.580, 63.38287
1048.062, 63.13493
1048.544, 63.03652
1049.026, 63.08477
1049.508, 63.61650
1049.991, 63.85956
1050.473, 63.37315
1050.955, 62.65897
1051.437, 61.97844
1051.919, 61.43996
1052.401, 61.26762
1052.883, 61.57113
1053.365, 61.89193
1053.848, 62.34797
1054.330, 62.53280
1054.812, 61.95057
1055.294, 61.32964
1055.776, 61.56819
1056.258, 62.22404
1056.740, 62.04586
1057.222, 60.65819
1057.704, 59.48025
1058.187, 58.92746
1058.669, 58.64005
1059.151, 58.66648
1059.633, 58.72171
1060.115, 58.39477
1060.597, 57.94505
1061.079, 58.12817
1061.561, 59.18978
1062.043, 59.70987
1062.526, 58.71533
1063.008, 57.70320
1063.490, 57.35078
1063.972, 57.26445
1064.454, 57.18955
1064.936, 57.06553
1065.418, 56.83757
1065.900, 56.49298
1066.383, 56.13395
1066.865, 55.79578
1067.347, 55.45757
1067.829, 55.00199
1068.311, 54.63979
1068.793, 54.56619
1069.275, 54.72100
1069.757, 55.09795
1070.240, 55.66064
1070.722, 55.80951
1071.204, 54.92940
1071.686, 54.06015
1072.168, 53.71703
1072.650, 53.55305
1073.132, 53.29504
1073.614, 52.99546
1074.096, 52.77991
1074.578, 52.66939
1075.061, 52.62355
1075.543, 52.83460
1076.025, 52.77545
1076.507, 51.79840
1076.989, 50.84121
1077.471, 50.79260
1077.953, 51.18647
1078.435, 51.18687
1078.918, 50.75215
1079.400, 50.54998
1079.882, 50.98484
1080.364, 51.36556
1080.846, 51.47700
1081.328, 51.29665
1081.810, 50.38522
1082.292, 49.43195
1082.774, 49.64241
1083.257, 50.79910
1083.739, 51.24289
1084.221, 50.16520
1084.703, 49.08990
1085.185, 48.58466
1085.667, 48.45806
1086.149, 48.87376
1086.631, 49.39126
1087.114, 49.50202
1087.596, 49.24523
1088.078, 48.97401
1088.560, 48.81140
1089.042, 48.52817
1089.524, 47.59810
1090.006, 47.02971
1090.488, 47.98713
1090.970, 49.11572
1091.453, 48.87238
1091.935, 47.64709
1092.417, 46.69445
1092.899, 46.30378
1093.381, 46.15688
1093.863, 46.20551
1094.345, 46.38124
1094.827, 46.84790
1095.309, 47.25074
1095.792, 47.27696
1096.274, 47.01732
1096.756, 46.60649
1097.238, 46.07333
1097.720, 45.76514
1098.202, 46.12256
1098.684, 46.25969
1099.166, 45.70063
1099.649, 45.00200
1100.131, 44.28009
1100.613, 43.81709
1101.095, 44.10584
1101.577, 45.12096
1102.059, 46.04988
1102.541, 47.07028
1103.023, 47.37615
1103.505, 46.13646
1103.988, 44.87307
1104.470, 44.29847
1104.952, 44.21718
1105.434, 44.53572
1105.916, 45.12600
1106.398, 45.48881
1106.880, 45.52166
1107.362, 45.39004
1107.844, 45.14023
1108.327, 44.70552
1108.809, 43.63916
1109.291, 42.73559
1109.773, 42.79201
1110.255, 43.57884
1110.737, 44.43169
1111.219, 45.43417
1111.701, 46.00987
1112.184, 45.95816
1112.666, 45.69641
1113.148, 45.07150
1113.630, 44.51025
1114.112, 44.51352
1114.594, 44.68250
1115.076, 44.06350
1115.558, 42.46802
1116.041, 42.01432
1116.523, 43.62682
1117.005, 44.80553
1117.487, 45.19756
1117.969, 45.26040
1118.451, 45.07852
1118.933, 44.80128
1119.415, 44.59972
1119.897, 44.47504
1120.380, 44.45783
1120.862, 44.73352
1121.344, 44.61417
1121.826, 43.77745
1122.308, 43.20017
1122.790, 43.31396
1123.272, 43.65910
1123.754, 43.84122
1124.236, 43.88300
1124.719, 43.90304
1125.201, 44.00026
1125.683, 43.41651
1126.165, 41.79397
1126.647, 40.89227
1127.129, 41.21714
1127.611, 42.11095
1128.093, 43.26589
1128.576, 44.39226
1129.058, 44.94733
1129.540, 44.94400
1130.022, 44.63838
1130.504, 44.00248
1130.986, 43.30765
1131.468, 42.53796
1131.950, 42.41450
1132.432, 43.37783
1132.915, 44.52419
1133.397, 44.76478
1133.879, 44.28936
1134.361, 43.64775
1134.843, 42.87325
1135.325, 42.40050
1135.807, 42.26136
1136.289, 42.46632
1136.771, 43.01183
1137.254, 43.60967
1137.736, 44.03686
1138.218, 44.33207
1138.700, 44.61755
1139.182, 44.81931
1139.664, 44.56696
1140.146, 43.98942
1140.628, 43.67097
1141.111, 43.69617
1141.593, 43.80548
1142.075, 43.86441
1142.557, 43.83892
1143.039, 43.52415
1143.521, 43.23473
1144.003, 43.77554
1144.485, 44.62560
1144.968, 44.78051
1145.450, 44.20412
1145.932, 42.90331
1146.414, 41.05003
1146.896, 40.07424
1147.378, 41.50930
1147.860, 43.12111
1148.342, 42.30381
1148.824, 40.85064
1149.307, 41.04781
1149.789, 42.11074
1150.271, 42.30712
1150.753, 41.59216
1151.235, 41.23144
1151.717, 41.79893
1152.199, 42.49293
1152.681, 43.15881
1153.163, 43.44709
1153.646, 42.81944
1154.128, 41.94457
1154.610, 41.40982
1155.092, 41.24291
1155.574, 41.38280
1156.056, 41.82472
1156.538, 42.26951
1157.020, 42.69550
1157.503, 43.01970
1157.985, 43.23494
1158.467, 43.32454
1158.949, 43.23906
1159.431, 43.04879
1159.913, 42.79671
1160.395, 42.50594
1160.877, 42.34533
1161.359, 42.46748
1161.842, 42.42476
1162.324, 42.01794
1162.806, 41.74408
1163.288, 41.78227
1163.770, 41.94539
1164.252, 42.19993
1164.734, 42.40155
1165.216, 42.17722
1165.698, 41.47501
1166.181, 41.06194
1166.663, 41.01121
1167.145, 40.98034
1167.627, 40.90776
1168.109, 40.91310
1168.591, 41.06360
1169.073, 41.29383
1169.555, 41.56126
1170.037, 41.80302
1170.520, 41.78411
1171.002, 41.50705
1171.484, 40.90493
1171.966, 40.00056
1172.448, 39.74897
1172.930, 40.39493
1173.412, 41.22045
1173.894, 41.77229
1174.377, 41.99192
1174.859, 41.57877
1175.341, 40.85936
1175.823, 40.87667
1176.305, 41.33364
1176.787, 41.19727
1177.269, 40.54698
1177.751, 40.37423
1178.234, 40.98637
1178.716, 41.63786
1179.198, 41.81524
1179.680, 41.63981
1180.162, 40.93077
1180.644, 40.20205
1181.126, 40.20339
1181.608, 40.62497
1182.090, 40.76726
1182.573, 40.68138
1183.055, 41.18379
1183.537, 42.74883
1184.019, 43.64549
1184.501, 42.16317
1184.983, 40.77115
1185.465, 41.19103
1185.947, 41.96811
1186.429, 41.65896
1186.912, 40.84842
1187.394, 40.77256
1187.876, 41.53361
1188.358, 42.23386
1188.840, 43.15554
1189.322, 43.33138
1189.804, 41.79289
1190.286, 40.63876
1190.769, 40.90371
1191.251, 41.50023
1191.733, 41.57664
1192.215, 41.26007
1192.697, 40.80581
1193.179, 40.13024
1193.661, 40.12749
1194.143, 41.06948
1194.625, 41.63159
1195.108, 41.53349
1195.590, 41.42459
1196.072, 41.64933
1196.554, 41.82452
1197.036, 41.44684
1197.518, 40.79332
1198.000, 40.90190
1198.482, 41.62209
1198.964, 41.44744
1199.447, 40.44886
1199.929, 39.67250
1200.411, 39.38670
1200.893, 39.68224
1201.375, 40.63256
1201.857, 41.60257
1202.339, 41.85677
1202.821, 41.66793
1203.304, 41.42767
1203.786, 41.10429
1204.268, 40.49007
1204.750, 39.77897
1205.232, 39.45189
1205.714, 39.60850
1206.196, 40.06254
1206.678, 40.85364
1207.161, 41.48920
1207.643, 41.62754
1208.125, 41.54053
1208.607, 41.27007
1209.089, 40.99751
1209.571, 40.86254
1210.053, 40.88367
1210.535, 41.12438
1211.017, 41.61379
1211.500, 41.89258
1211.982, 41.89602
1212.464, 41.68192
1212.946, 41.11317
1213.428, 40.50562
1213.910, 39.82581
1214.392, 39.34297
1214.874, 39.40835
1215.356, 39.81692
1215.839, 39.93793
1216.321, 39.73947
1216.803, 39.53645
1217.285, 39.30960
1217.767, 39.19182
1218.249, 39.19634
1218.731, 39.48902
1219.213, 40.19745
1219.696, 40.69092
1220.178, 40.15564
1220.660, 39.20192
1221.142, 39.43141
1221.624, 40.40289
1222.106, 40.47804
1222.588, 39.93069
1223.070, 40.10963
1223.552, 41.09539
1224.035, 41.83872
1224.517, 41.84899
1224.999, 41.63023
1225.481, 41.46519
1225.963, 41.42276
1226.445, 41.87348
1226.927, 42.20574
1227.409, 41.33629
1227.891, 40.10718
1228.374, 40.15393
1228.856, 41.37914
1229.338, 42.04738
1229.820, 41.51589
1230.302, 41.09367
1230.784, 41.46069
1231.266, 41.45057
1231.748, 40.09097
1232.231, 38.92494
1232.713, 38.99492
1233.195, 39.74925
1233.677, 40.59351
1234.159, 41.43542
1234.641, 41.33186
1235.123, 39.95568
1235.605, 39.16377
1236.088, 39.03466
1236.570, 39.53769
1237.052, 40.77767
1237.534, 41.44229
1238.016, 40.60509
1238.498, 39.43988
1238.980, 39.72242
1239.462, 40.81602
1239.944, 41.02428
1240.427, 40.59127
1240.909, 40.06031
1241.391, 39.60457
1241.873, 39.66014
1242.355, 40.21019
1242.837, 40.48407
1243.319, 39.97613
1243.801, 39.83827
1244.283, 41.86971
1244.766, 43.51654
1245.248, 42.30823
1245.730, 40.22923
1246.212, 38.90499
1246.694, 38.37472
1247.176, 38.67411
1247.658, 39.65678
1248.140, 40.10044
1248.622, 39.25114
1249.105, 39.09882
1249.587, 40.54988
1250.069, 41.37687
1250.551, 40.70755
1251.033, 39.93056
1251.515, 39.85100
1251.997, 40.27347
1252.479, 41.04102
1252.962, 41.97072
1253.444, 41.83321
1253.926, 40.65998
1254.408, 40.23850
1254.890, 40.61395
1255.372, 40.96213
1255.854, 41.05621
1256.336, 40.76626
1256.818, 40.00246
1257.301, 39.42327
1257.783, 39.99979
1258.265, 40.88875
1258.747, 40.90754
1259.229, 40.53768
1259.711, 40.34053
1260.193, 40.33374
1260.675, 40.51692
1261.157, 40.80650
1261.640, 40.95099
1262.122, 40.92039
1262.604, 40.50802
1263.086, 39.07737
1263.568, 38.06213
1264.050, 37.86269
1264.532, 38.29711
1265.014, 39.86911
1265.497, 41.42033
1265.979, 41.45143
1266.461, 40.37589
1266.943, 39.92400
1267.425, 40.16370
1267.907, 40.58799
1268.389, 41.23097
1268.871, 41.77345
1269.354, 42.16679
1269.836, 41.79765
1270.318, 40.36780
1270.800, 39.25200
1271.282, 39.85400
1271.764, 41.33727
1272.246, 42.89328
1272.728, 44.02862
1273.210, 43.56866
1273.693, 42.18648
1274.175, 40.90312
1274.657, 40.00195
1275.139, 39.70445
1275.621, 40.05126
1276.103, 40.63997
1276.585, 41.78792
1277.067, 42.34531
1277.549, 41.55550
1278.032, 40.56980
1278.514, 39.59257
1278.996, 39.00694
1279.478, 39.32873
1279.960, 40.10835
1280.442, 40.48271
1280.924, 40.46289
1281.406, 40.41058
1281.889, 40.33740
1282.371, 40.05706
1282.853, 39.52612
1283.335, 39.51464
1283.817, 40.23503
1284.299, 40.99118
1284.781, 41.34132
1285.263, 41.42949
1285.745, 41.39787
1286.228, 41.24543
##END=



