##NAMES=Todorokite
##RRUFFID=R070257
##IDEAL CHEMISTRY=(Na,Ca,K,Ba,Sr)_1-x_(Mn^4+^,Mn^3+^,Mg,Al)_6_O_12_&#183;3-4H_2_O
##LOCALITY=Todoroki mine, Shiribeshi Province, Hokkaido Island, Japan
##OWNER=RRUFF
##SOURCE=Michael Scott
##DESCRIPTION=Black fibrous fine grains
##STATUS=The identification of this mineral is not yet confirmed.
##URL=rruff.info/R070257
203.9435, 3740.866
204.4256, 3741.669
204.9077, 3758.597
205.3898, 3777.507
205.8719, 3787.108
206.3540, 3785.979
206.8362, 3782.776
207.3183, 3792.025
207.8004, 3825.464
208.2825, 3840.402
208.7646, 3822.934
209.2467, 3799.958
209.7289, 3786.873
210.2110, 3785.364
210.6931, 3787.029
211.1752, 3780.472
211.6573, 3760.022
212.1395, 3752.816
212.6216, 3769.607
213.1037, 3789.442
213.5858, 3804.605
214.0679, 3813.573
214.5500, 3816.903
215.0322, 3813.364
215.5143, 3800.663
215.9964, 3796.711
216.4785, 3811.209
216.9606, 3825.321
217.4427, 3829.336
217.9249, 3826.222
218.4070, 3826.224
218.8891, 3839.046
219.3712, 3865.220
219.8533, 3884.834
220.3354, 3893.896
220.8176, 3899.804
221.2997, 3902.067
221.7818, 3902.642
222.2639, 3904.945
222.7460, 3911.718
223.2281, 3922.393
223.7103, 3930.289
224.1924, 3935.066
224.6745, 3937.002
225.1566, 3934.267
225.6387, 3929.125
226.1208, 3924.614
226.6030, 3922.426
227.0851, 3922.342
227.5672, 3923.164
228.0493, 3921.344
228.5314, 3925.927
229.0135, 3948.838
229.4957, 3974.734
229.9778, 3981.946
230.4599, 3959.885
230.9420, 3925.137
231.4241, 3922.188
231.9062, 3984.903
232.3884, 4020.556
232.8705, 4000.887
233.3526, 3962.347
233.8347, 3932.854
234.3168, 3922.279
234.7989, 3928.223
235.2811, 3951.297
235.7632, 4008.216
236.2453, 4041.769
236.7274, 4032.749
237.2095, 4012.241
237.6916, 3998.117
238.1738, 3994.839
238.6559, 3999.050
239.1380, 4008.860
239.6201, 4027.719
240.1022, 4039.228
240.5843, 4039.263
241.0665, 4034.748
241.5486, 4025.619
242.0307, 4013.758
242.5128, 4004.662
242.9949, 4004.175
243.4770, 4012.963
243.9592, 4022.624
244.4413, 4037.709
244.9234, 4049.206
245.4055, 4052.383
245.8876, 4049.016
246.3697, 4044.037
246.8519, 4040.984
247.3340, 4039.478
247.8161, 4036.023
248.2982, 4027.446
248.7803, 4021.283
249.2624, 4020.064
249.7446, 4022.701
250.2267, 4027.718
250.7088, 4035.038
251.1909, 4043.475
251.6730, 4049.148
252.1551, 4049.823
252.6373, 4052.388
253.1194, 4063.080
253.6015, 4074.983
254.0836, 4079.049
254.5657, 4070.563
255.0478, 4058.707
255.5300, 4059.053
256.0121, 4074.776
256.4942, 4090.723
256.9763, 4103.550
257.4584, 4114.386
257.9406, 4123.703
258.4227, 4131.543
258.9048, 4138.665
259.3869, 4148.222
259.8690, 4160.700
260.3511, 4163.334
260.8333, 4140.908
261.3154, 4119.328
261.7975, 4121.550
262.2796, 4146.619
262.7617, 4168.891
263.2438, 4161.813
263.7260, 4132.717
264.2081, 4126.882
264.6902, 4160.934
265.1723, 4200.749
265.6544, 4223.054
266.1365, 4230.850
266.6187, 4232.726
267.1008, 4230.743
267.5829, 4225.947
268.0650, 4220.894
268.5471, 4216.266
269.0292, 4209.386
269.5114, 4194.699
269.9935, 4176.791
270.4756, 4163.747
270.9577, 4159.281
271.4398, 4159.198
271.9219, 4158.343
272.4041, 4156.606
272.8862, 4158.501
273.3683, 4168.401
273.8504, 4182.526
274.3325, 4193.112
274.8146, 4197.974
275.2968, 4202.660
275.7789, 4212.118
276.2610, 4224.902
276.7431, 4235.190
277.2252, 4240.955
277.7073, 4243.151
278.1895, 4242.736
278.6716, 4238.955
279.1537, 4236.542
279.6358, 4236.768
280.1179, 4239.576
280.6000, 4244.671
281.0822, 4251.903
281.5643, 4262.093
282.0464, 4278.361
282.5285, 4301.572
283.0106, 4318.657
283.4927, 4327.801
283.9749, 4330.388
284.4570, 4324.212
284.9391, 4310.255
285.4212, 4298.770
285.9033, 4299.486
286.3854, 4312.084
286.8676, 4316.696
287.3497, 4302.888
287.8318, 4291.937
288.3139, 4298.197
288.7960, 4316.118
289.2781, 4330.090
289.7603, 4331.214
290.2424, 4322.316
290.7245, 4315.051
291.2066, 4308.718
291.6887, 4304.701
292.1708, 4302.153
292.6530, 4302.424
293.1351, 4309.631
293.6172, 4324.960
294.0993, 4341.230
294.5814, 4345.002
295.0635, 4324.836
295.5457, 4313.659
296.0278, 4319.323
296.5099, 4327.665
296.9920, 4327.573
297.4741, 4318.649
297.9562, 4308.559
298.4384, 4304.695
298.9205, 4307.125
299.4026, 4315.840
299.8847, 4342.858
300.3668, 4364.011
300.8489, 4365.680
301.3311, 4354.968
301.8131, 4348.080
302.2953, 4356.483
302.7774, 4376.431
303.2595, 4388.775
303.7416, 4390.473
304.2237, 4388.243
304.7058, 4378.584
305.1880, 4368.298
305.6701, 4365.843
306.1522, 4374.568
306.6343, 4387.596
307.1164, 4393.462
307.5985, 4390.332
308.0807, 4386.771
308.5628, 4380.166
309.0449, 4376.536
309.5270, 4382.954
310.0091, 4398.799
310.4912, 4412.413
310.9734, 4409.741
311.4555, 4392.954
311.9376, 4387.921
312.4197, 4406.819
312.9018, 4422.410
313.3839, 4412.230
313.8661, 4385.409
314.3482, 4365.898
314.8303, 4367.105
315.3124, 4381.042
315.7945, 4395.834
316.2766, 4412.316
316.7588, 4424.630
317.2409, 4427.884
317.7230, 4425.168
318.2051, 4421.180
318.6872, 4415.010
319.1693, 4410.206
319.6515, 4407.774
320.1336, 4408.462
320.6157, 4418.395
321.0978, 4445.458
321.5799, 4473.361
322.0620, 4471.182
322.5442, 4433.993
323.0263, 4405.323
323.5084, 4401.951
323.9905, 4411.933
324.4726, 4421.927
324.9547, 4429.668
325.4369, 4433.487
325.9190, 4429.725
326.4011, 4417.292
326.8832, 4415.820
327.3653, 4436.876
327.8474, 4457.844
328.3296, 4462.700
328.8117, 4456.239
329.2938, 4455.280
329.7759, 4470.708
330.2580, 4497.481
330.7401, 4512.232
331.2223, 4504.371
331.7044, 4497.577
332.1865, 4493.080
332.6686, 4491.360
333.1507, 4495.605
333.6328, 4505.924
334.1150, 4514.577
334.5971, 4508.040
335.0792, 4475.563
335.5613, 4457.454
336.0434, 4468.715
336.5255, 4479.367
337.0077, 4469.260
337.4898, 4443.518
337.9719, 4422.560
338.4540, 4423.933
338.9361, 4444.835
339.4182, 4460.149
339.9004, 4467.633
340.3825, 4472.229
340.8646, 4472.153
341.3467, 4471.588
341.8288, 4475.496
342.3109, 4485.702
342.7931, 4501.146
343.2752, 4524.593
343.7573, 4559.112
344.2394, 4579.302
344.7215, 4568.097
345.2036, 4548.658
345.6858, 4538.443
346.1679, 4538.350
346.6500, 4542.226
347.1321, 4549.417
347.6142, 4557.577
348.0963, 4558.909
348.5785, 4550.528
349.0606, 4541.972
349.5427, 4543.722
350.0248, 4551.697
350.5069, 4553.414
350.9890, 4536.690
351.4712, 4520.845
351.9533, 4523.104
352.4354, 4541.006
352.9175, 4562.889
353.3996, 4586.096
353.8817, 4606.657
354.3639, 4612.118
354.8460, 4596.396
355.3281, 4582.146
355.8102, 4571.667
356.2923, 4566.494
356.7744, 4573.163
357.2566, 4591.851
357.7387, 4607.313
358.2208, 4600.007
358.7029, 4562.101
359.1850, 4546.046
359.6671, 4569.149
360.1493, 4593.485
360.6314, 4601.241
361.1135, 4596.921
361.5956, 4593.448
362.0777, 4598.724
362.5598, 4609.429
363.0420, 4613.150
363.5241, 4604.366
364.0062, 4597.212
364.4883, 4594.222
364.9704, 4592.830
365.4525, 4590.642
365.9347, 4587.262
366.4168, 4584.376
366.8989, 4583.678
367.3810, 4585.174
367.8631, 4588.928
368.3452, 4597.511
368.8274, 4605.294
369.3095, 4607.127
369.7916, 4606.000
370.2737, 4608.983
370.7558, 4619.380
371.2379, 4635.769
371.7201, 4661.179
372.2022, 4698.086
372.6843, 4718.856
373.1664, 4700.264
373.6485, 4665.319
374.1306, 4650.102
374.6128, 4660.185
375.0949, 4673.696
375.5770, 4678.129
376.0591, 4678.183
376.5412, 4685.594
377.0233, 4703.957
377.5055, 4720.265
377.9876, 4720.612
378.4697, 4702.989
378.9518, 4684.797
379.4339, 4658.052
379.9160, 4638.167
380.3982, 4638.402
380.8803, 4653.670
381.3624, 4670.398
381.8445, 4681.816
382.3266, 4687.661
382.8087, 4686.926
383.2909, 4664.616
383.7730, 4655.904
384.2551, 4675.816
384.7372, 4700.125
385.2193, 4708.255
385.7014, 4673.184
386.1836, 4704.887
386.6657, 4723.338
387.1478, 4729.251
387.6299, 4685.070
388.1120, 4705.575
388.5941, 4700.157
389.0763, 4693.676
389.5584, 4723.285
390.0405, 4686.391
390.5226, 4715.427
391.0047, 4718.146
391.4868, 4732.909
391.9690, 4721.589
392.4511, 4718.326
392.9332, 4741.154
393.4153, 4749.535
393.8974, 4735.213
394.3795, 4750.742
394.8617, 4712.937
395.3438, 4721.933
395.8259, 4751.122
396.3080, 4738.111
396.7901, 4754.118
397.2722, 4759.072
397.7544, 4713.804
398.2365, 4755.879
398.7186, 4760.181
399.2007, 4725.698
399.6828, 4764.780
400.1649, 4735.644
400.6471, 4730.858
401.1292, 4744.396
401.6113, 4738.832
402.0934, 4763.385
402.5755, 4758.924
403.0576, 4751.870
403.5398, 4756.130
404.0219, 4728.332
404.5040, 4760.007
404.9861, 4751.057
405.4682, 4762.300
405.9503, 4778.121
406.4325, 4758.895
406.9146, 4776.772
407.3967, 4737.110
407.8788, 4745.593
408.3609, 4748.892
408.8430, 4782.965
409.3252, 4743.583
409.8073, 4750.729
410.2894, 4777.686
410.7715, 4776.922
411.2536, 4787.749
411.7357, 4764.264
412.2179, 4773.013
412.7000, 4772.876
413.1821, 4803.440
413.6642, 4809.768
414.1463, 4786.866
414.6284, 4764.087
415.1106, 4796.862
415.5927, 4776.983
416.0748, 4785.076
416.5569, 4787.185
417.0390, 4790.295
417.5211, 4793.596
418.0033, 4797.028
418.4854, 4800.685
418.9675, 4805.025
419.4496, 4807.802
419.9317, 4807.623
420.4138, 4806.910
420.8960, 4806.357
421.3781, 4806.614
421.8602, 4808.900
422.3423, 4814.018
422.8244, 4821.812
423.3065, 4832.231
423.7887, 4854.074
424.2708, 4864.175
424.7529, 4850.072
425.2350, 4831.200
425.7171, 4823.027
426.1992, 4827.779
426.6814, 4838.005
427.1635, 4850.570
427.6456, 4864.500
428.1277, 4864.482
428.6098, 4840.464
429.0919, 4821.908
429.5741, 4829.777
430.0562, 4851.026
430.5383, 4865.976
431.0204, 4866.590
431.5025, 4867.444
431.9846, 4890.017
432.4668, 4924.479
432.9489, 4930.246
433.4310, 4890.604
433.9131, 4841.463
434.3952, 4826.877
434.8773, 4851.083
435.3595, 4868.233
435.8416, 4868.606
436.3237, 4867.916
436.8058, 4878.699
437.2879, 4896.453
437.7701, 4907.226
438.2522, 4903.219
438.7343, 4892.232
439.2164, 4895.047
439.6985, 4926.583
440.1806, 4945.127
440.6628, 4940.737
441.1449, 4932.413
441.6270, 4934.448
442.1091, 4944.909
442.5912, 4950.630
443.0733, 4938.454
443.5555, 4915.078
444.0376, 4907.926
444.5197, 4922.483
445.0018, 4937.918
445.4839, 4946.200
445.9660, 4951.603
446.4482, 4957.341
446.9303, 4963.445
447.4124, 4972.543
447.8945, 4994.020
448.3766, 5018.124
448.8587, 5019.639
449.3409, 4993.610
449.8230, 4968.782
450.3051, 4971.728
450.7872, 4997.795
451.2693, 5000.295
451.7514, 4951.760
452.2336, 4913.463
452.7157, 4911.801
453.1978, 4930.222
453.6799, 4946.823
454.1620, 4954.894
454.6441, 4959.107
455.1263, 4965.083
455.6084, 4972.741
456.0905, 4982.569
456.5726, 5004.830
457.0547, 5018.386
457.5368, 5008.713
458.0190, 4987.909
458.5011, 4976.023
458.9832, 4982.374
459.4653, 4996.267
459.9474, 5003.200
460.4295, 5003.073
460.9117, 5000.160
461.3938, 4990.703
461.8759, 4985.064
462.3580, 4998.619
462.8401, 5026.511
463.3222, 5042.082
463.8044, 5026.304
464.2865, 5004.512
464.7686, 4999.822
465.2507, 5009.125
465.7328, 5018.117
466.2149, 5020.286
466.6971, 5020.039
467.1792, 5026.022
467.6613, 5042.174
468.1434, 5056.625
468.6255, 5073.874
469.1076, 5085.637
469.5898, 5082.896
470.0719, 5069.742
470.5540, 5058.667
471.0361, 5058.277
471.5182, 5063.221
472.0003, 5054.674
472.4825, 5022.206
472.9646, 5004.957
473.4467, 5028.570
473.9288, 5057.914
474.4109, 5069.139
474.8930, 5062.382
475.3752, 5055.559
475.8573, 5058.531
476.3394, 5068.097
476.8215, 5081.790
477.3036, 5099.571
477.7857, 5110.909
478.2679, 5110.120
478.7500, 5099.883
479.2321, 5085.047
479.7142, 5061.604
480.1963, 5044.295
480.6784, 5039.045
481.1606, 5039.034
481.6427, 5037.124
482.1248, 5033.676
482.6069, 5033.971
483.0890, 5041.555
483.5711, 5056.622
484.0533, 5082.934
484.5354, 5145.357
485.0175, 5176.657
485.4996, 5142.828
485.9817, 5095.438
486.4638, 5074.346
486.9460, 5083.851
487.4281, 5104.839
487.9102, 5131.141
488.3923, 5157.068
488.8744, 5160.718
489.3565, 5137.389
489.8387, 5118.609
490.3208, 5124.109
490.8029, 5142.289
491.2850, 5147.286
491.7671, 5132.900
492.2492, 5123.479
492.7314, 5133.883
493.2135, 5149.837
493.6956, 5153.250
494.1777, 5143.729
494.6598, 5135.029
495.1419, 5138.271
495.6241, 5150.886
496.1062, 5156.220
496.5883, 5149.790
497.0704, 5141.862
497.5525, 5129.192
498.0346, 5118.389
498.5168, 5114.834
498.9989, 5119.077
499.4810, 5128.624
499.9631, 5148.056
500.4452, 5170.933
500.9273, 5165.106
501.4095, 5119.589
501.8916, 5093.019
502.3737, 5125.331
502.8558, 5183.325
503.3379, 5213.337
503.8200, 5208.771
504.3022, 5199.790
504.7843, 5197.068
505.2664, 5196.147
505.7485, 5191.116
506.2306, 5182.135
506.7127, 5173.452
507.1949, 5167.102
507.6770, 5164.356
508.1591, 5171.325
508.6412, 5205.079
509.1233, 5223.170
509.6054, 5210.699
510.0876, 5192.335
510.5697, 5184.308
511.0518, 5188.044
511.5339, 5197.890
512.0161, 5211.308
512.4982, 5226.927
512.9803, 5242.354
513.4624, 5258.383
513.9445, 5268.714
514.4266, 5270.552
514.9088, 5265.762
515.3909, 5254.387
515.8730, 5235.227
516.3551, 5224.420
516.8372, 5232.894
517.3193, 5247.329
517.8015, 5257.090
518.2836, 5261.642
518.7657, 5262.394
519.2478, 5259.708
519.7299, 5255.328
520.2120, 5253.417
520.6942, 5254.960
521.1763, 5257.191
521.6584, 5263.334
522.1405, 5267.105
522.6226, 5261.589
523.1047, 5250.914
523.5869, 5246.137
524.0690, 5254.581
524.5511, 5268.338
525.0332, 5273.162
525.5153, 5269.139
525.9974, 5270.427
526.4796, 5283.436
526.9617, 5297.785
527.4438, 5300.247
527.9259, 5292.527
528.4080, 5289.366
528.8901, 5294.890
529.3723, 5303.468
529.8544, 5313.895
530.3365, 5324.575
530.8186, 5333.845
531.3007, 5341.006
531.7828, 5342.899
532.2650, 5333.511
532.7471, 5309.581
533.2292, 5294.282
533.7113, 5284.180
534.1934, 5287.720
534.6755, 5322.884
535.1577, 5367.000
535.6398, 5387.530
536.1219, 5373.620
536.6040, 5351.055
537.0861, 5343.064
537.5682, 5345.710
538.0504, 5345.492
538.5325, 5340.135
539.0146, 5337.724
539.4967, 5345.477
539.9788, 5360.856
540.4609, 5370.936
540.9431, 5373.585
541.4252, 5374.653
541.9073, 5377.006
542.3894, 5377.229
542.8715, 5367.979
543.3536, 5351.548
543.8358, 5341.372
544.3179, 5349.444
544.8000, 5371.104
545.2821, 5386.082
545.7642, 5393.072
546.2463, 5396.979
546.7285, 5401.019
547.2106, 5400.579
547.6927, 5386.785
548.1748, 5361.601
548.6569, 5346.558
549.1390, 5358.830
549.6211, 5380.543
550.1032, 5392.209
550.5853, 5395.682
551.0674, 5400.951
551.5496, 5412.344
552.0317, 5425.939
552.5138, 5435.470
552.9959, 5439.976
553.4780, 5443.607
553.9601, 5442.918
554.4423, 5445.159
554.9244, 5459.903
555.4065, 5477.441
555.8886, 5478.292
556.3707, 5454.650
556.8528, 5432.190
557.3350, 5451.045
557.8171, 5504.062
558.2992, 5529.938
558.7813, 5516.723
559.2634, 5496.160
559.7455, 5485.091
560.2277, 5483.326
560.7098, 5488.772
561.1919, 5507.862
561.6740, 5522.853
562.1561, 5526.968
562.6382, 5524.997
563.1204, 5516.964
563.6025, 5506.423
564.0846, 5507.558
564.5667, 5533.710
565.0488, 5574.332
565.5309, 5585.119
566.0131, 5550.009
566.4952, 5525.693
566.9773, 5530.693
567.4594, 5542.525
567.9415, 5546.982
568.4236, 5545.475
568.9058, 5547.879
569.3879, 5562.916
569.8700, 5579.602
570.3521, 5583.804
570.8342, 5579.937
571.3163, 5585.080
571.7985, 5605.321
572.2806, 5627.260
572.7627, 5634.988
573.2448, 5627.536
573.7269, 5614.874
574.2090, 5585.226
574.6912, 5564.504
575.1733, 5560.604
575.6554, 5568.240
576.1375, 5586.387
576.6196, 5612.826
577.1017, 5632.730
577.5839, 5625.272
578.0660, 5600.620
578.5481, 5594.891
579.0302, 5610.495
579.5123, 5628.819
579.9944, 5644.470
580.4766, 5655.222
580.9587, 5653.387
581.4408, 5633.672
581.9229, 5625.295
582.4050, 5646.318
582.8871, 5667.188
583.3693, 5665.703
583.8514, 5648.707
584.3335, 5631.509
584.8156, 5621.077
585.2977, 5620.060
585.7798, 5637.488
586.2620, 5676.040
586.7441, 5700.084
587.2262, 5701.290
587.7083, 5699.061
588.1904, 5704.520
588.6725, 5713.837
589.1547, 5721.747
589.6368, 5729.649
590.1189, 5730.587
590.6010, 5712.996
591.0831, 5690.993
591.5652, 5685.773
592.0474, 5696.339
592.5295, 5704.310
593.0116, 5697.124
593.4937, 5679.864
593.9758, 5666.735
594.4579, 5653.363
594.9401, 5654.703
595.4222, 5693.600
595.9043, 5727.825
596.3864, 5727.139
596.8685, 5705.021
597.3506, 5698.551
597.8328, 5728.896
598.3149, 5764.376
598.7970, 5775.557
599.2791, 5769.661
599.7612, 5763.551
600.2433, 5760.440
600.7255, 5762.465
601.2076, 5772.745
601.6897, 5789.689
602.1718, 5800.287
602.6539, 5799.062
603.1360, 5798.715
603.6182, 5801.632
604.1003, 5804.617
604.5824, 5805.083
605.0645, 5803.253
605.5466, 5801.166
606.0287, 5800.356
606.5109, 5799.419
606.9930, 5793.849
607.4751, 5784.944
607.9572, 5785.921
608.4393, 5803.387
608.9214, 5817.690
609.4036, 5804.496
609.8857, 5763.685
610.3678, 5748.406
610.8499, 5780.038
611.3320, 5807.554
611.8141, 5817.333
612.2963, 5818.587
612.7784, 5820.539
613.2605, 5824.264
613.7426, 5824.530
614.2247, 5812.803
614.7068, 5798.605
615.1890, 5809.874
615.6711, 5848.002
616.1532, 5881.565
616.6353, 5904.781
617.1174, 5914.030
617.5995, 5898.024
618.0817, 5856.096
618.5638, 5832.684
619.0459, 5847.072
619.5280, 5859.913
620.0101, 5849.661
620.4922, 5832.502
620.9744, 5831.911
621.4565, 5850.411
621.9386, 5869.021
622.4207, 5868.740
622.9028, 5855.747
623.3849, 5855.531
623.8671, 5870.530
624.3492, 5883.894
624.8313, 5889.099
625.3134, 5892.219
625.7955, 5900.966
626.2776, 5914.976
626.7598, 5927.720
627.2419, 5940.734
627.7240, 5949.617
628.2061, 5951.765
628.6882, 5948.424
629.1703, 5939.340
629.6525, 5925.613
630.1346, 5912.770
630.6167, 5904.628
631.0988, 5902.326
631.5809, 5915.160
632.0630, 5948.977
632.5452, 5975.290
633.0273, 5984.661
633.5094, 5983.604
633.9915, 5975.181
634.4736, 5960.110
634.9557, 5955.379
635.4379, 5978.990
635.9200, 5998.427
636.4021, 5989.793
636.8842, 5967.101
637.3663, 5951.291
637.8484, 5947.920
638.3306, 5952.331
638.8127, 5961.303
639.2948, 5973.791
639.7769, 5983.827
640.2590, 5992.312
640.7411, 5994.752
641.2233, 5984.578
641.7054, 5972.873
642.1875, 5969.673
642.6696, 5974.763
643.1517, 5987.101
643.6339, 6025.553
644.1160, 6050.830
644.5981, 6024.742
645.0802, 5978.096
645.5623, 5958.339
646.0444, 5974.853
646.5266, 6006.639
647.0087, 6038.792
647.4908, 6067.170
647.9729, 6066.121
648.4550, 6024.615
648.9371, 5999.173
649.4193, 6016.333
649.9014, 6041.293
650.3835, 6036.241
650.8656, 6006.302
651.3477, 5987.879
651.8298, 5994.290
652.3120, 6005.173
652.7941, 6017.127
653.2762, 6024.868
653.7583, 6018.765
654.2404, 5999.318
654.7225, 5977.663
655.2047, 5961.389
655.6868, 5951.662
656.1689, 5956.511
656.6510, 5980.228
657.1331, 5990.893
657.6152, 5975.238
658.0974, 5954.285
658.5795, 5948.925
659.0616, 5955.083
659.5437, 5954.553
660.0258, 5942.563
660.5079, 5927.569
660.9901, 5905.554
661.4722, 5886.342
661.9543, 5880.864
662.4364, 5889.044
662.9185, 5905.917
663.4006, 5931.138
663.8828, 5954.507
664.3649, 5948.547
664.8470, 5911.990
665.3291, 5890.122
665.8112, 5896.594
666.2933, 5901.841
666.7755, 5875.855
667.2576, 5830.412
667.7397, 5817.000
668.2218, 5866.595
668.7039, 5897.667
669.1860, 5876.008
669.6682, 5845.326
670.1503, 5845.378
670.6324, 5866.904
671.1145, 5872.649
671.5966, 5842.122
672.0787, 5803.831
672.5609, 5803.982
673.0430, 5835.646
673.5251, 5846.415
674.0072, 5828.033
674.4893, 5808.176
674.9714, 5802.436
675.4536, 5806.954
675.9357, 5812.415
676.4178, 5821.742
676.8999, 5825.511
677.3820, 5820.497
677.8641, 5812.900
678.3463, 5802.898
678.8284, 5793.590
679.3105, 5792.143
679.7926, 5800.810
680.2747, 5805.244
680.7568, 5781.315
681.2390, 5745.762
681.7211, 5743.485
682.2032, 5774.498
682.6853, 5805.800
683.1674, 5824.649
683.6495, 5832.125
684.1317, 5828.452
684.6138, 5810.436
685.0959, 5798.257
685.5780, 5796.364
686.0601, 5794.896
686.5422, 5790.943
687.0244, 5786.612
687.5065, 5785.722
687.9886, 5788.019
688.4707, 5786.423
688.9528, 5768.910
689.4349, 5751.574
689.9171, 5757.370
690.3992, 5778.630
690.8813, 5793.298
691.3634, 5795.288
691.8455, 5789.080
692.3276, 5777.605
692.8098, 5762.267
693.2919, 5757.020
693.7740, 5769.929
694.2561, 5774.836
694.7382, 5754.409
695.2203, 5735.883
695.7025, 5741.372
696.1846, 5765.125
696.6667, 5784.410
697.1488, 5792.667
697.6309, 5796.756
698.1130, 5801.553
698.5952, 5803.474
699.0773, 5792.326
699.5594, 5772.110
700.0415, 5763.939
700.5236, 5782.327
701.0057, 5812.052
701.4879, 5821.150
701.9700, 5808.737
702.4521, 5792.826
702.9342, 5769.508
703.4163, 5757.629
703.8984, 5777.736
704.3806, 5813.203
704.8627, 5821.415
705.3448, 5787.763
705.8269, 5770.741
706.3090, 5798.165
706.7911, 5824.493
707.2733, 5817.177
707.7554, 5791.667
708.2375, 5777.303
708.7196, 5782.587
709.2017, 5790.390
709.6838, 5777.341
710.1660, 5756.187
710.6481, 5768.456
711.1302, 5811.682
711.6123, 5830.602
712.0944, 5800.752
712.5765, 5760.685
713.0587, 5761.168
713.5408, 5805.191
714.0229, 5825.671
714.5050, 5792.621
714.9871, 5776.954
715.4692, 5809.617
715.9514, 5847.889
716.4335, 5856.101
716.9156, 5836.714
717.3977, 5814.440
717.8798, 5795.768
718.3619, 5782.439
718.8441, 5778.479
719.3262, 5779.748
719.8083, 5780.554
720.2904, 5779.447
720.7725, 5773.159
721.2546, 5758.106
721.7368, 5742.413
722.2189, 5749.443
722.7010, 5784.316
723.1831, 5806.192
723.6652, 5808.967
724.1473, 5804.326
724.6295, 5792.047
725.1116, 5779.347
725.5937, 5781.851
726.0758, 5804.980
726.5579, 5824.472
727.0400, 5839.138
727.5222, 5845.817
728.0043, 5835.507
728.4864, 5818.657
728.9685, 5812.633
729.4506, 5821.470
729.9327, 5833.309
730.4149, 5840.120
730.8970, 5841.211
731.3791, 5830.797
731.8612, 5810.770
732.3433, 5800.095
732.8254, 5805.002
733.3076, 5816.038
733.7897, 5824.299
734.2718, 5829.807
734.7539, 5833.473
735.2360, 5839.721
735.7181, 5836.483
736.2003, 5803.960
736.6824, 5778.921
737.1645, 5794.178
737.6466, 5834.904
738.1287, 5858.433
738.6108, 5848.452
739.0930, 5832.117
739.5751, 5820.675
740.0572, 5813.723
740.5393, 5813.900
741.0214, 5818.381
741.5035, 5817.494
741.9857, 5806.650
742.4678, 5794.816
742.9499, 5797.214
743.4320, 5812.362
743.9141, 5818.559
744.3962, 5814.068
744.8784, 5808.076
745.3605, 5801.375
745.8426, 5799.085
746.3247, 5810.539
746.8068, 5838.324
747.2889, 5855.490
747.7711, 5857.994
748.2532, 5855.968
748.7353, 5849.472
749.2174, 5841.186
749.6995, 5828.330
750.1816, 5814.981
750.6638, 5817.261
751.1459, 5854.158
751.6280, 5887.590
752.1101, 5870.055
752.5922, 5828.450
753.0743, 5815.586
753.5565, 5834.657
754.0386, 5858.571
754.5207, 5871.927
755.0028, 5877.407
755.4849, 5881.847
755.9670, 5886.717
756.4492, 5872.167
756.9313, 5824.373
757.4134, 5791.928
757.8955, 5805.274
758.3776, 5838.345
758.8597, 5850.374
759.3419, 5839.252
759.8240, 5833.270
760.3061, 5840.507
760.7882, 5846.250
761.2703, 5840.233
761.7524, 5833.043
762.2346, 5838.329
762.7167, 5855.062
763.1988, 5869.797
763.6809, 5875.132
764.1630, 5874.786
764.6451, 5870.802
765.1273, 5864.895
765.6094, 5860.218
766.0915, 5857.646
766.5736, 5860.831
767.0557, 5872.874
767.5378, 5888.174
768.0200, 5893.301
768.5021, 5885.644
768.9842, 5884.607
769.4663, 5896.097
769.9484, 5901.661
770.4305, 5884.945
770.9127, 5863.647
771.3948, 5866.910
771.8769, 5897.253
772.3590, 5916.602
772.8411, 5917.979
773.3232, 5910.727
773.8054, 5887.720
774.2875, 5864.970
774.7696, 5862.598
775.2517, 5878.461
775.7338, 5891.939
776.2159, 5889.935
776.6981, 5884.794
777.1802, 5896.936
777.6623, 5914.921
778.1444, 5905.514
778.6265, 5869.282
779.1086, 5843.506
779.5908, 5850.040
780.0729, 5872.311
780.5550, 5879.706
781.0371, 5870.577
781.5192, 5861.498
782.0013, 5849.075
782.4835, 5846.354
782.9656, 5864.857
783.4477, 5889.299
783.9298, 5901.633
784.4119, 5901.906
784.8940, 5892.727
785.3762, 5857.939
785.8583, 5834.772
786.3404, 5836.760
786.8225, 5851.637
787.3046, 5877.085
787.7867, 5905.704
788.2689, 5918.926
788.7510, 5905.324
789.2331, 5886.680
789.7152, 5879.781
790.1973, 5880.526
790.6794, 5883.496
791.1616, 5887.806
791.6437, 5893.771
792.1258, 5901.571
792.6079, 5906.741
793.0900, 5900.183
793.5721, 5884.314
794.0543, 5887.996
794.5364, 5916.801
795.0185, 5926.845
795.5006, 5895.667
795.9827, 5863.571
796.4648, 5875.684
796.9470, 5925.948
797.4291, 5948.698
797.9112, 5921.504
798.3933, 5898.408
798.8754, 5874.674
799.3575, 5862.602
799.8397, 5877.164
800.3218, 5906.177
800.8039, 5927.668
801.2860, 5936.497
801.7681, 5938.332
802.2502, 5929.551
802.7324, 5920.694
803.2145, 5921.991
803.6966, 5930.213
804.1787, 5940.805
804.6608, 5951.300
805.1429, 5956.038
805.6251, 5949.332
806.1072, 5934.966
806.5893, 5915.332
807.0714, 5893.160
807.5535, 5894.494
808.0356, 5925.312
808.5178, 5953.333
808.9999, 5955.830
809.4820, 5944.093
809.9641, 5949.434
810.4462, 5984.385
810.9283, 5987.972
811.4105, 5931.458
811.8926, 5890.577
812.3747, 5910.771
812.8568, 5950.653
813.3389, 5961.434
813.8210, 5942.745
814.3032, 5929.180
814.7853, 5925.947
815.2674, 5928.333
815.7495, 5940.815
816.2316, 5953.475
816.7137, 5955.623
817.1959, 5949.784
817.6780, 5946.211
818.1601, 5949.465
818.6422, 5954.623
819.1243, 5962.046
819.6064, 5966.135
820.0886, 5954.597
820.5707, 5931.364
821.0528, 5909.914
821.5349, 5895.330
822.0170, 5891.319
822.4991, 5905.902
822.9813, 5932.236
823.4634, 5934.838
823.9455, 5911.514
824.4276, 5915.838
824.9097, 5966.758
825.3918, 6015.163
825.8740, 6022.484
826.3561, 6000.166
826.8382, 5986.069
827.3203, 5980.893
827.8024, 5982.634
828.2845, 6006.107
828.7667, 6018.113
829.2488, 5994.649
829.7309, 5960.709
830.2130, 5946.875
830.6951, 5954.897
831.1772, 5963.498
831.6594, 5968.766
832.1415, 5972.221
832.6236, 5977.451
833.1057, 5979.077
833.5878, 5964.895
834.0699, 5941.913
834.5521, 5933.698
835.0342, 5952.526
835.5163, 5978.305
835.9984, 5993.548
836.4805, 6003.099
836.9626, 6016.563
837.4448, 6031.972
837.9269, 6041.220
838.4090, 6041.415
838.8911, 6031.851
839.3732, 6007.539
839.8553, 5976.498
840.3375, 5973.410
840.8196, 5999.078
841.3017, 6007.596
841.7838, 5986.388
842.2659, 5971.093
842.7480, 5989.898
843.2302, 6025.860
843.7123, 6033.612
844.1944, 5996.912
844.6765, 5988.175
845.1586, 6040.021
845.6407, 6071.175
846.1229, 6029.876
846.6050, 5972.334
847.0871, 5953.428
847.5692, 5971.534
848.0513, 5993.396
848.5334, 6025.173
849.0156, 6045.825
849.4977, 6045.188
849.9798, 6035.314
850.4619, 6018.507
850.9440, 6001.608
851.4261, 5997.514
851.9083, 6010.675
852.3904, 6028.083
852.8725, 6049.598
853.3546, 6064.135
853.8367, 6054.130
854.3188, 6029.924
854.8010, 6009.509
855.2831, 5998.353
855.7652, 6000.770
856.2473, 6023.536
856.7294, 6051.122
857.2115, 6051.499
857.6937, 6032.000
858.1758, 6025.186
858.6579, 6034.081
859.1400, 6052.179
859.6221, 6078.258
860.1042, 6099.452
860.5864, 6094.904
861.0685, 6065.907
861.5506, 6048.608
862.0327, 6045.725
862.5148, 6044.090
862.9969, 6041.246
863.4791, 6037.663
863.9612, 6029.743
864.4433, 6022.402
864.9254, 6034.998
865.4075, 6089.362
865.8896, 6117.981
866.3718, 6101.217
866.8539, 6083.440
867.3360, 6081.352
867.8181, 6085.454
868.3002, 6086.734
868.7823, 6084.097
869.2645, 6075.225
869.7466, 6044.715
870.2287, 6027.131
870.7108, 6049.336
871.1929, 6078.824
871.6750, 6087.656
872.1572, 6079.229
872.6393, 6064.599
873.1214, 6046.789
873.6035, 6038.675
874.0856, 6058.678
874.5677, 6085.621
875.0499, 6097.315
875.5320, 6096.939
876.0141, 6089.806
876.4962, 6078.747
876.9783, 6068.823
877.4604, 6062.344
877.9426, 6063.338
878.4247, 6086.434
878.9068, 6122.545
879.3889, 6134.195
879.8710, 6120.836
880.3531, 6107.737
880.8353, 6104.965
881.3174, 6108.509
881.7995, 6114.975
882.2816, 6123.043
882.7637, 6122.874
883.2458, 6112.768
883.7280, 6106.957
884.2101, 6107.699
884.6922, 6113.792
885.1743, 6127.014
885.6564, 6142.143
886.1385, 6147.331
886.6207, 6140.134
887.1028, 6133.774
887.5849, 6126.403
888.0670, 6122.848
888.5491, 6121.970
889.0313, 6127.597
889.5134, 6149.231
889.9955, 6181.353
890.4776, 6198.334
890.9597, 6187.563
891.4418, 6181.289
891.9240, 6192.111
892.4061, 6199.480
892.8882, 6189.895
893.3703, 6171.672
893.8524, 6154.153
894.3345, 6139.396
894.8167, 6132.049
895.2988, 6138.998
895.7809, 6147.769
896.2630, 6151.444
896.7451, 6153.833
897.2272, 6162.673
897.7094, 6173.189
898.1915, 6168.888
898.6736, 6143.693
899.1557, 6125.312
899.6378, 6146.841
900.1199, 6178.767
900.6021, 6183.204
901.0842, 6170.015
901.5663, 6162.087
902.0484, 6162.241
902.5305, 6156.005
903.0126, 6132.270
903.4948, 6111.193
903.9769, 6133.089
904.4590, 6180.251
904.9411, 6192.681
905.4232, 6172.488
905.9053, 6154.842
906.3875, 6151.300
906.8696, 6156.393
907.3517, 6165.474
907.8338, 6178.237
908.3159, 6196.382
908.7980, 6220.003
909.2802, 6232.708
909.7623, 6232.323
910.2444, 6221.717
910.7265, 6197.967
911.2086, 6178.856
911.6907, 6195.171
912.1729, 6246.028
912.6550, 6258.402
913.1371, 6214.252
913.6192, 6190.027
914.1013, 6206.556
914.5834, 6230.838
915.0656, 6243.405
915.5477, 6247.450
916.0298, 6250.646
916.5119, 6254.460
916.9940, 6251.689
917.4761, 6233.706
917.9583, 6221.381
918.4404, 6227.626
918.9225, 6234.288
919.4046, 6222.598
919.8867, 6198.954
920.3688, 6188.215
920.8510, 6199.955
921.3331, 6207.306
921.8152, 6203.107
922.2973, 6197.591
922.7794, 6193.685
923.2615, 6192.178
923.7437, 6193.507
924.2258, 6197.806
924.7079, 6205.414
925.1900, 6216.145
925.6721, 6230.714
926.1542, 6262.873
926.6364, 6286.314
927.1185, 6269.306
927.6006, 6232.577
928.0827, 6212.808
928.5648, 6217.625
929.0469, 6228.935
929.5291, 6238.776
930.0112, 6248.979
930.4933, 6266.598
930.9754, 6281.568
931.4575, 6277.701
931.9396, 6259.966
932.4218, 6242.775
932.9039, 6231.564
933.3860, 6231.887
933.8681, 6260.417
934.3502, 6293.569
934.8323, 6300.167
935.3145, 6288.146
935.7966, 6268.072
936.2787, 6245.839
936.7608, 6234.732
937.2429, 6242.155
937.7250, 6258.208
938.2072, 6276.285
938.6893, 6291.848
939.1714, 6292.284
939.6535, 6280.532
940.1356, 6267.902
940.6177, 6257.203
941.0999, 6247.308
941.5820, 6237.054
942.0641, 6229.014
942.5462, 6225.706
943.0283, 6228.447
943.5104, 6251.027
943.9926, 6291.273
944.4747, 6312.513
944.9568, 6303.110
945.4389, 6285.276
945.9210, 6278.932
946.4031, 6279.040
946.8853, 6267.164
947.3674, 6243.471
947.8495, 6247.013
948.3316, 6283.503
948.8137, 6308.667
949.2958, 6304.625
949.7780, 6286.349
950.2601, 6268.288
950.7422, 6252.029
951.2243, 6246.468
951.7064, 6252.500
952.1885, 6265.009
952.6707, 6286.513
953.1528, 6302.710
953.6349, 6305.872
954.1170, 6302.514
954.5991, 6300.576
955.0812, 6300.188
955.5634, 6304.170
956.0455, 6313.578
956.5276, 6324.667
957.0097, 6339.909
957.4918, 6350.371
957.9739, 6347.667
958.4561, 6341.593
958.9382, 6351.557
959.4203, 6380.457
959.9024, 6382.119
960.3845, 6331.289
960.8666, 6304.675
961.3488, 6328.973
961.8309, 6358.593
962.3130, 6364.833
962.7951, 6358.268
963.2772, 6359.507
963.7593, 6369.861
964.2415, 6381.182
964.7236, 6405.251
965.2057, 6413.133
965.6878, 6389.299
966.1699, 6358.202
966.6520, 6329.562
967.1342, 6306.328
967.6163, 6297.150
968.0984, 6307.235
968.5805, 6311.089
969.0626, 6302.974
969.5447, 6294.542
970.0269, 6283.866
970.5090, 6278.302
970.9911, 6287.945
971.4732, 6306.481
971.9553, 6315.469
972.4374, 6307.521
972.9196, 6310.567
973.4017, 6344.563
973.8838, 6369.613
974.3659, 6365.229
974.8480, 6351.376
975.3301, 6340.234
975.8123, 6335.136
976.2944, 6343.828
976.7765, 6372.732
977.2586, 6397.850
977.7407, 6418.493
978.2228, 6428.527
978.7050, 6416.857
979.1871, 6399.711
979.6692, 6395.109
980.1513, 6399.522
980.6334, 6394.744
981.1155, 6371.125
981.5977, 6356.444
982.0798, 6366.321
982.5619, 6378.491
983.0440, 6386.634
983.5261, 6387.448
984.0082, 6371.730
984.4904, 6345.527
984.9725, 6331.306
985.4546, 6336.223
985.9367, 6349.684
986.4188, 6373.703
986.9009, 6398.673
987.3831, 6428.160
987.8652, 6449.230
988.3473, 6438.008
988.8294, 6402.824
989.3115, 6384.483
989.7936, 6401.638
990.2758, 6417.519
990.7579, 6414.422
991.2400, 6408.101
991.7221, 6407.001
992.2042, 6409.644
992.6863, 6415.848
993.1685, 6423.590
993.6506, 6425.846
994.1327, 6418.059
994.6148, 6411.146
995.0969, 6410.039
995.5790, 6411.351
996.0612, 6413.921
996.5433, 6416.808
997.0254, 6420.754
997.5075, 6424.318
997.9896, 6420.749
998.4717, 6402.617
998.9539, 6392.760
999.4360, 6416.527
999.9181, 6436.382
1000.400, 6414.634
1000.882, 6380.729
1001.364, 6370.697
1001.847, 6386.820
1002.329, 6418.853
1002.811, 6475.890
1003.293, 6508.697
1003.775, 6472.879
1004.257, 6428.162
1004.739, 6411.449
1005.221, 6412.959
1005.703, 6422.653
1006.186, 6436.121
1006.668, 6445.195
1007.150, 6444.417
1007.632, 6448.216
1008.114, 6472.148
1008.596, 6492.877
1009.078, 6491.377
1009.560, 6480.536
1010.043, 6478.728
1010.525, 6483.547
1011.007, 6475.292
1011.489, 6439.971
1011.971, 6420.926
1012.453, 6457.241
1012.935, 6491.994
1013.417, 6479.602
1013.899, 6454.692
1014.382, 6463.227
1014.864, 6496.717
1015.346, 6510.810
1015.828, 6488.432
1016.310, 6467.787
1016.792, 6471.973
1017.274, 6471.665
1017.756, 6435.925
1018.239, 6399.452
1018.721, 6404.291
1019.203, 6439.873
1019.685, 6466.108
1020.167, 6472.883
1020.649, 6474.666
1021.131, 6474.437
1021.613, 6472.426
1022.095, 6463.857
1022.578, 6457.700
1023.060, 6463.235
1023.542, 6477.771
1024.024, 6495.707
1024.506, 6518.500
1024.988, 6527.955
1025.470, 6502.087
1025.952, 6484.645
1026.435, 6500.662
1026.917, 6523.434
1027.399, 6526.682
1027.881, 6521.264
1028.363, 6539.014
1028.845, 6589.839
1029.327, 6611.857
1029.809, 6573.228
1030.292, 6533.157
1030.774, 6502.906
1031.256, 6480.703
1031.738, 6459.486
1032.220, 6447.536
1032.702, 6465.457
1033.184, 6517.772
1033.666, 6554.217
1034.148, 6558.644
1034.630, 6562.976
1035.113, 6580.315
1035.595, 6590.147
1036.077, 6572.802
1036.559, 6545.289
1037.041, 6533.197
1037.523, 6537.276
1038.005, 6541.945
1038.487, 6553.931
1038.970, 6555.081
1039.452, 6528.684
1039.934, 6511.933
1040.416, 6529.955
1040.898, 6558.467
1041.380, 6568.878
1041.862, 6562.516
1042.344, 6553.533
1042.826, 6537.002
1043.309, 6528.816
1043.791, 6530.110
1044.273, 6539.810
1044.755, 6566.664
1045.237, 6588.188
1045.719, 6575.101
1046.201, 6538.886
1046.683, 6536.214
1047.166, 6585.703
1047.648, 6602.790
1048.130, 6574.961
1048.612, 6549.050
1049.094, 6536.500
1049.576, 6537.388
1050.058, 6555.307
1050.540, 6582.250
1051.022, 6596.778
1051.505, 6598.241
1051.987, 6592.285
1052.469, 6577.308
1052.951, 6561.749
1053.433, 6543.781
1053.915, 6551.849
1054.397, 6613.325
1054.879, 6684.996
1055.361, 6678.002
1055.844, 6602.408
1056.326, 6585.334
1056.808, 6626.365
1057.290, 6646.788
1057.772, 6632.979
1058.254, 6619.180
1058.736, 6623.856
1059.218, 6630.555
1059.701, 6615.139
1060.183, 6586.350
1060.665, 6573.203
1061.147, 6573.911
1061.629, 6581.091
1062.111, 6592.894
1062.593, 6604.746
1063.075, 6614.609
1063.557, 6617.377
1064.040, 6605.278
1064.522, 6588.777
1065.004, 6591.033
1065.486, 6602.585
1065.968, 6593.844
1066.450, 6572.423
1066.932, 6577.557
1067.414, 6614.546
1067.896, 6638.557
1068.379, 6613.575
1068.861, 6583.908
1069.343, 6602.526
1069.825, 6645.201
1070.307, 6694.728
1070.789, 6734.935
1071.271, 6727.790
1071.753, 6680.611
1072.236, 6647.052
1072.718, 6652.153
1073.200, 6667.091
1073.682, 6683.862
1074.164, 6687.782
1074.646, 6652.302
1075.128, 6607.262
1075.610, 6586.709
1076.093, 6589.758
1076.575, 6603.151
1077.057, 6623.572
1077.539, 6648.155
1078.021, 6692.385
1078.503, 6718.278
1078.985, 6689.429
1079.467, 6654.613
1079.949, 6654.759
1080.432, 6673.585
1080.914, 6680.921
1081.396, 6673.750
1081.878, 6667.288
1082.360, 6654.558
1082.842, 6657.585
1083.324, 6712.837
1083.806, 6744.792
1084.288, 6686.910
1084.771, 6612.998
1085.253, 6613.068
1085.735, 6669.712
1086.217, 6695.888
1086.699, 6677.533
1087.181, 6665.669
1087.663, 6661.413
1088.145, 6661.756
1088.628, 6667.534
1089.110, 6674.769
1089.592, 6680.625
1090.074, 6685.957
1090.556, 6692.978
1091.038, 6701.845
1091.520, 6707.671
1092.002, 6710.183
1092.484, 6712.691
1092.967, 6717.215
1093.449, 6707.961
1093.931, 6673.122
1094.413, 6642.109
1094.895, 6656.096
1095.377, 6699.917
1095.859, 6717.187
1096.341, 6711.216
1096.823, 6705.132
1097.306, 6701.465
1097.788, 6705.304
1098.270, 6717.337
1098.752, 6721.479
1099.234, 6702.736
1099.716, 6678.603
1100.198, 6676.391
1100.680, 6688.059
1101.163, 6696.812
1101.645, 6705.436
1102.127, 6727.901
1102.609, 6760.940
1103.091, 6782.533
1103.573, 6782.189
1104.055, 6768.851
1104.537, 6732.294
1105.020, 6704.862
1105.502, 6730.885
1105.984, 6772.330
1106.466, 6779.630
1106.948, 6764.063
1107.430, 6763.429
1107.912, 6784.513
1108.394, 6794.183
1108.876, 6767.325
1109.359, 6744.293
1109.841, 6747.473
1110.323, 6750.783
1110.805, 6727.471
1111.287, 6702.827
1111.769, 6715.815
1112.251, 6758.590
1112.733, 6780.267
1113.215, 6762.508
1113.698, 6758.435
1114.180, 6787.484
1114.662, 6801.261
1115.144, 6777.226
1115.626, 6752.134
1116.108, 6753.555
1116.590, 6766.903
1117.072, 6763.900
1117.555, 6744.422
1118.037, 6732.867
1118.519, 6728.581
1119.001, 6741.386
1119.483, 6778.314
1119.965, 6787.861
1120.447, 6743.369
1120.929, 6698.470
1121.411, 6710.195
1121.894, 6757.958
1122.376, 6793.766
1122.858, 6817.550
1123.340, 6828.390
1123.822, 6827.226
1124.304, 6815.872
1124.786, 6796.752
1125.268, 6781.091
1125.750, 6775.020
1126.233, 6778.940
1126.715, 6802.596
1127.197, 6828.637
1127.679, 6831.656
1128.161, 6821.208
1128.643, 6809.659
1129.125, 6799.507
1129.607, 6792.706
1130.090, 6789.127
1130.572, 6782.002
1131.054, 6756.484
1131.536, 6747.077
1132.018, 6794.797
1132.500, 6839.131
1132.982, 6825.951
1133.464, 6795.026
1133.947, 6801.928
1134.429, 6837.272
1134.911, 6845.020
1135.393, 6804.190
1135.875, 6784.998
1136.357, 6810.485
1136.839, 6832.424
1137.321, 6846.344
1137.803, 6849.082
1138.286, 6833.566
1138.768, 6811.469
1139.250, 6796.534
1139.732, 6790.741
1140.214, 6820.715
1140.696, 6896.558
1141.178, 6927.508
1141.660, 6904.680
1142.142, 6868.501
1142.625, 6830.726
1143.107, 6801.728
1143.589, 6788.905
1144.071, 6793.426
1144.553, 6829.981
1145.035, 6881.269
1145.517, 6890.184
1145.999, 6868.466
1146.482, 6848.423
1146.964, 6837.225
1147.446, 6841.816
1147.928, 6863.356
1148.410, 6880.063
1148.892, 6869.044
1149.374, 6858.344
1149.856, 6879.147
1150.339, 6906.352
1150.821, 6913.797
1151.303, 6911.253
1151.785, 6914.688
1152.267, 6925.187
1152.749, 6939.880
1153.231, 6965.964
1153.713, 6964.235
1154.195, 6890.862
1154.677, 6837.010
1155.160, 6834.414
1155.642, 6855.365
1156.124, 6896.747
1156.606, 6939.261
1157.088, 6955.350
1157.570, 6946.012
1158.052, 6917.884
1158.534, 6858.705
1159.017, 6842.253
1159.499, 6880.696
1159.981, 6909.790
1160.463, 6909.070
1160.945, 6908.542
1161.427, 6931.966
1161.909, 6958.329
1162.391, 6947.077
1162.874, 6911.719
1163.356, 6894.398
1163.838, 6892.902
1164.320, 6909.424
1164.802, 6935.467
1165.284, 6935.733
1165.766, 6902.958
1166.248, 6880.984
1166.730, 6904.785
1167.213, 6933.873
1167.695, 6934.714
1168.177, 6926.154
1168.659, 6922.108
1169.141, 6920.822
1169.623, 6920.179
1170.105, 6918.968
1170.587, 6914.890
1171.069, 6907.236
1171.552, 6899.250
1172.034, 6885.476
1172.516, 6880.868
1172.998, 6897.417
1173.480, 6908.813
1173.962, 6897.236
1174.444, 6885.310
1174.926, 6898.953
1175.409, 6929.491
1175.891, 6945.326
1176.373, 6944.733
1176.855, 6955.789
1177.337, 6978.906
1177.819, 6999.452
1178.301, 7014.305
1178.783, 7007.832
1179.266, 6972.336
1179.748, 6939.293
1180.230, 6945.855
1180.712, 6967.948
1181.194, 6962.464
1181.676, 6947.985
1182.158, 6963.851
1182.640, 6993.464
1183.122, 6992.765
1183.604, 6964.402
1184.087, 6951.885
1184.569, 6973.559
1185.051, 6992.253
1185.533, 6989.265
1186.015, 6982.083
1186.497, 6967.542
1186.979, 6962.587
1187.461, 6990.991
1187.944, 7028.178
1188.426, 7038.395
1188.908, 7025.503
1189.390, 7013.381
1189.872, 7001.193
1190.354, 6992.524
1190.836, 6987.308
1191.318, 6986.628
1191.801, 6991.538
1192.283, 6995.320
1192.765, 6994.046
1193.247, 6990.676
1193.729, 6988.634
1194.211, 6987.649
1194.693, 6986.324
1195.175, 6985.767
1195.657, 6989.599
1196.140, 6996.737
1196.622, 7003.877
1197.104, 7010.276
1197.586, 7018.165
1198.068, 7029.544
1198.550, 7031.593
1199.032, 6996.014
1199.514, 6975.137
1199.996, 7018.954
1200.479, 7068.366
1200.961, 7079.172
1201.443, 7064.114
1201.925, 7037.659
1202.407, 7004.712
1202.889, 6990.368
1203.371, 6999.603
1203.853, 7012.813
1204.336, 7032.470
1204.818, 7049.490
1205.300, 7064.385
1205.782, 7062.048
1206.264, 7030.584
1206.746, 7003.537
1207.228, 7025.194
1207.710, 7071.961
1208.193, 7083.807
1208.675, 7072.406
1209.157, 7070.580
1209.639, 7076.007
1210.121, 7075.727
1210.603, 7068.965
1211.085, 7063.634
1211.567, 7062.862
1212.049, 7063.452
1212.531, 7058.375
1213.014, 7061.021
1213.496, 7094.819
1213.978, 7120.735
1214.460, 7105.203
1214.942, 7070.751
1215.424, 7036.109
1215.906, 7008.888
1216.388, 7014.708
1216.871, 7062.964
1217.353, 7084.089
1217.835, 7069.830
1218.317, 7067.018
1218.799, 7086.156
1219.281, 7082.013
1219.763, 7032.976
1220.245, 6994.354
1220.728, 7019.948
1221.210, 7071.803
1221.692, 7082.792
1222.174, 7071.307
1222.656, 7072.500
1223.138, 7082.583
1223.620, 7092.359
1224.102, 7101.343
1224.584, 7116.423
1225.067, 7137.450
1225.549, 7142.011
1226.031, 7104.071
1226.513, 7080.775
1226.995, 7098.762
1227.477, 7125.552
1227.959, 7168.713
1228.441, 7190.997
1228.923, 7147.653
1229.406, 7083.256
1229.888, 7079.229
1230.370, 7127.800
1230.852, 7140.094
1231.334, 7114.054
1231.816, 7102.759
1232.298, 7109.307
1232.780, 7131.612
1233.263, 7166.942
1233.745, 7194.310
1234.227, 7202.120
1234.709, 7191.270
1235.191, 7152.195
1235.673, 7107.230
1236.155, 7070.299
1236.637, 7050.375
1237.120, 7070.282
1237.602, 7107.069
1238.084, 7125.759
1238.566, 7125.980
1239.048, 7125.348
1239.530, 7125.992
1240.012, 7128.908
1240.494, 7140.712
1240.976, 7139.296
1241.458, 7109.848
1241.941, 7101.004
1242.423, 7138.458
1242.905, 7183.729
1243.387, 7204.264
1243.869, 7200.077
##END=



