##NAMES=Topaz
##RRUFFID=R040121
##IDEAL CHEMISTRY=Al_2_SiO_4_F_2_
##LOCALITY=Tepetate, San Luis Potosi, Mexico
##OWNER=RRUFF
##SOURCE=University of Arizona Mineral Museum
##DESCRIPTION=Fragments of a prismatic single crystal
##STATUS=The identification of this mineral has been confirmed by X-ray diffraction and chemical analysis
##URL=rruff.info/R040121
##MEASURED CHEMISTRY=Al_2.00_(Si_0.99_Al_0.02_)(F_0.82_(OH)_0.18_)_2_
130.6617, 578.6882
131.1439, 630.2672
131.6260, 672.6462
132.1081, 706.8164
132.5902, 740.4686
133.0723, 766.3456
133.5544, 799.4723
134.0366, 852.9860
134.5187, 915.2273
135.0008, 966.6407
135.4829, 993.5011
135.9650, 996.7422
136.4471, 993.4823
136.9293, 971.2282
137.4114, 955.7808
137.8935, 960.6620
138.3756, 979.2816
138.8577, 996.3685
139.3398, 1001.424
139.8220, 994.2906
140.3041, 976.5920
140.7862, 942.6988
141.2683, 906.2950
141.7504, 867.8994
142.2325, 830.8293
142.7147, 803.9990
143.1968, 794.8140
143.6789, 804.2696
144.1610, 817.8671
144.6431, 833.6964
145.1252, 854.5567
145.6074, 880.9622
146.0895, 913.3774
146.5716, 954.3870
147.0537, 1008.424
147.5358, 1075.693
148.0179, 1135.642
148.5001, 1180.210
148.9822, 1223.469
149.4643, 1273.286
149.9464, 1330.805
150.4285, 1398.083
150.9106, 1482.074
151.3928, 1580.440
151.8749, 1668.269
152.3570, 1754.229
152.8391, 1822.859
153.3212, 1863.475
153.8033, 1875.327
154.2855, 1854.180
154.7676, 1783.899
155.2497, 1673.106
155.7318, 1560.515
156.2139, 1441.103
156.6960, 1328.056
157.1782, 1234.974
157.6603, 1162.508
158.1424, 1110.378
158.6245, 1084.710
159.1066, 1080.348
159.5887, 1088.987
160.0709, 1110.011
160.5530, 1142.408
161.0351, 1187.902
161.5172, 1249.636
161.9993, 1312.013
162.4814, 1359.656
162.9636, 1399.737
163.4457, 1446.905
163.9278, 1525.510
164.4099, 1608.666
164.8920, 1646.350
165.3741, 1632.707
165.8563, 1588.506
166.3384, 1515.059
166.8205, 1422.462
167.3026, 1324.932
167.7847, 1216.755
168.2668, 1110.513
168.7490, 1034.594
169.2311, 995.1074
169.7132, 973.0425
170.1953, 963.2324
170.6774, 961.6484
171.1595, 962.8839
171.6417, 966.1274
172.1238, 969.9278
172.6059, 970.5018
173.0880, 966.9341
173.5701, 961.7510
174.0522, 955.5483
174.5344, 948.7416
175.0165, 941.9957
175.4986, 935.6071
175.9807, 929.4645
176.4628, 923.2230
176.9449, 916.9961
177.4271, 910.4117
177.9092, 903.6443
178.3913, 896.4464
178.8734, 888.0837
179.3555, 877.2249
179.8376, 865.7567
180.3197, 859.7517
180.8019, 863.0859
181.2840, 865.1313
181.7661, 858.3902
182.2482, 849.7557
182.7303, 849.3329
183.2124, 864.2076
183.6946, 886.8625
184.1767, 894.1010
184.6588, 873.4338
185.1409, 858.9792
185.6230, 863.0166
186.1051, 876.0506
186.5873, 887.6260
187.0694, 893.0089
187.5515, 893.8422
188.0336, 894.4083
188.5157, 894.6317
188.9978, 894.6764
189.4800, 895.9502
189.9621, 896.5754
190.4442, 894.1210
190.9263, 887.3169
191.4084, 878.1286
191.8905, 871.1213
192.3727, 866.1632
192.8548, 863.9858
193.3369, 864.3751
193.8190, 867.1663
194.3011, 873.1853
194.7832, 882.8373
195.2654, 893.5514
195.7475, 899.7369
196.2296, 900.1295
196.7117, 897.9373
197.1938, 890.1368
197.6759, 882.2484
198.1581, 880.5267
198.6402, 886.8535
199.1223, 895.7026
199.6044, 896.1783
200.0865, 882.6061
200.5686, 871.7433
201.0508, 864.4299
201.5329, 860.1691
202.0150, 860.1623
202.4971, 864.2772
202.9792, 869.0063
203.4613, 867.8789
203.9435, 856.0156
204.4256, 849.4286
204.9077, 852.1735
205.3898, 857.2329
205.8719, 859.2793
206.3540, 857.5416
206.8362, 855.6826
207.3183, 859.9301
207.8004, 875.5270
208.2825, 883.4703
208.7646, 875.0117
209.2467, 866.4830
209.7289, 870.6550
210.2110, 887.0215
210.6931, 902.9195
211.1752, 901.3993
211.6573, 874.5790
212.1395, 859.5436
212.6216, 861.7983
213.1037, 870.1701
213.5858, 882.8038
214.0679, 897.5209
214.5500, 910.3167
215.0322, 917.0684
215.5143, 917.0865
215.9964, 915.3048
216.4785, 906.9133
216.9606, 901.1771
217.4427, 901.7485
217.9249, 908.1703
218.4070, 918.0242
218.8891, 929.3347
219.3712, 942.0626
219.8533, 957.7308
220.3354, 980.5612
220.8176, 1002.370
221.2997, 1019.272
221.7818, 1033.446
222.2639, 1049.627
222.7460, 1071.302
223.2281, 1098.008
223.7103, 1122.652
224.1924, 1137.114
224.6745, 1158.913
225.1566, 1196.252
225.6387, 1242.327
226.1208, 1287.080
226.6030, 1324.468
227.0851, 1356.389
227.5672, 1390.619
228.0493, 1427.242
228.5314, 1466.745
229.0135, 1504.100
229.4957, 1545.798
229.9778, 1598.015
230.4599, 1663.382
230.9420, 1742.454
231.4241, 1836.249
231.9062, 1937.829
232.3884, 2069.558
232.8705, 2231.109
233.3526, 2419.537
233.8347, 2640.032
234.3168, 2892.592
234.7989, 3162.710
235.2811, 3424.400
235.7632, 3675.960
236.2453, 3924.514
236.7274, 4121.420
237.2095, 4350.822
237.6916, 4711.170
238.1738, 5203.073
238.6559, 5698.460
239.1380, 6082.227
239.6201, 6404.028
240.1022, 6416.811
240.5843, 5929.155
241.0665, 5280.843
241.5486, 4539.688
242.0307, 3757.040
242.5128, 3041.352
242.9949, 2497.410
243.4770, 2132.577
243.9592, 1845.926
244.4413, 1673.850
244.9234, 1551.730
245.4055, 1471.915
245.8876, 1424.080
246.3697, 1390.226
246.8519, 1358.480
247.3340, 1329.174
247.8161, 1306.382
248.2982, 1286.151
248.7803, 1279.311
249.2624, 1292.033
249.7446, 1318.598
250.2267, 1349.487
250.7088, 1379.116
251.1909, 1410.556
251.6730, 1454.339
252.1551, 1517.898
252.6373, 1579.169
253.1194, 1629.583
253.6015, 1674.817
254.0836, 1720.195
254.5657, 1767.233
255.0478, 1816.523
255.5300, 1869.573
256.0121, 1926.737
256.4942, 1985.885
256.9763, 2039.401
257.4584, 2098.821
257.9406, 2173.957
258.4227, 2266.942
258.9048, 2372.787
259.3869, 2480.561
259.8690, 2589.179
260.3511, 2731.433
260.8333, 2918.506
261.3154, 3142.731
261.7975, 3384.157
262.2796, 3645.731
262.7617, 3970.059
263.2438, 4363.964
263.7260, 4839.258
264.2081, 5462.292
264.6902, 6262.968
265.1723, 7188.739
265.6544, 8337.734
266.1365, 9607.135
266.6187, 10619.51
267.1008, 11328.86
267.5829, 11638.61
268.0650, 11251.84
268.5471, 10025.47
269.0292, 8553.539
269.5114, 7019.985
269.9935, 5540.560
270.4756, 4345.145
270.9577, 3542.295
271.4398, 3008.127
271.9219, 2643.023
272.4041, 2449.185
272.8862, 2341.878
273.3683, 2305.696
273.8504, 2323.802
274.3325, 2357.493
274.8146, 2411.004
275.2968, 2469.578
275.7789, 2523.955
276.2610, 2575.160
276.7431, 2626.462
277.2252, 2675.685
277.7073, 2730.518
278.1895, 2797.349
278.6716, 2867.546
279.1537, 2977.699
279.6358, 3138.958
280.1179, 3349.392
280.6000, 3596.776
281.0822, 3875.069
281.5643, 4213.090
282.0464, 4651.084
282.5285, 5187.982
283.0106, 5808.813
283.4927, 6561.679
283.9749, 7366.542
284.4570, 8265.088
284.9391, 9224.559
285.4212, 9960.353
285.9033, 10257.01
286.3854, 10087.41
286.8676, 9554.984
287.3497, 8428.526
287.8318, 7199.929
288.3139, 6004.470
288.7960, 4887.403
289.2781, 3944.858
289.7603, 3235.104
290.2424, 2728.966
290.7245, 2326.951
291.2066, 2064.520
291.6887, 1852.702
292.1708, 1691.691
292.6530, 1569.854
293.1351, 1478.249
293.6172, 1413.231
294.0993, 1366.004
294.5814, 1321.608
295.0635, 1278.250
295.5457, 1241.868
296.0278, 1214.382
296.5099, 1192.082
296.9920, 1174.080
297.4741, 1159.295
297.9562, 1145.129
298.4384, 1127.864
298.9205, 1105.703
299.4026, 1093.197
299.8847, 1097.875
300.3668, 1104.359
300.8489, 1108.501
301.3310, 1110.322
301.8131, 1111.162
302.2953, 1112.003
302.7774, 1112.478
303.2595, 1110.081
303.7416, 1098.375
304.2237, 1093.777
304.7058, 1105.707
305.1880, 1123.016
305.6701, 1132.438
306.1522, 1128.812
306.6343, 1120.971
307.1164, 1125.138
307.5985, 1146.084
308.0807, 1161.156
308.5628, 1156.046
309.0449, 1151.058
309.5270, 1159.988
310.0091, 1183.391
310.4912, 1209.417
310.9734, 1225.274
311.4555, 1232.631
311.9376, 1249.212
312.4197, 1274.586
312.9018, 1312.817
313.3839, 1362.860
313.8661, 1425.637
314.3482, 1504.062
314.8303, 1606.056
315.3124, 1721.654
315.7945, 1842.441
316.2766, 1974.145
316.7588, 2077.071
317.2409, 2128.251
317.7230, 2134.074
318.2051, 2103.092
318.6872, 2025.461
319.1693, 1930.143
319.6515, 1821.951
320.1336, 1709.461
320.6157, 1630.816
321.0978, 1603.432
321.5799, 1609.564
322.0620, 1623.741
322.5442, 1645.145
323.0263, 1673.876
323.5084, 1705.296
323.9905, 1746.152
324.4726, 1805.561
324.9547, 1885.293
325.4369, 1979.610
325.9190, 2081.353
326.4011, 2190.919
326.8832, 2327.651
327.3653, 2478.231
327.8474, 2667.083
328.3296, 2903.846
328.8117, 3190.613
329.2938, 3532.989
329.7759, 3939.137
330.2580, 4398.360
330.7401, 4849.311
331.2223, 5457.734
331.7044, 5852.756
332.1865, 5999.961
332.6686, 5914.226
333.1507, 5556.374
333.6328, 4931.909
334.1150, 4183.478
334.5971, 3504.155
335.0792, 2877.491
335.5613, 2382.220
336.0434, 2049.905
336.5255, 1803.783
337.0077, 1628.600
337.4898, 1510.286
337.9719, 1426.626
338.4540, 1364.503
338.9361, 1322.510
339.4182, 1288.515
339.9004, 1266.416
340.3825, 1247.458
340.8646, 1227.751
341.3467, 1209.588
341.8288, 1196.338
342.3109, 1189.557
342.7931, 1186.359
343.2752, 1183.020
343.7573, 1179.633
344.2394, 1175.157
344.7215, 1165.711
345.2036, 1158.176
345.6858, 1160.549
346.1679, 1172.759
346.6500, 1181.746
347.1321, 1174.798
347.6142, 1158.406
348.0963, 1151.275
348.5785, 1157.056
349.0606, 1166.422
349.5427, 1172.456
350.0248, 1176.272
350.5069, 1181.132
350.9890, 1186.796
351.4712, 1194.381
351.9533, 1204.855
352.4354, 1218.111
352.9175, 1233.283
353.3996, 1249.456
353.8817, 1267.873
354.3639, 1292.476
354.8460, 1323.647
355.3281, 1358.093
355.8102, 1392.451
356.2923, 1430.857
356.7744, 1486.056
357.2566, 1558.754
357.7387, 1622.233
358.2208, 1646.982
358.7029, 1628.903
359.1850, 1589.782
359.6671, 1519.038
360.1493, 1441.449
360.6314, 1358.445
361.1135, 1277.649
361.5956, 1212.535
362.0777, 1171.283
362.5598, 1149.557
363.0420, 1131.465
363.5241, 1117.711
364.0062, 1106.903
364.4883, 1099.306
364.9704, 1093.902
365.4525, 1088.357
365.9347, 1082.797
366.4168, 1081.875
366.8989, 1092.241
367.3810, 1114.675
367.8631, 1137.222
368.3452, 1163.008
368.8274, 1184.337
369.3095, 1196.847
369.7916, 1202.431
370.2737, 1205.655
370.7558, 1208.912
371.2379, 1210.836
371.7201, 1207.469
372.2022, 1197.943
372.6843, 1191.742
373.1664, 1195.538
373.6485, 1203.401
374.1306, 1207.258
374.6128, 1207.567
375.0949, 1201.365
375.5770, 1181.010
376.0591, 1154.095
376.5412, 1136.455
377.0233, 1131.808
377.5055, 1132.711
377.9876, 1132.608
378.4697, 1131.407
378.9518, 1128.330
379.4339, 1119.416
379.9160, 1112.181
380.3982, 1112.720
380.8803, 1118.857
381.3624, 1124.793
381.8445, 1127.697
382.3266, 1127.190
382.8087, 1121.986
383.2909, 1107.929
383.7730, 1094.315
384.2551, 1077.769
384.7372, 1064.068
385.2193, 1057.721
385.7014, 1059.501
386.1836, 1067.595
386.6657, 1081.009
387.1478, 1099.983
387.6299, 1118.592
388.1120, 1136.012
388.5941, 1154.215
389.0763, 1172.913
389.5584, 1192.959
390.0405, 1215.337
390.5226, 1240.674
391.0047, 1268.618
391.4868, 1299.913
391.9690, 1334.947
392.4511, 1368.245
392.9332, 1395.255
393.4153, 1422.769
393.8974, 1455.528
394.3795, 1493.803
394.8617, 1538.564
395.3438, 1588.897
395.8259, 1646.394
396.3080, 1710.701
396.7901, 1780.967
397.2722, 1870.735
397.7544, 1990.275
398.2365, 2138.778
398.7186, 2302.937
399.2007, 2463.855
399.6828, 2658.794
400.1649, 2909.938
400.6471, 3202.402
401.1292, 3535.479
401.6113, 3911.246
402.0934, 4265.355
402.5755, 4515.655
403.0576, 4679.593
403.5398, 4658.664
404.0219, 4386.377
404.5040, 4018.790
404.9861, 3582.949
405.4682, 3117.790
405.9503, 2686.301
406.4325, 2325.918
406.9146, 2033.065
407.3967, 1804.376
407.8788, 1657.327
408.3609, 1541.738
408.8430, 1455.411
409.3252, 1388.074
409.8073, 1333.797
410.2894, 1291.153
410.7715, 1258.336
411.2536, 1236.178
411.7357, 1223.221
412.2179, 1213.490
412.7000, 1208.053
413.1821, 1202.460
413.6642, 1193.797
414.1463, 1182.760
414.6284, 1170.365
415.1106, 1154.416
415.5927, 1139.985
416.0748, 1130.100
416.5569, 1124.648
417.0390, 1125.125
417.5211, 1133.543
418.0033, 1142.383
418.4854, 1138.735
418.9675, 1115.716
419.4496, 1104.281
419.9317, 1117.799
420.4138, 1133.157
420.8960, 1132.758
421.3781, 1119.754
421.8602, 1107.579
422.3423, 1104.502
422.8244, 1109.846
423.3065, 1121.489
423.7887, 1151.490
424.2708, 1168.435
424.7529, 1163.984
425.2350, 1149.997
425.7171, 1134.467
426.1992, 1119.287
426.6814, 1104.101
427.1635, 1087.179
427.6456, 1068.960
428.1277, 1056.995
428.6098, 1054.508
429.0919, 1052.138
429.5741, 1042.295
430.0562, 1030.155
430.5383, 1024.195
431.0204, 1028.637
431.5025, 1034.782
431.9846, 1033.896
432.4668, 1028.465
432.9489, 1028.552
433.4310, 1038.113
433.9131, 1049.031
434.3952, 1050.890
434.8773, 1042.491
435.3595, 1037.386
435.8416, 1038.265
436.3237, 1040.852
436.8058, 1041.722
437.2879, 1042.112
437.7701, 1045.604
438.2522, 1054.112
438.7343, 1066.341
439.2164, 1078.840
439.6985, 1089.824
440.1806, 1104.449
440.6628, 1123.621
441.1449, 1145.402
441.6270, 1168.134
442.1091, 1192.142
442.5912, 1219.820
443.0733, 1254.883
443.5555, 1294.126
444.0376, 1323.388
444.5197, 1337.754
445.0018, 1355.963
445.4839, 1387.556
445.9660, 1425.685
446.4482, 1463.471
446.9303, 1499.322
447.4124, 1539.717
447.8945, 1587.173
448.3766, 1642.343
448.8587, 1703.983
449.3409, 1771.606
449.8230, 1853.465
450.3051, 1954.885
450.7872, 2077.570
451.2693, 2223.790
451.7514, 2382.890
452.2336, 2575.286
452.7157, 2808.394
453.1978, 3078.257
453.6799, 3387.473
454.1620, 3733.930
454.6441, 4095.333
455.1263, 4463.652
455.6084, 4873.125
456.0905, 5093.105
456.5726, 5083.589
457.0547, 4908.846
457.5368, 4505.754
458.0190, 3965.894
458.5011, 3409.278
458.9832, 2873.942
459.4653, 2396.745
459.9474, 2032.733
460.4295, 1784.139
460.9117, 1589.884
461.3938, 1449.040
461.8759, 1347.452
462.3580, 1277.748
462.8401, 1235.894
463.3222, 1203.421
463.8044, 1181.116
464.2865, 1161.339
464.7686, 1136.618
465.2507, 1108.335
465.7328, 1081.691
466.2149, 1058.451
466.6971, 1039.885
467.1792, 1029.360
467.6613, 1033.360
468.1434, 1031.778
468.6255, 1015.893
469.1076, 1002.063
469.5898, 1004.946
470.0719, 1019.283
470.5540, 1027.941
471.0361, 1019.240
471.5182, 1000.016
472.0003, 991.1463
472.4825, 997.9500
472.9646, 1000.744
473.4467, 988.2180
473.9288, 975.5369
474.4109, 974.1426
474.8930, 983.5590
475.3752, 992.7423
475.8573, 995.1462
476.3394, 993.3863
476.8215, 991.4606
477.3036, 989.4666
477.7857, 987.5144
478.2679, 985.1316
478.7500, 983.2648
479.2321, 984.0599
479.7142, 986.5779
480.1963, 993.2423
480.6784, 1011.235
481.1606, 1029.067
481.6427, 1035.668
482.1248, 1031.024
482.6069, 1021.792
483.0890, 1012.537
483.5711, 1003.295
484.0533, 994.1261
484.5354, 985.7241
485.0175, 976.1545
485.4996, 959.6863
485.9817, 945.8461
486.4638, 944.2429
486.9460, 954.7667
487.4281, 967.1854
487.9102, 972.9360
488.3923, 974.4677
488.8744, 979.6434
489.3565, 989.1453
489.8387, 998.8474
490.3208, 1008.273
490.8029, 1015.573
491.2850, 1016.435
491.7671, 1007.109
492.2492, 1002.234
492.7314, 1011.523
493.2135, 1025.185
493.6956, 1032.227
494.1777, 1031.706
494.6598, 1028.370
495.1419, 1025.527
495.6241, 1023.162
496.1062, 1021.331
496.5883, 1025.717
497.0704, 1022.197
497.5525, 1002.965
498.0346, 980.0893
498.5168, 962.5019
498.9989, 951.7050
499.4810, 945.4104
499.9631, 944.2714
500.4452, 946.0278
500.9273, 940.3760
501.4095, 924.5606
501.8916, 913.1094
502.3737, 914.3734
502.8558, 922.6577
503.3379, 928.5240
503.8200, 931.0636
504.3022, 934.2839
504.7843, 941.8704
505.2664, 949.6586
505.7485, 950.0659
506.2306, 944.2181
506.7127, 942.9482
507.1949, 953.9979
507.6770, 974.7026
508.1591, 993.5621
508.6412, 1015.880
509.1233, 1027.977
509.6054, 1019.366
510.0876, 1008.339
510.5697, 1010.432
511.0518, 1024.209
511.5339, 1035.938
512.0161, 1035.234
512.4982, 1025.752
512.9803, 1017.105
513.4624, 1009.557
513.9445, 1001.496
514.4266, 991.7950
514.9088, 981.8182
515.3909, 973.4103
515.8730, 966.6695
516.3551, 959.9656
516.8372, 950.6157
517.3193, 942.6734
517.8015, 941.8082
518.2836, 946.2816
518.7657, 948.5439
519.2478, 944.5129
519.7299, 936.2237
520.2120, 928.3400
520.6942, 920.1226
521.1763, 913.7701
521.6584, 911.4567
522.1405, 908.7650
522.6226, 902.9968
523.1047, 894.8539
523.5869, 886.5250
524.0690, 878.8978
524.5511, 872.1355
525.0332, 865.8030
525.5153, 859.9212
525.9974, 858.3524
526.4796, 864.1684
526.9617, 871.0670
527.4438, 871.0178
527.9259, 865.0425
528.4080, 862.2229
528.8901, 868.0236
529.3723, 873.1596
529.8544, 872.7872
530.3365, 867.6651
530.8186, 857.1928
531.3007, 841.4771
531.7828, 828.1216
532.2650, 828.8616
532.7471, 846.8696
533.2292, 859.2413
533.7113, 862.6904
534.1934, 863.9940
534.6755, 862.9709
535.1577, 861.9213
535.6398, 864.1412
536.1219, 870.7994
536.6040, 878.7164
537.0861, 884.8660
537.5682, 889.8796
538.0504, 896.4982
538.5325, 905.4583
539.0146, 912.1497
539.4967, 911.1874
539.9788, 905.3556
540.4609, 908.3681
540.9431, 924.7546
541.4252, 942.7069
541.9073, 959.0019
542.3894, 976.3208
542.8715, 998.3596
543.3536, 1024.687
543.8358, 1050.876
544.3179, 1073.134
544.8000, 1092.729
545.2821, 1116.100
545.7642, 1146.229
546.2463, 1172.041
546.7285, 1196.684
547.2106, 1210.815
547.6926, 1203.895
548.1747, 1177.190
548.6569, 1147.242
549.1390, 1120.511
549.6211, 1094.769
550.1032, 1065.709
550.5853, 1034.986
551.0674, 1009.935
551.5496, 993.1097
552.0317, 984.0751
552.5138, 982.4586
552.9959, 990.1280
553.4780, 999.1776
553.9601, 1010.100
554.4423, 1021.703
554.9244, 1033.193
555.4065, 1045.153
555.8886, 1057.860
556.3707, 1071.396
556.8528, 1087.970
557.3350, 1110.474
557.8171, 1138.591
558.2992, 1170.782
558.7813, 1208.641
559.2634, 1245.372
559.7455, 1279.363
560.2277, 1308.054
560.7098, 1325.446
561.1919, 1331.507
561.6740, 1326.416
562.1561, 1305.283
562.6382, 1276.022
563.1204, 1245.966
563.6025, 1216.282
564.0846, 1185.368
564.5667, 1151.551
565.0488, 1115.733
565.5309, 1080.136
566.0131, 1042.039
566.4952, 1011.090
566.9773, 990.6922
567.4594, 976.8024
567.9415, 972.5488
568.4236, 974.2715
568.9058, 966.8281
569.3879, 934.5236
569.8700, 898.5824
570.3521, 881.1141
570.8342, 878.1254
571.3163, 876.6395
571.7985, 872.7980
572.2806, 868.4661
572.7627, 865.9995
573.2448, 865.6757
573.7269, 864.5082
574.2090, 863.6278
574.6912, 860.5852
575.1733, 851.8659
575.6554, 842.1859
576.1375, 836.4801
576.6196, 835.8970
577.1017, 838.7029
577.5839, 847.4075
578.0660, 858.2040
578.5481, 854.9861
579.0302, 835.3890
579.5123, 821.4141
579.9944, 825.6595
580.4766, 839.1179
580.9587, 843.3120
581.4408, 834.8096
581.9229, 832.9705
582.4050, 849.0475
582.8871, 864.7768
583.3693, 867.7665
583.8514, 860.7428
584.3335, 850.1931
584.8156, 839.0422
585.2977, 829.9568
585.7798, 828.5765
586.2620, 835.8646
586.7441, 839.1670
587.2262, 835.0707
587.7083, 831.6281
588.1904, 836.8390
588.6725, 844.8218
589.1547, 844.7512
589.6368, 831.3315
590.1189, 820.1119
590.6010, 819.4964
591.0831, 824.7806
591.5652, 830.8690
592.0474, 836.9307
592.5295, 843.8417
593.0116, 852.7723
593.4937, 861.1401
593.9758, 859.7855
594.4579, 841.6932
594.9401, 830.5933
595.4222, 832.8025
595.9043, 838.6448
596.3864, 845.6933
596.8685, 852.5489
597.3506, 856.7187
597.8328, 857.6548
598.3149, 854.8489
598.7970, 842.6492
599.2791, 826.7692
599.7612, 823.7919
600.2433, 836.9407
600.7255, 853.9123
601.2076, 865.2501
601.6897, 871.0636
602.1718, 872.1799
602.6539, 863.5505
603.1360, 857.0106
603.6182, 857.5338
604.1003, 857.2147
604.5824, 846.9598
605.0645, 829.4891
605.5466, 817.3563
606.0287, 818.9868
606.5109, 828.0839
606.9930, 837.9279
607.4751, 847.7511
607.9572, 850.7831
608.4393, 844.6028
608.9214, 833.8718
609.4036, 821.5654
609.8857, 807.6899
610.3678, 801.5050
610.8499, 807.3672
611.3320, 814.6072
611.8141, 822.2714
612.2963, 829.2153
612.7784, 834.0225
613.2605, 836.7929
613.7426, 839.1256
614.2247, 842.8148
614.7068, 846.4353
615.1890, 845.6790
615.6711, 840.3090
616.1532, 836.1595
616.6353, 835.7254
617.1174, 835.6121
617.5995, 830.9404
618.0817, 821.5874
618.5638, 816.6995
619.0459, 820.4821
619.5280, 824.3267
620.0101, 822.6997
620.4922, 820.3751
620.9744, 824.8806
621.4565, 836.6700
621.9386, 848.3911
622.4207, 854.1710
622.9028, 854.2917
623.3849, 847.4528
623.8671, 831.3533
624.3492, 822.4972
624.8313, 830.4224
625.3134, 842.4938
625.7955, 841.7232
626.2776, 828.9877
626.7598, 821.4894
627.2419, 825.7456
627.7240, 831.2740
628.2061, 830.2352
628.6882, 828.1796
629.1703, 834.9225
629.6525, 851.7821
630.1346, 870.3670
630.6167, 883.5183
631.0988, 891.1317
631.5809, 890.9928
632.0630, 879.9064
632.5452, 873.6288
633.0273, 878.1790
633.5094, 888.4355
633.9915, 900.9855
634.4736, 915.5029
634.9557, 923.9801
635.4379, 919.5791
635.9200, 914.1708
636.4021, 914.4625
636.8842, 918.0913
637.3663, 920.4538
637.8484, 920.7934
638.3306, 922.8078
638.8127, 930.1509
639.2948, 942.3733
639.7769, 958.1523
640.2590, 980.6259
640.7411, 995.2496
641.2233, 992.8679
641.7054, 985.5813
642.1875, 986.0900
642.6696, 993.7639
643.1517, 1001.065
643.6339, 1010.530
644.1160, 1014.881
644.5981, 1007.972
645.0802, 994.2170
645.5623, 979.4303
646.0444, 965.3196
646.5266, 951.8936
647.0087, 939.3217
647.4908, 927.4531
647.9729, 915.6794
648.4550, 904.3055
648.9371, 891.8188
649.4193, 875.4433
649.9014, 860.4905
650.3835, 853.8044
650.8656, 853.9484
651.3477, 850.4379
651.8298, 837.6961
652.3120, 825.2649
652.7941, 816.3158
653.2762, 810.9241
653.7583, 810.4700
654.2404, 814.2610
654.7225, 817.9758
655.2047, 817.6772
655.6868, 815.2444
656.1689, 818.4721
656.6510, 829.3241
657.1331, 832.9709
657.6152, 822.2022
658.0974, 809.3395
658.5795, 806.5771
659.0616, 811.5682
659.5437, 814.0479
660.0258, 812.5833
660.5079, 809.1257
660.9901, 798.8835
661.4722, 790.4481
661.9543, 797.7627
662.4364, 817.4751
662.9185, 830.1962
663.4006, 821.6825
663.8828, 802.2106
664.3649, 793.6766
664.8470, 796.3630
665.3291, 801.3795
665.8112, 808.8398
666.2933, 814.9918
666.7755, 816.7929
667.2576, 814.9056
667.7397, 812.6459
668.2218, 809.6570
668.7039, 806.8923
669.1860, 803.8941
669.6682, 801.7161
670.1503, 801.1192
670.6324, 802.0682
671.1145, 804.8516
671.5966, 809.9841
672.0787, 814.2927
672.5609, 811.5310
673.0430, 803.1229
673.5251, 800.4656
674.0072, 805.8358
674.4893, 809.4226
674.9714, 803.9221
675.4536, 793.8517
675.9357, 791.3777
676.4178, 801.8262
676.8999, 808.2107
677.3820, 807.9384
677.8641, 805.7231
678.3463, 802.1614
678.8284, 798.9666
679.3105, 798.6476
679.7926, 802.0001
680.2747, 807.1300
680.7568, 815.2213
681.2390, 823.0234
681.7211, 819.4421
682.2032, 804.9801
682.6853, 797.0723
683.1674, 804.4109
683.6495, 817.9733
684.1317, 823.4076
684.6138, 818.3699
685.0959, 817.5453
685.5780, 826.9429
686.0601, 833.3439
686.5422, 832.3846
687.0244, 827.6044
687.5065, 821.4047
687.9886, 814.6299
688.4707, 810.4089
688.9528, 812.5117
689.4349, 816.5376
689.9171, 816.6624
690.3992, 814.5305
690.8813, 817.0970
691.3634, 825.9902
691.8455, 830.5160
692.3276, 817.7441
692.8098, 791.1044
693.2919, 782.8546
693.7740, 804.3707
694.2561, 819.0327
694.7382, 814.5918
695.2203, 806.1625
695.7025, 803.2197
696.1846, 805.0029
696.6667, 807.8076
697.1488, 811.5210
697.6309, 814.8618
698.1130, 815.7352
698.5952, 816.6399
699.0773, 823.3843
699.5594, 834.1321
700.0415, 838.0651
700.5236, 827.5569
701.0057, 811.6303
701.4879, 811.1173
701.9700, 827.1061
702.4521, 834.5040
702.9342, 827.7211
703.4163, 820.9210
703.8984, 822.1622
704.3806, 829.2292
704.8627, 836.9311
705.3448, 845.5687
705.8269, 853.9440
706.3090, 865.5227
706.7911, 873.2274
707.2733, 868.9236
707.7554, 859.1418
708.2375, 856.5109
708.7196, 864.3776
709.2017, 870.9928
709.6838, 860.5364
710.1660, 841.5034
710.6481, 838.0231
711.1302, 849.3438
711.6123, 856.6500
712.0944, 852.7113
712.5765, 844.8503
713.0587, 842.7131
713.5408, 846.8666
714.0229, 844.5015
714.5050, 828.2369
714.9871, 815.5333
715.4692, 810.4641
715.9514, 808.8257
716.4335, 807.4803
716.9156, 806.3868
717.3977, 806.8663
717.8798, 809.4382
718.3619, 813.7937
718.8441, 823.1650
719.3262, 832.8103
719.8083, 833.2108
720.2904, 824.2581
720.7725, 813.9846
721.2546, 807.7029
721.7368, 804.0265
722.2189, 799.2328
722.7010, 792.7220
723.1831, 789.5267
723.6652, 791.4221
724.1473, 793.9473
724.6295, 795.2881
725.1116, 795.3052
725.5937, 793.8381
726.0758, 790.7353
726.5579, 786.6708
727.0400, 780.8912
727.5222, 775.0576
728.0043, 766.4658
728.4864, 759.8486
728.9685, 765.8587
729.4506, 785.7804
729.9327, 803.2088
730.4149, 799.5657
730.8970, 784.3498
731.3791, 779.4470
731.8612, 783.8674
732.3433, 788.6390
732.8254, 791.4108
733.3076, 792.0745
733.7897, 789.8541
734.2718, 785.2124
734.7539, 784.6273
735.2360, 795.2417
735.7181, 797.8166
736.2003, 779.5964
736.6824, 762.8172
737.1645, 761.8017
737.6466, 773.3277
738.1287, 788.4516
738.6108, 809.8842
739.0930, 822.1390
739.5751, 807.3229
740.0572, 784.8287
740.5393, 779.6464
741.0214, 788.3232
741.5035, 790.7731
741.9857, 777.5099
742.4678, 761.8877
742.9499, 765.9084
743.4320, 787.6148
743.9141, 798.3150
744.3962, 795.6779
744.8784, 793.5671
745.3605, 798.8535
745.8426, 804.8756
746.3247, 801.9707
746.8068, 788.8883
747.2889, 778.2487
747.7711, 769.5801
748.2532, 763.6879
748.7353, 759.0937
749.2174, 758.5530
749.6995, 767.9238
750.1816, 784.3243
750.6638, 795.8345
751.1459, 795.4048
751.6280, 790.7929
752.1101, 788.4813
752.5922, 787.3083
753.0743, 783.6454
753.5565, 778.0822
754.0386, 777.6962
754.5207, 787.2110
755.0028, 800.0820
755.4849, 802.1786
755.9670, 791.7702
756.4492, 787.6263
756.9313, 793.3683
757.4134, 796.7289
757.8955, 788.5921
758.3776, 777.9932
758.8597, 781.0919
759.3419, 799.6682
759.8240, 810.8525
760.3061, 808.4625
760.7882, 803.6158
761.2703, 799.0258
761.7524, 795.0370
762.2346, 792.1924
762.7167, 790.2047
763.1988, 787.4453
763.6809, 781.8904
764.1630, 777.1403
764.6451, 777.0660
765.1273, 781.0867
765.6094, 790.1462
766.0915, 803.2768
766.5736, 811.4570
767.0557, 808.7205
767.5378, 799.4286
768.0200, 792.6290
768.5021, 788.5179
768.9842, 785.6956
769.4663, 783.3848
769.9484, 784.2330
770.4305, 793.0069
770.9127, 803.1259
771.3948, 803.3041
771.8769, 792.3726
772.3590, 787.5334
772.8411, 797.9991
773.3232, 806.1909
773.8054, 802.0953
774.2875, 794.4689
774.7696, 792.9376
775.2517, 797.7216
775.7338, 803.3547
776.2159, 808.0114
776.6981, 809.8012
777.1802, 803.9549
777.6623, 794.2615
778.1444, 789.9470
778.6265, 791.6025
779.1086, 793.9593
779.5908, 794.0771
780.0729, 793.1902
780.5550, 793.7911
781.0371, 796.1591
781.5192, 797.4701
782.0013, 798.4597
782.4835, 796.0499
782.9656, 785.5626
783.4477, 774.4327
783.9298, 773.4435
784.4119, 782.8413
784.8940, 789.6295
785.3762, 792.7203
785.8583, 793.8368
786.3404, 789.4069
786.8225, 786.3675
787.3046, 792.0936
787.7867, 804.7446
788.2689, 817.6100
788.7510, 829.7250
789.2331, 835.3577
789.7152, 825.5757
790.1973, 808.3465
790.6794, 793.5471
791.1616, 783.2214
791.6437, 781.4473
792.1258, 789.9782
792.6079, 802.0316
793.0900, 808.3457
793.5721, 809.6143
794.0543, 813.3617
794.5364, 820.4307
795.0185, 823.9885
795.5006, 819.8086
795.9827, 816.6693
796.4648, 825.7039
796.9470, 844.8606
797.4291, 851.7424
797.9112, 834.1071
798.3933, 821.6015
798.8754, 816.4692
799.3575, 815.8242
799.8397, 821.5143
800.3218, 829.4847
800.8039, 831.9744
801.2860, 826.3932
801.7681, 821.1885
802.2502, 821.5124
802.7324, 823.2522
803.2145, 823.1862
803.6966, 821.5566
804.1787, 818.1191
804.6608, 813.4570
805.1429, 811.2338
805.6251, 815.0453
806.1072, 822.6370
806.5893, 830.0476
807.0714, 837.0799
807.5535, 842.3851
808.0356, 845.8292
808.5178, 845.5187
808.9999, 839.3817
809.4820, 830.3450
809.9641, 825.5812
810.4462, 824.9656
810.9283, 829.5533
811.4105, 844.2714
811.8926, 856.1729
812.3747, 857.7178
812.8568, 855.5791
813.3389, 858.3685
813.8210, 866.1033
814.3032, 869.2678
814.7853, 863.2561
815.2674, 856.5552
815.7495, 849.7646
816.2316, 845.3240
816.7137, 846.1163
817.1959, 851.2000
817.6780, 857.5237
818.1601, 864.1169
818.6422, 870.2247
819.1243, 874.8668
819.6064, 878.8823
820.0886, 883.3495
820.5707, 888.3906
821.0528, 894.2362
821.5349, 900.9625
822.0170, 907.5388
822.4991, 913.0358
822.9813, 917.3953
823.4634, 919.6962
823.9455, 919.7494
824.4276, 922.7799
824.9097, 930.9734
825.3918, 937.1716
825.8740, 933.4701
826.3561, 925.5560
826.8382, 934.2279
827.3203, 975.8872
827.8024, 995.9600
828.2845, 973.3301
828.7667, 954.9210
829.2488, 960.4847
829.7309, 977.4832
830.2130, 992.9874
830.6951, 1006.033
831.1772, 1014.648
831.6594, 1012.981
832.1415, 1013.372
832.6236, 1023.341
833.1057, 1036.377
833.5878, 1045.712
834.0699, 1051.832
834.5521, 1059.061
835.0342, 1069.507
835.5163, 1080.506
835.9984, 1089.005
836.4805, 1096.819
836.9626, 1104.363
837.4448, 1113.823
837.9269, 1135.288
838.4090, 1171.227
838.8911, 1205.387
839.3732, 1218.650
839.8553, 1217.909
840.3375, 1228.270
840.8196, 1249.847
841.3017, 1276.843
841.7838, 1308.438
842.2659, 1345.558
842.7480, 1391.448
843.2302, 1440.119
843.7123, 1474.614
844.1944, 1483.681
844.6765, 1517.146
845.1586, 1588.562
845.6407, 1664.067
846.1229, 1733.669
846.6050, 1801.653
847.0871, 1871.521
847.5692, 1943.422
848.0513, 2017.831
848.5334, 2094.200
849.0156, 2174.427
849.4977, 2258.504
849.9798, 2347.130
850.4619, 2443.834
850.9440, 2545.521
851.4261, 2645.427
851.9083, 2742.250
852.3904, 2833.018
852.8725, 2920.344
853.3546, 2997.930
853.8367, 3064.140
854.3188, 3114.643
854.8010, 3140.527
855.2831, 3141.113
855.7652, 3124.257
856.2473, 3096.090
856.7294, 3052.614
857.2115, 2986.439
857.6937, 2898.865
858.1758, 2788.624
858.6579, 2656.747
859.1400, 2529.660
859.6221, 2419.093
860.1042, 2319.778
860.5864, 2224.095
861.0685, 2132.511
861.5506, 2044.530
862.0327, 1961.469
862.5148, 1875.401
862.9969, 1778.899
863.4791, 1688.169
863.9612, 1615.036
864.4433, 1557.629
864.9254, 1511.025
865.4075, 1483.795
865.8896, 1449.136
866.3718, 1393.477
866.8539, 1346.644
867.3360, 1325.403
867.8181, 1314.258
868.3002, 1294.723
868.7823, 1266.503
869.2645, 1244.709
869.7466, 1241.070
870.2287, 1234.430
870.7108, 1211.403
871.1929, 1186.418
871.6750, 1174.642
872.1572, 1171.312
872.6393, 1160.919
873.1214, 1137.760
873.6035, 1120.589
874.0856, 1130.405
874.5677, 1147.034
875.0499, 1149.274
875.5320, 1140.166
876.0141, 1123.505
876.4962, 1102.726
876.9783, 1088.943
877.4604, 1090.583
877.9426, 1099.351
878.4247, 1103.576
878.9068, 1103.514
879.3889, 1098.492
879.8710, 1089.131
880.3531, 1081.991
880.8353, 1079.712
881.3174, 1081.525
881.7995, 1087.468
882.2816, 1096.356
882.7637, 1100.387
883.2458, 1099.010
883.7280, 1095.817
884.2101, 1089.482
884.6922, 1088.265
885.1743, 1099.960
885.6564, 1117.360
886.1385, 1123.824
886.6207, 1115.195
887.1028, 1114.838
887.5849, 1132.078
888.0670, 1142.364
888.5491, 1130.244
889.0313, 1116.616
889.5134, 1121.422
889.9955, 1140.644
890.4776, 1155.828
890.9597, 1164.063
891.4418, 1171.198
891.9240, 1175.641
892.4061, 1181.805
892.8882, 1191.191
893.3703, 1204.216
893.8524, 1223.073
894.3345, 1247.277
894.8167, 1268.276
895.2988, 1278.910
895.7809, 1289.916
896.2630, 1310.568
896.7451, 1331.847
897.2272, 1338.531
897.7094, 1338.304
898.1915, 1355.797
898.6736, 1399.957
899.1557, 1440.625
899.6378, 1443.840
900.1199, 1437.912
900.6021, 1459.946
901.0842, 1499.480
901.5663, 1535.192
902.0484, 1562.473
902.5305, 1583.611
903.0126, 1599.460
903.4948, 1612.792
903.9769, 1622.486
904.4590, 1633.656
904.9411, 1666.271
905.4232, 1718.088
905.9053, 1765.052
906.3875, 1799.321
906.8696, 1833.307
907.3517, 1879.995
907.8338, 1933.758
908.3159, 1974.444
908.7980, 2001.840
909.2802, 2037.253
909.7623, 2083.341
910.2444, 2133.509
910.7265, 2184.735
911.2086, 2236.778
911.6907, 2287.871
912.1729, 2338.275
912.6550, 2406.000
913.1371, 2496.695
913.6192, 2587.349
914.1013, 2674.080
914.5834, 2760.126
915.0656, 2847.506
915.5477, 2936.084
916.0298, 3024.921
916.5119, 3109.375
916.9940, 3212.555
917.4761, 3349.363
917.9583, 3483.573
918.4404, 3600.312
918.9225, 3717.729
919.4046, 3851.564
919.8867, 3998.365
920.3688, 4144.301
920.8510, 4286.726
921.3331, 4433.266
921.8152, 4597.567
922.2973, 4751.790
922.7794, 4883.081
923.2615, 4998.398
923.7437, 5105.286
924.2258, 5204.174
924.7079, 5289.099
925.1900, 5362.555
925.6721, 5415.440
926.1542, 5446.453
926.6364, 5452.896
927.1185, 5426.997
927.6006, 5377.085
928.0827, 5315.783
928.5648, 5246.162
929.0469, 5165.434
929.5291, 5077.658
930.0112, 4971.913
930.4933, 4826.804
930.9754, 4667.342
931.4575, 4524.942
931.9396, 4396.541
932.4218, 4263.890
932.9039, 4119.498
933.3860, 3974.990
933.8681, 3841.312
934.3502, 3712.755
934.8323, 3580.924
935.3145, 3449.601
935.7966, 3332.160
936.2787, 3227.215
936.7608, 3118.794
937.2429, 2998.762
937.7250, 2874.058
938.2072, 2747.302
938.6893, 2623.874
939.1714, 2517.951
939.6535, 2426.403
940.1356, 2334.718
940.6177, 2240.164
941.0999, 2155.826
941.5820, 2092.196
942.0641, 2036.601
942.5462, 1961.867
943.0283, 1874.087
943.5104, 1805.693
943.9926, 1757.334
944.4747, 1718.018
944.9568, 1684.638
945.4389, 1649.963
945.9210, 1606.777
946.4031, 1559.645
946.8853, 1520.413
947.3674, 1489.029
947.8495, 1466.136
948.3316, 1452.734
948.8137, 1436.448
949.2958, 1412.412
949.7780, 1383.908
950.2601, 1353.344
950.7422, 1322.546
951.2243, 1302.323
951.7064, 1294.473
952.1885, 1286.124
952.6707, 1276.813
953.1528, 1264.308
953.6349, 1246.950
954.1170, 1227.027
954.5991, 1206.589
955.0812, 1185.987
955.5634, 1171.412
956.0455, 1166.447
956.5276, 1155.710
957.0097, 1132.254
957.4918, 1113.323
957.9739, 1109.270
958.4561, 1114.158
958.9382, 1119.743
959.4203, 1126.605
959.9024, 1125.628
960.3845, 1112.006
960.8666, 1099.964
961.3488, 1089.510
961.8309, 1084.076
962.3130, 1089.667
962.7951, 1099.742
963.2772, 1100.676
963.7593, 1090.028
964.2415, 1083.346
964.7236, 1086.277
965.2057, 1084.960
965.6878, 1071.069
966.1699, 1058.064
966.6520, 1055.131
967.1342, 1059.226
967.6163, 1064.215
968.0984, 1071.239
968.5805, 1073.924
969.0626, 1067.104
969.5447, 1062.441
970.0269, 1063.992
970.5090, 1067.708
970.9911, 1072.582
971.4732, 1076.856
971.9553, 1075.085
972.4374, 1063.147
972.9196, 1058.209
973.4017, 1065.642
973.8838, 1076.525
974.3659, 1089.216
974.8480, 1102.781
975.3301, 1117.364
975.8123, 1132.165
976.2944, 1143.738
976.7765, 1148.607
977.2586, 1160.086
977.7407, 1187.870
978.2228, 1214.608
978.7050, 1234.477
979.1871, 1248.202
979.6692, 1250.796
980.1513, 1248.089
980.6334, 1260.656
981.1155, 1300.375
981.5977, 1331.810
982.0798, 1336.432
982.5619, 1339.583
983.0440, 1354.380
983.5261, 1374.551
984.0082, 1397.160
984.4904, 1418.350
984.9725, 1426.828
985.4546, 1416.058
985.9367, 1403.107
986.4188, 1393.917
986.9009, 1384.448
987.3831, 1375.871
987.8652, 1363.260
988.3473, 1336.583
988.8294, 1300.041
989.3115, 1273.436
989.7936, 1266.914
990.2758, 1258.346
990.7579, 1236.464
991.2400, 1212.118
991.7221, 1188.345
992.2042, 1168.786
992.6863, 1158.523
993.1685, 1156.305
993.6506, 1154.962
994.1327, 1152.407
994.6148, 1149.732
995.0969, 1147.360
995.5790, 1145.090
996.0612, 1139.398
996.5433, 1135.917
997.0254, 1142.492
997.5075, 1158.424
997.9896, 1177.570
998.4717, 1201.280
998.9539, 1217.475
999.4360, 1210.825
999.9181, 1205.254
1000.400, 1217.529
1000.882, 1240.740
1001.364, 1268.707
1001.847, 1298.245
1002.329, 1320.795
1002.811, 1327.458
1003.293, 1345.809
1003.775, 1402.865
1004.257, 1460.985
1004.739, 1490.710
1005.221, 1508.129
1005.703, 1531.509
1006.186, 1563.498
1006.668, 1603.755
1007.150, 1656.510
1007.632, 1701.934
1008.114, 1732.056
1008.596, 1750.668
1009.078, 1757.289
1009.560, 1755.719
1010.043, 1748.205
1010.525, 1736.606
1011.007, 1726.668
1011.489, 1723.877
1011.971, 1708.605
1012.453, 1659.867
1012.935, 1610.307
1013.417, 1581.118
1013.899, 1561.137
1014.382, 1541.991
1014.864, 1519.674
1015.346, 1483.707
1015.828, 1424.607
1016.310, 1381.371
1016.792, 1382.338
1017.274, 1387.270
1017.756, 1373.905
1018.239, 1353.801
1018.721, 1338.171
1019.203, 1327.313
1019.685, 1318.254
1020.167, 1310.902
1020.649, 1302.292
1021.131, 1288.333
1021.613, 1276.724
1022.095, 1272.774
1022.578, 1271.224
1023.060, 1264.981
1023.542, 1257.448
1024.024, 1258.312
1024.506, 1270.252
1024.988, 1284.508
1025.470, 1304.461
1025.952, 1318.894
1026.435, 1321.851
1026.917, 1319.143
1027.399, 1311.761
1027.881, 1303.448
1028.363, 1301.903
1028.845, 1309.071
1029.327, 1314.640
1029.809, 1314.143
1030.292, 1315.431
1030.774, 1322.543
1031.256, 1330.182
1031.738, 1336.110
1032.220, 1339.501
1032.702, 1337.352
1033.184, 1328.614
1033.666, 1326.943
1034.148, 1339.526
1034.630, 1350.740
1035.113, 1358.564
1035.595, 1363.881
1036.077, 1364.885
1036.559, 1364.874
1037.041, 1367.455
1037.523, 1372.599
1038.005, 1385.156
1038.487, 1418.013
1038.970, 1437.313
1039.452, 1433.810
1039.934, 1425.900
1040.416, 1418.267
1040.898, 1413.103
1041.380, 1413.832
1041.862, 1419.908
1042.344, 1425.290
1042.826, 1429.157
1043.309, 1434.308
1043.791, 1443.240
1044.273, 1448.518
1044.755, 1443.674
1045.237, 1439.554
1045.719, 1448.572
1046.201, 1467.376
1046.683, 1480.861
1047.166, 1489.516
1047.648, 1490.147
1048.130, 1478.051
1048.612, 1472.409
1049.094, 1481.001
1049.576, 1492.415
1050.058, 1496.722
1050.540, 1497.116
1051.022, 1502.351
1051.505, 1512.866
1051.987, 1523.613
1052.469, 1534.248
1052.951, 1548.214
1053.433, 1567.832
1053.915, 1581.985
1054.397, 1582.332
1054.879, 1575.869
1055.361, 1574.362
1055.844, 1577.953
1056.326, 1589.093
1056.808, 1607.837
1057.290, 1629.767
1057.772, 1654.265
1058.254, 1668.657
1058.736, 1665.441
1059.218, 1658.920
1059.701, 1668.524
1060.183, 1689.493
1060.665, 1707.814
1061.147, 1723.028
1061.629, 1729.613
1062.111, 1728.651
1062.593, 1733.919
1063.075, 1750.489
1063.557, 1767.293
1064.040, 1771.602
1064.522, 1773.508
1065.004, 1797.300
1065.486, 1831.045
1065.968, 1841.824
1066.450, 1834.642
1066.932, 1836.289
1067.414, 1852.703
1067.896, 1868.074
1068.379, 1870.880
1068.861, 1871.031
1069.343, 1876.615
1069.825, 1888.811
1070.307, 1915.072
1070.789, 1946.933
1071.271, 1968.449
1071.753, 1977.948
1072.236, 1981.404
1072.718, 1980.175
1073.200, 1983.241
1073.682, 2003.937
1074.164, 2024.370
1074.646, 2025.100
1075.128, 2020.154
1075.610, 2025.643
1076.093, 2041.481
1076.575, 2062.748
1077.057, 2088.379
1077.539, 2112.806
1078.021, 2133.844
1078.503, 2152.735
1078.985, 2170.153
1079.467, 2185.499
1079.949, 2197.952
1080.432, 2208.251
1080.914, 2216.020
1081.396, 2221.671
1081.878, 2233.017
1082.360, 2258.656
1082.842, 2279.127
1083.324, 2292.983
1083.806, 2299.254
1084.288, 2289.629
1084.771, 2277.987
1085.253, 2277.453
1085.735, 2287.802
1086.217, 2309.419
1086.699, 2352.674
1087.181, 2379.110
1087.663, 2383.590
1088.145, 2380.711
1088.628, 2370.019
1089.110, 2360.364
1089.592, 2356.987
1090.074, 2360.552
1090.556, 2373.283
1091.038, 2395.483
1091.520, 2419.708
1092.002, 2448.588
1092.484, 2459.173
1092.967, 2445.091
1093.449, 2429.887
1093.931, 2424.906
1094.413, 2427.909
1094.895, 2438.703
1095.377, 2451.880
1095.859, 2441.054
1096.341, 2411.441
1096.823, 2407.885
1097.306, 2430.945
1097.788, 2447.595
1098.270, 2447.635
1098.752, 2449.202
1099.234, 2469.063
1099.716, 2487.917
1100.198, 2468.156
1100.680, 2430.135
1101.163, 2409.995
1101.645, 2408.781
1102.127, 2436.169
1102.609, 2482.131
1103.091, 2501.063
1103.573, 2470.079
1104.055, 2434.269
1104.537, 2430.821
1105.020, 2439.474
1105.502, 2447.337
1105.984, 2452.143
1106.466, 2449.535
1106.948, 2442.603
1107.430, 2438.436
1107.912, 2438.411
1108.394, 2437.815
1108.876, 2431.875
1109.359, 2429.353
1109.841, 2437.291
1110.323, 2445.385
1110.805, 2446.683
1111.287, 2445.005
1111.769, 2445.170
1112.251, 2447.039
1112.733, 2448.082
1113.215, 2447.576
1113.698, 2447.448
1114.180, 2445.866
1114.662, 2447.854
1115.144, 2458.267
1115.626, 2467.060
1116.108, 2465.565
1116.590, 2460.085
1117.072, 2463.023
1117.555, 2474.444
1118.037, 2482.798
1118.519, 2489.685
1119.001, 2480.029
1119.483, 2447.168
1119.965, 2432.221
1120.447, 2454.505
1120.929, 2487.602
1121.411, 2505.194
1121.894, 2511.142
1122.376, 2514.664
1122.858, 2515.292
1123.340, 2507.512
1123.822, 2493.836
1124.304, 2488.836
1124.786, 2495.153
1125.268, 2504.660
1125.750, 2512.740
1126.233, 2521.761
1126.715, 2539.304
1127.197, 2554.984
1127.679, 2541.956
1128.161, 2524.715
1128.643, 2554.117
1129.125, 2612.441
1129.607, 2640.141
1130.090, 2624.559
1130.572, 2610.732
1131.054, 2624.718
1131.536, 2639.660
1132.018, 2638.759
1132.500, 2637.212
1132.982, 2647.232
1133.464, 2661.281
1133.947, 2667.814
1134.429, 2669.401
1134.911, 2679.589
1135.393, 2702.518
1135.875, 2725.211
1136.357, 2748.126
1136.839, 2768.417
1137.321, 2785.859
1137.803, 2799.846
1138.286, 2807.339
1138.768, 2814.541
1139.250, 2831.201
1139.732, 2856.207
1140.214, 2879.662
1140.696, 2901.517
1141.178, 2924.552
1141.660, 2949.905
1142.142, 2964.271
1142.625, 2962.642
1143.107, 2960.927
1143.589, 2971.374
1144.071, 2989.574
1144.553, 3009.594
1145.035, 3030.539
1145.517, 3048.900
1145.999, 3065.849
1146.482, 3087.046
1146.964, 3111.008
1147.446, 3129.270
1147.928, 3138.673
1148.410, 3142.775
1148.892, 3138.871
1149.374, 3139.876
1149.856, 3165.298
1150.339, 3193.540
1150.821, 3199.531
1151.303, 3195.762
1151.785, 3204.092
1152.267, 3223.452
1152.749, 3235.218
1153.231, 3230.201
1153.713, 3236.251
1154.195, 3271.733
1154.677, 3302.533
1155.160, 3317.771
1155.642, 3325.791
1156.124, 3326.748
1156.606, 3328.090
1157.088, 3342.523
1157.570, 3368.348
1158.052, 3384.938
1158.534, 3389.956
1159.017, 3395.853
1159.499, 3402.741
1159.981, 3413.031
1160.463, 3427.478
1160.945, 3445.183
1161.427, 3465.563
1161.909, 3489.550
1162.391, 3523.913
1162.874, 3561.464
1163.356, 3575.596
1163.838, 3572.641
1164.320, 3568.286
1164.802, 3567.068
1165.284, 3576.602
1165.766, 3598.526
1166.248, 3624.813
1166.730, 3653.725
1167.213, 3675.944
1167.695, 3681.951
1168.177, 3679.762
1168.659, 3670.269
1169.141, 3661.387
1169.623, 3665.601
1170.105, 3678.036
1170.587, 3681.361
1171.069, 3670.911
1171.552, 3665.250
1172.034, 3663.834
1172.516, 3673.445
1172.998, 3709.620
1173.480, 3735.410
1173.962, 3727.311
1174.444, 3712.965
1174.926, 3722.194
1175.409, 3747.706
1175.891, 3765.918
1176.373, 3777.212
1176.855, 3773.287
1177.337, 3753.738
1177.819, 3736.526
1178.301, 3724.938
1178.783, 3713.362
1179.266, 3699.023
1179.748, 3685.995
1180.230, 3678.620
1180.712, 3675.351
1181.194, 3678.219
1181.676, 3680.546
1182.158, 3670.274
1182.640, 3650.383
1183.122, 3626.465
1183.604, 3601.041
1184.087, 3575.279
1184.569, 3547.531
1185.051, 3536.383
1185.533, 3574.560
1186.015, 3598.029
1186.497, 3567.018
1186.979, 3525.638
1187.461, 3499.963
1187.944, 3485.892
1188.426, 3478.880
1188.908, 3476.711
1189.390, 3467.098
1189.872, 3449.268
1190.354, 3425.171
1190.836, 3391.771
1191.318, 3364.942
1191.801, 3348.036
1192.283, 3341.076
1192.765, 3345.434
1193.247, 3348.885
1193.729, 3332.904
1194.211, 3309.676
1194.693, 3316.904
1195.175, 3338.101
1195.657, 3328.124
1196.140, 3292.378
1196.622, 3249.898
1197.104, 3208.487
1197.586, 3176.944
1198.068, 3158.847
1198.550, 3154.200
1199.032, 3175.290
1199.514, 3193.882
1199.996, 3193.760
1200.479, 3184.986
1200.961, 3172.112
1201.443, 3157.954
1201.925, 3145.890
1202.407, 3135.749
1202.889, 3123.932
1203.371, 3106.874
1203.853, 3100.708
1204.336, 3109.907
1204.818, 3114.412
1205.300, 3108.120
1205.782, 3107.855
1206.264, 3123.935
##END=



