##NAMES=Topaz
##RRUFFID=R050404
##IDEAL CHEMISTRY=Al_2_SiO_4_F_2_
##LOCALITY=Minas Gerais, Brazil
##OWNER=RRUFF
##SOURCE=Gerry Gibbs
##DESCRIPTION=Colorless cleavage fragments
##STATUS=The identification of this mineral has been confirmed by X-ray diffraction and chemical analysis
##URL=rruff.info/R050404
##MEASURED CHEMISTRY=Al_2.00_Si_1.00_O_4_(F_0.86_(OH)_0.14_)_2_
91.00781, 5.106011
91.48993, 5.465549
91.97205, 5.609472
92.45416, 5.394749
92.93628, 4.971299
93.41840, 4.672059
93.90051, 4.571494
94.38263, 4.577143
94.86475, 4.537737
95.34686, 4.453933
95.82898, 4.388467
96.31110, 4.409309
96.79321, 4.507441
97.27533, 4.582504
97.75745, 4.590909
98.23956, 4.561075
98.72168, 4.646529
99.20380, 4.887370
99.68591, 5.115440
100.1680, 5.091979
100.6501, 4.743855
101.1323, 4.509654
101.6144, 4.584887
102.0965, 5.014299
102.5786, 5.180471
103.0607, 4.969637
103.5428, 4.597260
104.0250, 4.413758
104.5071, 4.473958
104.9892, 4.635336
105.4713, 4.878390
105.9534, 5.346032
106.4355, 5.573153
106.9177, 5.417390
107.3998, 5.015336
107.8819, 4.793690
108.3640, 4.897224
108.8461, 5.067457
109.3282, 5.187341
109.8104, 5.227103
110.2925, 5.248552
110.7746, 5.177468
111.2567, 5.045603
111.7388, 5.101771
112.2209, 5.610078
112.7031, 6.186082
113.1852, 6.569571
113.6673, 6.511919
114.1494, 6.443265
114.6315, 6.488109
115.1136, 6.654965
115.5958, 6.806743
116.0779, 6.907786
116.5600, 6.968904
117.0421, 7.002098
117.5242, 6.962657
118.0063, 6.932795
118.4885, 6.928222
118.9706, 6.932869
119.4527, 7.062660
119.9348, 7.516333
120.4169, 8.135142
120.8990, 8.634957
121.3812, 8.723911
121.8633, 8.694879
122.3454, 8.852542
122.8275, 9.315002
123.3096, 9.788937
123.7917, 10.01872
124.2739, 10.04156
124.7560, 9.994083
125.2381, 9.894330
125.7202, 9.792355
126.2023, 9.779760
126.6844, 9.898987
127.1666, 10.08581
127.6487, 10.28127
128.1308, 10.48284
128.6129, 10.63860
129.0950, 10.65309
129.5771, 10.57391
130.0593, 10.58102
130.5414, 10.78459
131.0235, 11.08552
131.5056, 11.20647
131.9877, 11.09426
132.4698, 10.86826
132.9520, 10.66291
133.4341, 10.48094
133.9162, 10.41790
134.3983, 10.51313
134.8804, 10.75380
135.3625, 11.09119
135.8447, 11.54995
136.3268, 12.04371
136.8089, 12.43382
137.2910, 12.69417
137.7731, 13.01835
138.2552, 13.57267
138.7374, 14.42452
139.2195, 14.91984
139.7016, 15.00844
140.1837, 14.80719
140.6658, 14.50036
141.1479, 13.97929
141.6301, 13.59148
142.1122, 13.52444
142.5943, 13.91663
143.0764, 14.24862
143.5585, 14.51485
144.0406, 14.71396
144.5228, 14.82536
145.0049, 14.71090
145.4870, 14.67813
145.9691, 14.92062
146.4512, 15.76297
146.9333, 16.34781
147.4155, 16.49445
147.8976, 16.26962
148.3797, 16.28748
148.8618, 16.64148
149.3439, 17.16791
149.8260, 17.75843
150.3082, 18.32666
150.7903, 19.05961
151.2724, 19.89086
151.7545, 20.80771
152.2366, 22.19489
152.7188, 23.97136
153.2009, 26.26163
153.6830, 29.14868
154.1651, 32.93043
154.6472, 37.02980
155.1293, 42.29893
155.6115, 49.33887
156.0936, 52.75167
156.5757, 49.91098
157.0578, 43.62486
157.5399, 36.98567
158.0220, 29.14757
158.5042, 22.36437
158.9863, 17.66092
159.4684, 15.32286
159.9505, 13.82402
160.4326, 13.06415
160.9147, 12.81034
161.3969, 12.71754
161.8790, 12.87435
162.3611, 13.01069
162.8432, 12.96457
163.3253, 12.66821
163.8074, 12.33696
164.2896, 12.00453
164.7717, 11.70560
165.2538, 11.51014
165.7359, 11.45753
166.2180, 11.51438
166.7001, 11.68557
167.1823, 12.03972
167.6644, 12.34881
168.1465, 12.41177
168.6286, 12.30319
169.1107, 12.23290
169.5928, 12.44446
170.0750, 12.69954
170.5571, 12.73419
171.0392, 12.39871
171.5213, 11.98087
172.0034, 11.67637
172.4855, 11.48076
172.9677, 11.38068
173.4498, 11.42592
173.9319, 11.54507
174.4140, 11.63860
174.8961, 11.68393
175.3782, 11.68955
175.8604, 11.62814
176.3425, 11.51192
176.8246, 11.44493
177.3067, 11.59770
177.7888, 11.85214
178.2709, 11.95283
178.7531, 11.71737
179.2352, 11.37565
179.7173, 11.30018
180.1994, 11.48091
180.6815, 11.69200
181.1636, 11.69773
181.6458, 11.56629
182.1279, 11.50592
182.6100, 11.65126
183.0921, 11.88088
183.5742, 11.90473
184.0563, 11.71200
184.5385, 11.52210
185.0206, 11.62051
185.5027, 11.94176
185.9848, 12.16331
186.4669, 12.11052
186.9490, 11.88264
187.4312, 11.79291
187.9133, 11.85956
188.3954, 11.95209
188.8775, 11.88743
189.3596, 11.68617
189.8417, 11.54393
190.3239, 11.57631
190.8060, 11.74124
191.2881, 11.82486
191.7702, 11.81996
192.2523, 11.76081
192.7344, 11.63877
193.2166, 11.45492
193.6987, 11.38129
194.1808, 11.57071
194.6629, 11.98675
195.1450, 12.18907
195.6271, 12.14546
196.1093, 11.97175
196.5914, 11.78783
197.0735, 11.58401
197.5556, 11.48645
198.0377, 11.59486
198.5198, 11.91193
199.0020, 12.16131
199.4841, 12.35045
199.9662, 12.45914
200.4483, 12.41455
200.9304, 12.18406
201.4125, 11.99826
201.8947, 11.98016
202.3768, 12.14537
202.8589, 12.29156
203.3410, 12.43928
203.8231, 12.53992
204.3052, 12.44632
204.7874, 12.08870
205.2695, 11.82750
205.7516, 11.88280
206.2337, 12.32401
206.7158, 12.59432
207.1979, 12.63799
207.6801, 12.55862
208.1622, 12.57149
208.6443, 12.70072
209.1264, 12.84682
209.6085, 12.96530
210.0906, 13.05012
210.5728, 13.13700
211.0549, 13.23129
211.5370, 13.32389
212.0191, 13.38433
212.5012, 13.39430
212.9833, 13.41865
213.4655, 13.48046
213.9476, 13.57245
214.4297, 13.73961
214.9118, 14.02471
215.3939, 14.36363
215.8760, 14.55857
216.3581, 14.46351
216.8403, 14.52195
217.3224, 14.95557
217.8045, 15.84468
218.2866, 16.87820
218.7687, 18.07226
219.2508, 19.39613
219.7330, 20.71084
220.2151, 21.91834
220.6972, 23.29026
221.1793, 24.92674
221.6614, 26.83837
222.1435, 29.06861
222.6257, 31.87613
223.1078, 34.92802
223.5899, 37.32066
224.0720, 38.71657
224.5541, 40.00249
225.0362, 41.63248
225.5184, 43.76332
226.0005, 45.81055
226.4826, 47.71267
226.9647, 49.54335
227.4468, 51.56801
227.9289, 53.79736
228.4111, 56.18578
228.8932, 58.66017
229.3753, 60.98278
229.8574, 63.93674
230.3395, 67.55235
230.8216, 71.76939
231.3038, 76.50092
231.7859, 81.64658
232.2680, 87.41179
232.7501, 93.73941
233.2322, 99.96230
233.7143, 108.1856
234.1965, 118.4603
234.6786, 130.7912
235.1607, 145.2641
235.6428, 161.7735
236.1249, 180.5747
236.6070, 202.2480
237.0892, 229.1406
237.5713, 253.6811
238.0534, 275.3606
238.5355, 294.8126
239.0176, 313.7978
239.4997, 333.8916
239.9819, 351.6312
240.4640, 367.3338
240.9461, 389.0862
241.4282, 389.3056
241.9103, 361.6294
242.3924, 314.4770
242.8746, 266.5464
243.3567, 213.3570
243.8388, 166.1909
244.3209, 129.7363
244.8030, 106.7027
245.2851, 88.20159
245.7673, 74.99557
246.2494, 65.99806
246.7315, 59.01531
247.2136, 54.39412
247.6957, 51.23183
248.1778, 49.24044
248.6600, 48.52783
249.1421, 48.70062
249.6242, 49.72253
250.1063, 51.64142
250.5884, 54.70912
251.0705, 59.65978
251.5527, 64.53324
252.0348, 68.65238
252.5169, 72.06197
252.9990, 74.60438
253.4811, 75.91442
253.9632, 76.62060
254.4454, 77.76253
254.9275, 79.33208
255.4096, 81.36018
255.8917, 83.88899
256.3738, 86.94398
256.8560, 90.30161
257.3381, 93.92150
257.8202, 97.89875
258.3023, 102.4733
258.7844, 107.6644
259.2665, 113.2939
259.7487, 119.2438
260.2308, 125.3988
260.7129, 132.4267
261.1950, 140.0701
261.6771, 148.8108
262.1592, 158.8995
262.6414, 169.2642
263.1235, 183.3985
263.6056, 201.6436
264.0877, 224.0185
264.5698, 252.6386
265.0519, 287.1119
265.5341, 328.1448
266.0162, 377.6306
266.4983, 436.4410
266.9804, 500.5364
267.4625, 572.9130
267.9446, 652.6761
268.4268, 727.2167
268.9089, 809.5300
269.3910, 861.3228
269.8731, 833.1318
270.3552, 706.2496
270.8373, 573.6039
271.3195, 447.1479
271.8016, 329.4017
272.2837, 242.5674
272.7658, 190.1488
273.2479, 158.6473
273.7300, 137.3801
274.2122, 127.5069
274.6943, 121.1276
275.1764, 117.7393
275.6585, 116.6770
276.1406, 114.2903
276.6227, 110.2210
277.1049, 106.0152
277.5870, 102.6461
278.0691, 100.0608
278.5512, 98.91324
279.0333, 99.32767
279.5154, 101.2380
279.9976, 104.3476
280.4797, 108.6098
280.9618, 114.3830
281.4439, 121.9221
281.9260, 131.2023
282.4081, 142.5433
282.8903, 155.9790
283.3724, 171.5027
283.8545, 189.5074
284.3366, 210.1378
284.8187, 231.7989
285.3008, 255.0013
285.7830, 279.4007
286.2651, 299.4612
286.7472, 316.1943
287.2293, 325.9075
287.7114, 320.4082
288.1935, 299.7669
288.6757, 272.2209
289.1578, 238.9686
289.6399, 201.5832
290.1220, 169.6830
290.6041, 143.7894
291.0862, 122.7944
291.5684, 105.7898
292.0505, 92.58045
292.5326, 81.95266
293.0147, 73.71066
293.4968, 67.55085
293.9789, 62.42739
294.4611, 58.40427
294.9432, 55.14952
295.4253, 52.46761
295.9074, 50.29160
296.3895, 48.39244
296.8716, 46.69059
297.3538, 45.17750
297.8359, 43.81065
298.3180, 42.57572
298.8001, 41.54018
299.2822, 40.83470
299.7643, 40.37072
300.2465, 39.92767
300.7286, 39.41712
301.2107, 38.89309
301.6928, 38.44149
302.1749, 38.06049
302.6570, 37.65957
303.1392, 37.10286
303.6213, 36.48953
304.1034, 36.01887
304.5855, 35.85277
305.0676, 35.72042
305.5497, 35.23257
306.0319, 34.47497
306.5140, 33.86840
306.9961, 33.86177
307.4782, 34.10478
307.9603, 34.16459
308.4424, 33.85965
308.9246, 33.50449
309.4067, 33.33842
309.8888, 33.31893
310.3709, 33.32308
310.8530, 33.25008
311.3351, 33.19158
311.8173, 33.19864
312.2994, 33.24102
312.7815, 33.47062
313.2636, 34.12843
313.7457, 35.02055
314.2278, 35.80457
314.7100, 36.12283
315.1921, 36.43512
315.6742, 37.06836
316.1563, 38.10914
316.6384, 39.11636
317.1205, 39.82972
317.6027, 40.40594
318.0848, 41.03926
318.5669, 41.77895
319.0490, 42.59718
319.5311, 43.50279
320.0132, 44.49811
320.4954, 45.50590
320.9775, 46.52048
321.4596, 47.52303
321.9417, 48.48196
322.4238, 49.18209
322.9059, 50.05484
323.3881, 51.23347
323.8702, 52.69371
324.3523, 54.24214
324.8344, 55.61758
325.3165, 57.22442
325.7986, 59.31284
326.2808, 62.03654
326.7629, 65.08393
327.2450, 68.18177
327.7271, 71.52184
328.2092, 75.86351
328.6913, 81.46052
329.1735, 87.83329
329.6556, 94.91823
330.1377, 102.9576
330.6198, 111.2938
331.1019, 120.5370
331.5840, 129.8682
332.0662, 138.1546
332.5483, 146.9738
333.0304, 152.5048
333.5125, 153.5268
333.9946, 149.9499
334.4767, 142.2242
334.9589, 128.7891
335.4410, 112.8456
335.9231, 98.08276
336.4052, 84.35814
336.8873, 72.53426
337.3694, 63.00303
337.8516, 55.74343
338.3336, 50.02501
338.8158, 46.09079
339.2979, 43.16455
339.7800, 40.55749
340.2621, 38.28413
340.7442, 36.37832
341.2263, 34.90473
341.7085, 33.80284
342.1906, 33.02917
342.6727, 32.62361
343.1548, 32.25468
343.6369, 31.59875
344.1190, 30.69364
344.6012, 30.10084
345.0833, 29.93691
345.5654, 30.00747
346.0475, 29.99791
346.5296, 29.91213
347.0117, 29.81151
347.4939, 29.68203
347.9760, 29.56059
348.4581, 29.56140
348.9402, 29.69170
349.4223, 29.93771
349.9044, 30.35391
350.3866, 30.89171
350.8687, 31.38750
351.3508, 31.71537
351.8329, 31.99211
352.3150, 32.39616
352.7971, 32.92830
353.2793, 33.53360
353.7614, 34.11786
354.2435, 34.76692
354.7256, 35.62100
355.2077, 36.72173
355.6898, 38.03423
356.1720, 39.53663
356.6541, 41.23888
357.1362, 43.15889
357.6183, 45.41685
358.1004, 47.85662
358.5826, 50.50037
359.0647, 53.71595
359.5468, 56.19297
360.0289, 57.61467
360.5110, 57.78178
360.9931, 56.30583
361.4753, 51.83555
361.9574, 46.66154
362.4395, 41.71529
362.9216, 37.00801
363.4037, 33.05392
363.8858, 30.20011
364.3680, 28.09909
364.8501, 26.37786
365.3322, 25.06930
365.8143, 24.04416
366.2964, 23.33250
366.7785, 22.92536
367.2607, 22.60710
367.7428, 22.44493
368.2249, 22.30363
368.7070, 22.09765
369.1891, 21.62168
369.6712, 21.35943
370.1534, 21.45160
370.6355, 21.76984
371.1176, 21.90930
371.5997, 21.76500
372.0818, 21.57445
372.5639, 21.41451
373.0461, 21.26266
373.5282, 21.22254
374.0103, 21.33567
374.4924, 21.52000
374.9745, 21.66897
375.4566, 21.80718
375.9388, 21.82611
376.4209, 21.62572
376.9030, 21.23142
377.3851, 21.13220
377.8672, 21.39773
378.3493, 21.73322
378.8315, 21.81189
379.3136, 21.62806
379.7957, 21.58454
380.2778, 21.79735
380.7599, 22.15341
381.2420, 22.39462
381.7242, 22.51716
382.2063, 22.58674
382.6884, 22.60446
383.1705, 22.59671
383.6526, 22.65206
384.1347, 22.77777
384.6169, 22.96816
385.0990, 23.27346
385.5811, 23.64968
386.0632, 23.94062
386.5453, 23.93960
387.0274, 23.87280
387.5096, 24.04214
387.9917, 24.44947
388.4738, 24.97981
388.9559, 25.66946
389.4380, 26.38161
389.9201, 26.92127
390.4023, 26.99819
390.8844, 27.14365
391.3665, 27.76533
391.8486, 28.77194
392.3307, 29.80757
392.8128, 30.74845
393.2950, 31.62803
393.7771, 32.43308
394.2592, 33.04642
394.7413, 33.88645
395.2234, 35.12545
395.7055, 36.66133
396.1877, 38.33651
396.6698, 40.20581
397.1519, 42.12270
397.6340, 43.97886
398.1161, 45.72643
398.5982, 47.83186
399.0804, 50.54440
399.5625, 53.49533
400.0446, 56.42247
400.5267, 59.33285
401.0088, 62.23543
401.4909, 65.22137
401.9731, 68.20149
402.4552, 70.79646
402.9373, 73.14717
403.4194, 74.88996
403.9015, 76.01163
404.3836, 76.79224
404.8658, 75.70674
405.3479, 72.37995
405.8300, 67.70802
406.3121, 62.78873
406.7942, 57.56530
407.2763, 52.47036
407.7585, 47.58094
408.2406, 42.90869
408.7227, 38.58038
409.2048, 34.58711
409.6869, 31.13134
410.1690, 28.56277
410.6512, 26.77111
411.1333, 25.10264
411.6154, 23.41359
412.0975, 21.83517
412.5796, 20.51087
413.0617, 19.44324
413.5439, 18.61298
414.0260, 18.11335
414.5081, 17.79456
414.9902, 17.47021
415.4723, 17.12672
415.9544, 16.75363
416.4366, 16.30598
416.9187, 15.83376
417.4008, 15.41344
417.8829, 15.04923
418.3650, 14.76208
418.8471, 14.60280
419.3293, 14.54957
419.8114, 14.46420
420.2935, 14.22655
420.7756, 13.97595
421.2577, 13.81953
421.7398, 13.83599
422.2220, 13.82128
422.7041, 13.69921
423.1862, 13.52232
423.6683, 13.38489
424.1504, 13.35070
424.6325, 13.30253
425.1147, 13.18943
425.5968, 12.99316
426.0789, 12.88752
426.5610, 12.94346
427.0431, 13.02553
427.5252, 13.01159
428.0074, 12.82506
428.4895, 12.72973
428.9716, 12.80028
429.4537, 12.96612
429.9358, 12.97541
430.4179, 12.77211
430.9001, 12.60974
431.3822, 12.65409
431.8643, 12.90955
432.3464, 13.06192
432.8285, 13.09521
433.3106, 13.07539
433.7928, 13.05552
434.2749, 13.04245
434.7570, 13.09737
435.2391, 13.25791
435.7212, 13.48305
436.2033, 13.69522
436.6855, 13.89527
437.1676, 14.10975
437.6497, 14.37505
438.1318, 14.66138
438.6139, 14.90484
439.0960, 15.07084
439.5782, 15.28396
440.0603, 15.64459
440.5424, 16.12722
441.0245, 16.67695
441.5066, 17.28844
441.9887, 17.95010
442.4709, 18.68365
442.9530, 19.48445
443.4351, 20.25126
443.9172, 20.91163
444.3993, 21.53815
444.8814, 22.17100
445.3636, 22.76630
445.8457, 23.44338
446.3278, 24.21379
446.8099, 25.07380
447.2920, 26.03492
447.7741, 27.11003
448.2563, 28.27030
448.7384, 29.36608
449.2205, 30.30041
449.7026, 32.07902
450.1847, 35.11016
450.6668, 38.44458
451.1490, 41.06507
451.6311, 42.63154
452.1132, 44.88243
452.5953, 48.26873
453.0774, 52.36407
453.5595, 56.13754
454.0417, 59.54744
454.5238, 63.16647
455.0059, 67.63010
455.4880, 72.66723
455.9701, 77.14736
456.4522, 81.02522
456.9344, 84.25828
457.4165, 87.06033
457.8986, 89.21893
458.3807, 90.05788
458.8628, 89.31686
459.3449, 87.23629
459.8271, 83.66548
460.3092, 78.84007
460.7913, 73.72454
461.2734, 68.66882
461.7555, 63.71849
462.2376, 58.80424
462.7198, 53.91236
463.2019, 49.30277
463.6840, 45.03614
464.1661, 41.18367
464.6482, 37.83169
465.1303, 35.19858
465.6125, 32.86325
466.0946, 30.71675
466.5767, 28.75090
467.0588, 27.10050
467.5409, 25.97469
468.0230, 24.98748
468.5052, 23.95998
468.9873, 22.78778
469.4694, 21.84536
469.9515, 21.20637
470.4336, 20.73578
470.9157, 20.23290
471.3979, 19.67346
471.8800, 19.17766
472.3621, 18.78617
472.8442, 18.48318
473.3263, 18.15059
473.8084, 17.77266
474.2906, 17.48623
474.7727, 17.45760
475.2548, 17.62557
475.7369, 17.68585
476.2190, 17.59361
476.7011, 17.44713
477.1833, 17.38667
477.6654, 17.37004
478.1475, 17.27978
478.6296, 16.93485
479.1117, 16.58477
479.5938, 16.52426
480.0760, 16.71655
480.5581, 16.91495
481.0402, 16.97431
481.5223, 16.98426
482.0044, 17.00011
482.4865, 16.99592
482.9687, 17.09554
483.4508, 17.44826
483.9329, 17.90319
484.4150, 18.24045
484.8971, 18.32379
485.3792, 18.39189
485.8614, 18.43651
486.3435, 18.47082
486.8256, 18.72563
487.3077, 19.34740
487.7898, 20.01291
488.2719, 20.56998
488.7541, 21.01983
489.2362, 21.31235
489.7183, 21.40521
490.2004, 21.39639
490.6825, 21.44011
491.1646, 21.54586
491.6468, 21.61131
492.1289, 21.62036
492.6110, 21.56137
493.0931, 21.35100
493.5752, 20.99083
494.0573, 20.67189
494.5395, 20.59879
495.0216, 20.65246
495.5037, 20.57054
495.9858, 20.30950
496.4679, 19.99588
496.9500, 19.71000
497.4322, 19.45699
497.9143, 19.25065
498.3964, 19.09153
498.8785, 18.98426
499.3606, 18.95329
499.8427, 18.98506
500.3249, 19.01854
500.8070, 19.01210
501.2891, 19.01789
501.7712, 19.02745
502.2533, 18.94475
502.7354, 19.13937
503.2176, 19.83553
503.6997, 20.71970
504.1818, 21.46754
504.6639, 21.92743
505.1460, 22.53845
505.6281, 23.40513
506.1103, 24.46548
506.5924, 25.44139
507.0745, 26.30706
507.5566, 27.17764
508.0387, 28.07032
508.5208, 28.99238
509.0030, 30.13164
509.4851, 31.51316
509.9672, 32.96874
510.4493, 34.18087
510.9314, 35.29498
511.4135, 36.83310
511.8957, 38.98981
512.3778, 41.47879
512.8599, 43.96295
513.3420, 46.49849
513.8242, 49.23737
514.3063, 52.23206
514.7884, 55.52898
515.2705, 59.19307
515.7526, 63.21433
516.2347, 67.40064
516.7169, 71.43259
517.1990, 75.73698
517.6811, 80.67227
518.1632, 87.40656
518.6453, 93.25916
519.1274, 98.35754
519.6096, 102.3373
520.0917, 104.4534
520.5738, 104.6683
521.0559, 103.0813
521.5380, 99.55985
522.0201, 94.15513
522.5023, 87.52065
522.9844, 79.26611
523.4665, 70.80806
523.9486, 62.92769
524.4307, 55.61004
524.9128, 49.38660
525.3950, 44.45119
525.8771, 40.28247
526.3592, 36.15043
526.8413, 32.22903
527.3234, 29.02351
527.8055, 27.01092
528.2877, 25.57700
528.7698, 23.99871
529.2519, 22.36439
529.7340, 20.98752
530.2161, 20.14648
530.6982, 19.56765
531.1804, 19.06018
531.6625, 18.61979
532.1446, 18.19732
532.6267, 17.66306
533.1088, 17.19957
533.5909, 16.98327
534.0731, 17.37858
534.5552, 17.59320
535.0373, 17.47410
535.5194, 17.15308
536.0015, 16.95232
536.4836, 16.89579
536.9658, 16.91582
537.4479, 17.00396
537.9300, 17.15661
538.4121, 17.30030
538.8942, 17.42470
539.3763, 17.58016
539.8585, 17.79051
540.3406, 18.06250
540.8227, 18.43789
541.3048, 18.93028
541.7869, 19.50995
542.2690, 20.13157
542.7512, 20.81213
543.2333, 21.59478
543.7154, 22.52069
544.1975, 23.53625
544.6796, 24.53735
545.1617, 25.57383
545.6439, 26.82682
546.1260, 28.65590
546.6081, 30.51607
547.0902, 32.07871
547.5723, 33.22949
548.0544, 34.34724
548.5366, 35.67041
549.0187, 36.88396
549.5008, 37.74776
549.9829, 38.42857
550.4650, 38.42712
550.9471, 37.50747
551.4293, 35.98819
551.9114, 34.49801
552.3935, 32.97570
552.8756, 31.78127
553.3577, 31.10105
553.8398, 30.85914
554.3220, 30.70883
554.8041, 30.64803
555.2862, 30.74775
555.7683, 31.07773
556.2504, 31.60393
556.7325, 32.31382
557.2147, 33.24254
557.6968, 34.14809
558.1789, 34.82585
558.6610, 35.35216
559.1431, 35.83319
559.6252, 36.56209
560.1074, 36.99242
560.5895, 36.87912
561.0716, 36.28674
561.5537, 35.44149
562.0358, 34.23035
562.5179, 32.91193
563.0001, 31.58475
563.4822, 30.26377
563.9643, 28.83692
564.4464, 27.20215
564.9285, 25.60323
565.4106, 24.21149
565.8928, 23.04413
566.3749, 21.93213
566.8570, 20.83123
567.3391, 19.82502
567.8212, 19.08455
568.3033, 18.57249
568.7855, 18.06317
569.2676, 17.45877
569.7497, 16.82942
570.2318, 16.24327
570.7139, 15.71397
571.1960, 15.25239
571.6782, 14.89399
572.1603, 14.59368
572.6424, 14.31497
573.1245, 14.04977
573.6066, 13.84546
574.0887, 13.77060
574.5709, 13.73145
575.0530, 13.65526
575.5351, 13.55827
576.0172, 13.37953
576.4993, 13.03647
576.9814, 12.64998
577.4636, 12.43270
577.9457, 12.45101
578.4278, 12.46211
578.9099, 12.40389
579.3920, 12.29776
579.8741, 12.22995
580.3563, 12.20421
580.8384, 12.16965
581.3205, 12.10286
581.8026, 12.00276
582.2847, 11.86499
582.7668, 11.68862
583.2490, 11.49443
583.7311, 11.20303
584.2132, 10.94104
584.6953, 10.90625
585.1774, 11.26358
585.6595, 11.57069
586.1416, 11.54163
586.6237, 11.33019
587.1058, 11.16939
587.5880, 11.13138
588.0701, 11.13016
588.5522, 11.19078
589.0343, 11.28477
589.5164, 11.26075
589.9985, 11.00205
590.4807, 10.82535
590.9628, 10.91277
591.4449, 11.27337
591.9270, 11.39525
592.4091, 11.23664
592.8912, 11.01797
593.3734, 10.95199
593.8555, 11.00220
594.3376, 10.97875
594.8197, 10.83252
595.3018, 10.70462
595.7839, 10.82004
596.2661, 11.05880
596.7482, 11.18835
597.2303, 11.00917
597.7124, 10.80884
598.1945, 10.76677
598.6766, 10.83940
599.1588, 10.90138
599.6409, 10.88319
600.1230, 10.87829
600.6051, 10.93122
601.0872, 11.04613
601.5693, 11.14936
602.0515, 11.26405
602.5336, 11.33410
603.0157, 11.30451
603.4978, 11.14729
603.9799, 11.07117
604.4620, 11.09927
604.9442, 11.15732
605.4263, 11.14987
605.9084, 11.08654
606.3905, 11.01935
606.8726, 10.94649
607.3547, 10.90120
607.8369, 10.94565
608.3190, 11.05123
608.8011, 11.14632
609.2832, 11.18198
609.7653, 11.20794
610.2474, 11.25507
610.7296, 11.32173
611.2117, 11.38579
611.6938, 11.45733
612.1759, 11.51172
612.6580, 11.53858
613.1401, 11.54008
613.6223, 11.50292
614.1044, 11.40227
614.5865, 11.29722
615.0686, 11.25003
615.5507, 11.27132
616.0328, 11.25148
616.5150, 11.16620
616.9971, 11.07102
617.4792, 11.03226
617.9613, 11.05201
618.4434, 11.15014
618.9255, 11.39803
619.4077, 11.64753
619.8898, 11.70810
620.3719, 11.62487
620.8540, 11.54147
621.3361, 11.52065
621.8182, 11.52815
622.3004, 11.55231
622.7825, 11.59175
623.2646, 11.62864
623.7467, 11.64468
624.2288, 11.66991
624.7109, 11.72862
625.1931, 11.85145
625.6752, 11.88202
626.1573, 11.75174
626.6394, 11.64269
627.1215, 11.80301
627.6036, 12.23860
628.0858, 12.50953
628.5679, 12.51194
629.0500, 12.42044
629.5321, 12.48413
630.0142, 12.67256
630.4963, 12.89017
630.9785, 13.16524
631.4606, 13.39026
631.9427, 13.38525
632.4248, 13.23764
632.9069, 13.22683
633.3890, 13.68143
633.8712, 14.10578
634.3533, 14.24886
634.8354, 14.07642
635.3175, 13.95200
635.7996, 13.82336
636.2817, 13.81802
636.7639, 14.04679
637.2460, 14.58433
637.7281, 14.97423
638.2102, 15.21084
638.6923, 15.32305
639.1744, 15.25325
639.6566, 15.05248
640.1387, 15.04171
640.6208, 15.31192
641.1029, 15.68715
641.5850, 16.04670
642.0671, 16.35235
642.5493, 16.53567
643.0314, 16.49722
643.5135, 16.39591
643.9956, 16.29954
644.4777, 16.20392
644.9598, 16.09437
645.4420, 16.05525
645.9241, 15.90726
646.4062, 15.57142
646.8883, 15.05880
647.3704, 14.57679
647.8525, 14.14307
648.3347, 13.70755
648.8168, 13.21871
649.2989, 12.67605
649.7810, 12.29047
650.2631, 12.07385
650.7452, 11.92798
651.2274, 11.79003
651.7095, 11.65155
652.1916, 11.47259
652.6737, 11.22326
653.1558, 11.03601
653.6379, 11.09857
654.1201, 11.25059
654.6022, 11.28117
655.0843, 10.94806
655.5664, 10.69558
656.0485, 10.66666
656.5306, 10.78537
657.0128, 10.88143
657.4949, 10.98615
657.9770, 11.00229
658.4591, 10.86749
658.9412, 10.63116
659.4233, 10.51940
659.9055, 10.54082
660.3876, 10.59051
660.8697, 10.61418
661.3518, 10.62313
661.8339, 10.66731
662.3160, 10.74123
662.7982, 10.75870
663.2803, 10.61995
663.7624, 10.41720
664.2445, 10.21443
664.7266, 10.00182
665.2087, 9.899715
665.6909, 10.06917
666.1730, 10.29437
666.6551, 10.38760
667.1372, 10.19125
667.6193, 10.13316
668.1014, 10.25795
668.5836, 10.47686
669.0657, 10.70913
669.5478, 10.96636
670.0299, 11.06432
670.5120, 10.93155
670.9941, 10.68137
671.4763, 10.48091
671.9584, 10.33014
672.4405, 10.22488
672.9226, 10.15264
673.4047, 10.13243
673.8868, 10.22088
674.3690, 10.38393
674.8511, 10.50334
675.3332, 10.51293
675.8153, 10.48822
676.2974, 10.43341
676.7795, 10.34726
677.2617, 10.36818
677.7438, 10.58830
678.2259, 10.77485
678.7080, 10.77640
679.1901, 10.57442
679.6722, 10.52297
680.1544, 10.64558
680.6365, 10.77544
681.1186, 10.70929
681.6007, 10.53408
682.0828, 10.49144
682.5649, 10.63672
683.0471, 10.79218
683.5292, 10.78503
684.0113, 10.71178
684.4934, 10.68841
684.9755, 10.77518
685.4576, 10.86799
685.9398, 10.99771
686.4219, 11.09968
686.9040, 11.06261
687.3861, 10.76760
687.8682, 10.58119
688.3503, 10.60531
688.8325, 10.74082
689.3146, 10.70598
689.7967, 10.49802
690.2788, 10.34653
690.7609, 10.38759
691.2430, 10.51145
691.7252, 10.48759
692.2073, 10.35472
692.6894, 10.28871
693.1715, 10.49379
693.6536, 10.72047
694.1357, 10.77236
694.6179, 10.64752
695.1000, 10.54368
695.5821, 10.50266
696.0642, 10.50076
696.5463, 10.53778
697.0284, 10.62647
697.5106, 10.66795
697.9927, 10.65575
698.4748, 10.61155
698.9569, 10.50531
699.4390, 10.35971
699.9211, 10.40224
700.4033, 10.66816
700.8854, 10.97004
701.3675, 11.17907
701.8496, 11.28164
702.3317, 11.23818
702.8138, 10.99216
703.2960, 10.72753
703.7781, 10.47339
704.2602, 10.27695
704.7423, 10.19599
705.2244, 10.30567
705.7065, 10.45547
706.1887, 10.68296
706.6708, 10.91649
707.1529, 11.03029
707.6350, 11.01456
708.1171, 10.92418
708.5992, 10.73558
709.0814, 10.52634
709.5635, 10.48448
710.0456, 10.57664
710.5277, 10.64457
711.0098, 10.53282
711.4919, 10.42323
711.9741, 10.53440
712.4562, 10.80104
712.9383, 10.96332
713.4204, 10.83757
713.9025, 10.67296
714.3846, 10.56214
714.8668, 10.50443
715.3489, 10.48470
715.8310, 10.52118
716.3131, 10.55970
716.7952, 10.58798
717.2773, 10.60172
717.7595, 10.48582
718.2416, 10.22766
718.7237, 10.07183
719.2058, 10.33675
719.6879, 10.78721
720.1700, 11.04071
720.6522, 11.05446
721.1343, 10.99831
721.6164, 10.91691
722.0985, 10.84267
722.5806, 10.80136
723.0627, 10.80900
723.5449, 10.82524
724.0270, 10.86644
724.5091, 10.89805
724.9912, 10.87541
725.4733, 10.77962
725.9554, 10.74008
726.4376, 10.77024
726.9197, 10.85035
727.4018, 10.98731
727.8839, 11.15465
728.3660, 11.27054
728.8481, 11.31649
729.3303, 11.30121
729.8124, 11.15381
730.2945, 10.97069
730.7766, 10.90047
731.2587, 11.10803
731.7408, 11.29062
732.2230, 11.39127
732.7051, 11.42133
733.1872, 11.37881
733.6693, 11.21520
734.1514, 11.12885
734.6335, 11.19967
735.1157, 11.34545
735.5978, 11.32780
736.0799, 11.16874
736.5620, 11.05388
737.0441, 11.08465
737.5262, 11.19184
738.0084, 11.34095
738.4905, 11.50737
738.9726, 11.60713
739.4547, 11.53275
739.9368, 11.45229
740.4189, 11.46594
740.9011, 11.56428
741.3832, 11.55635
741.8653, 11.37706
742.3474, 11.20796
742.8295, 11.12201
743.3116, 11.11216
743.7938, 11.14427
744.2759, 11.22010
744.7580, 11.27754
745.2401, 11.24450
745.7222, 11.17824
746.2043, 11.17768
746.6865, 11.24331
747.1686, 11.29682
747.6507, 11.24707
748.1328, 11.20734
748.6149, 11.27003
749.0970, 11.47544
749.5792, 11.62699
750.0613, 11.75146
750.5434, 11.78098
751.0255, 11.63161
751.5076, 11.27892
751.9897, 11.03511
752.4719, 10.89783
752.9540, 10.89704
753.4361, 11.16383
753.9182, 11.56099
754.4003, 11.81655
754.8824, 11.88487
755.3646, 11.86585
755.8467, 11.74976
756.3288, 11.61766
756.8109, 11.54867
757.2930, 11.57583
757.7751, 11.62387
758.2573, 11.69355
758.7394, 11.77620
759.2215, 11.86681
759.7036, 11.96875
760.1857, 12.07060
760.6678, 12.18141
761.1500, 12.25312
761.6321, 12.17456
762.1142, 12.01021
762.5963, 11.91724
763.0784, 11.93947
763.5605, 12.02598
764.0427, 12.19463
764.5248, 12.38570
765.0069, 12.52445
765.4890, 12.60036
765.9711, 12.60485
766.4532, 12.44647
766.9354, 12.28122
767.4175, 12.38305
767.8996, 12.81888
768.3817, 13.09368
768.8638, 13.10430
769.3459, 12.96629
769.8281, 12.78373
770.3102, 12.59811
770.7923, 12.54055
771.2744, 12.72317
771.7565, 12.94159
772.2386, 13.12372
772.7208, 13.23279
773.2029, 13.20473
773.6850, 12.83391
774.1671, 12.56449
774.6492, 12.47316
775.1313, 12.50966
775.6135, 12.58926
776.0956, 12.72324
776.5777, 12.81398
777.0598, 12.83443
777.5419, 12.79896
778.0240, 12.67233
778.5062, 12.50392
778.9883, 12.44944
779.4704, 12.72904
779.9525, 12.99214
780.4346, 13.00641
780.9167, 12.84065
781.3989, 12.66683
781.8810, 12.40539
782.3631, 12.28880
782.8452, 12.43580
783.3273, 12.72968
783.8094, 12.80654
784.2916, 12.64451
784.7737, 12.48502
785.2558, 12.40532
785.7379, 12.38509
786.2200, 12.40979
786.7021, 12.46622
787.1843, 12.50833
787.6664, 12.46075
788.1485, 12.44519
788.6306, 12.58107
789.1127, 12.81508
789.5948, 12.93524
790.0770, 12.82173
790.5591, 12.74348
791.0412, 12.77500
791.5233, 12.88303
792.0054, 12.93664
792.4875, 12.93324
792.9697, 12.97658
793.4518, 13.16478
793.9339, 13.37973
794.4160, 13.39657
794.8981, 13.27071
795.3802, 13.18682
795.8624, 13.34499
796.3445, 13.45403
796.8266, 13.30323
797.3087, 12.96221
797.7908, 12.79189
798.2729, 12.83287
798.7551, 12.98814
799.2372, 13.26581
799.7193, 13.62369
800.2014, 13.97150
800.6835, 14.29625
801.1656, 14.41761
801.6478, 14.04698
802.1299, 13.57233
802.6120, 13.45419
803.0941, 13.61635
803.5762, 13.81507
804.0583, 14.01571
804.5405, 14.16890
805.0226, 14.25334
805.5047, 14.27452
805.9868, 14.22501
806.4689, 14.05922
806.9510, 13.96506
807.4332, 14.01276
807.9153, 14.17163
808.3974, 14.41864
808.8795, 14.72289
809.3616, 14.90829
809.8438, 14.71946
810.3259, 14.51042
810.8080, 14.66686
811.2901, 15.05517
811.7722, 15.23765
812.2543, 14.77739
812.7365, 14.47730
813.2186, 14.59685
813.7007, 15.01215
814.1828, 15.27319
814.6649, 15.36582
815.1470, 15.42199
815.6292, 15.46764
816.1113, 15.52905
816.5934, 15.69551
817.0755, 15.92725
817.5576, 16.09022
818.0397, 16.03570
818.5219, 15.98017
819.0040, 16.02551
819.4861, 16.15792
819.9682, 16.33171
820.4503, 16.58276
820.9324, 16.80200
821.4146, 16.94839
821.8967, 17.05862
822.3788, 17.22811
822.8609, 17.45217
823.3430, 17.67944
823.8251, 17.89235
824.3073, 18.09721
824.7894, 18.30206
825.2715, 18.50572
825.7536, 18.71517
826.2357, 18.84725
826.7178, 19.08041
827.2000, 19.54968
827.6821, 20.13225
828.1642, 20.58112
828.6463, 20.84834
829.1284, 21.15919
829.6105, 21.54247
830.0927, 22.03253
830.5748, 22.79557
831.0569, 23.73946
831.5390, 24.54473
832.0211, 25.03153
832.5032, 25.48363
832.9854, 26.04568
833.4675, 26.71762
833.9496, 27.48861
834.4317, 28.37074
834.9138, 29.33628
835.3959, 30.36352
835.8781, 31.47993
836.3602, 32.75738
836.8423, 34.18079
837.3244, 35.70363
837.8065, 37.33550
838.2886, 38.99038
838.7708, 40.53112
839.2529, 42.05265
839.7350, 43.71808
840.2171, 45.58379
840.6992, 47.58108
841.1813, 49.66948
841.6635, 51.90295
842.1456, 54.37445
842.6277, 57.16474
843.1098, 59.90220
843.5919, 62.55703
844.0740, 65.19482
844.5562, 68.01865
845.0383, 70.86835
845.5204, 73.13866
846.0025, 74.66694
846.4846, 76.13283
846.9667, 78.19870
847.4489, 80.34090
847.9310, 82.04244
848.4131, 83.13587
848.8952, 84.04747
849.3773, 84.79874
849.8594, 85.38057
850.3416, 85.72732
850.8237, 85.84682
851.3058, 86.11550
851.7879, 86.56287
852.2700, 86.91654
852.7521, 86.88042
853.2343, 86.66947
853.7164, 86.62351
854.1985, 86.79179
854.6806, 86.60410
855.1627, 85.73742
855.6448, 84.57189
856.1270, 83.36959
856.6091, 82.13625
857.0912, 80.26768
857.5733, 77.68730
858.0554, 74.99110
858.5375, 72.53725
859.0197, 70.24480
859.5018, 67.95083
859.9839, 65.65358
860.4660, 63.29125
860.9481, 60.64909
861.4302, 58.10735
861.9124, 55.86832
862.3945, 53.94447
862.8766, 52.03857
863.3587, 50.18703
863.8408, 48.32839
864.3229, 46.35772
864.8051, 44.44200
865.2872, 43.31955
865.7693, 42.84258
866.2514, 42.19483
866.7335, 40.72867
867.2156, 39.18828
867.6978, 38.14974
868.1799, 37.49086
868.6620, 36.91781
869.1441, 36.52244
869.6262, 35.99702
870.1083, 35.17073
870.5905, 34.28580
871.0726, 33.90279
871.5547, 34.00160
872.0368, 34.00616
872.5189, 33.77423
873.0010, 33.39969
873.4832, 32.89521
873.9653, 32.34371
874.4474, 31.87551
874.9295, 31.46062
875.4116, 31.24093
875.8937, 31.45577
876.3759, 31.74440
876.8580, 31.74682
877.3401, 31.39677
877.8222, 31.13333
878.3043, 30.99284
878.7864, 30.90847
879.2686, 30.79815
879.7507, 30.69437
880.2328, 30.66301
880.7149, 30.71814
881.1970, 30.79776
881.6791, 30.86163
882.1613, 30.94762
882.6434, 31.08696
883.1255, 31.28433
883.6076, 31.50377
884.0897, 31.76315
884.5718, 31.98842
885.0540, 32.04308
885.5361, 32.03364
886.0182, 32.33674
886.5003, 32.92268
886.9824, 33.52542
887.4645, 34.02686
887.9467, 34.45564
888.4288, 34.74701
888.9109, 34.93569
889.3930, 35.36697
889.8751, 36.09583
890.3572, 36.96725
890.8394, 37.99509
891.3215, 39.07357
891.8036, 39.82794
892.2857, 40.31670
892.7678, 40.89223
893.2499, 41.68217
893.7321, 42.63816
894.2142, 43.87954
894.6963, 45.24473
895.1784, 46.40176
895.6605, 47.05654
896.1426, 47.85347
896.6248, 48.83366
897.1069, 50.00857
897.5890, 51.47686
898.0711, 53.21253
898.5532, 54.80946
899.0353, 56.18005
899.5175, 57.54237
899.9996, 59.08876
900.4817, 60.78164
900.9638, 62.53764
901.4459, 64.30154
901.9280, 66.33727
902.4102, 68.80802
902.8923, 71.40539
903.3744, 73.93591
903.8565, 76.41886
904.3386, 78.83889
904.8207, 81.16380
905.3029, 83.53315
905.7850, 85.94753
906.2671, 88.48379
906.7492, 91.26521
907.2313, 94.28210
907.7134, 97.45257
908.1956, 100.7566
908.6777, 104.2157
909.1598, 107.8233
909.6419, 111.5874
910.1240, 115.5626
910.6061, 119.7341
911.0883, 124.0370
911.5704, 128.3366
912.0525, 132.8279
912.5346, 137.8786
913.0167, 143.3609
913.4988, 148.9970
913.9810, 154.4460
914.4631, 160.3652
914.9452, 167.0374
915.4273, 174.1364
915.9094, 181.2072
916.3915, 188.1633
916.8737, 195.5234
917.3558, 203.4025
917.8379, 211.4848
918.3200, 219.6586
918.8021, 227.7033
919.2842, 235.3025
919.7664, 242.2799
920.2485, 249.0162
920.7306, 255.8695
921.2127, 262.2932
921.6948, 267.9463
922.1769, 272.8592
922.6591, 277.0251
923.1412, 280.4975
923.6233, 282.7469
924.1054, 283.4551
924.5875, 282.7235
925.0696, 280.4716
925.5518, 276.8412
926.0339, 272.5323
926.5160, 267.9041
926.9981, 262.5446
927.4802, 256.2066
927.9623, 249.1743
928.4445, 242.1069
928.9266, 234.9616
929.4087, 228.0258
929.8908, 221.3701
930.3729, 214.8127
930.8550, 207.8784
931.3372, 200.8614
931.8193, 194.4243
932.3014, 188.6163
932.7835, 183.5574
933.2656, 179.7666
933.7477, 176.3165
934.2299, 172.4184
934.7120, 168.1033
935.1941, 163.0374
935.6762, 157.1464
936.1583, 151.1801
936.6404, 146.0295
937.1226, 141.1890
937.6047, 136.1383
938.0868, 130.8212
938.5689, 125.2238
939.0510, 119.0102
939.5331, 112.8722
940.0153, 106.9293
940.4974, 101.2464
940.9795, 96.19572
941.4616, 91.74374
941.9437, 87.48648
942.4258, 83.29514
942.9080, 79.19580
943.3901, 75.10368
943.8722, 71.21287
944.3543, 67.93815
944.8364, 65.87468
945.3185, 63.85146
945.8007, 61.74972
946.2828, 59.57862
946.7649, 57.23672
947.2470, 54.73545
947.7291, 52.54141
948.2112, 50.73483
948.6934, 49.10364
949.1755, 47.43290
949.6576, 45.81610
950.1397, 44.30519
950.6218, 42.89214
951.1039, 41.71419
951.5861, 40.94681
952.0682, 40.16765
952.5503, 39.13427
953.0324, 37.90174
953.5145, 36.87518
953.9966, 36.04116
954.4788, 35.18771
954.9609, 33.99543
955.4430, 32.90495
955.9251, 32.43604
956.4072, 32.34344
956.8893, 31.94797
957.3715, 30.78021
957.8536, 29.99235
958.3357, 29.88086
958.8178, 29.99337
959.2999, 29.57721
959.7820, 28.74147
960.2642, 27.97338
960.7463, 27.34699
961.2284, 26.86215
961.7105, 26.59656
962.1926, 26.41236
962.6747, 26.20152
963.1569, 25.96478
963.6390, 25.61371
964.1211, 25.09948
964.6032, 24.59408
965.0853, 24.15407
965.5674, 23.82237
966.0496, 23.87452
966.5317, 24.20992
967.0138, 24.34743
967.4959, 23.87773
967.9780, 23.30988
968.4601, 22.87275
968.9423, 22.51868
969.4244, 22.12379
969.9065, 21.63656
970.3886, 21.33686
970.8707, 21.30861
971.3528, 21.36525
971.8350, 21.22314
972.3171, 20.99417
972.7992, 20.91083
973.2813, 21.06873
973.7634, 21.12195
974.2455, 20.80181
974.7277, 20.46160
975.2098, 20.32606
975.6919, 20.39819
976.1740, 20.44571
976.6561, 20.46964
977.1382, 20.44518
977.6204, 20.26654
978.1025, 20.09540
978.5846, 20.23165
979.0667, 20.54415
979.5488, 20.64489
980.0309, 20.10858
980.5131, 19.75593
980.9952, 19.74648
981.4773, 19.94547
981.9594, 20.22920
982.4415, 20.55967
982.9236, 20.57287
983.4058, 20.16153
983.8879, 19.70098
984.3700, 19.47234
984.8521, 19.36840
985.3342, 19.28341
985.8163, 19.19097
986.2985, 19.22770
986.7806, 19.45301
987.2627, 19.67609
987.7448, 19.82960
988.2269, 19.89523
988.7090, 19.72535
989.1912, 19.39226
989.6733, 19.19755
990.1554, 19.45543
990.6375, 19.71034
991.1196, 19.67511
991.6017, 19.52198
992.0839, 19.54358
992.5660, 19.76223
993.0481, 20.07736
993.5302, 20.50167
994.0123, 20.92809
994.4944, 21.18107
994.9766, 21.38036
995.4587, 21.71965
995.9408, 22.22745
996.4229, 22.75349
996.9050, 23.29651
997.3871, 23.79569
997.8693, 24.22775
998.3514, 24.59352
998.8335, 24.78556
999.3156, 24.82512
999.7977, 25.12822
1000.280, 26.02945
1000.762, 27.06081
1001.244, 27.77903
1001.726, 28.33020
1002.208, 28.96635
1002.690, 29.80619
1003.173, 30.62364
1003.655, 31.44144
1004.137, 32.16726
1004.619, 32.59558
1005.101, 32.84946
1005.583, 33.38099
1006.065, 34.20987
1006.547, 34.99048
1007.029, 35.67051
1007.512, 36.10809
1007.994, 36.12700
1008.476, 35.81786
1008.958, 35.53272
1009.440, 35.28638
1009.922, 34.98481
1010.404, 34.63669
1010.886, 34.14325
1011.369, 33.26818
1011.851, 32.17430
1012.333, 31.13763
1012.815, 30.24894
1013.297, 29.34377
1013.779, 28.41425
1014.261, 27.42413
1014.743, 26.28826
1015.225, 25.01768
1015.708, 24.01466
1016.190, 23.27200
1016.672, 22.67076
1017.154, 22.28246
1017.636, 21.87700
1018.118, 21.21839
1018.600, 20.40781
1019.082, 19.77527
1019.565, 19.39054
1020.047, 19.03464
1020.529, 18.65837
1021.011, 18.33362
1021.493, 18.24142
1021.975, 18.25023
1022.457, 18.06305
1022.939, 17.61071
1023.421, 17.13989
1023.904, 16.57776
1024.386, 16.22114
1024.868, 16.29993
1025.350, 16.73867
1025.832, 16.80468
1026.314, 16.50184
1026.796, 16.14364
1027.278, 15.84391
1027.760, 15.59438
1028.243, 15.38156
1028.725, 15.21328
1029.207, 15.10806
1029.689, 15.18774
1030.171, 15.10327
1030.653, 14.76613
1031.135, 14.44058
1031.617, 14.46374
1032.100, 14.69646
1032.582, 14.69293
1033.064, 14.45212
1033.546, 14.25734
1034.028, 14.33422
1034.510, 14.41405
1034.992, 14.36518
1035.474, 14.22253
1035.957, 14.05840
1036.439, 13.86305
1036.921, 13.78979
1037.403, 13.89218
1037.885, 14.06426
1038.367, 14.30340
1038.849, 14.48237
1039.331, 14.39502
1039.813, 13.90389
1040.296, 13.59280
1040.778, 13.56803
1041.260, 13.57399
1041.742, 13.45411
1042.224, 13.26375
1042.706, 13.19507
1043.188, 13.22948
1043.670, 13.29223
1044.152, 13.36373
1044.635, 13.43695
1045.117, 13.58736
1045.599, 13.69101
1046.081, 13.55266
1046.563, 13.12184
1047.045, 12.84882
1047.527, 12.76853
1048.009, 12.76608
1048.492, 12.82928
1048.974, 12.85653
1049.456, 12.65943
1049.938, 12.26606
1050.420, 12.11803
1050.902, 12.40749
1051.384, 12.62802
1051.866, 12.63588
1052.349, 12.54172
1052.831, 12.55073
1053.313, 12.63212
1053.795, 12.70710
1054.277, 12.76195
1054.759, 12.78414
1055.241, 12.73486
1055.723, 12.67934
1056.205, 12.66365
1056.688, 12.68624
1057.170, 12.69238
1057.652, 12.68194
1058.134, 12.64244
1058.616, 12.51822
1059.098, 12.41555
1059.580, 12.47134
1060.062, 12.61062
1060.544, 12.69375
1061.027, 12.71049
1061.509, 12.63315
1061.991, 12.42081
1062.473, 12.22851
1062.955, 12.25175
1063.437, 12.39227
1063.919, 12.42484
1064.401, 12.35128
1064.884, 12.30390
1065.366, 12.39130
1065.848, 12.45393
1066.330, 12.45111
1066.812, 12.38845
1067.294, 12.24472
1067.776, 12.03441
1068.258, 11.89636
1068.740, 11.86106
1069.223, 11.89774
1069.705, 12.04473
1070.187, 12.20705
1070.669, 12.32454
1071.151, 12.39647
1071.633, 12.29835
1072.115, 11.98369
1072.597, 11.72228
1073.079, 11.64014
1073.562, 11.66706
1074.044, 11.72930
1074.526, 11.81338
1075.008, 11.89542
1075.490, 11.96051
1075.972, 12.04588
1076.454, 12.20776
1076.936, 12.30412
1077.419, 12.14984
1077.901, 11.82694
1078.383, 11.74984
1078.865, 11.88909
1079.347, 12.01093
1079.829, 11.94095
1080.311, 11.87394
1080.793, 11.92646
1081.275, 12.02426
1081.758, 12.05858
1082.240, 12.02911
1082.722, 11.91098
1083.204, 11.68506
1083.686, 11.52199
1084.168, 11.65324
1084.650, 11.85426
1085.132, 11.90994
1085.615, 11.80917
1086.097, 11.73915
1086.579, 11.71626
1087.061, 11.68938
1087.543, 11.63922
1088.025, 11.58971
1088.507, 11.58018
1088.989, 11.59974
1089.471, 11.62756
1089.953, 11.65524
1090.436, 11.70777
1090.918, 11.81890
1091.400, 11.91859
1091.882, 11.98339
1092.364, 12.00566
1092.846, 11.92806
1093.328, 11.76929
1093.810, 11.61254
1094.293, 11.42356
1094.775, 11.34462
1095.257, 11.54035
1095.739, 11.81738
1096.221, 11.98684
1096.703, 12.05172
1097.185, 11.90240
1097.667, 11.52659
1098.150, 11.28998
1098.632, 11.66835
1099.114, 12.12658
1099.596, 12.15219
1100.078, 11.87459
1100.560, 11.75725
1101.042, 11.88519
1101.524, 11.99542
1102.006, 12.05200
1102.489, 12.09550
1102.971, 12.22445
1103.453, 12.34784
1103.935, 12.30763
1104.417, 12.09353
1104.899, 11.85790
1105.381, 11.49683
1105.863, 11.34381
1106.345, 11.54756
1106.828, 11.93524
1107.310, 12.17147
1107.792, 12.27812
1108.274, 12.30450
1108.756, 12.25096
1109.238, 12.17413
1109.720, 12.07930
1110.202, 11.99136
1110.685, 11.92546
1111.167, 11.87914
1111.649, 11.82080
1112.131, 11.75794
1112.613, 11.77835
1113.095, 12.00253
1113.577, 12.17636
1114.059, 12.05759
1114.542, 11.81927
1115.024, 11.66334
1115.506, 11.60305
1115.988, 11.57459
1116.470, 11.57518
1116.952, 11.63537
1117.434, 11.90191
1117.916, 12.13630
1118.398, 11.94756
1118.880, 11.53499
1119.363, 11.40476
1119.845, 11.82206
1120.327, 12.08768
1120.809, 12.13430
1121.291, 12.09188
1121.773, 12.07057
1122.255, 12.05768
1122.737, 12.03687
1123.220, 12.00497
1123.702, 11.95019
1124.184, 11.82888
1124.666, 11.73975
1125.148, 11.70317
1125.630, 11.70207
1126.112, 11.69744
1126.594, 11.70633
1127.077, 11.81497
1127.559, 12.04181
1128.041, 12.18557
1128.523, 12.01970
1129.005, 11.89670
1129.487, 12.00001
1129.969, 12.24214
1130.451, 12.36303
1130.933, 12.37111
1131.416, 12.31561
1131.898, 12.18733
1132.380, 12.08855
1132.862, 12.08273
1133.344, 12.14040
1133.826, 12.26100
1134.308, 12.43500
1134.790, 12.52320
1135.272, 12.52441
1135.755, 12.48467
1136.237, 12.39350
1136.719, 12.32205
1137.201, 12.37077
1137.683, 12.46262
1138.165, 12.49205
1138.647, 12.43297
1139.129, 12.39731
1139.612, 12.38369
1140.094, 12.40279
1140.576, 12.46191
1141.058, 12.55680
1141.540, 12.73928
1142.022, 12.94324
1142.504, 13.02217
1142.986, 12.80275
1143.469, 12.75374
1143.951, 12.92483
1144.433, 13.14741
1144.915, 13.29302
1145.397, 13.38336
1145.879, 13.45363
1146.361, 13.50529
1146.843, 13.53823
1147.325, 13.42137
1147.807, 13.49796
1148.290, 13.86846
1148.772, 14.33255
1149.254, 14.65637
1149.736, 14.87953
1150.218, 15.10406
1150.700, 15.34120
1151.182, 15.59599
1151.664, 15.86714
1152.147, 16.16132
1152.629, 16.46809
1153.111, 16.80869
1153.593, 17.25322
1154.075, 17.76276
1154.557, 18.15978
1155.039, 18.40654
1155.521, 18.74554
1156.004, 19.31825
1156.486, 20.02111
1156.968, 20.86021
1157.450, 21.74947
1157.932, 22.40198
1158.414, 22.85620
1158.896, 23.41615
1159.378, 24.19740
1159.860, 24.88864
1160.343, 25.19658
1160.825, 25.41446
1161.307, 25.77529
1161.789, 26.24890
1162.271, 26.60093
1162.753, 26.83062
1163.235, 26.93276
1163.717, 26.94267
1164.199, 26.72732
1164.682, 26.01838
1165.164, 25.14528
1165.646, 24.46591
1166.128, 24.00793
1166.610, 23.29756
1167.092, 22.32916
1167.574, 21.41119
1168.056, 20.71841
1168.539, 20.12214
1169.021, 19.56454
1169.503, 18.99729
1169.985, 18.32577
1170.467, 17.49779
1170.949, 16.82559
1171.431, 16.32123
1171.913, 15.91193
1172.396, 15.61612
1172.878, 15.34218
1173.360, 14.93608
1173.842, 14.49462
1174.324, 14.20827
1174.806, 14.13483
1175.288, 14.11104
1175.770, 14.15545
1176.252, 14.13356
1176.734, 13.86205
1177.217, 13.52120
1177.699, 13.37076
1178.181, 13.33792
1178.663, 13.19137
1179.145, 12.78342
1179.627, 12.56385
1180.109, 12.59830
1180.591, 12.68834
1181.074, 12.64347
1181.556, 12.53760
1182.038, 12.47873
1182.520, 12.45645
1183.002, 12.39043
1183.484, 12.20074
1183.966, 12.12974
1184.448, 12.24730
1184.931, 12.36663
1185.413, 12.23192
1185.895, 11.97890
1186.377, 11.83627
1186.859, 11.80266
1187.341, 11.72424
1187.823, 11.51338
1188.305, 11.37515
1188.787, 11.35770
1189.270, 11.40303
1189.752, 11.42864
1190.234, 11.46245
1190.716, 11.58221
1191.198, 11.78995
1191.680, 11.91036
1192.162, 11.85688
1192.644, 11.81105
1193.126, 11.81835
1193.609, 11.84731
1194.091, 11.88258
1194.573, 11.88978
1195.055, 11.75878
1195.537, 11.46144
1196.019, 11.32252
1196.501, 11.53914
1196.983, 11.67923
1197.466, 11.57626
1197.948, 11.39260
1198.430, 11.44665
1198.912, 11.63714
1199.394, 11.78427
1199.876, 11.86301
1200.358, 11.79562
1200.840, 11.42008
1201.323, 11.17015
1201.805, 11.23361
1202.287, 11.47157
1202.769, 11.63094
1203.251, 11.73735
1203.733, 11.85312
1204.215, 12.01373
1204.697, 12.07935
1205.179, 11.96880
1205.661, 11.88778
1206.144, 11.96418
1206.626, 12.08510
1207.108, 11.91106
1207.590, 11.59803
1208.072, 11.51904
1208.554, 11.89766
1209.036, 12.08401
1209.518, 11.93664
1210.001, 11.68044
1210.483, 11.33761
1210.965, 11.04523
1211.447, 11.26726
1211.929, 11.78128
1212.411, 12.10540
1212.893, 12.05680
1213.375, 11.90065
1213.858, 11.57469
1214.340, 11.36973
1214.822, 11.54798
1215.304, 11.88349
1215.786, 11.77265
1216.268, 11.39657
1216.750, 11.16043
1217.232, 11.22191
1217.714, 11.37369
1218.197, 11.65839
1218.679, 11.88286
1219.161, 11.88402
1219.643, 11.76957
1220.125, 11.75964
1220.607, 11.82287
1221.089, 11.88511
1221.571, 11.89503
1222.053, 11.97715
1222.536, 12.18842
1223.018, 12.33856
1223.500, 12.27924
1223.982, 12.08783
1224.464, 11.86577
1224.946, 11.64078
1225.428, 11.47509
1225.910, 11.34890
1226.393, 11.39380
1226.875, 11.69000
1227.357, 11.91444
1227.839, 11.70738
1228.321, 11.35448
1228.803, 11.35830
1229.285, 11.58967
1229.767, 11.75207
1230.250, 11.76231
1230.732, 11.71595
1231.214, 11.59669
1231.696, 11.48657
1232.178, 11.41569
1232.660, 11.41640
1233.142, 11.62100
1233.624, 11.92023
1234.106, 12.04868
1234.589, 11.91636
1235.071, 11.73748
1235.553, 11.49272
1236.035, 11.33382
1236.517, 11.41292
1236.999, 11.61402
1237.481, 11.92042
1237.963, 12.22065
1238.445, 12.23689
1238.928, 11.83430
1239.410, 11.60074
1239.892, 11.56571
1240.374, 11.59257
1240.856, 11.57575
1241.338, 11.57373
1241.820, 11.68274
1242.302, 11.66456
1242.785, 11.86738
1243.267, 11.74302
1243.749, 11.72042
1244.231, 11.81311
1244.713, 11.91855
1245.195, 11.95256
1245.677, 11.98121
1246.159, 12.09825
1246.641, 12.22196
1247.124, 12.18845
1247.606, 11.97443
1248.088, 11.88966
1248.570, 11.94643
1249.052, 12.02441
1249.534, 12.07042
1250.016, 12.08399
1250.498, 12.03843
1250.980, 11.97552
1251.463, 11.94432
1251.945, 11.94512
1252.427, 12.01636
1252.909, 12.14564
1253.391, 12.17570
1253.873, 11.84368
1254.355, 11.59131
1254.837, 11.63137
1255.320, 11.83171
1255.802, 12.12144
1256.284, 12.46246
1256.766, 12.58384
1257.248, 12.49696
1257.730, 12.36934
1258.212, 12.26598
1258.694, 12.15909
1259.177, 12.02859
1259.659, 11.91073
1260.141, 11.81538
1260.623, 11.76823
1261.105, 11.93591
1261.587, 12.25710
1262.069, 12.42871
1262.551, 12.17383
1263.033, 11.97103
1263.516, 11.86863
1263.998, 11.85738
1264.480, 11.99776
1264.962, 12.19108
1265.444, 12.19815
1265.926, 12.06894
1266.408, 12.00573
1266.890, 12.07782
1267.372, 12.21957
1267.855, 12.47728
1268.337, 12.63354
1268.819, 12.37330
1269.301, 11.98904
1269.783, 11.88108
1270.265, 11.98873
1270.747, 12.13492
1271.229, 12.32668
1271.712, 12.45089
1272.194, 12.49810
1272.676, 12.51342
1273.158, 12.48394
1273.640, 12.48401
1274.122, 12.67144
1274.604, 12.56984
1275.086, 12.88456
1275.568, 12.54500
1276.051, 12.40630
1276.533, 12.48307
1277.015, 12.55419
1277.497, 12.42326
1277.979, 12.29660
1278.461, 12.32843
1278.943, 12.42003
1279.425, 12.44296
1279.907, 12.39934
1280.390, 12.39852
1280.872, 12.43979
1281.354, 12.50180
1281.836, 12.66200
1282.318, 12.71942
1282.800, 12.49666
1283.282, 12.26048
1283.764, 12.26645
1284.247, 12.45859
1284.729, 12.56861
1285.211, 12.61110
1285.693, 12.64492
1286.175, 12.67385
1286.657, 12.73558
1287.139, 12.86729
1287.621, 12.96038
1288.104, 12.89008
1288.586, 12.74600
1289.068, 12.70573
1289.550, 12.74658
1290.032, 12.81820
1290.514, 12.97318
1290.996, 13.01151
1291.478, 12.90375
1291.960, 12.80359
1292.443, 12.85950
1292.925, 12.92188
1293.407, 12.74425
1293.889, 12.47123
1294.371, 12.34349
1294.853, 12.37873
1295.335, 12.52902
1295.817, 12.79902
1296.299, 13.02133
1296.782, 13.07466
1297.264, 13.10653
1297.746, 13.29279
1298.228, 13.45995
1298.710, 13.42314
1299.192, 13.19854
1299.674, 13.05336
1300.156, 12.97592
1300.639, 12.87188
1301.121, 12.64850
1301.603, 12.51984
1302.085, 12.66670
1302.567, 12.86080
1303.049, 13.00201
1303.531, 13.08708
##END=



