##NAMES=Topaz
##RRUFFID=R050404
##IDEAL CHEMISTRY=Al_2_SiO_4_F_2_
##LOCALITY=Minas Gerais, Brazil
##OWNER=RRUFF
##SOURCE=Gerry Gibbs
##DESCRIPTION=Colorless cleavage fragments
##STATUS=The identification of this mineral has been confirmed by X-ray diffraction and chemical analysis
##URL=rruff.info/R050404
##MEASURED CHEMISTRY=Al_2.00_Si_1.00_O_4_(F_0.86_(OH)_0.14_)_2_
93.78320, 95.85629
94.26532, 98.41032
94.74744, 100.1253
95.22955, 100.7269
95.71167, 98.39627
96.19379, 88.36613
96.67590, 67.27427
97.15802, 51.06106
97.64014, 43.43275
98.12225, 41.63749
98.60437, 41.31215
99.08649, 41.53701
99.56860, 41.83070
100.0507, 41.50716
100.5328, 40.48606
101.0150, 39.11219
101.4971, 37.44568
101.9792, 35.44443
102.4613, 33.79921
102.9434, 32.91024
103.4255, 32.41177
103.9077, 32.13782
104.3898, 32.07784
104.8719, 32.10352
105.3540, 31.95756
105.8361, 31.57982
106.3182, 31.10762
106.8004, 30.49982
107.2825, 29.84922
107.7646, 29.27680
108.2467, 28.86885
108.7288, 28.60147
109.2109, 28.15711
109.6931, 27.29984
110.1752, 26.49847
110.6573, 25.86101
111.1394, 25.38247
111.6215, 25.02182
112.1036, 24.76392
112.5858, 24.62984
113.0679, 24.39332
113.5500, 23.86559
114.0321, 23.37265
114.5142, 23.19369
114.9964, 23.37201
115.4785, 23.66209
115.9606, 23.80058
116.4427, 23.79800
116.9248, 23.73068
117.4069, 23.57554
117.8891, 23.36933
118.3712, 23.18560
118.8533, 23.04179
119.3354, 22.92126
119.8175, 22.81562
120.2996, 22.72224
120.7818, 22.61419
121.2639, 22.41722
121.7460, 22.12224
122.2281, 21.98975
122.7102, 22.31840
123.1923, 22.65952
123.6745, 22.76034
124.1566, 22.58247
124.6387, 22.28114
125.1208, 22.07551
125.6029, 22.01079
126.0850, 21.95385
126.5672, 21.95898
127.0493, 21.93227
127.5314, 21.76477
128.0135, 21.41701
128.4956, 20.97755
128.9777, 20.68929
129.4599, 20.67896
129.9420, 20.69780
130.4241, 20.75410
130.9062, 20.82541
131.3883, 20.87737
131.8705, 20.88781
132.3526, 20.86875
132.8347, 20.88900
133.3168, 21.06455
133.7989, 21.15944
134.2810, 21.02483
134.7632, 20.69692
135.2453, 20.35962
135.7274, 20.08967
136.2095, 19.91938
136.6916, 19.89584
137.1737, 20.12502
137.6559, 20.43992
138.1380, 20.70553
138.6201, 20.93624
139.1022, 21.04671
139.5843, 20.89579
140.0664, 20.60140
140.5486, 20.31995
141.0307, 20.12269
141.5128, 19.98190
141.9949, 19.81225
142.4770, 19.56745
142.9591, 19.36594
143.4413, 19.20759
143.9234, 19.12109
144.4055, 19.17694
144.8876, 19.51347
145.3697, 20.13481
145.8518, 20.35630
146.3340, 19.60485
146.8161, 18.93494
147.2982, 18.66913
147.7803, 18.77916
148.2624, 19.07556
148.7445, 19.39828
149.2267, 19.78769
149.7088, 20.00626
150.1909, 19.80508
150.6730, 19.66509
151.1551, 19.85875
151.6372, 20.41997
152.1194, 21.18402
152.6015, 21.91273
153.0836, 22.39878
153.5657, 23.59167
154.0478, 25.81968
154.5299, 28.59521
155.0121, 31.79870
155.4942, 35.48061
155.9763, 38.71383
156.4584, 39.96868
156.9405, 39.39361
157.4227, 37.51002
157.9048, 33.44781
158.3869, 28.20425
158.8690, 23.86661
159.3511, 20.99042
159.8332, 19.22860
160.3154, 18.11008
160.7975, 17.62622
161.2796, 17.40909
161.7617, 17.32089
162.2438, 17.34895
162.7259, 17.32715
163.2081, 17.12154
163.6902, 16.93439
164.1723, 16.98052
164.6544, 17.27646
165.1365, 17.54394
165.6186, 17.40112
166.1008, 16.70624
166.5829, 16.24847
167.0650, 16.38906
167.5471, 16.65318
168.0292, 16.74476
168.5113, 16.59205
168.9935, 16.34706
169.4756, 16.26911
169.9577, 16.46576
170.4398, 16.63257
170.9219, 16.82160
171.4040, 16.93802
171.8862, 16.84849
172.3683, 16.51407
172.8504, 16.07524
173.3325, 15.86734
173.8146, 16.26160
174.2967, 16.45471
174.7789, 16.23962
175.2610, 15.87333
175.7431, 15.67098
176.2252, 15.77837
176.7073, 16.09476
177.1894, 16.28826
177.6716, 16.23679
178.1537, 16.22742
178.6358, 16.39650
179.1179, 16.64212
179.6000, 16.76061
180.0821, 16.63523
180.5643, 16.33492
181.0464, 16.08033
181.5285, 15.87689
182.0106, 15.69681
182.4927, 15.49424
182.9749, 15.29033
183.4570, 15.19026
183.9391, 15.28610
184.4212, 15.49992
184.9033, 15.64375
185.3854, 15.68186
185.8676, 15.70474
186.3497, 15.81517
186.8318, 16.01764
187.3139, 16.14811
187.7960, 16.07921
188.2781, 15.91828
188.7603, 15.76711
189.2424, 15.63054
189.7245, 15.53977
190.2066, 15.56819
190.6887, 15.76714
191.1708, 15.89596
191.6530, 15.78369
192.1351, 15.60452
192.6172, 15.51932
193.0993, 15.59688
193.5814, 15.74553
194.0635, 15.77259
194.5457, 15.60417
195.0278, 15.45787
195.5099, 15.34486
195.9920, 15.28703
196.4741, 15.33298
196.9562, 15.51068
197.4384, 15.75062
197.9205, 15.84417
198.4026, 15.62490
198.8847, 15.48026
199.3668, 15.48795
199.8489, 15.58160
200.3311, 15.69903
200.8132, 15.81061
201.2953, 15.90555
201.7774, 15.93989
202.2595, 15.81979
202.7416, 15.74069
203.2238, 15.74746
203.7059, 15.80133
204.1880, 15.84646
204.6701, 15.85257
205.1522, 15.82995
205.6344, 15.82451
206.1165, 15.81925
206.5986, 15.84745
207.0807, 15.96422
207.5628, 16.11720
208.0449, 16.19135
208.5271, 16.10783
209.0092, 15.92908
209.4913, 15.92073
209.9734, 16.30226
210.4555, 16.55894
210.9376, 16.40361
211.4198, 15.96480
211.9019, 15.57144
212.3840, 15.34488
212.8661, 15.32929
213.3482, 15.61469
213.8303, 16.41037
214.3125, 17.14814
214.7946, 17.48065
215.2767, 17.46218
215.7588, 17.34962
216.2409, 17.13126
216.7230, 16.98824
217.2052, 17.23341
217.6873, 18.04731
218.1694, 18.86890
218.6515, 19.17212
219.1336, 18.98267
219.6157, 18.95641
220.0979, 19.44143
220.5800, 20.16224
221.0621, 20.81998
221.5442, 21.37821
222.0263, 21.89545
222.5084, 22.46568
222.9906, 23.10966
223.4727, 23.60306
223.9548, 23.76501
224.4369, 23.80399
224.9190, 23.81506
225.4011, 23.80908
225.8833, 23.89514
226.3654, 24.25234
226.8475, 24.94919
227.3296, 25.57963
227.8117, 25.87620
228.2938, 26.19661
228.7760, 26.79954
229.2581, 27.73212
229.7402, 28.78460
230.2223, 29.60996
230.7044, 30.01569
231.1866, 30.83485
231.6687, 32.32135
232.1508, 34.08990
232.6329, 35.85286
233.1150, 37.58986
233.5971, 39.54671
234.0793, 41.94161
234.5614, 44.40681
235.0435, 48.36239
235.5256, 54.06018
236.0077, 60.81749
236.4898, 68.42289
236.9720, 76.71348
237.4541, 85.47665
237.9362, 94.41254
238.4183, 103.3402
238.9004, 112.8325
239.3825, 123.6868
239.8647, 134.3596
240.3468, 145.6778
240.8289, 156.8265
241.3110, 164.0690
241.7931, 162.5640
242.2752, 149.5485
242.7574, 134.4424
243.2395, 114.6474
243.7216, 95.04607
244.2037, 78.20497
244.6858, 64.71042
245.1679, 54.21654
245.6501, 46.50773
246.1322, 42.21472
246.6143, 38.87830
247.0964, 36.62001
247.5785, 35.09216
248.0606, 34.15710
248.5428, 33.76334
249.0249, 33.81510
249.5070, 34.28132
249.9891, 35.24927
250.4712, 36.09020
250.9533, 36.96372
251.4355, 37.60332
251.9176, 37.74715
252.3997, 37.42189
252.8818, 36.93071
253.3639, 36.43938
253.8460, 35.97972
254.3282, 35.95359
254.8103, 36.63675
255.2924, 37.52096
255.7745, 38.25142
256.2566, 38.83160
256.7387, 39.46741
257.2209, 40.29891
257.7030, 41.32649
258.1851, 42.42187
258.6672, 43.51118
259.1493, 44.72207
259.6314, 46.09320
260.1136, 47.63676
260.5957, 49.42189
261.0778, 51.39257
261.5599, 53.73954
262.0420, 56.73901
262.5241, 60.10056
263.0063, 64.46169
263.4884, 69.90086
263.9705, 76.52284
264.4526, 85.05122
264.9347, 94.66273
265.4168, 107.6395
265.8990, 126.3207
266.3811, 151.0606
266.8632, 181.1611
267.3453, 218.6796
267.8275, 262.5251
268.3096, 306.7289
268.7917, 358.4559
269.2738, 399.3259
269.7559, 408.4498
270.2380, 382.7762
270.7202, 340.3652
271.2023, 284.6239
271.6844, 218.7681
272.1665, 164.0786
272.6486, 127.2873
273.1307, 103.7986
273.6129, 87.71445
274.0950, 78.85528
274.5771, 73.73717
275.0592, 71.11722
275.5413, 70.64481
276.0234, 70.33110
276.5056, 69.88551
276.9877, 69.56173
277.4698, 69.34911
277.9519, 69.32064
278.4340, 69.83723
278.9161, 70.94460
279.3983, 72.72735
279.8804, 75.51830
280.3625, 79.02631
280.8446, 84.20763
281.3267, 91.00193
281.8088, 99.53730
282.2910, 110.2493
282.7731, 122.8773
283.2552, 137.8542
283.7373, 156.7525
284.2194, 180.2573
284.7015, 206.7384
285.1837, 237.9964
285.6658, 271.0185
286.1479, 302.4280
286.6300, 333.2297
287.1121, 358.8026
287.5942, 368.0540
288.0764, 358.3913
288.5585, 337.4188
289.0406, 301.9869
289.5227, 260.3161
290.0048, 220.1804
290.4869, 183.4144
290.9691, 150.9732
291.4512, 124.4728
291.9333, 104.6566
292.4154, 88.71258
292.8975, 77.34615
293.3796, 68.60878
293.8618, 61.52968
294.3439, 55.84847
294.8260, 51.28975
295.3081, 47.65263
295.7902, 45.08178
296.2723, 42.76922
296.7545, 40.54048
297.2366, 38.58923
297.7187, 37.14169
298.2008, 36.17723
298.6829, 35.39490
299.1650, 34.48574
299.6472, 33.41786
300.1293, 32.50389
300.6114, 31.90570
301.0935, 31.35036
301.5756, 30.65745
302.0577, 29.88707
302.5399, 29.25372
303.0220, 29.03087
303.5041, 29.18816
303.9862, 28.98949
304.4683, 27.99361
304.9504, 27.14621
305.4326, 26.83174
305.9147, 26.89913
306.3968, 27.06535
306.8789, 27.18967
307.3610, 27.26330
307.8431, 27.23874
308.3253, 27.06294
308.8074, 26.86559
309.2895, 26.59128
309.7716, 26.34921
310.2537, 26.25493
310.7358, 26.35118
311.2180, 26.65119
311.7001, 27.22108
312.1822, 28.22301
312.6643, 29.14957
313.1464, 29.85781
313.6285, 30.49078
314.1107, 31.16418
314.5928, 31.90913
315.0749, 32.68204
315.5570, 33.44704
316.0392, 34.24725
316.5213, 34.87461
317.0034, 35.18428
317.4855, 35.41457
317.9676, 35.64053
318.4497, 35.89399
318.9319, 36.22544
319.4140, 36.67422
319.8961, 37.23643
320.3782, 37.94424
320.8603, 38.90412
321.3424, 39.92086
321.8246, 40.80478
322.3067, 41.67354
322.7888, 42.84606
323.2709, 44.64253
323.7530, 46.95439
324.2351, 48.87559
324.7173, 49.92830
325.1994, 51.27398
325.6815, 53.06215
326.1636, 55.38456
326.6457, 58.30894
327.1278, 61.80498
327.6100, 66.05057
328.0921, 71.44821
328.5742, 77.86290
329.0563, 85.90359
329.5384, 95.33158
330.0205, 106.4086
330.5027, 119.8256
330.9848, 135.8191
331.4669, 152.8978
331.9490, 170.0688
332.4311, 188.4863
332.9132, 201.8750
333.3954, 210.0568
333.8775, 212.1019
334.3596, 205.7603
334.8417, 191.5614
335.3238, 173.2074
335.8059, 152.5901
336.2881, 129.5907
336.7702, 109.6471
337.2523, 93.31696
337.7344, 79.97666
338.2165, 69.64406
338.6986, 61.84571
339.1808, 55.48784
339.6629, 50.03474
340.1450, 45.49257
340.6271, 41.93175
341.1092, 39.71992
341.5913, 37.83648
342.0735, 35.83588
342.5556, 33.90736
343.0377, 32.31992
343.5198, 31.22154
344.0019, 30.35319
344.4840, 29.24505
344.9662, 27.76824
345.4483, 26.58573
345.9304, 26.10538
346.4125, 25.88647
346.8946, 25.68436
347.3767, 25.45545
347.8589, 25.20136
348.3410, 24.89935
348.8231, 24.55101
349.3052, 24.27703
349.7873, 24.16486
350.2694, 24.04901
350.7516, 23.75555
351.2337, 23.33867
351.7158, 23.03495
352.1979, 23.07032
352.6800, 23.33279
353.1621, 23.43590
353.6443, 23.30512
354.1264, 23.17158
354.6085, 23.06361
355.0906, 23.05747
355.5727, 23.32414
356.0548, 24.03555
356.5370, 24.90400
357.0191, 25.47356
357.5012, 25.69526
357.9833, 26.13700
358.4654, 27.26187
358.9475, 28.59533
359.4297, 29.65145
359.9118, 30.43352
360.3939, 30.74061
360.8760, 30.31654
361.3581, 29.24999
361.8402, 27.92981
362.3224, 26.30968
362.8045, 24.67963
363.2866, 23.31256
363.7687, 22.19229
364.2508, 21.24829
364.7329, 20.45106
365.2151, 19.80950
365.6972, 19.36667
366.1793, 19.14471
366.6614, 18.99472
367.1436, 18.77038
367.6257, 18.53188
368.1078, 18.46813
368.5899, 18.79174
369.0720, 19.14230
369.5541, 19.16038
370.0363, 18.90177
370.5184, 18.76139
371.0005, 18.99950
371.4826, 19.39791
371.9647, 19.44173
372.4468, 18.99031
372.9290, 18.58568
373.4111, 18.41610
373.8932, 18.43854
374.3753, 18.65206
374.8574, 19.09209
375.3395, 19.49187
375.8217, 19.42480
376.3038, 18.80870
376.7859, 18.48670
377.2680, 18.71831
377.7501, 19.15293
378.2322, 19.56059
378.7144, 19.90341
379.1965, 20.11998
379.6786, 20.12309
380.1607, 19.94721
380.6428, 19.98425
381.1249, 20.41052
381.6071, 20.82070
382.0892, 21.01958
382.5713, 21.10895
383.0534, 21.28109
383.5355, 21.61963
384.0176, 22.08477
384.4998, 22.60274
384.9819, 23.30358
385.4640, 23.83645
385.9461, 23.94947
386.4282, 24.04199
386.9103, 24.55531
387.3925, 25.49549
387.8746, 26.43562
388.3567, 26.88235
388.8388, 26.73352
389.3209, 26.83137
389.8030, 27.26511
390.2852, 27.81051
390.7673, 28.37481
391.2494, 28.98661
391.7315, 29.71831
392.2136, 30.61202
392.6957, 31.65247
393.1779, 32.76925
393.6600, 34.00881
394.1421, 35.26707
394.6242, 36.33366
395.1063, 37.53141
395.5884, 39.18129
396.0706, 41.35057
396.5527, 43.78357
397.0348, 46.07613
397.5169, 48.00393
397.9990, 50.64160
398.4811, 54.59743
398.9633, 58.70914
399.4454, 62.30242
399.9275, 65.65493
400.4096, 69.61300
400.8917, 74.86160
401.3738, 81.08826
401.8560, 87.00742
402.3381, 92.72622
402.8202, 97.87737
403.3023, 103.2470
403.7844, 107.6933
404.2665, 110.0430
404.7487, 109.9456
405.2308, 107.8084
405.7129, 103.8934
406.1950, 98.13005
406.6771, 91.44128
407.1592, 83.25717
407.6414, 74.94463
408.1235, 67.30269
408.6056, 60.35972
409.0877, 54.09119
409.5698, 48.48329
410.0519, 43.56912
410.5341, 39.48020
411.0162, 36.34661
411.4983, 33.60921
411.9804, 31.00007
412.4625, 28.57403
412.9446, 26.46823
413.4268, 24.71871
413.9089, 23.27102
414.3910, 22.14187
414.8731, 21.30334
415.3553, 20.64825
415.8374, 20.19799
416.3195, 19.82623
416.8016, 19.32950
417.2837, 18.69971
417.7658, 18.12352
418.2480, 17.66333
418.7301, 17.27591
419.2122, 16.92013
419.6943, 16.58959
420.1764, 16.26472
420.6585, 15.92140
421.1407, 15.56835
421.6228, 15.29517
422.1049, 15.06135
422.5870, 14.93731
423.0691, 15.08099
423.5512, 15.33250
424.0334, 15.36460
424.5155, 15.03772
424.9976, 14.56416
425.4797, 14.35161
425.9618, 14.62864
426.4439, 14.71223
426.9261, 14.42685
427.4082, 14.09155
427.8903, 13.93463
428.3724, 13.95553
428.8545, 14.00995
429.3366, 13.96928
429.8188, 13.84359
430.3009, 13.85566
430.7830, 14.21428
431.2651, 14.48453
431.7472, 14.52674
432.2293, 14.47092
432.7115, 14.45065
433.1936, 14.51856
433.6757, 14.68619
434.1578, 15.01005
434.6399, 15.56961
435.1220, 15.99967
435.6042, 16.14879
436.0863, 16.26297
436.5684, 16.42223
437.0505, 16.64337
437.5326, 16.93400
438.0147, 17.27540
438.4969, 17.69594
438.9790, 18.31047
439.4611, 19.16287
439.9432, 20.09862
440.4253, 21.10779
440.9074, 22.14868
441.3896, 23.22003
441.8717, 24.35577
442.3538, 25.34765
442.8359, 25.89924
443.3180, 26.09789
443.8001, 26.42844
444.2823, 26.98023
444.7644, 27.69754
445.2465, 28.51610
445.7286, 29.44309
446.2107, 30.55224
446.6928, 32.06776
447.1750, 33.63902
447.6571, 34.67207
448.1392, 35.26367
448.6213, 36.38777
449.1034, 38.62805
449.5855, 41.67656
450.0677, 44.67354
450.5498, 47.44703
451.0319, 50.51188
451.5140, 53.66590
451.9961, 57.32954
452.4782, 61.97784
452.9604, 67.71156
453.4425, 74.37884
453.9246, 81.88361
454.4067, 90.27647
454.8888, 99.04394
455.3709, 108.4577
455.8531, 117.8252
456.3352, 127.4242
456.8173, 136.6782
457.2994, 145.1954
457.7815, 152.7752
458.2636, 158.5198
458.7458, 160.4380
459.2279, 157.3982
459.7100, 152.6356
460.1921, 146.0555
460.6742, 138.2044
461.1563, 128.8922
461.6385, 118.4649
462.1206, 107.8996
462.6027, 97.74894
463.0848, 88.10646
463.5669, 79.46800
464.0491, 72.01357
464.5312, 65.34364
465.0133, 59.35107
465.4954, 54.02795
465.9775, 49.40382
466.4597, 45.47085
466.9418, 42.10894
467.4239, 39.23653
467.9060, 36.83687
468.3881, 34.79327
468.8702, 33.18012
469.3524, 31.73148
469.8345, 30.16184
470.3166, 28.55981
470.7987, 27.25051
471.2808, 26.46812
471.7629, 25.89058
472.2451, 25.29890
472.7272, 24.68417
473.2093, 23.97094
473.6914, 23.07705
474.1735, 22.16127
474.6556, 21.56235
475.1378, 21.36444
475.6199, 21.13737
476.1020, 20.86203
476.5841, 20.50077
477.0662, 19.91125
477.5483, 19.15308
478.0305, 18.54486
478.5126, 18.35452
478.9947, 18.52636
479.4768, 18.57734
479.9589, 18.53171
480.4410, 18.32897
480.9232, 17.75746
481.4053, 17.12963
481.8874, 16.80660
482.3695, 16.85400
482.8516, 17.01715
483.3337, 16.97616
483.8159, 16.69658
484.2980, 16.50699
484.7801, 16.45651
485.2622, 16.44768
485.7443, 16.43313
486.2264, 16.43980
486.7086, 16.53154
487.1907, 16.75609
487.6728, 16.99884
488.1549, 17.08117
488.6370, 16.99299
489.1191, 16.89830
489.6013, 16.79430
490.0834, 16.74171
490.5655, 16.84782
491.0476, 17.07788
491.5297, 17.18859
492.0118, 17.00674
492.4940, 16.69561
492.9761, 16.45410
493.4582, 16.28396
493.9403, 16.12532
494.4224, 15.94310
494.9045, 15.75707
495.3867, 15.63407
495.8688, 15.63151
496.3509, 15.54076
496.8330, 15.22036
497.3151, 14.84073
497.7972, 14.60391
498.2794, 14.52011
498.7615, 14.44270
499.2436, 14.23880
499.7257, 13.92020
500.2078, 13.69032
500.6899, 13.54027
501.1721, 13.49144
501.6542, 13.63838
502.1363, 13.84410
502.6184, 13.96710
503.1005, 13.96948
503.5826, 13.90461
504.0648, 13.83671
504.5469, 13.76907
505.0290, 13.65777
505.5111, 13.38391
505.9932, 13.22040
506.4753, 13.35485
506.9575, 13.64019
507.4396, 13.84600
507.9217, 13.88531
508.4038, 13.82908
508.8859, 13.72808
509.3680, 13.58769
509.8502, 13.51332
510.3323, 13.54791
510.8144, 13.62266
511.2965, 13.68924
511.7786, 13.74393
512.2607, 13.75536
512.7429, 13.59691
513.2250, 13.48600
513.7071, 13.65648
514.1892, 14.05425
514.6713, 14.42172
515.1534, 14.62846
515.6356, 14.79923
516.1177, 15.19298
516.5998, 15.96911
517.0819, 16.62378
517.5640, 16.97204
518.0461, 17.33629
518.5283, 18.03244
519.0104, 18.96268
519.4925, 19.78028
519.9746, 20.26400
520.4567, 20.44715
520.9388, 20.44256
521.4210, 20.19420
521.9031, 19.85128
522.3852, 19.52652
522.8673, 19.05548
523.3494, 18.20081
523.8315, 17.03273
524.3137, 15.94754
524.7958, 15.27775
525.2779, 14.93254
525.7600, 14.61306
526.2421, 14.31430
526.7242, 14.06059
527.2064, 13.84906
527.6885, 13.70114
528.1706, 13.68847
528.6527, 13.86270
529.1348, 13.90968
529.6169, 13.51840
530.0991, 12.94991
530.5812, 12.64105
531.0633, 12.64340
531.5454, 12.76366
532.0275, 12.88189
532.5096, 12.99621
532.9918, 13.09021
533.4739, 13.16872
533.9560, 13.22423
534.4381, 13.23814
534.9202, 13.23728
535.4023, 13.24059
535.8845, 13.25685
536.3666, 13.30784
536.8487, 13.43274
537.3308, 13.63131
537.8129, 13.69135
538.2951, 13.42708
538.7772, 13.26839
539.2593, 13.37633
539.7415, 13.59997
540.2236, 13.77098
540.7057, 13.84716
541.1878, 13.92876
541.6699, 14.10690
542.1520, 14.37679
542.6342, 14.72482
543.1163, 15.18289
543.5984, 15.63661
544.0805, 15.94243
544.5626, 16.20518
545.0447, 16.63728
545.5269, 17.33516
546.0090, 18.07275
546.4911, 18.75475
546.9732, 19.38096
547.4553, 19.91674
547.9374, 20.35878
548.4196, 20.83136
548.9017, 21.50539
549.3838, 22.39527
549.8659, 22.87863
550.3480, 22.88584
550.8301, 22.65283
551.3123, 22.11399
551.7944, 21.42835
552.2765, 20.75700
552.7586, 20.15390
553.2407, 19.60474
553.7228, 19.05475
554.2050, 18.48629
554.6871, 18.26538
555.1692, 18.66449
555.6513, 19.03255
556.1334, 19.04250
556.6155, 18.92513
557.0977, 19.01104
557.5798, 19.41210
558.0619, 19.82920
558.5440, 19.94021
559.0261, 19.83584
559.5082, 19.92447
559.9904, 20.33747
560.4725, 20.59586
560.9546, 20.28068
561.4367, 19.47536
561.9188, 18.71997
562.4009, 17.98408
562.8831, 17.34587
563.3652, 16.90608
563.8473, 16.54964
564.3294, 16.10374
564.8115, 15.53811
565.2936, 14.96051
565.7758, 14.48524
566.2579, 14.11109
566.7400, 13.67992
567.2221, 12.94909
567.7042, 12.46460
568.1863, 12.56604
568.6685, 12.81951
569.1506, 12.74475
569.6327, 12.25944
570.1148, 11.71055
570.5969, 11.43066
571.0790, 11.38514
571.5612, 11.36888
572.0433, 11.38579
572.5254, 11.41545
573.0075, 11.49690
573.4896, 11.56137
573.9717, 11.46635
574.4539, 11.12078
574.9360, 10.90730
575.4181, 11.21516
575.9002, 11.66718
576.3823, 11.65991
576.8644, 11.16356
577.3466, 10.65619
577.8287, 10.47209
578.3108, 10.55791
578.7929, 10.65209
579.2750, 10.82160
579.7571, 10.90886
580.2393, 10.85233
580.7214, 10.74981
581.2035, 10.66742
581.6856, 10.61444
582.1677, 10.56290
582.6498, 10.47134
583.1320, 10.38694
583.6141, 10.52814
584.0962, 11.01612
584.5783, 11.31062
585.0604, 11.09837
585.5425, 10.76048
586.0247, 10.62181
586.5068, 10.67881
586.9889, 10.74198
587.4710, 10.72724
587.9531, 10.67721
588.4352, 10.63404
588.9174, 10.59929
589.3995, 10.57051
589.8816, 10.54417
590.3637, 10.53218
590.8458, 10.56306
591.3279, 10.67797
591.8101, 10.71210
592.2922, 10.56971
592.7743, 10.44197
593.2564, 10.43287
593.7385, 10.51394
594.2206, 10.62389
594.7028, 10.73465
595.1849, 10.84398
595.6670, 10.97769
596.1491, 11.16158
596.6312, 11.16154
597.1133, 10.79176
597.5955, 10.45895
598.0776, 10.35259
598.5597, 10.43657
599.0418, 10.67533
599.5239, 11.15090
600.0060, 11.57087
600.4882, 11.64737
600.9703, 11.49736
601.4524, 11.42176
601.9345, 11.48191
602.4166, 11.52614
602.8987, 11.40554
603.3809, 11.13657
603.8630, 10.97194
604.3451, 11.00150
604.8272, 11.00374
605.3093, 10.90547
605.7914, 10.78104
606.2736, 10.66648
606.7557, 10.59112
607.2378, 10.63092
607.7199, 10.88516
608.2020, 11.29387
608.6841, 11.56410
609.1663, 11.68819
609.6484, 11.69303
610.1305, 11.45867
610.6126, 11.19888
611.0947, 11.11356
611.5768, 11.20254
612.0590, 11.29176
612.5411, 11.28425
613.0232, 11.25529
613.5053, 11.28716
613.9874, 11.37498
614.4695, 11.49696
614.9517, 11.65451
615.4338, 11.80023
615.9159, 11.85711
616.3980, 11.80607
616.8801, 11.72343
617.3622, 11.59931
617.8444, 11.45691
618.3265, 11.22228
618.8086, 11.00179
619.2907, 10.97235
619.7728, 11.19598
620.2549, 11.53845
620.7371, 11.88536
621.2192, 12.22985
621.7013, 12.38466
622.1834, 12.29854
622.6655, 12.11553
623.1476, 11.76971
623.6298, 11.42901
624.1119, 11.41720
624.5940, 11.88432
625.0761, 12.30128
625.5582, 12.35706
626.0403, 12.26711
626.5225, 12.30704
627.0046, 12.48811
627.4867, 12.65092
627.9688, 12.68131
628.4509, 12.65047
628.9330, 12.80917
629.4152, 13.37712
629.8973, 13.72951
630.3794, 13.70086
630.8615, 13.61904
631.3436, 13.66410
631.8257, 13.81000
632.3079, 13.94472
632.7900, 14.00379
633.2721, 14.05932
633.7542, 14.23564
634.2363, 14.51630
634.7184, 14.74355
635.2006, 14.87752
635.6827, 14.98015
636.1648, 15.08076
636.6469, 15.19088
637.1291, 15.37340
637.6112, 15.69872
638.0933, 16.01062
638.5754, 16.16656
639.0576, 16.33087
639.5397, 16.76111
640.0218, 17.44402
640.5039, 18.08905
640.9860, 18.45845
641.4681, 18.59847
641.9503, 18.73306
642.4324, 18.83395
642.9145, 19.00080
643.3966, 19.42472
643.8787, 19.78489
644.3608, 19.86850
644.8430, 19.68799
645.3251, 19.36137
645.8072, 18.84170
646.2893, 18.28230
646.7714, 17.90567
647.2535, 17.62681
647.7357, 17.13491
648.2178, 16.33203
648.6999, 15.44506
649.1820, 14.73247
649.6641, 14.19934
650.1462, 13.68519
650.6284, 13.10105
651.1105, 12.64237
651.5926, 12.39694
652.0747, 12.26779
652.5568, 12.19350
653.0389, 12.14487
653.5211, 12.06732
654.0032, 11.88686
654.4853, 11.65801
654.9674, 11.54562
655.4495, 11.55946
655.9316, 11.59309
656.4138, 11.66272
656.8959, 11.67201
657.3780, 11.42192
657.8601, 10.92163
658.3422, 10.56951
658.8243, 10.47326
659.3065, 10.48291
659.7886, 10.56622
660.2707, 10.68256
660.7528, 10.79644
661.2349, 10.88863
661.7170, 10.90658
662.1992, 10.75335
662.6813, 10.44379
663.1634, 10.36115
663.6455, 10.67053
664.1276, 10.87983
664.6097, 10.67521
665.0919, 10.40268
665.5740, 10.41958
666.0561, 10.73312
666.5382, 10.94281
667.0203, 10.74703
667.5024, 10.44956
667.9846, 10.41172
668.4667, 10.56074
668.9488, 10.60235
669.4309, 10.42407
669.9130, 10.17066
670.3951, 10.03044
670.8773, 10.01389
671.3594, 10.02555
671.8415, 10.02914
672.3236, 10.10742
672.8057, 10.33235
673.2878, 10.60934
673.7700, 10.87414
674.2521, 11.10077
674.7342, 11.22654
675.2163, 11.14815
675.6984, 10.95524
676.1805, 10.81626
676.6627, 10.73132
677.1448, 10.70624
677.6269, 10.75750
678.1090, 10.83756
678.5911, 10.89235
679.0732, 10.92872
679.5554, 10.87910
680.0375, 10.64367
680.5196, 10.43884
681.0017, 10.36801
681.4838, 10.36374
681.9659, 10.31443
682.4481, 10.20868
682.9302, 10.17137
683.4123, 10.38303
683.8944, 10.74753
684.3765, 10.84800
684.8586, 10.63515
685.3408, 10.44478
685.8229, 10.38856
686.3050, 10.40677
686.7871, 10.42941
687.2692, 10.45597
687.7513, 10.50851
688.2335, 10.64099
688.7156, 10.74656
689.1977, 10.72252
689.6798, 10.65056
690.1619, 10.68415
690.6440, 10.84581
691.1262, 10.99198
691.6083, 10.96711
692.0904, 10.80025
692.5725, 10.70380
693.0546, 10.70790
693.5367, 10.69247
694.0189, 10.56193
694.5010, 10.45530
694.9831, 10.55190
695.4652, 10.81611
695.9473, 10.95827
696.4294, 10.80223
696.9116, 10.58911
697.3937, 10.42039
697.8758, 10.32956
698.3579, 10.42804
698.8400, 10.71779
699.3221, 10.99214
699.8043, 11.05139
700.2864, 10.91922
700.7685, 10.76283
701.2506, 10.52808
701.7327, 10.38432
702.2148, 10.46045
702.6970, 10.56051
703.1791, 10.51230
703.6612, 10.36747
704.1433, 10.35373
704.6254, 10.66248
705.1075, 10.98634
705.5897, 11.03479
706.0718, 10.92171
706.5539, 10.89219
707.0360, 10.98857
707.5181, 11.09150
708.0002, 11.10934
708.4824, 11.04718
708.9645, 10.91915
709.4466, 10.62139
709.9287, 10.45777
710.4108, 10.55211
710.8929, 10.69050
711.3751, 10.77810
711.8572, 10.81259
712.3393, 10.80390
712.8214, 10.74273
713.3035, 10.67398
713.7856, 10.65364
714.2678, 10.65016
714.7499, 10.56511
715.2320, 10.39502
715.7141, 10.29336
716.1962, 10.37639
716.6783, 10.57172
717.1605, 10.65719
717.6426, 10.52809
718.1247, 10.49388
718.6068, 10.67497
719.0889, 10.82089
719.5710, 10.78584
720.0532, 10.64812
720.5353, 10.53546
721.0174, 10.48127
721.4995, 10.49861
721.9816, 10.69397
722.4637, 10.93591
722.9459, 10.91848
723.4280, 10.64467
723.9101, 10.39843
724.3922, 10.31744
724.8743, 10.34451
725.3564, 10.37209
725.8386, 10.38681
726.3207, 10.45126
726.8028, 10.64631
727.2849, 10.79670
727.7670, 10.82358
728.2491, 10.78998
728.7313, 10.74549
729.2134, 10.70734
729.6955, 10.74843
730.1776, 11.00008
730.6597, 11.31873
731.1418, 11.48040
731.6240, 11.49746
732.1061, 11.45650
732.5882, 11.38403
733.0703, 11.28421
733.5524, 11.15260
734.0345, 10.98526
734.5167, 10.88100
734.9988, 10.84129
735.4809, 10.86793
735.9631, 11.04682
736.4452, 11.22709
736.9273, 11.26022
737.4094, 11.16492
737.8915, 11.09229
738.3737, 11.12411
738.8558, 11.20736
739.3379, 11.31785
739.8200, 11.43128
740.3021, 11.47148
740.7842, 11.42331
741.2664, 11.31831
741.7485, 11.16688
742.2306, 10.99123
742.7127, 10.90227
743.1948, 10.93527
743.6769, 10.99286
744.1591, 11.16464
744.6412, 11.26510
745.1233, 11.10598
745.6054, 10.81909
746.0875, 10.69529
746.5696, 10.86070
747.0518, 11.04874
747.5339, 11.00807
748.0160, 10.87512
748.4981, 10.89968
748.9802, 11.08001
749.4623, 11.25012
749.9445, 11.32565
750.4266, 11.44552
750.9087, 11.42202
751.3908, 11.56081
751.8729, 11.62141
752.3550, 11.60302
752.8372, 11.50273
753.3193, 11.21132
753.8014, 10.90646
754.2835, 10.80897
754.7656, 10.93865
755.2477, 11.06999
755.7299, 11.04666
756.2120, 11.02017
756.6941, 11.17957
757.1762, 11.44563
757.6583, 11.61824
758.1404, 11.64474
758.6226, 11.61260
759.1047, 11.60312
759.5868, 11.61453
760.0689, 11.62953
760.5510, 11.62949
761.0331, 11.68648
761.5153, 11.88865
761.9974, 12.07641
762.4795, 12.13431
762.9616, 12.08562
763.4437, 12.00096
763.9258, 11.84870
764.4080, 11.74440
764.8901, 11.77091
765.3722, 11.85793
765.8543, 11.94661
766.3364, 12.01906
766.8185, 12.04495
767.3007, 12.00472
767.7828, 11.94856
768.2649, 11.95846
768.7470, 12.03466
769.2291, 12.19402
769.7112, 12.51439
770.1934, 12.70750
770.6755, 12.53603
771.1576, 12.21936
771.6397, 12.15410
772.1218, 12.38419
772.6039, 12.52315
773.0861, 12.48448
773.5682, 12.36714
774.0503, 12.15498
774.5324, 11.92841
775.0145, 11.77227
775.4966, 11.71588
775.9788, 11.78749
776.4609, 12.06268
776.9430, 12.43251
777.4251, 12.63872
777.9072, 12.68333
778.3893, 12.64774
778.8715, 12.52565
779.3536, 12.42101
779.8357, 12.43925
780.3178, 12.55636
780.7999, 12.60758
781.2820, 12.54611
781.7642, 12.48749
782.2463, 12.40775
782.7284, 12.35971
783.2105, 12.39010
783.6926, 12.47506
784.1747, 12.55520
784.6569, 12.60601
785.1390, 12.69012
785.6211, 12.95770
786.1032, 13.26156
786.5853, 13.28424
787.0674, 13.03879
787.5496, 12.72867
788.0317, 12.43071
788.5138, 12.19862
788.9959, 12.10518
789.4780, 12.15023
789.9601, 12.35621
790.4423, 12.94478
790.9244, 13.33496
791.4065, 13.18454
791.8886, 12.95167
792.3707, 13.07443
792.8528, 13.48497
793.3350, 13.69839
793.8171, 13.42045
794.2992, 13.09000
794.7813, 12.93946
795.2634, 12.92191
795.7455, 13.01618
796.2277, 13.18648
796.7098, 13.31838
797.1919, 13.33777
797.6740, 13.31746
798.1561, 13.43146
798.6382, 13.68986
799.1204, 13.78390
799.6025, 13.62912
800.0846, 13.50604
800.5667, 13.56830
801.0488, 13.73373
801.5309, 13.86414
802.0131, 13.96258
802.4952, 14.02442
802.9773, 14.06603
803.4594, 14.05202
803.9415, 13.88117
804.4236, 13.69556
804.9058, 13.70741
805.3879, 13.91065
805.8700, 14.06228
806.3521, 13.93977
806.8342, 13.76283
807.3163, 13.93249
807.7985, 14.35330
808.2806, 14.62619
808.7627, 14.67859
809.2448, 14.60101
809.7269, 14.42747
810.2090, 14.21894
810.6912, 14.17017
811.1733, 14.35905
811.6554, 14.52037
812.1375, 14.55790
812.6196, 14.68086
813.1017, 15.13743
813.5839, 15.64106
814.0660, 15.74379
814.5481, 15.37226
815.0302, 15.09149
815.5123, 15.21457
815.9944, 15.45030
816.4766, 15.59549
816.9587, 15.67497
817.4408, 15.71131
817.9229, 15.73056
818.4050, 15.84188
818.8871, 16.16477
819.3693, 16.59083
819.8514, 16.78024
820.3335, 16.71517
820.8156, 16.87579
821.2977, 17.42035
821.7798, 17.93324
822.2620, 18.10443
822.7441, 18.05888
823.2262, 18.16919
823.7083, 18.53806
824.1904, 18.82474
824.6725, 18.87930
825.1547, 19.00680
825.6368, 19.37644
826.1189, 19.88488
826.6010, 20.42926
827.0831, 20.97519
827.5652, 21.43959
828.0474, 21.59683
828.5295, 21.77917
829.0116, 22.51018
829.4937, 23.57278
829.9758, 24.39058
830.4579, 24.85201
830.9401, 25.22155
831.4222, 25.68348
831.9043, 26.26481
832.3864, 27.10531
832.8685, 28.28724
833.3506, 29.25838
833.8328, 29.78305
834.3149, 30.45065
834.7971, 31.64729
835.2792, 33.15367
835.7613, 34.53168
836.2434, 35.72145
836.7255, 37.09443
837.2076, 38.74743
837.6898, 40.54126
838.1719, 42.41660
838.6540, 44.38647
839.1361, 46.47182
839.6182, 48.67858
840.1003, 51.02055
840.5825, 53.47872
841.0646, 56.12548
841.5467, 59.10070
842.0288, 62.35690
842.5109, 65.68496
842.9930, 69.06175
843.4752, 72.52764
843.9573, 76.09536
844.4394, 79.73315
844.9215, 83.34614
845.4036, 87.02636
845.8857, 90.24380
846.3679, 92.72259
846.8500, 95.25381
847.3321, 98.43621
847.8142, 101.5675
848.2963, 104.0238
848.7784, 105.7806
849.2606, 106.8228
849.7427, 106.7321
850.2248, 106.4301
850.7069, 106.1481
851.1890, 105.9243
851.6711, 105.7448
852.1533, 105.6530
852.6354, 105.8508
853.1175, 106.4997
853.5996, 107.0001
854.0817, 106.5609
854.5638, 105.4639
855.0460, 104.4869
855.5281, 103.6381
856.0102, 102.5500
856.4923, 101.0720
856.9744, 99.30603
857.4565, 97.43474
857.9387, 95.43164
858.4208, 92.73971
858.9029, 89.18112
859.3850, 85.34191
859.8671, 80.91564
860.3492, 76.71636
860.8314, 73.56422
861.3135, 71.08932
861.7956, 68.22066
862.2777, 64.58155
862.7598, 61.21555
863.2419, 58.48073
863.7241, 56.03972
864.2062, 53.67373
864.6883, 51.43312
865.1704, 49.46728
865.6525, 47.78351
866.1346, 46.09702
866.6168, 43.94059
867.0989, 41.82587
867.5810, 40.79595
868.0631, 40.51542
868.5452, 39.78197
869.0273, 38.37569
869.5095, 37.00307
869.9916, 36.19655
870.4737, 35.06457
870.9558, 34.16298
871.4379, 33.55891
871.9200, 32.66904
872.4022, 32.46353
872.8843, 32.19187
873.3664, 31.41135
873.8485, 30.47419
874.3306, 29.96636
874.8127, 29.90612
875.2949, 29.63240
875.7770, 28.85270
876.2591, 28.18157
876.7412, 27.95376
877.2233, 27.78349
877.7054, 27.26389
878.1876, 26.50538
878.6697, 25.90179
879.1518, 25.62647
879.6339, 25.46894
880.1160, 25.23119
880.5981, 25.02872
881.0803, 25.11342
881.5624, 25.38493
882.0445, 25.48541
882.5266, 25.29483
883.0087, 24.95212
883.4908, 24.57662
883.9730, 24.18770
884.4551, 23.83774
884.9372, 23.51910
885.4193, 23.42063
885.9014, 23.62457
886.3835, 23.87976
886.8657, 24.00111
887.3478, 24.05756
887.8299, 24.26214
888.3120, 24.77514
888.7941, 25.00314
889.2762, 24.64651
889.7584, 24.37239
890.2405, 24.38778
890.7226, 24.57462
891.2047, 24.84551
891.6868, 25.17843
892.1689, 25.49926
892.6511, 25.69016
893.1332, 25.98845
893.6153, 26.66376
894.0974, 27.40064
894.5795, 27.80452
895.0616, 27.96505
895.5438, 28.21358
896.0259, 28.68920
896.5080, 29.29669
896.9901, 30.00818
897.4722, 30.74850
897.9543, 31.24926
898.4365, 31.57634
898.9186, 32.20622
899.4007, 33.27050
899.8828, 34.28022
900.3649, 34.76458
900.8470, 34.93450
901.3292, 35.59248
901.8113, 36.83558
902.2934, 38.09357
902.7755, 39.35583
903.2576, 40.55361
903.7397, 41.57524
904.2219, 42.56502
904.7040, 43.77793
905.1861, 45.24417
905.6682, 46.66848
906.1503, 48.00840
906.6324, 49.35322
907.1146, 50.65130
907.5967, 52.03077
908.0788, 53.65572
908.5609, 55.44989
909.0430, 57.15243
909.5251, 58.63063
910.0073, 60.21218
910.4894, 62.13454
910.9715, 64.21183
911.4536, 66.22332
911.9357, 68.25396
912.4178, 70.48656
912.9000, 72.97728
913.3821, 75.66582
913.8642, 78.52913
914.3463, 81.52269
914.8284, 84.53130
915.3105, 87.58529
915.7927, 90.90481
916.2748, 94.49330
916.7569, 98.12051
917.2390, 101.6577
917.7211, 105.1815
918.2032, 108.8551
918.6854, 112.6556
919.1675, 116.7893
919.6496, 121.4593
920.1317, 125.8025
920.6138, 129.6689
921.0959, 133.0927
921.5781, 136.0146
922.0602, 138.5194
922.5423, 141.0445
923.0244, 144.1803
923.5065, 146.2656
923.9886, 146.7332
924.4708, 146.7091
924.9529, 146.8464
925.4350, 146.6848
925.9171, 145.6096
926.3992, 143.5757
926.8813, 140.9940
927.3635, 137.9946
927.8456, 134.5279
928.3277, 130.4171
928.8098, 125.9318
929.2919, 121.0862
929.7740, 116.1613
930.2562, 111.7368
930.7383, 108.0761
931.2204, 104.5672
931.7025, 100.6420
932.1846, 96.43792
932.6667, 91.99240
933.1489, 87.50178
933.6310, 83.80083
934.1132, 81.04685
934.5953, 78.75468
935.0774, 76.63795
935.5595, 74.44839
936.0416, 71.50292
936.5237, 67.78683
937.0059, 64.56184
937.4880, 61.94809
937.9701, 59.45429
938.4522, 56.88551
938.9343, 54.35043
939.4164, 51.94057
939.8986, 49.66181
940.3807, 47.62177
940.8628, 45.94600
941.3449, 44.27421
941.8270, 42.58207
942.3091, 40.88007
942.7913, 39.11759
943.2734, 37.38571
943.7555, 35.84082
944.2376, 34.50904
944.7197, 33.22345
945.2018, 31.81768
945.6840, 30.63363
946.1661, 29.94592
946.6482, 29.42576
947.1303, 28.80431
947.6124, 28.07461
948.0945, 27.30635
948.5767, 26.49591
949.0588, 25.77223
949.5409, 25.31692
950.0230, 24.88943
950.5051, 24.17936
950.9872, 23.33531
951.4694, 22.63489
951.9515, 22.13641
952.4336, 21.79313
952.9157, 21.60973
953.3978, 21.45238
953.8799, 21.10663
954.3621, 20.63839
954.8442, 20.19111
955.3263, 19.78998
955.8084, 19.52633
956.2905, 19.43663
956.7726, 19.31673
957.2548, 18.90752
957.7369, 18.29324
958.2190, 17.84253
958.7011, 17.56228
959.1832, 17.28667
959.6653, 16.98388
960.1475, 16.70815
960.6296, 16.48698
961.1117, 16.31677
961.5938, 16.20245
962.0759, 16.15759
962.5580, 16.02856
963.0402, 15.76803
963.5223, 15.52140
964.0044, 15.30184
964.4865, 15.12660
964.9686, 15.03239
965.4507, 14.99220
965.9329, 14.91016
966.4150, 14.72888
966.8971, 14.66130
967.3792, 14.90296
967.8613, 15.03888
968.3434, 14.88547
968.8256, 14.57910
969.3077, 14.18097
969.7898, 13.74884
970.2719, 13.46655
970.7540, 13.38919
971.2361, 13.45316
971.7183, 13.88225
972.2004, 14.20126
972.6825, 13.88410
973.1646, 13.26662
973.6467, 12.90076
974.1288, 12.88691
974.6110, 12.97015
975.0931, 13.04077
975.5752, 13.08349
976.0573, 13.10701
976.5394, 13.08030
977.0215, 12.89332
977.5037, 12.61379
977.9858, 12.47037
978.4679, 12.53897
978.9500, 12.67250
979.4321, 12.75343
979.9142, 12.77744
980.3964, 12.68726
980.8785, 12.53143
981.3606, 12.52127
981.8427, 12.66817
982.3248, 12.76397
982.8069, 12.69679
983.2891, 12.53287
983.7712, 12.33657
984.2533, 12.12705
984.7354, 12.06358
985.2175, 12.15144
985.6996, 12.16934
986.1818, 12.04424
986.6639, 12.04128
987.1460, 12.39373
987.6281, 12.88600
988.1102, 12.99954
988.5923, 12.66347
989.0745, 12.48893
989.5566, 12.53083
990.0387, 12.57034
990.5208, 12.54352
991.0029, 12.50131
991.4850, 12.47792
991.9672, 12.47750
992.4493, 12.51516
992.9314, 12.58055
993.4135, 12.71021
993.8956, 12.97082
994.3777, 13.20506
994.8599, 13.31849
995.3420, 13.41981
995.8241, 13.64669
996.3062, 13.96486
996.7883, 14.17362
997.2704, 14.18565
997.7526, 14.21556
998.2347, 14.19611
998.7168, 14.30981
999.1989, 14.77799
999.6810, 15.35049
1000.163, 15.67791
1000.645, 15.77127
1001.127, 15.97796
1001.609, 16.51293
1002.092, 17.00090
1002.574, 17.23408
1003.056, 17.41858
1003.538, 17.67392
1004.020, 18.01068
1004.502, 18.44148
1004.984, 18.95685
1005.466, 19.48331
1005.949, 20.05086
1006.431, 20.51442
1006.913, 20.67475
1007.395, 20.74087
1007.877, 21.02141
1008.359, 21.40836
1008.841, 21.60997
1009.323, 21.53439
1009.805, 21.24408
1010.288, 20.68527
1010.770, 20.05972
1011.252, 19.61022
1011.734, 19.27472
1012.216, 18.97352
1012.698, 18.67749
1013.180, 18.35111
1013.662, 17.97737
1014.145, 17.50397
1014.627, 16.81402
1015.109, 16.04341
1015.591, 15.46384
1016.073, 15.04290
1016.555, 14.65973
1017.037, 14.31117
1017.519, 14.15747
1018.001, 14.28547
1018.484, 14.36374
1018.966, 13.87084
1019.448, 13.01457
1019.930, 12.57798
1020.412, 12.51727
1020.894, 12.39833
1021.376, 12.14812
1021.858, 11.92315
1022.341, 11.81352
1022.823, 11.77686
1023.305, 11.76670
1023.787, 11.77114
1024.269, 11.65407
1024.751, 11.40741
1025.233, 11.17956
1025.715, 10.99218
1026.198, 10.88957
1026.680, 10.91631
1027.162, 10.99605
1027.644, 10.97528
1028.126, 10.85020
1028.608, 10.81728
1029.090, 10.91305
1029.572, 10.91593
1030.054, 10.74713
1030.536, 10.57310
1031.019, 10.51447
1031.501, 10.51584
1031.983, 10.45633
1032.465, 10.32810
1032.947, 10.19667
1033.429, 10.04530
1033.911, 9.930230
1034.393, 9.847795
1034.876, 9.835570
1035.358, 9.952738
1035.840, 10.13712
1036.322, 10.23959
1036.804, 10.24539
1037.286, 10.23902
1037.768, 10.19640
1038.250, 10.18750
1038.733, 10.27496
1039.215, 10.34351
1039.697, 10.32422
1040.179, 10.22002
1040.661, 10.01168
1041.143, 9.616989
1041.625, 9.421573
1042.107, 9.524949
1042.589, 9.691857
1043.072, 9.978689
1043.554, 10.21775
1044.036, 10.31392
1044.518, 10.26834
1045.000, 10.05625
1045.482, 9.608841
1045.964, 9.275464
1046.446, 9.047914
1046.928, 8.980422
1047.411, 9.211001
1047.893, 9.490376
1048.375, 9.694493
1048.857, 9.793814
1049.339, 9.710240
1049.821, 9.386173
1050.303, 9.143144
1050.785, 9.048826
1051.268, 9.017239
1051.750, 9.029178
1052.232, 9.086698
1052.714, 9.225642
1053.196, 9.403477
1053.678, 9.554434
1054.160, 9.689604
1054.642, 9.647908
1055.125, 9.141370
1055.607, 8.779141
1056.089, 8.910528
1056.571, 9.164486
1057.053, 9.261856
1057.535, 9.232497
1058.017, 9.166458
1058.499, 9.067923
1058.981, 9.069297
1059.464, 9.278096
1059.946, 9.506481
1060.428, 9.806133
1060.910, 9.979389
1061.392, 9.736785
1061.874, 9.282537
1062.356, 9.053171
1062.838, 9.140942
1063.320, 9.239104
1063.803, 9.238809
1064.285, 9.225555
1064.767, 9.262340
1065.249, 9.279225
1065.731, 9.163840
1066.213, 9.000955
1066.695, 8.993321
1067.177, 9.175967
1067.660, 9.263175
1068.142, 9.032202
1068.624, 8.822971
1069.106, 8.816725
1069.588, 8.877508
1070.070, 8.922183
1070.552, 8.935298
1071.034, 8.877465
1071.516, 8.753778
1071.999, 8.728278
1072.481, 9.009754
1072.963, 9.218366
1073.445, 9.047184
1073.927, 8.857054
1074.409, 9.058412
1074.891, 9.398889
1075.373, 9.375320
1075.855, 8.952933
1076.338, 8.662349
1076.820, 8.820951
1077.302, 8.978716
1077.784, 8.873241
1078.266, 8.727991
1078.748, 8.753098
1079.230, 8.836824
1079.712, 8.752428
1080.195, 8.510627
1080.677, 8.392073
1081.159, 8.572826
1081.641, 8.741381
1082.123, 8.725537
1082.605, 8.670637
1083.087, 8.664001
1083.569, 8.694966
1084.052, 8.805943
1084.534, 8.943302
1085.016, 8.848633
1085.498, 8.294587
1085.980, 7.917838
1086.462, 8.128373
1086.944, 8.461922
1087.426, 8.689347
1087.908, 8.817015
1088.391, 8.850095
1088.873, 8.810740
1089.355, 8.745970
1089.837, 8.655676
1090.319, 8.600921
1090.801, 8.607743
1091.283, 8.654649
1091.765, 8.825500
1092.248, 8.954107
1092.730, 8.781779
1093.212, 8.438178
1093.694, 8.315974
1094.176, 8.537648
1094.658, 8.714987
1095.140, 8.637997
1095.622, 8.579961
1096.104, 8.751212
1096.587, 8.916133
1097.069, 8.811355
1097.551, 8.558331
1098.033, 8.434974
1098.515, 8.493178
1098.997, 8.565059
1099.479, 8.666465
1099.961, 8.685796
1100.443, 8.482374
1100.926, 8.288219
1101.408, 8.295144
1101.890, 8.409099
1102.372, 8.481992
1102.854, 8.495824
1103.336, 8.472194
1103.818, 8.337846
1104.300, 8.281421
1104.783, 8.433575
1105.265, 8.572603
1105.747, 8.512914
1106.229, 8.414839
1106.711, 8.528748
1107.193, 8.823226
1107.675, 8.975769
1108.157, 8.936453
1108.640, 8.772983
1109.122, 8.214967
1109.604, 7.880673
1110.086, 8.239776
1110.568, 8.745440
1111.050, 8.889709
1111.532, 8.728391
1112.014, 8.514051
1112.496, 8.158322
1112.979, 8.024499
1113.461, 8.365973
1113.943, 8.604264
1114.425, 8.503664
1114.907, 8.355031
1115.389, 8.382272
1115.871, 8.502394
1116.353, 8.520463
1116.835, 8.410288
1117.318, 8.352370
1117.800, 8.339873
1118.282, 8.400102
1118.764, 8.639803
1119.246, 8.793365
1119.728, 8.661983
1120.210, 8.408977
1120.692, 8.282452
1121.175, 8.279409
1121.657, 8.261005
1122.139, 8.199070
1122.621, 8.202492
1123.103, 8.296893
1123.585, 8.419773
1124.067, 8.560332
1124.549, 8.694061
1125.031, 8.817432
1125.514, 8.897358
1125.996, 8.734199
1126.478, 8.238163
1126.960, 8.016293
1127.442, 8.153338
1127.924, 8.239170
1128.406, 8.126925
1128.888, 8.027974
1129.370, 8.112178
1129.853, 8.325696
1130.335, 8.588547
1130.817, 8.900746
1131.299, 8.888654
1131.781, 8.531543
1132.263, 8.306479
1132.745, 8.312734
1133.227, 8.389529
1133.710, 8.453090
1134.192, 8.469234
1134.674, 8.363546
1135.156, 8.184277
1135.638, 8.131295
1136.120, 8.194604
1136.602, 8.326090
1137.084, 8.506694
1137.567, 8.599601
1138.049, 8.552984
1138.531, 8.485045
1139.013, 8.512674
1139.495, 8.580206
1139.977, 8.590757
1140.459, 8.549066
1140.941, 8.419174
1141.423, 8.248631
1141.906, 8.264870
1142.388, 8.482718
1142.870, 8.585273
1143.352, 8.356648
1143.834, 8.058092
1144.316, 7.980317
1144.798, 8.042734
1145.280, 8.173137
1145.762, 8.326699
1146.245, 8.429428
1146.727, 8.474522
1147.209, 8.481206
1147.691, 8.457509
1148.173, 8.425325
1148.655, 8.349737
1149.137, 8.330158
1149.619, 8.508004
1150.102, 8.746130
1150.584, 8.909141
1151.066, 8.994772
1151.548, 9.033366
1152.030, 9.030964
1152.512, 8.971148
1152.994, 8.814638
1153.476, 8.665964
1153.958, 8.503595
1154.441, 8.446742
1154.923, 8.713181
1155.405, 9.032773
1155.887, 9.002923
1156.369, 8.723769
1156.851, 8.699869
1157.333, 9.133037
1157.815, 9.400161
1158.297, 9.135876
1158.780, 9.000637
1159.262, 9.414060
1159.744, 9.818757
1160.226, 9.710792
1160.708, 9.357293
1161.190, 9.300747
1161.672, 9.575441
1162.154, 9.715265
1162.637, 9.573391
1163.119, 9.582938
1163.601, 9.913711
1164.083, 10.15382
1164.565, 10.11759
1165.047, 9.942178
1165.529, 9.744413
1166.011, 9.541168
1166.494, 9.408678
1166.976, 9.367372
1167.458, 9.274352
1167.940, 9.096874
1168.422, 9.059867
1168.904, 9.254983
1169.386, 9.380301
1169.868, 9.213206
1170.350, 8.952921
1170.833, 8.949604
1171.315, 9.144313
1171.797, 9.185240
1172.279, 9.085440
1172.761, 8.980068
1173.243, 8.888998
1173.725, 8.842919
1174.207, 8.852549
1174.689, 8.888571
1175.172, 8.938258
1175.654, 8.956075
1176.136, 8.850962
1176.618, 8.659974
1177.100, 8.370495
1177.582, 8.091352
1178.064, 8.190342
1178.546, 8.640038
1179.029, 8.953747
1179.511, 8.888742
1179.993, 8.733015
1180.475, 8.745479
1180.957, 8.773760
1181.439, 8.591716
1181.921, 8.392713
1182.403, 8.469049
1182.885, 8.717281
1183.368, 8.917334
1183.850, 9.002166
1184.332, 8.879882
1184.814, 8.308786
1185.296, 7.898977
1185.778, 7.986889
1186.260, 8.210819
1186.742, 8.428046
1187.225, 8.607882
1187.707, 8.731057
1188.189, 8.799989
1188.671, 8.817214
1189.153, 8.755625
1189.635, 8.750553
1190.117, 8.939389
1190.599, 8.985026
1191.082, 8.723169
1191.564, 8.468185
1192.046, 8.381537
1192.528, 8.404546
1193.010, 8.486882
1193.492, 8.608265
1193.974, 8.563983
1194.456, 8.632488
1194.938, 8.738832
1195.421, 8.636631
1195.903, 8.884293
1196.385, 8.857055
1196.867, 8.750166
1197.349, 8.700882
1197.831, 8.695539
1198.313, 8.741196
1198.795, 8.803772
1199.277, 8.648458
1199.760, 8.345537
1200.242, 8.317025
1200.724, 8.563375
1201.206, 8.736746
1201.688, 8.704844
1202.170, 8.566254
1202.652, 8.368617
1203.134, 8.190865
1203.617, 8.139799
1204.099, 8.165140
1204.581, 8.215699
1205.063, 8.277991
1205.545, 8.344052
1206.027, 8.406327
1206.509, 8.427507
1206.991, 8.383059
1207.474, 8.442494
1207.956, 8.852792
1208.438, 9.183430
1208.920, 9.190188
1209.402, 9.050776
1209.884, 8.842113
1210.366, 8.620169
1210.848, 8.424624
1211.330, 8.270277
1211.813, 8.252298
1212.295, 8.502642
1212.777, 8.642430
1213.259, 8.594382
1213.741, 8.547104
1214.223, 8.548459
1214.705, 8.558828
1215.187, 8.532255
1215.669, 8.526237
1216.152, 8.677715
1216.634, 8.965060
1217.116, 8.955789
1217.598, 8.606075
1218.080, 8.533087
1218.562, 8.808792
1219.044, 9.143437
1219.526, 9.443538
1220.009, 9.509809
1220.491, 9.142388
1220.973, 8.648437
1221.455, 8.605901
1221.937, 8.830355
1222.419, 8.840753
1222.901, 8.716634
1223.383, 8.706651
1223.865, 8.805069
1224.348, 8.846485
1224.830, 8.776113
1225.312, 8.678059
1225.794, 8.584010
1226.276, 8.529499
1226.758, 8.565248
1227.240, 8.627844
1227.722, 8.683981
1228.204, 8.715975
1228.687, 8.662045
1229.169, 8.570531
1229.651, 8.614120
1230.133, 8.855409
1230.615, 9.046527
1231.097, 9.149365
1231.579, 9.189211
1232.061, 9.144713
1232.544, 9.067537
1233.026, 8.931227
1233.508, 8.837134
1233.990, 8.947598
1234.472, 8.805655
1234.954, 8.710753
1235.436, 8.713436
1235.918, 8.501051
1236.401, 8.493819
1236.883, 8.577394
1237.365, 8.732105
1237.847, 8.909734
1238.329, 9.089939
1238.811, 9.172792
1239.293, 9.009918
1239.775, 8.730477
1240.257, 8.526730
1240.740, 8.450009
1241.222, 8.741243
1241.704, 9.234909
1242.186, 9.495481
1242.668, 9.457114
1243.150, 9.255260
1243.632, 8.932139
1244.114, 8.677222
1244.596, 8.639642
1245.079, 8.680560
1245.561, 8.742750
1246.043, 8.815227
1246.525, 8.897572
1247.007, 8.980326
1247.489, 9.069982
1247.971, 9.154319
1248.453, 9.157496
1248.936, 9.039968
1249.418, 8.914537
1249.900, 8.730527
1250.382, 8.644328
1250.864, 8.726242
1251.346, 8.831336
1251.828, 8.888589
1252.310, 8.897660
1252.792, 8.834948
1253.275, 8.748972
1253.757, 8.927771
1254.239, 9.323309
1254.721, 9.198900
1255.203, 8.619705
1255.685, 8.466519
1256.167, 8.876266
1256.649, 9.207517
1257.131, 9.126425
1257.614, 8.957668
1258.096, 9.042720
1258.578, 9.185500
1259.060, 9.154140
1259.542, 9.048753
1260.024, 8.916662
1260.506, 8.844284
1260.988, 9.038445
1261.471, 9.426419
1261.953, 9.605501
1262.435, 9.409144
1262.917, 9.289886
1263.399, 9.512296
1263.881, 9.606945
1264.363, 9.275638
1264.845, 8.999381
1265.328, 9.070918
1265.810, 9.259073
1266.292, 9.308283
1266.774, 9.249452
1267.256, 9.209782
1267.738, 9.196479
1268.220, 9.092487
1268.702, 8.890084
1269.184, 8.914957
1269.667, 9.215325
1270.149, 9.355407
1270.631, 9.137738
1271.113, 8.895796
1271.595, 8.965976
1272.077, 9.140776
1272.559, 9.107509
1273.041, 8.981445
1273.523, 8.895845
1274.006, 8.869278
1274.488, 8.924900
1274.970, 9.050283
1275.452, 9.227025
1275.934, 9.449950
1276.416, 9.603536
1276.898, 9.732097
1277.380, 9.652084
1277.863, 9.019638
1278.345, 8.533685
1278.827, 8.620149
1279.309, 8.907352
1279.791, 9.173291
1280.273, 9.366668
1280.755, 9.339554
1281.237, 9.096463
1281.719, 9.054406
1282.202, 9.232088
1282.684, 9.332158
1283.166, 9.326386
1283.648, 9.297085
1284.130, 9.271161
1284.612, 9.247240
1285.094, 9.223294
1285.576, 9.208117
1286.059, 9.180693
1286.541, 9.196319
1287.023, 9.320514
1287.505, 9.555764
##END=



