##NAMES=Topaz
##RRUFFID=R050405
##IDEAL CHEMISTRY=Al_2_SiO_4_F_2_
##LOCALITY=Amelia, Virginia, USA
##OWNER=RRUFF
##SOURCE=Gerry Gibbs
##DESCRIPTION=Colorless cleavage fragment
##STATUS=The identification of this mineral has been confirmed by X-ray diffraction and chemical analysis
##URL=rruff.info/R050405
##MEASURED CHEMISTRY=Al_2.00_Si_1.00_O_4_(F_0.75_(OH)_0.25_)_2_
93.30109, 0.0000000E+00
93.78320, 84.49630
94.26532, 86.44905
94.74744, 86.90256
95.22955, 85.62469
95.71167, 83.36828
96.19379, 80.66497
96.67590, 77.35559
97.15802, 74.74744
97.64014, 73.55938
98.12225, 73.08886
98.60437, 72.08636
99.08649, 70.06661
99.56860, 67.50053
100.0507, 65.11704
100.5328, 62.79046
101.0150, 60.59736
101.4971, 58.66314
101.9792, 56.98305
102.4613, 55.33929
102.9434, 53.52783
103.4255, 51.74921
103.9077, 50.13355
104.3898, 48.69948
104.8719, 47.47136
105.3540, 46.52586
105.8361, 46.00463
106.3182, 45.52254
106.8004, 45.00803
107.2825, 44.46399
107.7646, 43.90622
108.2467, 43.35262
108.7288, 42.78975
109.2109, 42.03821
109.6931, 40.57514
110.1752, 39.43415
110.6573, 39.16465
111.1394, 39.51316
111.6215, 39.77684
112.1036, 39.31633
112.5858, 37.99205
113.0679, 36.88539
113.5500, 35.93302
114.0321, 35.21250
114.5142, 34.86373
114.9964, 34.90704
115.4785, 35.07710
115.9606, 35.10426
116.4427, 34.99901
116.9248, 34.77982
117.4069, 34.39842
117.8891, 33.90835
118.3712, 33.38946
118.8533, 32.79290
119.3354, 32.28597
119.8175, 31.99966
120.2996, 31.92027
120.7818, 31.96718
121.2639, 32.09307
121.7460, 32.29804
122.2281, 32.57958
122.7102, 33.29490
123.1923, 33.83578
123.6745, 33.75512
124.1566, 33.00610
124.6387, 32.01598
125.1208, 31.37907
125.6029, 31.19216
126.0850, 31.20148
126.5672, 31.57578
127.0493, 31.99220
127.5314, 32.16702
128.0135, 31.99156
128.4956, 31.58772
128.9777, 31.29264
129.4599, 31.24836
129.9420, 31.16597
130.4241, 31.00754
130.9062, 30.80101
131.3883, 30.58228
131.8704, 30.36530
132.3526, 30.15767
132.8347, 29.99896
133.3168, 29.88473
133.7989, 29.80917
134.2810, 29.85288
134.7632, 29.97312
135.2453, 29.92872
135.7274, 29.42836
136.2095, 28.65986
136.6916, 28.28444
137.1737, 28.70200
137.6559, 29.30317
138.1380, 29.39397
138.6201, 28.86316
139.1022, 28.34661
139.5843, 28.37280
140.0664, 28.66718
140.5486, 28.85010
141.0307, 28.72948
141.5128, 28.39297
141.9949, 28.09157
142.4770, 27.81571
142.9591, 27.59671
143.4413, 27.48491
143.9234, 27.43102
144.4055, 27.34230
144.8876, 27.13696
145.3697, 26.81433
145.8518, 26.55452
146.3340, 26.38517
146.8161, 26.26145
147.2982, 26.13276
147.7803, 26.02993
148.2624, 26.05014
148.7445, 26.33297
149.2267, 27.02617
149.7088, 27.32865
150.1909, 26.75350
150.6730, 26.25729
151.1551, 26.43051
151.6372, 27.32400
152.1194, 28.51974
152.6015, 29.47065
153.0836, 29.87139
153.5657, 30.98931
154.0478, 33.25467
154.5299, 36.03024
155.0121, 39.06830
155.4942, 42.39122
155.9763, 45.06394
156.4584, 45.33973
156.9405, 43.25520
157.4226, 40.39146
157.9048, 36.39242
158.3869, 31.93280
158.8690, 28.48344
159.3511, 26.56653
159.8332, 25.61193
160.3153, 24.86727
160.7975, 24.32207
161.2796, 23.96332
161.7617, 23.82021
162.2438, 23.88250
162.7259, 24.03473
163.2081, 24.39167
163.6902, 24.71310
164.1723, 24.84455
164.6544, 24.77059
165.1365, 24.52003
165.6186, 24.00936
166.1008, 23.10867
166.5829, 22.55493
167.0650, 22.75037
167.5471, 23.14123
168.0292, 23.43088
168.5113, 23.53675
168.9935, 23.52841
169.4756, 23.52142
169.9577, 23.54708
170.4398, 23.50677
170.9219, 23.32690
171.4040, 23.12541
171.8862, 22.99458
172.3683, 22.96941
172.8504, 23.02750
173.3325, 23.12031
173.8146, 23.45410
174.2967, 23.55712
174.7789, 23.21634
175.2610, 22.70466
175.7431, 22.33667
176.2252, 22.25260
176.7073, 22.38696
177.1894, 22.53345
177.6716, 22.79105
178.1537, 22.94308
178.6358, 22.86321
179.1179, 22.65263
179.6000, 22.51629
180.0821, 22.57284
180.5643, 22.74615
181.0464, 22.79356
181.5285, 22.64060
182.0106, 22.49533
182.4927, 22.50173
182.9748, 22.61850
183.4570, 22.64247
183.9391, 22.40499
184.4212, 22.05899
184.9033, 21.93779
185.3854, 22.15489
185.8675, 22.41741
186.3497, 22.46197
186.8318, 22.28162
187.3139, 22.13194
187.7960, 22.20854
188.2781, 22.33810
188.7602, 22.30750
189.2424, 22.02481
189.7245, 21.68680
190.2066, 21.56569
190.6887, 21.72017
191.1708, 21.88066
191.6530, 21.96532
192.1351, 22.00642
192.6172, 22.00868
193.0993, 21.96217
193.5814, 21.92273
194.0635, 22.03206
194.5457, 22.43300
195.0278, 22.68994
195.5099, 22.66543
195.9920, 22.50007
196.4741, 22.30939
196.9562, 22.14131
197.4384, 22.00750
197.9205, 21.94719
198.4026, 22.05025
198.8847, 22.10620
199.3668, 22.06535
199.8489, 21.97438
200.3311, 21.87651
200.8132, 21.79233
201.2953, 21.72950
201.7774, 21.71922
202.2595, 21.87374
202.7416, 21.95666
203.2238, 21.88647
203.7059, 21.74277
204.1880, 21.64160
204.6701, 21.64767
205.1522, 21.73195
205.6343, 21.76429
206.1165, 21.65351
206.5986, 21.60026
207.0807, 21.68639
207.5628, 21.85764
208.0449, 22.01896
208.5270, 22.12543
209.0092, 22.17906
209.4913, 22.18400
209.9734, 22.11873
210.4555, 22.04305
210.9376, 21.97608
211.4197, 21.91495
211.9019, 21.81815
212.3840, 21.59642
212.8661, 21.40089
213.3482, 21.64165
213.8303, 22.62015
214.3124, 23.51884
214.7946, 23.71351
215.2767, 23.34824
215.7588, 23.21761
216.2409, 23.77036
216.7230, 24.71279
217.2052, 25.46115
217.6873, 25.95752
218.1694, 26.36036
218.6515, 26.74501
219.1336, 27.11610
219.6157, 27.55365
220.0979, 28.08691
220.5800, 28.71648
221.0621, 29.49216
221.5442, 30.47283
222.0263, 31.38080
222.5084, 31.85489
222.9906, 31.84518
223.4727, 31.97543
223.9548, 32.69486
224.4369, 33.47240
224.9190, 33.84974
225.4011, 33.72789
225.8833, 33.51119
226.3654, 33.68786
226.8475, 34.32525
227.3296, 35.03139
227.8117, 35.69411
228.2938, 36.42144
228.7760, 37.21319
229.2581, 38.08820
229.7402, 39.19019
230.2223, 40.76491
230.7044, 42.96918
231.1865, 45.17154
231.6687, 46.91325
232.1508, 48.89510
232.6329, 51.30380
233.1150, 54.28942
233.5971, 58.21997
234.0792, 63.44409
234.5614, 69.49382
235.0435, 78.27901
235.5256, 91.17788
236.0077, 105.3699
236.4898, 120.2440
236.9719, 135.0793
237.4541, 148.2553
237.9362, 157.2337
238.4183, 159.8345
238.9004, 163.2263
239.3825, 167.5761
239.8646, 172.4020
240.3468, 179.7535
240.8289, 188.6913
241.3110, 193.9815
241.7931, 188.7991
242.2752, 169.5258
242.7573, 148.8881
243.2395, 123.5415
243.7216, 99.53196
244.2037, 80.54975
244.6858, 67.12452
245.1679, 57.66203
245.6501, 50.60992
246.1322, 46.48362
246.6143, 43.35256
247.0964, 41.31726
247.5785, 40.06215
248.0606, 39.55177
248.5428, 39.70363
249.0249, 40.20594
249.5070, 40.79750
249.9891, 41.50164
250.4712, 42.14989
250.9533, 42.89637
251.4355, 43.47761
251.9176, 43.67023
252.3997, 43.48727
252.8818, 43.14177
253.3639, 42.75377
253.8460, 42.33732
254.3282, 42.15534
254.8103, 42.13045
255.2924, 42.38829
255.7745, 43.13126
256.2566, 44.31853
256.7387, 45.55502
257.2209, 46.50314
257.7030, 47.25896
258.1851, 48.39738
258.6672, 50.19218
259.1493, 52.14098
259.6314, 53.76751
260.1136, 55.13519
260.5957, 56.82941
261.0778, 59.17003
261.5599, 62.17736
262.0420, 65.54034
262.5241, 68.53941
263.0063, 72.74301
263.4884, 78.72024
263.9705, 86.58720
264.4526, 97.27448
264.9347, 110.5300
265.4168, 127.8583
265.8990, 150.1539
266.3811, 177.8762
266.8632, 210.0286
267.3453, 249.7048
267.8274, 295.3262
268.3095, 336.7683
268.7917, 378.4662
269.2738, 404.6980
269.7559, 397.0439
270.2380, 351.1757
270.7201, 293.5770
271.2022, 235.3959
271.6844, 178.2827
272.1665, 133.2033
272.6486, 105.3850
273.1307, 89.63008
273.6128, 79.65962
274.0949, 75.33913
274.5771, 73.95004
275.0592, 74.96445
275.5413, 77.86446
276.0234, 79.66138
276.5055, 79.90919
276.9876, 78.82180
277.4698, 76.25191
277.9519, 72.50903
278.4340, 69.13682
278.9161, 66.72210
279.3982, 65.35369
279.8803, 65.43282
280.3625, 67.18916
280.8446, 70.23838
281.3267, 73.63169
281.8088, 77.84327
282.2909, 84.08913
282.7730, 92.86112
283.2552, 104.1608
283.7373, 118.1621
284.2194, 135.4923
284.7015, 154.5540
285.1836, 176.4863
285.6658, 199.2086
286.1479, 220.4517
286.6300, 241.1917
287.1121, 257.7281
287.5942, 260.7819
288.0764, 247.1710
288.5585, 226.8446
289.0406, 199.2321
289.5227, 169.2097
290.0048, 141.6473
290.4869, 117.7776
290.9691, 97.69997
291.4512, 81.69913
291.9333, 70.38500
292.4154, 61.38860
292.8975, 54.93193
293.3796, 49.98987
293.8618, 46.08891
294.3439, 43.10073
294.8260, 40.79778
295.3081, 38.99310
295.7902, 37.78005
296.2723, 36.63343
296.7545, 35.39618
297.2366, 34.26224
297.7187, 33.37358
298.2008, 32.73281
298.6829, 32.22184
299.1650, 31.77518
299.6472, 31.41023
300.1293, 30.92966
300.6114, 30.11614
301.0935, 29.37135
301.5756, 28.88748
302.0577, 28.63797
302.5399, 28.48315
303.0220, 28.34334
303.5041, 28.21571
303.9862, 28.01675
304.4683, 27.63002
304.9504, 27.30935
305.4326, 27.13935
305.9147, 27.09752
306.3968, 27.15969
306.8789, 27.36203
307.3610, 27.62763
307.8431, 27.58293
308.3253, 26.92042
308.8074, 26.43378
309.2895, 26.43602
309.7716, 26.67748
310.2537, 26.81925
310.7358, 26.68725
311.2180, 26.50418
311.7001, 26.84188
312.1822, 28.09014
312.6643, 28.99333
313.1464, 28.97050
313.6285, 28.75178
314.1107, 28.95389
314.5928, 29.73804
315.0749, 30.76429
315.5570, 31.58982
316.0391, 32.22070
316.5212, 32.61757
317.0034, 32.54221
317.4855, 32.41398
317.9676, 32.45511
318.4497, 32.68232
318.9318, 32.97855
319.4139, 33.21192
319.8961, 33.36447
320.3782, 33.62369
320.8603, 33.90375
321.3424, 34.39550
321.8245, 35.31498
322.3066, 36.51831
322.7888, 37.66541
323.2709, 38.46440
323.7530, 38.98151
324.2351, 39.66050
324.7172, 40.39042
325.1993, 41.48416
325.6815, 43.09875
326.1636, 45.07536
326.6457, 47.11456
327.1278, 48.96999
327.6099, 51.04015
328.0920, 54.27383
328.5742, 58.70395
329.0563, 64.37162
329.5384, 71.02621
330.0205, 78.87636
330.5026, 88.42054
330.9847, 99.82969
331.4669, 112.0758
331.9490, 124.6422
332.4311, 138.5507
332.9132, 148.2499
333.3953, 153.1317
333.8774, 153.1800
334.3596, 146.8471
334.8417, 134.6462
335.3238, 119.7240
335.8059, 103.7980
336.2880, 86.77595
336.7701, 72.75774
337.2523, 62.85183
337.7344, 55.15814
338.2165, 49.02078
338.6986, 44.24833
339.1807, 40.47884
339.6628, 37.62697
340.1450, 35.58382
340.6271, 33.97264
341.1092, 32.97165
341.5913, 32.08124
342.0735, 30.99058
342.5556, 29.92272
343.0377, 29.19683
343.5198, 28.98928
344.0019, 28.99150
344.4840, 28.67252
344.9662, 27.93028
345.4483, 27.30742
345.9304, 27.05236
346.4125, 26.93316
346.8946, 26.81518
347.3767, 26.67480
347.8589, 26.53313
348.3410, 26.40202
348.8231, 26.28157
349.3052, 26.19868
349.7873, 26.17809
350.2694, 26.17386
350.7516, 26.07131
351.2337, 25.92662
351.7158, 25.97338
352.1979, 26.42890
352.6800, 27.18970
353.1621, 27.91016
353.6443, 28.55878
354.1264, 29.22797
354.6085, 29.83105
355.0906, 30.51135
355.5727, 31.51074
356.0548, 32.88197
356.5370, 34.63779
357.0191, 36.87228
357.5012, 39.60081
357.9833, 42.50923
358.4654, 45.78522
358.9475, 48.96672
359.4297, 51.77718
359.9118, 54.41713
360.3939, 55.65845
360.8760, 54.21983
361.3581, 50.46095
361.8402, 45.97422
362.3224, 40.59211
362.8045, 35.45703
363.2866, 31.77243
363.7687, 29.41854
364.2508, 27.57692
364.7329, 25.99770
365.2151, 24.69855
365.6972, 23.73733
366.1793, 23.13744
366.6614, 22.74059
367.1435, 22.47781
367.6256, 22.33278
368.1078, 22.25523
368.5899, 22.31531
369.0720, 22.37730
369.5541, 22.28654
370.0362, 22.07308
370.5183, 21.94845
371.0005, 22.04394
371.4826, 22.26121
371.9647, 22.37393
372.4468, 22.35475
372.9289, 22.31533
373.4110, 22.35500
373.8932, 22.39326
374.3753, 22.21335
374.8574, 21.72223
375.3395, 21.23609
375.8216, 21.18996
376.3037, 21.63332
376.7859, 22.07882
377.2680, 22.52769
377.7501, 22.93056
378.2322, 23.24036
378.7143, 23.45805
379.1964, 23.61157
379.6786, 23.70023
380.1607, 23.73866
380.6428, 23.88646
381.1249, 24.29603
381.6070, 24.63003
382.0891, 24.70981
382.5713, 24.63773
383.0534, 24.61527
383.5355, 24.73184
384.0176, 24.92171
384.4997, 25.04391
384.9818, 25.04885
385.4640, 25.06280
385.9461, 25.01757
386.4282, 25.02631
386.9103, 25.26816
387.3924, 25.72432
387.8745, 26.12523
388.3567, 26.14105
388.8388, 25.67225
389.3209, 25.55046
389.8030, 26.01768
390.2851, 26.52382
390.7672, 26.85245
391.2494, 27.06011
391.7315, 27.26280
392.2136, 27.51526
392.6957, 27.86418
393.1778, 28.49726
393.6599, 29.69123
394.1421, 30.79116
394.6242, 31.50114
395.1063, 32.23588
395.5884, 33.39870
396.0706, 35.07696
396.5527, 36.99382
397.0348, 38.76037
397.5169, 40.24059
397.9990, 42.07703
398.4811, 44.19112
398.9633, 46.73830
399.4454, 49.89797
399.9275, 53.56380
400.4096, 57.51019
400.8917, 61.56208
401.3738, 65.76329
401.8560, 70.41508
402.3381, 76.04815
402.8202, 81.08472
403.3023, 85.71745
403.7844, 89.31839
404.2665, 91.28856
404.7487, 91.46497
405.2308, 89.84876
405.7129, 86.11470
406.1950, 80.15231
406.6771, 73.69971
407.1592, 66.55537
407.6414, 59.55035
408.1235, 53.10944
408.6056, 47.27206
409.0877, 42.13642
409.5698, 37.73496
410.0519, 34.10157
410.5341, 31.43124
411.0162, 29.91141
411.4983, 28.68942
411.9804, 27.29314
412.4625, 25.85910
412.9446, 24.64004
413.4268, 23.72415
413.9089, 22.94955
414.3910, 22.13844
414.8731, 21.34149
415.3552, 20.84894
415.8373, 20.85331
416.3195, 21.03471
416.8016, 20.90232
417.2837, 20.44983
417.7658, 20.01556
418.2479, 19.67414
418.7300, 19.40533
419.2122, 19.20218
419.6943, 19.06020
420.1764, 18.92945
420.6585, 18.77638
421.1406, 18.59976
421.6227, 18.40666
422.1049, 18.13943
422.5870, 17.91730
423.0691, 17.81784
423.5512, 17.79085
424.0333, 17.72822
424.5154, 17.58388
424.9976, 17.43075
425.4797, 17.39762
425.9618, 17.45498
426.4439, 17.72906
426.9260, 18.67762
427.4081, 19.48614
427.8903, 19.46355
428.3724, 18.68409
428.8545, 17.74198
429.3366, 17.09915
429.8187, 16.74847
430.3008, 16.59431
430.7830, 16.80075
431.2651, 17.03787
431.7472, 17.30071
432.2293, 17.54941
432.7114, 17.72439
433.1935, 17.80595
433.6757, 17.85480
434.1578, 17.98970
434.6399, 18.26626
435.1220, 18.42970
435.6041, 18.33555
436.0862, 18.22758
436.5684, 18.15143
437.0505, 18.15211
437.5326, 18.32634
438.0147, 18.77124
438.4968, 19.43124
438.9789, 20.13200
439.4611, 20.91150
439.9432, 21.63304
440.4253, 22.24473
440.9074, 22.77218
441.3895, 23.22267
441.8716, 23.59264
442.3538, 23.92623
442.8359, 24.18854
443.3180, 24.41957
443.8001, 24.88904
444.2822, 25.77409
444.7643, 26.68245
445.2465, 27.12364
445.7286, 27.21917
446.2107, 27.50739
446.6928, 28.18593
447.1749, 29.08928
447.6570, 30.04112
448.1392, 31.04583
448.6213, 32.20056
449.1034, 33.53000
449.5855, 35.06291
450.0677, 36.89190
450.5498, 39.01408
451.0319, 41.35044
451.5140, 43.64982
451.9961, 46.25646
452.4782, 49.46812
452.9604, 53.37777
453.4425, 58.14656
453.9246, 63.99529
454.4067, 70.99753
454.8888, 78.39216
455.3709, 86.57346
455.8531, 94.60121
456.3352, 102.7667
456.8173, 110.4000
457.2994, 116.8361
457.7815, 121.7492
458.2636, 124.6390
458.7458, 124.3556
459.2279, 120.0459
459.7100, 114.1089
460.1921, 105.8322
460.6742, 96.84553
461.1563, 87.58881
461.6385, 78.38488
462.1206, 69.89350
462.6027, 62.61312
463.0848, 56.45256
463.5669, 50.92556
464.0490, 45.99887
464.5312, 41.87993
465.0133, 38.94117
465.4954, 36.64648
465.9775, 34.48677
466.4596, 32.33210
466.9417, 30.35469
467.4239, 28.65798
467.9060, 27.25298
468.3881, 26.24520
468.8702, 25.80298
469.3523, 25.45600
469.8344, 24.74586
470.3166, 23.80099
470.7987, 23.00550
471.2808, 22.51288
471.7629, 22.16291
472.2450, 21.84018
472.7271, 21.54457
473.2093, 21.27998
473.6914, 21.05407
474.1735, 20.84965
474.6556, 20.62866
475.1377, 20.37845
475.6198, 20.15595
476.1020, 20.00677
476.5841, 19.86300
477.0662, 19.64611
477.5483, 19.36395
478.0304, 19.08587
478.5125, 18.85761
478.9947, 18.68371
479.4768, 18.61428
479.9589, 18.86827
480.4410, 18.95643
480.9231, 18.61070
481.4052, 18.17547
481.8874, 18.06687
482.3695, 18.35509
482.8516, 18.70818
483.3337, 18.67253
483.8158, 18.16948
484.2979, 17.95321
484.7801, 18.23883
485.2622, 18.58506
485.7443, 18.86339
486.2264, 19.09306
486.7085, 19.32111
487.1906, 19.57315
487.6728, 19.80961
488.1549, 19.93483
488.6370, 19.93480
489.1191, 20.07599
489.6012, 20.54595
490.0833, 21.03015
490.5655, 21.23154
491.0476, 21.18594
491.5297, 21.13605
492.0118, 21.20077
492.4939, 21.30202
492.9760, 21.33856
493.4582, 21.31067
493.9403, 21.26887
494.4224, 21.23618
494.9045, 21.20830
495.3866, 21.18974
495.8687, 21.23984
496.3509, 21.15995
496.8330, 20.79222
497.3151, 20.33512
497.7972, 20.03536
498.2793, 19.90032
498.7614, 19.71650
499.2436, 19.27599
499.7257, 18.60517
500.2078, 18.16187
500.6899, 18.15240
501.1720, 18.12197
501.6541, 17.92758
502.1363, 17.71225
502.6184, 17.67373
503.1005, 17.84562
503.5826, 18.03854
504.0647, 17.96664
504.5468, 17.57963
505.0290, 17.44576
505.5111, 17.78785
505.9932, 18.11364
506.4753, 18.22510
506.9575, 18.19632
507.4396, 18.10485
507.9217, 17.92353
508.4038, 17.87388
508.8859, 18.38800
509.3680, 19.42007
509.8502, 20.10339
510.3323, 20.16063
510.8144, 19.96097
511.2965, 19.73492
511.7786, 19.51877
512.2607, 19.58510
512.7429, 20.28135
513.2250, 21.06426
513.7071, 21.38227
514.1892, 21.34900
514.6713, 21.46856
515.1534, 21.95409
515.6356, 22.74636
516.1177, 23.74954
516.5998, 25.10888
517.0819, 26.38321
517.5640, 27.33145
518.0461, 28.38008
518.5283, 29.93989
519.0104, 31.88893
519.4925, 33.87584
519.9746, 35.74616
520.4567, 37.27246
520.9388, 37.53153
521.4210, 35.85463
521.9031, 34.11637
522.3852, 32.58898
522.8673, 31.04315
523.3494, 29.23984
523.8315, 27.22467
524.3137, 25.30939
524.7958, 23.74098
525.2779, 22.47173
525.7600, 21.37718
526.2421, 20.47828
526.7242, 19.67836
527.2064, 18.88629
527.6885, 18.20948
528.1706, 17.81186
528.6527, 17.75167
529.1348, 17.71715
529.6169, 17.55770
530.0991, 17.31829
530.5812, 17.04416
531.0633, 16.74315
531.5454, 16.48835
532.0275, 16.31703
532.5096, 16.23851
532.9918, 16.32594
533.4739, 16.72311
533.9560, 17.07265
534.4381, 17.30757
534.9202, 17.45561
535.4023, 17.53689
535.8845, 17.56059
536.3666, 17.53871
536.8487, 17.47203
537.3308, 17.36063
537.8129, 17.31417
538.2950, 17.33937
538.7772, 17.42842
539.2593, 17.57433
539.7414, 17.78903
540.2235, 18.05603
540.7056, 18.40150
541.1877, 18.79944
541.6699, 19.25886
542.1520, 19.76548
542.6341, 20.19171
543.1162, 20.44461
543.5983, 20.82025
544.0804, 21.49023
544.5626, 22.42094
545.0447, 23.59705
545.5268, 25.11152
546.0089, 26.68777
546.4910, 28.19880
546.9731, 29.66111
547.4553, 31.17073
547.9374, 32.76278
548.4195, 34.13781
548.9016, 35.03704
549.3837, 35.46284
549.8658, 35.38760
550.3480, 34.94963
550.8301, 33.94917
551.3122, 31.84614
551.7943, 29.36841
552.2764, 27.36553
552.7585, 26.07328
553.2407, 25.18524
553.7228, 24.34601
554.2049, 23.54273
554.6870, 23.04369
555.1691, 23.06886
555.6512, 23.09533
556.1334, 22.81167
556.6155, 22.46905
557.0976, 22.40981
557.5797, 22.74308
558.0618, 23.21926
558.5439, 23.63324
559.0261, 24.00497
559.5082, 24.46224
559.9903, 25.06868
560.4724, 25.55252
560.9545, 25.76625
561.4366, 25.66224
561.9188, 25.17447
562.4009, 23.93386
562.8830, 22.77413
563.3651, 22.05328
563.8472, 21.57423
564.3293, 21.05621
564.8115, 20.44414
565.2936, 19.88520
565.7757, 19.55845
566.2578, 19.46420
566.7399, 19.10939
567.2220, 18.06771
567.7042, 17.27911
568.1863, 17.11091
568.6684, 17.15395
569.1505, 16.99496
569.6326, 16.54765
570.1147, 16.00755
570.5969, 15.50662
571.0790, 15.06098
571.5611, 14.79567
572.0432, 14.74794
572.5253, 14.78062
573.0074, 14.90207
573.4896, 15.02753
573.9717, 15.00629
574.4538, 14.77092
574.9359, 14.59118
575.4180, 14.70101
575.9001, 14.89357
576.3823, 14.83069
576.8644, 14.49788
577.3465, 14.18886
577.8286, 14.12037
578.3107, 14.23967
578.7928, 14.28711
579.2750, 14.16673
579.7571, 14.09959
580.2392, 14.07365
580.7213, 14.12162
581.2034, 14.37903
581.6855, 14.76533
582.1677, 14.95856
582.6498, 14.65278
583.1319, 14.03535
583.6140, 13.79341
584.0961, 14.04908
584.5782, 14.25685
585.0604, 14.19912
585.5425, 14.09008
586.0246, 14.16530
586.5067, 14.40542
586.9889, 14.50359
587.4710, 14.16697
587.9531, 13.72443
588.4352, 13.58327
588.9174, 13.70633
589.3995, 13.82099
589.8816, 13.80163
590.3637, 13.74369
590.8458, 13.83009
591.3279, 14.17600
591.8101, 14.32681
592.2922, 14.11590
592.7743, 13.87779
593.2564, 13.77633
593.7385, 13.78309
594.2206, 13.81746
594.7028, 13.84263
595.1849, 13.87964
595.6670, 14.00585
596.1491, 14.26013
596.6312, 14.29862
597.1133, 13.92876
597.5955, 13.56042
598.0776, 13.35399
598.5597, 13.31326
599.0418, 13.47758
599.5239, 13.94859
600.0060, 14.41797
600.4882, 14.65349
600.9703, 14.70006
601.4524, 14.64876
601.9345, 14.51395
602.4166, 14.34551
602.8987, 14.17314
603.3809, 14.00151
603.8630, 13.91327
604.3451, 13.94518
604.8272, 14.00007
605.3093, 14.07642
605.7914, 14.15734
606.2736, 14.25124
606.7557, 14.34292
607.2378, 14.36886
607.7199, 14.25690
608.2020, 14.04196
608.6841, 13.90174
609.1663, 13.85857
609.6484, 13.82376
610.1305, 13.68873
610.6126, 13.61553
611.0947, 13.81730
611.5768, 14.28028
612.0590, 14.62501
612.5411, 14.64283
613.0232, 14.49587
613.5053, 14.31349
613.9874, 14.11904
614.4695, 13.99666
614.9517, 13.98903
615.4338, 14.03166
615.9159, 14.00823
616.3980, 13.86076
616.8801, 13.85433
617.3622, 14.14703
617.8444, 14.39653
618.3265, 14.43943
618.8086, 14.34888
619.2907, 14.22069
619.7728, 14.09279
620.2549, 14.02795
620.7371, 14.14712
621.2192, 14.44020
621.7013, 14.64544
622.1834, 14.73186
622.6655, 14.77097
623.1476, 14.75283
623.6298, 14.72963
624.1119, 14.79808
624.5940, 14.99794
625.0761, 15.19241
625.5582, 15.28677
626.0403, 15.35832
626.5225, 15.53488
627.0046, 15.80533
627.4867, 16.01896
627.9688, 16.07414
628.4509, 16.01864
628.9330, 16.01438
629.4152, 16.13529
629.8973, 16.17074
630.3794, 16.01711
630.8615, 15.87809
631.3436, 15.83320
631.8257, 15.89952
632.3079, 16.12332
632.7900, 16.59273
633.2721, 17.05157
633.7542, 17.03922
634.2363, 16.62277
634.7184, 16.44220
635.2006, 16.67254
635.6827, 17.00056
636.1648, 17.15572
636.6469, 17.16155
637.1290, 17.22796
637.6111, 17.34888
638.0933, 17.53941
638.5754, 17.80482
639.0575, 18.14086
639.5396, 18.60422
640.0217, 19.16203
640.5038, 19.64067
640.9860, 19.89583
641.4681, 19.96078
641.9502, 19.98610
642.4323, 19.91113
642.9144, 19.94888
643.3965, 20.29748
643.8787, 20.65368
644.3608, 20.86235
644.8429, 20.90550
645.3250, 20.75815
645.8071, 20.34007
646.2892, 19.78881
646.7714, 19.18666
647.2535, 18.56407
647.7356, 18.02598
648.2177, 17.60719
648.6998, 17.26369
649.1819, 16.96684
649.6641, 16.72108
650.1462, 16.40644
650.6283, 15.92618
651.1104, 15.49904
651.5925, 15.13460
652.0746, 14.86590
652.5568, 14.78278
653.0389, 14.86078
653.5210, 14.90132
654.0031, 14.66845
654.4852, 14.31293
654.9673, 14.35812
655.4495, 14.86202
655.9316, 15.08834
656.4137, 14.67275
656.8958, 14.01781
657.3779, 13.61986
657.8600, 13.46664
658.3422, 13.40878
658.8243, 13.51498
659.3064, 13.62237
659.7885, 13.60218
660.2706, 13.53512
660.7527, 13.59177
661.2349, 13.80657
661.7170, 14.00741
662.1991, 13.97693
662.6812, 13.72887
663.1633, 13.59121
663.6454, 13.57971
664.1276, 13.64679
664.6097, 13.85113
665.0918, 14.08014
665.5739, 14.25034
666.0560, 14.35409
666.5381, 14.38590
667.0203, 14.24973
667.5024, 14.11012
667.9845, 14.21249
668.4666, 14.47366
668.9487, 14.59697
669.4308, 14.47194
669.9130, 14.18659
670.3951, 13.82315
670.8772, 13.34297
671.3593, 13.10091
671.8414, 13.26701
672.3235, 13.47979
672.8057, 13.76953
673.2878, 14.00784
673.7699, 14.02472
674.2520, 13.81278
674.7341, 13.58487
675.2162, 13.45287
675.6984, 13.43244
676.1805, 13.62751
676.6626, 14.02661
677.1447, 14.29660
677.6268, 14.29621
678.1089, 14.15521
678.5911, 14.04930
679.0732, 13.99181
679.5553, 13.88294
680.0374, 13.62868
680.5195, 13.43143
681.0016, 13.37638
681.4838, 13.41748
681.9659, 13.50303
682.4480, 13.61682
682.9301, 13.76325
683.4122, 13.99309
683.8943, 14.25124
684.3765, 14.27838
684.8586, 14.02522
685.3407, 13.83715
685.8228, 13.86383
686.3049, 13.97025
686.7870, 13.99090
687.2692, 13.92960
687.7513, 13.85592
688.2334, 13.72000
688.7155, 13.63785
689.1976, 13.68156
689.6797, 13.81666
690.1619, 14.04566
690.6440, 14.33963
691.1261, 14.52906
691.6082, 14.41577
692.0903, 14.05003
692.5724, 13.78535
693.0546, 13.63660
693.5367, 13.54949
694.0188, 13.53056
694.5009, 13.55231
694.9830, 13.56574
695.4651, 13.58284
695.9473, 13.70028
696.4294, 14.14599
696.9116, 14.50247
697.3937, 14.36450
697.8758, 13.96817
698.3579, 13.75405
698.8400, 13.81856
699.3221, 13.97264
699.8043, 14.04175
700.2864, 14.03790
700.7685, 14.06008
701.2506, 14.15508
701.7327, 14.17595
702.2148, 13.98295
702.6970, 13.79820
703.1791, 13.78780
703.6612, 13.91779
704.1433, 14.03309
704.6254, 14.10734
705.1075, 14.10656
705.5897, 13.93694
706.0718, 13.68600
706.5539, 13.52695
707.0360, 13.49427
707.5181, 13.57485
708.0002, 13.78551
708.4824, 14.07261
708.9645, 14.14864
709.4466, 13.81290
709.9287, 13.65184
710.4108, 13.93173
710.8929, 14.19141
711.3751, 14.11898
711.8572, 13.82101
712.3393, 13.58697
712.8214, 13.50637
713.3035, 13.55222
713.7856, 13.84497
714.2678, 14.21192
714.7499, 14.23615
715.2320, 13.87935
715.7141, 13.45350
716.1962, 13.13393
716.6783, 12.95358
717.1605, 13.04068
717.6426, 13.67553
718.1247, 14.02619
718.6068, 13.86989
719.0889, 13.67589
719.5710, 13.64702
720.0532, 13.72719
720.5353, 13.80205
721.0174, 13.83701
721.4995, 13.86711
721.9816, 13.93802
722.4637, 14.01816
722.9459, 14.05693
723.4280, 14.04783
723.9101, 13.95046
724.3922, 13.72240
724.8743, 13.46772
725.3564, 13.38954
725.8386, 13.54519
726.3207, 13.67091
726.8028, 13.77100
727.2849, 13.83819
727.7670, 13.87121
728.2491, 13.86972
728.7313, 13.78521
729.2134, 13.62256
729.6955, 13.57591
730.1776, 13.91852
730.6597, 14.38603
731.1418, 14.54891
731.6240, 14.44091
732.1061, 14.27984
732.5882, 14.13452
733.0703, 14.00338
733.5524, 13.86703
734.0345, 13.71789
734.5167, 13.74945
734.9988, 14.22595
735.4809, 14.53825
735.9630, 14.56081
736.4451, 14.41129
736.9272, 14.05348
737.4094, 13.58508
737.8915, 13.36305
738.3736, 13.69235
738.8557, 14.18624
739.3378, 14.43815
739.8199, 14.50087
740.3021, 14.54773
740.7842, 14.61318
741.2663, 14.59108
741.7484, 14.36254
742.2305, 14.00360
742.7126, 13.90025
743.1948, 14.27381
743.6769, 14.50009
744.1590, 14.49487
744.6411, 14.39379
745.1232, 14.21154
745.6053, 13.99550
746.0875, 13.81259
746.5696, 13.66808
747.0517, 13.63189
747.5338, 13.84730
748.0159, 14.16965
748.4980, 14.37101
748.9802, 14.43370
749.4623, 14.37621
749.9444, 14.19445
750.4265, 13.97488
750.9086, 13.88009
751.3907, 13.93662
751.8729, 13.99469
752.3550, 14.09043
752.8371, 14.13858
753.3192, 14.05981
753.8013, 13.95369
754.2834, 13.92148
754.7656, 13.97594
755.2477, 14.09119
755.7298, 14.34200
756.2119, 14.57446
756.6940, 14.58687
757.1761, 14.47058
757.6583, 14.47406
758.1404, 14.65748
758.6225, 14.85022
759.1046, 14.89032
759.5867, 14.78798
760.0688, 14.56779
760.5510, 14.08109
761.0331, 13.88597
761.5152, 14.29481
761.9973, 14.82029
762.4794, 15.17306
762.9615, 15.35665
763.4437, 15.37756
763.9258, 15.12423
764.4079, 14.90971
764.8900, 14.94397
765.3721, 15.05910
765.8542, 15.04101
766.3364, 14.90933
766.8185, 14.84617
767.3006, 14.95700
767.7827, 15.10039
768.2648, 14.96217
768.7469, 14.52317
769.2291, 14.36998
769.7112, 14.62293
770.1933, 14.90412
770.6754, 15.03376
771.1575, 15.08449
771.6396, 15.21090
772.1218, 15.45062
772.6039, 15.50746
773.0860, 15.08395
773.5681, 14.73596
774.0502, 14.85947
774.5323, 15.19508
775.0145, 15.34399
775.4966, 15.24202
775.9787, 15.14561
776.4608, 15.29693
776.9429, 15.57436
777.4250, 15.69164
777.9072, 15.65076
778.3893, 15.52542
778.8714, 15.30039
779.3535, 15.11511
779.8356, 15.11510
780.3177, 15.26453
780.7999, 15.31802
781.2820, 15.14750
781.7641, 15.06819
782.2462, 15.21056
782.7283, 15.33992
783.2104, 15.23331
783.6926, 15.01529
784.1747, 14.97774
784.6568, 15.23903
785.1389, 15.53885
785.6210, 15.66006
786.1031, 15.65244
786.5853, 15.58727
787.0674, 15.47879
787.5495, 15.38262
788.0316, 15.32390
788.5137, 15.27849
788.9958, 15.19134
789.4780, 15.04496
789.9601, 15.12680
790.4422, 15.68343
790.9243, 16.07022
791.4064, 15.99730
791.8885, 15.81117
792.3707, 15.80854
792.8528, 15.96088
793.3349, 16.01897
793.8170, 15.82895
794.2991, 15.62227
794.7813, 15.48226
795.2634, 15.44367
795.7455, 15.62539
796.2276, 15.97982
796.7097, 16.25998
797.1918, 16.31258
797.6740, 16.23879
798.1561, 16.25052
798.6382, 16.35485
799.1203, 16.32062
799.6024, 16.05666
800.0845, 15.88620
800.5667, 16.02907
801.0488, 16.31778
801.5309, 16.44629
802.0130, 16.39802
802.4951, 16.33980
802.9772, 16.22817
803.4594, 16.17599
803.9415, 16.23007
804.4236, 16.37081
804.9057, 16.66484
805.3878, 17.05498
805.8699, 17.22915
806.3521, 16.83610
806.8342, 16.31795
807.3163, 16.45412
807.7985, 17.07647
808.2806, 17.49749
808.7627, 17.59319
809.2448, 17.44126
809.7269, 17.02525
810.2090, 16.51502
810.6912, 16.46671
811.1733, 17.18179
811.6554, 17.63883
812.1375, 17.63173
812.6196, 17.59637
813.1017, 17.73228
813.5839, 17.91751
814.0660, 17.96404
814.5481, 17.84164
815.0302, 17.76042
815.5123, 17.82464
815.9944, 17.94954
816.4766, 18.13333
816.9587, 18.30729
817.4408, 18.28890
817.9229, 18.07882
818.4050, 17.96326
818.8871, 18.22091
819.3693, 18.10865
819.8514, 18.72685
820.3335, 18.37610
820.8156, 18.32374
821.2977, 18.77341
821.7798, 19.24026
822.2620, 19.39424
822.7441, 19.33344
823.2262, 19.33927
823.7083, 19.40997
824.1904, 19.55227
824.6725, 19.82223
825.1547, 20.10280
825.6368, 20.28693
826.1189, 20.47585
826.6010, 20.86810
827.0831, 21.47232
827.5652, 21.96914
828.0474, 21.99694
828.5295, 21.92993
829.0116, 22.25615
829.4937, 22.84506
829.9758, 23.38150
830.4579, 23.79331
830.9401, 24.10543
831.4222, 24.31167
831.9043, 24.50558
832.3864, 25.00103
832.8685, 25.86072
833.3506, 26.70649
833.8328, 27.55246
834.3149, 28.29279
834.7970, 28.75054
835.2791, 29.11573
835.7612, 29.73422
836.2433, 30.64759
836.7255, 31.56844
837.2076, 32.27056
837.6897, 33.16798
838.1718, 34.59145
838.6539, 36.24596
839.1360, 37.75145
839.6182, 39.08033
840.1003, 40.50501
840.5824, 42.22139
841.0645, 44.08216
841.5466, 45.81834
842.0287, 47.53916
842.5109, 49.54431
842.9930, 51.88079
843.4751, 54.54295
843.9572, 57.56463
844.4393, 60.69739
844.9214, 63.28039
845.4036, 65.12138
845.8857, 67.46499
846.3678, 70.60301
846.8499, 73.74780
847.3320, 76.81919
847.8141, 79.59415
848.2963, 81.76814
848.7784, 83.35738
849.2605, 84.91062
849.7426, 86.67937
850.2247, 88.23311
850.7068, 89.22340
851.1890, 90.04684
851.6711, 91.17065
852.1532, 92.51063
852.6353, 93.66091
853.1174, 94.42644
853.5995, 94.94477
854.0817, 95.28550
854.5638, 95.52634
855.0459, 96.05143
855.5280, 96.79387
856.0101, 96.91829
856.4922, 96.08810
856.9744, 94.53510
857.4565, 92.53622
857.9386, 90.08695
858.4207, 87.26317
858.9028, 83.95486
859.3849, 80.53594
859.8671, 76.97202
860.3492, 73.44827
860.8313, 70.08451
861.3134, 66.86961
861.7955, 63.74707
862.2776, 60.71181
862.7598, 57.78710
863.2419, 54.85128
863.7240, 52.17522
864.2061, 50.06074
864.6882, 48.28695
865.1703, 46.41399
865.6525, 44.34961
866.1346, 42.44624
866.6167, 40.99065
867.0988, 39.83752
867.5809, 38.88225
868.0630, 38.03999
868.5452, 36.94578
869.0273, 35.54679
869.5094, 34.34030
869.9915, 33.71267
870.4736, 33.44357
870.9557, 32.95109
871.4379, 32.17598
871.9200, 31.49611
872.4021, 30.91575
872.8842, 30.45216
873.3663, 30.15777
873.8484, 29.94975
874.3306, 29.72745
874.8127, 29.49263
875.2948, 29.21493
875.7769, 28.83812
876.2590, 28.48998
876.7411, 28.20761
877.2233, 27.97124
877.7054, 27.82799
878.1875, 27.71336
878.6696, 27.42904
879.1517, 26.84722
879.6339, 26.31979
880.1160, 26.18968
880.5981, 26.24555
881.0802, 26.26431
881.5623, 26.19693
882.0444, 25.87579
882.5266, 25.27207
883.0087, 24.78904
883.4908, 24.90976
883.9729, 25.44598
884.4550, 25.60519
884.9371, 25.35772
885.4193, 25.25530
885.9014, 25.42691
886.3835, 25.64522
886.8656, 25.73116
887.3477, 26.01834
887.8298, 25.99645
888.3120, 26.53969
888.7941, 26.94953
889.2762, 27.21484
889.7583, 27.36188
890.2404, 27.14096
890.7225, 26.97939
891.2047, 27.45474
891.6868, 28.50042
892.1689, 29.29939
892.6510, 29.40672
893.1331, 29.45430
893.6152, 29.75010
894.0974, 30.15764
894.5795, 30.53123
895.0616, 30.88318
895.5437, 31.29468
896.0258, 31.80221
896.5079, 32.36217
896.9901, 32.95409
897.4722, 33.55359
897.9543, 34.01791
898.4364, 34.40236
898.9185, 35.10612
899.4006, 36.23903
899.8828, 37.38293
900.3649, 38.16037
900.8470, 38.68663
901.3291, 39.38930
901.8112, 40.28909
902.2933, 41.26421
902.7755, 42.33306
903.2576, 43.40817
903.7397, 44.38121
904.2218, 45.38055
904.7039, 46.68807
905.1860, 48.38000
905.6682, 49.74760
906.1503, 50.40364
906.6324, 51.22854
907.1145, 52.49070
907.5966, 53.96040
908.0787, 55.48867
908.5609, 57.05947
909.0430, 58.68756
909.5251, 60.39650
910.0072, 62.07780
910.4893, 63.60918
910.9714, 65.13188
911.4536, 66.72590
911.9357, 68.44305
912.4178, 70.38879
912.8999, 72.57809
913.3820, 74.85784
913.8641, 77.08383
914.3463, 79.36203
914.8284, 81.94111
915.3105, 84.75258
915.7926, 87.48913
916.2748, 90.09959
916.7569, 92.76647
917.2390, 95.54612
917.7211, 98.67883
918.2032, 102.7334
918.6854, 107.7388
919.1675, 112.2648
919.6496, 116.1190
920.1317, 120.0715
920.6138, 124.5542
921.0959, 128.9063
921.5781, 132.4991
922.0602, 135.4782
922.5423, 138.5755
923.0244, 142.3584
923.5065, 145.2317
923.9886, 146.7349
924.4708, 147.7697
924.9529, 148.7159
925.4350, 149.4311
925.9171, 149.8344
926.3992, 149.8616
926.8813, 149.1062
927.3635, 147.3956
927.8456, 144.8764
928.3277, 141.2837
928.8098, 137.1758
929.2919, 133.0086
929.7740, 128.9098
930.2562, 124.9487
930.7383, 121.1775
931.2204, 117.3179
931.7025, 112.9041
932.1846, 108.3128
932.6667, 104.3409
933.1489, 100.8495
933.6310, 97.32860
934.1131, 93.67028
934.5952, 90.13048
935.0773, 86.90688
935.5594, 83.91237
936.0416, 81.06917
936.5237, 78.37526
937.0058, 75.46159
937.4879, 72.29902
937.9700, 68.93236
938.4521, 65.23338
938.9343, 61.68272
939.4164, 58.88500
939.8985, 56.79168
940.3806, 54.52625
940.8627, 51.85807
941.3448, 49.48696
941.8270, 47.57852
942.3091, 45.86539
942.7912, 44.26575
943.2733, 42.75596
943.7554, 41.31492
944.2375, 39.95494
944.7197, 38.56524
945.2018, 36.97467
945.6839, 35.54811
946.1660, 34.42658
946.6481, 33.53350
947.1302, 32.89769
947.6124, 32.41526
948.0945, 31.84362
948.5766, 31.09721
949.0587, 30.25946
949.5408, 29.31565
950.0229, 28.35409
950.5051, 27.35293
950.9872, 26.43239
951.4693, 25.87552
951.9514, 25.67243
952.4335, 25.45843
952.9156, 24.97355
953.3978, 24.37604
953.8799, 23.90418
954.3620, 23.50052
954.8441, 22.96410
955.3262, 22.31417
955.8083, 21.78294
956.2905, 21.46268
956.7726, 21.23313
957.2547, 20.95227
957.7368, 20.64998
958.2189, 20.46210
958.7010, 20.39367
959.1832, 20.34603
959.6653, 20.32129
960.1474, 20.21728
960.6295, 19.94709
961.1116, 19.61582
961.5938, 19.43669
962.0759, 19.44388
962.5580, 19.25358
963.0401, 18.74670
963.5222, 18.29023
964.0043, 17.93736
964.4865, 17.68735
964.9686, 17.56264
965.4507, 17.54138
965.9328, 17.55328
966.4149, 17.60312
966.8970, 17.67283
967.3792, 17.87664
967.8613, 17.95886
968.3434, 17.73144
968.8255, 17.40877
969.3076, 17.22664
969.7897, 17.15908
970.2719, 16.98343
970.7540, 16.50996
971.2361, 16.20315
971.7182, 16.49477
972.2003, 16.79480
972.6824, 16.50184
973.1646, 15.95840
973.6467, 15.79734
974.1288, 16.09578
974.6109, 16.36101
975.0930, 16.28792
975.5751, 16.09632
976.0573, 15.94800
976.5394, 15.83608
977.0215, 15.76898
977.5036, 15.72745
977.9857, 15.64140
978.4678, 15.49156
978.9500, 15.38299
979.4321, 15.44887
979.9142, 15.59479
980.3963, 15.56952
980.8784, 15.45866
981.3605, 15.68599
981.8427, 16.25434
982.3248, 16.54762
982.8069, 16.22554
983.2890, 15.63347
983.7711, 15.21644
984.2532, 14.98081
984.7354, 15.01201
985.2175, 15.31965
985.6996, 15.55654
986.1817, 15.64864
986.6638, 15.65769
987.1459, 15.61705
987.6281, 15.54377
988.1102, 15.46407
988.5923, 15.36269
989.0744, 15.37764
989.5565, 15.54572
990.0386, 15.72428
990.5208, 15.88520
991.0029, 16.02384
991.4850, 16.13124
991.9671, 16.21239
992.4492, 16.28753
992.9313, 16.35927
993.4135, 16.41625
993.8956, 16.38604
994.3777, 16.43862
994.8598, 16.64106
995.3419, 16.93863
995.8240, 17.33325
996.3062, 17.79306
996.7883, 18.15117
997.2704, 18.31198
997.7525, 18.51775
998.2346, 18.81790
998.7167, 19.15266
999.1989, 19.58418
999.6810, 19.97877
1000.163, 20.08014
1000.645, 19.93399
1001.127, 20.02518
1001.609, 20.63397
1002.092, 21.28605
1002.574, 21.82004
1003.056, 22.29810
1003.538, 22.70584
1004.020, 23.11355
1004.502, 23.61539
1004.984, 24.23155
1005.466, 24.95507
1005.948, 25.90580
1006.431, 26.78154
1006.913, 27.27400
1007.395, 27.63325
1007.877, 28.26110
1008.359, 28.98748
1008.841, 29.27156
1009.323, 28.99006
1009.805, 28.70356
1010.288, 28.99927
1010.770, 29.33043
1011.252, 28.95300
1011.734, 28.17066
1012.216, 27.52708
1012.698, 27.03772
1013.180, 26.48646
1013.662, 25.78213
1014.144, 24.91887
1014.627, 23.81962
1015.109, 22.61901
1015.591, 21.49546
1016.073, 20.51725
1016.555, 20.01760
1017.037, 19.96449
1017.519, 19.84178
1018.001, 19.39097
1018.484, 18.76822
1018.966, 18.12807
1019.448, 17.50815
1019.930, 17.06743
1020.412, 16.79090
1020.894, 16.49958
1021.376, 16.16555
1021.858, 15.95284
1022.340, 15.97482
1022.823, 16.03337
1023.305, 15.77460
1023.787, 15.24709
1024.269, 14.92623
1024.751, 14.81704
1025.233, 14.83861
1025.715, 15.00710
1026.197, 15.06653
1026.680, 14.83856
1027.162, 14.44884
1027.644, 14.11049
1028.126, 13.82088
1028.608, 13.73825
1029.090, 13.92883
1029.572, 13.99512
1030.054, 13.80637
1030.536, 13.61893
1031.019, 13.61809
1031.501, 13.72066
1031.983, 13.75025
1032.465, 13.69962
1032.947, 13.63669
1033.429, 13.59603
1033.911, 13.43064
1034.393, 12.98025
1034.875, 12.62941
1035.358, 12.70497
1035.840, 13.03842
1036.322, 13.23470
1036.804, 13.27689
1037.286, 13.25542
1037.768, 13.04836
1038.250, 13.00569
1038.732, 13.36534
1039.215, 13.71453
1039.697, 13.76697
1040.179, 13.58607
1040.661, 13.29853
1041.143, 12.81490
1041.625, 12.55429
1042.107, 12.68264
1042.589, 12.80631
1043.072, 12.84221
1043.554, 12.85584
1044.036, 12.95223
1044.518, 13.04853
1045.000, 12.90472
1045.482, 12.40542
1045.964, 12.10651
1046.446, 12.19765
1046.928, 12.28787
1047.411, 12.19359
1047.893, 12.14302
1048.375, 12.41782
1048.857, 12.84325
1049.339, 12.97681
1049.821, 12.71513
1050.303, 12.48710
1050.785, 12.39661
1051.267, 12.29721
1051.750, 12.08377
1052.232, 11.89780
1052.714, 11.87221
1053.196, 11.95700
1053.678, 12.02565
1054.160, 12.05165
1054.642, 12.11938
1055.124, 12.29467
1055.607, 12.45425
1056.089, 12.60732
1056.571, 12.67654
1057.053, 12.55998
1057.535, 12.32323
1058.017, 12.07696
1058.499, 11.82780
1058.981, 11.72589
1059.464, 11.89826
1059.946, 12.12094
1060.428, 12.42969
1060.910, 12.63785
1061.392, 12.48211
1061.874, 12.14262
1062.356, 12.00311
1062.838, 12.14420
1063.320, 12.31638
1063.802, 12.52553
1064.285, 12.62483
1064.767, 12.46237
1065.249, 12.24027
1065.731, 12.10641
1066.213, 12.05482
1066.695, 12.09980
1067.177, 12.23707
1067.659, 12.17759
1068.142, 11.47988
1068.624, 10.98430
1069.106, 11.30434
1069.588, 11.78504
1070.070, 11.86701
1070.552, 11.70335
1071.034, 11.63031
1071.516, 11.71484
1071.999, 11.87626
1072.481, 12.21831
1072.963, 12.44877
1073.445, 12.35194
1073.927, 12.16612
1074.409, 12.08617
1074.891, 12.05791
1075.373, 11.94708
1075.855, 11.74635
1076.338, 11.60694
1076.820, 11.58467
1077.302, 11.64310
1077.784, 11.92738
1078.266, 12.12388
1078.748, 11.84935
1079.230, 11.39520
1079.712, 11.25266
1080.194, 11.43828
1080.677, 11.54734
1081.159, 11.38124
1081.641, 11.21524
1082.123, 11.16659
1082.605, 11.17818
1083.087, 11.18976
1083.569, 11.24759
1084.052, 11.51269
1084.534, 11.90980
1085.016, 12.02109
1085.498, 11.56242
1085.980, 11.23162
1086.462, 11.51287
1086.944, 11.82443
1087.426, 11.77485
1087.908, 11.54920
1088.391, 11.35002
1088.873, 11.20549
1089.355, 11.09074
1089.837, 10.98408
1090.319, 10.97171
1090.801, 11.19481
1091.283, 11.39451
1091.765, 11.41706
1092.247, 11.35192
1092.730, 11.25279
1093.212, 11.15792
1093.694, 11.15832
1094.176, 11.29875
1094.658, 11.33702
1095.140, 10.99034
1095.622, 10.77443
1096.104, 11.09103
1096.587, 11.48595
1097.069, 11.54742
1097.551, 11.38229
1098.033, 11.26543
1098.515, 11.24618
1098.997, 11.22445
1099.479, 11.04822
1099.961, 11.03459
1100.443, 11.47641
1100.926, 11.93001
1101.408, 12.12163
1101.890, 12.09161
1102.372, 11.84623
1102.854, 11.41275
1103.336, 11.18737
1103.818, 11.48510
1104.300, 11.66444
1104.782, 11.48283
1105.265, 11.26512
1105.747, 11.16281
1106.229, 11.13998
1106.711, 11.15264
1107.193, 11.19456
1107.675, 11.25401
1108.157, 11.36669
1108.639, 11.42491
1109.122, 11.31534
1109.604, 11.27303
1110.086, 11.54193
1110.568, 11.79633
1111.050, 11.64686
1111.532, 11.21012
1112.014, 10.95223
1112.496, 10.91752
1112.979, 10.99695
1113.461, 11.38609
1113.943, 11.61588
1114.425, 11.41956
1114.907, 11.18504
1115.389, 11.22818
1115.871, 11.41591
1116.353, 11.44790
1116.835, 11.30133
1117.318, 11.12330
1117.800, 10.73187
1118.282, 10.66460
1118.764, 11.29096
1119.246, 11.81117
1119.728, 11.71007
1120.210, 11.31733
1120.692, 11.12387
1121.174, 11.12533
1121.657, 11.12524
1122.139, 11.11343
1122.621, 11.13077
1123.103, 11.19256
1123.585, 11.24742
1124.067, 11.24539
1124.549, 11.29436
1125.031, 11.57100
1125.514, 11.45201
1125.996, 11.39978
1126.478, 11.40581
1126.960, 11.09875
1127.442, 11.12112
1127.924, 11.04565
1128.406, 10.68627
1128.888, 10.44517
1129.370, 10.67750
1129.853, 11.17232
1130.335, 11.47253
1130.817, 11.57884
1131.299, 11.35943
1131.781, 10.78331
1132.263, 10.58524
1132.745, 10.93400
1133.227, 11.29834
1133.709, 11.37924
1134.192, 11.25749
1134.674, 10.98316
1135.156, 10.64547
1135.638, 10.67775
1136.120, 11.02133
1136.602, 11.18945
1137.084, 11.14811
1137.566, 11.22193
1138.049, 11.53343
1138.531, 11.78479
1139.013, 11.67095
1139.495, 11.36851
1139.977, 11.19932
1140.459, 11.12987
1140.941, 11.04027
1141.423, 10.95661
1141.906, 11.06770
1142.388, 11.37263
1142.870, 11.53112
1143.352, 11.31134
1143.834, 10.99687
1144.316, 10.86988
1144.798, 10.90138
1145.280, 11.17498
1145.762, 11.51771
1146.245, 11.55584
1146.727, 11.31920
1147.209, 11.08148
1147.691, 10.95067
1148.173, 10.95504
1148.655, 11.22618
1149.137, 11.51750
1149.619, 11.61500
1150.101, 11.61125
1150.584, 11.54160
1151.066, 11.48271
1151.548, 11.60731
1152.030, 11.91274
1152.512, 12.10357
1152.994, 11.98181
1153.476, 11.86250
1153.958, 11.87326
1154.441, 11.96620
1154.923, 12.26276
1155.405, 12.51343
1155.887, 12.31444
1156.369, 11.79766
1156.851, 11.54189
1157.333, 11.71999
1157.815, 11.90584
1158.297, 11.97193
1158.780, 12.08147
1159.262, 12.36306
1159.744, 12.62925
1160.226, 12.71501
1160.708, 12.70425
1161.190, 12.78368
1161.672, 12.96952
1162.154, 13.00365
1162.636, 12.67674
1163.119, 12.60924
1163.601, 13.07942
1164.083, 13.39428
1164.565, 13.19134
1165.047, 12.83094
1165.529, 12.69011
1166.011, 12.70838
1166.493, 12.62351
1166.976, 12.38227
1167.458, 12.32745
1167.940, 12.50721
1168.422, 12.65043
1168.904, 12.70948
1169.386, 12.61004
1169.868, 12.27618
1170.350, 11.85837
1170.833, 11.57551
1171.315, 11.44260
1171.797, 11.66077
1172.279, 12.17597
1172.761, 12.32429
1173.243, 12.05982
1173.725, 11.85171
1174.207, 11.88061
1174.689, 11.98676
1175.172, 12.05298
1175.654, 12.02464
1176.136, 11.71853
1176.618, 11.28649
1177.100, 11.05200
1177.582, 11.00790
1178.064, 11.15464
1178.546, 11.42269
1179.028, 11.51616
1179.511, 11.27934
1179.993, 11.03284
1180.475, 11.07202
1180.957, 11.21082
1181.439, 11.32532
1181.921, 11.38436
1182.403, 11.28899
1182.885, 11.13122
1183.368, 11.16536
1183.850, 11.40986
1184.332, 11.45636
1184.814, 10.89610
1185.296, 10.55138
1185.778, 10.97458
1186.260, 11.46430
1186.742, 11.61788
1187.224, 11.59957
1187.707, 11.57825
1188.189, 11.56379
1188.671, 11.52342
1189.153, 11.42116
1189.635, 11.42147
1190.117, 11.62257
1190.599, 11.79750
1191.081, 11.97085
1191.564, 12.02208
1192.046, 11.81183
1192.528, 11.53339
1193.010, 11.47724
1193.492, 11.60140
1193.974, 11.50381
1194.456, 11.07550
1194.938, 11.05404
1195.421, 11.56252
1195.903, 11.96811
1196.385, 12.08631
1196.867, 12.00506
1197.349, 11.76245
1197.831, 11.47703
1198.313, 11.39339
1198.795, 11.45274
1199.277, 11.31075
1199.760, 11.36750
1200.242, 11.07582
1200.724, 11.41637
1201.206, 11.67087
1201.688, 11.69225
1202.170, 11.61752
1202.652, 11.55856
1203.134, 11.45982
1203.616, 11.13556
1204.099, 10.81601
1204.581, 10.89473
1205.063, 11.20267
1205.545, 11.44867
1206.027, 11.56944
1206.509, 11.54524
1206.991, 11.35020
1207.473, 11.24988
1207.956, 11.48898
1208.438, 11.72278
1208.920, 11.80955
1209.402, 11.78397
1209.884, 11.59442
1210.366, 11.35839
1210.848, 11.25735
1211.330, 11.29024
1211.813, 11.30493
1212.295, 11.30568
1212.777, 11.24400
1213.259, 10.99323
1213.741, 10.89623
1214.223, 11.16805
1214.705, 11.39978
1215.187, 11.23618
1215.669, 10.95765
1216.151, 11.13879
1216.634, 10.96327
1217.116, 10.92561
1217.598, 11.10525
1218.080, 10.96425
1218.562, 11.46142
1219.044, 11.79802
1219.526, 11.69140
1220.008, 11.53134
1220.491, 11.64548
1220.973, 11.83606
1221.455, 11.69570
1221.937, 11.39469
1222.419, 11.41285
1222.901, 11.63106
1223.383, 11.72043
1223.865, 11.66179
1224.348, 11.58658
1224.830, 11.54096
1225.312, 11.48250
1225.794, 11.35555
1226.276, 11.25651
1226.758, 11.29523
1227.240, 11.35684
1227.722, 11.33429
1228.204, 11.27501
1228.687, 11.21555
1229.169, 11.18660
1229.651, 11.26620
1230.133, 11.48760
1230.615, 11.70309
1231.097, 11.94121
1231.579, 12.08917
1232.061, 12.16447
1232.543, 12.08399
1233.026, 11.66206
1233.508, 11.23990
1233.990, 11.23556
1234.472, 11.53835
1234.954, 11.68921
1235.436, 11.67107
1235.918, 11.58957
1236.400, 11.42628
1236.883, 11.42005
1237.365, 11.62664
1237.847, 11.84471
1238.329, 11.97188
1238.811, 11.97863
1239.293, 11.78275
1239.775, 11.53000
1240.257, 11.54932
1240.740, 11.73635
1241.222, 11.87214
1241.704, 11.95150
1242.186, 12.02491
1242.668, 12.08702
1243.150, 12.06778
1243.632, 11.93396
1244.114, 11.75373
1244.596, 11.42957
1245.078, 11.25414
1245.561, 11.54857
1246.043, 11.93599
1246.525, 12.17152
1247.007, 12.24021
1247.489, 12.07148
1247.971, 11.72365
1248.453, 11.58745
1248.935, 11.86420
1249.418, 11.93913
1249.900, 11.63684
1250.382, 11.46441
1250.864, 11.55017
1251.346, 11.74014
1251.828, 11.99521
1252.310, 12.19553
1252.792, 12.15787
1253.275, 12.25992
1253.757, 11.94470
1254.239, 12.09151
1254.721, 11.95605
1255.203, 11.57267
1255.685, 11.41835
1256.167, 11.57326
1256.649, 11.74262
1257.131, 11.77341
1257.614, 11.76526
1258.096, 11.82445
1258.578, 11.88814
1259.060, 11.86496
1259.542, 11.81835
1260.024, 11.81153
1260.506, 11.84832
1260.988, 11.96181
1261.470, 12.11643
1261.953, 12.17011
1262.435, 12.07244
1262.917, 11.93444
1263.399, 11.72997
1263.881, 11.56658
1264.363, 11.37586
1264.845, 11.36083
1265.327, 11.72997
1265.810, 12.20790
1266.292, 12.52330
1266.774, 12.66494
1267.256, 12.53666
1267.738, 12.09241
1268.220, 11.88378
1268.702, 11.91845
1269.184, 11.97011
1269.667, 11.99686
1270.149, 12.01325
1270.631, 12.02588
1271.113, 12.02409
1271.595, 12.01092
1272.077, 11.94320
1272.559, 11.65544
1273.041, 11.35136
1273.523, 11.34623
1274.005, 11.54973
1274.488, 11.84800
1274.970, 12.16322
1275.452, 12.35572
1275.934, 12.38792
1276.416, 12.41922
1276.898, 12.64961
1277.380, 12.67287
1277.862, 12.14974
1278.345, 11.68148
1278.827, 11.55045
1279.309, 11.60362
1279.791, 11.78548
1280.273, 12.01453
1280.755, 12.09925
1281.237, 12.04175
1281.719, 12.02714
1282.202, 12.05795
1282.684, 12.08808
1283.166, 12.11341
1283.648, 12.16966
1284.130, 12.26628
1284.612, 12.35789
1285.094, 12.41722
1285.576, 12.42510
1286.058, 12.29117
1286.541, 12.15048
1287.023, 12.15840
##END=



