##NAMES=Topaz
##RRUFFID=R050176
##IDEAL CHEMISTRY=Al_2_SiO_4_F_2_
##LOCALITY=Jos Plateau, Nigeria
##OWNER=RRUFF
##SOURCE=Marcus Origlieri
##DESCRIPTION=Colorless prismatic crystal
##STATUS=The identification of this mineral has been confirmed by X-ray diffraction and chemical analysis
##URL=rruff.info/R050176
##MEASURED CHEMISTRY=Al_2.000_Si_1.000_O_4.000_(F_1.438_(OH)_0.562_)
90.52570, 0.0000000E+00
91.00781, 7.589083
91.48993, 7.695145
91.97205, 7.737788
92.45416, 7.688582
92.93628, 7.577527
93.41840, 7.455268
93.90051, 7.305892
94.38263, 7.189589
94.86475, 7.240273
95.34686, 7.456307
95.82898, 7.681270
96.31110, 7.808199
96.79321, 7.839767
97.27533, 7.777041
97.75745, 7.561717
98.23956, 7.259547
98.72168, 7.195764
99.20380, 7.426639
99.68591, 7.721342
100.1680, 7.799730
100.6501, 7.605384
101.1323, 7.472419
101.6144, 7.548281
102.0965, 7.866527
102.5786, 7.950500
103.0607, 7.669097
103.5428, 7.269396
104.0250, 7.176837
104.5071, 7.549367
104.9892, 7.966217
105.4713, 8.286070
105.9534, 8.530459
106.4355, 8.623205
106.9177, 8.468943
107.3998, 8.159119
107.8819, 7.976300
108.3640, 7.969439
108.8461, 8.052187
109.3282, 8.187366
109.8104, 8.534343
110.2925, 8.748939
110.7746, 8.683230
111.2567, 8.394606
111.7388, 8.332670
112.2209, 8.763587
112.7031, 9.318388
113.1852, 9.747166
113.6673, 9.852347
114.1494, 9.967265
114.6315, 10.19581
115.1136, 10.54719
115.5958, 10.88350
116.0779, 11.21911
116.5600, 11.49992
117.0421, 11.66469
117.5242, 11.57693
118.0063, 11.45505
118.4885, 11.36919
118.9706, 11.30012
119.4527, 11.41347
119.9348, 11.98187
120.4169, 12.79027
120.8990, 13.45321
121.3812, 13.57524
121.8633, 13.55346
122.3454, 13.79640
122.8275, 14.45589
123.3096, 15.16182
123.7917, 15.63951
124.2739, 15.90485
124.7560, 16.01622
125.2381, 15.99261
125.7202, 15.84163
126.2023, 15.52431
126.6844, 14.85761
127.1666, 14.24251
127.6487, 14.33767
128.1308, 15.11139
128.6129, 16.01836
129.0950, 16.70115
129.5771, 17.17477
130.0593, 17.48217
130.5414, 17.56335
131.0235, 17.51209
131.5056, 17.60662
131.9877, 17.81142
132.4698, 17.85621
132.9520, 17.37402
133.4341, 16.40655
133.9162, 15.76447
134.3983, 15.78496
134.8804, 16.38627
135.3625, 17.01300
135.8447, 17.64886
136.3268, 18.35204
136.8089, 19.27801
137.2910, 20.48557
137.7731, 21.59066
138.2552, 22.48879
138.7374, 23.18801
139.2195, 23.59883
139.7016, 23.67781
140.1837, 23.52436
140.6658, 23.29049
141.1479, 22.87233
141.6301, 22.60104
142.1122, 22.66777
142.5943, 23.24219
143.0764, 23.67097
143.5585, 23.83980
144.0406, 23.86282
144.5228, 24.16219
145.0049, 24.83081
145.4870, 25.65022
145.9691, 26.50826
146.4512, 27.53080
146.9333, 28.39718
147.4155, 28.95269
147.8976, 29.26516
148.3797, 29.93151
148.8618, 31.20043
149.3439, 32.64914
149.8260, 34.00026
150.3082, 34.49207
150.7903, 35.74352
151.2724, 37.90467
151.7545, 40.97004
152.2366, 44.76537
152.7188, 48.59550
153.2009, 53.47509
153.6830, 60.18258
154.1651, 70.99046
154.6472, 81.49886
155.1293, 92.71638
155.6115, 105.8053
156.0936, 110.3328
156.5757, 98.72324
157.0578, 79.73537
157.5399, 63.08083
158.0220, 50.30030
158.5042, 40.67682
158.9863, 34.45720
159.4684, 31.99228
159.9505, 30.84965
160.4326, 30.75434
160.9147, 31.46072
161.3969, 32.60588
161.8790, 33.92592
162.3611, 35.74525
162.8432, 38.23699
163.3253, 41.40330
163.8074, 45.21693
164.2896, 50.12630
164.7717, 55.67342
165.2538, 60.94341
165.7359, 67.80579
166.2180, 72.94483
166.7001, 73.52210
167.1823, 67.91624
167.6644, 60.23597
168.1465, 51.73368
168.6286, 42.95229
169.1107, 35.42485
169.5928, 30.04806
170.0750, 26.33762
170.5571, 23.83885
171.0392, 22.89568
171.5213, 22.45498
172.0034, 21.67314
172.4855, 20.63685
172.9677, 19.74964
173.4498, 19.35528
173.9319, 19.23937
174.4140, 19.09299
174.8961, 18.78967
175.3782, 18.47634
175.8604, 18.31679
176.3425, 18.29856
176.8246, 18.32307
177.3067, 18.34068
177.7888, 18.34634
178.2709, 18.32913
178.7531, 18.28026
179.2352, 18.21112
179.7173, 18.11218
180.1994, 17.98565
180.6815, 17.90669
181.1636, 17.94791
181.6458, 18.09161
182.1279, 18.29054
182.6100, 18.59937
183.0921, 18.92466
183.5742, 19.06555
184.0563, 19.01471
184.5385, 18.88324
185.0206, 18.67842
185.5027, 18.44605
185.9848, 18.42819
186.4669, 18.88600
186.9490, 19.60077
187.4312, 19.86255
187.9133, 19.61618
188.3954, 19.25662
188.8775, 19.29101
189.3596, 19.67346
189.8417, 19.97084
190.3239, 20.00749
190.8060, 19.81814
191.2881, 19.52365
191.7702, 19.09175
192.2523, 18.69230
192.7344, 18.59654
193.2166, 18.80468
193.6987, 18.98016
194.1808, 18.94738
194.6629, 18.73176
195.1450, 18.64785
195.6271, 18.72235
196.1093, 18.85999
196.5914, 18.91620
197.0735, 18.88368
197.5556, 18.85955
198.0377, 18.88211
198.5198, 18.95156
199.0020, 19.05950
199.4841, 19.23035
199.9662, 19.39648
200.4483, 19.42208
200.9304, 19.27941
201.4125, 19.16437
201.8947, 19.21600
202.3768, 19.46233
202.8589, 19.48383
203.3410, 19.19497
203.8231, 18.79023
204.3052, 18.66281
204.7874, 18.87303
205.2695, 19.10102
205.7516, 19.15937
206.2337, 18.99328
206.7158, 19.07244
207.1979, 19.51929
207.6801, 20.09911
208.1622, 20.27138
208.6443, 19.90746
209.1264, 19.53988
209.6085, 19.42430
210.0906, 19.61809
210.5728, 19.79295
211.0549, 19.90989
211.5370, 20.02948
212.0191, 20.33093
212.5012, 20.93106
212.9833, 21.43224
213.4655, 21.56572
213.9476, 21.14429
214.4297, 21.07295
214.9118, 21.47160
215.3939, 22.17627
215.8760, 22.78749
216.3581, 23.24074
216.8403, 23.72293
217.3224, 24.29009
217.8045, 24.89621
218.2866, 25.72897
218.7687, 26.74634
219.2508, 28.00832
219.7330, 29.63288
220.2151, 31.58136
220.6972, 33.95167
221.1793, 36.79138
221.6614, 40.23496
222.1435, 43.88322
222.6257, 47.93591
223.1078, 52.13284
223.5899, 55.88193
224.0720, 59.19963
224.5541, 62.05460
225.0362, 64.40612
225.5184, 65.91134
226.0005, 67.70484
226.4826, 69.78994
226.9647, 72.18246
227.4468, 75.00335
227.9289, 78.26261
228.4111, 81.91003
228.8932, 85.90788
229.3753, 90.16663
229.8574, 94.94972
230.3395, 100.1853
230.8216, 105.9165
231.3038, 112.3285
231.7859, 119.1156
232.2680, 126.9767
232.7501, 136.0637
233.2322, 145.7241
233.7143, 157.9346
234.1965, 172.3902
234.6786, 189.5529
235.1607, 210.8320
235.6428, 236.4025
236.1249, 265.8300
236.6070, 299.5265
237.0892, 340.4055
237.5713, 378.7581
238.0534, 411.9839
238.5355, 443.3447
239.0176, 482.5965
239.4997, 540.1835
239.9819, 591.4573
240.4640, 629.1973
240.9461, 666.2313
241.4282, 658.0958
241.9103, 587.7884
242.3924, 477.7685
242.8746, 379.7306
243.3567, 291.2885
243.8388, 218.4368
244.3209, 164.5771
244.8030, 135.0698
245.2851, 111.8534
245.7673, 96.22643
246.2494, 86.34420
246.7315, 78.38828
247.2136, 72.48742
247.6957, 68.30117
248.1778, 65.74754
248.6600, 64.96945
249.1421, 65.44747
249.6242, 67.15308
250.1063, 70.12088
250.5884, 74.72610
251.0705, 82.37467
251.5527, 89.28524
252.0348, 93.91218
252.5169, 95.71309
252.9990, 97.27568
253.4811, 98.39964
253.9632, 99.43166
254.4454, 100.8786
254.9275, 102.5257
255.4096, 105.0096
255.8917, 108.6652
256.3738, 113.6917
256.8560, 118.8884
257.3381, 124.2958
257.8202, 129.8749
258.3023, 135.5772
258.7844, 141.0131
259.2665, 147.2763
259.7487, 154.6613
260.2308, 163.1163
260.7129, 172.7188
261.1950, 182.9862
261.6771, 194.8470
262.1592, 208.9458
262.6414, 223.6927
263.1235, 244.2662
263.6056, 271.0065
264.0877, 303.8663
264.5698, 347.6503
265.0519, 403.2025
265.5341, 468.2006
266.0162, 540.4275
266.4983, 618.4631
266.9804, 708.4158
267.4625, 824.0328
267.9446, 963.3300
268.4268, 1060.444
268.9089, 1122.216
269.3910, 1126.792
269.8731, 1031.941
270.3552, 808.6501
270.8373, 604.3277
271.3195, 446.7364
271.8016, 335.0631
272.2837, 255.4274
272.7658, 212.0981
273.2479, 189.2886
273.7300, 174.0132
274.2122, 166.9488
274.6943, 163.5553
275.1764, 163.8797
275.6585, 167.2107
276.1406, 169.9091
276.6227, 171.9117
277.1049, 173.4997
277.5870, 174.3066
278.0691, 174.0898
278.5512, 175.7926
279.0333, 179.6217
279.5154, 185.8194
279.9976, 194.9580
280.4797, 206.9570
280.9618, 222.5072
281.4439, 241.8476
281.9260, 264.9023
282.4081, 293.8875
282.8903, 329.1378
283.3724, 370.4087
283.8545, 418.1881
284.3366, 472.8387
284.8187, 530.3841
285.3008, 594.0385
285.7830, 662.3143
286.2651, 713.1813
286.7472, 747.9065
287.2293, 759.3412
287.7114, 727.7234
288.1935, 653.3076
288.6757, 566.0347
289.1578, 475.3056
289.6399, 383.5925
290.1220, 308.4974
290.6041, 251.4306
291.0862, 207.9245
291.5684, 173.7547
292.0505, 148.4379
292.5326, 128.6389
293.0147, 113.7771
293.4968, 103.1023
293.9789, 94.11160
294.4611, 86.88447
294.9432, 80.96590
295.4253, 76.08379
295.9074, 72.15054
296.3895, 68.89456
296.8716, 66.39960
297.3538, 64.42623
297.8359, 62.44313
298.3180, 60.42313
298.8001, 58.61645
299.2822, 57.31180
299.7643, 56.38742
300.2465, 55.55013
300.7286, 54.76135
301.2107, 53.96169
301.6928, 52.96025
302.1749, 51.78744
302.6570, 50.77287
303.1392, 50.28483
303.6213, 50.12513
304.1034, 49.97410
304.5855, 49.77240
305.0676, 49.50143
305.5497, 49.02763
306.0319, 48.41343
306.5140, 47.95940
306.9961, 47.98171
307.4782, 48.23661
307.9603, 48.42686
308.4424, 48.43519
308.9246, 48.45441
309.4067, 48.52764
309.8888, 48.71101
310.3709, 49.17262
310.8530, 50.02730
311.3351, 51.18400
311.8173, 52.52244
312.2994, 53.96692
312.7815, 55.81964
313.2636, 58.28563
313.7457, 61.25786
314.2278, 64.57695
314.7100, 68.14515
315.1921, 72.03135
315.6742, 76.50455
316.1563, 81.74204
316.6384, 86.52112
317.1205, 91.33568
317.6027, 95.03812
318.0848, 96.13010
318.5669, 92.57650
319.0490, 87.72574
319.5311, 82.27273
320.0132, 76.21188
320.4954, 71.35988
320.9775, 68.49596
321.4596, 66.95903
321.9417, 66.24608
322.4238, 66.50435
322.9059, 67.31289
323.3881, 68.62732
323.8702, 70.42848
324.3523, 72.63706
324.8344, 75.20283
325.3165, 78.19553
325.7986, 81.67735
326.2808, 85.17199
326.7629, 89.72173
327.2450, 95.06719
327.7271, 101.4317
328.2092, 109.6939
328.6913, 119.9832
329.1735, 132.0476
329.6556, 146.0396
330.1377, 162.6546
330.6198, 179.9801
331.1019, 199.3872
331.5840, 219.0403
332.0662, 236.4166
332.5483, 255.3757
333.0304, 266.5225
333.5125, 266.5096
333.9946, 254.5258
334.4767, 235.2286
334.9589, 205.2310
335.4410, 171.4980
335.9231, 142.3520
336.4052, 118.1575
336.8873, 98.32227
337.3694, 83.34119
337.8515, 73.09591
338.3336, 64.95401
338.8158, 59.19068
339.2979, 54.92188
339.7800, 51.40446
340.2621, 48.70276
340.7442, 46.54211
341.2263, 45.05528
341.7085, 44.02317
342.1906, 42.72809
342.6727, 41.09031
343.1548, 39.61831
343.6369, 38.65796
344.1190, 38.19744
344.6012, 37.96627
345.0833, 38.00761
345.5654, 38.13303
346.0475, 37.98503
346.5296, 37.57943
347.0117, 37.15226
347.4939, 36.77184
347.9760, 36.46843
348.4581, 36.34170
348.9402, 36.40459
349.4223, 36.60620
349.9044, 36.96452
350.3866, 37.43254
350.8687, 37.85008
351.3508, 38.01152
351.8329, 38.14951
352.3150, 38.64103
352.7971, 39.48395
353.2793, 40.48841
353.7614, 41.55045
354.2435, 42.68250
354.7256, 43.88241
355.2077, 44.96896
355.6898, 46.34338
356.1720, 48.46355
356.6541, 51.23440
357.1362, 54.21063
357.6183, 57.13885
358.1004, 60.18320
358.5826, 63.84644
359.0647, 69.06033
359.5468, 72.72866
360.0289, 73.04896
360.5110, 70.66356
360.9931, 66.77678
361.4753, 60.36089
361.9574, 53.80461
362.4395, 48.19830
362.9216, 43.64949
363.4037, 40.02732
363.8858, 37.50800
364.3680, 35.80984
364.8501, 34.63148
365.3322, 34.05665
365.8143, 33.86246
366.2964, 34.12732
366.7785, 34.83860
367.2607, 35.49640
367.7428, 35.91332
368.2249, 36.36051
368.7070, 37.00628
369.1891, 37.95472
369.6712, 38.96411
370.1534, 40.19800
370.6355, 41.49833
371.1176, 42.36376
371.5997, 42.64543
372.0818, 42.67893
372.5639, 42.56554
373.0461, 42.24324
373.5282, 41.99504
374.0103, 41.93730
374.4924, 41.83969
374.9745, 41.34978
375.4566, 40.40690
375.9388, 39.24290
376.4209, 37.86242
376.9030, 36.27163
377.3851, 34.84197
377.8672, 33.54195
378.3493, 32.44190
378.8315, 31.67745
379.3136, 31.24813
379.7957, 30.81894
380.2778, 30.24998
380.7599, 29.71631
381.2420, 29.72830
381.7242, 30.28509
382.2063, 30.88165
382.6884, 31.17171
383.1705, 31.22860
383.6526, 31.28917
384.1347, 31.37453
384.6169, 31.46701
385.0990, 31.43751
385.5811, 31.36989
386.0632, 31.54160
386.5453, 32.17353
387.0274, 33.07780
387.5096, 34.02510
387.9917, 35.00675
388.4738, 36.03087
388.9559, 37.12384
389.4380, 38.23286
389.9201, 39.29165
390.4023, 40.20485
390.8844, 41.13558
391.3665, 42.16286
391.8486, 43.29628
392.3307, 44.53530
392.8128, 45.87999
393.2950, 47.32992
393.7771, 48.83849
394.2592, 50.24184
394.7413, 52.10772
395.2234, 54.69427
395.7055, 57.82990
396.1877, 61.24977
396.6698, 64.83268
397.1519, 68.74922
397.6340, 72.96922
398.1161, 77.44106
398.5982, 82.69882
399.0804, 88.87234
399.5625, 95.79350
400.0446, 103.3665
400.5267, 112.1207
401.0088, 120.8237
401.4909, 129.5634
401.9731, 138.1706
402.4552, 145.9409
402.9373, 153.4747
403.4194, 159.2113
403.9015, 162.7561
404.3836, 164.6484
404.8658, 161.9428
405.3479, 153.8977
405.8300, 142.2912
406.3121, 128.8522
406.7942, 113.1686
407.2763, 98.47231
407.7585, 85.59285
408.2406, 74.49339
408.7227, 65.43065
409.2048, 58.51022
409.6869, 52.97236
410.1690, 48.48244
410.6512, 44.94515
411.1333, 41.67208
411.6154, 38.46568
412.0975, 35.59651
412.5796, 33.46210
413.0617, 32.01120
413.5439, 30.93468
414.0260, 30.25422
414.5081, 29.75173
414.9902, 29.12323
415.4723, 28.33465
415.9544, 27.51366
416.4366, 26.66499
416.9187, 25.87733
417.4008, 25.28576
417.8829, 25.05146
418.3650, 24.92617
418.8471, 24.76514
419.3293, 24.58172
419.8114, 24.45090
420.2935, 24.40864
420.7756, 24.42891
421.2577, 24.50131
421.7398, 24.65597
422.2220, 24.80121
422.7041, 24.92021
423.1862, 25.01783
423.6683, 25.10349
424.1504, 25.29630
424.6325, 25.36009
425.1147, 25.22890
425.5968, 24.89163
426.0789, 24.44921
426.5610, 23.84992
427.0431, 23.19241
427.5252, 22.55042
428.0074, 21.89283
428.4895, 21.32101
428.9716, 20.84512
429.4537, 20.46987
429.9358, 20.24021
430.4179, 20.18922
430.9001, 20.16749
431.3822, 20.08565
431.8643, 19.94161
432.3464, 19.87787
432.8285, 19.89788
433.3106, 19.98782
433.7928, 20.17528
434.2749, 20.44273
434.7570, 20.63333
435.2391, 20.64803
435.7212, 20.59665
436.2033, 20.64724
436.6855, 20.80568
437.1676, 21.13624
437.6497, 21.81993
438.1318, 22.66555
438.6139, 23.34824
439.0960, 23.76487
439.5782, 24.20614
440.0603, 24.90008
440.5424, 25.79305
441.0245, 26.77157
441.5066, 27.91894
441.9887, 29.03888
442.4709, 30.01872
442.9530, 30.85655
443.4351, 31.62131
443.9172, 32.28259
444.3993, 32.90809
444.8814, 33.53790
445.3636, 34.21185
445.8457, 34.85284
446.3278, 35.20246
446.8099, 35.50770
447.2920, 36.39677
447.7741, 38.22659
448.2563, 40.25942
448.7384, 42.18165
449.2205, 43.92741
449.7026, 46.22929
450.1847, 49.14758
450.6668, 52.50898
451.1490, 56.07582
451.6311, 59.72344
452.1132, 64.12074
452.5953, 69.45597
453.0774, 75.56045
453.5595, 82.40061
454.0417, 90.06159
454.5238, 97.92477
455.0059, 105.9264
455.4880, 113.9197
455.9701, 121.9003
456.4522, 130.0083
456.9344, 136.8544
457.4165, 141.5802
457.8986, 143.9241
458.3807, 142.9440
458.8628, 137.7336
459.3449, 129.7762
459.8271, 119.6548
460.3092, 107.8579
460.7913, 96.31261
461.2734, 85.63882
461.7555, 76.05111
462.2376, 67.67220
462.7198, 60.67031
463.2019, 54.55491
463.6840, 49.24239
464.1661, 44.70866
464.6482, 40.92472
465.1303, 38.08031
465.6125, 35.77822
466.0946, 34.04093
466.5767, 32.81145
467.0588, 31.75331
467.5409, 30.93348
468.0230, 30.19728
468.5052, 29.46876
468.9873, 28.68584
469.4694, 28.07020
469.9515, 27.65872
470.4336, 27.38394
470.9157, 27.15326
471.3979, 26.96948
471.8800, 26.83637
472.3621, 26.80144
472.8442, 26.81464
473.3263, 26.55556
473.8084, 25.97718
474.2906, 25.49034
474.7727, 25.49255
475.2548, 25.87231
475.7369, 26.06365
476.2190, 25.97390
476.7011, 25.83480
477.1833, 25.92124
477.6654, 26.18445
478.1475, 26.49114
478.6296, 26.80529
479.1117, 27.12273
479.5938, 27.35993
480.0760, 27.55532
480.5581, 27.95205
481.0402, 28.98451
481.5223, 30.10316
482.0044, 30.84868
482.4865, 31.03532
482.9687, 31.10943
483.4508, 31.20009
483.9329, 31.27338
484.4150, 31.28012
484.8971, 31.19226
485.3792, 31.05797
485.8614, 30.89248
486.3435, 30.69458
486.8256, 30.40563
487.3077, 29.79176
487.7898, 29.36488
488.2719, 29.42658
488.7541, 30.10287
489.2362, 30.90000
489.7183, 31.93843
490.2004, 32.93494
490.6825, 33.45525
491.1646, 33.46877
491.6468, 33.31587
492.1289, 33.08281
492.6110, 32.76185
493.0931, 32.28169
493.5752, 31.64182
494.0573, 30.98441
494.5395, 30.36686
495.0216, 29.80855
495.5037, 29.35559
495.9858, 29.03837
496.4679, 28.73213
496.9500, 28.41659
497.4322, 28.02446
497.9143, 27.44902
498.3964, 26.43726
498.8785, 25.41965
499.3606, 24.60312
499.8427, 23.97577
500.3249, 23.53189
500.8070, 23.36994
501.2891, 23.30268
501.7712, 23.23322
502.2533, 23.12761
502.7354, 23.08901
503.2176, 23.10459
503.6997, 23.20219
504.1818, 23.42917
504.6639, 23.91811
505.1460, 24.27392
505.6281, 24.34589
506.1103, 24.25626
506.5924, 24.51019
507.0745, 25.18452
507.5566, 25.92964
508.0387, 26.55601
508.5208, 27.07310
509.0030, 27.70730
509.4851, 28.48279
509.9672, 29.23893
510.4493, 29.87966
510.9314, 30.37169
511.4135, 30.56353
511.8957, 30.29769
512.3778, 29.92359
512.8599, 29.83668
513.3420, 29.97658
513.8242, 30.16529
514.3063, 30.26836
514.7884, 30.41782
515.2705, 30.71391
515.7526, 31.16198
516.2347, 31.70714
516.7169, 32.28885
517.1990, 32.98109
517.6811, 33.84083
518.1632, 34.92157
518.6453, 36.10909
519.1274, 37.72306
519.6096, 39.37862
520.0917, 40.35714
520.5738, 40.58405
521.0559, 40.26051
521.5380, 39.42873
522.0201, 38.08855
522.5023, 36.08847
522.9844, 33.17215
523.4665, 30.30136
523.9486, 28.17428
524.4307, 26.75624
524.9128, 25.57816
525.3950, 24.63701
525.8771, 23.85028
526.3592, 23.12029
526.8413, 22.46191
527.3234, 21.90750
527.8055, 21.52459
528.2877, 21.20708
528.7698, 20.79445
529.2519, 20.32560
529.7340, 19.94993
530.2161, 19.76323
530.6982, 19.69577
531.1804, 19.69037
531.6625, 19.73491
532.1446, 19.87896
532.6267, 20.23989
533.1088, 20.65841
533.5909, 20.98206
534.0731, 21.10359
534.5552, 21.24139
535.0373, 21.40878
535.5194, 21.60292
536.0015, 21.83532
536.4836, 22.14131
536.9658, 22.40661
537.4479, 22.56254
537.9300, 22.61718
538.4121, 22.75472
538.8942, 22.95893
539.3763, 23.31389
539.8585, 23.95573
540.3406, 24.83531
540.8227, 25.65913
541.3048, 26.38251
541.7869, 27.09937
542.2690, 27.83593
542.7512, 28.65613
543.2333, 29.72107
543.7154, 31.14242
544.1975, 32.79762
544.6796, 34.66271
545.1617, 36.71054
545.6439, 38.74706
546.1260, 40.48448
546.6081, 42.33970
547.0902, 44.74848
547.5723, 48.03652
548.0544, 50.57536
548.5366, 52.08977
549.0187, 52.79256
549.5008, 52.87420
549.9829, 52.16360
550.4650, 51.11335
550.9471, 49.59359
551.4293, 47.84815
551.9114, 46.34594
552.3935, 45.04493
552.8756, 44.18095
553.3577, 43.79779
553.8398, 43.92357
554.3220, 44.84966
554.8041, 46.60260
555.2862, 48.51895
555.7683, 49.93048
556.2504, 51.17159
556.7325, 53.01215
557.2147, 55.62328
557.6968, 58.44174
558.1789, 61.21788
558.6610, 63.85216
559.1431, 66.17052
559.6252, 68.30457
560.1074, 69.91264
560.5895, 70.99409
561.0716, 71.46425
561.5537, 71.03419
562.0358, 69.53313
562.5179, 67.20812
563.0001, 63.97836
563.4822, 59.76284
563.9643, 55.74383
564.4464, 51.90710
564.9285, 48.28212
565.4106, 44.82933
565.8928, 41.51425
566.3749, 38.51280
566.8570, 35.78505
567.3391, 33.42152
567.8212, 31.67148
568.3033, 30.45330
568.7855, 29.27730
569.2676, 27.89985
569.7497, 26.53489
570.2318, 25.50080
570.7139, 24.76428
571.1960, 24.09311
571.6782, 23.34907
572.1603, 22.62700
572.6424, 22.01362
573.1245, 21.51287
573.6066, 21.08470
574.0887, 20.73888
574.5709, 20.43950
575.0530, 20.15547
575.5351, 19.90530
576.0172, 19.63212
576.4993, 19.30576
576.9814, 18.96894
577.4636, 18.68466
577.9457, 18.42956
578.4278, 18.30731
578.9099, 18.42314
579.3920, 18.66692
579.8741, 18.53472
580.3563, 17.99309
580.8384, 17.53655
581.3205, 17.57380
581.8026, 17.91826
582.2847, 18.02540
582.7668, 17.87706
583.2490, 17.64374
583.7311, 17.33493
584.2131, 17.07717
584.6953, 17.07381
585.1774, 17.50731
585.6595, 17.87867
586.1416, 17.88126
586.6237, 17.66858
587.1058, 17.47393
587.5880, 17.29827
588.0701, 17.20489
588.5522, 17.27595
589.0343, 17.45995
589.5164, 17.51325
589.9985, 17.37067
590.4807, 17.20459
590.9628, 17.06283
591.4449, 16.94371
591.9270, 16.95637
592.4091, 17.12872
592.8912, 17.31243
593.3734, 17.36246
593.8555, 17.30447
594.3376, 17.24408
594.8197, 17.18332
595.3018, 17.17521
595.7839, 17.35835
596.2661, 17.62810
596.7482, 17.78054
597.2303, 17.59515
597.7124, 17.41700
598.1945, 17.44930
598.6766, 17.65010
599.1588, 17.89989
599.6409, 18.29347
600.1230, 18.60562
600.6051, 18.72134
601.0872, 18.62754
601.5693, 18.55344
602.0515, 18.51653
602.5336, 18.47610
603.0157, 18.39477
603.4978, 18.25570
603.9799, 18.19619
604.4620, 18.24869
604.9442, 18.29818
605.4263, 18.14165
605.9084, 17.82594
606.3905, 17.65264
606.8726, 17.74183
607.3547, 17.90020
607.8369, 17.87528
608.3190, 17.72714
608.8011, 17.60810
609.2832, 17.64816
609.7653, 17.69224
610.2474, 17.59426
610.7296, 17.38227
611.2117, 17.29464
611.6938, 17.53900
612.1759, 17.80241
612.6580, 17.92068
613.1401, 17.85144
613.6223, 17.82603
614.1044, 17.87916
614.5865, 17.92979
615.0686, 17.89928
615.5507, 17.77774
616.0328, 17.66500
616.5150, 17.57111
616.9971, 17.49013
617.4792, 17.43299
617.9613, 17.38761
618.4434, 17.28518
618.9255, 17.02792
619.4077, 16.79522
619.8898, 16.87781
620.3719, 17.17200
620.8540, 17.35151
621.3361, 17.07885
621.8182, 16.79418
622.3004, 16.77560
622.7825, 17.03182
623.2646, 17.23944
623.7467, 17.28689
624.2288, 17.31055
624.7109, 17.38007
625.1931, 17.51553
625.6752, 17.62513
626.1573, 17.69630
626.6394, 17.76310
627.1215, 17.84278
627.6036, 17.93417
628.0858, 18.12543
628.5679, 18.45459
629.0500, 18.82640
629.5321, 19.13587
630.0142, 19.37275
630.4963, 19.48599
630.9785, 19.28414
631.4606, 19.12284
631.9427, 19.40028
632.4248, 19.99052
632.9069, 20.49235
633.3890, 20.65203
633.8712, 20.76009
634.3533, 20.91966
634.8354, 21.13569
635.3175, 21.46124
635.7996, 22.04749
636.2817, 22.56980
636.7639, 22.76725
637.2460, 22.47056
637.7281, 22.78511
638.2102, 23.86504
638.6923, 25.12018
639.1744, 25.88416
639.6566, 26.22650
640.1387, 26.59425
640.6208, 27.05201
641.1029, 27.58371
641.5850, 28.29633
642.0671, 29.05323
642.5493, 29.59702
643.0314, 29.72731
643.5135, 29.70200
643.9956, 29.62753
644.4777, 29.49953
644.9598, 29.30365
645.4420, 29.17139
645.9241, 28.82459
646.4062, 28.15301
646.8883, 27.17282
647.3704, 26.12942
647.8525, 24.98081
648.3347, 23.87546
648.8168, 22.91318
649.2989, 22.08104
649.7810, 21.38929
650.2631, 20.84941
650.7452, 20.36799
651.2274, 19.83645
651.7095, 19.30865
652.1916, 18.90885
652.6737, 18.69773
653.1558, 18.49370
653.6379, 18.12850
654.1201, 17.70036
654.6022, 17.33682
655.0843, 16.91953
655.5664, 16.75047
656.0485, 17.15004
656.5306, 17.82131
657.0128, 18.08729
657.4949, 17.75984
657.9770, 17.36915
658.4591, 16.98425
658.9412, 16.64517
659.4233, 16.60131
659.9055, 16.88636
660.3876, 17.09297
660.8697, 16.88923
661.3518, 16.46400
661.8339, 16.29887
662.3160, 16.38383
662.7982, 16.52055
663.2803, 16.66977
663.7624, 16.74283
664.2445, 16.59934
664.7266, 16.17023
665.2087, 15.85278
665.6909, 15.84986
666.1730, 15.97262
666.6551, 16.06352
667.1372, 16.04495
667.6193, 16.12397
668.1014, 16.35344
668.5836, 16.62552
669.0657, 16.81803
669.5478, 16.93531
670.0299, 16.87411
670.5120, 16.54475
670.9941, 16.14840
671.4763, 16.05877
671.9584, 16.21898
672.4405, 16.40425
672.9226, 16.51988
673.4047, 16.61333
673.8868, 16.76982
674.3690, 16.94802
674.8511, 17.00654
675.3332, 16.68021
675.8153, 16.41807
676.2974, 16.45443
676.7795, 16.80972
677.2617, 17.08200
677.7438, 17.27304
678.2259, 17.38098
678.7080, 17.38177
679.1901, 17.26557
679.6722, 17.20831
680.1544, 17.21554
680.6365, 17.24378
681.1186, 17.24813
681.6007, 17.24231
682.0828, 17.24075
682.5649, 17.23058
683.0471, 17.31543
683.5292, 17.70066
684.0113, 18.18135
684.4934, 18.50780
684.9755, 18.61771
685.4576, 18.56877
685.9398, 18.23033
686.4219, 17.78309
686.9040, 17.52360
687.3861, 17.53557
687.8682, 17.57117
688.3503, 17.59768
688.8325, 17.61963
689.3146, 17.65933
689.7967, 17.71770
690.2788, 17.73672
690.7609, 17.67461
691.2430, 17.57234
691.7252, 17.48687
692.2073, 17.42135
692.6894, 17.39373
693.1715, 17.48708
693.6536, 17.56384
694.1357, 17.46638
694.6179, 17.20188
695.1000, 17.08437
695.5821, 17.34719
696.0642, 17.63503
696.5463, 17.78131
697.0284, 17.76442
697.5106, 17.74342
697.9927, 17.71059
698.4748, 17.69217
698.9569, 17.69796
699.4390, 17.73226
699.9211, 17.84388
700.4033, 18.04304
700.8854, 18.26746
701.3675, 18.47507
701.8496, 18.66062
702.3317, 18.82193
702.8138, 18.97122
703.2960, 19.05750
703.7781, 18.94534
704.2602, 18.79725
704.7423, 18.81217
705.2244, 19.15357
705.7065, 19.50211
706.1887, 19.91082
706.6708, 20.26999
707.1529, 20.34966
707.6350, 20.09621
708.1171, 19.88906
708.5992, 19.85062
709.0814, 19.88488
709.5635, 19.78603
710.0456, 19.57445
710.5277, 19.35031
711.0098, 19.16998
711.4919, 18.99424
711.9741, 18.82566
712.4562, 18.64326
712.9383, 18.35835
713.4204, 17.72467
713.9025, 17.18406
714.3846, 16.98967
714.8668, 17.11743
715.3489, 17.12922
715.8310, 16.98107
716.3131, 16.80379
716.7952, 16.63554
717.2773, 16.48397
717.7595, 16.48593
718.2416, 16.65268
718.7237, 16.77753
719.2058, 16.62047
719.6879, 16.34040
720.1700, 16.21531
720.6522, 16.28090
721.1343, 16.32654
721.6164, 16.15439
722.0985, 15.95783
722.5806, 15.90124
723.0627, 16.09152
723.5449, 16.23553
724.0270, 16.33204
724.5091, 16.36756
724.9912, 16.31411
725.4733, 16.15011
725.9554, 16.01090
726.4376, 15.89876
726.9197, 15.83977
727.4018, 15.90157
727.8839, 16.04992
728.3660, 16.17981
728.8481, 16.26949
729.3303, 16.32327
729.8124, 16.31730
730.2945, 16.28486
730.7766, 16.27682
731.2587, 16.33135
731.7408, 16.38465
732.2230, 16.46776
732.7051, 16.52960
733.1872, 16.44441
733.6693, 16.12570
734.1514, 15.91876
734.6335, 15.93442
735.1157, 16.08400
735.5978, 16.14132
736.0799, 16.11720
736.5620, 16.10152
737.0441, 16.12496
737.5262, 16.18747
738.0084, 16.36904
738.4905, 16.60538
738.9726, 16.67729
739.4547, 16.26429
739.9368, 15.88337
740.4189, 15.80323
740.9011, 16.01153
741.3832, 16.11505
741.8653, 16.06002
742.3474, 15.99690
742.8295, 15.97676
743.3116, 15.99994
743.7938, 16.09233
744.2759, 16.25631
744.7580, 16.40785
745.2401, 16.52016
745.7222, 16.56798
746.2043, 16.46241
746.6865, 16.21157
747.1686, 16.02719
747.6507, 16.07507
748.1328, 16.19080
748.6149, 16.28082
749.0970, 16.33934
749.5792, 16.32995
750.0613, 16.18616
750.5434, 16.05914
751.0255, 16.05529
751.5076, 16.18708
751.9897, 16.29069
752.4719, 16.35955
752.9540, 16.43235
753.4361, 16.60086
753.9182, 16.78885
754.4003, 16.82893
754.8824, 16.68536
755.3646, 16.50097
755.8467, 16.32876
756.3288, 16.18322
756.8109, 16.07110
757.2930, 15.91974
757.7751, 15.96698
758.2573, 16.36516
758.7394, 16.82745
759.2215, 17.07815
759.7036, 17.09376
760.1857, 17.05914
760.6678, 16.97277
761.1500, 16.90427
761.6321, 16.99888
762.1142, 17.17845
762.5963, 17.22124
763.0784, 17.00040
763.5605, 16.84237
764.0427, 17.05451
764.5248, 17.43464
765.0069, 17.72945
765.4890, 17.88470
765.9711, 17.93958
766.4532, 17.84663
766.9354, 17.69526
767.4175, 17.61170
767.8996, 17.60241
768.3817, 17.61950
768.8638, 17.65118
769.3459, 17.71352
769.8281, 17.89563
770.3102, 18.13386
770.7923, 18.22439
771.2744, 17.97886
771.7565, 17.75187
772.2386, 17.87918
772.7208, 18.17174
773.2029, 18.30050
773.6850, 18.04249
774.1671, 17.79533
774.6492, 17.60440
775.1313, 17.46207
775.6135, 17.35105
776.0956, 17.27059
776.5777, 17.23690
777.0598, 17.26752
777.5419, 17.32715
778.0240, 17.34872
778.5062, 17.34527
778.9883, 17.35810
779.4704, 17.44562
779.9525, 17.51450
780.4346, 17.49273
780.9167, 17.40893
781.3989, 17.33377
781.8810, 17.17298
782.3631, 17.17229
782.8452, 17.48791
783.3273, 17.95444
783.8094, 18.03601
784.2916, 17.69083
784.7737, 17.37814
785.2558, 17.23858
785.7379, 17.24636
786.2200, 17.42087
786.7021, 17.71548
787.1843, 17.96274
787.6664, 18.09621
788.1485, 18.15275
788.6306, 18.11342
789.1127, 18.00629
789.5948, 17.93573
790.0770, 17.94486
790.5591, 17.93888
791.0412, 17.87637
791.5233, 17.78854
792.0054, 17.80203
792.4875, 17.91870
792.9697, 18.03926
793.4518, 18.15524
793.9339, 18.21759
794.4160, 18.07936
794.8981, 17.80711
795.3802, 17.62258
795.8624, 17.69154
796.3445, 17.81258
796.8266, 17.90045
797.3087, 17.96056
797.7908, 18.03712
798.2729, 18.13083
798.7551, 18.24152
799.2372, 18.37555
799.7193, 18.52603
800.2014, 18.70386
800.6835, 18.90004
801.1656, 18.98804
801.6478, 18.78435
802.1299, 18.52817
802.6120, 18.52041
803.0941, 18.69963
803.5762, 18.87029
804.0583, 18.97775
804.5405, 19.03592
805.0226, 19.02661
805.5047, 18.96845
805.9868, 18.92375
806.4689, 18.88498
806.9510, 18.88651
807.4332, 18.95584
807.9153, 19.06240
808.3974, 19.11405
808.8795, 19.11900
809.3616, 19.12399
809.8438, 19.17342
810.3259, 19.21631
810.8080, 19.13822
811.2901, 19.00960
811.7722, 19.05724
812.2543, 19.60098
812.7365, 20.02099
813.2186, 20.10023
813.7007, 19.95380
814.1828, 20.02815
814.6649, 20.36137
815.1470, 20.60807
815.6292, 20.58928
816.1113, 20.45988
816.5934, 20.56259
817.0755, 20.81308
817.5576, 20.93071
818.0397, 20.57695
818.5219, 20.25971
819.0040, 20.24797
819.4861, 20.48220
819.9682, 20.76995
820.4503, 21.18747
820.9324, 21.49080
821.4146, 21.58751
821.8967, 21.56496
822.3788, 21.64824
822.8609, 21.82997
823.3430, 22.00085
823.8251, 22.09114
824.3073, 22.19188
824.7894, 22.46618
825.2715, 22.83009
825.7536, 23.11374
826.2357, 23.12223
826.7178, 23.18846
827.2000, 23.41125
827.6821, 23.75392
828.1642, 24.17626
828.6463, 24.73640
829.1284, 25.16623
829.6105, 25.36972
830.0927, 25.50102
830.5748, 25.86056
831.0569, 26.39508
831.5390, 26.91855
832.0211, 27.33655
832.5032, 27.78860
832.9854, 28.43688
833.4675, 29.16335
833.9496, 29.77442
834.4317, 29.97128
834.9138, 30.42307
835.3959, 31.26661
835.8781, 32.28531
836.3602, 33.13493
836.8423, 33.80646
837.3244, 34.62726
837.8065, 35.66863
838.2886, 36.83913
838.7708, 38.03838
839.2529, 39.30302
839.7350, 40.70251
840.2171, 42.28097
840.6992, 43.95052
841.1813, 45.62664
841.6635, 47.42421
842.1456, 49.49081
842.6277, 51.90124
843.1098, 54.33816
843.5919, 56.81351
844.0740, 59.24572
844.5562, 61.40763
845.0383, 63.43012
845.5204, 65.73129
846.0025, 68.41943
846.4846, 71.06831
846.9667, 73.37722
847.4489, 75.50668
847.9310, 77.58701
848.4131, 79.69730
848.8952, 81.62379
849.3773, 83.29943
849.8594, 84.90137
850.3416, 86.66488
850.8237, 88.57400
851.3058, 89.88911
851.7879, 90.56456
852.2700, 91.07637
852.7521, 91.85812
853.2343, 92.70605
853.7164, 93.49863
854.1985, 94.22684
854.6806, 94.43847
855.1627, 93.55749
855.6448, 92.50566
856.1270, 91.87459
856.6091, 91.68600
857.0912, 90.67003
857.5733, 88.77475
858.0554, 86.39352
858.5375, 83.57920
859.0197, 80.51345
859.5018, 77.53208
859.9839, 74.65129
860.4660, 71.86397
860.9481, 69.11687
861.4302, 66.51760
861.9124, 64.10936
862.3945, 61.91290
862.8766, 59.79311
863.3587, 57.82521
863.8408, 55.82038
864.3229, 53.59435
864.8051, 51.38842
865.2872, 50.20161
865.7693, 49.85276
866.2514, 49.33543
866.7335, 47.99303
867.2156, 46.45906
867.6978, 45.06293
868.1799, 43.87389
868.6620, 43.03138
869.1441, 43.00925
869.6262, 42.76193
870.1083, 41.99687
870.5905, 41.04787
871.0726, 40.67568
871.5547, 40.85616
872.0368, 40.80408
872.5189, 40.23931
873.0010, 39.61427
873.4832, 39.44857
873.9653, 39.57645
874.4474, 39.74394
874.9295, 40.02623
875.4116, 40.08598
875.8937, 39.70491
876.3759, 39.15508
876.8580, 38.65586
877.3401, 38.18982
877.8222, 37.87440
878.3043, 37.72223
878.7864, 37.69837
879.2686, 37.83649
879.7507, 38.05243
880.2328, 38.18545
880.7149, 38.20530
881.1970, 38.21959
881.6791, 38.19538
882.1613, 38.25395
882.6434, 38.53764
883.1255, 39.10668
883.6076, 39.38177
884.0897, 39.26258
884.5718, 39.17535
885.0540, 39.41684
885.5361, 39.91890
886.0182, 40.56970
886.5003, 41.32634
886.9824, 41.83723
887.4645, 41.58220
887.9467, 41.28730
888.4288, 41.37890
888.9109, 41.86435
889.3930, 42.50207
889.8751, 43.31902
890.3572, 44.19500
890.8394, 45.09531
891.3215, 46.01488
891.8036, 46.90211
892.2857, 47.77100
892.7678, 48.75037
893.2499, 50.01506
893.7321, 51.25029
894.2142, 52.13945
894.6963, 52.85979
895.1784, 53.73586
895.6605, 54.87670
896.1426, 56.12079
896.6248, 57.44179
897.1069, 58.89611
897.5890, 60.63096
898.0711, 62.62797
898.5532, 64.59126
899.0353, 66.51534
899.5175, 68.24700
899.9996, 69.37301
900.4817, 70.38947
900.9638, 71.88609
901.4459, 74.13757
901.9280, 76.44272
902.4102, 78.68215
902.8923, 81.02235
903.3744, 83.56871
903.8565, 86.34231
904.3386, 89.34409
904.8207, 92.54436
905.3029, 95.75689
905.7850, 98.68771
906.2671, 101.5823
906.7492, 104.8164
907.2313, 108.3635
907.7134, 111.7902
908.1956, 114.5150
908.6777, 117.6280
909.1598, 121.5864
909.6419, 126.2132
910.1240, 130.5612
910.6061, 134.6032
911.0883, 139.0016
911.5704, 144.1872
912.0525, 149.6433
912.5346, 154.6557
913.0167, 159.4940
913.4988, 164.7423
913.9810, 170.1919
914.4631, 176.6306
914.9452, 184.5010
915.4273, 193.2164
915.9094, 202.1151
916.3915, 211.1498
916.8737, 219.9299
917.3558, 228.2881
917.8379, 236.8769
918.3200, 246.4262
918.8021, 256.6890
919.2842, 267.5062
919.7664, 278.9511
920.2485, 289.9679
920.7306, 300.0632
921.2127, 309.7799
921.6948, 319.4757
922.1769, 329.2730
922.6591, 337.7566
923.1412, 344.9167
923.6233, 351.0696
924.1054, 356.8265
924.5875, 361.5703
925.0696, 364.4343
925.5518, 365.5163
926.0339, 365.4679
926.5160, 365.0080
926.9981, 362.8297
927.4802, 358.2814
927.9623, 351.9052
928.4445, 345.1067
928.9266, 337.8466
929.4087, 330.3530
929.8908, 322.6678
930.3729, 314.6396
930.8550, 305.3531
931.3372, 295.6767
931.8193, 287.3796
932.3014, 281.3358
932.7835, 276.0140
933.2656, 271.3919
933.7477, 267.0409
934.2299, 262.4339
934.7120, 257.5072
935.1941, 253.4512
935.6762, 250.5013
936.1583, 247.0237
936.6404, 241.5315
937.1226, 234.6229
937.6047, 227.1398
938.0868, 219.1588
938.5689, 210.3241
939.0510, 199.9147
939.5331, 189.2649
940.0153, 178.7199
940.4974, 168.3204
940.9795, 157.9168
941.4616, 147.4133
941.9437, 137.7402
942.4258, 129.4667
942.9080, 122.1990
943.3901, 115.8501
943.8722, 110.2537
944.3543, 105.0519
944.8364, 100.1599
945.3185, 95.66361
945.8007, 91.64481
946.2828, 87.97206
946.7649, 84.44570
947.2470, 81.06431
947.7291, 77.71436
948.2112, 74.35134
948.6934, 71.24503
949.1755, 68.67854
949.6576, 66.45955
950.1397, 64.31889
950.6218, 62.19236
951.1039, 60.35035
951.5861, 59.03720
952.0682, 57.68395
952.5503, 55.93903
953.0324, 53.89689
953.5145, 52.17746
953.9966, 50.78226
954.4788, 49.63339
954.9609, 48.80598
955.4430, 48.08533
955.9251, 47.36951
956.4072, 46.62396
956.8893, 45.74441
957.3715, 44.52048
957.8536, 43.51743
958.3357, 42.83241
958.8178, 42.37377
959.2999, 42.11835
959.7820, 41.98912
960.2642, 41.61911
960.7463, 40.90440
961.2284, 40.12739
961.7105, 39.24636
962.1926, 38.55336
962.6747, 38.39709
963.1569, 38.97593
963.6390, 39.16502
964.1211, 38.83448
964.6032, 38.47178
965.0853, 38.44575
965.5674, 38.60172
966.0496, 38.40492
966.5317, 37.94751
967.0138, 37.66148
967.4959, 37.96503
967.9780, 38.29959
968.4601, 38.28034
968.9423, 38.12464
969.4244, 38.34871
969.9065, 39.05316
970.3886, 39.73462
970.8707, 40.33160
971.3528, 40.82452
971.8350, 40.92989
972.3171, 40.99758
972.7992, 41.78125
973.2813, 43.62029
973.7634, 45.26633
974.2455, 45.99810
974.7277, 46.62041
975.2098, 47.59615
975.6919, 48.92879
976.1740, 50.29677
976.6561, 51.68944
977.1382, 53.34254
977.6204, 55.52745
978.1025, 57.98560
978.5846, 60.45498
979.0667, 62.93624
979.5488, 65.49843
980.0309, 68.12184
980.5131, 70.82292
980.9952, 73.64975
981.4773, 76.49911
981.9594, 79.21793
982.4415, 81.79685
982.9236, 84.42455
983.4058, 87.20850
983.8879, 89.28561
984.3700, 89.94697
984.8521, 89.53159
985.3342, 88.31169
985.8163, 86.24435
986.2985, 83.50258
986.7806, 79.93113
987.2627, 76.03691
987.7448, 71.92625
988.2269, 67.72234
988.7090, 63.71191
989.1912, 59.92790
989.6733, 56.50665
990.1554, 53.62702
990.6375, 50.98425
991.1196, 48.40838
991.6017, 46.04794
992.0839, 44.20858
992.5660, 42.98667
993.0481, 41.82603
993.5302, 40.62019
994.0123, 39.62952
994.4944, 39.26007
994.9766, 39.24449
995.4587, 39.19133
995.9408, 39.04496
996.4229, 38.93701
996.9050, 38.83701
997.3871, 38.86634
997.8693, 39.05034
998.3514, 39.40429
998.8335, 40.08382
999.3156, 41.06639
999.7977, 41.99866
1000.280, 42.56009
1000.762, 43.21199
1001.244, 44.35094
1001.726, 45.88618
1002.208, 47.68227
1002.690, 49.99396
1003.173, 52.03671
1003.655, 53.60321
1004.137, 55.24204
1004.619, 57.72219
1005.101, 60.73990
1005.583, 63.04029
1006.065, 64.59875
1006.547, 66.02561
1007.029, 67.94972
1007.512, 69.62484
1007.994, 70.60079
1008.476, 70.95679
1008.958, 70.95151
1009.440, 70.60997
1009.922, 69.71925
1010.404, 68.14743
1010.886, 66.15466
1011.369, 64.00742
1011.851, 61.70323
1012.333, 59.22335
1012.815, 56.47693
1013.297, 53.67799
1013.779, 50.68182
1014.261, 47.83319
1014.743, 45.39655
1015.225, 43.33898
1015.708, 41.41472
1016.190, 39.62153
1016.672, 37.91856
1017.154, 36.27434
1017.636, 34.73840
1018.118, 33.33225
1018.600, 32.07584
1019.082, 30.98591
1019.565, 30.04315
1020.047, 29.34698
1020.529, 28.98104
1021.011, 28.69523
1021.493, 28.15244
1021.975, 27.42135
1022.457, 26.60357
1022.939, 25.69381
1023.421, 24.90247
1023.904, 24.42710
1024.386, 23.98470
1024.868, 23.31077
1025.350, 22.48775
1025.832, 22.48069
1026.314, 23.27697
1026.796, 23.73994
1027.278, 23.13052
1027.760, 22.23067
1028.243, 21.75824
1028.725, 21.55493
1029.207, 21.36413
1029.689, 21.11046
1030.171, 20.93028
1030.653, 20.87924
1031.135, 20.78568
1031.617, 20.35526
1032.100, 19.76594
1032.582, 19.58677
1033.064, 19.81165
1033.546, 20.00620
1034.028, 19.94468
1034.510, 19.78864
1034.992, 19.55869
1035.474, 19.30257
1035.957, 19.17882
1036.439, 19.19492
1036.921, 19.18081
1037.403, 19.08906
1037.885, 18.97902
1038.367, 18.96867
1038.849, 18.95400
1039.331, 18.78498
1039.813, 18.37662
1040.296, 18.05735
1040.778, 17.85570
1041.260, 17.72294
1041.742, 17.63442
1042.224, 17.59527
1042.706, 17.65737
1043.188, 17.79317
1043.670, 17.89943
1044.152, 17.91627
1044.635, 17.90325
1045.117, 17.93415
1045.599, 17.91717
1046.081, 17.68669
1046.563, 17.18406
1047.045, 16.95170
1047.527, 17.03930
1048.009, 17.21000
1048.492, 17.28956
1048.974, 17.31803
1049.456, 17.33453
1049.938, 17.34106
1050.420, 17.32323
1050.902, 17.28149
1051.384, 17.20607
1051.866, 17.06293
1052.349, 16.93280
1052.831, 17.04793
1053.313, 17.29877
1053.795, 17.35854
1054.277, 17.09621
1054.759, 16.85484
1055.241, 16.84420
1055.723, 16.86063
1056.205, 16.73806
1056.688, 16.77855
1057.170, 16.48874
1057.652, 16.75058
1058.134, 16.95136
1058.616, 16.88951
1059.098, 16.73199
1059.580, 16.60540
1060.062, 16.50154
1060.544, 16.40486
1061.027, 16.30094
1061.509, 16.22928
1061.991, 16.19577
1062.473, 16.18236
1062.955, 16.15908
1063.437, 16.14714
1063.919, 16.24032
1064.401, 16.41815
1064.884, 16.48271
1065.366, 16.17574
1065.848, 15.95203
1066.330, 16.00187
1066.812, 16.18555
1067.294, 16.18693
1067.776, 16.02353
1068.258, 15.87428
1068.740, 15.77502
1069.223, 15.70563
1069.705, 15.61719
1070.187, 15.57475
1070.669, 15.67860
1071.151, 15.94249
1071.633, 16.03343
1072.115, 15.91952
1072.597, 15.79599
1073.079, 15.77841
1073.562, 15.76016
1074.044, 15.50836
1074.526, 15.15247
1075.008, 14.92892
1075.490, 14.95690
1075.972, 15.05504
1076.454, 15.27438
1076.936, 15.44215
1077.419, 15.35341
1077.901, 15.08987
1078.383, 15.08302
1078.865, 15.29484
1079.347, 15.43013
1079.829, 15.17992
1080.311, 14.97706
1080.793, 15.08914
1081.275, 15.34037
1081.758, 15.47810
1082.240, 15.50270
1082.722, 15.36960
1083.204, 15.04766
1083.686, 14.81144
1084.168, 15.00210
1084.650, 15.31399
1085.132, 15.49255
1085.615, 15.51198
1086.097, 15.41271
1086.579, 15.13058
1087.061, 14.95583
1087.543, 15.01512
1088.025, 15.13164
1088.507, 14.98168
1088.989, 14.69742
1089.471, 14.52211
1089.953, 14.53827
1090.436, 14.55502
1090.918, 14.48445
1091.400, 14.47079
1091.882, 14.63253
1092.364, 14.90505
1092.846, 14.95985
1093.328, 14.84154
1093.810, 14.76872
1094.293, 14.94526
1094.775, 15.04636
1095.257, 14.81238
1095.739, 14.49542
1096.221, 14.35601
1096.703, 14.40447
1097.185, 14.59186
1097.667, 14.92354
1098.150, 15.19043
1098.632, 15.22033
1099.114, 15.12970
1099.596, 14.89714
1100.078, 14.62766
1100.560, 14.67421
1101.042, 15.23233
1101.524, 15.53675
1102.006, 15.45353
1102.489, 15.22507
1102.971, 15.07101
1103.453, 14.98088
1103.935, 14.98235
1104.417, 15.07015
1104.899, 15.04196
1105.381, 14.68470
1105.863, 14.45602
1106.345, 14.49660
1106.828, 14.70840
1107.310, 14.98378
1107.792, 15.25319
1108.274, 15.23755
1108.756, 14.78443
1109.238, 14.46421
1109.720, 14.71650
1110.202, 15.02466
1110.685, 15.09813
1111.167, 14.96691
1111.649, 14.82295
1112.131, 14.67199
1112.613, 14.56604
1113.095, 14.52563
1113.577, 14.54410
1114.059, 14.68553
1114.542, 14.84453
1115.024, 14.88992
1115.506, 14.79232
1115.988, 14.73262
1116.470, 14.71720
1116.952, 14.67468
1117.434, 14.47170
1117.916, 14.28595
1118.398, 14.39236
1118.880, 14.66062
1119.363, 14.75723
1119.845, 14.47602
1120.327, 14.39875
1120.809, 14.62111
1121.291, 14.86703
1121.773, 14.80678
1122.255, 14.60565
1122.737, 14.58104
1123.220, 14.71551
1123.702, 14.77725
1124.184, 14.56594
1124.666, 14.44873
1125.148, 14.51959
1125.630, 14.66904
1126.112, 14.70875
1126.594, 14.68230
1127.077, 14.75824
1127.559, 14.96718
1128.041, 15.07269
1128.523, 14.81294
1129.005, 14.59178
1129.487, 14.62413
1129.969, 14.80445
1130.451, 14.78138
1130.933, 14.58387
1131.416, 14.44368
1131.898, 14.43601
1132.380, 14.43103
1132.862, 14.26691
1133.344, 14.13107
1133.826, 14.17704
1134.308, 14.39594
1134.790, 14.70521
1135.272, 15.11167
1135.755, 15.35309
1136.237, 15.27281
1136.719, 15.08370
1137.201, 14.98364
1137.683, 14.89528
1138.165, 14.68699
1138.647, 14.27785
1139.129, 14.10819
1139.612, 14.20372
1140.094, 14.36784
1140.576, 14.48702
1141.058, 14.59634
1141.540, 14.80417
1142.022, 14.78044
1142.504, 15.06547
1142.986, 14.73488
1143.469, 14.51748
1143.951, 14.41108
1144.433, 14.45443
1144.915, 14.84673
1145.397, 15.32983
1145.879, 15.34625
1146.361, 15.00454
1146.843, 14.80166
1147.325, 15.00691
1147.807, 15.20891
1148.290, 15.35498
1148.772, 15.48489
1149.254, 15.65463
1149.736, 15.84626
1150.218, 16.04408
1150.700, 16.23940
1151.182, 16.33930
1151.664, 16.13190
1152.147, 16.04391
1152.629, 16.19480
1153.111, 16.52013
1153.593, 16.96725
1154.075, 17.48687
1154.557, 17.86706
1155.039, 18.06646
1155.521, 18.29877
1156.004, 18.66820
1156.486, 19.12206
1156.968, 19.67192
1157.450, 20.25911
1157.932, 20.71370
1158.414, 21.04667
1158.896, 21.30338
1159.378, 21.45776
1159.860, 21.72613
1160.343, 22.36445
1160.825, 23.07205
1161.307, 23.65134
1161.789, 24.11203
1162.271, 24.52600
1162.753, 24.89528
1163.235, 25.27989
1163.717, 25.74437
1164.199, 26.12327
1164.682, 26.22039
1165.164, 26.19878
1165.646, 26.27756
1166.128, 26.49029
1166.610, 26.19172
1167.092, 25.36706
1167.574, 24.49554
1168.056, 23.79781
1168.539, 23.18714
1169.021, 22.60096
1169.503, 22.03971
1169.985, 21.51627
1170.467, 21.06868
1170.949, 20.47379
1171.431, 19.71437
1171.913, 19.00721
1172.396, 18.49347
1172.878, 18.11105
1173.360, 17.84958
1173.842, 17.65441
1174.324, 17.40546
1174.806, 17.03728
1175.288, 16.80011
1175.770, 16.73398
1176.252, 16.61990
1176.734, 16.18278
1177.217, 15.67543
1177.699, 15.44488
1178.181, 15.40730
1178.663, 15.30661
1179.145, 15.04437
1179.627, 14.87275
1180.109, 14.82036
1180.591, 14.81750
1181.074, 14.88009
1181.556, 14.90015
1182.038, 14.63728
1182.520, 14.16742
1183.002, 13.89720
1183.484, 13.97399
1183.966, 14.06679
1184.448, 14.14791
1184.931, 14.20035
1185.413, 14.20713
1185.895, 14.17138
1186.377, 14.04933
1186.859, 13.86414
1187.341, 13.83826
1187.823, 14.23002
1188.305, 14.30290
1188.787, 13.80922
1189.270, 13.21539
1189.752, 13.26233
1190.234, 13.61432
1190.716, 13.65841
1191.198, 13.34237
1191.680, 13.13569
1192.162, 13.15912
1192.644, 13.27026
1193.126, 13.48115
1193.609, 13.67621
1194.091, 13.60334
1194.573, 13.40232
1195.055, 13.37387
1195.537, 13.57682
1196.019, 13.59877
1196.501, 13.18453
1196.983, 12.88908
1197.466, 12.90906
1197.948, 13.07926
1198.430, 13.05334
1198.912, 12.96142
1199.394, 13.12022
1199.876, 13.64221
1200.358, 13.96770
1200.840, 13.95327
1201.323, 13.77537
1201.805, 13.42249
1202.287, 13.04685
1202.769, 12.99376
1203.251, 13.15597
1203.733, 13.32451
1204.215, 13.47434
1204.697, 13.52841
1205.179, 13.42097
1205.661, 13.33365
1206.144, 13.36585
1206.626, 13.28450
1207.108, 13.39396
1207.590, 13.26934
1208.072, 13.21537
1208.554, 13.30024
1209.036, 13.35634
1209.518, 13.36254
1210.001, 13.32546
1210.483, 13.20531
1210.965, 13.08317
1211.447, 13.23599
1211.929, 13.52735
1212.411, 13.64100
1212.893, 13.35966
1213.375, 13.24958
1213.858, 13.44079
1214.340, 13.66153
1214.822, 13.79188
1215.304, 13.82249
1215.786, 13.68354
1216.268, 13.43676
1216.750, 13.21804
1217.232, 13.03945
1217.714, 12.96740
1218.197, 13.03445
1218.679, 13.13322
1219.161, 13.22568
1219.643, 13.28126
1220.125, 13.13120
1220.607, 12.90735
1221.089, 12.92617
1221.571, 13.58073
1222.053, 13.89544
1222.536, 13.74048
1223.018, 13.47143
1223.500, 13.30444
1223.982, 13.19943
1224.464, 13.08027
1224.946, 12.96314
1225.428, 12.88510
1225.910, 12.89676
1226.393, 12.87391
1226.875, 12.79319
1227.357, 12.74455
1227.839, 12.82663
1228.321, 12.96234
1228.803, 13.03461
1229.285, 13.05736
1229.767, 13.06378
1230.250, 13.10150
1230.732, 13.00758
1231.214, 12.72342
1231.696, 12.52660
1232.178, 12.70305
1232.660, 13.04107
1233.142, 13.34490
1233.624, 13.56591
1234.106, 13.57080
1234.589, 13.21965
1235.071, 12.98623
1235.553, 12.88468
1236.035, 12.88451
1236.517, 13.03704
1236.999, 13.21751
1237.481, 13.31916
1237.963, 13.32818
1238.445, 13.18958
1238.928, 12.80373
1239.410, 12.64242
1239.892, 12.73642
1240.374, 12.90809
1240.856, 13.10430
1241.338, 13.23938
1241.820, 13.19209
1242.302, 13.03749
1242.785, 12.91862
1243.267, 12.81456
1243.749, 12.92292
1244.231, 13.26236
1244.713, 13.54569
1245.195, 13.54584
1245.677, 13.43043
1246.159, 13.29867
1246.641, 13.14325
1247.124, 12.90408
1247.606, 12.54634
1248.088, 12.60682
1248.570, 13.09920
1249.052, 13.49688
1249.534, 13.32766
1250.016, 13.08993
1250.498, 13.07772
1250.980, 13.18158
1251.463, 13.25666
1251.945, 13.30387
1252.427, 13.42515
1252.909, 13.60868
1253.391, 13.67121
1253.873, 13.38777
1254.355, 13.09021
1254.837, 12.86340
1255.320, 12.74683
1255.802, 12.83154
1256.284, 13.08247
1256.766, 13.32292
1257.248, 13.53013
1257.730, 13.61200
1258.212, 13.36408
1258.694, 13.19958
1259.177, 13.25525
1259.659, 13.38639
1260.141, 13.41376
1260.623, 13.39660
1261.105, 13.64478
1261.587, 14.07085
1262.069, 14.22824
1262.551, 13.60803
1263.033, 13.18631
1263.516, 13.12726
1263.998, 13.19613
1264.480, 13.13883
1264.962, 13.05399
1265.444, 13.22693
1265.926, 13.56592
1266.408, 13.71840
1266.890, 13.40862
1267.372, 13.25559
1267.855, 13.32345
1268.337, 13.44506
1268.819, 13.49223
1269.301, 13.49359
1269.783, 13.47729
1270.265, 13.44899
1270.747, 13.41745
1271.229, 13.37028
1271.712, 13.36543
1272.194, 13.40873
1272.676, 13.46931
1273.158, 13.52758
1273.640, 13.58855
1274.122, 13.67889
1274.604, 13.76622
1275.086, 13.78914
1275.568, 13.73972
1276.051, 13.65132
1276.533, 13.52379
1277.015, 13.47436
1277.497, 13.66453
1277.979, 13.86127
1278.461, 13.93742
1278.943, 13.92547
1279.425, 13.85767
1279.907, 13.73478
1280.390, 13.60732
1280.872, 13.48442
1281.354, 13.43042
1281.836, 13.57064
1282.318, 13.66537
1282.800, 13.54162
1283.282, 13.43709
1283.764, 13.64838
1284.247, 14.06328
1284.729, 14.02156
1285.211, 13.65139
1285.693, 13.44307
1286.175, 13.81912
1286.657, 14.02529
1287.139, 13.92124
1287.621, 13.75511
1288.104, 13.70196
1288.586, 13.72831
1289.068, 13.74933
1289.550, 13.79313
1290.032, 13.93414
1290.514, 14.43431
1290.996, 14.47899
1291.478, 13.94550
1291.960, 13.46673
1292.443, 13.54049
1292.925, 13.78120
1293.407, 13.68066
1293.889, 13.43398
1294.371, 13.38052
1294.853, 13.57813
1295.335, 13.72479
1295.817, 13.82156
1296.299, 13.85648
1296.782, 13.81554
1297.264, 13.72256
1297.746, 13.48538
1298.228, 13.29648
1298.710, 13.38661
1299.192, 13.72745
1299.674, 13.78230
1300.156, 13.59811
1300.639, 13.48268
1301.121, 13.59020
1301.603, 13.71394
1302.085, 13.78731
1302.567, 13.82243
1303.049, 13.82377
1303.531, 13.78890
##END=



