##NAMES=Topaz
##RRUFFID=R050176
##IDEAL CHEMISTRY=Al_2_SiO_4_F_2_
##LOCALITY=Jos Plateau, Nigeria
##OWNER=RRUFF
##SOURCE=Marcus Origlieri
##DESCRIPTION=Colorless prismatic crystal
##STATUS=The identification of this mineral has been confirmed by X-ray diffraction and chemical analysis
##URL=rruff.info/R050176
##MEASURED CHEMISTRY=Al_2.000_Si_1.000_O_4.000_(F_1.438_(OH)_0.562_)
93.78320, 79.81896
94.26532, 82.24632
94.74744, 82.65263
95.22955, 80.81253
95.71167, 77.80525
96.19379, 74.76584
96.67590, 71.77909
97.15802, 69.06947
97.64014, 66.74123
98.12225, 64.67872
98.60437, 62.64381
99.08649, 60.49813
99.56860, 58.50064
100.0507, 57.06830
100.5328, 56.23130
101.0150, 55.34636
101.4971, 53.94117
101.9792, 51.99851
102.4613, 49.98819
102.9434, 47.79900
103.4255, 45.72831
103.9077, 43.99782
104.3898, 42.66071
104.8719, 41.69022
105.3540, 41.10141
105.8361, 41.22490
106.3182, 41.14730
106.8004, 40.59769
107.2825, 39.78074
107.7646, 38.94673
108.2467, 38.25755
108.7288, 37.68600
109.2109, 36.86859
109.6931, 35.40098
110.1752, 34.08433
110.6573, 33.17288
111.1394, 32.60407
111.6215, 32.16836
112.1036, 31.69836
112.5858, 31.18528
113.0679, 30.65779
113.5500, 29.94255
114.0321, 29.32883
114.5142, 29.11184
114.9964, 29.33661
115.4785, 29.64732
115.9606, 29.61153
116.4427, 29.25243
116.9248, 28.87685
117.4069, 28.47920
117.8891, 28.11748
118.3712, 27.94595
118.8533, 28.10837
119.3354, 28.28932
119.8175, 28.13877
120.2996, 27.68815
120.7818, 27.27469
121.2639, 27.15527
121.7460, 27.33845
122.2281, 27.57693
122.7102, 27.99478
123.1923, 28.34241
123.6745, 28.50943
124.1566, 28.46899
124.6387, 28.22120
125.1208, 27.69222
125.6029, 26.57731
126.0850, 25.84911
126.5672, 25.65485
127.0493, 25.75118
127.5314, 26.01308
128.0135, 26.38204
128.4956, 26.78041
128.9777, 26.99438
129.4599, 26.89043
129.9420, 26.72803
130.4241, 26.50197
130.9062, 26.23151
131.3883, 25.91871
131.8705, 25.54617
132.3526, 25.15442
132.8347, 24.96883
133.3168, 25.00406
133.7989, 25.17100
134.2810, 25.49451
134.7632, 25.94732
135.2453, 26.39886
135.7274, 26.79188
136.2095, 27.10738
136.6916, 27.32561
137.1737, 27.40927
137.6559, 27.41750
138.1380, 27.41517
138.6201, 27.40989
139.1022, 27.35608
139.5843, 27.12603
140.0664, 26.83812
140.5486, 26.67806
141.0307, 26.76313
141.5128, 27.02352
141.9949, 27.26935
142.4770, 27.55850
142.9591, 27.73236
143.4413, 27.59930
143.9234, 27.32038
144.4055, 27.19698
144.8876, 27.50061
145.3697, 28.23420
145.8518, 28.78582
146.3340, 28.93936
146.8161, 29.08735
147.2982, 29.28892
147.7803, 29.57851
148.2624, 29.99158
148.7445, 30.57015
149.2267, 31.32681
149.7088, 32.20626
150.1909, 32.85613
150.6730, 33.85565
151.1551, 35.24810
151.6372, 37.17165
152.1194, 40.01994
152.6015, 44.17876
153.0836, 49.48542
153.5657, 57.54280
154.0478, 70.48031
154.5299, 85.15739
155.0121, 100.4171
155.4942, 116.4069
155.9763, 128.2872
156.4584, 126.1343
156.9405, 109.6172
157.4227, 91.60252
157.9048, 73.16077
158.3869, 55.69463
158.8690, 42.40257
159.3511, 34.68470
159.8332, 30.76053
160.3154, 28.36135
160.7975, 27.47349
161.2796, 27.13030
161.7617, 26.71364
162.2438, 26.26095
162.7259, 26.28360
163.2081, 27.00507
163.6902, 28.22901
164.1723, 29.90014
164.6544, 32.01997
165.1365, 34.24642
165.6186, 36.49828
166.1008, 39.03685
166.5829, 40.32997
167.0650, 39.67154
167.5471, 38.02137
168.0292, 35.58301
168.5113, 32.48669
168.9935, 29.24857
169.4756, 26.72690
169.9577, 25.14993
170.4398, 23.92978
170.9219, 23.10702
171.4040, 22.50338
171.8862, 21.96142
172.3683, 21.42490
172.8504, 20.96594
173.3325, 20.76010
173.8146, 21.27709
174.2967, 21.49028
174.7789, 21.10107
175.2610, 20.48331
175.7431, 20.09542
176.2252, 20.14872
176.7073, 20.49707
177.1894, 20.65892
177.6716, 20.48868
178.1537, 20.33535
178.6358, 20.25095
179.1179, 20.22809
179.6000, 20.27780
180.0821, 20.43945
180.5643, 20.62970
181.0464, 20.58201
181.5285, 20.11018
182.0106, 19.71208
182.4927, 19.66171
182.9749, 19.90197
183.4570, 20.18439
183.9391, 20.42181
184.4212, 20.60467
184.9033, 20.72688
185.3854, 20.75582
185.8676, 20.77764
186.3497, 20.88236
186.8318, 21.07343
187.3139, 21.22698
187.7960, 21.27040
188.2781, 21.25083
188.7603, 21.21936
189.2424, 21.19098
189.7245, 21.14064
190.2066, 21.00838
190.6887, 20.75131
191.1708, 20.57079
191.6530, 20.56357
192.1351, 20.64922
192.6172, 20.79218
193.0993, 20.99397
193.5814, 21.19032
194.0635, 21.23026
194.5457, 21.00342
195.0278, 20.83892
195.5099, 20.79957
195.9920, 20.84736
196.4741, 20.97315
196.9562, 21.17879
197.4384, 21.40964
197.9205, 21.50443
198.4026, 21.36029
198.8847, 21.20544
199.3668, 21.02214
199.8489, 20.86093
200.3311, 20.78434
200.8132, 20.82557
201.2953, 20.95667
201.7774, 21.06639
202.2595, 21.19104
202.7416, 21.24917
203.2238, 21.17224
203.7059, 21.03641
204.1880, 20.94361
204.6701, 20.94842
205.1522, 21.03625
205.6344, 21.14646
206.1165, 21.29337
206.5986, 21.44480
207.0807, 21.61798
207.5628, 21.78996
208.0449, 21.91260
208.5271, 21.95398
209.0092, 21.93717
209.4913, 21.95713
209.9734, 22.04956
210.4555, 22.12809
210.9376, 22.12919
211.4198, 22.08704
211.9019, 22.08120
212.3840, 22.12017
212.8661, 22.26043
213.3482, 22.63383
213.8303, 23.35925
214.3125, 24.10231
214.7946, 24.66164
215.2767, 25.06768
215.7588, 25.45011
216.2409, 25.77732
216.7230, 26.19689
217.2052, 26.91759
217.6873, 27.98337
218.1694, 29.25770
218.6515, 30.52603
219.1336, 31.81092
219.6157, 33.59134
220.0979, 36.30802
220.5800, 39.50191
221.0621, 42.79836
221.5442, 46.26817
222.0263, 49.38904
222.5084, 51.62469
222.9906, 52.94469
223.4727, 53.80214
223.9548, 53.89296
224.4369, 53.81092
224.9190, 53.92366
225.4011, 54.29573
225.8833, 54.93810
226.3654, 55.85046
226.8475, 57.01163
227.3296, 58.53705
227.8117, 60.44110
228.2938, 62.72992
228.7760, 65.48753
229.2581, 68.72849
229.7402, 72.25356
230.2223, 75.71326
230.7044, 78.88917
231.1866, 82.76839
231.6687, 87.44254
232.1508, 92.77778
232.6329, 98.40147
233.1150, 104.3989
233.5971, 111.5089
234.0793, 120.5401
234.5614, 130.9234
235.0435, 145.0298
235.5256, 160.6237
236.0077, 180.8264
236.4898, 206.1977
236.9720, 237.4509
237.4541, 276.8794
237.9362, 327.9720
238.4183, 392.8253
238.9004, 465.1123
239.3825, 559.9911
239.8647, 649.4805
240.3468, 726.2832
240.8289, 784.0781
241.3110, 806.5961
241.7931, 770.2474
242.2752, 650.8069
242.7574, 537.2588
243.2395, 418.8478
243.7216, 313.2417
244.2037, 232.9976
244.6858, 179.0726
245.1679, 142.8990
245.6501, 115.9606
246.1322, 100.2415
246.6143, 88.28593
247.0964, 81.04423
247.5785, 76.33555
248.0606, 73.02544
248.5428, 70.89462
249.0249, 69.99495
249.5070, 70.60418
249.9891, 73.05506
250.4712, 74.66933
250.9533, 75.52718
251.4355, 75.56522
251.9176, 74.28242
252.3997, 71.84852
252.8818, 69.50832
253.3639, 68.27676
253.8460, 68.24413
254.3282, 68.50993
254.8103, 69.02696
255.2924, 69.86464
255.7745, 71.13895
256.2566, 72.82438
256.7387, 74.67117
257.2209, 76.43635
257.7030, 78.23188
258.1851, 80.55336
258.6672, 83.39568
259.1493, 86.75289
259.6314, 90.60569
260.1136, 94.95895
260.5957, 99.76204
261.0778, 104.6197
261.5599, 110.2083
262.0420, 117.7862
262.5241, 126.5374
263.0063, 138.2575
263.4884, 152.6126
263.9705, 170.0981
264.4526, 194.6460
264.9347, 225.4831
265.4168, 267.7421
265.8990, 325.6913
266.3811, 401.3089
266.8632, 489.5577
267.3453, 600.8818
267.8275, 729.6103
268.3096, 835.9064
268.7917, 920.8622
269.2738, 955.9711
269.7559, 908.0490
270.2380, 764.9908
270.7202, 602.2849
271.2023, 458.6289
271.6844, 335.2893
272.1665, 240.7808
272.6486, 185.0266
273.1307, 154.3182
273.6129, 132.8987
274.0950, 120.4907
274.5771, 113.0064
275.0592, 108.9256
275.5413, 107.8655
276.0234, 107.6759
276.5056, 108.1262
276.9877, 109.3883
277.4698, 111.2706
277.9519, 113.8349
278.4340, 117.3997
278.9161, 121.7725
279.3983, 127.1933
279.8804, 134.7264
280.3625, 143.9732
280.8446, 156.3777
281.3267, 170.9308
281.8088, 188.5260
282.2910, 211.5694
282.7731, 240.4013
283.2552, 275.6537
283.7373, 320.0260
284.2194, 375.9701
284.7015, 437.0711
285.1837, 508.9947
285.6658, 582.2977
286.1479, 644.8444
286.6300, 695.9726
287.1121, 727.8954
287.5942, 719.2080
288.0764, 658.4599
288.5585, 582.1866
289.0406, 491.0229
289.5227, 398.0134
290.0048, 317.2502
290.4869, 252.8304
290.9691, 202.5074
291.4512, 163.1446
291.9333, 136.5835
292.4154, 115.5689
292.8975, 100.2113
293.3796, 88.31851
293.8618, 78.99118
294.3439, 71.98109
294.8260, 66.51180
295.3081, 61.71403
295.7902, 57.63018
296.2723, 54.05018
296.7545, 51.00830
297.2366, 48.45058
297.7187, 46.56895
298.2008, 45.30091
298.6829, 44.18785
299.1650, 42.68598
299.6472, 40.70601
300.1293, 39.14959
300.6114, 38.46175
301.0935, 37.88940
301.5756, 37.10997
302.0577, 36.15414
302.5399, 35.20323
303.0220, 34.39628
303.5041, 33.73151
303.9862, 33.13793
304.4683, 32.61470
304.9504, 32.17643
305.4326, 31.90742
305.9147, 31.71589
306.3968, 31.42650
306.8789, 30.90225
307.3610, 30.21662
307.8431, 29.68928
308.3253, 29.33491
308.8074, 29.14054
309.2895, 29.09551
309.7716, 29.18173
310.2537, 29.38986
310.7358, 29.72152
311.2180, 30.14622
311.7001, 30.59872
312.1822, 31.09402
312.6643, 31.59330
313.1464, 31.92537
313.6285, 32.35117
314.1107, 33.06738
314.5928, 34.13045
315.0749, 35.50493
315.5570, 37.26587
316.0392, 39.63983
316.5213, 41.55836
317.0034, 43.14746
317.4855, 44.08712
317.9676, 44.11613
318.4497, 43.24123
318.9319, 41.68513
319.4140, 39.46936
319.8961, 36.50062
320.3782, 33.82933
320.8603, 31.27216
321.3424, 29.26132
321.8246, 28.05736
322.3067, 27.54005
322.7888, 27.41732
323.2709, 27.56454
323.7530, 27.93970
324.2351, 28.21608
324.7173, 28.26448
325.1994, 28.39902
325.6815, 28.69795
326.1636, 29.13698
326.6457, 29.63778
327.1278, 30.11886
327.6100, 30.74694
328.0921, 31.90985
328.5742, 33.59341
329.0563, 35.91306
329.5384, 38.82270
330.0205, 42.32381
330.5027, 46.57808
330.9848, 51.64352
331.4669, 57.04206
331.9490, 62.54386
332.4311, 68.63857
332.9132, 72.66527
333.3954, 73.99799
333.8775, 73.21432
334.3596, 69.84159
334.8417, 64.17221
335.3238, 57.70807
335.8059, 51.52681
336.2881, 45.60569
336.7702, 40.56149
337.2523, 36.59723
337.7344, 33.41507
338.2165, 30.92596
338.6986, 29.05039
339.1808, 27.62143
339.6629, 26.63217
340.1450, 25.99097
340.6271, 25.34539
341.1092, 24.65882
341.5913, 24.04591
342.0735, 23.48853
342.5556, 23.03817
343.0377, 22.79828
343.5198, 22.84945
344.0019, 22.99706
344.4840, 22.91931
344.9662, 22.56985
345.4483, 22.19803
345.9304, 21.79984
346.4125, 21.45362
346.8946, 21.25643
347.3767, 21.22005
347.8589, 21.19673
348.3410, 20.98789
348.8231, 20.60173
349.3052, 20.41835
349.7873, 20.65560
350.2694, 20.92391
350.7516, 20.94965
351.2337, 20.76959
351.7158, 20.55812
352.1979, 20.35200
352.6800, 20.18933
353.1621, 20.21409
353.6443, 20.48022
354.1264, 20.81925
354.6085, 21.24379
355.0906, 21.65581
355.5727, 21.85623
356.0548, 21.64886
356.5370, 21.36029
357.0191, 21.45594
357.5012, 21.96486
357.9833, 22.53122
358.4654, 23.10612
358.9475, 23.60100
359.4297, 23.93989
359.9118, 24.13239
360.3939, 24.09721
360.8760, 23.70593
361.3581, 23.01060
361.8402, 22.22356
362.3224, 21.27480
362.8045, 20.44674
363.2866, 20.11802
363.7687, 20.23304
364.2508, 20.27876
364.7329, 19.90756
365.2151, 19.38449
365.6972, 19.18858
366.1793, 19.39867
366.6614, 19.68775
367.1436, 19.71521
367.6257, 19.62879
368.1078, 19.88846
368.5899, 20.84318
369.0720, 21.92703
369.5541, 22.71579
370.0363, 23.23159
370.5184, 23.59029
371.0005, 23.79990
371.4826, 23.92237
371.9647, 24.12208
372.4468, 24.47604
372.9290, 24.70933
373.4111, 24.67799
373.8932, 24.46028
374.3753, 24.20938
374.8574, 23.97308
375.3395, 23.65922
375.8217, 23.10371
376.3038, 22.26654
376.7859, 21.56111
377.2680, 21.05813
377.7501, 20.68001
378.2322, 20.41308
378.7144, 20.23334
379.1965, 20.01343
379.6786, 19.63607
380.1607, 19.12568
380.6428, 18.75222
381.1249, 18.52474
381.6071, 18.40214
382.0892, 18.40077
382.5713, 18.49063
383.0534, 18.62495
383.5355, 18.78677
384.0176, 18.96491
384.4998, 19.13677
384.9819, 19.29280
385.4640, 19.45924
385.9461, 19.59706
386.4282, 19.76981
386.9103, 20.06631
387.3925, 20.47935
387.8746, 20.89809
388.3567, 21.20304
388.8388, 21.38624
389.3209, 21.50480
389.8030, 21.43033
390.2852, 21.43257
390.7673, 21.68389
391.2494, 22.08636
391.7315, 22.39340
392.2136, 22.43872
392.6957, 22.36738
393.1779, 22.75428
393.6600, 24.06863
394.1421, 25.19527
394.6242, 25.76793
395.1063, 26.27714
395.5884, 27.15549
396.0706, 28.51353
396.5527, 30.15382
397.0348, 31.80580
397.5169, 33.37871
397.9990, 35.29200
398.4811, 37.49184
398.9633, 40.08426
399.4454, 43.12591
399.9275, 46.60860
400.4096, 50.55474
400.8917, 55.01379
401.3738, 59.90931
401.8560, 65.00659
402.3381, 70.69193
402.8202, 75.80106
403.3023, 80.69955
403.7844, 84.62580
404.2665, 86.89131
404.7487, 87.31831
405.2308, 85.78086
405.7129, 81.65002
406.1950, 74.76789
406.6771, 67.76292
407.1592, 60.71403
407.6414, 54.11927
408.1235, 48.17348
408.6056, 42.91225
409.0877, 38.45597
409.5698, 35.06453
410.0519, 32.51996
410.5341, 30.34661
411.0162, 28.58350
411.4983, 27.03098
411.9804, 25.58950
412.4625, 24.28963
412.9446, 23.22779
413.4268, 22.49836
413.9089, 21.87688
414.3910, 21.13216
414.8731, 20.32301
415.3553, 19.74975
415.8374, 19.54758
416.3195, 19.55750
416.8016, 19.63403
417.2837, 19.80801
417.7658, 19.74127
418.2480, 19.06954
418.7301, 18.25572
419.2122, 17.87805
419.6943, 17.98342
420.1764, 18.16699
420.6585, 18.10236
421.1407, 17.82187
421.6228, 17.71099
422.1049, 17.90118
422.5870, 18.09716
423.0691, 18.16608
423.5512, 18.16280
424.0334, 18.21920
424.5155, 18.39329
424.9976, 18.57141
425.4797, 18.54453
425.9618, 18.27201
426.4439, 17.83698
426.9261, 17.00713
427.4082, 16.19774
427.8903, 15.70427
428.3724, 15.52615
428.8545, 15.50443
429.3366, 15.52954
429.8188, 15.59377
430.3009, 15.52664
430.7830, 15.11650
431.2651, 14.80548
431.7472, 14.70649
432.2293, 14.72810
432.7115, 14.76085
433.1936, 14.76359
433.6757, 14.77155
434.1578, 14.85259
434.6399, 15.03588
435.1220, 15.18734
435.6042, 15.37058
436.0863, 15.45294
436.5684, 15.26247
437.0505, 14.89039
437.5326, 14.62259
438.0147, 14.66285
438.4969, 14.95561
438.9790, 15.31257
439.4611, 15.73704
439.9432, 16.21747
440.4253, 16.88059
440.9074, 17.54098
441.3896, 18.00168
441.8717, 18.21989
442.3538, 18.26285
442.8359, 18.06429
443.3180, 17.69047
443.8001, 17.59238
444.2823, 17.98725
444.7644, 18.43448
445.2465, 18.42023
445.7286, 18.05521
446.2107, 17.82861
446.6928, 17.98858
447.1750, 18.26959
447.6571, 18.34826
448.1392, 18.25254
448.6213, 18.29700
449.1034, 18.65258
449.5855, 19.25502
450.0677, 19.92271
450.5498, 20.59056
451.0319, 21.43116
451.5140, 22.43419
451.9961, 23.65800
452.4782, 25.16831
452.9604, 26.97941
453.4425, 29.06875
453.9246, 31.44794
454.4067, 34.15149
454.8888, 36.78384
455.3709, 39.20827
455.8531, 41.70535
456.3352, 44.74704
456.8173, 47.84837
457.2994, 50.35958
457.7815, 51.97288
458.2636, 52.61312
458.7458, 52.06724
459.2279, 49.96646
459.7100, 47.36722
460.1921, 43.93721
460.6742, 40.39399
461.1563, 36.99353
461.6385, 33.83283
462.1206, 31.07103
462.6027, 28.88129
463.0848, 27.17640
463.5669, 25.47957
464.0491, 23.67433
464.5312, 22.14547
465.0133, 21.10613
465.4954, 20.34958
465.9775, 19.67317
466.4597, 19.02400
466.9418, 18.50284
467.4239, 18.23975
467.9060, 18.20400
468.3881, 18.20549
468.8702, 18.27005
469.3524, 18.26311
469.8345, 17.96439
470.3166, 17.48736
470.7987, 17.17678
471.2808, 17.20935
471.7629, 17.37230
472.2451, 17.47768
472.7272, 17.54435
473.2093, 17.69722
473.6914, 18.03335
474.1735, 18.40133
474.6556, 18.47423
475.1378, 18.16792
475.6199, 17.90713
476.1020, 17.69135
476.5841, 17.58875
477.0662, 17.71337
477.5483, 18.03792
478.0305, 18.38301
478.5126, 18.60583
478.9947, 18.72791
479.4768, 18.93155
479.9589, 19.27126
480.4410, 19.63117
480.9232, 20.01843
481.4053, 20.40806
481.8874, 20.76622
482.3695, 21.08956
482.8516, 21.40906
483.3337, 21.78297
483.8159, 22.23229
484.2980, 22.55110
484.7801, 22.57238
485.2622, 22.65052
485.7443, 22.72854
486.2264, 22.98275
486.7086, 23.74022
487.1907, 25.21143
487.6728, 26.96958
488.1549, 28.36876
488.6370, 29.37554
489.1191, 30.61789
489.6013, 32.59447
490.0834, 34.43210
490.5655, 35.46163
491.0476, 35.72364
491.5297, 35.46809
492.0118, 34.81643
492.4940, 33.69182
492.9761, 31.77966
493.4582, 29.12006
493.9403, 26.56375
494.4224, 24.47738
494.9045, 22.82997
495.3867, 21.61522
495.8688, 20.94080
496.3509, 20.31641
496.8330, 19.59355
497.3151, 18.88375
497.7972, 18.34323
498.2794, 17.96964
498.7615, 17.59209
499.2436, 17.04098
499.7257, 16.34064
500.2078, 15.90669
500.6899, 16.00901
501.1721, 16.05219
501.6542, 15.83242
502.1363, 15.56136
502.6184, 15.49768
503.1005, 15.69630
503.5826, 15.97513
504.0648, 16.08304
504.5469, 15.98782
505.0290, 16.05563
505.5111, 16.45944
505.9932, 16.81416
506.4753, 16.89771
506.9575, 16.85456
507.4396, 16.93169
507.9217, 17.24534
508.4038, 17.61822
508.8859, 17.79405
509.3680, 17.78922
509.8502, 17.91519
510.3323, 18.31837
510.8144, 18.74475
511.2965, 18.90952
511.7786, 18.86017
512.2607, 18.84984
512.7429, 19.05679
513.2250, 19.23563
513.7071, 19.08895
514.1892, 18.70238
514.6713, 18.44116
515.1534, 18.46501
515.6356, 18.70375
516.1177, 19.02374
516.5998, 19.43874
517.0819, 19.92396
517.5640, 20.38991
518.0461, 20.99902
518.5283, 21.98367
519.0104, 23.23239
519.4925, 24.40898
519.9746, 25.30593
520.4567, 25.93034
520.9388, 26.31416
521.4210, 26.50314
521.9031, 26.33801
522.3852, 25.77694
522.8673, 24.92466
523.3494, 23.70323
523.8315, 22.20769
524.3137, 20.80396
524.7958, 19.76912
525.2779, 19.05587
525.7600, 18.56542
526.2421, 18.36497
526.7242, 18.13458
527.2064, 17.65890
527.6885, 17.11912
528.1706, 16.73977
528.6527, 16.55134
529.1348, 16.44657
529.6169, 16.43659
530.0991, 16.45142
530.5812, 16.31459
531.0633, 16.01009
531.5454, 15.83351
532.0275, 16.05042
532.5096, 16.58343
532.9918, 16.88665
533.4739, 16.84446
533.9560, 16.76078
534.4381, 16.60880
534.9202, 16.49298
535.4023, 16.56826
535.8845, 16.83842
536.3666, 17.13402
536.8487, 17.28309
537.3308, 17.28646
537.8129, 17.27441
538.2951, 17.15535
538.7772, 17.14814
539.2593, 17.40334
539.7415, 17.73653
540.2236, 17.91846
540.7057, 17.89575
541.1878, 17.88293
541.6699, 18.08740
542.1520, 18.49231
542.6342, 18.99524
543.1163, 19.60406
543.5984, 20.27384
544.0805, 20.98329
544.5626, 21.73024
545.0447, 22.52899
545.5269, 23.44097
546.0090, 24.28730
546.4911, 24.88654
546.9732, 25.36939
547.4553, 26.01987
547.9374, 26.90599
548.4196, 27.78385
548.9017, 28.39348
549.3838, 28.72742
549.8659, 29.25769
550.3480, 30.16327
550.8301, 31.01789
551.3123, 31.55584
551.7944, 32.04249
552.2765, 32.80800
552.7586, 33.93479
553.2407, 35.26990
553.7228, 36.58301
554.2050, 37.85024
554.6871, 39.53326
555.1692, 41.66200
555.6513, 44.20086
556.1334, 47.19332
556.6155, 50.49645
557.0977, 54.00338
557.5798, 57.71256
558.0619, 61.40599
558.5440, 64.95850
559.0261, 68.33387
559.5082, 71.62153
559.9904, 74.98284
560.4725, 77.53581
560.9546, 78.63609
561.4367, 78.25278
561.9188, 76.89403
562.4009, 74.35635
562.8831, 71.10709
563.3652, 66.89036
563.8473, 62.22784
564.3294, 57.81792
564.8115, 53.80887
565.2936, 49.91820
565.7758, 45.81539
566.2579, 41.48269
566.7400, 37.81346
567.2221, 35.06662
567.7042, 32.72734
568.1863, 30.87132
568.6685, 29.30102
569.1506, 27.89119
569.6327, 26.59835
570.1148, 25.33251
570.5969, 23.95507
571.0790, 22.51148
571.5612, 21.29953
572.0433, 20.32053
572.5254, 19.58352
573.0075, 19.25926
573.4896, 19.11506
573.9717, 18.76760
574.4539, 18.10696
574.9360, 17.54613
575.4181, 17.36796
575.9002, 17.36559
576.3823, 17.26270
576.8644, 17.02735
577.3466, 16.73339
577.8287, 16.42109
578.3108, 16.10195
578.7929, 15.83291
579.2750, 15.56802
579.7571, 15.41963
580.2393, 15.47513
580.7214, 15.58983
581.2035, 15.71100
581.6856, 15.79178
582.1677, 15.72731
582.6498, 15.40198
583.1320, 14.90959
583.6141, 14.58093
584.0962, 14.44483
584.5783, 14.36933
585.0604, 14.31492
585.5425, 14.31460
586.0247, 14.46690
586.5068, 14.74779
586.9889, 14.86974
587.4710, 14.56693
587.9531, 14.13346
588.4352, 13.92065
588.9174, 13.90315
589.3995, 13.87180
589.8816, 13.72222
590.3637, 13.56035
590.8458, 13.58234
591.3279, 13.89295
591.8101, 14.09221
592.2922, 14.12437
592.7743, 14.10288
593.2564, 14.05272
593.7385, 14.00004
594.2206, 13.97155
594.7028, 13.97902
595.1849, 14.04082
595.6670, 14.26585
596.1491, 14.72341
596.6312, 14.79251
597.1133, 14.05650
597.5955, 13.42099
598.0776, 13.46764
598.5597, 13.92783
599.0418, 14.28692
599.5239, 14.37338
600.0060, 14.41646
600.4882, 14.63893
600.9703, 14.95263
601.4524, 15.14003
601.9345, 15.15771
602.4166, 15.07899
602.8987, 14.93714
603.3809, 14.74399
603.8630, 14.68764
604.3451, 14.96371
604.8272, 15.10569
605.3093, 14.89043
605.7914, 14.58599
606.2736, 14.47264
606.7557, 14.57066
607.2378, 14.68954
607.7199, 14.65590
608.2020, 14.51308
608.6841, 14.48893
609.1663, 14.63328
609.6484, 14.75099
610.1305, 14.71020
610.6126, 14.67458
611.0947, 14.84505
611.5768, 15.21092
612.0590, 15.44788
612.5411, 15.32323
613.0232, 15.06677
613.5053, 14.94435
613.9874, 14.93146
614.4695, 14.86905
614.9517, 14.68518
615.4338, 14.44512
615.9159, 14.24785
616.3980, 14.09134
616.8801, 13.99415
617.3622, 14.08350
617.8444, 14.08958
618.3265, 13.78021
618.8086, 13.34853
619.2907, 13.11281
619.7728, 13.18621
620.2549, 13.39110
620.7371, 13.53741
621.2192, 13.62356
621.7013, 13.59420
622.1834, 13.39822
622.6655, 13.19570
623.1476, 13.04457
623.6298, 12.95916
624.1119, 12.97549
624.5940, 13.11794
625.0761, 13.29547
625.5582, 13.52765
626.0403, 13.73836
626.5225, 13.79605
627.0046, 13.71421
627.4867, 13.63356
627.9688, 13.63489
628.4509, 13.72633
628.9330, 13.95776
629.4152, 14.57920
629.8973, 14.87320
630.3794, 14.52433
630.8615, 14.16056
631.3436, 14.15380
631.8257, 14.42494
632.3079, 14.70933
632.7900, 14.88535
633.2721, 15.00725
633.7542, 15.14319
634.2363, 15.29220
634.7184, 15.43800
635.2006, 15.56901
635.6827, 15.71853
636.1648, 15.88658
636.6469, 16.09346
637.1291, 16.43940
637.6112, 17.01669
638.0933, 17.62041
638.5754, 18.13559
639.0576, 18.66479
639.5397, 19.36148
640.0218, 20.22209
640.5039, 21.09848
640.9860, 21.88571
641.4681, 22.58381
641.9503, 23.20054
642.4324, 23.70440
642.9145, 24.20443
643.3966, 24.75217
643.8787, 25.28184
644.3608, 25.89292
644.8430, 26.49112
645.3251, 26.65046
645.8072, 25.93166
646.2893, 24.93427
646.7714, 24.29782
647.2535, 23.89701
647.7357, 23.30976
648.2178, 22.41116
648.6999, 21.38627
649.1820, 20.42854
649.6641, 19.53083
650.1462, 18.78680
650.6284, 18.32914
651.1105, 17.84691
651.5926, 17.18149
652.0747, 16.52286
652.5568, 16.10558
653.0389, 15.93274
653.5211, 15.77012
654.0032, 15.33304
654.4853, 14.80797
654.9674, 14.85791
655.4495, 15.56172
655.9316, 15.92702
656.4138, 15.49923
656.8959, 14.73887
657.3780, 14.19012
657.8601, 13.84266
658.3422, 13.62310
658.8243, 13.60954
659.3065, 13.63361
659.7886, 13.58205
660.2707, 13.51159
660.7528, 13.54913
661.2349, 13.71898
661.7170, 13.88491
662.1992, 13.88396
662.6813, 13.72382
663.1634, 13.57957
663.6455, 13.41481
664.1276, 13.33640
664.6097, 13.45341
665.0919, 13.62380
665.5740, 13.74926
666.0561, 13.81889
666.5382, 13.80205
667.0203, 13.57290
667.5024, 13.33399
667.9846, 13.35901
668.4667, 13.57064
668.9488, 13.68022
669.4309, 13.57911
669.9130, 13.38110
670.3951, 13.22978
670.8773, 13.12681
671.3594, 13.05771
671.8415, 13.02084
672.3236, 13.02224
672.8057, 13.10005
673.2878, 13.19583
673.7700, 13.25766
674.2521, 13.27371
674.7342, 13.24823
675.2163, 13.10382
675.6984, 12.94842
676.1805, 13.06723
676.6627, 13.44783
677.1448, 13.72695
677.6269, 13.76395
678.1090, 13.65380
678.5911, 13.50555
679.0732, 13.30062
679.5554, 13.17072
680.0375, 13.11427
680.5196, 13.13121
681.0017, 13.26633
681.4838, 13.45313
681.9659, 13.63365
682.4481, 13.78235
682.9302, 13.85897
683.4123, 13.78914
683.8944, 13.62294
684.3765, 13.56670
684.8586, 13.63485
685.3408, 13.74564
685.8229, 13.95191
686.3050, 14.09860
686.7871, 13.89947
687.2692, 13.36802
687.7513, 13.03548
688.2335, 13.09148
688.7156, 13.24761
689.1977, 13.43539
689.6798, 13.59005
690.1619, 13.58604
690.6440, 13.41406
691.1262, 13.24352
691.6083, 13.25989
692.0904, 13.42688
692.5725, 13.49213
693.0546, 13.45566
693.5367, 13.30929
694.0189, 12.89048
694.5010, 12.50019
694.9831, 12.44085
695.4652, 12.67801
695.9473, 12.91072
696.4294, 13.08772
696.9116, 13.19747
697.3937, 13.17753
697.8758, 13.10030
698.3579, 13.08370
698.8400, 13.15950
699.3221, 13.33814
699.8043, 13.66153
700.2864, 14.08449
700.7685, 14.24983
701.2506, 14.05156
701.7327, 13.82010
702.2148, 13.45339
702.6970, 13.21147
703.1791, 13.36989
703.6612, 13.82650
704.1433, 14.16822
704.6254, 14.21408
705.1075, 14.13074
705.5897, 13.95056
706.0718, 13.76333
706.5539, 13.80932
707.0360, 14.11702
707.5181, 14.41833
708.0002, 14.48728
708.4824, 14.37697
708.9645, 14.36074
709.4466, 14.51549
709.9287, 14.61753
710.4108, 14.64605
710.8929, 14.62087
711.3751, 14.56071
711.8572, 14.45441
712.3393, 14.25661
712.8214, 13.90344
713.3035, 13.57894
713.7856, 13.51027
714.2678, 13.57099
714.7499, 13.46592
715.2320, 13.16530
715.7141, 12.85153
716.1962, 12.63367
716.6783, 12.51285
717.1605, 12.50387
717.6426, 12.70025
718.1247, 12.82578
718.6068, 12.85233
719.0889, 12.84084
719.5710, 12.82892
720.0532, 12.79445
720.5353, 12.66622
721.0174, 12.40505
721.4995, 12.20862
721.9816, 12.33140
722.4637, 12.59776
722.9459, 12.63483
723.4280, 12.43516
723.9101, 12.21823
724.3922, 12.07102
724.8743, 12.03691
725.3564, 12.22151
725.8386, 12.73513
726.3207, 13.07103
726.8028, 13.21685
727.2849, 13.20694
727.7670, 12.86989
728.2491, 12.47584
728.7313, 12.36955
729.2134, 12.60494
729.6955, 12.90543
730.1776, 13.14241
730.6597, 13.28979
731.1418, 13.26855
731.6240, 13.10535
732.1061, 12.94391
732.5882, 12.83104
733.0703, 12.76134
733.5524, 12.73332
734.0345, 12.74897
734.5167, 12.75849
734.9988, 12.72516
735.4809, 12.73537
735.9631, 12.87898
736.4452, 13.01282
736.9273, 12.99656
737.4094, 12.84726
737.8915, 12.70174
738.3737, 12.61395
738.8558, 12.58393
739.3379, 12.61656
739.8200, 12.70697
740.3021, 12.87560
740.7842, 13.12491
741.2664, 13.31000
741.7485, 13.31689
742.2306, 13.16202
742.7127, 12.90970
743.1948, 12.36744
743.6769, 12.08369
744.1591, 12.27392
744.6412, 12.53015
745.1233, 12.67520
745.6054, 12.72091
746.0875, 12.71521
746.5696, 12.66629
747.0518, 12.59752
747.5339, 12.48150
748.0160, 12.37718
748.4981, 12.40486
748.9802, 12.55779
749.4623, 12.73835
749.9445, 12.90605
750.4266, 13.02754
750.9087, 13.02963
751.3908, 12.87470
751.8729, 12.77929
752.3550, 12.77286
752.8372, 12.78812
753.3193, 12.81703
753.8014, 12.84741
754.2835, 12.87124
754.7656, 12.88681
755.2477, 12.87841
755.7299, 12.80304
756.2120, 12.73063
756.6941, 12.75037
757.1762, 12.82349
757.6583, 12.84122
758.1404, 12.77809
758.6226, 12.72872
759.1047, 12.80738
759.5868, 12.97411
760.0689, 12.90402
760.5510, 12.39357
761.0331, 12.20406
761.5153, 12.79421
761.9974, 13.42791
762.4795, 13.55027
762.9616, 13.28376
763.4437, 13.01563
763.9258, 12.71693
764.4080, 12.61885
764.8901, 13.03981
765.3722, 13.58925
765.8543, 13.80932
766.3364, 13.71173
766.8185, 13.52895
767.3007, 13.38081
767.7828, 13.29449
768.2649, 13.35082
768.7470, 13.55777
769.2291, 13.67439
769.7112, 13.67076
770.1934, 13.63152
770.6755, 13.59477
771.1576, 13.54701
771.6397, 13.43506
772.1218, 13.22752
772.6039, 13.17129
773.0861, 13.48199
773.5682, 13.76358
774.0503, 13.79430
774.5324, 13.67118
775.0145, 13.48849
775.4966, 13.29837
775.9788, 13.22035
776.4609, 13.41504
776.9430, 13.73282
777.4251, 13.79120
777.9072, 13.59636
778.3893, 13.39450
778.8715, 13.21415
779.3536, 13.14762
779.8357, 13.33206
780.3178, 13.70817
780.7999, 13.86744
781.2820, 13.63085
781.7642, 13.44032
782.2463, 13.32087
782.7284, 13.24911
783.2105, 13.20674
783.6926, 13.20170
784.1747, 13.27661
784.6569, 13.45980
785.1390, 13.60318
785.6211, 13.52370
786.1032, 13.33225
786.5853, 13.24402
787.0674, 13.26166
787.5496, 13.31275
788.0317, 13.37221
788.5138, 13.40049
788.9959, 13.32080
789.4780, 13.11515
789.9601, 13.07204
790.4423, 13.36295
790.9244, 13.53963
791.4065, 13.34145
791.8886, 13.11376
792.3707, 13.19045
792.8528, 13.51802
793.3350, 13.71935
793.8171, 13.61050
794.2992, 13.42855
794.7813, 13.22603
795.2634, 13.08873
795.7455, 13.18801
796.2277, 13.49363
796.7098, 13.79690
797.1919, 13.97611
797.6740, 14.05413
798.1561, 14.05902
798.6382, 13.98763
799.1204, 13.91255
799.6025, 13.80680
800.0846, 13.79602
800.5667, 14.02275
801.0488, 14.32545
801.5309, 14.38925
802.0131, 14.18151
802.4952, 13.99903
802.9773, 13.86739
803.4594, 13.76571
803.9415, 13.66642
804.4236, 13.60236
804.9058, 13.64247
805.3879, 13.77467
805.8700, 13.88057
806.3521, 13.85545
806.8342, 13.79752
807.3163, 13.89583
807.7985, 14.09941
808.2806, 14.18643
808.7627, 14.11601
809.2448, 13.97254
809.7269, 13.79440
810.2090, 13.62050
810.6912, 13.57597
811.1733, 13.71713
811.6554, 13.85340
812.1375, 14.00131
812.6196, 14.12398
813.1017, 14.22836
813.5839, 14.28934
814.0660, 14.24935
814.5481, 14.09699
815.0302, 13.97977
815.5123, 13.98672
815.9944, 14.02779
816.4766, 14.04401
816.9587, 14.03784
817.4408, 13.98502
817.9229, 13.90057
818.4050, 13.91266
818.8871, 14.16585
819.3693, 14.52077
819.8514, 14.54411
820.3335, 14.21482
820.8156, 14.07251
821.2977, 14.23507
821.7798, 14.49407
822.2620, 14.76838
822.7441, 15.01240
823.2262, 15.07156
823.7083, 14.77813
824.1904, 14.69187
824.6725, 15.08477
825.1547, 15.40352
825.6368, 15.24656
826.1189, 14.94071
826.6010, 14.99636
827.0831, 15.47369
827.5652, 15.86660
828.0474, 15.77882
828.5295, 15.48773
829.0116, 15.24716
829.4937, 15.08132
829.9758, 15.07815
830.4579, 15.24668
830.9401, 15.46119
831.4222, 15.62272
831.9043, 15.76486
832.3864, 16.03130
832.8685, 16.49224
833.3506, 16.69021
833.8328, 16.44038
834.3149, 16.20510
834.7971, 16.26121
835.2792, 16.47779
835.7613, 16.61841
836.2434, 16.67025
836.7255, 16.71446
837.2076, 16.57681
837.6898, 16.64422
838.1719, 17.31968
838.6540, 18.18130
839.1361, 18.70848
839.6182, 18.84934
840.1003, 18.89516
840.5825, 18.98876
841.0646, 19.15577
841.5467, 19.44736
842.0288, 19.84237
842.5109, 20.26736
842.9930, 20.71294
843.4752, 21.20115
843.9573, 21.74406
844.4394, 22.33184
844.9215, 22.95008
845.4036, 23.63367
845.8857, 24.17104
846.3679, 24.47641
846.8500, 24.79056
847.3321, 25.20013
847.8142, 25.65889
848.2963, 26.12544
848.7784, 26.59720
849.2606, 27.07565
849.7427, 27.63807
850.2248, 28.10923
850.7069, 28.38502
851.1890, 28.56185
851.6711, 28.71008
852.1533, 28.85215
852.6354, 29.02749
853.1175, 29.26916
853.5996, 29.44797
854.0817, 29.26249
854.5638, 28.93271
855.0460, 29.17599
855.5281, 29.95563
856.0102, 30.50629
856.4923, 30.52253
856.9744, 30.19312
857.4565, 29.73107
857.9387, 29.13985
858.4208, 28.57910
858.9029, 28.10868
859.3850, 27.51370
859.8671, 26.55380
860.3492, 25.68000
860.8314, 25.38118
861.3135, 25.41613
861.7956, 25.09368
862.2777, 24.14503
862.7598, 23.32002
863.2419, 22.88396
863.7241, 22.56633
864.2062, 22.25970
864.6883, 21.91320
865.1704, 21.41576
865.6525, 20.76372
866.1346, 20.19933
866.6168, 19.95361
867.0989, 19.87239
867.5810, 19.71515
868.0631, 19.51385
868.5452, 19.41324
869.0273, 19.43261
869.5095, 19.36597
869.9916, 19.03250
870.4737, 18.60709
870.9558, 18.59445
871.4379, 19.10062
871.9200, 19.41658
872.4022, 19.48859
872.8843, 19.42998
873.3664, 19.20989
873.8485, 18.94592
874.3306, 18.83410
874.8127, 18.88047
875.2949, 18.86106
875.7770, 18.68255
876.2591, 18.53951
876.7412, 18.48569
877.2233, 18.49251
877.7054, 18.56180
878.1876, 18.66687
878.6697, 18.75347
879.1518, 18.80285
879.6339, 18.81500
880.1160, 18.72363
880.5981, 18.63643
881.0803, 18.79731
881.5624, 19.10455
882.0445, 19.16199
882.5266, 18.84794
883.0087, 18.46512
883.4908, 18.34897
883.9730, 18.40627
884.4551, 18.17474
884.9372, 17.61598
885.4193, 17.52438
885.9014, 18.17142
886.3835, 18.84077
886.8657, 19.00253
887.3478, 18.85369
887.8299, 18.95969
888.3120, 19.53055
888.7941, 19.79123
889.2762, 19.42532
889.7584, 19.13737
890.2405, 19.12811
890.7226, 19.30276
891.2047, 19.61527
891.6868, 20.03466
892.1689, 20.40706
892.6511, 20.75820
893.1332, 20.95206
893.6153, 20.68497
894.0974, 20.39737
894.5795, 20.69523
895.0616, 21.39715
895.5438, 21.81082
896.0259, 21.65387
896.5080, 21.49152
896.9901, 22.06378
897.4722, 23.03112
897.9543, 23.57203
898.4365, 23.74409
898.9186, 23.95595
899.4007, 24.31913
899.8828, 24.73558
900.3649, 25.11096
900.8470, 25.66522
901.3292, 26.05959
901.8113, 26.86862
902.2934, 27.63943
902.7755, 28.37518
903.2576, 29.00975
903.7397, 29.41456
904.2219, 29.76870
904.7040, 30.40000
905.1861, 31.36129
905.6682, 32.17723
906.1503, 32.63685
906.6324, 33.21856
907.1146, 34.13322
907.5967, 35.13667
908.0788, 36.03533
908.5609, 36.85116
909.0430, 37.66755
909.5251, 38.47049
910.0073, 39.43097
910.4894, 40.72114
910.9715, 42.15629
911.4536, 43.63979
911.9357, 45.09810
912.4178, 46.31537
912.9000, 47.30261
913.3821, 48.48183
913.8642, 50.25749
914.3463, 52.33759
914.8284, 54.12316
915.3105, 55.71394
915.7927, 57.59911
916.2748, 59.83034
916.7569, 62.22339
917.2390, 64.68110
917.7211, 67.22958
918.2032, 69.92575
918.6854, 72.74763
919.1675, 75.96837
919.6496, 79.67446
920.1317, 83.50661
920.6138, 87.56765
921.0959, 91.49801
921.5781, 94.99923
922.0602, 98.11543
922.5423, 101.0378
923.0244, 103.5808
923.5065, 106.3121
923.9886, 109.4899
924.4708, 112.5922
924.9529, 115.5553
925.4350, 118.2195
925.9171, 120.2995
926.3992, 121.8028
926.8813, 123.2280
927.3635, 124.5741
927.8456, 126.1267
928.3277, 128.3398
928.8098, 130.6385
929.2919, 132.1421
929.7740, 133.1659
930.2562, 134.6768
930.7383, 137.0618
931.2204, 140.2352
931.7025, 144.1315
932.1846, 148.7512
932.6667, 154.0274
933.1489, 160.0061
933.6310, 166.9895
934.1132, 174.9715
934.5953, 183.2539
935.0774, 191.4854
935.5595, 198.9669
936.0416, 204.0448
936.5237, 206.7302
937.0059, 207.3743
937.4880, 206.0764
937.9701, 202.1593
938.4522, 195.1239
938.9343, 185.8231
939.4164, 174.9449
939.8986, 162.5819
940.3807, 150.2625
940.8628, 137.4857
941.3449, 125.8080
941.8270, 115.4579
942.3091, 106.1580
942.7913, 98.01678
943.2734, 90.76566
943.7555, 83.92348
944.2376, 77.41860
944.7197, 71.81371
945.2018, 67.68736
945.6840, 63.88807
946.1661, 60.04699
946.6482, 56.32262
947.1303, 52.73313
947.6124, 49.39957
948.0945, 46.63367
948.5767, 44.58477
949.0588, 42.81453
949.5409, 41.09454
950.0230, 39.45860
950.5051, 37.90136
950.9872, 36.45293
951.4694, 35.18132
951.9515, 34.07621
952.4336, 33.07203
952.9157, 32.14548
953.3978, 31.22371
953.8799, 30.12105
954.3621, 28.95810
954.8442, 28.04808
955.3263, 27.40721
955.8084, 26.98988
956.2905, 26.77830
956.7726, 26.51175
957.2548, 25.84363
957.7369, 24.90887
958.2190, 24.32382
958.7011, 24.10770
959.1832, 23.82659
959.6653, 23.41068
960.1475, 22.91615
960.6296, 22.31462
961.1117, 21.76843
961.5938, 21.61036
962.0759, 21.89907
962.5580, 22.00714
963.0402, 21.92835
963.5223, 21.66403
964.0044, 21.00492
964.4865, 20.41075
964.9686, 20.25783
965.4507, 20.44674
965.9329, 20.67785
966.4150, 21.02657
966.8971, 21.21239
967.3792, 21.04399
967.8613, 20.92004
968.3434, 21.06388
968.8256, 21.26351
969.3077, 21.27285
969.7898, 21.12582
970.2719, 21.05058
970.7540, 21.06073
971.2361, 21.25593
971.7183, 21.90380
972.2004, 22.53542
972.6825, 22.73936
973.1646, 22.68916
973.6467, 22.59574
974.1288, 22.56093
974.6110, 22.84321
975.0931, 23.82090
975.5752, 24.79390
976.0573, 24.97446
976.5394, 24.81820
977.0215, 24.90242
977.5037, 25.29929
977.9858, 25.99670
978.4679, 26.98354
978.9500, 28.15353
979.4321, 29.46662
979.9142, 30.82698
980.3964, 31.93715
980.8785, 32.91651
981.3606, 34.26027
981.8427, 36.00328
982.3248, 37.74110
982.8069, 39.26915
983.2891, 40.53296
983.7712, 41.43284
984.2533, 42.00008
984.7354, 42.60403
985.2175, 43.26464
985.6996, 43.18594
986.1818, 42.13841
986.6639, 40.70723
987.1460, 39.30372
987.6281, 37.80132
988.1102, 35.86653
988.5923, 33.39430
989.0745, 31.18973
989.5566, 29.25637
990.0387, 27.56812
990.5208, 26.16070
991.0029, 24.93471
991.4850, 23.81059
991.9672, 22.81297
992.4493, 22.04408
992.9314, 21.65210
993.4135, 21.13743
993.8956, 20.36354
994.3777, 19.65401
994.8599, 19.05696
995.3420, 18.60598
995.8241, 18.36489
996.3062, 18.30840
996.7883, 18.27961
997.2704, 18.27053
997.7526, 18.28117
998.2347, 18.21895
998.7168, 18.28112
999.1989, 18.71517
999.6810, 19.23701
1000.163, 19.44119
1000.645, 19.34451
1001.127, 19.37880
1001.609, 19.74636
1002.092, 20.14887
1002.574, 20.48271
1003.056, 20.79111
1003.538, 21.08935
1004.020, 21.39042
1004.502, 21.63575
1004.984, 21.85403
1005.466, 22.35534
1005.949, 23.53615
1006.431, 24.71957
1006.913, 25.36514
1007.395, 25.77227
1007.877, 26.35254
1008.359, 26.98525
1008.841, 27.31131
1009.323, 27.22369
1009.805, 26.85021
1010.288, 26.19098
1010.770, 25.41576
1011.252, 24.70363
1011.734, 24.04070
1012.216, 23.48513
1012.698, 22.96419
1013.180, 22.16170
1013.662, 20.96556
1014.145, 19.76105
1014.627, 18.99379
1015.109, 18.43861
1015.591, 17.54335
1016.073, 16.48656
1016.555, 15.92486
1017.037, 15.88298
1017.519, 15.84333
1018.001, 15.54658
1018.484, 15.16114
1018.966, 14.90046
1019.448, 14.73565
1019.930, 14.56155
1020.412, 14.38337
1020.894, 14.26540
1021.376, 14.21697
1021.858, 14.08643
1022.341, 13.77582
1022.823, 13.40853
1023.305, 13.16492
1023.787, 13.04341
1024.269, 13.07255
1024.751, 13.26859
1025.233, 13.26436
1025.715, 12.95707
1026.198, 12.67293
1026.680, 12.63158
1027.162, 12.43528
1027.644, 12.34360
1028.126, 12.33809
1028.608, 12.24162
1029.090, 12.35937
1029.572, 12.42511
1030.054, 12.37389
1030.536, 12.27638
1031.019, 12.14770
1031.501, 12.05396
1031.983, 12.17782
1032.465, 12.58734
1032.947, 12.63969
1033.429, 12.14631
1033.911, 11.79378
1034.393, 11.77837
1034.876, 11.85202
1035.358, 11.85623
1035.840, 11.81214
1036.322, 11.77113
1036.804, 11.73933
1037.286, 11.67334
1037.768, 11.48331
1038.250, 11.42595
1038.733, 11.65465
1039.215, 11.91329
1039.697, 12.03125
1040.179, 12.03950
1040.661, 12.01372
1041.143, 11.95396
1041.625, 11.86016
1042.107, 11.67972
1042.589, 11.53763
1043.072, 11.46325
1043.554, 11.42988
1044.036, 11.43055
1044.518, 11.45698
1045.000, 11.49231
1045.482, 11.53957
1045.964, 11.58094
1046.446, 11.66202
1046.928, 11.67386
1047.411, 11.42741
1047.893, 11.25260
1048.375, 11.57818
1048.857, 12.12259
1049.339, 12.15822
1049.821, 11.48898
1050.303, 10.98072
1050.785, 10.84938
1051.268, 10.78536
1051.750, 10.65595
1052.232, 10.58918
1052.714, 10.76778
1053.196, 11.06963
1053.678, 11.21605
1054.160, 11.15232
1054.642, 11.03172
1055.125, 10.74839
1055.607, 10.59854
1056.089, 10.89426
1056.571, 11.18475
1057.053, 10.99948
1057.535, 10.54878
1058.017, 10.32388
1058.499, 10.42528
1058.981, 10.60285
1059.464, 10.88363
1059.946, 11.09229
1060.428, 11.10332
1060.910, 11.06224
1061.392, 11.09620
1061.874, 11.17406
1062.356, 11.21357
1062.838, 11.19806
1063.320, 11.16122
1063.803, 11.12114
1064.285, 11.05442
1064.767, 10.93641
1065.249, 10.80046
1065.731, 10.61237
1066.213, 10.45113
1066.695, 10.50482
1067.177, 10.80384
1067.660, 11.00825
1068.142, 10.92249
1068.624, 10.79099
1069.106, 10.72241
1069.588, 10.66072
1070.070, 10.51265
1070.552, 10.35406
1071.034, 10.34207
1071.516, 10.49684
1071.999, 10.64489
1072.481, 10.76840
1072.963, 10.79782
1073.445, 10.59147
1073.927, 10.38233
1074.409, 10.39699
1074.891, 10.52875
1075.373, 10.57316
1075.855, 10.50716
1076.338, 10.48472
1076.820, 10.61013
1077.302, 10.72103
1077.784, 10.73884
1078.266, 10.71201
1078.748, 10.70462
1079.230, 10.66387
1079.712, 10.45598
1080.195, 10.10655
1080.677, 9.863862
1081.159, 9.817839
1081.641, 9.902456
1082.123, 10.24185
1082.605, 10.54014
1083.087, 10.53189
1083.569, 10.37817
1084.052, 10.33510
1084.534, 10.38747
1085.016, 10.27182
1085.498, 9.780229
1085.980, 9.466561
1086.462, 9.724178
1086.944, 10.07189
1087.426, 10.20465
1087.908, 10.24391
1088.391, 10.38993
1088.873, 10.59880
1089.355, 10.62649
1089.837, 10.34757
1090.319, 10.13436
1090.801, 10.18494
1091.283, 10.28366
1091.765, 10.30764
1092.248, 10.32217
1092.730, 10.42645
1093.212, 10.57909
1093.694, 10.67536
1094.176, 10.70117
1094.658, 10.58520
1095.140, 10.06695
1095.622, 9.701521
1096.104, 9.887113
1096.587, 10.19905
1097.069, 10.27123
1097.551, 10.17711
1098.033, 10.11669
1098.515, 10.12456
1098.997, 10.17218
1099.479, 10.26529
1099.961, 10.37787
1100.443, 10.59434
1100.926, 10.73386
1101.408, 10.58502
1101.890, 10.31347
1102.372, 10.20903
1102.854, 10.29279
1103.336, 10.30165
1103.818, 10.07763
1104.300, 9.922579
1104.783, 9.989949
1105.265, 10.04344
1105.747, 9.865145
1106.229, 9.658637
1106.711, 9.718570
1107.193, 10.01802
1107.675, 10.23966
1108.157, 10.36074
1108.640, 10.37087
1109.122, 10.06686
1109.604, 9.902455
1110.086, 10.24101
1110.568, 10.64797
1111.050, 10.67828
1111.532, 10.41573
1112.014, 10.21633
1112.496, 10.08376
1112.979, 10.04805
1113.461, 10.25156
1113.943, 10.35917
1114.425, 10.14843
1114.907, 9.960842
1115.389, 10.12716
1115.871, 10.46063
1116.353, 10.53153
1116.835, 10.29424
1117.318, 10.05488
1117.800, 9.655548
1118.282, 9.564493
1118.764, 10.12440
1119.246, 10.58471
1119.728, 10.44940
1120.210, 10.05426
1120.692, 9.919852
1121.175, 10.03858
1121.657, 10.02903
1122.139, 9.801637
1122.621, 9.697209
1123.103, 9.772000
1123.585, 9.903106
1124.067, 10.05061
1124.549, 10.21551
1125.031, 10.42025
1125.514, 10.63101
1125.996, 10.67961
1126.478, 10.54015
1126.960, 10.37865
1127.442, 10.20405
1127.924, 9.944794
1128.406, 9.511953
1128.888, 9.282033
1129.370, 9.602319
1129.853, 10.22625
1130.335, 10.60618
1130.817, 10.74331
1131.299, 10.65245
1131.781, 10.31785
1132.263, 10.08430
1132.745, 10.02107
1133.227, 10.05197
1133.710, 10.13984
1134.192, 10.24618
1134.674, 10.30938
1135.156, 10.34718
1135.638, 10.45903
1136.120, 10.62516
1136.602, 10.69214
1137.084, 10.64553
1137.567, 10.51151
1138.049, 10.30419
1138.531, 10.15005
1139.013, 10.18248
1139.495, 10.31310
1139.977, 10.40378
1140.459, 10.44204
1140.941, 10.33578
1141.423, 10.14228
1141.906, 10.12505
1142.388, 10.31565
1142.870, 10.44398
1143.352, 10.33602
1143.834, 10.13558
1144.316, 9.923132
1144.798, 9.793685
1145.280, 9.974295
1145.762, 10.31445
1146.245, 10.52664
1146.727, 10.58745
1147.209, 10.58783
1147.691, 10.56455
1148.173, 10.55588
1148.655, 10.54306
1149.137, 10.61055
1149.619, 10.94174
1150.102, 11.30582
1150.584, 11.37286
1151.066, 11.27893
1151.548, 11.38450
1152.030, 11.72337
1152.512, 11.92088
1152.994, 11.69752
1153.476, 11.54061
1153.958, 11.75202
1154.441, 12.03833
1154.923, 12.29845
1155.405, 12.45203
1155.887, 12.31913
1156.369, 12.00526
1156.851, 11.90916
1157.333, 12.14943
1157.815, 12.43637
1158.297, 12.66062
1158.780, 12.98561
1159.262, 13.63810
1159.744, 14.23494
1160.226, 14.44242
1160.708, 14.42802
1161.190, 14.48585
1161.672, 14.61809
1162.154, 14.89005
1162.637, 15.39045
1163.119, 15.87970
1163.601, 16.49660
1164.083, 16.81116
1164.565, 16.49670
1165.047, 16.03042
1165.529, 15.94021
1166.011, 15.67554
1166.494, 15.50163
1166.976, 15.49652
1167.458, 15.28749
1167.940, 15.45462
1168.422, 15.44335
1168.904, 15.11010
1169.386, 14.60867
1169.868, 14.00990
1170.350, 13.43827
1170.833, 13.11960
1171.315, 13.01218
1171.797, 12.89300
1172.279, 12.76092
1172.761, 12.58553
1173.243, 12.36944
1173.725, 12.20781
1174.207, 12.13447
1174.689, 12.05298
1175.172, 11.87541
1175.654, 11.63818
1176.136, 11.39206
1176.618, 11.13918
1177.100, 10.81998
1177.582, 10.51446
1178.064, 10.49623
1178.546, 10.74938
1179.029, 10.93388
1179.511, 10.88158
1179.993, 10.76322
1180.475, 10.74316
1180.957, 10.70859
1181.439, 10.44319
1181.921, 10.17575
1182.403, 10.29790
1182.885, 10.62404
1183.368, 10.69090
1183.850, 10.41839
1184.332, 10.13560
1184.814, 9.924321
1185.296, 9.824502
1185.778, 9.929260
1186.260, 10.06326
1186.742, 10.09644
1187.225, 10.12184
1187.707, 10.30362
1188.189, 10.57022
1188.671, 10.62419
1189.153, 10.33145
1189.635, 10.24317
1190.117, 10.64573
1190.599, 10.86827
1191.082, 10.69508
1191.564, 10.48418
1192.046, 10.41041
1192.528, 10.42556
1193.010, 10.49075
1193.492, 10.58713
1193.974, 10.52800
1194.456, 10.24925
1194.938, 10.18190
1195.421, 10.39388
1195.903, 10.53930
1196.385, 10.51476
1196.867, 10.38931
1197.349, 10.19752
1197.831, 10.00596
1198.313, 9.920582
1198.795, 9.944431
1199.277, 10.15901
1199.760, 10.50806
1200.242, 10.67679
1200.724, 10.64815
1201.206, 10.59885
1201.688, 10.59441
1202.170, 10.55882
1202.652, 10.42916
1203.134, 10.23775
1203.617, 9.921007
1204.099, 9.648132
1204.581, 9.697658
1205.063, 9.961957
1205.545, 10.33066
1206.027, 10.68622
1206.509, 10.70115
1206.991, 10.21645
1207.474, 9.922568
1207.956, 10.38662
1208.438, 10.87195
1208.920, 11.01772
1209.402, 11.01460
1209.884, 11.01689
1210.366, 10.97477
1210.848, 10.73468
1211.330, 10.32436
1211.813, 10.09082
1212.295, 10.11038
1212.777, 10.23562
1213.259, 10.66475
1213.741, 10.85260
1214.223, 10.49156
1214.705, 10.12949
1215.187, 10.18301
1215.669, 10.42206
1216.152, 10.41757
1216.634, 10.18781
1217.116, 10.02922
1217.598, 9.941020
1218.080, 9.952565
1218.562, 10.07104
1219.044, 10.22825
1219.526, 10.40420
1220.009, 10.49189
1220.491, 10.39681
1220.973, 10.20506
1221.455, 10.00355
1221.937, 9.849043
1222.419, 9.928830
1222.901, 10.16829
1223.383, 10.42579
1223.865, 10.63334
1224.348, 10.63492
1224.830, 10.39351
1225.312, 10.13759
1225.794, 9.955358
1226.276, 9.937320
1226.758, 10.35684
1227.240, 10.76173
1227.722, 10.66986
1228.204, 10.36785
1228.687, 10.19818
1229.169, 10.19653
1229.651, 10.33502
1230.133, 10.63864
1230.615, 10.89889
1231.097, 11.17861
1231.579, 11.26167
1232.061, 10.97589
1232.544, 10.64423
1233.026, 10.34801
1233.508, 10.15285
1233.990, 10.16288
1234.472, 10.32283
1234.954, 10.40566
1235.436, 10.40648
1235.918, 10.32181
1236.401, 10.12285
1236.883, 10.19960
1237.365, 10.64675
1237.847, 11.00962
1238.329, 11.04628
1238.811, 10.92111
1239.293, 10.81316
1239.775, 10.68977
1240.257, 10.37021
1240.740, 10.03133
1241.222, 10.19407
1241.704, 10.67752
1242.186, 10.95147
1242.668, 10.93248
1243.150, 10.78724
1243.632, 10.57408
1244.114, 10.43589
1244.596, 10.50667
1245.079, 10.63297
1245.561, 10.77445
1246.043, 10.87321
1246.525, 10.91022
1247.007, 10.85573
1247.489, 10.56660
1247.971, 10.62563
1248.453, 10.64076
1248.936, 10.50559
1249.418, 10.77183
1249.900, 10.66907
1250.382, 10.55120
1250.864, 10.46775
1251.346, 10.42389
1251.828, 10.41682
1252.310, 10.47108
1252.792, 10.64453
1253.275, 10.88038
1253.757, 10.93487
1254.239, 10.81985
1254.721, 10.62741
1255.203, 10.39247
1255.685, 10.39700
1256.167, 10.66846
1256.649, 10.88233
1257.131, 10.87008
1257.614, 10.80614
1258.096, 10.86924
1258.578, 10.96520
1259.060, 10.96088
1259.542, 10.94433
1260.024, 11.04813
1260.506, 11.20828
1260.988, 11.34626
1261.471, 11.41910
1261.953, 11.31182
1262.435, 10.93566
1262.917, 10.65778
1263.399, 10.62903
1263.881, 10.62460
1264.363, 10.59480
1264.845, 10.56279
1265.328, 10.53043
1265.810, 10.51505
1266.292, 10.54903
1266.774, 10.60989
1267.256, 10.59209
1267.738, 10.47905
1268.220, 10.46607
1268.702, 10.55525
1269.184, 10.69440
1269.667, 10.87090
1270.149, 11.00038
1270.631, 11.04469
1271.113, 11.04631
1271.595, 11.05534
1272.077, 11.02009
1272.559, 10.74768
1273.041, 10.47207
1273.523, 10.63968
1274.006, 11.01581
1274.488, 11.15940
1274.970, 11.08757
1275.452, 11.05387
1275.934, 11.12668
1276.416, 11.22661
1276.898, 11.46466
1277.380, 11.51217
1277.863, 11.08486
1278.345, 10.69090
1278.827, 10.61250
1279.309, 10.62426
1279.791, 10.50789
1280.273, 10.38307
1280.755, 10.55394
1281.237, 11.01438
1281.719, 11.20119
1282.202, 11.08855
1282.684, 11.10310
1283.166, 11.28479
1283.648, 11.33428
1284.130, 11.16369
1284.612, 11.03707
1285.094, 11.14062
1285.576, 11.32810
1286.059, 11.46544
1286.541, 11.52813
1287.023, 11.49264
1287.505, 11.36042
##END=



