##NAMES=Topaz
##RRUFFID=R050176
##IDEAL CHEMISTRY=Al_2_SiO_4_F_2_
##LOCALITY=Jos Plateau, Nigeria
##OWNER=RRUFF
##SOURCE=Marcus Origlieri
##DESCRIPTION=Colorless prismatic crystal
##STATUS=The identification of this mineral has been confirmed by X-ray diffraction and chemical analysis
##URL=rruff.info/R050176
##MEASURED CHEMISTRY=Al_2.000_Si_1.000_O_4.000_(F_1.438_(OH)_0.562_)
26.28800, 1213.000
27.69400, 1144.000
29.09900, 1153.000
30.50400, 1117.000
31.90900, 1106.000
33.31300, 1034.000
34.71700, 1068.000
36.12100, 1048.000
37.52500, 1030.000
38.92900, 1015.000
40.33200, 991.0000
41.73500, 968.0000
43.13800, 952.0000
44.54100, 938.0000
45.94300, 936.0000
47.34500, 927.0000
48.74700, 908.0000
50.14900, 881.0000
51.55100, 867.0000
52.95200, 824.0000
54.35300, 801.0000
55.75400, 791.0000
57.15500, 798.0000
58.55500, 776.0000
59.95500, 786.0000
61.35500, 765.0000
62.75500, 740.0000
64.15400, 749.0000
65.55300, 740.0000
66.95200, 699.0000
68.35100, 720.0000
69.75000, 717.0000
71.14800, 711.0000
72.54600, 700.0000
73.94400, 695.0000
75.34200, 679.0000
76.73900, 678.0000
78.13600, 686.0000
79.53300, 697.0000
80.93000, 668.0000
82.32700, 684.0000
83.72300, 690.0000
85.11900, 667.0000
86.51500, 663.0000
87.91000, 651.0000
89.30600, 661.0000
90.70100, 698.0000
92.09600, 665.0000
93.49000, 682.0000
94.88500, 655.0000
96.27900, 665.0000
97.67300, 654.0000
99.06700, 631.0000
100.4610, 639.0000
101.8540, 642.0000
103.2470, 617.0000
104.6400, 618.0000
106.0320, 599.0000
107.4250, 599.0000
108.8170, 576.0000
110.2090, 576.0000
111.6010, 576.0000
112.9920, 580.0000
114.3840, 585.0000
115.7750, 565.0000
117.1660, 567.0000
118.5560, 532.0000
119.9470, 557.0000
121.3370, 543.0000
122.7270, 548.0000
124.1160, 560.0000
125.5060, 519.0000
126.8950, 539.0000
128.2840, 526.0000
129.6730, 543.0000
131.0620, 526.0000
132.4500, 516.0000
133.8380, 519.0000
135.2260, 513.0000
136.6140, 515.0000
138.0010, 499.0000
139.3880, 508.0000
140.7750, 498.0000
142.1620, 488.0000
143.5490, 499.0000
144.9350, 495.0000
146.3210, 490.0000
147.7070, 519.0000
149.0930, 552.0000
150.4780, 658.0000
151.8630, 891.0000
153.2480, 1179.000
154.6330, 1084.000
156.0180, 800.0000
157.4020, 621.0000
158.7860, 535.0000
160.1700, 501.0000
161.5540, 476.0000
162.9370, 476.0000
164.3200, 466.0000
165.7030, 449.0000
167.0860, 450.0000
168.4690, 436.0000
169.8510, 458.0000
171.2330, 442.0000
172.6150, 435.0000
173.9960, 436.0000
175.3780, 437.0000
176.7590, 444.0000
178.1400, 431.0000
179.5210, 440.0000
180.9010, 420.0000
182.2810, 434.0000
183.6620, 428.0000
185.0410, 417.0000
186.4210, 439.0000
187.8000, 420.0000
189.1800, 423.0000
190.5580, 430.0000
191.9370, 443.0000
193.3160, 429.0000
194.6940, 435.0000
196.0720, 444.0000
197.4500, 431.0000
198.8270, 427.0000
200.2050, 425.0000
201.5820, 441.0000
202.9590, 420.0000
204.3360, 429.0000
205.7120, 438.0000
207.0880, 419.0000
208.4650, 422.0000
209.8400, 420.0000
211.2160, 431.0000
212.5910, 427.0000
213.9670, 435.0000
215.3410, 423.0000
216.7160, 414.0000
218.0910, 443.0000
219.4650, 441.0000
220.8390, 454.0000
222.2130, 461.0000
223.5860, 462.0000
224.9600, 493.0000
226.3330, 478.0000
227.7060, 534.0000
229.0790, 576.0000
230.4510, 666.0000
231.8230, 829.0000
233.1950, 1179.000
234.5670, 1800.000
235.9390, 3086.000
237.3100, 5425.000
238.6820, 6742.000
240.0520, 5902.000
241.4230, 3533.000
242.7940, 2114.000
244.1640, 1383.000
245.5340, 979.0000
246.9040, 781.0000
248.2740, 647.0000
249.6430, 629.0000
251.0120, 570.0000
252.3810, 558.0000
253.7500, 565.0000
255.1180, 547.0000
256.4870, 590.0000
257.8550, 612.0000
259.2230, 717.0000
260.5900, 902.0000
261.9580, 1382.000
263.3250, 2295.000
264.6920, 4421.000
266.0590, 7484.000
267.4250, 7314.000
268.7910, 4546.000
270.1580, 2483.000
271.5230, 1519.000
272.8890, 1131.000
274.2550, 910.0000
275.6200, 866.0000
276.9850, 902.0000
278.3500, 1136.000
279.7140, 1528.000
281.0780, 2350.000
282.4430, 3964.000
283.8060, 5700.000
285.1700, 6698.000
286.5340, 5175.000
287.8970, 3299.000
289.2600, 2114.000
290.6230, 1386.000
291.9850, 1024.000
293.3480, 802.0000
294.7100, 679.0000
296.0720, 617.0000
297.4330, 572.0000
298.7950, 530.0000
300.1560, 495.0000
301.5170, 500.0000
302.8780, 476.0000
304.2390, 446.0000
305.5990, 449.0000
306.9590, 446.0000
308.3190, 435.0000
309.6790, 432.0000
311.0380, 424.0000
312.3980, 425.0000
313.7570, 437.0000
315.1160, 417.0000
316.4740, 424.0000
317.8330, 433.0000
319.1910, 410.0000
320.5490, 415.0000
321.9070, 407.0000
323.2640, 422.0000
324.6220, 420.0000
325.9790, 422.0000
327.3360, 466.0000
328.6920, 495.0000
330.0490, 588.0000
331.4050, 642.0000
332.7610, 598.0000
334.1170, 525.0000
335.4730, 477.0000
336.8280, 448.0000
338.1830, 417.0000
339.5380, 414.0000
340.8930, 395.0000
342.2470, 384.0000
343.6020, 386.0000
344.9560, 392.0000
346.3100, 382.0000
347.6630, 373.0000
349.0170, 363.0000
350.3700, 372.0000
351.7230, 375.0000
353.0760, 369.0000
354.4280, 367.0000
355.7800, 370.0000
357.1330, 366.0000
358.4840, 352.0000
359.8360, 370.0000
361.1880, 384.0000
362.5390, 361.0000
363.8900, 372.0000
365.2410, 363.0000
366.5910, 372.0000
367.9420, 367.0000
369.2920, 366.0000
370.6420, 367.0000
371.9920, 359.0000
373.3410, 366.0000
374.6910, 356.0000
376.0400, 362.0000
377.3880, 361.0000
378.7370, 352.0000
380.0860, 368.0000
381.4340, 355.0000
382.7820, 348.0000
384.1300, 363.0000
385.4770, 356.0000
386.8250, 345.0000
388.1720, 371.0000
389.5190, 368.0000
390.8650, 369.0000
392.2120, 386.0000
393.5580, 395.0000
394.9040, 430.0000
396.2500, 466.0000
397.5960, 550.0000
398.9410, 681.0000
400.2860, 832.0000
401.6310, 1035.000
402.9760, 1071.000
404.3210, 874.0000
405.6650, 751.0000
407.0090, 586.0000
408.3530, 504.0000
409.6970, 451.0000
411.0400, 430.0000
412.3840, 412.0000
413.7270, 391.0000
415.0700, 387.0000
416.4120, 374.0000
417.7550, 378.0000
419.0970, 376.0000
420.4390, 368.0000
421.7810, 377.0000
423.1220, 358.0000
424.4640, 352.0000
425.8050, 348.0000
427.1460, 362.0000
428.4860, 342.0000
429.8270, 340.0000
431.1670, 335.0000
432.5070, 348.0000
433.8470, 342.0000
435.1870, 348.0000
436.5260, 335.0000
437.8650, 347.0000
439.2040, 346.0000
440.5430, 335.0000
441.8820, 336.0000
443.2200, 345.0000
444.5580, 339.0000
445.8960, 343.0000
447.2340, 353.0000
448.5720, 353.0000
449.9090, 374.0000
451.2460, 410.0000
452.5830, 473.0000
453.9190, 551.0000
455.2560, 614.0000
456.5920, 613.0000
457.9280, 575.0000
459.2640, 510.0000
460.6000, 457.0000
461.9350, 421.0000
463.2700, 396.0000
464.6050, 383.0000
465.9400, 353.0000
467.2740, 350.0000
468.6090, 359.0000
469.9430, 343.0000
471.2770, 350.0000
472.6100, 346.0000
473.9440, 352.0000
475.2770, 348.0000
476.6100, 351.0000
477.9430, 361.0000
479.2750, 353.0000
480.6080, 364.0000
481.9400, 367.0000
483.2720, 389.0000
484.6040, 400.0000
485.9350, 438.0000
487.2670, 519.0000
488.5980, 574.0000
489.9290, 598.0000
491.2600, 532.0000
492.5900, 450.0000
493.9200, 434.0000
495.2500, 390.0000
496.5800, 374.0000
497.9100, 359.0000
499.2390, 362.0000
500.5690, 348.0000
501.8980, 353.0000
503.2260, 353.0000
504.5550, 344.0000
505.8830, 351.0000
507.2120, 365.0000
508.5400, 351.0000
509.8670, 353.0000
511.1950, 348.0000
512.5220, 358.0000
513.8490, 367.0000
515.1760, 404.0000
516.5030, 419.0000
517.8290, 440.0000
519.1560, 470.0000
520.4820, 471.0000
521.8080, 439.0000
523.1330, 417.0000
524.4590, 384.0000
525.7840, 382.0000
527.1090, 363.0000
528.4340, 368.0000
529.7580, 368.0000
531.0830, 375.0000
532.4070, 367.0000
533.7310, 380.0000
535.0550, 360.0000
536.3780, 378.0000
537.7010, 366.0000
539.0250, 375.0000
540.3480, 375.0000
541.6700, 379.0000
542.9930, 389.0000
544.3150, 391.0000
545.6370, 409.0000
546.9590, 422.0000
548.2810, 432.0000
549.6020, 472.0000
550.9230, 502.0000
552.2440, 560.0000
553.5650, 620.0000
554.8860, 764.0000
556.2060, 891.0000
557.5260, 1057.000
558.8460, 1225.000
560.1660, 1170.000
561.4860, 1106.000
562.8050, 951.0000
564.1240, 798.0000
565.4430, 671.0000
566.7620, 562.0000
568.0800, 527.0000
569.3990, 473.0000
570.7170, 434.0000
572.0350, 423.0000
573.3520, 415.0000
574.6700, 409.0000
575.9870, 390.0000
577.3040, 379.0000
578.6210, 379.0000
579.9380, 364.0000
581.2540, 357.0000
582.5700, 351.0000
583.8860, 362.0000
585.2020, 356.0000
586.5180, 352.0000
587.8330, 358.0000
589.1480, 350.0000
590.4630, 343.0000
591.7780, 346.0000
593.0930, 332.0000
594.4070, 348.0000
595.7210, 344.0000
597.0350, 358.0000
598.3490, 348.0000
599.6620, 344.0000
600.9760, 355.0000
602.2890, 343.0000
603.6020, 345.0000
604.9140, 352.0000
606.2270, 358.0000
607.5390, 351.0000
608.8510, 343.0000
610.1630, 384.0000
611.4750, 368.0000
612.7860, 375.0000
614.0970, 370.0000
615.4080, 340.0000
616.7190, 359.0000
618.0300, 352.0000
619.3400, 343.0000
620.6510, 343.0000
621.9610, 332.0000
623.2700, 341.0000
624.5800, 340.0000
625.8890, 330.0000
627.1990, 349.0000
628.5070, 345.0000
629.8160, 350.0000
631.1250, 335.0000
632.4330, 364.0000
633.7410, 359.0000
635.0490, 358.0000
636.3570, 394.0000
637.6640, 384.0000
638.9720, 436.0000
640.2790, 483.0000
641.5860, 514.0000
642.8930, 533.0000
644.1990, 513.0000
645.5050, 507.0000
646.8110, 470.0000
648.1170, 435.0000
649.4230, 421.0000
650.7280, 386.0000
652.0340, 377.0000
653.3390, 382.0000
654.6440, 361.0000
655.9480, 361.0000
657.2530, 362.0000
658.5570, 351.0000
659.8610, 348.0000
661.1650, 354.0000
662.4680, 346.0000
663.7720, 353.0000
665.0750, 338.0000
666.3780, 341.0000
667.6810, 340.0000
668.9830, 343.0000
670.2860, 345.0000
671.5880, 344.0000
672.8900, 339.0000
674.1920, 346.0000
675.4930, 343.0000
676.7950, 341.0000
678.0960, 335.0000
679.3970, 352.0000
680.6970, 342.0000
681.9980, 348.0000
683.2980, 343.0000
684.5980, 332.0000
685.8980, 340.0000
687.1980, 336.0000
688.4980, 348.0000
689.7970, 347.0000
691.0960, 340.0000
692.3950, 334.0000
693.6940, 354.0000
694.9920, 336.0000
696.2900, 332.0000
697.5890, 344.0000
698.8860, 339.0000
700.1840, 329.0000
701.4820, 335.0000
702.7790, 329.0000
704.0760, 332.0000
705.3730, 346.0000
706.6690, 343.0000
707.9660, 336.0000
709.2620, 335.0000
710.5580, 340.0000
711.8540, 332.0000
713.1500, 334.0000
714.4450, 330.0000
715.7400, 334.0000
717.0350, 332.0000
718.3300, 332.0000
719.6250, 339.0000
720.9190, 333.0000
722.2140, 340.0000
723.5080, 330.0000
724.8010, 331.0000
726.0950, 329.0000
727.3880, 337.0000
728.6820, 344.0000
729.9750, 343.0000
731.2670, 340.0000
732.5600, 334.0000
733.8520, 343.0000
735.1450, 342.0000
736.4370, 331.0000
737.7280, 339.0000
739.0200, 340.0000
740.3110, 342.0000
741.6030, 338.0000
742.8940, 347.0000
744.1840, 341.0000
745.4750, 338.0000
746.7650, 343.0000
748.0550, 344.0000
749.3450, 334.0000
750.6350, 340.0000
751.9250, 337.0000
753.2140, 338.0000
754.5030, 340.0000
755.7920, 332.0000
757.0810, 342.0000
758.3700, 328.0000
759.6580, 334.0000
760.9460, 337.0000
762.2340, 339.0000
763.5220, 330.0000
764.8090, 350.0000
766.0970, 345.0000
767.3840, 342.0000
768.6710, 347.0000
769.9580, 343.0000
771.2440, 353.0000
772.5300, 348.0000
773.8170, 343.0000
775.1020, 346.0000
776.3880, 342.0000
777.6740, 340.0000
778.9590, 337.0000
780.2440, 354.0000
781.5290, 342.0000
782.8140, 340.0000
784.0980, 339.0000
785.3830, 349.0000
786.6670, 340.0000
787.9510, 342.0000
789.2350, 339.0000
790.5180, 346.0000
791.8010, 348.0000
793.0840, 337.0000
794.3670, 330.0000
795.6500, 341.0000
796.9330, 351.0000
798.2150, 343.0000
799.4970, 349.0000
800.7790, 341.0000
802.0610, 347.0000
803.3420, 349.0000
804.6240, 348.0000
805.9050, 349.0000
807.1860, 340.0000
808.4660, 348.0000
809.7470, 346.0000
811.0270, 340.0000
812.3070, 353.0000
813.5870, 343.0000
814.8670, 335.0000
816.1460, 345.0000
817.4260, 348.0000
818.7050, 342.0000
819.9840, 345.0000
821.2630, 350.0000
822.5410, 346.0000
823.8190, 340.0000
825.0980, 354.0000
826.3750, 361.0000
827.6530, 351.0000
828.9310, 356.0000
830.2080, 358.0000
831.4850, 356.0000
832.7620, 352.0000
834.0390, 358.0000
835.3150, 363.0000
836.5920, 369.0000
837.8680, 372.0000
839.1440, 380.0000
840.4200, 375.0000
841.6950, 391.0000
842.9700, 384.0000
844.2460, 410.0000
845.5210, 395.0000
846.7950, 413.0000
848.0700, 425.0000
849.3440, 411.0000
850.6180, 441.0000
851.8920, 437.0000
853.1660, 429.0000
854.4400, 428.0000
855.7130, 435.0000
856.9860, 446.0000
858.2590, 431.0000
859.5320, 422.0000
860.8040, 413.0000
862.0770, 413.0000
863.3490, 393.0000
864.6210, 404.0000
865.8930, 401.0000
867.1640, 384.0000
868.4360, 396.0000
869.7070, 391.0000
870.9780, 388.0000
872.2480, 384.0000
873.5190, 402.0000
874.7890, 381.0000
876.0600, 384.0000
877.3300, 399.0000
878.5990, 400.0000
879.8690, 403.0000
881.1380, 399.0000
882.4080, 390.0000
883.6770, 409.0000
884.9450, 402.0000
886.2140, 415.0000
887.4820, 412.0000
888.7510, 411.0000
890.0190, 401.0000
891.2870, 406.0000
892.5540, 419.0000
893.8220, 420.0000
895.0890, 422.0000
896.3560, 421.0000
897.6230, 450.0000
898.8890, 444.0000
900.1560, 465.0000
901.4220, 452.0000
902.6880, 476.0000
903.9540, 498.0000
905.2200, 512.0000
906.4850, 516.0000
907.7500, 527.0000
909.0150, 563.0000
910.2800, 586.0000
911.5450, 622.0000
912.8090, 649.0000
914.0740, 692.0000
915.3380, 740.0000
916.6020, 825.0000
917.8650, 878.0000
919.1290, 966.0000
920.3920, 1019.000
921.6550, 1114.000
922.9180, 1191.000
924.1810, 1240.000
925.4430, 1394.000
926.7060, 1424.000
927.9680, 1660.000
929.2300, 1831.000
930.4910, 2107.000
931.7530, 2698.000
933.0140, 3180.000
934.2760, 3593.000
935.5360, 3978.000
936.7970, 3635.000
938.0580, 3105.000
939.3180, 2642.000
940.5780, 2066.000
941.8380, 1759.000
943.0980, 1383.000
944.3580, 1183.000
945.6170, 1024.000
946.8760, 913.0000
948.1350, 852.0000
949.3940, 765.0000
950.6530, 698.0000
951.9110, 691.0000
953.1690, 633.0000
954.4270, 600.0000
955.6850, 594.0000
956.9430, 557.0000
958.2000, 553.0000
959.4580, 518.0000
960.7150, 519.0000
961.9710, 509.0000
963.2280, 494.0000
964.4850, 486.0000
965.7410, 486.0000
966.9970, 476.0000
968.2530, 494.0000
969.5080, 482.0000
970.7640, 475.0000
972.0190, 467.0000
973.2740, 474.0000
974.5290, 487.0000
975.7840, 478.0000
977.0390, 471.0000
978.2930, 508.0000
979.5470, 522.0000
980.8010, 559.0000
982.0550, 591.0000
983.3080, 590.0000
984.5620, 612.0000
985.8150, 562.0000
987.0680, 537.0000
988.3210, 510.0000
989.5730, 474.0000
990.8260, 467.0000
992.0780, 455.0000
993.3300, 433.0000
994.5820, 424.0000
995.8330, 422.0000
997.0850, 417.0000
998.3360, 405.0000
999.5870, 419.0000
1000.838, 398.0000
1002.088, 409.0000
1003.339, 424.0000
1004.589, 436.0000
1005.839, 430.0000
1007.089, 426.0000
1008.339, 409.0000
1009.588, 420.0000
1010.838, 412.0000
1012.087, 402.0000
1013.336, 406.0000
1014.584, 402.0000
1015.833, 388.0000
1017.081, 385.0000
1018.330, 389.0000
1019.577, 387.0000
1020.825, 390.0000
1022.073, 386.0000
1023.320, 392.0000
1024.567, 394.0000
1025.814, 397.0000
1027.061, 391.0000
1028.308, 380.0000
1029.554, 387.0000
1030.800, 379.0000
1032.046, 375.0000
1033.292, 375.0000
1034.538, 388.0000
1035.783, 390.0000
1037.029, 385.0000
1038.274, 371.0000
1039.519, 388.0000
1040.763, 388.0000
1042.008, 375.0000
1043.252, 388.0000
1044.496, 388.0000
1045.740, 372.0000
1046.984, 368.0000
1048.228, 392.0000
1049.471, 378.0000
1050.714, 387.0000
1051.957, 381.0000
1053.200, 387.0000
1054.442, 378.0000
1055.685, 384.0000
1056.927, 374.0000
1058.169, 360.0000
1059.411, 364.0000
1060.652, 372.0000
1061.894, 372.0000
1063.135, 368.0000
1064.376, 367.0000
1065.617, 384.0000
1066.858, 372.0000
1068.098, 370.0000
1069.339, 369.0000
1070.579, 358.0000
1071.819, 384.0000
1073.058, 391.0000
1074.298, 366.0000
1075.537, 374.0000
1076.776, 366.0000
1078.015, 373.0000
1079.254, 369.0000
1080.493, 370.0000
1081.731, 377.0000
1082.969, 366.0000
1084.207, 379.0000
1085.445, 367.0000
1086.683, 355.0000
1087.920, 361.0000
1089.157, 377.0000
1090.394, 354.0000
1091.631, 368.0000
1092.868, 368.0000
1094.105, 369.0000
1095.341, 368.0000
1096.577, 379.0000
1097.813, 366.0000
1099.049, 367.0000
1100.284, 356.0000
1101.519, 358.0000
1102.755, 365.0000
1103.990, 374.0000
1105.224, 366.0000
1106.459, 366.0000
1107.693, 368.0000
1108.928, 373.0000
1110.162, 377.0000
1111.395, 382.0000
1112.629, 381.0000
1113.863, 363.0000
1115.096, 375.0000
1116.329, 378.0000
1117.562, 384.0000
1118.795, 382.0000
1120.027, 417.0000
1121.259, 438.0000
1122.492, 415.0000
1123.723, 378.0000
1124.955, 375.0000
1126.187, 380.0000
1127.418, 371.0000
1128.649, 357.0000
1129.880, 364.0000
1131.111, 381.0000
1132.342, 369.0000
1133.572, 354.0000
1134.802, 361.0000
1136.033, 368.0000
1137.262, 362.0000
1138.492, 376.0000
1139.722, 354.0000
1140.951, 373.0000
1142.180, 370.0000
1143.409, 362.0000
1144.638, 364.0000
1145.866, 366.0000
1147.095, 360.0000
1148.323, 375.0000
1149.551, 361.0000
1150.779, 384.0000
1152.006, 374.0000
1153.234, 382.0000
1154.461, 388.0000
1155.688, 380.0000
1156.915, 396.0000
1158.141, 383.0000
1159.368, 399.0000
1160.594, 419.0000
1161.820, 414.0000
1163.046, 415.0000
1164.272, 415.0000
1165.498, 417.0000
1166.723, 415.0000
1167.948, 402.0000
1169.173, 386.0000
1170.398, 387.0000
1171.623, 377.0000
1172.847, 368.0000
1174.071, 370.0000
1175.295, 358.0000
1176.519, 375.0000
1177.743, 359.0000
1178.966, 388.0000
1180.190, 364.0000
1181.413, 362.0000
1182.636, 355.0000
1183.858, 365.0000
1185.081, 360.0000
1186.303, 364.0000
1187.526, 365.0000
1188.748, 361.0000
1189.969, 372.0000
1191.191, 364.0000
1192.412, 378.0000
1193.634, 368.0000
1194.855, 360.0000
1196.076, 365.0000
1197.296, 359.0000
1198.517, 363.0000
1199.737, 368.0000
1200.957, 368.0000
1202.177, 366.0000
1203.397, 355.0000
1204.617, 381.0000
1205.836, 360.0000
1207.055, 361.0000
1208.274, 370.0000
1209.493, 362.0000
1210.712, 362.0000
1211.930, 368.0000
1213.148, 375.0000
1214.367, 358.0000
1215.584, 374.0000
1216.802, 364.0000
1218.020, 380.0000
1219.237, 364.0000
1220.454, 361.0000
1221.671, 382.0000
1222.888, 370.0000
1224.105, 363.0000
1225.321, 365.0000
1226.537, 363.0000
1227.753, 368.0000
1228.969, 370.0000
1230.185, 372.0000
1231.400, 363.0000
1232.616, 363.0000
1233.831, 370.0000
1235.046, 364.0000
1236.261, 365.0000
1237.475, 367.0000
1238.689, 377.0000
1239.904, 349.0000
1241.118, 370.0000
1242.332, 370.0000
1243.545, 358.0000
1244.759, 370.0000
1245.972, 361.0000
1247.185, 369.0000
1248.398, 376.0000
1249.611, 373.0000
1250.823, 358.0000
1252.036, 379.0000
1253.248, 364.0000
1254.460, 367.0000
1255.671, 375.0000
1256.883, 362.0000
1258.095, 380.0000
1259.306, 363.0000
1260.517, 364.0000
1261.728, 356.0000
1262.938, 372.0000
1264.149, 363.0000
1265.359, 360.0000
1266.569, 365.0000
1267.779, 368.0000
1268.989, 372.0000
1270.199, 368.0000
1271.408, 372.0000
1272.617, 355.0000
1273.826, 370.0000
1275.035, 367.0000
1276.244, 375.0000
1277.452, 387.0000
1278.661, 366.0000
1279.869, 368.0000
1281.077, 383.0000
1282.285, 358.0000
1283.492, 380.0000
1284.700, 375.0000
1285.907, 370.0000
1287.114, 378.0000
1288.321, 382.0000
1289.527, 366.0000
1290.734, 376.0000
1291.940, 364.0000
1293.146, 384.0000
1294.352, 385.0000
1295.558, 375.0000
1296.763, 380.0000
1297.969, 386.0000
1299.174, 377.0000
1300.379, 390.0000
1301.584, 372.0000
1302.788, 381.0000
1303.993, 377.0000
1305.197, 372.0000
1306.401, 389.0000
1307.605, 393.0000
1308.809, 379.0000
1310.013, 393.0000
1311.216, 375.0000
1312.419, 380.0000
1313.622, 374.0000
1314.825, 377.0000
1316.028, 378.0000
1317.230, 390.0000
1318.432, 364.0000
1319.634, 377.0000
1320.836, 380.0000
1322.038, 388.0000
1323.240, 377.0000
1324.441, 375.0000
1325.642, 389.0000
1326.843, 377.0000
1328.044, 366.0000
1329.245, 386.0000
1330.445, 384.0000
1331.645, 389.0000
1332.845, 388.0000
1334.045, 361.0000
1335.245, 384.0000
1336.445, 388.0000
1337.644, 381.0000
1338.843, 373.0000
1340.042, 380.0000
1341.241, 377.0000
1342.440, 388.0000
1343.638, 384.0000
1344.836, 377.0000
1346.034, 385.0000
1347.232, 384.0000
1348.430, 364.0000
1349.628, 381.0000
1350.825, 378.0000
1352.022, 375.0000
1353.219, 393.0000
1354.416, 379.0000
1355.613, 385.0000
1356.809, 376.0000
1358.005, 373.0000
1359.202, 385.0000
1360.398, 387.0000
1361.593, 370.0000
1362.789, 402.0000
1363.984, 393.0000
1365.179, 375.0000
1366.374, 382.0000
1367.569, 372.0000
1368.764, 393.0000
1369.958, 381.0000
1371.153, 389.0000
1372.347, 377.0000
1373.541, 382.0000
1374.735, 386.0000
1375.928, 388.0000
1377.122, 389.0000
1378.315, 374.0000
1379.508, 384.0000
1380.701, 387.0000
1381.893, 392.0000
1383.086, 378.0000
1384.278, 382.0000
1385.470, 390.0000
1386.662, 384.0000
1387.854, 378.0000
1389.046, 391.0000
1390.237, 386.0000
1391.428, 393.0000
1392.619, 395.0000
1393.810, 384.0000
1395.001, 393.0000
1396.191, 381.0000
1397.382, 385.0000
1398.572, 385.0000
1399.762, 386.0000
1400.952, 391.0000
1402.141, 392.0000
1403.331, 390.0000
1404.520, 393.0000
1405.709, 380.0000
1406.898, 385.0000
1408.087, 388.0000
1409.275, 386.0000
1410.464, 402.0000
1411.652, 379.0000
1412.840, 394.0000
1414.028, 387.0000
1415.215, 391.0000
1416.403, 386.0000
1417.590, 389.0000
1418.777, 402.0000
1419.964, 391.0000
1421.151, 384.0000
1422.338, 393.0000
1423.524, 403.0000
1424.710, 403.0000
1425.896, 393.0000
1427.082, 393.0000
1428.268, 387.0000
1429.453, 380.0000
1430.639, 374.0000
1431.824, 394.0000
1433.009, 391.0000
1434.194, 388.0000
1435.378, 394.0000
1436.563, 382.0000
1437.747, 383.0000
1438.931, 391.0000
1440.115, 382.0000
1441.299, 396.0000
1442.482, 395.0000
1443.666, 396.0000
1444.849, 390.0000
1446.032, 396.0000
1447.215, 404.0000
1448.397, 396.0000
1449.580, 391.0000
1450.762, 398.0000
1451.944, 399.0000
1453.126, 398.0000
1454.308, 395.0000
1455.490, 400.0000
1456.671, 392.0000
1457.852, 396.0000
1459.033, 384.0000
1460.214, 378.0000
1461.395, 391.0000
1462.575, 383.0000
1463.756, 408.0000
1464.936, 379.0000
1466.116, 402.0000
1467.296, 390.0000
1468.475, 385.0000
1469.655, 395.0000
1470.834, 398.0000
1472.013, 401.0000
1473.192, 402.0000
1474.371, 394.0000
1475.550, 395.0000
1476.728, 390.0000
1477.906, 411.0000
1479.084, 399.0000
1480.262, 398.0000
1481.440, 380.0000
1482.617, 398.0000
1483.795, 394.0000
1484.972, 399.0000
1486.149, 402.0000
1487.326, 401.0000
1488.502, 393.0000
1489.679, 398.0000
1490.855, 381.0000
1492.031, 399.0000
1493.207, 398.0000
1494.383, 407.0000
1495.559, 408.0000
1496.734, 390.0000
1497.909, 397.0000
1499.084, 405.0000
1500.259, 400.0000
1501.434, 415.0000
1502.608, 405.0000
1503.783, 414.0000
1504.957, 170.0000
##END=



