##NAMES=Tourmaline
##RRUFFID=R110131
##LOCALITY=Bald Hornet area, King County, Washington, USA
##OWNER=RRUFF
##SOURCE=Bart Cannon
##DESCRIPTION=Green acicular crystals associated with quartz, supposed to be the new mineral luinaite
##STATUS=The identification of this mineral has been confirmed only by single crystal X-ray diffraction.
##URL=rruff.info/R110131
171.0057, 114.8404
171.4878, 115.8016
171.9699, 116.4424
172.4520, 118.0505
172.9341, 120.5966
173.4163, 123.6787
173.8984, 127.4043
174.3805, 131.4589
174.8626, 135.2050
175.3447, 138.4822
175.8268, 141.3706
176.3090, 143.7140
176.7911, 145.4849
177.2732, 147.5081
177.7553, 150.3815
178.2374, 153.3751
178.7195, 155.5283
179.2017, 155.8437
179.6838, 155.3798
180.1659, 155.7776
180.6480, 157.0903
181.1301, 158.6576
181.6122, 159.9923
182.0944, 161.1051
182.5765, 161.9835
183.0586, 162.4028
183.5407, 162.6260
184.0228, 163.3134
184.5049, 164.5261
184.9871, 165.8563
185.4692, 166.7791
185.9513, 167.3639
186.4334, 167.9344
186.9155, 168.7467
187.3976, 169.6774
187.8798, 170.2578
188.3619, 170.3983
188.8440, 170.4580
189.3261, 171.0580
189.8082, 172.1507
190.2903, 173.0505
190.7725, 173.1002
191.2546, 172.5332
191.7367, 172.7841
192.2188, 174.0370
192.7009, 175.7837
193.1830, 177.2036
193.6652, 178.2912
194.1473, 179.3444
194.6294, 180.5133
195.1115, 181.7876
195.5936, 182.9954
196.0757, 184.0444
196.5579, 185.1599
197.0400, 186.9276
197.5221, 189.4188
198.0042, 191.7883
198.4863, 193.3587
198.9684, 194.1075
199.4506, 195.6435
199.9327, 198.3180
200.4148, 201.4975
200.8969, 203.5999
201.3790, 204.4270
201.8611, 205.3655
202.3433, 207.4269
202.8254, 210.7498
203.3075, 213.5154
203.7896, 215.4615
204.2717, 216.8630
204.7538, 218.3396
205.2360, 219.8802
205.7181, 221.5215
206.2002, 223.2836
206.6823, 225.1653
207.1644, 227.1717
207.6465, 229.3851
208.1287, 231.6692
208.6108, 233.6540
209.0929, 235.2585
209.5750, 236.7895
210.0571, 238.4378
210.5392, 240.2634
211.0214, 241.9500
211.5035, 243.4159
211.9856, 244.7425
212.4677, 246.2773
212.9498, 248.1007
213.4319, 249.9753
213.9140, 251.7866
214.3962, 253.5364
214.8783, 255.2804
215.3604, 257.1440
215.8425, 258.9909
216.3246, 260.0895
216.8067, 260.1032
217.2889, 260.0340
217.7710, 260.6003
218.2531, 262.1890
218.7352, 263.2347
219.2173, 263.4711
219.6994, 263.0613
220.1816, 262.7966
220.6637, 262.7733
221.1458, 262.7078
221.6279, 262.4028
222.1100, 261.7479
222.5921, 261.1486
223.0743, 260.7176
223.5564, 260.3741
224.0385, 259.6518
224.5206, 258.3353
225.0027, 257.0179
225.4848, 256.1281
225.9670, 255.9918
226.4491, 255.5111
226.9312, 254.4826
227.4133, 253.0415
227.8954, 251.7730
228.3775, 250.7572
228.8597, 249.8353
229.3418, 248.9221
229.8239, 247.9910
230.3060, 247.1274
230.7881, 246.3400
231.2702, 245.6191
231.7524, 244.9300
232.2345, 244.1202
232.7166, 243.5528
233.1987, 243.5670
233.6808, 244.7608
234.1629, 245.1528
234.6451, 244.2399
235.1272, 242.3998
235.6093, 241.3922
236.0914, 241.9909
236.5735, 242.3629
237.0556, 241.3112
237.5378, 237.6834
238.0199, 235.2157
238.5020, 234.6134
238.9841, 235.3294
239.4662, 235.1785
239.9483, 233.9457
240.4305, 232.1584
240.9126, 230.0947
241.3947, 227.8790
241.8768, 225.0528
242.3589, 221.0858
242.8410, 216.5359
243.3232, 213.4024
243.8053, 212.4352
244.2874, 211.8727
244.7695, 210.8123
245.2516, 208.8618
245.7337, 207.3244
246.2159, 206.6689
246.6980, 206.3842
247.1801, 204.6792
247.6622, 200.3892
248.1443, 196.4052
248.6264, 194.2983
249.1086, 195.1861
249.5907, 195.2010
250.0728, 193.9691
250.5549, 191.9204
251.0370, 190.1354
251.5191, 188.4795
252.0013, 187.3046
252.4834, 186.9059
252.9655, 187.8806
253.4476, 188.0255
253.9297, 186.8950
254.4118, 185.1382
254.8940, 184.2179
255.3761, 184.4763
255.8582, 184.9651
256.3403, 185.3192
256.8224, 185.5179
257.3046, 185.6623
257.7867, 185.8474
258.2688, 185.9119
258.7509, 185.4373
259.2330, 184.0547
259.7151, 182.8911
260.1973, 182.4534
260.6794, 182.9591
261.1615, 183.2525
261.6436, 183.3117
262.1257, 183.1786
262.6078, 182.9273
263.0900, 182.5920
263.5721, 182.0697
264.0542, 181.2743
264.5363, 180.1313
265.0184, 179.1371
265.5005, 178.1854
265.9827, 177.4877
266.4648, 177.5691
266.9469, 178.9480
267.4290, 179.5693
267.9111, 178.4649
268.3932, 175.4683
268.8754, 173.6698
269.3575, 173.4808
269.8396, 173.8484
270.3217, 173.3715
270.8038, 171.7913
271.2859, 170.3752
271.7681, 169.5629
272.2502, 169.3264
272.7323, 168.7365
273.2144, 167.6830
273.6965, 166.5177
274.1786, 165.6560
274.6608, 165.1580
275.1429, 164.5959
275.6250, 163.8464
276.1071, 162.9417
276.5892, 162.1005
277.0714, 161.3616
277.5535, 160.6140
278.0356, 159.8535
278.5177, 159.1201
278.9998, 157.8838
279.4819, 155.7706
279.9641, 153.1171
280.4462, 151.6796
280.9283, 151.7125
281.4104, 151.8479
281.8925, 150.7756
282.3746, 148.4741
282.8568, 146.6270
283.3389, 145.5956
283.8210, 145.1285
284.3031, 144.5318
284.7852, 143.7853
285.2673, 143.0962
285.7495, 142.6133
286.2316, 142.3283
286.7137, 142.1385
287.1958, 142.0831
287.6779, 142.0428
288.1600, 141.8298
288.6422, 141.4457
289.1243, 140.7710
289.6064, 139.3772
290.0885, 137.4980
290.5706, 136.5151
291.0527, 136.6819
291.5349, 137.4534
292.0170, 138.1391
292.4991, 138.7189
292.9812, 139.0576
293.4633, 138.8858
293.9454, 138.3930
294.4276, 138.1668
294.9097, 138.2421
295.3918, 138.5775
295.8739, 139.3121
296.3560, 140.3370
296.8381, 141.1677
297.3203, 141.2205
297.8024, 140.9771
298.2845, 141.6071
298.7666, 143.2154
299.2487, 144.8877
299.7308, 145.7183
300.2130, 145.8836
300.6951, 145.8736
301.1772, 145.6684
301.6593, 145.5065
302.1414, 145.7616
302.6235, 146.4256
303.1057, 147.2831
303.5878, 148.3427
304.0699, 149.4490
304.5520, 150.2705
305.0341, 150.4294
305.5162, 150.5078
305.9984, 151.2884
306.4805, 152.6532
306.9626, 153.8456
307.4447, 154.0784
307.9268, 153.9059
308.4089, 154.0603
308.8911, 154.8811
309.3732, 155.8448
309.8553, 156.6438
310.3374, 157.2625
310.8195, 157.6598
311.3016, 157.4504
311.7838, 157.1880
312.2659, 157.5130
312.7480, 158.9450
313.2301, 160.0080
313.7122, 159.6419
314.1943, 158.2742
314.6765, 156.8096
315.1586, 155.0816
315.6407, 153.7879
316.1228, 153.6279
316.6049, 155.0536
317.0870, 156.0514
317.5692, 155.3629
318.0513, 153.7868
318.5334, 152.4404
319.0155, 151.5758
319.4976, 151.1096
319.9797, 151.2632
320.4619, 152.1327
320.9440, 152.5201
321.4261, 151.6431
321.9082, 150.2986
322.3903, 149.2429
322.8724, 148.8899
323.3546, 148.5831
323.8367, 148.0624
324.3188, 147.3423
324.8009, 146.9277
325.2830, 147.3233
325.7651, 147.7943
326.2473, 147.8650
326.7294, 146.6624
327.2115, 146.0214
327.6936, 146.3634
328.1757, 147.4987
328.6578, 148.4796
329.1400, 149.3732
329.6221, 150.0518
330.1042, 150.4516
330.5863, 150.3444
331.0684, 150.3290
331.5505, 150.2983
332.0327, 150.3755
332.5148, 150.8519
332.9969, 151.9210
333.4790, 153.1300
333.9611, 154.4101
334.4432, 155.8713
334.9254, 156.9181
335.4075, 157.3865
335.8896, 157.5593
336.3717, 157.7430
336.8538, 157.7521
337.3359, 158.2318
337.8180, 159.5085
338.3001, 161.5585
338.7823, 163.2035
339.2644, 164.2805
339.7465, 165.2475
340.2286, 166.5703
340.7107, 168.2987
341.1928, 170.0548
341.6750, 171.7585
342.1571, 173.4253
342.6392, 174.9808
343.1213, 176.4164
343.6034, 177.8678
344.0855, 179.5114
344.5677, 181.3215
345.0498, 182.9638
345.5319, 184.3262
346.0140, 185.6031
346.4961, 187.0595
346.9782, 188.6947
347.4604, 190.7326
347.9425, 193.5144
348.4246, 196.8354
348.9067, 199.8364
349.3888, 202.4424
349.8709, 204.8843
350.3531, 207.3362
350.8352, 209.8320
351.3173, 212.4862
351.7994, 215.5527
352.2815, 218.7617
352.7636, 221.6844
353.2458, 224.3182
353.7279, 226.7990
354.2100, 229.0857
354.6921, 231.3167
355.1742, 233.7410
355.6563, 236.6342
356.1385, 239.5711
356.6206, 242.0078
357.1027, 244.0792
357.5848, 246.3880
358.0669, 250.0501
358.5490, 253.7716
359.0312, 256.1913
359.5133, 256.6111
359.9954, 256.7582
360.4775, 257.5546
360.9596, 258.8153
361.4417, 260.1293
361.9239, 261.9261
362.4060, 263.2931
362.8881, 263.6293
363.3702, 262.7322
363.8523, 261.5788
364.3344, 260.4689
364.8166, 259.2771
365.2987, 257.8486
365.7808, 256.3519
366.2629, 254.4493
366.7450, 251.8967
367.2271, 248.6985
367.7093, 245.6009
368.1914, 243.2468
368.6735, 240.6659
369.1556, 237.1851
369.6377, 231.2668
370.1198, 226.4492
370.6020, 223.3002
371.0841, 221.4059
371.5662, 219.2991
372.0483, 217.1447
372.5304, 214.6044
373.0125, 211.4367
373.4947, 207.3083
373.9768, 203.5568
374.4589, 200.1592
374.9410, 197.1140
375.4231, 194.5145
375.9052, 192.4737
376.3874, 190.5213
376.8695, 188.5613
377.3516, 186.5722
377.8337, 184.5320
378.3158, 182.3431
378.7979, 180.3066
379.2801, 178.8757
379.7622, 178.0776
380.2443, 177.0250
380.7264, 175.4266
381.2085, 173.5482
381.6906, 172.1535
382.1728, 171.2556
382.6549, 170.3397
383.1370, 168.8173
383.6191, 166.9324
384.1012, 165.8300
384.5833, 165.7552
385.0655, 165.9791
385.5476, 165.4986
386.0297, 164.4737
386.5118, 163.5159
386.9939, 163.0228
387.4760, 162.7224
387.9582, 162.2033
388.4403, 161.4522
388.9224, 160.6663
389.4045, 160.0698
389.8866, 159.5340
390.3687, 158.8537
390.8509, 157.7328
391.3330, 156.7116
391.8151, 156.3271
392.2972, 156.4205
392.7793, 156.3330
393.2614, 155.4867
393.7436, 154.4993
394.2257, 153.8184
394.7078, 153.6525
395.1899, 153.4859
395.6720, 152.9145
396.1541, 152.2626
396.6363, 152.0528
397.1184, 153.1215
397.6005, 153.9895
398.0826, 154.0943
398.5647, 153.3250
399.0468, 152.5079
399.5290, 151.6191
400.0111, 150.7702
400.4932, 150.0470
400.9753, 149.4440
401.4574, 148.9797
401.9395, 148.7256
402.4217, 148.6286
402.9038, 148.4328
403.3859, 148.0547
403.8680, 147.7017
404.3501, 147.5204
404.8322, 147.6453
405.3144, 147.4412
405.7965, 146.7853
406.2786, 145.9497
406.7607, 145.3792
407.2428, 145.1135
407.7249, 144.8938
408.2071, 144.6328
408.6892, 144.3446
409.1713, 144.1147
409.6534, 143.9365
410.1355, 143.8486
410.6176, 144.0405
411.0998, 144.4189
411.5819, 144.4030
412.0640, 143.8063
412.5461, 142.8877
413.0282, 141.9003
413.5103, 140.8933
413.9925, 140.1311
414.4746, 139.9801
414.9567, 140.0941
415.4388, 139.9128
415.9209, 139.3670
416.4030, 138.7482
416.8852, 138.2602
417.3673, 137.8658
417.8494, 137.5020
418.3315, 136.9573
418.8136, 136.5884
419.2957, 136.8108
419.7779, 137.5144
420.2600, 137.9801
420.7421, 137.8529
421.2242, 137.3790
421.7063, 136.6973
422.1884, 135.6118
422.6706, 134.7280
423.1527, 134.2927
423.6348, 134.1411
424.1169, 133.9583
424.5990, 133.8012
425.0811, 133.5031
425.5633, 132.9212
426.0454, 131.9751
426.5275, 131.3185
427.0096, 131.2183
427.4917, 131.1851
427.9738, 130.7702
428.4560, 129.6330
428.9381, 128.8400
429.4202, 128.6254
429.9023, 128.8172
430.3844, 128.7927
430.8665, 128.4602
431.3487, 128.1726
431.8308, 128.1599
432.3129, 128.4431
432.7950, 128.6027
433.2771, 128.6626
433.7592, 128.5220
434.2414, 127.8760
434.7235, 126.7852
435.2056, 125.9846
435.6877, 125.8003
436.1698, 125.9879
436.6519, 126.0541
437.1341, 126.0045
437.6162, 125.9364
438.0983, 125.9174
438.5804, 125.9297
439.0625, 125.9756
439.5446, 126.0989
440.0268, 126.1078
440.5089, 125.7994
440.9910, 125.2488
441.4731, 124.6173
441.9552, 123.5266
442.4373, 122.7260
442.9195, 122.9119
443.4016, 124.0685
443.8837, 125.0286
444.3658, 125.4543
444.8479, 125.4063
445.3300, 124.8971
445.8122, 123.0232
446.2943, 121.8704
446.7764, 122.1729
447.2585, 123.4538
447.7406, 124.4955
448.2227, 125.3640
448.7049, 125.8304
449.1870, 125.7209
449.6691, 124.9017
450.1512, 124.3619
450.6333, 124.3941
451.1154, 124.3985
451.5976, 123.5970
452.0797, 121.4635
452.5618, 120.3845
453.0439, 121.0383
453.5260, 122.8234
454.0081, 123.9797
454.4903, 124.4744
454.9724, 124.5713
455.4545, 124.1858
455.9366, 123.4339
456.4187, 123.2619
456.9008, 123.8003
457.3830, 124.3584
457.8651, 123.8170
458.3472, 122.5655
458.8293, 121.9179
459.3114, 122.5531
459.7935, 123.7281
460.2757, 124.7859
460.7578, 125.6547
461.2399, 126.0128
461.7220, 125.1200
462.2041, 123.9195
462.6862, 123.3655
463.1684, 123.7121
463.6505, 124.1792
464.1326, 124.5053
464.6147, 124.6770
465.0968, 124.6786
465.5789, 124.2892
466.0611, 123.9518
466.5432, 123.8758
467.0253, 124.0295
467.5074, 124.0118
467.9895, 123.3718
468.4716, 122.8807
468.9538, 122.9456
469.4359, 123.9372
469.9180, 124.6740
470.4001, 125.1542
470.8822, 125.3848
471.3643, 125.3022
471.8465, 124.7163
472.3286, 124.3738
472.8107, 124.5275
473.2928, 125.0852
473.7749, 125.5458
474.2570, 125.8969
474.7392, 126.1969
475.2213, 126.6059
475.7034, 127.0559
476.1855, 126.9258
476.6676, 125.9831
477.1497, 125.0322
477.6319, 125.2554
478.1140, 126.3993
478.5961, 127.6465
479.0782, 128.9553
479.5603, 129.9903
480.0424, 130.0415
480.5246, 129.2548
481.0067, 128.8129
481.4888, 129.9417
481.9709, 131.4752
482.4530, 132.3070
482.9352, 131.9062
483.4173, 131.5909
483.8994, 132.0987
484.3815, 132.9702
484.8636, 133.5012
485.3457, 133.0648
485.8279, 132.7496
486.3100, 132.9177
486.7921, 133.5782
487.2742, 134.0674
487.7563, 133.9232
488.2384, 134.0862
488.7206, 135.2543
489.2027, 138.2440
489.6848, 139.9321
490.1669, 139.8106
490.6490, 138.8902
491.1311, 138.8607
491.6133, 139.8821
492.0954, 140.6611
492.5775, 140.6288
493.0596, 140.0954
493.5417, 140.4026
494.0238, 141.5630
494.5060, 142.5673
494.9881, 142.3300
495.4702, 141.3735
495.9523, 141.0699
496.4344, 141.6898
496.9165, 142.5369
497.3987, 142.9517
497.8808, 143.0941
498.3629, 143.2573
498.8450, 143.7730
499.3271, 144.1751
499.8092, 144.0546
500.2914, 143.5016
500.7735, 143.0234
501.2556, 142.7132
501.7377, 142.6092
502.2198, 142.7547
502.7019, 143.2317
503.1841, 143.7632
503.6662, 144.7792
504.1483, 145.6374
504.6304, 145.5257
505.1125, 143.5488
505.5946, 142.0807
506.0768, 141.6955
506.5589, 142.1182
507.0410, 141.8515
507.5231, 140.5942
508.0052, 139.4913
508.4873, 139.2350
508.9695, 139.8365
509.4516, 140.2833
509.9337, 140.5631
510.4158, 140.7075
510.8979, 140.7197
511.3800, 140.6175
511.8622, 140.4985
512.3443, 140.4457
512.8264, 140.3022
513.3085, 139.7199
513.7906, 138.8279
514.2728, 138.0881
514.7549, 137.8989
515.2370, 137.8859
515.7191, 137.6667
516.2012, 137.1942
516.6833, 136.9284
517.1655, 137.2751
517.6476, 137.8185
518.1297, 138.2054
518.6118, 138.4142
519.0939, 138.4003
519.5760, 138.1143
520.0582, 137.5988
520.5403, 136.9385
521.0224, 135.8599
521.5045, 135.0246
521.9866, 134.6060
522.4688, 134.6037
522.9509, 134.9440
523.4330, 135.8111
523.9151, 136.5936
524.3972, 136.7505
524.8793, 136.2652
525.3615, 135.8100
525.8436, 135.4125
526.3257, 135.1375
526.8078, 135.0910
527.2899, 135.2565
527.7720, 135.5678
528.2542, 136.0389
528.7363, 136.6055
529.2184, 137.3354
529.7005, 138.1507
530.1826, 138.6637
530.6647, 138.1880
531.1469, 137.5784
531.6290, 137.7343
532.1111, 139.0119
532.5932, 139.8996
533.0753, 139.4404
533.5574, 138.4524
534.0396, 137.7920
534.5217, 137.9040
535.0038, 138.0006
535.4859, 137.9185
535.9680, 137.7388
536.4501, 137.7788
536.9323, 138.4341
537.4144, 138.6201
537.8965, 137.7006
538.3786, 135.6337
538.8607, 134.5344
539.3428, 134.6219
539.8250, 135.0233
540.3071, 134.9938
540.7892, 134.5618
541.2713, 133.9434
541.7534, 133.1177
542.2355, 132.2676
542.7177, 131.6632
543.1998, 131.2483
543.6819, 130.8615
544.1640, 130.4839
544.6461, 130.0676
545.1282, 129.5948
545.6104, 129.0552
546.0925, 128.3771
546.5746, 127.3608
547.0567, 126.3121
547.5388, 125.4482
548.0209, 124.8714
548.5031, 124.2458
548.9852, 123.3867
549.4673, 122.4946
549.9494, 121.7797
550.4315, 121.3114
550.9136, 120.9170
551.3958, 120.6039
551.8779, 120.3445
552.3600, 120.0552
552.8421, 119.7132
553.3242, 119.4166
553.8063, 119.2530
554.2885, 119.1885
554.7706, 118.9401
555.2527, 118.4993
555.7348, 117.9711
556.2169, 117.2247
556.6990, 116.4718
557.1812, 116.3958
557.6633, 117.2948
558.1454, 118.1400
558.6275, 117.7137
559.1096, 116.5732
559.5917, 115.6903
560.0739, 115.6454
560.5560, 115.7854
561.0381, 116.0083
561.5202, 116.2074
562.0023, 115.9466
562.4844, 114.1711
562.9666, 112.7197
563.4487, 112.6230
563.9308, 114.2658
564.4129, 115.3356
564.8950, 115.6830
565.3771, 115.6181
565.8593, 115.3482
566.3414, 114.8179
566.8235, 114.2910
567.3056, 113.7457
567.7877, 113.2783
568.2698, 113.1398
568.7520, 113.3066
569.2341, 113.3896
569.7162, 113.2090
570.1983, 112.8779
570.6804, 112.5401
571.1625, 112.2135
571.6447, 112.0003
572.1268, 112.0174
572.6089, 112.1526
573.0910, 112.3210
573.5731, 112.5245
574.0552, 112.6821
574.5374, 112.7159
575.0195, 112.7081
575.5016, 112.7354
575.9837, 112.8890
576.4658, 112.9803
576.9479, 113.0662
577.4301, 113.0594
577.9122, 112.7119
578.3943, 111.6065
578.8764, 111.0074
579.3585, 111.4409
579.8406, 112.7109
580.3228, 113.4583
580.8049, 113.6515
581.2870, 113.5236
581.7691, 113.0425
582.2512, 112.3419
582.7333, 112.0221
583.2155, 112.1525
583.6975, 112.3235
584.1796, 112.0534
584.6617, 111.5862
585.1439, 111.3440
585.6260, 111.5643
586.1081, 111.8166
586.5902, 111.8329
587.0723, 111.6963
587.5544, 111.5668
588.0366, 111.2136
588.5187, 111.1502
589.0008, 111.7424
589.4829, 112.9376
589.9650, 113.7129
590.4471, 114.0266
590.9293, 113.9589
591.4114, 113.3870
591.8935, 112.1436
592.3756, 111.6314
592.8577, 112.0033
593.3398, 112.6924
593.8220, 113.1483
594.3041, 113.3974
594.7862, 113.6929
595.2683, 114.1624
595.7504, 114.4795
596.2325, 114.0476
596.7147, 113.1145
597.1968, 112.3313
597.6789, 112.0505
598.1610, 111.9635
598.6431, 111.8403
599.1252, 111.7139
599.6074, 111.7377
600.0895, 112.1644
600.5716, 112.5849
601.0537, 112.8253
601.5358, 112.8670
602.0179, 112.6906
602.5001, 111.9583
602.9822, 111.3444
603.4643, 111.4352
603.9464, 112.4960
604.4285, 113.2157
604.9106, 113.4844
605.3928, 113.4602
605.8749, 113.2734
606.3570, 112.9489
606.8391, 112.8522
607.3212, 113.2366
607.8033, 113.7228
608.2855, 113.6108
608.7676, 113.0640
609.2497, 112.6825
609.7318, 112.9770
610.2139, 113.4380
610.6960, 113.7354
611.1782, 113.8463
611.6603, 113.7312
612.1424, 112.9091
612.6245, 112.1956
613.1066, 112.1879
613.5887, 113.5343
614.0709, 114.1433
614.5530, 113.5479
615.0351, 112.6438
615.5172, 112.3810
615.9993, 112.8896
616.4814, 113.4745
616.9636, 114.0916
617.4457, 114.6548
617.9278, 114.9796
618.4099, 115.0804
618.8920, 115.1186
619.3741, 115.1334
619.8563, 115.1431
620.3384, 115.1838
620.8205, 115.2464
621.3026, 115.2917
621.7847, 115.1385
622.2668, 115.0723
622.7490, 115.4329
623.2311, 116.3105
623.7132, 116.8747
624.1953, 116.6519
624.6774, 116.2148
625.1595, 115.9717
625.6417, 116.1161
626.1238, 116.0756
626.6059, 115.7274
627.0880, 115.3340
627.5701, 115.2353
628.0522, 115.4446
628.5344, 115.8513
629.0165, 116.4906
629.4986, 117.2274
629.9807, 117.7505
630.4628, 118.1115
630.9449, 118.5729
631.4271, 119.3607
631.9092, 120.2556
632.3913, 121.2384
632.8734, 122.2132
633.3555, 122.5935
633.8376, 121.3011
634.3198, 119.9435
634.8019, 119.5518
635.2840, 120.4160
635.7661, 121.2459
636.2482, 121.7943
636.7303, 122.3628
637.2125, 123.2299
637.6946, 124.6988
638.1767, 125.5173
638.6588, 125.4274
639.1409, 125.0482
639.6230, 125.2452
640.1052, 125.9911
640.5873, 126.9259
641.0694, 128.0853
641.5515, 129.1584
642.0336, 129.5278
642.5157, 129.3876
642.9979, 129.3095
643.4800, 129.5336
643.9621, 129.9529
644.4442, 130.5679
644.9263, 131.3417
645.4084, 132.0696
645.8906, 132.8303
646.3727, 133.3979
646.8548, 133.5767
647.3369, 133.2913
647.8190, 133.2470
648.3011, 133.5388
648.7833, 133.9308
649.2654, 134.2371
649.7475, 134.4484
650.2296, 134.7344
650.7117, 135.1027
651.1938, 135.5542
651.6760, 136.2067
652.1581, 136.9530
652.6402, 137.3953
653.1223, 137.2827
653.6044, 137.1472
654.0865, 137.7268
654.5687, 138.5994
655.0508, 138.9588
655.5329, 137.8212
656.0150, 136.8231
656.4971, 136.7313
656.9792, 137.3579
657.4614, 137.6669
657.9435, 137.5314
658.4256, 137.1845
658.9077, 136.5840
659.3898, 135.7561
659.8719, 135.4236
660.3541, 135.6717
660.8362, 136.0135
661.3183, 136.0683
661.8004, 135.9278
662.2825, 136.0342
662.7646, 136.4318
663.2468, 136.7219
663.7289, 136.5078
664.2110, 135.9933
664.6931, 135.3759
665.1752, 134.5356
665.6573, 134.0357
666.1395, 134.3455
666.6216, 135.0435
667.1037, 135.6100
667.5858, 135.9589
668.0679, 136.1805
668.5500, 136.2401
669.0322, 136.1926
669.5143, 136.1284
669.9964, 136.0205
670.4785, 136.0327
670.9606, 136.2623
671.4427, 136.6119
671.9249, 136.8105
672.4070, 136.8703
672.8891, 136.8843
673.3712, 137.0065
673.8533, 137.0528
674.3354, 136.6782
674.8176, 135.9316
675.2997, 135.3785
675.7818, 135.3767
676.2639, 135.6075
676.7460, 135.9246
677.2281, 136.3625
677.7103, 136.6616
678.1924, 136.8005
678.6745, 136.8139
679.1566, 136.6626
679.6387, 136.2445
680.1208, 136.1782
680.6030, 136.5528
681.0851, 137.1284
681.5672, 137.7433
682.0493, 138.3324
682.5314, 138.5669
683.0135, 138.1883
683.4957, 137.8491
683.9778, 138.3814
684.4599, 139.4334
684.9420, 140.3221
685.4241, 140.7311
685.9063, 141.0122
686.3884, 141.0536
686.8705, 141.0413
687.3526, 141.6425
687.8347, 143.5378
688.3168, 145.0838
688.7990, 145.6190
689.2811, 145.3913
689.7632, 146.1335
690.2453, 147.9873
690.7274, 149.8155
691.2095, 150.6268
691.6917, 150.9101
692.1738, 152.3927
692.6559, 155.0180
693.1380, 157.5114
693.6201, 158.8087
694.1022, 159.5844
694.5844, 160.5073
695.0665, 161.6950
695.5486, 162.7634
696.0307, 163.1387
696.5128, 163.6258
696.9949, 164.9430
697.4771, 167.8898
697.9592, 169.9502
698.4413, 170.8296
698.9234, 171.1835
699.4055, 171.7629
699.8876, 172.5740
700.3698, 173.4154
700.8519, 174.2604
701.3340, 175.0909
701.8161, 176.0760
702.2982, 177.0271
702.7803, 177.4285
703.2625, 176.5166
703.7446, 175.6983
704.2267, 176.1856
704.7088, 177.4465
705.1909, 178.3121
705.6730, 178.2336
706.1552, 177.9746
706.6373, 177.7275
707.1194, 177.4528
707.6015, 176.9877
708.0836, 176.3553
708.5657, 175.4270
709.0479, 173.9000
709.5300, 172.0533
710.0121, 171.3054
710.4942, 171.6055
710.9763, 171.7993
711.4584, 171.0734
711.9406, 169.8090
712.4227, 168.5045
712.9048, 167.1777
713.3869, 165.5446
713.8690, 163.1860
714.3511, 160.6874
714.8333, 158.3336
715.3154, 156.0647
715.7975, 154.3799
716.2796, 153.4453
716.7617, 152.8805
717.2438, 152.5241
717.7260, 152.4494
718.2081, 151.7460
718.6902, 150.2556
719.1723, 148.5972
719.6544, 147.4852
720.1365, 146.7883
720.6187, 146.2137
721.1008, 145.7427
721.5829, 145.2146
722.0650, 144.4331
722.5471, 143.5390
723.0292, 142.7035
723.5114, 141.8339
723.9935, 141.2274
724.4756, 141.2650
724.9577, 141.4655
725.4398, 140.9019
725.9219, 139.1936
726.4041, 137.9108
726.8862, 137.4730
727.3683, 137.5718
727.8504, 137.6142
728.3325, 137.5810
728.8146, 137.3154
729.2968, 136.4915
729.7789, 135.6205
730.2610, 135.4435
730.7431, 135.7402
731.2252, 135.7797
731.7073, 134.6995
732.1895, 133.8257
732.6716, 133.9493
733.1537, 134.9941
733.6358, 135.4944
734.1179, 135.1678
734.6000, 134.7832
735.0822, 134.6406
735.5643, 134.7229
736.0464, 134.9074
736.5285, 135.2020
737.0106, 135.4568
737.4927, 135.5545
737.9749, 135.5464
738.4570, 135.5475
738.9391, 135.5590
739.4212, 135.4348
739.9033, 134.9574
740.3854, 134.4043
740.8676, 133.9060
741.3497, 133.3835
741.8318, 133.3477
742.3139, 134.2124
742.7960, 135.1159
743.2781, 135.4848
743.7603, 135.2647
744.2424, 134.8040
744.7245, 134.0238
745.2066, 133.3666
745.6887, 133.3650
746.1708, 133.8416
746.6530, 134.4375
747.1351, 135.1791
747.6172, 135.5708
748.0993, 134.9420
748.5814, 133.8962
749.0635, 133.1094
749.5457, 132.7740
750.0278, 132.6303
750.5099, 132.6503
750.9920, 132.8367
751.4741, 133.3013
751.9562, 134.2186
752.4384, 134.5951
752.9205, 134.1843
753.4026, 133.4108
753.8847, 132.8561
754.3668, 132.5068
754.8489, 132.3166
755.3311, 132.3291
755.8132, 132.3854
756.2953, 132.3781
756.7774, 132.3119
757.2595, 132.1954
757.7416, 132.0612
758.2238, 131.8432
758.7059, 131.4707
759.1880, 131.0194
759.6701, 130.6362
760.1522, 130.3254
760.6343, 130.0633
761.1165, 129.8269
761.5986, 129.6517
762.0807, 129.6628
762.5628, 129.8309
763.0449, 129.9806
763.5270, 130.0106
764.0092, 130.0031
764.4913, 130.0224
764.9734, 130.0660
765.4555, 130.1275
765.9376, 130.0046
766.4197, 130.1086
766.9019, 130.7754
767.3840, 131.8291
767.8661, 132.4691
768.3482, 132.6439
768.8303, 132.5222
769.3124, 131.9743
769.7946, 131.2455
770.2767, 131.3692
770.7588, 132.2469
771.2409, 132.9621
771.7230, 132.7606
772.2051, 132.2684
772.6873, 131.9740
773.1694, 131.9151
773.6515, 132.2063
774.1336, 133.7000
774.6157, 134.7555
775.0978, 134.3390
775.5800, 132.5378
776.0621, 131.8548
776.5442, 132.6693
777.0263, 133.5261
777.5084, 133.5176
777.9905, 132.8741
778.4727, 132.7104
778.9548, 133.0033
779.4369, 133.3495
779.9190, 133.5264
780.4011, 133.5716
780.8832, 133.4483
781.3654, 133.1623
781.8475, 133.0250
782.3296, 133.4919
782.8117, 133.7991
783.2938, 133.4710
783.7759, 132.4123
784.2581, 131.8648
784.7402, 131.9510
785.2223, 132.1839
785.7044, 132.3345
786.1865, 132.3647
786.6686, 132.0887
787.1508, 131.5031
787.6329, 130.7855
788.1150, 130.0910
788.5971, 129.3004
789.0792, 128.2059
789.5613, 126.7044
790.0435, 125.5571
790.5256, 125.2280
791.0077, 125.0447
791.4898, 124.6770
791.9719, 124.1178
792.4540, 123.3569
792.9362, 122.3285
793.4183, 121.4134
793.9004, 121.0914
794.3825, 121.1291
794.8646, 120.8442
795.3467, 120.1822
795.8289, 119.5080
796.3110, 119.0406
796.7931, 118.7147
797.2752, 118.5395
797.7573, 118.5912
798.2394, 118.4380
798.7216, 117.9908
799.2037, 117.3853
799.6858, 116.6692
800.1679, 115.8118
800.6500, 115.0249
801.1321, 114.2671
801.6143, 113.7704
802.0964, 113.9331
802.5785, 114.4497
803.0606, 114.7261
803.5427, 114.6825
804.0248, 114.5920
804.5070, 114.7289
804.9891, 114.8048
805.4712, 114.5552
805.9533, 113.7794
806.4354, 113.2164
806.9175, 112.8936
807.3997, 112.7480
807.8818, 112.7811
808.3639, 112.9873
808.8460, 113.1406
809.3281, 113.2317
809.8102, 113.2922
810.2924, 113.4834
810.7745, 113.6019
811.2566, 113.2788
811.7387, 112.4169
812.2208, 111.6628
812.7029, 111.2614
813.1851, 111.0842
813.6672, 111.1073
814.1493, 111.4493
814.6314, 111.4033
815.1135, 110.8386
815.5956, 110.2129
816.0778, 109.9789
816.5599, 110.0183
817.0420, 109.7577
817.5241, 109.1596
818.0062, 108.4965
818.4883, 107.8064
818.9705, 107.2547
819.4526, 107.1639
819.9347, 107.6927
820.4168, 107.7105
820.8989, 106.1094
821.3810, 104.7536
821.8632, 104.8053
822.3453, 106.5127
822.8274, 107.1117
823.3095, 106.4900
823.7916, 105.4067
824.2737, 104.2394
824.7559, 103.1142
825.2380, 102.3092
825.7201, 101.8442
826.2022, 101.5477
826.6843, 101.3913
827.1664, 101.3170
827.6486, 101.3046
828.1307, 101.3646
828.6128, 101.4203
829.0949, 101.6239
829.5770, 101.5493
830.0591, 100.7181
830.5413, 99.26477
831.0234, 98.86416
831.5055, 99.50113
831.9876, 100.0843
832.4697, 99.74235
832.9518, 98.99535
833.4340, 98.26019
833.9161, 97.59373
834.3982, 97.27892
834.8803, 97.69028
835.3624, 98.21719
835.8445, 98.66456
836.3267, 99.02270
836.8088, 99.02772
837.2909, 98.62360
837.7730, 98.11948
838.2551, 97.56575
838.7372, 97.07381
839.2194, 97.01344
839.7015, 97.31859
840.1836, 97.60513
840.6657, 97.90897
841.1478, 97.89513
841.6299, 96.99565
842.1121, 95.38562
842.5942, 94.70335
843.0763, 95.61054
843.5584, 96.40842
844.0405, 96.58515
844.5226, 96.24038
845.0048, 95.58118
845.4869, 94.64638
845.9690, 94.04875
846.4511, 94.50948
846.9332, 95.11913
847.4153, 94.61875
847.8975, 93.43797
848.3796, 92.79131
848.8617, 93.83131
849.3438, 94.61765
849.8259, 94.38271
850.3080, 93.57505
850.7902, 93.42559
851.2723, 94.07993
851.7544, 94.51061
852.2365, 94.37241
852.7186, 93.94267
853.2007, 93.61030
853.6829, 93.38869
854.1650, 93.31274
854.6471, 93.47655
855.1292, 93.68134
855.6113, 93.85857
856.0934, 94.00455
856.5756, 94.11993
857.0577, 94.23035
857.5398, 94.25535
858.0219, 94.17207
858.5040, 94.02168
858.9861, 93.83469
859.4683, 93.62888
859.9504, 93.51580
860.4325, 93.53969
860.9146, 93.60401
861.3967, 93.67416
861.8788, 93.71037
862.3610, 93.66988
862.8431, 93.60500
863.3252, 93.32693
863.8073, 92.62760
864.2894, 91.92332
864.7715, 91.63366
865.2537, 91.77390
865.7358, 92.10890
866.2179, 92.66853
866.7000, 93.13283
867.1821, 93.26892
867.6642, 93.07032
868.1464, 92.37720
868.6285, 91.04624
869.1106, 90.04797
869.5927, 90.01356
870.0748, 90.22212
870.5569, 90.17093
871.0391, 89.78474
871.5212, 89.65759
872.0033, 89.82835
872.4854, 90.09685
872.9675, 90.37633
873.4496, 90.62202
873.9318, 90.70395
874.4139, 90.62476
874.8960, 90.48342
875.3781, 90.00990
875.8602, 89.77579
876.3423, 90.50589
876.8245, 92.17083
877.3066, 92.50501
877.7887, 90.87088
878.2708, 89.36959
878.7529, 88.92366
879.2350, 89.22011
879.7172, 89.24772
880.1993, 89.03634
880.6814, 88.77208
881.1635, 88.40758
881.6456, 88.16188
882.1277, 88.32761
882.6099, 88.75156
883.0920, 88.97667
883.5741, 88.81796
884.0562, 88.54747
884.5383, 88.03559
885.0204, 87.57047
885.5026, 87.98569
885.9847, 89.20230
886.4668, 90.06220
886.9489, 90.19315
887.4310, 89.93128
887.9131, 89.32094
888.3953, 88.66730
888.8774, 88.45309
889.3595, 89.57188
889.8416, 89.94844
890.3237, 88.58897
890.8058, 86.98750
891.2880, 86.96211
891.7701, 88.71928
892.2522, 89.16383
892.7343, 87.84331
893.2164, 86.42594
893.6985, 86.96990
894.1807, 88.39500
894.6628, 89.12681
895.1449, 88.84727
895.6270, 88.39922
896.1091, 87.59103
896.5912, 87.15614
897.0734, 87.66782
897.5555, 89.25004
898.0376, 90.19334
898.5197, 90.45070
899.0018, 90.32209
899.4839, 89.84348
899.9661, 89.18986
900.4482, 88.62294
900.9303, 88.16167
901.4124, 87.90067
901.8945, 87.70942
902.3766, 87.89577
902.8588, 89.05959
903.3409, 90.81576
903.8230, 91.30332
904.3051, 90.12097
904.7872, 89.29635
905.2693, 89.68726
905.7515, 90.58519
906.2336, 90.41991
906.7157, 89.54007
907.1978, 88.96166
907.6799, 89.30901
908.1620, 89.78918
908.6442, 90.12809
909.1263, 90.34591
909.6084, 90.48099
910.0905, 90.50529
910.5726, 90.51865
911.0547, 90.50282
911.5369, 90.54838
912.0190, 90.88307
912.5011, 91.37177
912.9832, 91.62325
913.4653, 91.55689
913.9474, 91.34328
914.4296, 90.70300
914.9117, 90.22067
915.3938, 90.56885
915.8759, 92.15246
916.3580, 92.80832
916.8401, 92.20013
917.3223, 91.49178
917.8044, 91.47970
918.2865, 92.02304
918.7686, 92.82645
919.2507, 93.81026
919.7328, 94.31355
920.2150, 93.43327
920.6971, 92.38679
921.1792, 91.91293
921.6613, 91.99178
922.1434, 92.10972
922.6255, 92.14307
923.1077, 92.52453
923.5898, 93.61420
924.0719, 94.87510
924.5540, 94.83268
925.0361, 93.80500
925.5182, 93.11297
926.0004, 93.46617
926.4825, 93.91956
926.9646, 93.77077
927.4467, 93.38121
927.9288, 93.31867
928.4109, 93.86684
928.8931, 94.21461
929.3752, 94.28101
929.8573, 94.22497
930.3394, 94.23621
930.8215, 94.27879
931.3036, 94.14165
931.7858, 93.77746
932.2679, 93.62618
932.7500, 94.18526
933.2321, 94.93751
933.7142, 95.61362
934.1964, 96.23061
934.6785, 96.10837
935.1606, 94.83073
935.6427, 93.84827
936.1248, 94.06828
936.6069, 95.13009
937.0891, 95.91096
937.5712, 96.43074
938.0533, 96.73355
938.5354, 96.72053
939.0175, 96.62095
939.4996, 96.41424
939.9818, 96.22742
940.4639, 96.44479
940.9460, 97.30655
941.4281, 97.94622
941.9102, 98.21293
942.3923, 98.17945
942.8745, 97.78203
943.3566, 97.18221
943.8387, 96.86126
944.3208, 96.95954
944.8029, 97.26625
945.2850, 97.91360
945.7672, 98.55842
946.2493, 98.85046
946.7314, 98.68981
947.2135, 98.53835
947.6956, 98.32966
948.1777, 98.35947
948.6599, 99.03929
949.1420, 100.0823
949.6241, 100.8093
950.1062, 101.2223
950.5883, 101.5060
951.0704, 101.7217
951.5526, 101.8690
952.0347, 101.8858
952.5168, 101.8265
952.9989, 101.9080
953.4810, 102.1662
953.9631, 102.3756
954.4453, 102.4190
954.9274, 102.4771
955.4095, 103.0852
955.8916, 103.9035
956.3737, 104.1796
956.8558, 103.3743
957.3380, 102.5711
957.8201, 101.8010
958.3022, 101.4417
958.7843, 101.9742
959.2664, 103.6473
959.7485, 104.8241
960.2307, 105.4292
960.7128, 105.7263
961.1949, 105.6916
961.6770, 105.6233
962.1591, 106.1399
962.6412, 107.2218
963.1234, 107.8242
963.6055, 107.1976
964.0876, 106.4309
964.5697, 105.8017
965.0518, 105.3544
965.5339, 105.2137
966.0161, 105.3811
966.4982, 106.1468
966.9803, 108.0129
967.4624, 109.8792
967.9445, 110.3149
968.4266, 109.9272
968.9088, 109.7114
969.3909, 110.4087
969.8730, 110.5527
970.3551, 109.6494
970.8372, 108.6960
971.3193, 108.9432
971.8015, 110.2141
972.2836, 110.7187
972.7657, 110.2986
973.2478, 109.8472
973.7299, 110.4082
974.2120, 110.9736
974.6942, 110.3505
975.1763, 108.4668
975.6584, 107.9423
976.1405, 109.6792
976.6226, 110.9909
977.1047, 110.6586
977.5869, 109.4297
978.0690, 109.4404
978.5511, 110.3945
979.0332, 111.1948
979.5153, 111.5168
979.9974, 111.4129
980.4796, 110.5096
980.9617, 109.3730
981.4438, 108.8256
981.9259, 109.1156
982.4080, 109.2112
982.8901, 108.9906
983.3723, 108.8562
983.8544, 109.3751
984.3365, 110.2113
984.8186, 110.6803
985.3007, 110.7382
985.7828, 110.8789
986.2650, 111.9070
986.7471, 112.4021
987.2292, 111.3410
987.7113, 109.2210
988.1934, 108.8866
988.6755, 110.4167
989.1577, 111.8571
989.6398, 112.4499
990.1219, 112.6035
990.6040, 112.7390
991.0861, 112.7916
991.5682, 112.6473
992.0504, 111.9836
992.5325, 111.5907
993.0146, 111.7214
993.4967, 111.8750
993.9788, 111.3562
994.4609, 110.3192
994.9431, 110.2704
995.4252, 111.2856
995.9073, 112.3644
996.3894, 112.8931
996.8715, 113.1141
997.3536, 113.1621
997.8358, 113.0512
998.3179, 112.8497
998.8000, 112.4263
999.2821, 112.2621
999.7642, 112.5003
1000.246, 113.0726
1000.728, 114.0172
1001.211, 115.1665
1001.693, 116.0883
1002.175, 116.7727
1002.657, 116.9582
1003.139, 115.9893
1003.621, 114.8388
1004.103, 114.3593
1004.585, 114.6051
1005.068, 115.3960
1005.550, 116.8238
1006.032, 117.9500
1006.514, 117.7995
1006.996, 117.1174
1007.478, 116.7135
1007.960, 116.6133
1008.442, 116.7344
1008.924, 117.0798
1009.407, 117.6358
1009.889, 118.4772
1010.371, 119.4624
1010.853, 120.4590
1011.335, 121.4019
1011.817, 121.6910
1012.299, 121.0547
1012.781, 120.3648
1013.263, 120.1844
1013.746, 120.3276
1014.228, 120.7163
1014.710, 121.4618
1015.192, 121.7089
1015.674, 121.3353
1016.156, 120.8592
1016.638, 120.5535
1017.120, 120.3801
1017.603, 120.2120
1018.085, 120.0934
1018.567, 120.1910
1019.049, 120.9852
1019.531, 121.4928
1020.013, 121.1256
1020.495, 120.5078
1020.977, 120.6969
1021.459, 121.7222
1021.942, 122.1596
1022.424, 121.8040
1022.906, 121.0439
1023.388, 119.9144
1023.870, 118.7782
1024.352, 117.9905
1024.834, 117.6069
1025.316, 117.4708
1025.799, 117.6778
1026.281, 117.8856
1026.763, 117.9510
1027.245, 117.9368
1027.727, 118.1214
1028.209, 118.3838
1028.691, 118.2847
1029.173, 117.2845
1029.656, 116.4766
1030.138, 116.5218
1030.620, 116.9279
1031.102, 117.2014
1031.584, 117.3537
1032.066, 117.2492
1032.548, 116.8600
1033.030, 116.4382
1033.512, 116.1285
1033.995, 115.9475
1034.477, 116.0767
1034.959, 116.4222
1035.441, 116.3817
1035.923, 115.2751
1036.405, 114.6205
1036.887, 114.8680
1037.369, 115.5415
1037.851, 115.8264
1038.334, 115.7374
1038.816, 115.1998
1039.298, 114.0095
1039.780, 113.2448
1040.262, 114.1454
1040.744, 115.2921
1041.226, 115.4610
1041.708, 114.5700
1042.191, 114.0923
1042.673, 114.0590
1043.155, 114.1262
1043.637, 114.3087
1044.119, 114.3077
1044.601, 113.2191
1045.083, 111.6633
1045.565, 111.0980
1046.047, 113.0968
1046.530, 114.4398
1047.012, 114.6541
1047.494, 114.4281
1047.976, 114.4564
1048.458, 114.7088
1048.940, 115.0785
1049.422, 115.5527
1049.904, 115.9819
1050.386, 116.3182
1050.869, 116.5422
1051.351, 116.6040
1051.833, 116.5390
1052.315, 116.4643
1052.797, 116.3784
1053.279, 116.2741
1053.761, 116.1220
1054.243, 116.0189
1054.726, 116.0836
1055.208, 116.2767
1055.690, 116.5900
1056.172, 117.1556
1056.654, 117.3671
1057.136, 117.0230
1057.618, 116.6241
1058.100, 116.3931
1058.583, 116.3615
1059.065, 116.8093
1059.547, 117.6184
1060.029, 118.2458
1060.511, 118.3858
1060.993, 118.3016
1061.475, 117.7309
1061.957, 117.1924
1062.439, 117.5699
1062.922, 119.0530
1063.404, 119.6715
1063.886, 119.2093
1064.368, 118.4598
1064.850, 117.9000
1065.332, 117.5665
1065.814, 117.7013
1066.296, 118.2380
1066.778, 118.1709
1067.261, 117.0996
1067.743, 116.1774
1068.225, 115.7452
1068.707, 115.5334
1069.189, 114.9173
1069.671, 114.1554
1070.153, 114.0128
1070.635, 114.9869
1071.118, 115.3953
1071.600, 113.9901
1072.082, 112.3368
1072.564, 111.2380
1073.046, 110.6882
1073.528, 110.7052
1074.010, 111.2368
1074.492, 111.5088
1074.974, 110.8046
1075.457, 110.0373
1075.939, 110.1887
1076.421, 109.3036
1076.903, 110.1906
1077.385, 108.3136
1077.867, 107.1888
1078.349, 107.0163
1078.831, 107.1649
1079.313, 107.2371
1079.796, 107.1552
1080.278, 106.7854
1080.760, 106.1356
1081.242, 105.3319
1081.724, 103.9079
1082.206, 103.0689
1082.688, 103.3200
1083.170, 103.9718
1083.652, 103.7313
1084.135, 102.7901
1084.617, 101.7947
1085.099, 100.8214
1085.581, 100.1558
1086.063, 100.2666
1086.545, 100.4669
1087.027, 100.2709
1087.509, 99.73583
1087.992, 99.53126
1088.474, 99.66277
1088.956, 99.63409
1089.438, 99.09470
1089.920, 98.57372
1090.402, 98.91037
1090.884, 99.44624
1091.366, 99.17219
1091.849, 97.30163
1092.331, 96.51987
1092.813, 97.09122
1093.295, 97.85658
1093.777, 98.02384
1094.259, 97.77801
1094.741, 97.40085
1095.223, 96.91309
1095.705, 96.36935
1096.188, 95.41068
1096.670, 94.99458
1097.152, 95.58912
1097.634, 96.33919
1098.116, 95.90062
1098.598, 94.60473
1099.080, 94.10685
1099.562, 94.54604
1100.044, 95.04328
1100.527, 94.98113
1101.009, 94.91845
1101.491, 95.33900
1101.973, 95.97375
1102.455, 95.83821
1102.937, 94.92477
1103.419, 94.15047
1103.901, 93.71894
1104.384, 93.60085
1104.866, 94.07494
1105.348, 94.65553
1105.830, 94.86461
1106.312, 94.62491
1106.794, 94.10950
1107.276, 93.17646
1107.758, 92.54961
1108.240, 92.72829
1108.723, 93.18117
1109.205, 92.94443
1109.687, 92.37046
1110.169, 92.15652
1110.651, 92.88836
1111.133, 93.24796
1111.615, 93.06961
1112.097, 92.65679
1112.579, 92.04477
1113.062, 91.40668
1113.544, 91.56665
1114.026, 92.34135
1114.508, 92.81922
1114.990, 92.53206
1115.472, 91.87233
1115.954, 90.48726
1116.436, 89.21331
1116.919, 89.48039
1117.401, 91.12277
1117.883, 91.62123
1118.365, 90.75598
1118.847, 89.75204
1119.329, 89.40575
1119.811, 89.29122
1120.293, 89.18461
1120.776, 89.07561
1121.258, 88.99487
1121.740, 88.95813
1122.222, 88.76979
1122.704, 88.36443
1123.186, 87.89560
1123.668, 87.35697
1124.150, 86.93227
1124.632, 86.89761
1125.115, 87.33376
1125.597, 87.47892
1126.079, 87.23377
1126.561, 87.01402
1127.043, 87.02748
1127.525, 87.06981
1128.007, 86.65049
1128.489, 86.06923
1128.971, 85.87055
1129.454, 86.36352
1129.936, 86.78626
1130.418, 87.11987
1130.900, 87.28139
1131.382, 87.28593
1131.864, 87.05830
1132.346, 86.09431
1132.828, 84.66424
1133.311, 83.66071
1133.793, 83.80111
1134.275, 83.97507
1134.757, 83.85512
1135.239, 83.73493
1135.721, 84.02727
1136.203, 84.62826
1136.685, 84.48336
1137.167, 83.65271
1137.650, 83.10658
1138.132, 84.09280
1138.614, 84.77906
1139.096, 83.77871
1139.578, 82.12714
1140.060, 81.54325
1140.542, 82.05071
1141.024, 82.27120
1141.506, 82.04818
1141.989, 81.80730
1142.471, 82.00436
1142.953, 82.21358
1143.435, 81.92262
1143.917, 81.32618
1144.399, 81.52058
1144.881, 82.70728
1145.363, 83.23703
1145.846, 82.63564
1146.328, 81.74486
1146.810, 81.51245
1147.292, 81.46954
1147.774, 80.97688
1148.256, 79.91051
1148.738, 79.67132
1149.220, 80.62043
1149.703, 81.08393
1150.185, 80.23186
1150.667, 79.09770
1151.149, 79.29716
1151.631, 80.22957
1152.113, 80.97276
1152.595, 81.33492
1153.077, 81.46282
1153.559, 81.33947
1154.042, 81.07362
1154.524, 80.60101
1155.006, 80.12801
1155.488, 80.19514
1155.970, 80.62943
1156.452, 81.00195
1156.934, 81.03159
1157.416, 81.30788
1157.898, 82.22761
1158.381, 82.87214
1158.863, 82.28166
1159.345, 80.85159
1159.827, 80.18375
1160.309, 80.14196
1160.791, 80.18990
1161.273, 80.09641
1161.755, 80.04256
1162.238, 80.06257
1162.720, 80.14715
1163.202, 80.28688
1163.684, 80.48327
1164.166, 80.87362
1164.648, 81.41163
1165.130, 81.61160
1165.612, 80.81018
1166.094, 80.05554
1166.577, 79.87968
1167.059, 79.40782
1167.541, 79.73681
1168.023, 79.25562
1168.505, 79.22559
1168.987, 79.72182
1169.469, 80.22665
1169.951, 80.21917
1170.433, 80.27190
1170.916, 80.90516
1171.398, 81.82055
1171.880, 82.26138
1172.362, 82.23536
1172.844, 82.22837
1173.326, 82.38067
1173.808, 82.16652
1174.290, 80.29540
1174.773, 78.59672
1175.255, 78.94961
1175.737, 80.87415
1176.219, 81.84688
1176.701, 81.83841
1177.183, 81.59991
1177.665, 81.27324
1178.147, 81.00389
1178.630, 81.06084
1179.112, 81.15282
1179.594, 80.86876
1180.076, 80.19905
1180.558, 80.16644
1181.040, 80.84526
1181.522, 81.47514
1182.004, 81.86247
1182.486, 81.87280
1182.969, 80.96696
1183.451, 79.81873
1183.933, 79.24649
1184.415, 79.37451
1184.897, 79.83190
1185.379, 80.68279
1185.861, 81.49440
1186.343, 82.18192
1186.825, 82.52622
1187.308, 81.88866
1187.790, 80.86971
1188.272, 80.44881
1188.754, 80.94948
1189.236, 81.51968
1189.718, 82.20714
1190.200, 82.69852
1190.682, 82.78446
1191.165, 82.56586
1191.647, 81.94544
1192.129, 81.17223
1192.611, 80.74634
1193.093, 80.75742
1193.575, 81.24651
1194.057, 82.40546
1194.539, 83.26424
1195.021, 82.69451
1195.504, 81.63547
1195.986, 81.37302
1196.468, 81.70496
1196.950, 81.99358
1197.432, 82.13535
1197.914, 82.20744
1198.396, 82.20605
1198.878, 82.16204
1199.360, 82.04536
1199.843, 81.94217
1200.325, 82.08023
1200.807, 82.36481
1201.289, 82.35354
1201.771, 81.65722
1202.253, 81.42513
1202.735, 81.87957
1203.217, 82.51811
1203.700, 82.80273
1204.182, 82.90510
1204.664, 83.06853
1205.146, 83.29325
1205.628, 83.47131
1206.110, 83.56926
1206.592, 83.66081
1207.074, 83.76597
1207.557, 83.83786
1208.039, 83.82846
1208.521, 83.74184
1209.003, 83.55543
1209.485, 83.27498
1209.967, 83.02155
1210.449, 82.71733
1210.931, 82.68663
1211.413, 83.08663
1211.896, 83.54464
1212.378, 83.47968
1212.860, 83.19734
1213.342, 83.13384
1213.824, 83.34055
1214.306, 83.63895
1214.788, 84.10290
1215.270, 84.37808
1215.752, 84.32437
1216.235, 84.16553
1216.717, 84.25903
1217.199, 84.43771
1217.681, 84.45988
1218.163, 84.28352
1218.645, 83.99787
1219.127, 83.44840
1219.609, 83.31268
1220.092, 83.91366
1220.574, 84.78082
1221.056, 85.32161
1221.538, 85.62227
1222.020, 85.76283
1222.502, 85.72263
1222.984, 85.78138
1223.466, 85.96080
1223.948, 86.21877
1224.431, 86.62064
1224.913, 86.92521
1225.395, 86.62910
1225.877, 86.08510
1226.359, 85.75832
1226.841, 85.74841
1227.323, 85.98806
1227.805, 86.58924
1228.287, 86.94537
1228.770, 86.68517
1229.252, 86.27437
1229.734, 86.45969
1230.216, 86.84337
1230.698, 86.78393
1231.180, 86.96302
1231.662, 87.32948
1232.144, 87.00697
1232.627, 87.80758
1233.109, 87.74928
1233.591, 87.43081
1234.073, 87.55217
1234.555, 87.87109
1235.037, 88.04739
1235.519, 88.01297
1236.001, 88.09357
1236.484, 88.30604
1236.966, 88.49253
1237.448, 88.59109
1237.930, 88.60062
1238.412, 88.37579
1238.894, 88.13454
1239.376, 88.21898
1239.858, 88.69089
1240.340, 89.10987
1240.823, 89.48402
1241.305, 89.40202
1241.787, 88.14631
1242.269, 87.05169
1242.751, 87.53882
1243.233, 88.70058
1243.715, 89.39021
1244.197, 89.53190
1244.679, 89.76655
1245.162, 90.08845
1245.644, 90.11375
1246.126, 89.24897
1246.608, 88.53751
1247.090, 88.71570
1247.572, 89.43639
1248.054, 90.36912
1248.536, 91.55821
1249.019, 91.96146
1249.501, 91.64030
1249.983, 91.24726
1250.465, 91.28738
1250.947, 91.16497
1251.429, 90.17393
1251.911, 89.19594
1252.393, 89.19112
1252.875, 90.08098
1253.358, 90.29604
1253.840, 89.93192
1254.322, 89.64916
1254.804, 89.98159
1255.286, 90.19765
1255.768, 89.84325
1256.250, 89.48292
1256.732, 89.63703
1257.214, 90.21745
1257.697, 90.76006
1258.179, 91.24300
1258.661, 91.56606
1259.143, 91.75060
1259.625, 91.65639
1260.107, 91.16410
1260.589, 90.58134
1261.071, 90.06867
1261.554, 89.69337
1262.036, 89.74557
1262.518, 90.13313
1263.000, 90.54082
1263.482, 90.95763
1263.964, 91.20540
1264.446, 91.24222
1264.928, 91.18267
1265.411, 91.08898
1265.893, 90.98228
1266.375, 90.89510
1266.857, 90.82983
1267.339, 90.78970
1267.821, 90.68460
1268.303, 90.81163
1268.785, 91.22855
1269.267, 91.69270
1269.750, 92.04024
1270.232, 92.29900
1270.714, 92.68120
1271.196, 92.97456
1271.678, 92.58847
1272.160, 91.12452
1272.642, 90.20987
1273.124, 89.91792
1273.606, 89.89663
1274.089, 90.05689
1274.571, 90.21301
1275.053, 90.11852
1275.535, 89.93541
1276.017, 89.94619
1276.499, 90.17348
1276.981, 90.57556
1277.463, 91.14409
1277.946, 91.39909
1278.428, 90.66338
1278.910, 89.92050
1279.392, 89.76675
1279.874, 89.97087
1280.356, 90.31665
1280.838, 90.79366
1281.320, 91.13060
1281.802, 91.32394
1282.285, 91.39666
1282.767, 91.11525
1283.249, 91.04871
1283.731, 91.72532
1284.213, 92.34322
1284.695, 91.95357
1285.177, 90.88004
1285.659, 90.81381
1286.141, 91.53349
1286.624, 92.08424
1287.106, 91.96936
1287.588, 91.75423
1288.070, 91.47346
1288.552, 91.22514
1289.034, 91.06129
1289.516, 91.00632
1289.998, 91.05397
1290.481, 91.26223
1290.963, 91.79440
1291.445, 93.65739
1291.927, 93.84022
1292.409, 91.87862
1292.891, 90.02485
1293.373, 90.13580
1293.855, 91.07553
1294.338, 91.51728
1294.820, 91.69277
1295.302, 92.07690
1295.784, 92.86663
1296.266, 93.18165
1296.748, 93.00369
1297.230, 92.67282
1297.712, 92.32555
1298.194, 91.98592
1298.677, 91.72385
1299.159, 91.44101
1299.641, 90.89411
1300.123, 90.05173
1300.605, 90.38708
1301.087, 91.73118
1301.569, 92.55781
1302.051, 91.76082
1302.533, 90.79514
1303.016, 90.10578
##END=



