##NAMES=Tourmaline
##RRUFFID=R080010
##LOCALITY=east Africa
##OWNER=RRUFF
##SOURCE=www.multicolour.com
##DESCRIPTION=Green gemmy fragments, consistent with dravite
##STATUS=The identification of this mineral has been confirmed only by X-ray diffraction
##URL=rruff.info/R080010
118.2987, 9945.027
118.7808, 10014.54
119.2629, 10054.47
119.7450, 10062.03
120.2271, 10071.15
120.7092, 10115.66
121.1914, 10186.11
121.6735, 10256.75
122.1556, 10342.95
122.6377, 10416.22
123.1198, 10409.46
123.6019, 10284.71
124.0841, 10131.89
124.5662, 10080.08
125.0483, 10125.87
125.5304, 10210.49
126.0125, 10302.94
126.4946, 10399.50
126.9768, 10485.92
127.4589, 10556.07
127.9410, 10613.23
128.4231, 10663.71
128.9052, 10702.54
129.3873, 10753.68
129.8695, 10854.66
130.3516, 11007.74
130.8337, 11164.45
131.3158, 11310.77
131.7979, 11446.52
132.2800, 11549.62
132.7622, 11608.90
133.2443, 11644.06
133.7264, 11705.31
134.2085, 11800.77
134.6906, 11895.88
135.1727, 11955.22
135.6549, 11955.41
136.1370, 12012.87
136.6191, 12158.57
137.1012, 12384.88
137.5833, 12583.22
138.0654, 12742.05
138.5476, 12884.25
139.0297, 13032.19
139.5118, 13196.93
139.9939, 13351.08
140.4760, 13499.09
140.9581, 13656.07
141.4403, 13740.20
141.9224, 13687.12
142.4045, 13575.77
142.8866, 13577.16
143.3687, 13771.70
143.8508, 13999.10
144.3330, 14193.00
144.8151, 14366.51
145.2972, 14493.90
145.7793, 14533.78
146.2614, 14502.98
146.7435, 14545.61
147.2257, 14744.38
147.7078, 14970.62
148.1899, 15136.49
148.6720, 15222.07
149.1541, 15264.80
149.6362, 15244.34
150.1184, 15145.13
150.6005, 15100.90
151.0826, 15118.96
151.5647, 15080.93
152.0468, 14978.62
152.5289, 14765.75
153.0111, 14530.78
153.4932, 14296.22
153.9753, 14052.64
154.4574, 13835.72
154.9395, 13661.25
155.4216, 13518.14
155.9038, 13381.71
156.3859, 13248.97
156.8680, 13118.84
157.3501, 12992.50
157.8322, 12868.49
158.3143, 12751.43
158.7965, 12632.49
159.2786, 12516.03
159.7607, 12433.70
160.2428, 12435.81
160.7249, 12466.76
161.2070, 12469.66
161.6892, 12428.08
162.1713, 12351.51
162.6534, 12220.97
163.1355, 12027.37
163.6176, 11871.63
164.0997, 11848.42
164.5819, 11904.44
165.0640, 11945.77
165.5461, 11925.13
166.0282, 11871.77
166.5103, 11804.81
166.9924, 11714.80
167.4746, 11641.73
167.9567, 11635.04
168.4388, 11677.83
168.9209, 11710.17
169.4030, 11684.91
169.8851, 11629.69
170.3673, 11583.35
170.8494, 11563.54
171.3315, 11547.40
171.8136, 11500.67
172.2957, 11425.40
172.7778, 11358.62
173.2600, 11343.54
173.7421, 11358.97
174.2242, 11359.22
174.7063, 11305.76
175.1884, 11232.50
175.6706, 11202.19
176.1527, 11219.62
176.6348, 11244.65
177.1169, 11216.74
177.5990, 11152.96
178.0811, 11123.73
178.5633, 11211.66
179.0454, 11361.21
179.5275, 11409.69
180.0096, 11319.85
180.4917, 11190.43
180.9738, 11176.31
181.4560, 11269.93
181.9381, 11372.89
182.4202, 11413.63
182.9023, 11405.58
183.3844, 11405.77
183.8665, 11420.49
184.3487, 11451.24
184.8308, 11511.32
185.3129, 11601.81
185.7950, 11688.62
186.2771, 11719.50
186.7592, 11703.02
187.2414, 11735.86
187.7235, 11875.16
188.2056, 12083.17
188.6877, 12191.08
189.1698, 12177.91
189.6519, 12142.17
190.1341, 12214.02
190.6162, 12396.81
191.0983, 12567.47
191.5804, 12657.43
192.0625, 12672.91
192.5446, 12758.91
193.0268, 12932.23
193.5089, 13145.20
193.9910, 13323.52
194.4731, 13464.36
194.9552, 13591.17
195.4373, 13706.51
195.9195, 13807.21
196.4016, 13942.00
196.8837, 14119.76
197.3658, 14329.04
197.8479, 14551.37
198.3300, 14792.99
198.8122, 15026.19
199.2943, 15222.49
199.7764, 15373.10
200.2585, 15549.32
200.7406, 15762.20
201.2227, 16010.04
201.7049, 16279.84
202.1870, 16579.29
202.6691, 16886.15
203.1512, 17179.43
203.6333, 17455.61
204.1154, 17729.43
204.5976, 17994.47
205.0797, 18249.91
205.5618, 18560.19
206.0439, 18939.15
206.5260, 19354.33
207.0081, 19763.26
207.4903, 20158.89
207.9724, 20571.52
208.4545, 21019.01
208.9366, 21508.52
209.4187, 21984.86
209.9008, 22436.29
210.3830, 22878.68
210.8651, 23355.20
211.3472, 23895.65
211.8293, 24407.32
212.3114, 24856.84
212.7935, 25239.38
213.2757, 25581.56
213.7578, 25887.69
214.2399, 26154.30
214.7220, 26362.19
215.2041, 26513.74
215.6862, 26608.02
216.1684, 26649.92
216.6505, 26658.09
217.1326, 26567.16
217.6147, 26363.97
218.0968, 26055.36
218.5789, 25686.51
219.0611, 25224.83
219.5432, 24742.81
220.0253, 24281.54
220.5074, 23836.20
220.9895, 23429.60
221.4716, 23073.25
221.9538, 22765.47
222.4359, 22465.73
222.9180, 22172.53
223.4001, 21887.21
223.8822, 21608.98
224.3643, 21305.48
224.8465, 21066.11
225.3286, 20920.28
225.8107, 20877.63
226.2928, 20840.25
226.7749, 20810.03
227.2570, 20784.71
227.7392, 20759.38
228.2213, 20723.14
228.7034, 20708.37
229.1855, 20726.78
229.6676, 20784.65
230.1497, 20854.22
230.6319, 20937.46
231.1140, 21033.16
231.5961, 21140.94
232.0782, 21268.66
232.5603, 21395.16
233.0424, 21512.67
233.5246, 21614.23
234.0067, 21718.22
234.4888, 21811.88
234.9709, 21910.43
235.4530, 22060.29
235.9352, 22297.87
236.4173, 22532.02
236.8994, 22721.17
237.3815, 22846.71
237.8636, 22962.68
238.3457, 23071.68
238.8279, 23172.19
239.3100, 23253.42
239.7921, 23303.26
240.2742, 23350.80
240.7563, 23419.69
241.2384, 23545.05
241.7206, 23621.09
242.2027, 23636.09
242.6848, 23593.46
243.1669, 23511.60
243.6490, 23382.56
244.1311, 23224.79
244.6133, 23050.00
245.0954, 22853.41
245.5775, 22650.73
246.0596, 22456.99
246.5417, 22270.37
247.0238, 22016.10
247.5060, 21661.38
247.9881, 21275.61
248.4702, 20923.26
248.9523, 20627.17
249.4344, 20322.69
249.9165, 19995.48
250.3987, 19646.01
250.8808, 19287.18
251.3629, 18897.01
251.8450, 18515.88
252.3271, 18200.06
252.8092, 17975.44
253.2914, 17752.64
253.7735, 17508.81
254.2556, 17241.86
254.7377, 16982.69
255.2198, 16725.63
255.7020, 16485.78
256.1841, 16286.45
256.6662, 16137.53
257.1483, 16011.36
257.6304, 15908.45
258.1125, 15834.85
258.5946, 15737.23
259.0768, 15601.22
259.5589, 15453.96
260.0410, 15340.55
260.5231, 15275.52
261.0052, 15209.25
261.4873, 15117.56
261.9695, 14987.46
262.4516, 14892.54
262.9337, 14839.08
263.4158, 14813.57
263.8979, 14791.05
264.3800, 14768.66
264.8622, 14756.66
265.3443, 14765.29
265.8264, 14802.18
266.3085, 14818.69
266.7906, 14811.79
267.2727, 14786.05
267.7549, 14746.42
268.2370, 14686.32
268.7191, 14634.60
269.2012, 14614.37
269.6833, 14633.48
270.1655, 14622.78
270.6476, 14573.29
271.1297, 14497.24
271.6118, 14423.08
272.0939, 14350.64
272.5760, 14281.88
273.0582, 14213.12
273.5403, 14143.35
274.0224, 14105.71
274.5045, 14123.19
274.9866, 14158.48
275.4688, 14103.98
275.9509, 13946.85
276.4330, 13776.94
276.9151, 13648.24
277.3972, 13560.60
277.8793, 13501.35
278.3615, 13483.09
278.8436, 13478.56
279.3257, 13403.39
279.8078, 13248.69
280.2899, 13101.97
280.7720, 13037.48
281.2542, 13048.76
281.7363, 13051.95
282.2184, 13037.78
282.7005, 13003.80
283.1826, 12930.37
283.6647, 12814.91
284.1469, 12709.41
284.6290, 12672.15
285.1111, 12689.85
285.5932, 12680.05
286.0753, 12620.74
286.5574, 12531.00
287.0396, 12450.14
287.5217, 12378.64
288.0038, 12312.03
288.4859, 12247.93
288.9680, 12186.02
289.4501, 12123.08
289.9323, 12045.79
290.4144, 11977.93
290.8965, 11980.39
291.3786, 12049.77
291.8607, 12119.31
292.3428, 12126.07
292.8250, 12089.88
293.3071, 12063.67
293.7892, 12059.26
294.2713, 12073.26
294.7534, 12106.85
295.2355, 12158.48
295.7177, 12212.69
296.1998, 12263.95
296.6819, 12308.35
297.1640, 12335.43
297.6461, 12326.42
298.1282, 12314.34
298.6104, 12348.27
299.0925, 12423.57
299.5746, 12494.65
300.0567, 12517.16
300.5388, 12517.05
301.0209, 12536.35
301.5031, 12610.74
301.9852, 12686.91
302.4673, 12701.62
302.9494, 12663.58
303.4315, 12637.97
303.9136, 12683.72
304.3958, 12760.21
304.8779, 12818.81
305.3600, 12836.10
305.8421, 12837.20
306.3242, 12819.52
306.8063, 12789.86
307.2885, 12797.82
307.7706, 12902.19
308.2527, 13044.93
308.7348, 13167.28
309.2169, 13228.74
309.6990, 13287.13
310.1812, 13376.53
310.6633, 13491.62
311.1454, 13598.59
311.6275, 13691.85
312.1096, 13766.55
312.5917, 13818.87
313.0739, 13834.09
313.5560, 13841.21
314.0381, 13869.18
314.5202, 13908.43
315.0023, 13891.75
315.4844, 13726.80
315.9666, 13540.66
316.4487, 13421.46
316.9308, 13469.58
317.4129, 13498.82
317.8950, 13455.36
318.3771, 13350.84
318.8593, 13268.47
319.3414, 13244.25
319.8235, 13231.02
320.3056, 13201.03
320.7877, 13113.65
321.2698, 13051.30
321.7520, 13020.13
322.2341, 13019.71
322.7162, 13048.32
323.1983, 13132.60
323.6804, 13225.61
324.1625, 13303.35
324.6447, 13349.37
325.1268, 13401.89
325.6089, 13464.80
326.0910, 13535.55
326.5731, 13606.05
327.0552, 13680.25
327.5374, 13749.06
328.0195, 13806.78
328.5016, 13845.47
328.9837, 13886.62
329.4658, 13920.99
329.9479, 13959.48
330.4301, 14047.74
330.9122, 14211.97
331.3943, 14379.49
331.8764, 14509.16
332.3585, 14585.76
332.8406, 14684.08
333.3228, 14821.75
333.8049, 14977.17
334.2870, 15075.31
334.7691, 15092.47
335.2512, 15131.32
335.7333, 15261.25
336.2155, 15489.81
336.6976, 15703.51
337.1797, 15901.79
337.6618, 16070.48
338.1439, 16163.85
338.6260, 16175.91
339.1082, 16178.08
339.5903, 16199.32
340.0724, 16239.97
340.5545, 16309.55
341.0366, 16410.65
341.5187, 16533.89
342.0009, 16679.08
342.4830, 16841.88
342.9651, 16979.58
343.4472, 17060.95
343.9293, 17098.74
344.4114, 17114.09
344.8936, 17099.82
345.3757, 17103.21
345.8578, 17198.75
346.3399, 17365.89
346.8220, 17524.71
347.3041, 17621.99
347.7863, 17694.87
348.2684, 17791.63
348.7505, 17913.97
349.2326, 18063.60
349.7147, 18247.08
350.1968, 18460.15
350.6790, 18687.27
351.1611, 18938.25
351.6432, 19191.99
352.1253, 19412.02
352.6074, 19594.59
353.0895, 19817.95
353.5717, 20145.95
354.0538, 20541.56
354.5359, 20959.58
355.0180, 21394.87
355.5001, 21832.97
355.9822, 22261.16
356.4644, 22679.88
356.9465, 23111.08
357.4286, 23555.47
357.9107, 24020.60
358.3928, 24515.36
358.8749, 25067.42
359.3571, 25617.89
359.8392, 26133.36
360.3213, 26622.34
360.8034, 27155.03
361.2855, 27778.61
361.7676, 28433.92
362.2498, 29082.85
362.7319, 29683.61
363.2140, 30320.80
363.6961, 31030.20
364.1782, 31791.84
364.6603, 32526.08
365.1425, 33249.47
365.6246, 33929.86
366.1067, 34549.82
366.5888, 35061.50
367.0709, 35590.25
367.5530, 36183.34
368.0352, 36795.98
368.5173, 37286.14
368.9994, 37672.25
369.4815, 37913.34
369.9636, 37982.21
370.4457, 37863.72
370.9279, 37630.47
371.4100, 37278.21
371.8921, 36822.40
372.3742, 36306.98
372.8563, 35735.31
373.3384, 35073.49
373.8206, 34283.99
374.3027, 33359.74
374.7848, 32468.91
375.2669, 31621.01
375.7490, 30784.04
376.2311, 29879.79
376.7133, 28921.82
377.1954, 28008.43
377.6775, 27212.45
378.1596, 26494.92
378.6417, 25744.38
379.1238, 24954.65
379.6060, 24192.51
380.0881, 23514.78
380.5702, 22913.09
381.0523, 22356.54
381.5344, 21699.06
382.0165, 21480.59
382.4987, 21203.77
382.9808, 20871.82
383.4629, 20319.46
383.9450, 20051.72
384.4271, 19669.93
384.9092, 19283.44
385.3914, 19055.71
385.8735, 18535.39
386.3556, 18305.22
386.8377, 17959.21
387.3198, 17666.22
387.8019, 17258.44
388.2841, 17071.02
388.7662, 16904.14
389.2483, 16772.69
389.7304, 16644.46
390.2125, 16509.15
390.6946, 16368.87
391.1768, 16231.72
391.6589, 16088.50
392.1410, 15954.20
392.6231, 15830.13
393.1053, 15698.83
393.5874, 15615.49
394.0695, 15637.51
394.5516, 15698.88
395.0337, 15688.44
395.5158, 15500.86
395.9980, 15360.96
396.4801, 15349.23
396.9622, 15505.85
397.4443, 15567.03
397.9264, 15484.29
398.4085, 15349.31
398.8907, 15270.75
399.3728, 15278.27
399.8549, 15264.35
400.3370, 15191.32
400.8191, 15069.49
401.3012, 15015.53
401.7834, 15048.13
402.2655, 15096.34
402.7476, 15104.98
403.2297, 15074.00
403.7118, 15003.03
404.1939, 14871.72
404.6761, 14718.81
405.1582, 14654.50
405.6403, 14678.23
406.1224, 14708.15
406.6045, 14687.17
407.0866, 14627.22
407.5688, 14563.38
408.0509, 14502.35
408.5330, 14433.24
409.0151, 14335.50
409.4972, 14215.14
409.9793, 14095.88
410.4615, 13991.63
410.9436, 13893.57
411.4257, 13789.83
411.9078, 13677.21
412.3899, 13568.22
412.8720, 13462.95
413.3542, 13367.56
413.8363, 13289.44
414.3184, 13265.05
414.8005, 13231.41
415.2826, 13136.54
415.7647, 12977.94
416.2469, 12859.04
416.7290, 12843.96
417.2111, 12867.35
417.6932, 12874.29
418.1753, 12864.47
418.6574, 12825.43
419.1396, 12728.80
419.6217, 12587.63
420.1038, 12494.58
420.5859, 12495.73
421.0680, 12509.21
421.5501, 12496.46
422.0323, 12439.97
422.5144, 12388.01
422.9965, 12337.52
423.4786, 12293.09
423.9607, 12266.48
424.4428, 12263.22
424.9250, 12265.27
425.4071, 12272.20
425.8892, 12287.13
426.3713, 12264.48
426.8534, 12191.18
427.3355, 12110.32
427.8177, 12092.76
428.2998, 12138.96
428.7819, 12150.44
429.2640, 12072.70
429.7461, 11944.01
430.2282, 11878.88
430.7104, 11877.80
431.1925, 11907.61
431.6746, 11959.80
432.1567, 12020.49
432.6388, 12051.28
433.1209, 12024.83
433.6031, 11991.95
434.0852, 12029.29
434.5673, 12116.36
435.0494, 12174.49
435.5315, 12124.22
436.0136, 12041.59
436.4958, 12002.00
436.9779, 12031.94
437.4600, 12058.28
437.9421, 12034.70
438.4242, 11984.70
438.9063, 11947.22
439.3885, 11942.50
439.8706, 11945.20
440.3527, 11950.84
440.8348, 11961.24
441.3169, 11954.84
441.7990, 11902.33
442.2812, 11844.83
442.7633, 11818.55
443.2454, 11830.67
443.7275, 11865.68
444.2096, 11947.52
444.6917, 12060.58
445.1739, 12087.04
445.6560, 11974.17
446.1381, 11858.93
446.6202, 11832.07
447.1023, 11920.92
447.5844, 11965.76
448.0666, 11951.08
448.5487, 11899.62
449.0308, 11848.44
449.5129, 11797.76
449.9950, 11753.49
450.4771, 11722.01
450.9593, 11700.64
451.4414, 11671.69
451.9235, 11632.91
452.4056, 11604.20
452.8877, 11640.08
453.3698, 11661.69
453.8520, 11670.57
454.3341, 11667.62
454.8162, 11604.90
455.2983, 11628.95
455.7804, 11624.09
456.2625, 11622.06
456.7447, 11670.29
457.2268, 11637.80
457.7089, 11628.47
458.1910, 11652.56
458.6731, 11670.71
459.1552, 11658.05
459.6374, 11631.51
460.1195, 11624.62
460.6016, 11686.36
461.0837, 11734.75
461.5658, 11730.17
462.0479, 11653.60
462.5301, 11600.55
463.0122, 11582.59
463.4943, 11586.83
463.9764, 11603.13
464.4585, 11639.37
464.9406, 11674.45
465.4228, 11711.34
465.9049, 11745.56
466.3870, 11738.95
466.8691, 11667.24
467.3512, 11613.75
467.8333, 11648.62
468.3155, 11779.87
468.7976, 11863.13
469.2797, 11879.45
469.7618, 11862.08
470.2439, 11863.61
470.7260, 11882.76
471.2082, 11903.14
471.6903, 11913.84
472.1724, 11921.68
472.6545, 11942.82
473.1366, 11977.95
473.6187, 12015.87
474.1009, 12043.65
474.5830, 12068.73
475.0651, 12104.88
475.5472, 12176.56
476.0293, 12236.54
476.5114, 12231.64
476.9936, 12181.68
477.4757, 12161.15
477.9578, 12231.87
478.4399, 12319.35
478.9220, 12378.25
479.4041, 12388.12
479.8863, 12405.37
480.3684, 12447.89
480.8505, 12501.08
481.3326, 12543.56
481.8147, 12564.90
482.2968, 12586.90
482.7790, 12611.12
483.2611, 12637.88
483.7432, 12677.39
484.2253, 12734.50
484.7074, 12797.63
485.1895, 12862.29
485.6717, 12932.77
486.1538, 12976.84
486.6359, 12979.37
487.1180, 12967.95
487.6001, 13011.58
488.0822, 13109.51
488.5644, 13191.69
489.0465, 13199.29
489.5286, 13163.81
490.0107, 13171.34
490.4928, 13226.21
490.9749, 13301.76
491.4571, 13398.52
491.9392, 13495.46
492.4213, 13555.05
492.9034, 13524.62
493.3855, 13490.82
493.8676, 13524.52
494.3498, 13611.89
494.8319, 13696.49
495.3140, 13759.32
495.7961, 13806.85
496.2782, 13837.26
496.7603, 13789.71
497.2425, 13840.02
497.7246, 13873.40
498.2067, 13890.77
498.6888, 13844.19
499.1709, 13880.19
499.6530, 13883.10
500.1352, 13884.65
500.6173, 13932.27
501.0994, 13894.99
501.5815, 13941.89
502.0636, 13955.18
502.5457, 13983.85
503.0279, 13979.23
503.5100, 13984.88
503.9921, 14023.85
504.4742, 13921.64
504.9563, 13914.21
505.4384, 13978.73
505.9206, 14022.50
506.4027, 13988.42
506.8848, 13904.21
507.3669, 13811.82
507.8490, 13711.54
508.3311, 13629.92
508.8133, 13609.02
509.2954, 13614.10
509.7775, 13596.61
510.2596, 13528.84
510.7417, 13453.92
511.2238, 13410.63
511.7060, 13381.14
512.1881, 13312.14
512.6702, 13146.02
513.1523, 12971.07
513.6345, 12823.63
514.1166, 12709.48
514.5987, 12620.25
515.0808, 12583.11
515.5629, 12553.15
516.0450, 12479.02
516.5272, 12316.92
517.0093, 12204.07
517.4914, 12179.55
517.9735, 12218.85
518.4556, 12212.38
518.9377, 12151.37
519.4199, 12081.54
519.9020, 12032.51
520.3841, 12000.83
520.8662, 11965.07
521.3483, 11925.67
521.8304, 11873.23
522.3126, 11766.81
522.7947, 11633.76
523.2768, 11558.70
523.7589, 11622.65
524.2410, 11718.35
524.7231, 11724.44
525.2053, 11657.00
525.6874, 11613.45
526.1695, 11668.35
526.6516, 11751.94
527.1337, 11815.01
527.6158, 11847.49
528.0980, 11864.16
528.5801, 11839.79
529.0622, 11809.49
529.5443, 11826.92
530.0264, 11983.45
530.5085, 12080.49
530.9907, 12055.43
531.4728, 11919.75
531.9549, 11856.54
532.4370, 11888.66
532.9191, 11951.12
533.4012, 12013.82
533.8834, 12079.50
534.3655, 12100.30
534.8476, 12065.04
535.3297, 12002.72
535.8118, 11941.72
536.2939, 11886.31
536.7761, 11864.54
537.2582, 11915.45
537.7403, 11992.03
538.2224, 12022.80
538.7045, 12009.84
539.1866, 11976.07
539.6688, 11920.09
540.1509, 11858.65
540.6330, 11810.37
541.1151, 11785.59
541.5972, 11756.99
542.0793, 11709.80
542.5615, 11651.95
543.0436, 11596.73
543.5257, 11545.61
544.0078, 11499.14
544.4899, 11460.58
544.9720, 11429.83
545.4542, 11394.12
545.9363, 11358.00
546.4184, 11312.13
546.9005, 11240.38
547.3826, 11129.37
547.8647, 11073.91
548.3469, 11100.49
548.8290, 11148.08
549.3111, 11103.82
549.7932, 10974.83
550.2753, 10859.57
550.7574, 10809.23
551.2396, 10789.82
551.7217, 10721.58
552.2038, 10610.86
552.6859, 10531.02
553.1680, 10563.58
553.6501, 10642.38
554.1323, 10696.59
554.6144, 10713.38
555.0965, 10705.49
555.5786, 10667.96
556.0607, 10611.90
556.5428, 10554.79
557.0250, 10487.68
557.5071, 10433.42
557.9892, 10404.14
558.4713, 10397.30
558.9534, 10380.93
559.4355, 10345.58
559.9177, 10313.82
560.3998, 10302.72
560.8819, 10322.28
561.3640, 10314.33
561.8461, 10273.75
562.3282, 10214.98
562.8104, 10153.47
563.2925, 10089.59
563.7746, 10033.73
564.2567, 9985.989
564.7388, 9950.164
565.2209, 9937.467
565.7031, 9944.788
566.1852, 9954.429
566.6673, 9955.069
567.1494, 9952.259
567.6315, 9953.492
568.1136, 9961.940
568.5958, 9961.448
569.0779, 9926.322
569.5600, 9885.810
570.0421, 9871.312
570.5242, 9927.392
571.0063, 9965.860
571.4885, 9966.896
571.9706, 9939.622
572.4527, 9915.291
572.9348, 9885.163
573.4169, 9874.647
573.8990, 9907.704
574.3812, 9989.284
574.8633, 10007.13
575.3454, 9947.898
575.8275, 9873.485
576.3096, 9847.126
576.7917, 9862.099
577.2739, 9883.686
577.7560, 9911.326
578.2381, 9929.027
578.7202, 9893.263
579.2023, 9826.854
579.6844, 9796.462
580.1666, 9879.787
580.6487, 9977.610
581.1308, 10019.85
581.6129, 10003.44
582.0950, 9977.918
582.5771, 9939.767
583.0593, 9911.664
583.5414, 9910.018
584.0235, 9970.396
584.5056, 10007.30
584.9877, 10011.62
585.4698, 9997.504
585.9520, 9989.717
586.4341, 9994.307
586.9162, 9983.938
587.3983, 9940.769
587.8804, 9878.323
588.3625, 9862.469
588.8447, 9894.368
589.3268, 9936.092
589.8089, 9959.293
590.2910, 9972.982
590.7731, 10001.86
591.2552, 10051.89
591.7374, 10093.07
592.2195, 10077.28
592.7016, 10042.48
593.1837, 10040.85
593.6658, 10136.61
594.1479, 10220.35
594.6301, 10236.59
595.1122, 10205.83
595.5943, 10199.32
596.0764, 10261.64
596.5585, 10316.36
597.0406, 10339.81
597.5228, 10328.92
598.0049, 10308.03
598.4870, 10267.22
598.9691, 10234.33
599.4512, 10244.19
599.9333, 10299.17
600.4155, 10318.21
600.8976, 10281.50
601.3797, 10232.13
601.8618, 10243.13
602.3439, 10299.63
602.8260, 10346.22
603.3082, 10347.95
603.7903, 10334.52
604.2724, 10327.25
604.7545, 10327.86
605.2366, 10347.82
605.7188, 10416.50
606.2009, 10488.96
606.6830, 10536.43
607.1651, 10547.11
607.6472, 10554.48
608.1293, 10554.83
608.6115, 10557.46
609.0936, 10573.42
609.5757, 10613.01
610.0578, 10640.65
610.5399, 10650.09
611.0220, 10646.02
611.5042, 10629.41
611.9863, 10597.24
612.4684, 10600.48
612.9505, 10704.19
613.4326, 10854.25
613.9147, 10902.44
614.3969, 10850.51
614.8790, 10784.37
615.3611, 10747.17
615.8432, 10742.62
616.3253, 10782.56
616.8074, 10889.59
617.2896, 10984.11
617.7717, 11016.92
618.2538, 11020.91
618.7359, 11041.39
619.2180, 11121.38
619.7001, 11175.41
620.1823, 11180.12
620.6644, 11148.33
621.1465, 11133.32
621.6286, 11131.23
622.1107, 11156.68
622.5928, 11234.21
623.0750, 11357.00
623.5571, 11421.78
624.0392, 11423.49
624.5213, 11408.64
625.0034, 11415.28
625.4855, 11438.38
625.9677, 11467.82
626.4498, 11503.26
626.9319, 11540.35
627.4140, 11580.09
627.8961, 11618.12
628.3782, 11646.21
628.8604, 11636.67
629.3425, 11642.49
629.8246, 11693.18
630.3067, 11781.85
630.7888, 11849.33
631.2709, 11895.05
631.7531, 11918.13
632.2352, 11910.67
632.7173, 11867.62
633.1994, 11847.12
633.6815, 11849.35
634.1636, 11873.41
634.6458, 11933.79
635.1279, 12021.68
635.6100, 12079.31
636.0921, 12093.84
636.5742, 12087.81
637.0563, 12086.76
637.5385, 12085.06
638.0206, 12070.75
638.5027, 12022.54
638.9848, 11974.73
639.4669, 11943.70
639.9490, 11929.04
640.4312, 11929.41
640.9133, 11939.88
641.3954, 11971.01
641.8775, 12034.97
642.3596, 12141.98
642.8417, 12216.57
643.3239, 12248.77
643.8060, 12265.03
644.2881, 12282.97
644.7702, 12302.55
645.2523, 12338.46
645.7344, 12392.93
646.2166, 12462.73
646.6987, 12541.97
647.1808, 12632.54
647.6629, 12740.43
648.1450, 12903.06
648.6271, 13053.03
649.1093, 13123.96
649.5914, 13133.33
650.0735, 13147.56
650.5556, 13173.06
651.0377, 13224.55
651.5198, 13323.34
652.0020, 13484.17
652.4841, 13592.28
652.9662, 13610.57
653.4483, 13622.11
653.9304, 13695.31
654.4125, 13843.07
654.8947, 13954.24
655.3768, 14016.95
655.8589, 14055.76
656.3410, 14093.47
656.8231, 14134.12
657.3052, 14194.67
657.7874, 14288.95
658.2695, 14395.04
658.7516, 14493.55
659.2337, 14585.41
659.7158, 14671.49
660.1979, 14746.65
660.6801, 14821.35
661.1622, 14890.72
661.6443, 14953.45
662.1264, 15058.85
662.6085, 15246.70
663.0906, 15432.81
663.5728, 15569.42
664.0549, 15646.42
664.5370, 15721.95
665.0191, 15792.20
665.5012, 15869.29
665.9833, 15967.44
666.4655, 16085.85
666.9476, 16219.28
667.4297, 16379.33
667.9118, 16527.75
668.3939, 16603.42
668.8760, 16635.59
669.3582, 16688.69
669.8403, 16846.56
670.3224, 16978.64
670.8045, 17011.50
671.2866, 16959.22
671.7687, 16909.07
672.2509, 16854.32
672.7330, 16825.78
673.2151, 16850.08
673.6972, 16936.47
674.1793, 16949.68
674.6614, 16874.74
675.1436, 16774.18
675.6257, 16691.62
676.1078, 16626.86
676.5899, 16589.38
677.0720, 16584.35
677.5541, 16582.29
678.0363, 16557.54
678.5184, 16512.76
679.0005, 16451.29
679.4826, 16365.47
679.9647, 16274.33
680.4468, 16187.20
680.9290, 16100.88
681.4111, 16009.77
681.8932, 15901.18
682.3753, 15801.72
682.8574, 15707.83
683.3395, 15624.66
683.8217, 15613.29
684.3038, 15697.24
684.7859, 15762.62
685.2680, 15714.60
685.7501, 15584.72
686.2322, 15538.49
686.7144, 15579.27
687.1965, 15644.57
687.6786, 15691.36
688.1607, 15726.48
688.6428, 15749.39
689.1249, 15739.97
689.6071, 15780.55
690.0892, 15959.13
690.5713, 16186.81
691.0534, 16356.66
691.5355, 16388.32
692.0176, 16456.79
692.4998, 16581.50
692.9819, 16747.93
693.4640, 16934.48
693.9461, 17147.17
694.4282, 17325.71
694.9103, 17418.02
695.3925, 17480.94
695.8746, 17686.28
696.3567, 18015.08
696.8388, 18328.54
697.3209, 18516.32
697.8030, 18658.84
698.2852, 18829.84
698.7673, 19034.87
699.2494, 19239.61
699.7316, 19406.89
700.2137, 19587.39
700.6958, 19827.46
701.1779, 20185.87
701.6600, 20443.16
702.1422, 20560.09
702.6243, 20626.40
703.1064, 20752.32
703.5885, 20940.76
704.0706, 21065.59
704.5527, 21097.29
705.0349, 21079.14
705.5170, 21077.02
705.9991, 21077.52
706.4812, 21045.01
706.9633, 20951.11
707.4454, 20832.58
707.9276, 20721.60
708.4097, 20605.59
708.8918, 20449.26
709.3739, 20219.02
709.8560, 19968.45
710.3381, 19721.04
710.8203, 19473.48
711.3024, 19188.13
711.7845, 18847.46
712.2666, 18509.14
712.7487, 18212.60
713.2308, 17950.95
713.7130, 17658.53
714.1951, 17330.71
714.6772, 16987.34
715.1593, 16609.21
715.6414, 16235.29
716.1235, 15935.42
716.6057, 15753.38
717.0878, 15534.98
717.5699, 15163.55
718.0520, 14737.00
718.5341, 14359.00
719.0162, 14032.87
719.4984, 13781.54
719.9805, 13646.80
720.4626, 13557.52
720.9447, 13368.92
721.4268, 13066.18
721.9089, 12787.34
722.3911, 12573.90
722.8732, 12406.69
723.3553, 12262.47
723.8374, 12134.21
724.3195, 11990.65
724.8016, 11761.97
725.2838, 11552.17
725.7659, 11465.14
726.2480, 11489.58
726.7301, 11487.76
727.2122, 11394.41
727.6943, 11290.86
728.1765, 11211.78
728.6586, 11159.12
729.1407, 11116.59
729.6228, 11093.45
730.1049, 11056.66
730.5870, 10960.58
731.0692, 10819.28
731.5513, 10736.38
732.0334, 10726.51
732.5155, 10731.28
732.9976, 10695.63
733.4797, 10639.13
733.9619, 10587.91
734.4440, 10544.56
734.9261, 10515.89
735.4082, 10529.09
735.8903, 10550.71
736.3724, 10527.10
736.8546, 10403.64
737.3367, 10333.85
737.8188, 10356.92
738.3009, 10427.90
738.7830, 10441.15
739.2651, 10395.03
739.7473, 10346.80
740.2294, 10317.90
740.7115, 10299.29
741.1936, 10264.89
741.6757, 10224.83
742.1578, 10219.38
742.6400, 10326.08
743.1221, 10425.65
743.6042, 10418.16
744.0863, 10308.60
744.5684, 10266.07
745.0505, 10361.79
745.5327, 10470.23
746.0148, 10544.26
746.4969, 10582.25
746.9790, 10610.75
747.4611, 10626.89
747.9432, 10648.61
748.4254, 10701.61
748.9075, 10770.65
749.3896, 10816.70
749.8717, 10834.93
750.3538, 10837.28
750.8359, 10801.55
751.3181, 10769.89
751.8002, 10793.53
752.2823, 10940.18
752.7644, 11025.53
753.2465, 10968.01
753.7286, 10868.68
754.2108, 10830.75
754.6929, 10871.73
755.1750, 10916.61
755.6571, 10964.52
756.1392, 10998.59
756.6213, 10977.45
757.1035, 10914.01
757.5856, 10867.13
758.0677, 10870.23
758.5498, 10879.05
759.0319, 10852.68
759.5140, 10800.97
759.9962, 10745.98
760.4783, 10696.42
760.9604, 10642.03
761.4425, 10579.37
761.9246, 10509.03
762.4067, 10424.61
762.8889, 10305.62
763.3710, 10234.28
763.8531, 10273.17
764.3352, 10377.33
764.8173, 10364.89
765.2994, 10242.85
765.7816, 10101.53
766.2637, 9985.229
766.7458, 9889.485
767.2279, 9807.981
767.7100, 9740.980
768.1921, 9688.298
768.6743, 9656.447
769.1564, 9634.332
769.6385, 9617.642
770.1206, 9608.040
770.6027, 9596.924
771.0848, 9589.277
771.5670, 9569.302
772.0491, 9511.623
772.5312, 9425.072
773.0133, 9370.109
773.4954, 9352.411
773.9775, 9352.965
774.4597, 9366.555
774.9418, 9382.093
775.4239, 9381.760
775.9060, 9347.287
776.3881, 9333.521
776.8702, 9393.563
777.3524, 9463.490
777.8345, 9469.804
778.3166, 9368.557
778.7987, 9314.747
779.2808, 9330.996
779.7629, 9379.711
780.2451, 9408.407
780.7272, 9418.905
781.2093, 9423.119
781.6914, 9421.983
782.1735, 9420.662
782.6556, 9432.684
783.1378, 9447.169
783.6199, 9443.936
784.1020, 9397.633
784.5841, 9353.943
785.0662, 9320.768
785.5483, 9299.741
786.0305, 9297.978
786.5126, 9326.979
786.9947, 9340.698
787.4768, 9318.805
787.9589, 9281.329
788.4410, 9294.092
788.9232, 9347.558
789.4053, 9375.385
789.8874, 9324.478
790.3695, 9249.204
790.8516, 9188.249
791.3337, 9143.527
791.8159, 9119.949
792.2980, 9146.766
792.7801, 9166.067
793.2622, 9149.239
793.7443, 9101.603
794.2264, 9085.591
794.7086, 9112.964
795.1907, 9128.503
795.6728, 9079.357
796.1549, 8996.969
796.6370, 9017.977
797.1191, 9131.715
797.6013, 9221.036
798.0834, 9168.009
798.5655, 9082.205
799.0476, 9062.959
799.5297, 9121.880
800.0118, 9157.942
800.4940, 9106.150
800.9761, 9065.745
801.4582, 9089.567
801.9403, 9186.145
802.4224, 9257.848
802.9045, 9302.771
803.3867, 9331.954
803.8688, 9343.943
804.3509, 9348.799
804.8330, 9375.504
805.3151, 9427.714
805.7972, 9473.633
806.2794, 9473.424
806.7615, 9469.438
807.2436, 9500.815
807.7257, 9592.213
808.2078, 9665.884
808.6899, 9715.351
809.1721, 9749.358
809.6542, 9765.463
810.1363, 9761.809
810.6184, 9795.792
811.1005, 9876.148
811.5826, 9965.956
812.0648, 10026.69
812.5469, 10069.35
813.0290, 10117.97
813.5111, 10184.66
813.9932, 10231.79
814.4753, 10225.36
814.9575, 10198.51
815.4396, 10185.81
815.9217, 10201.55
816.4038, 10203.06
816.8859, 10179.67
817.3680, 10157.22
817.8502, 10181.96
818.3323, 10244.82
818.8144, 10272.90
819.2965, 10247.83
819.7786, 10201.86
820.2607, 10165.42
820.7429, 10130.70
821.2250, 10086.42
821.7071, 10006.81
822.1892, 9950.686
822.6713, 9961.797
823.1534, 9987.440
823.6356, 9959.024
824.1177, 9859.168
824.5998, 9780.901
825.0819, 9741.785
825.5640, 9720.114
826.0461, 9682.905
826.5283, 9635.498
827.0104, 9597.703
827.4925, 9586.594
827.9746, 9565.534
828.4567, 9488.302
828.9388, 9390.724
829.4210, 9327.809
829.9031, 9376.545
830.3852, 9368.654
830.8673, 9260.667
831.3494, 9112.527
831.8315, 9038.642
832.3137, 9038.479
832.7958, 9043.029
833.2779, 9043.776
833.7600, 9023.804
834.2421, 8937.241
834.7242, 8816.022
835.2064, 8724.697
835.6885, 8733.241
836.1706, 8724.530
836.6527, 8638.718
837.1348, 8515.952
837.6169, 8437.955
838.0991, 8426.918
838.5812, 8397.104
839.0633, 8323.776
839.5454, 8236.426
840.0275, 8202.957
840.5096, 8208.107
840.9918, 8184.089
841.4739, 8077.936
841.9560, 7973.495
842.4381, 7952.297
842.9202, 7977.188
843.4023, 7976.450
843.8845, 7921.881
844.3666, 7851.359
844.8487, 7754.278
845.3308, 7653.717
845.8129, 7601.168
846.2950, 7598.394
846.7772, 7617.574
847.2593, 7666.096
847.7414, 7705.659
848.2235, 7662.462
848.7056, 7569.450
849.1877, 7501.290
849.6699, 7528.511
850.1520, 7538.895
850.6341, 7465.673
851.1162, 7355.269
851.5983, 7303.931
852.0804, 7332.397
852.5626, 7364.380
853.0447, 7392.891
853.5268, 7406.871
854.0089, 7366.277
854.4910, 7287.987
854.9731, 7240.011
855.4553, 7263.759
855.9374, 7299.010
856.4195, 7304.738
856.9016, 7290.823
857.3837, 7275.172
857.8658, 7242.570
858.3480, 7237.006
858.8301, 7281.088
859.3122, 7338.836
859.7943, 7327.299
860.2764, 7248.955
860.7585, 7216.607
861.2407, 7279.230
861.7228, 7357.687
862.2049, 7359.399
862.6870, 7308.123
863.1691, 7245.204
863.6512, 7160.171
864.1334, 7095.848
864.6155, 7068.366
865.0976, 7064.831
865.5797, 7071.232
866.0618, 7090.618
866.5439, 7106.055
867.0261, 7113.127
867.5082, 7119.788
867.9903, 7156.893
868.4724, 7202.240
868.9545, 7189.897
869.4366, 7052.074
869.9188, 6952.859
870.4009, 7025.389
870.8830, 7171.981
871.3651, 7255.767
871.8472, 7238.125
872.3293, 7222.189
872.8115, 7212.385
873.2936, 7209.178
873.7757, 7217.283
874.2578, 7233.751
874.7399, 7242.098
875.2220, 7236.766
875.7042, 7232.074
876.1863, 7238.587
876.6684, 7253.609
877.1505, 7276.606
877.6326, 7340.379
878.1147, 7347.668
878.5969, 7263.259
879.0790, 7155.587
879.5611, 7091.682
880.0432, 7071.173
880.5253, 7073.327
881.0074, 7098.427
881.4896, 7133.059
881.9717, 7174.155
882.4538, 7212.560
882.9359, 7236.856
883.4180, 7245.227
883.9001, 7238.338
884.3823, 7203.386
884.8644, 7163.300
885.3465, 7131.447
885.8286, 7105.840
886.3107, 7099.100
886.7928, 7112.662
887.2750, 7137.557
887.7571, 7173.956
888.2392, 7213.262
888.7213, 7241.683
889.2034, 7257.958
889.6855, 7260.391
890.1677, 7233.287
890.6498, 7203.257
891.1319, 7182.535
891.6140, 7167.672
892.0961, 7199.210
892.5782, 7293.618
893.0604, 7378.570
893.5425, 7398.427
894.0246, 7370.810
894.5067, 7332.905
894.9888, 7288.925
895.4709, 7276.087
895.9531, 7355.532
896.4352, 7440.977
896.9173, 7476.230
897.3994, 7457.510
897.8815, 7438.528
898.3636, 7420.841
898.8458, 7400.170
899.3279, 7368.804
899.8100, 7334.769
900.2921, 7336.291
900.7742, 7368.234
901.2563, 7398.650
901.7385, 7396.952
902.2206, 7397.738
902.7027, 7436.700
903.1848, 7502.655
903.6669, 7542.624
904.1490, 7528.275
904.6312, 7525.647
905.1133, 7554.950
905.5954, 7601.896
906.0775, 7630.413
906.5596, 7640.837
907.0417, 7634.927
907.5239, 7599.137
908.0060, 7567.953
908.4881, 7576.287
908.9702, 7611.202
909.4523, 7647.667
909.9344, 7694.576
910.4166, 7721.036
910.8987, 7718.667
911.3808, 7699.433
911.8629, 7675.599
912.3450, 7648.164
912.8271, 7644.918
913.3093, 7678.178
913.7914, 7713.722
914.2735, 7708.330
914.7556, 7685.007
915.2377, 7674.335
915.7198, 7683.103
916.2020, 7707.929
916.6841, 7766.898
917.1662, 7822.550
917.6483, 7837.073
918.1304, 7808.164
918.6125, 7783.683
919.0947, 7766.256
919.5768, 7756.917
920.0589, 7765.885
920.5410, 7778.933
921.0231, 7769.526
921.5052, 7728.164
921.9874, 7719.195
922.4695, 7794.973
922.9516, 7876.393
923.4337, 7929.392
923.9158, 7954.067
924.3979, 7957.956
924.8801, 7940.348
925.3622, 7917.421
925.8443, 7894.659
926.3264, 7876.370
926.8085, 7868.347
927.2906, 7870.175
927.7728, 7877.953
928.2549, 7887.768
928.7370, 7906.859
929.2191, 7939.420
929.7012, 7982.570
930.1833, 8029.674
930.6655, 8081.542
931.1476, 8112.946
931.6297, 8106.211
932.1118, 8081.782
932.5939, 8062.852
933.0760, 8048.295
933.5582, 8036.447
934.0403, 8003.246
934.5224, 8003.315
935.0045, 8068.529
935.4866, 8159.490
935.9688, 8222.703
936.4509, 8258.609
936.9330, 8246.204
937.4151, 8166.983
937.8972, 8090.652
938.3793, 8113.520
938.8615, 8186.695
939.3436, 8238.254
939.8257, 8241.194
940.3078, 8247.528
940.7899, 8286.078
941.2720, 8318.146
941.7542, 8304.528
942.2363, 8236.446
942.7184, 8227.270
943.2005, 8283.073
943.6826, 8359.311
944.1647, 8439.540
944.6469, 8505.613
945.1290, 8532.377
945.6111, 8518.255
946.0932, 8484.543
946.5753, 8391.315
947.0575, 8329.669
947.5396, 8335.822
948.0217, 8404.597
948.5038, 8517.680
948.9860, 8673.843
949.4681, 8779.753
949.9502, 8742.464
950.4323, 8662.386
950.9144, 8643.120
951.3965, 8671.956
951.8787, 8713.053
952.3608, 8767.982
952.8429, 8819.207
953.3250, 8869.560
953.8071, 8910.390
954.2892, 8914.143
954.7714, 8883.886
955.2535, 8878.230
955.7356, 8918.125
956.2177, 8965.913
956.6998, 8972.173
957.1819, 8969.408
957.6641, 9003.785
958.1462, 9135.422
958.6283, 9200.957
959.1104, 9165.020
959.5925, 9102.241
960.0746, 9072.704
960.5568, 9074.733
961.0389, 9105.158
961.5210, 9164.149
962.0031, 9222.744
962.4852, 9261.610
962.9673, 9287.301
963.4495, 9299.453
963.9316, 9297.486
964.4137, 9308.016
964.8958, 9333.502
965.3779, 9370.465
965.8600, 9432.273
966.3422, 9497.937
966.8243, 9472.036
967.3064, 9376.894
967.7885, 9323.250
968.2706, 9417.898
968.7527, 9520.933
969.2349, 9549.176
969.7170, 9527.137
970.1991, 9517.012
970.6812, 9528.262
971.1633, 9531.244
971.6454, 9516.321
972.1276, 9504.053
972.6097, 9551.650
973.0918, 9623.821
973.5739, 9615.954
974.0560, 9479.030
974.5381, 9369.273
975.0203, 9403.638
975.5024, 9475.515
975.9845, 9494.227
976.4666, 9444.999
976.9487, 9418.180
977.4308, 9415.572
977.9130, 9425.735
978.3951, 9462.492
978.8772, 9495.741
979.3593, 9459.838
979.8414, 9364.089
980.3235, 9286.443
980.8057, 9266.210
981.2878, 9262.277
981.7699, 9261.800
982.2520, 9264.493
982.7341, 9274.281
983.2162, 9292.207
983.6984, 9287.959
984.1805, 9239.947
984.6626, 9187.698
985.1447, 9190.792
985.6268, 9218.185
986.1089, 9218.416
986.5911, 9149.714
987.0732, 9092.526
987.5553, 9047.256
988.0374, 9020.771
988.5195, 9027.816
989.0016, 9064.101
989.4838, 9088.695
989.9659, 9097.504
990.4480, 9107.834
990.9301, 9145.719
991.4122, 9181.508
991.8943, 9190.737
992.3765, 9169.260
992.8586, 9132.963
993.3407, 9064.127
993.8228, 9024.718
994.3049, 9053.714
994.7870, 9053.036
995.2692, 9104.729
995.7513, 9139.499
996.2334, 9158.262
996.7155, 9113.065
997.1976, 9150.456
997.6797, 9154.751
998.1619, 9157.692
998.6440, 9206.707
999.1261, 9170.813
999.6082, 9219.100
1000.090, 9233.774
1000.572, 9263.833
1001.055, 9323.716
1001.537, 9357.491
1002.019, 9363.462
1002.501, 9331.659
1002.983, 9323.689
1003.465, 9377.661
1003.947, 9443.276
1004.429, 9501.616
1004.911, 9552.077
1005.394, 9582.477
1005.876, 9593.925
1006.358, 9606.146
1006.840, 9623.023
1007.322, 9652.561
1007.804, 9711.282
1008.286, 9789.044
1008.768, 9853.626
1009.251, 9900.699
1009.733, 9936.467
1010.215, 9960.485
1010.697, 9975.591
1011.179, 9972.928
1011.661, 9964.644
1012.143, 10000.45
1012.625, 10102.31
1013.107, 10186.91
1013.590, 10182.74
1014.072, 10157.45
1014.554, 10159.91
1015.036, 10189.52
1015.518, 10270.18
1016.000, 10413.58
1016.482, 10540.11
1016.964, 10595.45
1017.447, 10605.23
1017.929, 10594.75
1018.411, 10571.00
1018.893, 10558.01
1019.375, 10561.54
1019.857, 10582.50
1020.339, 10628.63
1020.821, 10684.48
1021.303, 10714.16
1021.786, 10721.57
1022.268, 10751.18
1022.750, 10814.50
1023.232, 10890.88
1023.714, 10999.67
1024.196, 11089.39
1024.678, 11091.04
1025.160, 10958.01
1025.642, 10912.61
1026.125, 10979.71
1026.607, 11067.39
1027.089, 11123.96
1027.571, 11157.13
1028.053, 11182.77
1028.535, 11202.90
1029.017, 11227.11
1029.499, 11259.88
1029.982, 11297.66
1030.464, 11341.58
1030.946, 11388.84
1031.428, 11440.60
1031.910, 11498.67
1032.392, 11523.73
1032.874, 11502.76
1033.356, 11474.92
1033.839, 11469.11
1034.321, 11485.68
1034.803, 11531.60
1035.285, 11619.41
1035.767, 11682.07
1036.249, 11709.69
1036.731, 11723.47
1037.213, 11718.94
1037.695, 11713.51
1038.177, 11795.62
1038.660, 11943.34
1039.142, 12053.55
1039.624, 12025.74
1040.106, 12002.59
1040.588, 12070.62
1041.070, 12177.53
1041.552, 12226.26
1042.034, 12207.04
1042.517, 12197.91
1042.999, 12210.36
1043.481, 12230.08
1043.963, 12233.94
1044.445, 12239.88
1044.927, 12275.98
1045.409, 12352.09
1045.891, 12410.22
1046.374, 12436.74
1046.856, 12458.62
1047.338, 12493.90
1047.820, 12532.00
1048.302, 12511.69
1048.784, 12451.17
1049.266, 12433.95
1049.748, 12553.78
1050.230, 12666.22
1050.713, 12693.26
1051.195, 12676.44
1051.677, 12674.12
1052.159, 12683.46
1052.641, 12736.45
1053.123, 12846.03
1053.605, 12936.67
1054.087, 12902.26
1054.569, 12827.05
1055.052, 12821.29
1055.534, 12894.78
1056.016, 12947.85
1056.498, 12942.84
1056.980, 12950.40
1057.462, 12998.56
1057.944, 13069.65
1058.426, 13120.19
1058.909, 13152.04
1059.391, 13174.06
1059.873, 13189.99
1060.355, 13195.90
1060.837, 13174.82
1061.319, 13153.04
1061.801, 13160.34
1062.283, 13205.23
1062.766, 13227.96
1063.248, 13226.42
1063.730, 13220.46
1064.212, 13229.61
1064.694, 13239.43
1065.176, 13242.61
1065.658, 13234.60
1066.140, 13190.33
1066.622, 13080.11
1067.104, 12984.53
1067.587, 12924.69
1068.069, 12881.15
1068.551, 12819.36
1069.033, 12746.45
1069.515, 12682.43
1069.997, 12630.00
1070.479, 12593.04
1070.962, 12615.13
1071.444, 12613.99
1071.926, 12529.96
1072.408, 12364.55
1072.890, 12222.43
1073.372, 12102.29
1073.854, 11995.23
1074.336, 11884.91
1074.818, 11794.21
1075.301, 11769.81
1075.783, 11777.18
1076.265, 11732.94
1076.747, 11603.93
1077.229, 11492.53
1077.711, 11411.67
1078.193, 11337.26
1078.675, 11246.61
1079.157, 11142.69
1079.640, 11019.26
1080.122, 10876.50
1080.604, 10762.77
1081.086, 10714.98
1081.568, 10678.31
1082.050, 10638.42
1082.532, 10593.86
1083.014, 10537.00
1083.497, 10469.91
1083.979, 10402.47
1084.461, 10343.65
1084.943, 10272.58
1085.425, 10142.73
1085.907, 10013.94
1086.389, 9958.620
1086.871, 10002.00
1087.354, 9989.321
1087.836, 9916.568
1088.318, 9817.092
1088.800, 9659.892
1089.282, 9527.938
1089.764, 9570.411
1090.246, 9733.605
1090.728, 9809.651
1091.210, 9702.737
1091.693, 9599.393
1092.175, 9521.644
1092.657, 9460.432
1093.139, 9412.761
1093.621, 9369.602
1094.103, 9297.601
1094.585, 9186.760
1095.067, 9111.560
1095.549, 9139.239
1096.032, 9178.694
1096.514, 9188.657
1096.996, 9173.748
1097.478, 9153.851
1097.960, 9130.483
1098.442, 9121.964
1098.924, 9150.211
1099.406, 9169.658
1099.889, 9141.527
1100.371, 9087.128
1100.853, 9029.863
1101.335, 8963.265
1101.817, 8926.554
1102.299, 8922.899
1102.781, 8929.688
1103.263, 8942.323
1103.745, 8946.979
1104.228, 8907.441
1104.710, 8839.745
1105.192, 8816.813
1105.674, 8892.099
1106.156, 8941.967
1106.638, 8941.446
1107.120, 8921.725
1107.602, 8931.434
1108.084, 8957.104
1108.567, 8965.485
1109.049, 8950.120
1109.531, 8929.088
1110.013, 8893.606
1110.495, 8873.041
1110.977, 8890.881
1111.459, 8931.618
1111.941, 8909.506
1112.424, 8835.146
1112.906, 8795.855
1113.388, 8850.590
1113.870, 8893.986
1114.352, 8825.811
1114.834, 8729.062
1115.316, 8696.428
1115.798, 8741.249
1116.281, 8796.744
1116.763, 8866.872
1117.245, 8898.480
1117.727, 8807.293
1118.209, 8694.853
1118.691, 8680.427
1119.173, 8733.057
1119.655, 8745.247
1120.137, 8683.707
1120.620, 8634.764
1121.102, 8608.451
1121.584, 8595.144
1122.066, 8593.562
1122.548, 8592.697
1123.030, 8569.382
1123.512, 8521.662
1123.994, 8479.913
1124.476, 8463.169
1124.959, 8438.954
1125.441, 8395.092
1125.923, 8341.085
1126.405, 8299.728
1126.887, 8268.622
1127.369, 8242.670
1127.851, 8230.738
1128.333, 8191.573
1128.816, 8060.937
1129.298, 7938.775
1129.780, 7902.738
1130.262, 7946.097
1130.744, 7912.094
1131.226, 7809.387
1131.708, 7740.851
1132.190, 7815.573
1132.672, 7888.458
1133.155, 7855.201
1133.637, 7766.263
1134.119, 7707.563
1134.601, 7686.757
1135.083, 7659.124
1135.565, 7621.346
1136.047, 7585.932
1136.529, 7558.948
1137.011, 7542.935
1137.494, 7545.947
1137.976, 7564.181
1138.458, 7575.947
1138.940, 7585.318
1139.422, 7571.257
1139.904, 7524.442
1140.386, 7468.981
1140.868, 7425.946
1141.351, 7399.266
1141.833, 7400.596
1142.315, 7434.729
1142.797, 7460.266
1143.279, 7478.054
1143.761, 7472.792
1144.243, 7426.130
1144.725, 7365.527
1145.208, 7364.245
1145.690, 7400.228
1146.172, 7416.076
1146.654, 7385.047
1147.136, 7352.900
1147.618, 7330.116
1148.100, 7310.878
1148.582, 7283.509
1149.064, 7254.813
1149.547, 7283.635
1150.029, 7358.250
1150.511, 7413.136
1150.993, 7395.262
1151.475, 7372.610
1151.957, 7395.237
1152.439, 7412.334
1152.921, 7336.778
1153.403, 7174.339
1153.886, 7151.669
1154.368, 7282.000
1154.850, 7402.448
1155.332, 7382.195
1155.814, 7327.612
1156.296, 7295.434
1156.778, 7285.929
1157.260, 7299.424
1157.743, 7339.084
1158.225, 7355.416
1158.707, 7334.983
1159.189, 7313.625
1159.671, 7334.564
1160.153, 7363.872
1160.635, 7365.296
1161.117, 7337.204
1161.599, 7326.573
1162.082, 7337.756
1162.564, 7339.188
1163.046, 7319.014
1163.528, 7285.733
1164.010, 7222.687
1164.492, 7165.828
1164.974, 7175.585
1165.456, 7303.145
1165.938, 7347.025
1166.421, 7286.716
1166.903, 7214.692
1167.385, 7170.018
1167.867, 7158.411
1168.349, 7211.625
1168.831, 7300.073
1169.313, 7361.492
1169.795, 7358.581
1170.278, 7359.033
1170.760, 7371.357
1171.242, 7371.419
1171.724, 7313.168
1172.206, 7237.951
1172.688, 7247.688
1173.170, 7325.176
1173.652, 7377.173
1174.135, 7342.402
1174.617, 7321.428
1175.099, 7336.966
1175.581, 7357.875
1176.063, 7327.769
1176.545, 7273.391
1177.027, 7279.275
1177.509, 7349.536
1177.991, 7391.527
1178.474, 7330.417
1178.956, 7278.304
1179.438, 7264.426
1179.920, 7280.890
1180.402, 7332.173
1180.884, 7400.121
1181.366, 7415.157
1181.848, 7354.949
1182.330, 7305.876
1182.813, 7318.524
1183.295, 7340.709
1183.777, 7349.484
1184.259, 7348.770
1184.741, 7358.622
1185.223, 7373.518
1185.705, 7363.924
1186.187, 7303.473
1186.670, 7260.504
1187.152, 7298.368
1187.634, 7337.507
1188.116, 7306.083
1188.598, 7218.438
1189.080, 7251.604
1189.562, 7386.221
1190.044, 7485.739
1190.526, 7457.758
1191.009, 7410.783
1191.491, 7387.758
1191.973, 7377.535
1192.455, 7370.563
1192.937, 7366.771
1193.419, 7363.168
1193.901, 7359.337
1194.383, 7350.306
1194.865, 7303.779
1195.348, 7283.102
1195.830, 7367.374
1196.312, 7478.429
1196.794, 7482.743
1197.276, 7378.265
1197.758, 7334.051
1198.240, 7363.463
1198.722, 7393.000
1199.205, 7357.736
1199.687, 7315.833
1200.169, 7300.837
1200.651, 7309.101
1201.133, 7333.534
1201.615, 7374.498
1202.097, 7422.258
1202.579, 7478.919
1203.062, 7507.948
1203.544, 7440.667
1204.026, 7366.078
1204.508, 7363.386
1204.990, 7414.854
1205.472, 7448.699
1205.954, 7464.794
1206.436, 7484.443
1206.918, 7517.105
1207.401, 7537.947
1207.883, 7515.499
1208.365, 7479.253
1208.847, 7448.708
1209.329, 7425.725
1209.811, 7438.896
1210.293, 7488.858
1210.775, 7512.136
1211.257, 7473.920
1211.740, 7429.477
1212.222, 7418.607
1212.704, 7429.933
1213.186, 7454.327
1213.668, 7491.032
1214.150, 7527.708
1214.632, 7564.416
1215.114, 7585.312
1215.597, 7569.800
1216.079, 7554.960
1216.561, 7579.046
1217.043, 7615.743
1217.525, 7630.969
1218.007, 7620.708
1218.489, 7614.957
1218.971, 7613.812
1219.453, 7613.523
1219.936, 7607.442
1220.418, 7605.746
1220.900, 7627.410
1221.382, 7652.351
1221.864, 7641.336
1222.346, 7582.159
1222.828, 7590.314
1223.310, 7669.813
1223.792, 7744.824
1224.275, 7757.215
1224.757, 7750.293
1225.239, 7750.517
1225.721, 7753.719
1226.203, 7748.390
1226.685, 7733.409
1227.167, 7726.539
1227.649, 7729.090
1228.132, 7746.328
1228.614, 7808.973
1229.096, 7861.768
1229.578, 7853.415
1230.060, 7810.975
1230.542, 7793.466
1231.024, 7801.087
1231.506, 7826.546
1231.989, 7870.784
1232.471, 7901.441
1232.953, 7872.270
1233.435, 7841.243
1233.917, 7845.560
1234.399, 7877.245
1234.881, 7928.771
1235.363, 7997.167
1235.845, 8034.164
1236.328, 8029.664
1236.810, 7999.432
1237.292, 7916.771
1237.774, 7850.985
1238.256, 7855.475
1238.738, 7905.160
1239.220, 7912.956
1239.702, 7883.724
1240.184, 7856.250
1240.667, 7836.710
1241.149, 7836.508
1241.631, 7897.581
1242.113, 7942.251
1242.595, 7913.715
1243.077, 7838.575
1243.559, 7834.141
1244.041, 7887.770
1244.524, 7935.112
1245.006, 7962.121
1245.488, 7965.995
1245.970, 7920.047
1246.452, 7876.729
1246.934, 7865.454
1247.416, 7879.488
1247.898, 7897.609
1248.380, 7916.514
1248.863, 7921.940
1249.345, 7896.508
1249.827, 7889.649
1250.309, 7931.963
1250.791, 7980.558
1251.273, 8019.721
1251.755, 8043.457
1252.237, 8016.459
1252.719, 7956.938
1253.202, 7920.101
1253.684, 7936.491
1254.166, 7955.560
1254.648, 7972.778
1255.130, 7983.274
1255.612, 7981.557
1256.094, 7971.810
1256.576, 7969.667
1257.059, 7968.548
1257.541, 7950.463
1258.023, 7876.896
1258.505, 7843.630
1258.987, 7866.728
1259.469, 7903.187
1259.951, 7926.604
1260.433, 7937.877
1260.916, 7933.015
1261.398, 7918.392
1261.880, 7909.960
1262.362, 7909.564
1262.844, 7924.315
1263.326, 7959.954
1263.808, 7990.376
1264.290, 7988.535
1264.772, 7973.152
1265.255, 7966.689
1265.737, 7967.318
1266.219, 7966.835
1266.701, 7951.487
1267.183, 7980.947
1267.665, 8065.240
1268.147, 8139.330
1268.629, 8127.652
1269.111, 8098.369
1269.594, 8134.357
1270.076, 8201.359
1270.558, 8206.172
1271.040, 8131.861
1271.522, 8094.301
1272.004, 8103.070
1272.486, 8128.196
1272.968, 8171.726
1273.451, 8198.280
1273.933, 8170.819
1274.415, 8112.379
1274.897, 8057.970
1275.379, 8007.553
1275.861, 8020.287
1276.343, 8100.630
1276.825, 8171.045
1277.307, 8188.131
1277.790, 8172.643
1278.272, 8112.753
1278.754, 8043.823
1279.236, 8029.760
1279.718, 8059.545
1280.200, 8055.566
1280.682, 8014.173
1281.164, 8004.799
1281.646, 8117.166
1282.129, 8195.511
1282.611, 8183.953
1283.093, 8134.914
1283.575, 8133.277
1284.057, 8157.990
1284.539, 8137.934
1285.021, 8072.913
1285.503, 8047.502
1285.986, 8134.060
1286.468, 8196.059
1286.950, 8206.316
1287.432, 8191.278
1287.914, 8174.777
1288.396, 8163.867
1288.878, 8174.851
1289.360, 8206.775
1289.843, 8232.843
1290.325, 8256.138
1290.807, 8252.421
1291.289, 8209.563
1291.771, 8169.496
1292.253, 8191.064
1292.735, 8231.733
1293.217, 8244.024
1293.699, 8228.983
1294.182, 8232.166
1294.664, 8259.894
1295.146, 8251.470
1295.628, 8189.801
1296.110, 8137.825
1296.592, 8165.052
1297.074, 8212.632
1297.556, 8241.530
1298.038, 8252.126
1298.521, 8240.972
1299.003, 8210.619
1299.485, 8202.593
1299.967, 8225.544
1300.449, 8233.416
1300.931, 8174.825
1301.413, 8119.054
1301.895, 8102.766
1302.378, 8100.754
##END=



