##NAMES=Tourmaline
##RRUFFID=R110133
##LOCALITY=Crystal Palace, King County, Washington, USA
##OWNER=RRUFF
##SOURCE=Bart Cannon
##DESCRIPTION=Masses of green acicular crystals associated with quartz
##STATUS=The identification of this mineral has been confirmed only by single crystal X-ray diffraction.
##URL=rruff.info/R110133
184.1699, 331.1977
184.6520, 332.4161
185.1342, 333.2183
185.6163, 333.3027
186.0984, 333.0727
186.5805, 332.8785
187.0626, 332.8109
187.5447, 332.9453
188.0269, 333.5233
188.5090, 334.6953
188.9911, 335.6324
189.4732, 336.0039
189.9553, 336.0423
190.4374, 336.0800
190.9196, 336.1347
191.4017, 336.3971
191.8838, 337.2171
192.3659, 338.6026
192.8480, 340.0182
193.3301, 341.3474
193.8123, 342.5357
194.2944, 343.3350
194.7765, 343.4152
195.2586, 343.4025
195.7407, 343.8657
196.2228, 344.8049
196.7050, 346.1245
197.1871, 347.9745
197.6692, 350.3196
198.1513, 352.3246
198.6334, 353.3632
199.1155, 354.4138
199.5977, 356.2765
200.0798, 358.9605
200.5619, 361.6862
201.0440, 363.5353
201.5261, 364.3102
202.0082, 365.6214
202.4904, 368.5056
202.9725, 371.3969
203.4546, 373.3413
203.9367, 374.3101
204.4188, 375.1270
204.9009, 376.8542
205.3831, 379.8247
205.8652, 382.6937
206.3473, 385.0080
206.8294, 387.5018
207.3115, 390.8766
207.7936, 395.0942
208.2758, 399.3479
208.7579, 402.3797
209.2400, 403.2805
209.7221, 404.9292
210.2042, 407.7263
210.6863, 410.8373
211.1685, 413.8683
211.6506, 416.6718
212.1327, 419.1557
212.6148, 421.1974
213.0969, 422.6458
213.5790, 423.8345
214.0612, 424.5638
214.5433, 425.1739
215.0254, 425.9559
215.5075, 426.9675
215.9896, 428.0621
216.4717, 429.0239
216.9539, 429.7870
217.4360, 430.5677
217.9181, 431.6920
218.4002, 432.6774
218.8823, 432.9947
219.3644, 432.5113
219.8466, 431.5943
220.3287, 430.6063
220.8108, 429.4445
221.2929, 428.7768
221.7750, 429.7081
222.2571, 430.7976
222.7393, 429.9389
223.2214, 426.5011
223.7035, 422.3076
224.1856, 419.6694
224.6677, 418.4512
225.1498, 417.2704
225.6320, 415.5267
226.1141, 413.6659
226.5962, 412.6218
227.0783, 412.8289
227.5604, 413.0097
228.0425, 411.5273
228.5247, 408.7934
229.0068, 406.4040
229.4889, 405.1391
229.9710, 404.6457
230.4531, 404.1261
230.9352, 403.4456
231.4174, 402.8784
231.8995, 402.6482
232.3816, 402.6838
232.8637, 402.8249
233.3458, 403.3337
233.8279, 403.9232
234.3101, 403.5326
234.7922, 401.5841
235.2743, 399.5730
235.7564, 398.4990
236.2385, 397.9966
236.7206, 397.3085
237.2028, 395.8676
237.6849, 393.8966
238.1670, 392.4047
238.6491, 391.9480
239.1312, 391.1193
239.6133, 389.5457
240.0955, 387.2536
240.5776, 384.1778
241.0597, 380.0183
241.5418, 375.1177
242.0239, 371.2755
242.5060, 369.2427
242.9882, 367.2969
243.4703, 364.9225
243.9524, 362.2923
244.4345, 359.6548
244.9166, 357.1419
245.3987, 354.7431
245.8809, 352.4621
246.3630, 350.3238
246.8451, 348.2913
247.3272, 346.5439
247.8093, 344.8384
248.2914, 342.8352
248.7736, 340.3260
249.2557, 337.4687
249.7378, 334.9255
250.2199, 332.7328
250.7020, 330.8553
251.1841, 329.4161
251.6663, 328.2458
252.1484, 327.1418
252.6305, 325.9973
253.1126, 324.9047
253.5947, 324.1394
254.0768, 324.3162
254.5590, 324.0876
255.0411, 322.9783
255.5232, 321.5799
256.0053, 320.5329
256.4874, 320.1118
256.9695, 320.1370
257.4517, 320.1748
257.9338, 320.3781
258.4159, 320.3955
258.8980, 320.4533
259.3801, 320.2258
259.8622, 319.0157
260.3444, 316.6225
260.8265, 314.0665
261.3086, 313.3393
261.7907, 316.6830
262.2728, 318.3101
262.7549, 316.8857
263.2371, 314.3305
263.7192, 312.5464
264.2013, 312.0368
264.6834, 312.0493
265.1655, 311.4508
265.6476, 309.8141
266.1298, 308.6055
266.6119, 308.2960
267.0940, 308.1787
267.5761, 307.4867
268.0582, 306.0896
268.5403, 304.6299
269.0225, 303.9358
269.5046, 304.2915
269.9867, 304.0864
270.4688, 303.1947
270.9509, 301.7879
271.4330, 299.7594
271.9152, 297.1588
272.3973, 294.6620
272.8794, 292.9969
273.3615, 292.2396
273.8436, 291.1937
274.3257, 289.2968
274.8079, 287.4795
275.2900, 286.8124
275.7721, 287.2415
276.2542, 287.3414
276.7363, 285.8221
277.2184, 282.9023
277.7006, 280.8448
278.1827, 280.5932
278.6648, 280.4710
279.1469, 279.0897
279.6290, 276.6052
280.1111, 274.3884
280.5933, 273.3947
281.0754, 273.2646
281.5575, 272.6097
282.0396, 271.2453
282.5217, 269.5990
283.0038, 267.7619
283.4860, 265.7979
283.9681, 263.9909
284.4502, 262.3813
284.9323, 261.1182
285.4144, 260.4735
285.8965, 260.7133
286.3787, 260.8954
286.8608, 260.3152
287.3429, 259.2079
287.8250, 258.5008
288.3071, 258.7290
288.7892, 259.1590
289.2714, 258.5314
289.7535, 256.6711
290.2356, 255.2624
290.7177, 255.6609
291.1998, 257.1259
291.6819, 257.5173
292.1641, 255.9487
292.6462, 254.0284
293.1283, 253.5975
293.6104, 254.4765
294.0925, 255.5307
294.5746, 256.5536
295.0568, 257.4091
295.5389, 257.6915
296.0210, 257.1587
296.5031, 256.6353
296.9852, 257.1423
297.4673, 258.2849
297.9495, 258.9465
298.4316, 258.2877
298.9137, 257.1248
299.3958, 256.6683
299.8779, 257.0151
300.3600, 257.7386
300.8422, 258.8617
301.3243, 260.1334
301.8064, 261.0760
302.2885, 261.4048
302.7706, 261.5492
303.2527, 261.9826
303.7349, 262.7184
304.2170, 263.5966
304.6991, 264.7781
305.1812, 265.9374
305.6633, 266.5626
306.1454, 266.3937
306.6276, 266.1724
307.1097, 266.4879
307.5918, 267.3268
308.0739, 268.5385
308.5560, 270.3906
309.0381, 272.3073
309.5203, 273.6974
310.0024, 274.5390
310.4845, 274.9828
310.9666, 275.1281
311.4487, 274.9620
311.9308, 274.2970
312.4130, 272.6750
312.8951, 271.1754
313.3772, 271.0151
313.8593, 271.9818
314.3414, 272.7072
314.8235, 272.5089
315.3057, 271.5693
315.7878, 270.2129
316.2699, 268.2194
316.7520, 266.4182
317.2341, 265.7199
317.7162, 265.6812
318.1984, 265.3353
318.6805, 264.1404
319.1626, 262.5352
319.6447, 261.2472
320.1268, 260.3567
320.6089, 259.3843
321.0911, 257.7736
321.5732, 255.9890
322.0553, 254.7362
322.5374, 254.3463
323.0195, 254.2024
323.5016, 253.5453
323.9838, 252.3636
324.4659, 251.6038
324.9480, 251.9962
325.4301, 252.7403
325.9122, 252.7627
326.3943, 251.8649
326.8765, 251.0024
327.3586, 251.0170
327.8407, 251.7315
328.3228, 252.1121
328.8049, 251.7133
329.2870, 251.2064
329.7692, 251.2754
330.2513, 251.8763
330.7334, 252.6225
331.2155, 253.3495
331.6976, 254.0855
332.1797, 254.9741
332.6619, 256.1523
333.1440, 257.1367
333.6261, 257.1974
334.1082, 256.7259
334.5903, 256.6829
335.0724, 257.7406
335.5546, 259.1866
336.0367, 259.9637
336.5188, 259.9795
337.0009, 260.2390
337.4830, 261.3651
337.9651, 263.1328
338.4473, 265.0985
338.9294, 267.2785
339.4115, 269.5513
339.8936, 272.0004
340.3757, 274.5577
340.8578, 276.5676
341.3400, 277.5409
341.8221, 278.1010
342.3042, 279.1318
342.7863, 280.6172
343.2684, 282.5704
343.7505, 285.0542
344.2327, 288.0082
344.7148, 291.4579
345.1969, 295.6289
345.6790, 299.6969
346.1611, 302.3389
346.6432, 303.8061
347.1254, 305.7822
347.6075, 309.2022
348.0896, 313.1182
348.5717, 316.0793
349.0538, 317.9316
349.5359, 320.1211
350.0181, 323.8821
350.5002, 328.9470
350.9823, 333.8215
351.4644, 338.5274
351.9465, 342.9102
352.4286, 346.8127
352.9108, 350.2769
353.3929, 353.5635
353.8750, 356.7328
354.3571, 359.8375
354.8392, 363.0379
355.3214, 366.4315
355.8035, 369.6867
356.2856, 372.7854
356.7677, 375.6372
357.2498, 378.1422
357.7319, 380.3062
358.2141, 381.9290
358.6962, 382.5485
359.1783, 381.9540
359.6604, 381.7236
360.1425, 382.5038
360.6246, 383.4367
361.1068, 383.8686
361.5889, 383.6986
362.0710, 382.8582
362.5531, 381.2272
363.0352, 378.7783
363.5173, 376.1546
363.9995, 373.5102
364.4816, 370.5509
364.9637, 366.9351
365.4458, 362.8843
365.9279, 358.9956
366.4100, 355.6217
366.8922, 352.5259
367.3743, 348.9690
367.8564, 344.2523
368.3385, 340.0809
368.8206, 337.1398
369.3027, 334.6515
369.7849, 331.6889
370.2670, 328.0171
370.7491, 324.1150
371.2312, 320.6851
371.7133, 318.0720
372.1954, 314.9113
372.6776, 310.5617
373.1597, 306.2577
373.6418, 302.6336
374.1239, 299.7458
374.6060, 297.4608
375.0881, 295.7365
375.5703, 294.5501
376.0524, 292.8442
376.5345, 289.9538
377.0166, 287.3092
377.4987, 285.2484
377.9808, 283.6219
378.4630, 282.2724
378.9451, 281.1308
379.4272, 280.0175
379.9093, 278.4737
380.3914, 276.0171
380.8735, 273.9240
381.3557, 272.3829
381.8378, 271.0773
382.3199, 269.8474
382.8020, 268.6212
383.2841, 267.3080
383.7662, 265.7073
384.2484, 263.6734
384.7305, 262.3344
385.2126, 262.5414
385.6947, 262.6407
386.1768, 261.8821
386.6589, 260.6288
387.1411, 259.7238
387.6232, 259.7625
388.1053, 260.3723
388.5874, 260.1706
389.0695, 258.6991
389.5516, 257.2572
390.0338, 255.8379
390.5159, 254.7342
390.9980, 254.4686
391.4801, 255.1652
391.9622, 255.8926
392.4443, 255.2482
392.9265, 253.0178
393.4086, 251.5465
393.8907, 252.0141
394.3728, 252.4753
394.8549, 251.6050
395.3370, 249.6797
395.8192, 247.9164
396.3013, 247.1521
396.7834, 247.1413
397.2655, 247.0843
397.7476, 246.9332
398.2297, 246.8607
398.7119, 247.2955
399.1940, 247.7616
399.6761, 247.5224
400.1582, 246.1548
400.6403, 244.5687
401.1224, 243.6786
401.6046, 243.4472
402.0867, 243.3993
402.5688, 243.5334
403.0509, 243.6330
403.5330, 243.4012
404.0151, 242.8309
404.4973, 242.3176
404.9794, 242.2425
405.4615, 242.2785
405.9436, 241.7063
406.4257, 240.3637
406.9078, 239.1082
407.3900, 238.7930
407.8721, 239.2163
408.3542, 239.2441
408.8363, 238.4605
409.3184, 237.5691
409.8005, 237.0638
410.2827, 236.8427
410.7648, 236.5556
411.2469, 236.0512
411.7290, 235.3883
412.2111, 234.6364
412.6932, 233.5799
413.1754, 232.9608
413.6575, 233.3751
414.1396, 234.0371
414.6217, 234.0469
415.1038, 233.2835
415.5859, 232.3378
416.0681, 231.7985
416.5502, 231.7158
417.0323, 231.5005
417.5144, 231.0208
417.9965, 230.5676
418.4786, 230.3137
418.9608, 230.1673
419.4429, 229.9914
419.9250, 229.7278
420.4071, 229.2885
420.8892, 228.3791
421.3713, 226.1505
421.8535, 224.7843
422.3356, 225.1046
422.8177, 225.7126
423.2998, 225.4168
423.7819, 224.1465
424.2640, 222.7545
424.7462, 222.1200
425.2283, 222.2855
425.7104, 222.5464
426.1925, 223.2513
426.6746, 223.6568
427.1567, 223.2800
427.6389, 222.5292
428.1210, 222.0942
428.6031, 222.3549
429.0852, 222.8855
429.5673, 222.7779
430.0494, 221.8463
430.5316, 220.9530
431.0137, 220.5576
431.4958, 220.0840
431.9779, 218.8308
432.4600, 216.8824
432.9421, 215.4808
433.4243, 216.0021
433.9064, 217.9480
434.3885, 219.1493
434.8706, 219.3924
435.3527, 219.1584
435.8348, 218.2515
436.3170, 217.1574
436.7991, 216.7827
437.2812, 217.7084
437.7633, 218.9141
438.2454, 219.6339
438.7275, 219.8581
439.2097, 219.3731
439.6918, 217.7866
440.1739, 215.9323
440.6560, 215.1115
441.1381, 215.3342
441.6202, 215.7343
442.1024, 216.2859
442.5845, 216.7755
443.0666, 216.8442
443.5487, 216.4963
444.0308, 216.2369
444.5129, 216.5127
444.9951, 217.2316
445.4772, 217.5159
445.9593, 217.0036
446.4414, 216.5463
446.9235, 216.5491
447.4056, 216.7259
447.8878, 216.5457
448.3699, 215.8391
448.8520, 215.0566
449.3341, 214.9377
449.8162, 215.9075
450.2983, 216.3275
450.7805, 215.5364
451.2626, 214.8881
451.7447, 215.3879
452.2268, 216.6543
452.7089, 217.5254
453.1910, 217.1585
453.6732, 215.9246
454.1553, 215.4380
454.6374, 216.3735
455.1195, 216.9086
455.6016, 216.4096
456.0837, 215.6646
456.5659, 215.2923
457.0480, 215.4182
457.5301, 215.8415
458.0122, 216.5796
458.4943, 217.6164
458.9764, 217.9000
459.4586, 216.8975
459.9407, 215.8784
460.4228, 215.5895
460.9049, 215.7263
461.3870, 215.7783
461.8691, 215.6370
462.3513, 215.2257
462.8334, 214.0722
463.3155, 212.2387
463.7976, 211.4756
464.2797, 212.8907
464.7618, 214.9428
465.2440, 215.6755
465.7261, 215.0988
466.2082, 214.2755
466.6903, 213.2998
467.1724, 212.4075
467.6545, 211.8596
468.1367, 211.6805
468.6188, 211.8724
469.1009, 212.5585
469.5830, 213.5860
470.0651, 214.1942
470.5472, 214.0174
471.0294, 213.9406
471.5115, 214.5149
471.9936, 215.1762
472.4757, 214.9680
472.9578, 213.7228
473.4399, 212.4763
473.9221, 212.5555
474.4042, 214.2979
474.8863, 215.4068
475.3684, 215.3685
475.8505, 215.3294
476.3326, 215.9614
476.8148, 216.8305
477.2969, 217.0488
477.7790, 216.1612
478.2611, 214.8077
478.7432, 214.4230
479.2253, 215.4129
479.7075, 216.2290
480.1896, 216.5796
480.6717, 216.8140
481.1538, 217.0774
481.6359, 217.3890
482.1180, 217.7334
482.6002, 218.0632
483.0823, 218.4282
483.5644, 219.0096
484.0465, 219.8625
484.5286, 220.7275
485.0107, 221.6108
485.4929, 222.3753
485.9750, 222.8109
486.4571, 222.8337
486.9392, 222.8332
487.4213, 222.9792
487.9034, 223.2805
488.3856, 223.8517
488.8677, 224.7622
489.3498, 225.5416
489.8319, 225.6557
490.3140, 225.1857
490.7961, 225.2252
491.2783, 226.4095
491.7604, 227.4270
492.2425, 227.5288
492.7246, 227.0753
493.2067, 226.6667
493.6888, 226.5135
494.1710, 226.6830
494.6531, 227.3560
495.1352, 228.8967
495.6173, 229.7608
496.0994, 229.2271
496.5815, 228.8169
497.0637, 229.4532
497.5458, 230.7800
498.0279, 232.0118
498.5100, 232.7390
498.9921, 232.9299
499.4742, 232.3423
499.9564, 230.3965
500.4385, 229.1547
500.9206, 229.3666
501.4027, 229.9920
501.8848, 230.5349
502.3669, 230.9294
502.8491, 231.2250
503.3312, 231.5629
503.8133, 231.8046
504.2954, 231.4438
504.7775, 230.3257
505.2596, 229.3574
505.7418, 229.1167
506.2239, 229.1877
506.7060, 228.8697
507.1881, 227.9561
507.6702, 227.3945
508.1523, 227.9895
508.6345, 229.1368
509.1166, 229.8631
509.5987, 230.0254
510.0808, 229.8524
510.5629, 229.4656
511.0450, 228.8878
511.5272, 228.3914
512.0093, 228.2037
512.4914, 227.8139
512.9735, 226.6609
513.4556, 225.3858
513.9377, 225.0122
514.4199, 225.7430
514.9020, 226.6558
515.3841, 226.5149
515.8662, 225.0855
516.3483, 224.2274
516.8304, 224.5361
517.3126, 224.8031
517.7947, 224.6941
518.2768, 224.3338
518.7589, 223.9232
519.2410, 223.5403
519.7231, 223.1526
520.2053, 222.6221
520.6874, 221.9152
521.1695, 221.5926
521.6516, 221.9017
522.1337, 222.4013
522.6158, 223.0254
523.0980, 223.6071
523.5801, 223.6280
524.0622, 222.4782
524.5443, 221.1123
525.0264, 220.6036
525.5085, 220.8204
525.9907, 221.0409
526.4728, 221.0580
526.9549, 220.8727
527.4370, 220.3646
527.9191, 219.4033
528.4012, 218.9441
528.8834, 219.5194
529.3655, 220.2518
529.8476, 220.5127
530.3297, 220.4049
530.8118, 220.3878
531.2939, 220.7273
531.7761, 221.1815
532.2582, 221.1168
532.7403, 220.2089
533.2224, 219.3544
533.7045, 218.2876
534.1866, 217.5105
534.6688, 217.5297
535.1509, 218.1251
535.6330, 218.6345
536.1151, 218.6634
536.5972, 218.2652
537.0793, 217.4918
537.5615, 216.2254
538.0436, 215.0934
538.5257, 214.4205
539.0078, 213.8575
539.4899, 213.0581
539.9720, 212.0289
540.4542, 211.1103
540.9363, 210.7108
541.4184, 210.4035
541.9005, 209.4901
542.3826, 207.9775
542.8647, 206.4126
543.3469, 204.9589
543.8290, 203.7492
544.3111, 203.2594
544.7932, 204.0605
545.2753, 204.1472
545.7574, 202.7339
546.2396, 200.8506
546.7217, 199.0872
547.2038, 197.6544
547.6859, 196.9359
548.1680, 197.2763
548.6501, 198.3832
549.1323, 199.0069
549.6144, 199.3623
550.0965, 198.7831
550.5786, 196.4941
551.0607, 193.9211
551.5428, 191.9752
552.0250, 190.7655
552.5071, 190.0444
552.9892, 189.7378
553.4713, 189.7478
553.9534, 189.8138
554.4355, 189.9513
554.9177, 190.0697
555.3998, 190.1591
555.8819, 190.1877
556.3640, 190.1835
556.8461, 190.1787
557.3282, 189.8643
557.8104, 188.9330
558.2925, 187.7361
558.7746, 186.4780
559.2567, 185.2607
559.7388, 184.6988
560.2209, 185.3011
560.7031, 186.5927
561.1852, 187.0603
561.6673, 186.0137
562.1494, 185.0798
562.6315, 184.1998
563.1136, 183.5012
563.5958, 183.1939
564.0779, 183.1761
564.5600, 183.1159
565.0421, 182.7807
565.5242, 182.2254
566.0063, 181.5967
566.4885, 180.8236
566.9706, 180.1913
567.4527, 179.6709
567.9348, 179.4031
568.4169, 179.6438
568.8990, 180.3159
569.3812, 180.8786
569.8633, 181.0263
570.3454, 180.9094
570.8275, 180.7014
571.3096, 180.4097
571.7917, 180.0869
572.2739, 179.7248
572.7560, 179.3867
573.2381, 179.1853
573.7202, 179.1268
574.2023, 179.1661
574.6844, 179.4719
575.1666, 179.7261
575.6487, 179.6312
576.1308, 179.3007
576.6129, 179.0547
577.0950, 179.0610
577.5771, 179.2273
578.0593, 179.4438
578.5414, 180.0079
579.0235, 179.8006
579.5056, 177.5736
579.9877, 175.6742
580.4698, 175.4591
580.9520, 176.3931
581.4341, 177.1421
581.9162, 177.1051
582.3983, 176.6373
582.8804, 176.0651
583.3625, 175.4183
583.8447, 175.1035
584.3268, 175.3481
584.8089, 175.6397
585.2910, 175.2770
585.7731, 174.3657
586.2552, 174.0324
586.7374, 175.2502
587.2195, 176.1535
587.7016, 175.1639
588.1837, 173.3596
588.6658, 172.8738
589.1479, 174.2813
589.6301, 176.0135
590.1122, 175.9959
590.5943, 173.9254
591.0764, 173.0273
591.5585, 174.5807
592.0406, 175.8415
592.5228, 176.0466
593.0049, 175.6694
593.4870, 175.1824
593.9691, 174.7222
594.4512, 174.4368
594.9333, 174.5937
595.4155, 175.0657
595.8976, 175.2624
596.3797, 175.0935
596.8618, 174.9229
597.3439, 175.0767
597.8260, 175.3214
598.3082, 175.0818
598.7903, 174.1293
599.2724, 173.2755
599.7545, 172.6637
600.2366, 172.3512
600.7188, 172.5991
601.2009, 173.2911
601.6830, 173.7996
602.1651, 173.6711
602.6472, 173.1137
603.1293, 172.9205
603.6115, 173.4242
604.0936, 173.6769
604.5757, 173.3158
605.0578, 172.9725
605.5399, 173.1275
606.0220, 173.6562
606.5042, 174.0806
606.9863, 174.1337
607.4684, 173.9414
607.9505, 173.5884
608.4326, 173.0856
608.9147, 172.9163
609.3969, 173.3169
609.8790, 173.8886
610.3611, 174.2665
610.8432, 174.4562
611.3253, 174.4132
611.8074, 174.1169
612.2896, 173.6037
612.7717, 172.6230
613.2538, 171.5138
613.7359, 170.8430
614.2180, 170.7737
614.7001, 171.0779
615.1823, 171.5175
615.6644, 172.0992
616.1465, 172.6844
616.6286, 173.4112
617.1107, 173.9347
617.5928, 174.1558
618.0750, 174.1527
618.5571, 173.9336
619.0392, 173.5161
619.5213, 173.1389
620.0034, 172.9906
620.4855, 173.0105
620.9677, 172.9725
621.4498, 172.8557
621.9319, 173.2061
622.4140, 174.5511
622.8961, 176.2520
623.3782, 176.8502
623.8604, 175.9702
624.3425, 175.3351
624.8246, 174.9082
625.3067, 174.9859
625.7888, 176.2150
626.2709, 178.0875
626.7531, 179.3980
627.2352, 179.5386
627.7173, 179.0933
628.1994, 179.1147
628.6815, 179.6931
629.1636, 180.2196
629.6458, 180.4895
630.1279, 180.9341
630.6100, 182.0520
631.0921, 183.4051
631.5742, 184.0993
632.0563, 183.6396
632.5385, 183.3285
633.0206, 184.3908
633.5027, 186.1927
633.9848, 187.4529
634.4669, 187.9908
634.9490, 188.3793
635.4312, 189.0379
635.9133, 189.8899
636.3954, 190.5763
636.8775, 191.0683
637.3596, 191.4151
637.8417, 191.2682
638.3239, 191.2596
638.8060, 192.0283
639.2881, 193.3687
639.7702, 194.5007
640.2523, 194.8993
640.7344, 194.9805
641.2166, 195.5485
641.6987, 196.6238
642.1808, 197.8169
642.6629, 199.2983
643.1450, 200.4865
643.6271, 200.5677
644.1093, 199.8604
644.5914, 199.5130
645.0735, 199.8775
645.5556, 200.4080
646.0377, 200.9827
646.5198, 201.5148
647.0020, 201.8509
647.4841, 201.9762
647.9662, 202.0325
648.4483, 202.1558
648.9304, 202.3162
649.4125, 202.2434
649.8947, 201.5058
650.3768, 201.3644
650.8589, 202.8067
651.3410, 204.2742
651.8231, 204.6378
652.3052, 203.9641
652.7874, 203.0508
653.2695, 202.2116
653.7516, 201.4102
654.2337, 200.6797
654.7158, 199.9724
655.1979, 198.9407
655.6801, 197.3986
656.1622, 196.0557
656.6443, 195.8451
657.1264, 196.8723
657.6085, 196.9824
658.0906, 195.2693
658.5728, 193.9093
659.0549, 193.7043
659.5370, 193.9259
660.0191, 193.7462
660.5012, 193.0894
660.9833, 192.5337
661.4655, 192.6732
661.9476, 193.2051
662.4297, 193.0942
662.9118, 192.2422
663.3939, 191.5313
663.8760, 191.2647
664.3582, 191.2149
664.8403, 191.1665
665.3224, 191.1171
665.8045, 190.9910
666.2866, 190.6897
666.7687, 190.3996
667.2509, 190.2029
667.7330, 190.0951
668.2151, 190.0561
668.6972, 190.0837
669.1793, 190.2336
669.6614, 190.6591
670.1436, 191.2960
670.6257, 191.1172
671.1078, 189.4252
671.5899, 188.3604
672.0720, 189.1333
672.5541, 190.3300
673.0363, 190.8380
673.5184, 190.6448
674.0005, 190.4442
674.4826, 190.5730
674.9647, 190.7944
675.4468, 190.9658
675.9290, 191.0353
676.4111, 190.7615
676.8932, 190.0615
677.3753, 189.3647
677.8574, 189.1836
678.3395, 189.5356
678.8217, 189.9583
679.3038, 190.6513
679.7859, 191.1557
680.2680, 191.2315
680.7501, 191.1962
681.2322, 191.2813
681.7144, 191.5368
682.1965, 191.9859
682.6786, 192.8111
683.1607, 193.7202
683.6428, 194.1812
684.1249, 194.2411
684.6071, 194.1975
685.0892, 194.0407
685.5713, 194.1874
686.0534, 195.1906
686.5355, 197.1047
687.0176, 198.8728
687.4998, 200.8105
687.9819, 202.2170
688.4640, 202.5308
688.9461, 202.4698
689.4282, 202.7046
689.9103, 203.3431
690.3925, 204.1520
690.8746, 204.9007
691.3567, 205.7453
691.8388, 207.2252
692.3209, 209.3808
692.8030, 211.1027
693.2852, 211.9220
693.7673, 212.5629
694.2494, 213.9220
694.7315, 215.9202
695.2136, 217.2701
695.6957, 217.3502
696.1779, 217.4817
696.6600, 218.1441
697.1421, 219.0771
697.6242, 220.1602
698.1063, 221.2500
698.5884, 221.9425
699.0706, 221.8461
699.5527, 221.2773
700.0348, 221.2711
700.5169, 222.0005
700.9990, 222.1341
701.4811, 221.1819
701.9633, 219.8926
702.4454, 218.8241
702.9275, 217.9306
703.4096, 217.0659
703.8917, 216.5471
704.3738, 215.5924
704.8560, 213.3988
705.3381, 210.8553
705.8202, 209.0723
706.3023, 208.0858
706.7844, 207.2128
707.2665, 206.0108
707.7487, 204.5200
708.2308, 202.8763
708.7129, 201.0864
709.1950, 199.0740
709.6771, 196.5111
710.1592, 194.1537
710.6414, 192.6685
711.1235, 191.7061
711.6056, 190.5337
712.0877, 188.9989
712.5698, 187.3249
713.0519, 185.5113
713.5341, 183.6988
714.0162, 182.0355
714.4983, 180.5436
714.9804, 179.1982
715.4625, 177.9801
715.9446, 176.8854
716.4268, 175.9536
716.9089, 175.2846
717.3910, 174.2735
717.8731, 172.3829
718.3552, 170.8615
718.8373, 170.6841
719.3195, 171.0494
719.8016, 170.7305
720.2837, 169.4196
720.7658, 168.2077
721.2479, 167.6880
721.7300, 167.4774
722.2122, 167.3698
722.6943, 167.2102
723.1764, 166.5329
723.6585, 165.1281
724.1406, 163.4350
724.6227, 162.0690
725.1049, 161.0003
725.5870, 160.4923
726.0691, 160.8313
726.5512, 161.2757
727.0333, 161.7698
727.5154, 162.1251
727.9976, 162.0722
728.4797, 161.6006
728.9618, 161.1311
729.4439, 160.7961
729.9260, 160.5767
730.4081, 160.6576
730.8903, 160.8178
731.3724, 160.3110
731.8545, 158.9850
732.3366, 157.9609
732.8187, 158.6119
733.3008, 160.7057
733.7830, 161.3421
734.2651, 159.7333
734.7472, 158.3721
735.2293, 158.0907
735.7114, 158.0081
736.1935, 157.4592
736.6757, 156.5455
737.1578, 155.7923
737.6399, 155.1345
738.1220, 154.9777
738.6041, 156.2337
739.0862, 157.9101
739.5684, 158.2057
740.0505, 157.0228
740.5326, 155.7176
741.0147, 155.2560
741.4968, 155.4257
741.9789, 155.6375
742.4611, 155.9691
742.9432, 156.0450
743.4253, 155.6975
743.9074, 155.2499
744.3895, 154.8326
744.8716, 154.4606
745.3538, 154.1653
745.8359, 153.9596
746.3180, 153.8055
746.8001, 153.7645
747.2822, 153.7116
747.7643, 153.6092
748.2465, 153.3802
748.7286, 152.6965
749.2107, 151.4095
749.6928, 150.1418
750.1749, 149.9860
750.6570, 151.0238
751.1392, 151.4121
751.6213, 150.9374
752.1034, 150.3012
752.5855, 149.7248
753.0676, 149.1584
753.5497, 148.5087
754.0319, 147.7687
754.5140, 147.1685
754.9961, 146.8895
755.4782, 146.6320
755.9603, 146.0996
756.4424, 145.5193
756.9246, 145.3233
757.4067, 145.5463
757.8888, 145.7299
758.3709, 145.4060
758.8530, 144.8230
759.3351, 145.0246
759.8173, 146.1889
760.2994, 146.5278
760.7815, 145.2767
761.2636, 143.8132
761.7457, 143.4117
762.2278, 143.8178
762.7100, 143.7416
763.1921, 142.7532
763.6742, 141.9139
764.1563, 141.3091
764.6384, 141.0798
765.1205, 141.6881
765.6027, 142.7540
766.0848, 143.2887
766.5669, 142.8181
767.0490, 141.9539
767.5311, 141.3796
768.0132, 141.0960
768.4954, 141.2983
768.9775, 142.1111
769.4596, 142.3300
769.9417, 141.1147
770.4238, 139.3550
770.9059, 138.6019
771.3881, 139.0964
771.8702, 139.7104
772.3523, 140.9619
772.8344, 141.7179
773.3165, 141.2893
773.7986, 140.3343
774.2808, 139.3286
774.7629, 138.4985
775.2450, 138.3758
775.7271, 139.9078
776.2092, 141.7786
776.6913, 141.7864
777.1735, 140.3674
777.6556, 139.2650
778.1377, 138.8720
778.6198, 138.9189
779.1019, 139.2346
779.5840, 139.7537
780.0662, 140.1369
780.5483, 140.3037
781.0304, 140.4859
781.5125, 140.9054
781.9946, 141.1313
782.4767, 140.9071
782.9589, 140.3491
783.4410, 139.5638
783.9231, 138.4360
784.4052, 137.8040
784.8873, 138.8125
785.3694, 140.1646
785.8516, 140.1012
786.3337, 138.8997
786.8158, 137.8252
787.2979, 137.3856
787.7800, 137.2772
788.2621, 137.1027
788.7443, 136.8714
789.2264, 136.8142
789.7085, 136.8911
790.1906, 137.2894
790.6727, 138.4815
791.1548, 139.6174
791.6370, 139.7089
792.1191, 138.9113
792.6012, 138.2995
793.0833, 138.3380
793.5654, 138.2004
794.0475, 137.2733
794.5297, 136.2292
795.0118, 135.7218
795.4939, 135.7720
795.9760, 136.1904
796.4581, 136.9320
796.9402, 137.5952
797.4224, 137.3782
797.9045, 136.4589
798.3866, 136.0763
798.8687, 136.3717
799.3508, 136.8645
799.8329, 137.3835
800.3151, 137.8468
800.7972, 138.1162
801.2793, 138.2250
801.7614, 137.9979
802.2435, 136.9409
802.7256, 136.1861
803.2078, 136.1476
803.6899, 136.5172
804.1720, 137.1563
804.6541, 137.9316
805.1362, 138.3611
805.6183, 137.9252
806.1005, 137.3349
806.5826, 137.4609
807.0647, 137.9713
807.5468, 138.1092
808.0289, 137.7589
808.5110, 137.1867
808.9932, 136.5365
809.4753, 135.9411
809.9574, 135.8074
810.4395, 136.2776
810.9216, 136.5593
811.4037, 136.5270
811.8859, 136.4461
812.3680, 136.3666
812.8501, 136.3566
813.3322, 136.5698
813.8143, 137.0630
814.2964, 137.3997
814.7786, 137.5676
815.2607, 137.4595
815.7428, 136.8432
816.2249, 135.9913
816.7070, 135.0944
817.1891, 134.3152
817.6713, 134.1609
818.1534, 135.2915
818.6355, 136.8690
819.1176, 137.0809
819.5997, 136.1252
820.0818, 135.5605
820.5640, 135.6685
821.0461, 136.1386
821.5282, 136.8776
822.0103, 137.6785
822.4924, 137.8855
822.9745, 137.1501
823.4567, 136.5972
823.9388, 136.3328
824.4209, 136.1264
824.9030, 135.8636
825.3851, 135.6295
825.8672, 135.6325
826.3494, 135.8881
826.8315, 135.8857
827.3136, 134.9987
827.7957, 134.1270
828.2778, 134.2610
828.7599, 134.8864
829.2421, 135.0310
829.7242, 134.5358
830.2063, 133.8432
830.6884, 133.2553
831.1705, 132.7886
831.6526, 132.4889
832.1348, 132.3588
832.6169, 132.3468
833.0990, 132.4860
833.5811, 132.6088
834.0632, 132.5924
834.5453, 132.5108
835.0275, 132.5316
835.5096, 132.6939
835.9917, 132.8408
836.4738, 133.0020
836.9559, 133.1103
837.4380, 133.1961
837.9202, 133.1824
838.4023, 132.8075
838.8844, 132.1615
839.3665, 131.9427
839.8486, 132.8692
840.3307, 133.9600
840.8129, 134.2004
841.2950, 133.8812
841.7771, 133.4612
842.2592, 133.0672
842.7413, 132.9732
843.2234, 133.4083
843.7056, 133.8944
844.1877, 133.1759
844.6698, 131.0619
845.1519, 130.3153
845.6340, 131.5481
846.1161, 132.6213
846.5983, 132.4976
847.0804, 131.8897
847.5625, 131.8355
848.0446, 132.3797
848.5267, 132.6737
849.0089, 132.5763
849.4910, 132.3627
849.9731, 131.9129
850.4552, 131.5307
850.9373, 131.6150
851.4194, 132.0184
851.9016, 132.2170
852.3837, 131.9760
852.8658, 131.4987
853.3479, 130.6575
853.8300, 129.8481
854.3121, 129.9659
854.7943, 130.8610
855.2764, 131.5681
855.7585, 131.6678
856.2406, 131.4893
856.7227, 131.4892
857.2048, 131.6296
857.6870, 131.3120
858.1691, 130.3409
858.6512, 129.7132
859.1333, 129.8119
859.6154, 130.1094
860.0975, 130.1993
860.5797, 130.0951
861.0618, 129.8842
861.5439, 129.2657
862.0260, 129.0444
862.5081, 129.9084
862.9902, 130.5833
863.4724, 129.9805
863.9545, 128.8009
864.4366, 128.3113
864.9187, 128.8024
865.4008, 129.3007
865.8829, 129.0514
866.3651, 128.5617
866.8472, 128.3843
867.3293, 128.4411
867.8114, 128.5613
868.2935, 128.6871
868.7756, 128.7317
869.2578, 128.6208
869.7399, 128.4105
870.2220, 128.1450
870.7041, 127.7999
871.1862, 128.0932
871.6683, 129.3742
872.1505, 130.2069
872.6326, 129.7296
873.1147, 128.5141
873.5968, 127.4361
874.0789, 126.4476
874.5610, 125.8746
875.0432, 125.9185
875.5253, 126.0943
876.0074, 126.6041
876.4895, 126.9552
876.9716, 126.4928
877.4537, 125.4762
877.9359, 124.9458
878.4180, 125.4254
878.9001, 126.0097
879.3822, 126.2823
879.8643, 126.2656
880.3464, 125.7666
880.8286, 125.0220
881.3107, 124.6948
881.7928, 124.9972
882.2749, 125.3611
882.7570, 125.1073
883.2391, 124.4674
883.7213, 124.1669
884.2034, 124.1917
884.6855, 124.3847
885.1676, 124.7553
885.6497, 124.9374
886.1318, 124.5901
886.6140, 123.8980
887.0961, 123.4740
887.5782, 123.3156
888.0603, 123.4556
888.5424, 124.2865
889.0245, 124.8716
889.5067, 124.7609
889.9888, 124.2550
890.4709, 123.5167
890.9530, 122.5655
891.4351, 122.1195
891.9172, 122.9884
892.3994, 123.5605
892.8815, 122.7008
893.3636, 121.6014
893.8457, 121.6189
894.3278, 122.4724
894.8099, 122.9143
895.2921, 122.3617
895.7742, 121.7449
896.2563, 122.2054
896.7384, 123.0513
897.2205, 122.9746
897.7026, 122.1505
898.1848, 121.5338
898.6669, 121.4087
899.1490, 121.2146
899.6311, 120.2904
900.1132, 119.0074
900.5953, 118.9475
901.0775, 120.2502
901.5596, 121.1510
902.0417, 121.3258
902.5238, 121.3720
903.0059, 121.7225
903.4880, 122.0839
903.9702, 121.7753
904.4523, 120.4976
904.9344, 119.7565
905.4165, 119.9336
905.8986, 120.1514
906.3807, 120.1779
906.8629, 120.1977
907.3450, 120.5489
907.8271, 121.0673
908.3092, 121.0225
908.7913, 119.8065
909.2734, 118.8805
909.7556, 119.1376
910.2377, 119.7530
910.7198, 120.0857
911.2019, 120.1699
911.6840, 120.1760
912.1661, 120.1667
912.6483, 120.1858
913.1304, 120.3732
913.6125, 120.5198
914.0946, 119.9693
914.5767, 119.0967
915.0588, 119.4559
915.5410, 121.1407
916.0231, 122.1734
916.5052, 121.2114
916.9873, 119.4296
917.4694, 119.2883
917.9515, 120.8761
918.4337, 121.5601
918.9158, 121.1663
919.3979, 120.5765
919.8800, 119.9640
920.3621, 119.5230
920.8442, 119.5158
921.3264, 119.8942
921.8085, 120.1519
922.2906, 120.3362
922.7727, 120.3205
923.2548, 119.9081
923.7369, 119.5130
924.2191, 119.2371
924.7012, 119.1439
925.1833, 119.3735
925.6654, 119.9535
926.1475, 120.5081
926.6296, 121.1900
927.1118, 121.5055
927.5939, 121.0205
928.0760, 120.1712
928.5581, 119.1452
929.0402, 118.2117
929.5223, 118.0426
930.0045, 119.0324
930.4866, 120.1546
930.9687, 120.4736
931.4508, 120.3338
931.9329, 120.1711
932.4150, 120.0338
932.8972, 120.0107
933.3793, 120.1075
933.8614, 120.1445
934.3435, 119.9545
934.8256, 119.6207
935.3077, 119.2702
935.7899, 118.9241
936.2720, 118.9142
936.7541, 119.2926
937.2362, 119.8974
937.7183, 120.7692
938.2004, 121.4267
938.6826, 121.0141
939.1647, 119.4907
939.6468, 118.7900
940.1289, 119.0656
940.6110, 119.8668
941.0931, 121.9882
941.5753, 123.4538
942.0574, 122.1506
942.5395, 119.2699
943.0216, 118.1224
943.5037, 119.3631
943.9858, 120.3488
944.4680, 120.7272
944.9501, 120.9935
945.4322, 121.3391
945.9143, 121.6605
946.3964, 121.9239
946.8785, 122.0685
947.3607, 121.8426
947.8428, 120.8365
948.3249, 120.1523
948.8070, 120.5013
949.2891, 121.3420
949.7712, 122.3018
950.2534, 123.3088
950.7355, 124.4986
951.2176, 125.8020
951.6997, 126.4771
952.1818, 125.6210
952.6639, 124.2710
953.1461, 123.7244
953.6282, 123.8204
954.1103, 124.2967
954.5924, 125.0578
955.0745, 125.9571
955.5566, 126.9347
956.0388, 127.6756
956.5209, 127.5731
957.0030, 126.8789
957.4851, 127.0205
957.9672, 127.9922
958.4493, 128.5665
958.9315, 128.4345
959.4136, 128.1578
959.8957, 128.1658
960.3778, 128.2860
960.8599, 128.0170
961.3420, 127.2104
961.8242, 126.7914
962.3063, 126.8676
962.7884, 127.1025
963.2705, 127.6219
963.7526, 127.9330
964.2347, 127.2462
964.7169, 125.8099
965.1990, 125.4563
965.6811, 127.2290
966.1632, 128.4925
966.6453, 128.8336
967.1274, 129.1348
967.6096, 130.0585
968.0917, 130.9823
968.5738, 131.1048
969.0559, 130.3886
969.5380, 129.3661
970.0201, 127.5345
970.5023, 126.2489
970.9844, 126.1772
971.4665, 126.6600
971.9486, 127.4880
972.4307, 128.3491
972.9128, 128.7557
973.3950, 128.5852
973.8771, 128.2119
974.3592, 127.6506
974.8413, 127.1880
975.3234, 127.1194
975.8055, 127.2854
976.2877, 127.5159
976.7698, 127.7441
977.2519, 127.8685
977.7340, 127.8387
978.2161, 127.7813
978.6982, 127.8197
979.1804, 127.9304
979.6625, 128.1398
980.1446, 128.3811
980.6267, 128.4188
981.1088, 128.2161
981.5909, 127.8956
982.0731, 127.5100
982.5552, 127.2417
983.0373, 127.4289
983.5194, 128.0409
984.0015, 129.0258
984.4836, 130.3768
984.9658, 131.1040
985.4479, 130.8345
985.9300, 130.4503
986.4121, 130.7976
986.8942, 131.6239
987.3763, 132.0248
987.8585, 131.9638
988.3406, 131.6690
988.8227, 131.0537
989.3048, 130.5151
989.7869, 130.1387
990.2690, 130.0769
990.7512, 130.6552
991.2333, 131.7780
991.7154, 132.1724
992.1975, 131.1067
992.6796, 130.8923
993.1617, 132.3170
993.6439, 133.7342
994.1260, 134.4653
994.6081, 134.6919
995.0902, 134.5271
995.5723, 133.9445
996.0544, 133.7720
996.5366, 134.4915
997.0187, 134.9759
997.5008, 134.6528
997.9829, 134.4449
998.4650, 135.0610
998.9471, 136.1196
999.4293, 137.0085
999.9114, 137.6563
1000.393, 137.9681
1000.876, 137.4725
1001.358, 137.1995
1001.840, 137.7941
1002.322, 138.6133
1002.804, 139.0925
1003.286, 139.3147
1003.768, 139.6328
1004.250, 140.1524
1004.733, 140.5566
1005.215, 140.6362
1005.697, 140.5788
1006.179, 140.3020
1006.661, 140.1132
1007.143, 140.6172
1007.625, 141.5830
1008.107, 142.1200
1008.589, 141.8324
1009.072, 141.3692
1009.554, 141.2817
1010.036, 141.3104
1010.518, 140.8492
1011.000, 140.3720
1011.482, 141.1357
1011.964, 143.0066
1012.446, 144.4111
1012.929, 144.4725
1013.411, 144.0148
1013.893, 143.9950
1014.375, 144.1898
1014.857, 144.1684
1015.339, 143.9509
1015.821, 143.5546
1016.303, 143.0403
1016.785, 142.8374
1017.268, 143.2916
1017.750, 143.8770
1018.232, 143.8259
1018.714, 143.1625
1019.196, 141.4363
1019.678, 138.9292
1020.160, 138.3983
1020.642, 140.5842
1021.125, 142.9618
1021.607, 143.5552
1022.089, 142.8410
1022.571, 141.6706
1023.053, 140.0825
1023.535, 139.0188
1024.017, 138.5263
1024.499, 138.2224
1024.981, 137.9977
1025.464, 137.8575
1025.946, 137.8289
1026.428, 137.8505
1026.910, 137.7480
1027.392, 137.5293
1027.874, 137.0536
1028.356, 136.2307
1028.838, 135.5775
1029.321, 135.3069
1029.803, 135.1530
1030.285, 134.8198
1030.767, 134.4024
1031.249, 134.4073
1031.731, 135.1014
1032.213, 135.1610
1032.695, 134.3761
1033.177, 133.3524
1033.660, 132.0847
1034.142, 131.0345
1034.624, 130.6944
1035.106, 130.9956
1035.588, 131.5680
1036.070, 132.7420
1036.552, 133.4020
1037.034, 133.5422
1037.516, 133.1115
1037.999, 131.6320
1038.481, 130.0549
1038.963, 129.4558
1039.445, 129.7099
1039.927, 129.8490
1040.409, 129.8245
1040.891, 129.7703
1041.373, 129.5793
1041.855, 129.4974
1042.338, 129.9397
1042.820, 130.2992
1043.302, 129.6994
1043.784, 128.3309
1044.266, 127.6583
1044.748, 128.1111
1045.230, 128.6121
1045.712, 129.5301
1046.195, 129.9793
1046.677, 129.1942
1047.159, 128.0614
1047.641, 127.6245
1048.123, 127.7849
1048.605, 127.5695
1049.087, 126.2441
1049.569, 125.6865
1050.052, 126.8022
1050.534, 127.9866
1051.016, 128.6443
1051.498, 128.8942
1051.980, 128.7516
1052.462, 128.3180
1052.944, 128.0901
1053.426, 128.3827
1053.908, 128.4193
1054.391, 127.9582
1054.873, 127.2798
1055.355, 125.9857
1055.837, 124.9242
1056.319, 125.4923
1056.801, 127.3010
1057.283, 128.0200
1057.765, 126.5575
1058.248, 125.2830
1058.730, 124.6695
1059.212, 124.6694
1059.694, 126.0259
1060.176, 127.4442
1060.658, 127.0995
1061.140, 125.3637
1061.622, 124.4532
1062.104, 125.2343
1062.587, 126.1022
1063.069, 126.7095
1063.551, 126.9804
1064.033, 126.7822
1064.515, 126.2826
1064.997, 125.4336
1065.479, 124.4557
1065.961, 124.0880
1066.443, 124.7858
1066.926, 125.2227
1067.408, 124.7237
1067.890, 123.9613
1068.372, 123.1456
1068.854, 122.4206
1069.336, 121.9420
1069.818, 121.6792
1070.300, 121.5172
1070.782, 121.4712
1071.265, 121.2752
1071.747, 120.6672
1072.229, 120.0402
1072.711, 119.4954
1073.193, 119.1587
1073.675, 119.3735
1074.157, 119.8874
1074.639, 119.9738
1075.122, 119.3824
1075.604, 118.7383
1076.086, 118.4039
1076.568, 118.0088
1077.050, 117.1841
1077.532, 116.3106
1078.014, 115.7448
1078.496, 115.4851
1078.979, 115.5361
1079.461, 115.9331
1079.943, 115.9432
1080.425, 114.7673
1080.907, 113.6849
1081.389, 113.3919
1081.871, 113.5351
1082.353, 114.2260
1082.835, 114.9311
1083.318, 114.4042
1083.800, 112.3938
1084.282, 110.9102
1084.764, 111.1276
1085.246, 111.6880
1085.728, 112.2188
1086.210, 112.5219
1086.692, 112.4226
1087.175, 111.9779
1087.657, 111.2039
1088.139, 110.1442
1088.621, 109.2418
1089.103, 108.7878
1089.585, 108.3632
1090.067, 107.6924
1090.549, 107.0748
1091.031, 106.5383
1091.514, 106.3173
1091.996, 107.1839
1092.478, 108.9327
1092.960, 109.3984
1093.442, 106.7694
1093.924, 104.7989
1094.406, 105.4408
1094.888, 106.5783
1095.370, 107.0754
1095.853, 107.0855
1096.335, 106.7232
1096.817, 106.1426
1097.299, 105.9074
1097.781, 106.3739
1098.263, 106.6598
1098.745, 106.3902
1099.227, 105.9857
1099.709, 105.4823
1100.192, 105.0983
1100.674, 105.2464
1101.156, 105.7038
1101.638, 105.6288
1102.120, 104.6283
1102.602, 103.9925
1103.084, 104.6847
1103.566, 104.9593
1104.049, 103.4869
1104.531, 101.8804
1105.013, 101.6460
1105.495, 102.3412
1105.977, 102.7039
1106.459, 102.4934
1106.941, 102.5762
1107.423, 103.5634
1107.906, 104.2093
1108.388, 104.1229
1108.870, 103.6571
1109.352, 102.7088
1109.834, 101.6868
1110.316, 101.3946
1110.798, 101.9201
1111.280, 102.0592
1111.762, 101.1904
1112.245, 100.7295
1112.727, 101.4287
1113.209, 101.9067
1113.691, 101.0026
1114.173, 99.81699
1114.655, 99.97135
1115.137, 101.3275
1115.619, 101.9423
1116.102, 101.1694
1116.584, 100.8037
1117.066, 101.2696
1117.548, 101.5382
1118.030, 101.0685
1118.512, 100.4640
1118.994, 100.4070
1119.476, 100.6779
1119.958, 100.3573
1120.441, 99.17790
1120.923, 98.24690
1121.405, 97.55161
1121.887, 97.13353
1122.369, 96.96395
1122.851, 97.18159
1123.333, 98.06136
1123.815, 99.22868
1124.297, 99.84939
1124.780, 99.88783
1125.262, 99.85617
1125.744, 99.82076
1126.226, 99.37818
1126.708, 98.24525
1127.190, 97.43116
1127.672, 97.54472
1128.154, 98.16789
1128.636, 98.79844
1129.119, 99.36031
1129.601, 99.06633
1130.083, 97.79216
1130.565, 97.02977
1131.047, 96.95811
1131.529, 97.19215
1132.011, 97.63429
1132.493, 97.91877
1132.976, 97.64590
1133.458, 96.99151
1133.940, 96.33798
1134.422, 95.72292
1134.904, 95.71960
1135.386, 96.32900
1135.868, 97.10190
1136.350, 97.90825
1136.833, 98.54704
1137.315, 98.88768
1137.797, 98.91905
1138.279, 98.65715
1138.761, 98.06694
1139.243, 96.66021
1139.725, 94.78870
1140.207, 94.04397
1140.689, 94.56023
1141.172, 95.41489
1141.654, 96.16080
1142.136, 96.59099
1142.618, 96.34994
1143.100, 95.80131
1143.582, 95.37075
1144.064, 95.18399
1144.546, 95.81566
1145.029, 96.91332
1145.511, 97.25620
1145.993, 96.56230
1146.475, 95.69084
1146.957, 95.11438
1147.439, 94.87817
1147.921, 95.32722
1148.403, 95.89104
1148.885, 95.95234
1149.368, 95.57470
1149.850, 94.60874
1150.332, 93.36790
1150.814, 93.02156
1151.296, 94.20750
1151.778, 95.38517
1152.260, 95.64432
1152.742, 95.56225
1153.224, 95.36150
1153.707, 95.16527
1154.189, 95.14751
1154.671, 95.21048
1155.153, 95.08560
1155.635, 94.71600
1156.117, 94.43288
1156.599, 94.44993
1157.081, 94.41261
1157.563, 94.13302
1158.046, 93.85115
1158.528, 93.73825
1159.010, 93.69897
1159.492, 93.58590
1159.974, 93.40783
1160.456, 93.29528
1160.938, 93.17349
1161.420, 93.28452
1161.903, 93.74710
1162.385, 94.29591
1162.867, 95.15459
1163.349, 95.70947
1163.831, 95.18349
1164.313, 94.17781
1164.795, 94.24404
1165.277, 95.56930
1165.760, 96.38932
1166.242, 96.60387
1166.724, 96.63026
1167.206, 96.53077
1167.688, 96.22137
1168.170, 95.58559
1168.652, 94.91648
1169.134, 94.56487
1169.616, 94.52986
1170.099, 94.92872
1170.581, 95.77158
1171.063, 96.15740
1171.545, 96.02862
1172.027, 96.06929
1172.509, 96.49269
1172.991, 96.84373
1173.473, 96.78544
1173.956, 96.40173
1174.438, 95.67039
1174.920, 94.77479
1175.402, 94.32852
1175.884, 94.26173
1176.366, 94.52879
1176.848, 94.93892
1177.330, 94.45540
1177.813, 92.70287
1178.295, 91.43355
1178.777, 92.48284
1179.259, 94.40556
1179.741, 95.81863
1180.223, 96.65194
1180.705, 96.45822
1181.187, 95.72012
1181.669, 95.48983
1182.151, 95.84863
1182.634, 95.95927
1183.116, 95.35564
1183.598, 94.78368
1184.080, 94.79616
1184.562, 94.85275
1185.044, 94.30793
1185.526, 93.85777
1186.008, 94.51405
1186.490, 95.79190
1186.973, 96.43455
1187.455, 96.20902
1187.937, 95.85454
1188.419, 95.22645
1188.901, 94.91154
1189.383, 95.24940
1189.865, 95.65868
1190.347, 96.03146
1190.830, 96.17740
1191.312, 95.74577
1191.794, 94.89969
1192.276, 94.46200
1192.758, 94.58427
1193.240, 94.58251
1193.722, 94.37266
1194.204, 94.33809
1194.687, 94.69265
1195.169, 94.82555
1195.651, 94.32639
1196.133, 93.41556
1196.615, 92.26495
1197.097, 91.09235
1197.579, 91.56081
1198.061, 93.54311
1198.543, 94.40409
1199.026, 93.96532
1199.508, 93.40794
1199.990, 93.14793
1200.472, 93.18899
1200.954, 93.60688
1201.436, 93.97790
1201.918, 93.51082
1202.400, 92.62105
1202.883, 91.88650
1203.365, 91.51487
1203.847, 92.15816
1204.329, 93.58022
1204.811, 94.80259
1205.293, 95.44975
1205.775, 95.65562
1206.257, 95.27753
1206.740, 94.81731
1207.222, 94.52444
1207.704, 94.42477
1208.186, 94.73129
1208.668, 95.13318
1209.150, 95.19236
1209.632, 94.90027
1210.114, 94.45683
1210.596, 93.74708
1211.078, 93.42144
1211.561, 94.17269
1212.043, 94.54091
1212.525, 93.62242
1213.007, 92.68356
1213.489, 92.55724
1213.971, 92.89062
1214.453, 93.17382
1214.935, 93.40942
1215.417, 93.64228
1215.900, 93.82790
1216.382, 94.26578
1216.864, 95.15315
1217.346, 95.35082
1217.828, 94.33362
1218.310, 93.48294
1218.792, 93.91016
1219.274, 94.90775
1219.757, 95.19966
1220.239, 94.90492
1220.721, 94.48322
1221.203, 93.99552
1221.685, 93.68672
1222.167, 93.62158
1222.649, 94.09225
1223.131, 95.11891
1223.614, 95.77900
1224.096, 95.20651
1224.578, 94.49047
1225.060, 95.25921
1225.542, 96.17410
1226.024, 95.23260
1226.506, 93.56047
1226.988, 93.11282
1227.470, 93.66920
1227.953, 93.69630
1228.435, 92.73929
1228.917, 92.28130
1229.399, 93.33599
1229.881, 94.33839
1230.363, 94.89819
1230.845, 95.12711
1231.327, 94.79357
1231.810, 94.38874
1232.292, 94.67374
1232.774, 95.38236
1233.256, 95.34403
1233.738, 95.68181
1234.220, 96.07093
1234.702, 95.63216
1235.184, 96.37683
1235.667, 95.62869
1236.149, 94.91734
1236.631, 95.06265
1237.113, 94.64293
1237.595, 95.27463
1238.077, 94.83678
1238.559, 95.10547
1239.041, 95.87407
1239.523, 96.01855
1240.005, 95.61948
1240.488, 95.30839
1240.970, 95.21238
1241.452, 95.10638
1241.934, 94.87576
1242.416, 94.86311
1242.898, 95.75487
1243.380, 96.58889
1243.862, 96.27420
1244.344, 95.48183
1244.827, 94.80241
1245.309, 94.30009
1245.791, 93.97973
1246.273, 93.82164
1246.755, 93.74455
1247.237, 93.71447
1247.719, 93.81135
1248.201, 93.95910
1248.684, 94.36861
1249.166, 95.73381
1249.648, 96.62315
1250.130, 95.88386
1250.612, 94.56855
1251.094, 94.07774
1251.576, 94.28507
1252.058, 94.39741
1252.541, 94.41615
1253.023, 94.29951
1253.505, 94.02668
1253.987, 93.88170
1254.469, 93.93363
1254.951, 93.93603
1255.433, 93.74540
1255.915, 93.44721
1256.397, 92.98623
1256.880, 92.71057
1257.362, 93.73267
1257.844, 95.21169
1258.326, 95.38809
1258.808, 94.59702
1259.290, 93.76363
1259.772, 93.17144
1260.254, 93.02007
1260.737, 93.46990
1261.219, 93.72883
1261.701, 92.96711
1262.183, 92.46611
1262.665, 93.27647
1263.147, 94.11729
1263.629, 93.87144
1264.111, 93.19086
1264.594, 92.90721
1265.076, 93.06905
1265.558, 93.86001
1266.040, 95.83430
1266.522, 96.29118
1267.004, 94.68729
1267.486, 93.47811
1267.968, 93.15597
1268.450, 93.17707
1268.932, 93.30081
1269.415, 93.39114
1269.897, 93.24686
1270.379, 93.07018
1270.861, 93.40414
1271.343, 94.09230
1271.825, 94.87381
1272.307, 95.53771
1272.789, 95.31778
1273.271, 94.36666
1273.754, 93.82291
1274.236, 94.09656
1274.718, 94.30795
1275.200, 93.59202
1275.682, 93.09299
1276.164, 93.78266
1276.646, 94.60508
1277.128, 95.11362
1277.611, 95.08903
1278.093, 93.73168
1278.575, 91.73101
1279.057, 91.49879
1279.539, 93.38688
1280.021, 94.64225
1280.503, 95.20650
1280.985, 95.14150
1281.468, 94.21456
1281.950, 93.74023
1282.432, 94.29359
1282.914, 94.86509
1283.396, 94.57639
1283.878, 93.96880
1284.360, 94.21037
1284.842, 94.83371
1285.324, 94.54160
##END=



