##NAMES=Trattnerite
##RRUFFID=R060623
##IDEAL CHEMISTRY=Fe^3+^_2_(Mg_3_Si_12_)O_30_
##LOCALITY=Stradner Kogel Mountain, Wilhelmsdorf, Bad Gleichenberg, Styria, Austria
##OWNER=RRUFF
##SOURCE=Michael Scott
##DESCRIPTION=Isolated dark-blue hexagonal plates
##STATUS=The identification of this mineral is confirmed by single-crystal X-ray diffraction and chemical analysis.
##URL=rruff.info/R060623
##MEASURED CHEMISTRY=([box]_0.90_K_0.10_)_Σ=1_(Fe^3+^_1.96_Cr_0.03_Ti_0.01_)_Σ=2_(Mg_2.08_Fe^2+_0.81_Mn_0.11_)_Σ=3_[(Si_11.88_Al_0.12_)_Σ=12_O_30_] ; dark inclusion: (K_0.53_Na_0.47_)_Σ=1_(Al_0.98_Fe^3+^_0.02_)_Σ=1_(Si_2.99_Al_0.01_)_Σ=3_O_8_
178.3677, 9403.482
178.8498, 9425.449
179.3319, 9451.511
179.8141, 9485.503
180.2962, 9516.803
180.7783, 9528.521
181.2604, 9523.947
181.7425, 9521.618
182.2246, 9536.284
182.7068, 9562.050
183.1889, 9585.188
183.6710, 9601.745
184.1531, 9616.414
184.6352, 9637.178
185.1173, 9663.900
185.5995, 9690.740
186.0816, 9711.072
186.5637, 9727.117
187.0458, 9748.137
187.5279, 9778.622
188.0100, 9813.833
188.4922, 9842.804
188.9743, 9865.691
189.4564, 9883.739
189.9385, 9893.858
190.4206, 9897.796
190.9027, 9909.403
191.3849, 9937.484
191.8670, 9976.333
192.3491, 10004.60
192.8312, 10021.66
193.3133, 10032.46
193.7955, 10040.05
194.2776, 10044.57
194.7597, 10053.32
195.2418, 10072.46
195.7239, 10099.84
196.2060, 10117.22
196.6882, 10122.14
197.1703, 10123.00
197.6524, 10131.67
198.1345, 10148.31
198.6166, 10168.40
199.0987, 10188.35
199.5809, 10208.15
200.0630, 10240.00
200.5451, 10289.75
201.0272, 10342.50
201.5093, 10367.80
201.9914, 10360.33
202.4736, 10352.00
202.9557, 10361.44
203.4378, 10390.74
203.9199, 10412.99
204.4020, 10426.65
204.8841, 10432.70
205.3663, 10429.14
205.8484, 10410.64
206.3305, 10400.85
206.8126, 10421.21
207.2947, 10480.03
207.7768, 10514.80
208.2590, 10511.61
208.7411, 10483.60
209.2232, 10478.90
209.7053, 10505.03
210.1874, 10536.69
210.6695, 10555.89
211.1517, 10558.61
211.6338, 10566.56
212.1159, 10584.89
212.5980, 10611.00
213.0801, 10629.64
213.5622, 10639.60
214.0444, 10644.04
214.5265, 10641.35
215.0086, 10623.89
215.4907, 10625.72
215.9728, 10661.62
216.4549, 10727.20
216.9371, 10761.25
217.4192, 10751.83
217.9013, 10728.00
218.3834, 10714.52
218.8655, 10709.80
219.3476, 10720.48
219.8298, 10754.26
220.3119, 10811.19
220.7940, 10850.05
221.2761, 10863.18
221.7582, 10867.05
222.2403, 10882.12
222.7225, 10917.93
223.2046, 10941.72
223.6867, 10939.87
224.1688, 10908.34
224.6509, 10898.83
225.1330, 10920.57
225.6152, 10955.63
226.0973, 10981.50
226.5794, 10996.67
227.0615, 11005.08
227.5436, 11005.45
228.0257, 10995.30
228.5079, 10992.04
228.9900, 10997.03
229.4721, 11007.89
229.9542, 11021.21
230.4363, 11036.81
230.9185, 11055.40
231.4006, 11080.03
231.8827, 11115.38
232.3648, 11134.86
232.8469, 11128.74
233.3290, 11112.64
233.8112, 11115.16
234.2933, 11149.12
234.7754, 11180.25
235.2575, 11196.04
235.7396, 11191.04
236.2217, 11186.92
236.7039, 11176.99
237.1860, 11171.02
237.6681, 11191.77
238.1502, 11260.44
238.6323, 11322.34
239.1144, 11356.67
239.5966, 11352.18
240.0787, 11349.35
240.5608, 11347.86
241.0429, 11348.16
241.5250, 11350.29
242.0071, 11349.27
242.4893, 11357.72
242.9714, 11384.68
243.4535, 11450.43
243.9356, 11486.96
244.4177, 11483.09
244.8998, 11452.80
245.3820, 11430.84
245.8641, 11412.17
246.3462, 11409.31
246.8283, 11433.94
247.3104, 11512.46
247.7925, 11552.84
248.2747, 11534.88
248.7568, 11482.25
249.2389, 11464.27
249.7210, 11500.41
250.2031, 11541.74
250.6852, 11563.68
251.1674, 11554.41
251.6495, 11553.81
252.1316, 11565.80
252.6137, 11586.65
253.0958, 11605.38
253.5779, 11624.25
254.0601, 11637.51
254.5422, 11639.50
255.0243, 11620.84
255.5064, 11616.22
255.9885, 11633.31
256.4706, 11664.40
256.9528, 11684.71
257.4349, 11693.41
257.9170, 11692.68
258.3991, 11678.02
258.8812, 11633.24
259.3633, 11622.39
259.8455, 11661.53
260.3276, 11734.72
260.8097, 11784.91
261.2918, 11805.37
261.7739, 11815.95
262.2560, 11828.94
262.7382, 11849.09
263.2203, 11855.28
263.7024, 11837.53
264.1845, 11807.13
264.6666, 11807.33
265.1487, 11852.99
265.6309, 11898.58
266.1130, 11912.93
266.5951, 11883.58
267.0772, 11869.00
267.5593, 11876.56
268.0414, 11900.42
268.5236, 11921.52
269.0057, 11940.31
269.4878, 11955.66
269.9699, 11968.81
270.4520, 11981.90
270.9341, 11980.31
271.4163, 11955.87
271.8984, 11919.40
272.3805, 11903.88
272.8626, 11911.32
273.3447, 11933.48
273.8268, 11973.46
274.3090, 12037.20
274.7911, 12074.73
275.2732, 12074.56
275.7553, 12049.80
276.2374, 12032.78
276.7195, 12022.04
277.2017, 12024.18
277.6838, 12050.29
278.1659, 12103.50
278.6480, 12141.29
279.1301, 12158.55
279.6122, 12159.55
280.0944, 12153.52
280.5765, 12140.00
281.0586, 12122.16
281.5407, 12094.71
282.0229, 12057.42
282.5050, 12046.57
282.9871, 12073.06
283.4692, 12117.77
283.9513, 12140.96
284.4334, 12141.59
284.9156, 12132.97
285.3977, 12111.73
285.8798, 12080.84
286.3619, 12086.81
286.8440, 12145.23
287.3261, 12222.65
287.8083, 12253.64
288.2904, 12237.82
288.7725, 12216.67
289.2546, 12217.12
289.7367, 12234.71
290.2188, 12241.71
290.7010, 12232.75
291.1831, 12219.49
291.6652, 12219.69
292.1473, 12233.01
292.6294, 12254.61
293.1115, 12290.05
293.5937, 12332.89
294.0758, 12359.27
294.5579, 12365.09
295.0400, 12361.10
295.5221, 12361.62
296.0042, 12365.72
296.4864, 12367.92
296.9685, 12362.44
297.4506, 12353.11
297.9327, 12348.70
298.4148, 12349.79
298.8969, 12355.64
299.3791, 12368.02
299.8612, 12385.11
300.3433, 12400.44
300.8254, 12403.21
301.3075, 12404.05
301.7896, 12425.92
302.2718, 12473.83
302.7539, 12518.99
303.2360, 12528.35
303.7181, 12512.38
304.2002, 12496.45
304.6823, 12490.33
305.1645, 12491.87
305.6466, 12499.98
306.1287, 12515.02
306.6108, 12532.23
307.0929, 12551.07
307.5750, 12569.09
308.0572, 12582.55
308.5393, 12585.44
309.0214, 12585.55
309.5035, 12589.48
309.9856, 12597.53
310.4677, 12607.30
310.9499, 12622.43
311.4320, 12637.16
311.9141, 12643.78
312.3962, 12627.95
312.8783, 12611.88
313.3604, 12610.08
313.8426, 12622.49
314.3247, 12640.31
314.8068, 12658.62
315.2889, 12679.91
315.7710, 12706.91
316.2531, 12759.81
316.7353, 12801.65
317.2174, 12807.05
317.6995, 12779.84
318.1816, 12759.98
318.6637, 12766.56
319.1458, 12785.20
319.6280, 12804.41
320.1101, 12814.01
320.5922, 12831.17
321.0743, 12873.58
321.5564, 12933.63
322.0385, 12968.78
322.5207, 12940.22
323.0028, 12900.82
323.4849, 12883.74
323.9670, 12923.47
324.4491, 12950.54
324.9312, 12942.83
325.4134, 12911.42
325.8955, 12898.07
326.3776, 12929.50
326.8597, 12963.77
327.3418, 12981.01
327.8239, 12958.13
328.3061, 12948.92
328.7882, 12959.44
329.2703, 12984.55
329.7524, 13011.54
330.2345, 13052.06
330.7166, 13083.07
331.1988, 13095.51
331.6809, 13082.61
332.1630, 13065.33
332.6451, 13033.79
333.1272, 13001.39
333.6093, 12994.30
334.0915, 13023.92
334.5736, 13061.24
335.0557, 13101.96
335.5378, 13152.02
336.0199, 13173.56
336.5020, 13154.75
336.9842, 13119.08
337.4663, 13097.94
337.9484, 13093.32
338.4305, 13098.08
338.9126, 13111.61
339.3947, 13133.94
339.8769, 13160.58
340.3590, 13196.18
340.8411, 13227.13
341.3232, 13231.68
341.8053, 13204.25
342.2874, 13195.34
342.7696, 13228.39
343.2517, 13291.01
343.7338, 13308.12
344.2159, 13272.39
344.6980, 13231.57
345.1801, 13237.14
345.6623, 13284.95
346.1444, 13311.55
346.6265, 13292.98
347.1086, 13254.42
347.5907, 13261.00
348.0728, 13312.36
348.5550, 13364.92
349.0371, 13379.44
349.5192, 13367.48
350.0013, 13368.95
350.4834, 13396.08
350.9655, 13428.23
351.4477, 13429.16
351.9298, 13405.25
352.4119, 13388.10
352.8940, 13398.20
353.3762, 13427.24
353.8583, 13468.19
354.3404, 13526.44
354.8225, 13572.08
355.3046, 13560.84
355.7867, 13513.40
356.2689, 13479.36
356.7510, 13495.39
357.2331, 13529.29
357.7152, 13552.50
358.1973, 13562.26
358.6794, 13567.70
359.1616, 13577.87
359.6437, 13586.64
360.1258, 13585.48
360.6079, 13554.44
361.0900, 13526.31
361.5721, 13517.38
362.0543, 13528.16
362.5364, 13552.44
363.0185, 13601.21
363.5006, 13656.25
363.9827, 13700.65
364.4648, 13729.11
364.9470, 13748.11
365.4291, 13754.39
365.9112, 13750.07
366.3933, 13750.28
366.8754, 13770.16
367.3575, 13787.16
367.8397, 13788.14
368.3218, 13738.66
368.8039, 13714.31
369.2860, 13737.52
369.7681, 13790.92
370.2502, 13822.57
370.7324, 13808.93
371.2145, 13797.19
371.6966, 13807.94
372.1787, 13858.89
372.6608, 13886.50
373.1429, 13875.66
373.6251, 13849.69
374.1072, 13850.33
374.5893, 13895.75
375.0714, 13930.78
375.5535, 13931.61
376.0356, 13894.46
376.5178, 13883.47
376.9999, 13905.90
377.4820, 13942.30
377.9641, 13971.00
378.4462, 13991.31
378.9283, 14010.12
379.4105, 14031.07
379.8926, 14051.59
380.3747, 14057.88
380.8568, 14048.48
381.3389, 14034.16
381.8210, 14021.44
382.3032, 14010.81
382.7853, 14005.24
383.2674, 14004.95
383.7495, 14010.61
384.2316, 14029.36
384.7137, 14059.45
385.1959, 14081.25
385.6780, 14076.76
386.1601, 14055.61
386.6422, 14034.18
387.1243, 14010.52
387.6064, 14000.42
388.0886, 14040.89
388.5707, 14110.46
389.0528, 14152.42
389.5349, 14100.37
390.0170, 14029.36
390.4991, 14019.42
390.9813, 14079.06
391.4634, 14140.79
391.9455, 14149.73
392.4276, 14138.15
392.9097, 14147.03
393.3918, 14228.10
393.8740, 14299.46
394.3561, 14314.19
394.8382, 14277.57
395.3203, 14245.26
395.8024, 14239.70
396.2845, 14244.57
396.7667, 14248.71
397.2488, 14244.33
397.7309, 14246.29
398.2130, 14261.99
398.6951, 14286.75
399.1772, 14305.84
399.6594, 14312.04
400.1415, 14317.00
400.6236, 14324.63
401.1057, 14334.74
401.5878, 14348.33
402.0699, 14370.04
402.5521, 14392.98
403.0342, 14406.75
403.5163, 14407.88
403.9984, 14405.89
404.4805, 14402.46
404.9626, 14397.60
405.4448, 14392.30
405.9269, 14383.44
406.4090, 14379.89
406.8911, 14394.94
407.3732, 14433.14
407.8553, 14458.15
408.3375, 14459.04
408.8196, 14444.93
409.3017, 14441.65
409.7838, 14449.15
410.2659, 14468.23
410.7480, 14512.93
411.2302, 14574.19
411.7123, 14601.13
412.1944, 14581.89
412.6765, 14544.56
413.1586, 14515.71
413.6407, 14498.09
414.1229, 14503.72
414.6050, 14561.95
415.0871, 14638.72
415.5692, 14678.69
416.0513, 14679.17
416.5334, 14669.86
417.0156, 14669.91
417.4977, 14676.32
417.9798, 14684.61
418.4619, 14696.39
418.9440, 14706.81
419.4261, 14710.18
419.9083, 14708.17
420.3904, 14710.92
420.8725, 14721.92
421.3546, 14739.98
421.8367, 14766.56
422.3188, 14818.21
422.8010, 14850.28
423.2831, 14827.44
423.7652, 14778.63
424.2473, 14765.40
424.7295, 14841.18
425.2116, 14912.40
425.6937, 14946.73
426.1758, 14932.85
426.6579, 14923.87
427.1400, 14921.41
427.6222, 14922.71
428.1043, 14925.45
428.5864, 14931.79
429.0685, 14934.65
429.5506, 14929.17
430.0327, 14918.00
430.5149, 14923.04
430.9970, 14950.08
431.4791, 14979.49
431.9612, 14999.28
432.4433, 15009.56
432.9254, 15008.18
433.4076, 14991.14
433.8897, 14968.52
434.3718, 14954.46
434.8539, 14949.20
435.3360, 14961.35
435.8181, 15013.01
436.3003, 15084.55
436.7824, 15119.17
437.2645, 15113.90
437.7466, 15029.51
438.2287, 15116.87
438.7108, 15170.52
439.1930, 15192.26
439.6751, 15086.56
440.1572, 15145.43
440.6393, 15138.34
441.1214, 15128.55
441.6035, 15210.59
442.0857, 15123.42
442.5678, 15204.00
443.0499, 15217.61
443.5320, 15261.88
444.0141, 15239.78
444.4962, 15251.61
444.9784, 15265.56
445.4605, 15271.42
445.9426, 15254.45
446.4247, 15244.21
446.9068, 15253.52
447.3889, 15285.96
447.8711, 15314.11
448.3532, 15326.75
448.8353, 15340.83
449.3174, 15370.08
449.7995, 15428.28
450.2816, 15479.46
450.7638, 15523.75
451.2459, 15558.35
451.7280, 15565.14
452.2101, 15529.12
452.6922, 15501.09
453.1743, 15511.47
453.6565, 15564.70
454.1386, 15611.22
454.6207, 15651.92
455.1028, 15682.48
455.5849, 15687.24
456.0670, 15668.48
456.5492, 15668.24
457.0313, 15710.83
457.5134, 15777.63
457.9955, 15826.99
458.4776, 15859.38
458.9597, 15876.35
459.4419, 15863.31
459.9240, 15839.28
460.4061, 15840.59
460.8882, 15885.16
461.3703, 15931.84
461.8524, 15943.52
462.3346, 15929.76
462.8167, 15912.35
463.2988, 15900.44
463.7809, 15889.32
464.2630, 15871.51
464.7451, 15844.63
465.2273, 15834.23
465.7094, 15865.71
466.1915, 15909.69
466.6736, 15940.15
467.1557, 15953.87
467.6378, 15951.67
468.1200, 15920.86
468.6021, 15870.32
469.0842, 15841.68
469.5663, 15852.81
470.0484, 15865.02
470.5305, 15861.38
471.0127, 15836.17
471.4948, 15814.17
471.9769, 15796.23
472.4590, 15780.18
472.9411, 15760.07
473.4232, 15733.33
473.9054, 15719.62
474.3875, 15727.18
474.8696, 15751.59
475.3517, 15777.52
475.8338, 15805.42
476.3159, 15828.93
476.7981, 15839.79
477.2802, 15842.06
477.7623, 15768.48
478.2444, 15848.51
478.7265, 15894.84
479.2086, 15909.26
479.6908, 15796.23
480.1729, 15847.78
480.6550, 15833.37
481.1371, 15816.26
481.6192, 15890.97
482.1013, 15796.47
482.5835, 15869.73
483.0656, 15876.02
483.5477, 15912.96
484.0298, 15883.54
484.5119, 15874.61
484.9940, 15932.07
485.4762, 15952.77
485.9583, 15915.71
486.4404, 15954.59
486.9225, 15857.78
487.4046, 15959.56
487.8867, 16001.37
488.3689, 16026.91
488.8510, 16040.79
489.3331, 16044.42
489.8152, 16034.96
490.2973, 15999.97
490.7794, 15925.06
491.2616, 15891.25
491.7437, 15922.85
492.2258, 15994.32
492.7079, 16035.68
493.1900, 16045.48
493.6722, 16047.10
494.1543, 16054.01
494.6364, 16063.55
495.1185, 16064.15
495.6006, 16054.08
496.0828, 16045.38
496.5649, 16046.47
497.0470, 16058.17
497.5291, 16083.25
498.0112, 16138.48
498.4933, 16191.44
498.9755, 16212.12
499.4576, 16206.54
499.9397, 16196.00
500.4218, 16184.39
500.9039, 16175.59
501.3860, 16172.18
501.8682, 16175.41
502.3503, 16181.30
502.8324, 16201.48
503.3145, 16219.25
503.7966, 16214.00
504.2787, 16131.07
504.7609, 16092.10
505.2430, 16135.31
505.7251, 16244.53
506.2072, 16308.31
506.6893, 16310.09
507.1714, 16294.93
507.6536, 16284.69
508.1357, 16279.49
508.6178, 16276.64
509.0999, 16273.53
509.5820, 16278.82
510.0641, 16310.47
510.5463, 16366.34
511.0284, 16417.79
511.5105, 16460.04
511.9926, 16490.04
512.4747, 16493.68
512.9568, 16474.49
513.4390, 16461.76
513.9211, 16484.93
514.4032, 16522.42
514.8853, 16548.27
515.3674, 16558.53
515.8495, 16558.58
516.3317, 16538.99
516.8138, 16514.54
517.2959, 16505.69
517.7780, 16535.61
518.2601, 16565.49
518.7422, 16585.71
519.2244, 16595.85
519.7065, 16593.38
520.1886, 16556.31
520.6707, 16525.31
521.1528, 16519.19
521.6349, 16547.30
522.1171, 16577.66
522.5992, 16615.51
523.0813, 16650.36
523.5634, 16663.20
524.0455, 16646.83
524.5276, 16649.22
525.0098, 16692.45
525.4919, 16758.88
525.9740, 16786.63
526.4561, 16774.92
526.9382, 16756.20
527.4203, 16743.45
527.9025, 16741.04
528.3846, 16768.26
528.8667, 16832.74
529.3488, 16889.19
529.8309, 16878.85
530.3130, 16834.36
530.7952, 16808.56
531.2773, 16843.93
531.7594, 16883.57
532.2415, 16893.45
532.7236, 16880.21
533.2057, 16872.21
533.6879, 16871.68
534.1700, 16883.94
534.6521, 16916.41
535.1342, 16984.87
535.6163, 17029.45
536.0984, 17034.73
536.5806, 17025.42
537.0627, 17028.88
537.5448, 17056.50
538.0269, 17067.78
538.5090, 17049.79
538.9911, 17014.17
539.4733, 16999.19
539.9554, 17006.01
540.4375, 17024.14
540.9196, 17054.75
541.4017, 17093.52
541.8839, 17116.65
542.3660, 17122.54
542.8481, 17124.98
543.3302, 17137.21
543.8123, 17155.76
544.2944, 17174.70
544.7766, 17196.15
545.2587, 17211.35
545.7408, 17212.53
546.2229, 17201.85
546.7050, 17184.70
547.1871, 17154.22
547.6693, 17125.54
548.1514, 17094.60
548.6335, 17056.72
549.1156, 17069.65
549.5977, 17223.15
550.0798, 17375.41
550.5620, 17425.35
551.0441, 17305.96
551.5262, 17215.80
552.0083, 17164.53
552.4904, 17145.17
552.9725, 17151.09
553.4547, 17188.54
553.9368, 17217.60
554.4189, 17216.41
554.9010, 17197.11
555.3831, 17215.46
555.8652, 17272.29
556.3474, 17324.28
556.8295, 17331.35
557.3116, 17310.05
557.7937, 17291.78
558.2758, 17279.37
558.7579, 17277.05
559.2401, 17299.25
559.7222, 17331.71
560.2043, 17352.22
560.6864, 17345.27
561.1685, 17331.55
561.6506, 17315.02
562.1328, 17297.66
562.6149, 17288.79
563.0970, 17293.99
563.5791, 17304.87
564.0612, 17319.16
564.5433, 17339.18
565.0255, 17353.89
565.5076, 17363.10
565.9897, 17367.02
566.4718, 17363.46
566.9539, 17350.16
567.4360, 17344.79
567.9182, 17352.83
568.4003, 17366.95
568.8824, 17368.29
569.3645, 17358.32
569.8466, 17354.99
570.3287, 17376.74
570.8109, 17407.83
571.2930, 17419.48
571.7751, 17412.13
572.2572, 17402.50
572.7393, 17390.41
573.2214, 17387.79
573.7036, 17410.66
574.1857, 17476.83
574.6678, 17534.56
575.1499, 17566.10
575.6320, 17576.97
576.1141, 17575.53
576.5963, 17550.18
577.0784, 17526.54
577.5605, 17505.41
578.0426, 17488.69
578.5247, 17490.38
579.0068, 17521.62
579.4890, 17548.49
579.9711, 17544.30
580.4532, 17505.37
580.9353, 17512.03
581.4174, 17572.16
581.8995, 17645.26
582.3817, 17693.30
582.8638, 17717.67
583.3459, 17719.25
583.8280, 17687.06
584.3101, 17653.95
584.7922, 17669.42
585.2744, 17714.89
585.7565, 17742.93
586.2386, 17694.49
586.7207, 17652.32
587.2028, 17681.41
587.6849, 17780.52
588.1671, 17850.63
588.6492, 17842.37
589.1313, 17813.37
589.6134, 17797.31
590.0955, 17796.76
590.5776, 17806.59
591.0598, 17837.32
591.5419, 17868.97
592.0240, 17869.68
592.5061, 17830.28
592.9882, 17806.98
593.4703, 17816.02
593.9525, 17844.87
594.4346, 17864.05
594.9167, 17874.15
595.3988, 17883.62
595.8809, 17900.14
596.3630, 17918.09
596.8452, 17928.37
597.3273, 17930.51
597.8094, 17928.13
598.2915, 17915.64
598.7736, 17903.88
599.2557, 17903.69
599.7379, 17920.57
600.2200, 17942.71
600.7021, 17976.66
601.1843, 18011.41
601.6664, 18028.71
602.1485, 18006.52
602.6306, 17997.76
603.1127, 18019.85
603.5948, 18063.28
604.0770, 18073.39
604.5591, 18037.04
605.0412, 18010.63
605.5233, 18037.96
606.0054, 18109.61
606.4875, 18133.28
606.9697, 18104.86
607.4518, 18067.61
607.9339, 18061.03
608.4160, 18076.19
608.8981, 18097.55
609.3802, 18126.82
609.8624, 18148.78
610.3445, 18143.16
610.8266, 18124.24
611.3087, 18115.90
611.7908, 18140.81
612.2729, 18163.20
612.7551, 18160.95
613.2372, 18140.14
613.7193, 18148.76
614.2014, 18231.15
614.6835, 18289.09
615.1656, 18269.58
615.6478, 18158.87
616.1299, 18106.77
616.6120, 18125.35
617.0941, 18172.54
617.5762, 18219.79
618.0583, 18265.16
618.5405, 18285.49
619.0226, 18272.27
619.5047, 18248.67
619.9868, 18242.04
620.4689, 18247.82
620.9510, 18254.54
621.4332, 18250.04
621.9153, 18251.19
622.3974, 18275.65
622.8795, 18317.17
623.3616, 18349.98
623.8438, 18366.45
624.3259, 18371.59
624.8080, 18363.85
625.2901, 18340.25
625.7722, 18324.54
626.2543, 18317.04
626.7365, 18317.07
627.2186, 18323.66
627.7007, 18336.29
628.1828, 18364.67
628.6649, 18418.15
629.1470, 18465.97
629.6292, 18443.83
630.1113, 18368.42
630.5934, 18328.23
631.0755, 18371.88
631.5576, 18440.67
632.0397, 18462.23
632.5219, 18448.05
633.0040, 18433.70
633.4861, 18427.53
633.9682, 18434.57
634.4503, 18470.74
634.9324, 18537.64
635.4146, 18572.28
635.8967, 18516.20
636.3788, 18461.08
636.8609, 18460.77
637.3430, 18548.51
637.8251, 18597.24
638.3073, 18596.02
638.7894, 18571.77
639.2715, 18550.71
639.7536, 18532.88
640.2357, 18531.28
640.7178, 18549.44
641.2000, 18583.20
641.6821, 18639.05
642.1642, 18708.28
642.6463, 18758.87
643.1284, 18770.73
643.6105, 18761.56
644.0927, 18735.42
644.5748, 18697.04
645.0569, 18672.99
645.5390, 18686.21
646.0211, 18706.19
646.5032, 18715.35
646.9854, 18706.32
647.4675, 18710.83
647.9496, 18740.42
648.4317, 18770.47
648.9138, 18776.59
649.3959, 18751.22
649.8781, 18750.25
650.3602, 18785.53
650.8423, 18830.61
651.3244, 18847.62
651.8065, 18839.51
652.2886, 18820.28
652.7708, 18782.87
653.2529, 18751.21
653.7350, 18760.72
654.2171, 18799.74
654.6992, 18833.85
655.1813, 18843.74
655.6635, 18847.06
656.1456, 18852.56
656.6277, 18860.70
657.1098, 18866.53
657.5919, 18865.57
658.0740, 18866.00
658.5562, 18873.75
659.0383, 18893.49
659.5204, 18896.93
660.0025, 18877.77
660.4846, 18857.20
660.9667, 18860.21
661.4489, 18884.21
661.9310, 18907.50
662.4131, 18928.40
662.8952, 18941.54
663.3773, 18931.50
663.8594, 18909.00
664.3416, 18896.86
664.8237, 18921.30
665.3058, 18942.81
665.7879, 18927.01
666.2700, 18888.27
666.7521, 18875.51
667.2343, 18936.17
667.7164, 18988.42
668.1985, 19001.55
668.6806, 18975.69
669.1627, 18965.24
669.6448, 18978.72
670.1270, 18988.22
670.6091, 18965.94
671.0912, 18914.89
671.5733, 18900.29
672.0554, 18926.62
672.5375, 18969.49
673.0197, 19020.65
673.5018, 19067.99
673.9839, 19084.06
674.4660, 19050.77
674.9481, 19016.58
675.4302, 19020.34
675.9124, 19040.72
676.3945, 19046.58
676.8766, 19009.69
677.3587, 18980.80
677.8408, 18967.37
678.3229, 18969.10
678.8051, 18988.87
679.2872, 19036.05
679.7693, 19078.21
680.2514, 19105.70
680.7335, 19119.01
681.2156, 19114.95
681.6978, 19093.22
682.1799, 19071.83
682.6620, 19062.24
683.1441, 19061.39
683.6262, 19062.42
684.1083, 19064.82
684.5905, 19078.22
685.0726, 19130.17
685.5547, 19183.44
686.0368, 19201.31
686.5189, 19153.04
687.0010, 19123.71
687.4832, 19146.59
687.9653, 19182.09
688.4474, 19187.53
688.9295, 19146.08
689.4116, 19124.95
689.8937, 19138.06
690.3759, 19167.85
690.8580, 19180.38
691.3401, 19177.10
691.8222, 19175.12
692.3043, 19181.11
692.7864, 19191.40
693.2686, 19203.05
693.7507, 19215.07
694.2328, 19223.62
694.7149, 19222.36
695.1970, 19221.12
695.6791, 19227.89
696.1613, 19242.78
696.6434, 19250.96
697.1255, 19249.71
697.6076, 19241.87
698.0897, 19224.45
698.5718, 19193.34
699.0540, 19184.51
699.5361, 19202.11
700.0182, 19229.36
700.5003, 19252.59
700.9824, 19272.34
701.4645, 19292.85
701.9467, 19315.70
702.4288, 19332.65
702.9109, 19331.77
703.3930, 19320.72
703.8751, 19311.12
704.3572, 19310.13
704.8394, 19305.70
705.3215, 19282.08
705.8036, 19253.88
706.2857, 19249.89
706.7678, 19283.79
707.2499, 19322.31
707.7321, 19366.46
708.2142, 19409.53
708.6963, 19425.98
709.1784, 19414.11
709.6605, 19393.41
710.1426, 19366.36
710.6248, 19339.25
711.1069, 19329.44
711.5890, 19335.17
712.0711, 19344.87
712.5532, 19347.09
713.0353, 19352.87
713.5175, 19374.44
713.9996, 19413.74
714.4817, 19448.57
714.9638, 19482.21
715.4459, 19501.71
715.9280, 19496.79
716.4102, 19453.85
716.8923, 19434.25
717.3744, 19446.93
717.8565, 19465.77
718.3386, 19463.06
718.8207, 19440.87
719.3029, 19417.93
719.7850, 19394.00
720.2671, 19382.13
720.7492, 19407.05
721.2313, 19453.25
721.7134, 19492.52
722.1956, 19511.43
722.6777, 19528.55
723.1598, 19566.73
723.6419, 19607.16
724.1240, 19612.46
724.6061, 19531.22
725.0883, 19477.70
725.5704, 19479.80
726.0525, 19519.84
726.5346, 19536.87
727.0167, 19527.13
727.4988, 19524.03
727.9810, 19549.09
728.4631, 19586.77
728.9452, 19597.22
729.4273, 19583.80
729.9094, 19568.00
730.3915, 19555.27
730.8737, 19551.42
731.3558, 19566.01
731.8379, 19599.38
732.3200, 19626.53
732.8021, 19642.27
733.2842, 19647.84
733.7664, 19642.25
734.2485, 19621.76
734.7306, 19609.57
735.2127, 19607.40
735.6948, 19609.47
736.1769, 19611.95
736.6591, 19614.62
737.1412, 19614.77
737.6233, 19611.57
738.1054, 19610.15
738.5875, 19620.90
739.0696, 19634.84
739.5518, 19637.08
740.0339, 19614.04
740.5161, 19600.12
740.9982, 19612.52
741.4803, 19640.16
741.9624, 19667.87
742.4445, 19696.16
742.9266, 19723.19
743.4088, 19752.59
743.8909, 19777.19
744.3730, 19781.13
744.8551, 19764.26
745.3372, 19739.80
745.8193, 19706.08
746.3015, 19674.50
746.7836, 19665.25
747.2657, 19673.20
747.7478, 19682.86
748.2299, 19670.45
748.7120, 19673.01
749.1942, 19729.55
749.6763, 19825.83
750.1584, 19882.46
750.6405, 19871.43
751.1226, 19842.87
751.6047, 19803.09
752.0869, 19755.45
752.5690, 19736.17
753.0511, 19747.42
753.5332, 19769.60
754.0153, 19792.88
754.4974, 19817.66
754.9796, 19851.41
755.4617, 19892.73
755.9438, 19919.42
756.4259, 19906.70
756.9080, 19880.34
757.3901, 19858.40
757.8723, 19842.25
758.3544, 19834.32
758.8365, 19843.85
759.3186, 19853.78
759.8007, 19849.47
760.2828, 19820.41
760.7650, 19831.26
761.2471, 19892.69
761.7292, 19958.78
762.2113, 19979.78
762.6934, 19966.21
763.1755, 19947.32
763.6577, 19925.54
764.1398, 19911.13
764.6219, 19917.03
765.1040, 19932.86
765.5861, 19946.19
766.0682, 19949.12
766.5504, 19957.44
767.0325, 19982.97
767.5146, 20009.91
767.9967, 20017.86
768.4788, 20000.10
768.9609, 19991.32
769.4431, 20000.33
769.9252, 20013.11
770.4073, 19998.34
770.8894, 19964.57
771.3715, 19948.90
771.8536, 19969.24
772.3358, 20002.87
772.8179, 20041.97
773.3000, 20078.74
773.7821, 20097.78
774.2642, 20088.75
774.7463, 20066.89
775.2285, 20020.55
775.7106, 19966.68
776.1927, 19954.14
776.6748, 19993.41
777.1569, 20036.02
777.6390, 20069.29
778.1212, 20094.06
778.6033, 20106.97
779.0854, 20110.91
779.5675, 20122.92
780.0496, 20174.92
780.5317, 20220.85
781.0139, 20212.81
781.4960, 20160.93
781.9781, 20117.14
782.4602, 20092.44
782.9423, 20084.67
783.4244, 20099.66
783.9066, 20133.96
784.3887, 20142.66
784.8708, 20117.37
785.3529, 20098.70
785.8350, 20119.64
786.3171, 20163.70
786.7993, 20162.26
787.2814, 20120.22
787.7635, 20095.72
788.2456, 20150.64
788.7277, 20223.26
789.2098, 20256.29
789.6920, 20244.95
790.1741, 20242.52
790.6562, 20278.32
791.1383, 20310.21
791.6204, 20317.54
792.1025, 20297.84
792.5847, 20283.77
793.0668, 20276.48
793.5489, 20270.30
794.0310, 20254.84
794.5131, 20237.72
794.9952, 20248.03
795.4774, 20287.94
795.9595, 20315.16
796.4416, 20276.39
796.9237, 20226.76
797.4058, 20218.63
797.8879, 20274.26
798.3701, 20312.56
798.8522, 20319.29
799.3343, 20313.02
799.8164, 20305.01
800.2985, 20295.24
800.7806, 20281.12
801.2628, 20260.02
801.7449, 20246.73
802.2270, 20267.72
802.7091, 20304.74
803.1912, 20317.96
803.6733, 20297.05
804.1555, 20278.73
804.6376, 20286.75
805.1197, 20307.00
805.6018, 20327.57
806.0839, 20352.56
806.5660, 20365.29
807.0482, 20359.69
807.5303, 20349.34
808.0124, 20344.76
808.4945, 20345.94
808.9766, 20369.09
809.4587, 20422.78
809.9409, 20464.86
810.4230, 20424.24
810.9051, 20349.20
811.3872, 20320.05
811.8693, 20371.21
812.3514, 20426.47
812.8336, 20470.13
813.3157, 20493.46
813.7978, 20483.48
814.2799, 20412.64
814.7620, 20371.79
815.2441, 20368.60
815.7263, 20389.71
816.2084, 20431.62
816.6905, 20487.62
817.1726, 20508.62
817.6547, 20475.38
818.1368, 20441.74
818.6190, 20469.22
819.1011, 20524.38
819.5832, 20562.35
820.0653, 20562.05
820.5474, 20557.26
821.0295, 20549.11
821.5117, 20542.96
821.9938, 20546.26
822.4759, 20562.39
822.9580, 20572.56
823.4401, 20573.44
823.9222, 20570.62
824.4044, 20575.99
824.8865, 20584.09
825.3686, 20577.55
825.8507, 20544.39
826.3328, 20514.76
826.8149, 20507.02
827.2971, 20515.66
827.7792, 20533.79
828.2613, 20578.70
828.7434, 20606.41
829.2255, 20609.15
829.7076, 20601.28
830.1898, 20604.43
830.6719, 20618.53
831.1540, 20621.19
831.6361, 20604.09
832.1182, 20588.39
832.6003, 20608.01
833.0825, 20644.59
833.5646, 20667.13
834.0467, 20658.67
834.5288, 20648.38
835.0109, 20647.60
835.4930, 20649.89
835.9752, 20645.55
836.4573, 20629.15
836.9394, 20620.74
837.4215, 20621.07
837.9036, 20632.46
838.3857, 20669.83
838.8679, 20723.47
839.3500, 20750.57
839.8321, 20734.24
840.3142, 20710.22
840.7963, 20705.22
841.2784, 20710.28
841.7606, 20714.40
842.2427, 20712.79
842.7248, 20712.55
843.2069, 20706.06
843.6890, 20708.33
844.1711, 20748.58
844.6533, 20830.82
845.1354, 20869.51
845.6175, 20846.48
846.0996, 20804.59
846.5817, 20790.57
847.0638, 20794.64
847.5460, 20799.95
848.0281, 20801.58
848.5102, 20806.00
848.9923, 20814.11
849.4744, 20827.40
849.9565, 20849.76
850.4387, 20895.83
850.9208, 20909.94
851.4029, 20880.65
851.8850, 20840.27
852.3671, 20823.53
852.8492, 20827.41
853.3314, 20843.93
853.8135, 20874.58
854.2956, 20901.91
854.7777, 20903.88
855.2598, 20900.15
855.7419, 20914.08
856.2241, 20970.43
856.7062, 20995.74
857.1883, 20974.46
857.6704, 20935.67
858.1525, 20899.76
858.6346, 20866.40
859.1168, 20843.08
859.5989, 20829.04
860.0810, 20834.93
860.5631, 20900.88
861.0452, 20980.15
861.5273, 20996.63
862.0095, 20925.28
862.4916, 20876.90
862.9737, 20922.37
863.4558, 20982.92
863.9379, 20998.97
864.4200, 20952.21
864.9022, 20964.13
865.3843, 21051.64
865.8664, 21134.58
866.3485, 21140.04
866.8306, 21090.71
867.3127, 21028.54
867.7949, 20956.77
868.2770, 20925.06
868.7591, 21021.74
869.2412, 21125.65
869.7233, 21137.77
870.2054, 21027.50
870.6876, 20976.98
871.1697, 21010.34
871.6518, 21057.46
872.1339, 21082.52
872.6160, 21087.32
873.0981, 21080.11
873.5803, 21061.46
874.0624, 21045.96
874.5445, 21043.76
875.0266, 21048.86
875.5087, 21056.42
875.9908, 21066.29
876.4730, 21079.52
876.9551, 21093.40
877.4372, 21114.67
877.9193, 21148.32
878.4014, 21191.60
878.8835, 21233.40
879.3657, 21274.04
879.8478, 21295.16
880.3299, 21269.75
880.8120, 21230.29
881.2941, 21222.22
881.7763, 21239.57
882.2584, 21261.14
882.7405, 21293.95
883.2227, 21312.36
883.7048, 21297.72
884.1869, 21263.13
884.6690, 21245.25
885.1511, 21246.02
885.6332, 21253.84
886.1154, 21265.57
886.5975, 21281.78
887.0796, 21310.53
887.5617, 21344.90
888.0438, 21365.86
888.5259, 21348.14
889.0081, 21334.54
889.4902, 21357.60
889.9723, 21393.78
890.4544, 21395.90
890.9365, 21343.26
891.4186, 21306.31
891.9008, 21291.54
892.3829, 21301.24
892.8650, 21360.39
893.3471, 21449.24
893.8292, 21498.07
894.3113, 21482.59
894.7935, 21442.70
895.2756, 21360.92
895.7577, 21292.13
896.2398, 21303.28
896.7219, 21493.67
897.2040, 21605.08
897.6862, 21610.63
898.1683, 21580.71
898.6504, 21590.43
899.1325, 21632.04
899.6146, 21649.22
900.0967, 21635.12
900.5789, 21612.17
901.0610, 21591.88
901.5431, 21575.97
902.0252, 21562.18
902.5073, 21545.78
902.9894, 21558.98
903.4716, 21631.22
903.9537, 21696.69
904.4358, 21714.24
904.9179, 21686.22
905.4000, 21668.21
905.8821, 21660.36
906.3643, 21659.81
906.8464, 21662.42
907.3285, 21672.75
907.8106, 21709.04
908.2927, 21765.44
908.7748, 21789.60
909.2570, 21722.07
909.7391, 21669.59
910.2212, 21672.37
910.7033, 21717.11
911.1854, 21740.06
911.6675, 21740.85
912.1497, 21724.96
912.6318, 21683.12
913.1139, 21638.45
913.5960, 21617.99
914.0781, 21618.56
914.5602, 21632.39
915.0424, 21670.06
915.5245, 21704.70
916.0066, 21726.47
916.4887, 21742.84
916.9708, 21764.75
917.4529, 21791.40
917.9351, 21840.57
918.4172, 21929.81
918.8993, 22002.67
919.3814, 21954.87
919.8635, 21846.82
920.3456, 21781.48
920.8278, 21802.14
921.3099, 21834.58
921.7920, 21867.38
922.2741, 21895.49
922.7562, 21914.66
923.2383, 21924.74
923.7205, 21924.08
924.2026, 21910.48
924.6847, 21898.57
925.1668, 21904.98
925.6489, 21921.39
926.1310, 21936.48
926.6132, 21949.04
927.0953, 21955.31
927.5774, 21949.15
928.0595, 21940.52
928.5416, 21936.07
929.0237, 21935.75
929.5059, 21920.59
929.9880, 21885.54
930.4701, 21870.89
930.9522, 21920.37
931.4343, 21994.76
931.9164, 22032.03
932.3986, 22035.31
932.8807, 22018.04
933.3628, 21935.55
933.8449, 21889.34
934.3270, 21944.94
934.8091, 22058.32
935.2913, 22128.97
935.7734, 22155.83
936.2555, 22144.22
936.7376, 22081.19
937.2197, 22010.88
937.7018, 21997.63
938.1840, 22026.03
938.6661, 22066.17
939.1482, 22123.91
939.6303, 22166.15
940.1124, 22167.02
940.5945, 22157.29
941.0767, 22172.02
941.5588, 22221.27
942.0409, 22236.92
942.5230, 22210.53
943.0051, 22176.07
943.4872, 22166.77
943.9694, 22171.33
944.4515, 22175.62
944.9336, 22178.49
945.4157, 22168.21
945.8978, 22109.72
946.3799, 22066.97
946.8621, 22077.17
947.3442, 22138.03
947.8263, 22182.96
948.3084, 22211.59
948.7905, 22232.09
949.2726, 22246.85
949.7548, 22257.79
950.2369, 22272.17
950.7190, 22285.92
951.2011, 22285.72
951.6832, 22257.06
952.1653, 22224.28
952.6475, 22186.74
953.1296, 22152.83
953.6117, 22141.81
954.0938, 22154.04
954.5759, 22180.46
955.0580, 22226.13
955.5402, 22263.79
956.0223, 22252.13
956.5044, 22214.60
956.9865, 22183.42
957.4686, 22158.43
957.9507, 22162.02
958.4329, 22220.14
958.9150, 22282.94
959.3971, 22305.74
959.8792, 22287.41
960.3613, 22300.56
960.8434, 22348.73
961.3256, 22388.55
961.8077, 22380.06
962.2898, 22349.96
962.7719, 22316.54
963.2540, 22282.59
963.7361, 22270.83
964.2183, 22316.46
964.7004, 22338.47
965.1825, 22296.36
965.6646, 22217.21
966.1467, 22208.04
966.6288, 22260.44
967.1110, 22306.69
967.5931, 22318.92
968.0752, 22312.72
968.5573, 22286.11
969.0394, 22253.81
969.5215, 22242.27
970.0037, 22267.64
970.4858, 22294.27
970.9679, 22323.50
971.4500, 22346.91
971.9321, 22349.15
972.4142, 22335.53
972.8964, 22326.56
973.3785, 22324.91
973.8606, 22328.83
974.3427, 22336.44
974.8248, 22349.65
975.3069, 22371.65
975.7891, 22403.59
976.2712, 22435.60
976.7533, 22472.57
977.2354, 22493.61
977.7175, 22472.87
978.1996, 22434.65
978.6818, 22454.73
979.1639, 22516.81
979.6460, 22555.84
980.1281, 22524.84
980.6102, 22480.75
981.0923, 22438.44
981.5745, 22401.98
982.0566, 22376.80
982.5387, 22361.50
983.0208, 22369.71
983.5029, 22409.63
983.9850, 22455.36
984.4672, 22479.48
984.9493, 22485.47
985.4314, 22476.87
985.9135, 22451.11
986.3956, 22423.77
986.8777, 22378.12
987.3599, 22353.17
987.8420, 22382.53
988.3241, 22466.56
988.8062, 22502.49
989.2883, 22489.88
989.7704, 22472.73
990.2526, 22484.28
990.7347, 22503.37
991.2168, 22504.12
991.6989, 22492.18
992.1810, 22494.36
992.6631, 22536.27
993.1453, 22562.37
993.6274, 22559.78
994.1095, 22538.43
994.5916, 22509.51
995.0737, 22477.49
995.5558, 22468.72
996.0380, 22500.33
996.5201, 22522.50
997.0022, 22476.16
997.4843, 22414.82
997.9664, 22398.94
998.4485, 22448.12
998.9307, 22486.94
999.4128, 22515.94
999.8949, 22531.91
1000.377, 22519.49
1000.859, 22495.71
1001.341, 22517.82
1001.823, 22575.65
1002.305, 22596.26
1002.788, 22473.31
1003.270, 22382.72
1003.752, 22425.22
1004.234, 22547.94
1004.716, 22609.74
1005.198, 22603.06
1005.680, 22621.82
1006.162, 22704.78
1006.645, 22780.65
1007.127, 22732.62
1007.609, 22630.29
1008.091, 22578.85
1008.573, 22629.28
1009.055, 22663.47
1009.537, 22664.97
1010.019, 22650.29
1010.501, 22618.68
1010.984, 22575.38
1011.466, 22593.01
1011.948, 22667.15
1012.430, 22717.25
1012.912, 22648.18
1013.394, 22573.96
1013.876, 22579.60
1014.358, 22652.45
1014.841, 22719.32
1015.323, 22788.71
1015.805, 22819.14
1016.287, 22788.87
1016.769, 22741.19
1017.251, 22762.12
1017.733, 22818.57
1018.215, 22832.52
1018.697, 22764.87
1019.180, 22715.52
1019.662, 22752.45
1020.144, 22799.73
1020.626, 22795.42
1021.108, 22733.57
1021.590, 22733.85
1022.072, 22799.01
1022.554, 22860.23
1023.037, 22876.00
1023.519, 22859.77
1024.001, 22796.00
1024.483, 22707.95
1024.965, 22681.92
1025.447, 22809.71
1025.929, 22878.50
1026.411, 22833.90
1026.893, 22744.40
1027.376, 22731.07
1027.858, 22777.07
1028.340, 22819.64
1028.822, 22846.33
1029.304, 22869.02
1029.786, 22908.38
1030.268, 22936.47
1030.750, 22923.03
1031.233, 22863.31
1031.715, 22831.56
1032.197, 22829.33
1032.679, 22848.15
1033.161, 22899.97
1033.643, 22958.49
1034.125, 22987.16
1034.607, 22989.86
1035.089, 22977.45
1035.572, 22924.22
1036.054, 22897.43
1036.536, 22916.70
1037.018, 22955.16
1037.500, 22978.54
1037.982, 22987.35
1038.464, 22978.23
1038.946, 22948.50
1039.428, 22928.23
1039.911, 22952.95
1040.393, 22986.68
1040.875, 23000.47
1041.357, 22992.28
1041.839, 22980.63
1042.321, 22961.00
1042.803, 22957.23
1043.285, 22986.90
1043.768, 23030.18
1044.250, 23057.95
1044.732, 23070.04
1045.214, 23065.88
1045.696, 23018.13
1046.178, 22993.21
1046.660, 23011.09
1047.142, 23046.95
1047.625, 23081.16
1048.107, 23113.21
1048.589, 23135.77
1049.071, 23148.28
1049.553, 23156.95
1050.035, 23183.18
1050.517, 23193.08
1050.999, 23142.23
1051.481, 23041.15
1051.964, 22992.97
1052.446, 23015.46
1052.928, 23032.15
1053.410, 23015.63
1053.892, 22997.44
1054.374, 23038.70
1054.856, 23114.31
1055.338, 23179.28
1055.820, 23227.30
1056.303, 23248.62
1056.785, 23203.90
1057.267, 23170.71
1057.749, 23216.66
1058.231, 23331.30
1058.713, 23347.31
1059.195, 23271.53
1059.677, 23193.20
1060.160, 23159.27
1060.642, 23149.58
1061.124, 23163.18
1061.606, 23188.84
1062.088, 23195.23
1062.570, 23169.94
1063.052, 23169.19
1063.534, 23206.97
1064.016, 23247.98
1064.499, 23239.49
1064.981, 23210.70
1065.463, 23213.00
1065.945, 23255.49
1066.427, 23288.73
1066.909, 23289.74
1067.391, 23290.24
1067.873, 23300.44
1068.355, 23319.06
1068.838, 23349.28
1069.320, 23386.02
1069.802, 23402.75
1070.284, 23377.29
1070.766, 23349.43
1071.248, 23348.72
1071.730, 23355.84
1072.212, 23345.67
1072.695, 23309.38
1073.177, 23282.24
1073.659, 23260.67
1074.141, 23272.38
1074.623, 23388.04
1075.105, 23517.03
1075.587, 23534.29
1076.069, 23455.95
1076.552, 23388.48
1077.034, 23343.49
1077.516, 23331.49
1077.998, 23363.98
1078.480, 23415.81
1078.962, 23451.92
1079.444, 23472.13
1079.926, 23469.49
1080.408, 23438.75
1080.891, 23415.46
1081.373, 23421.31
1081.855, 23438.33
1082.337, 23456.82
1082.819, 23476.41
1083.301, 23493.67
1083.783, 23508.62
1084.265, 23522.64
1084.747, 23541.07
1085.230, 23552.27
1085.712, 23531.86
1086.194, 23501.71
1086.676, 23498.92
1087.158, 23548.12
1087.640, 23573.90
1088.122, 23568.44
1088.604, 23562.12
1089.087, 23605.20
1089.569, 23655.14
1090.051, 23598.88
1090.533, 23458.81
1091.015, 23394.55
1091.497, 23561.96
1091.979, 23689.32
1092.461, 23706.12
1092.943, 23659.75
1093.426, 23630.40
1093.908, 23616.36
1094.390, 23606.71
1094.872, 23597.81
1095.354, 23605.88
1095.836, 23670.43
1096.318, 23730.49
1096.800, 23730.43
1097.283, 23676.84
1097.765, 23690.62
1098.247, 23777.25
1098.729, 23831.66
1099.211, 23785.93
1099.693, 23720.66
1100.175, 23724.41
1100.657, 23765.33
1101.140, 23793.69
1101.622, 23800.44
1102.104, 23790.26
1102.586, 23752.81
1103.068, 23729.53
1103.550, 23775.35
1104.032, 23850.74
1104.514, 23866.07
1104.996, 23833.29
1105.479, 23820.24
1105.961, 23892.90
1106.443, 23934.53
1106.925, 23915.18
1107.407, 23861.18
1107.889, 23802.84
1108.371, 23745.03
1108.853, 23718.18
1109.335, 23727.54
1109.818, 23749.58
1110.300, 23778.72
1110.782, 23807.13
1111.264, 23836.05
1111.746, 23861.21
1112.228, 23844.35
1112.710, 23783.66
1113.192, 23749.12
1113.675, 23770.52
1114.157, 23812.57
1114.639, 23859.83
1115.121, 23897.42
1115.603, 23902.73
1116.085, 23859.25
1116.567, 23837.63
1117.049, 23840.63
1117.531, 23854.46
1118.014, 23872.53
1118.496, 23894.37
1118.978, 23910.20
1119.460, 23929.33
1119.942, 23976.31
1120.424, 24138.53
1120.906, 24202.38
1121.388, 24114.96
1121.870, 23988.96
1122.353, 23942.17
1122.835, 23958.29
1123.317, 23996.16
1123.799, 24051.22
1124.281, 24104.70
1124.763, 24164.51
1125.245, 24197.53
1125.727, 24181.68
1126.210, 24140.79
1126.692, 24129.63
1127.174, 24144.98
1127.656, 24157.42
1128.138, 24160.66
1128.620, 24161.11
1129.102, 24165.19
1129.584, 24166.51
1130.067, 24153.11
1130.549, 24127.85
1131.031, 24143.12
1131.513, 24203.46
1131.995, 24231.26
1132.477, 24172.83
1132.959, 24110.09
1133.441, 24145.65
1133.923, 24222.92
1134.406, 24261.33
1134.888, 24238.26
1135.370, 24215.26
1135.852, 24190.93
1136.334, 24172.95
1136.816, 24159.12
1137.298, 24159.23
1137.780, 24201.60
1138.262, 24271.52
1138.745, 24326.03
1139.227, 24351.05
1139.709, 24358.71
1140.191, 24341.74
1140.673, 24324.41
1141.155, 24342.96
1141.637, 24380.09
1142.119, 24388.67
1142.602, 24368.30
1143.084, 24350.36
1143.566, 24344.98
1144.048, 24348.65
1144.530, 24364.70
1145.012, 24384.15
1145.494, 24380.87
1145.976, 24363.80
1146.458, 24381.77
1146.941, 24448.92
1147.423, 24504.25
1147.905, 24523.89
1148.387, 24507.71
1148.869, 24446.34
1149.351, 24352.26
1149.833, 24287.98
1150.315, 24253.95
1150.797, 24260.44
1151.280, 24320.70
1151.762, 24397.18
1152.244, 24495.06
1152.726, 24571.33
1153.208, 24575.58
1153.690, 24499.63
1154.172, 24446.91
1154.654, 24417.24
1155.137, 24408.36
1155.619, 24434.84
1156.101, 24464.82
1156.583, 24457.56
1157.065, 24435.04
1157.547, 24440.14
1158.029, 24487.94
1158.511, 24524.82
1158.994, 24549.84
1159.476, 24562.67
1159.958, 24546.20
1160.440, 24529.00
1160.922, 24565.71
1161.404, 24636.79
1161.886, 24659.80
1162.368, 24594.28
1162.850, 24544.26
1163.333, 24524.06
1163.815, 24516.52
1164.297, 24497.07
1164.779, 24478.05
1165.261, 24489.38
1165.743, 24530.42
1166.225, 24548.31
1166.707, 24507.37
1167.189, 24480.29
1167.672, 24485.24
1168.154, 24510.83
1168.636, 24539.85
1169.118, 24572.46
1169.600, 24618.07
1170.082, 24684.91
1170.564, 24711.18
1171.046, 24628.23
1171.529, 24563.44
1172.011, 24575.51
1172.493, 24632.30
1172.975, 24635.46
1173.457, 24602.08
1173.939, 24590.06
1174.421, 24625.88
1174.903, 24662.22
1175.385, 24689.91
1175.868, 24701.37
1176.350, 24682.26
1176.832, 24641.37
1177.314, 24642.13
1177.796, 24676.94
1178.278, 24705.43
1178.760, 24710.92
1179.242, 24703.61
1179.724, 24674.10
1180.207, 24644.38
1180.689, 24634.43
1181.171, 24643.98
1181.653, 24665.73
1182.135, 24697.86
1182.617, 24716.73
1183.099, 24688.90
1183.581, 24664.83
1184.064, 24677.04
1184.546, 24706.66
1185.028, 24723.54
1185.510, 24726.91
1185.992, 24759.31
1186.474, 24824.55
1186.956, 24862.18
1187.438, 24780.91
1187.921, 24703.49
1188.403, 24739.90
1188.885, 24838.63
1189.367, 24861.96
1189.849, 24804.69
1190.331, 24754.58
1190.813, 24724.05
1191.295, 24709.87
1191.777, 24715.15
1192.260, 24730.90
1192.742, 24756.27
1193.224, 24787.06
1193.706, 24799.78
1194.188, 24791.63
1194.670, 24798.23
1195.152, 24833.55
1195.634, 24862.36
1196.116, 24834.40
1196.599, 24794.25
1197.081, 24783.91
1197.563, 24805.92
1198.045, 24850.07
1198.527, 24922.48
1199.009, 24959.63
1199.491, 24930.49
1199.973, 24877.30
1200.456, 24832.44
1200.938, 24796.19
1201.420, 24764.52
1201.902, 24733.37
1202.384, 24749.48
1202.866, 24818.12
1203.348, 24896.37
1203.830, 24980.64
1204.313, 25038.10
1204.795, 25000.44
1205.277, 24924.53
1205.759, 24900.03
1206.241, 24954.91
1206.723, 24981.84
1207.205, 24977.97
1207.687, 24966.52
1208.169, 24953.47
1208.651, 24948.30
1209.134, 24970.62
1209.616, 25006.34
1210.098, 25026.41
1210.580, 25024.10
1211.062, 25019.46
1211.544, 25012.09
1212.026, 25006.84
1212.508, 25006.98
1212.991, 25011.70
1213.473, 25017.70
1213.955, 25027.88
1214.437, 25054.20
1214.919, 25113.13
1215.401, 25129.36
1215.883, 25089.98
1216.365, 25048.54
1216.848, 25056.04
1217.330, 25083.63
1217.812, 25104.89
1218.294, 25118.39
1218.776, 25122.07
1219.258, 25108.62
1219.740, 25119.99
1220.222, 25169.35
1220.704, 25202.55
1221.187, 25132.71
1221.669, 25041.13
1222.151, 25017.08
1222.633, 25058.52
1223.115, 25101.35
1223.597, 25147.33
1224.079, 25171.68
1224.561, 25166.90
1225.043, 25152.94
1225.526, 25141.13
1226.008, 25139.05
1226.490, 25162.26
1226.972, 25209.46
1227.454, 25233.29
1227.936, 25228.73
1228.418, 25225.46
1228.900, 25229.00
1229.383, 25243.23
1229.865, 25284.84
1230.347, 25331.24
1230.829, 25357.89
1231.311, 25362.59
1231.793, 25362.51
1232.275, 25358.94
1232.757, 25338.42
1233.240, 25291.08
1233.722, 25242.40
1234.204, 25222.65
1234.686, 25214.21
1235.168, 25184.91
1235.650, 25132.24
1236.132, 25176.14
1236.614, 25327.89
1237.096, 25416.57
1237.579, 25349.77
1238.061, 25259.12
1238.543, 25271.99
1239.025, 25325.62
1239.507, 25351.68
1239.989, 25347.27
1240.471, 25341.83
1240.953, 25335.39
1241.436, 25328.35
1241.918, 25318.39
1242.400, 25312.85
1242.882, 25315.97
1243.364, 25328.45
1243.846, 25351.54
1244.328, 25385.51
1244.810, 25417.54
1245.292, 25448.33
1245.775, 25488.89
1246.257, 25573.47
1246.739, 25627.52
1247.221, 25567.15
1247.703, 25475.34
1248.185, 25442.35
1248.667, 25469.73
1249.149, 25489.22
1249.631, 25500.51
1250.114, 25499.41
1250.596, 25459.79
1251.078, 25437.00
1251.560, 25486.77
1252.042, 25545.17
1252.524, 25546.04
1253.006, 25492.81
1253.488, 25439.76
1253.971, 25392.41
1254.453, 25386.57
1254.935, 25480.77
1255.417, 25570.70
1255.899, 25623.85
1256.381, 25650.32
1256.863, 25648.16
1257.345, 25624.16
1257.828, 25631.87
1258.310, 25663.09
1258.792, 25664.51
1259.274, 25551.92
1259.756, 25489.21
1260.238, 25533.84
1260.720, 25609.19
1261.202, 25639.50
1261.684, 25636.00
1262.167, 25629.45
1262.649, 25622.83
1263.131, 25623.92
1263.613, 25658.75
1264.095, 25663.92
1264.577, 25617.62
1265.059, 25566.71
1265.541, 25562.78
1266.023, 25590.82
1266.506, 25624.39
1266.988, 25661.35
1267.470, 25700.88
1267.952, 25770.46
1268.434, 25784.61
1268.916, 25717.48
1269.398, 25646.88
1269.880, 25664.66
1270.363, 25724.60
1270.845, 25763.62
1271.327, 25782.00
1271.809, 25796.80
1272.291, 25811.93
1272.773, 25821.21
1273.255, 25824.61
1273.737, 25818.15
1274.219, 25781.83
1274.702, 25746.48
1275.184, 25749.70
1275.666, 25784.13
1276.148, 25808.10
1276.630, 25815.81
1277.112, 25845.04
1277.594, 25903.91
1278.076, 25948.78
1278.558, 25924.59
1279.041, 25886.73
1279.523, 25885.16
1280.005, 25903.67
1280.487, 25889.54
1280.969, 25841.77
1281.451, 25828.90
1281.933, 25860.35
1282.415, 25902.41
1282.898, 25941.99
1283.380, 25974.18
1283.862, 25997.54
1284.344, 26011.41
1284.826, 26006.30
1285.308, 25986.95
1285.790, 25994.48
1286.272, 26032.70
1286.755, 26048.49
1287.237, 25981.95
1287.719, 25926.46
1288.201, 25910.91
1288.683, 25924.25
1289.165, 25965.92
1289.647, 26018.11
1290.129, 26018.77
1290.611, 25965.12
1291.094, 25936.23
1291.576, 25984.76
1292.058, 26022.84
1292.540, 26031.46
1293.022, 26028.13
1293.504, 26039.05
1293.986, 26053.29
1294.468, 26048.31
1294.950, 26024.68
1295.433, 26017.36
1295.915, 26035.68
1296.397, 26052.27
1296.879, 26063.90
1297.361, 26065.45
1297.843, 26043.10
1298.325, 26013.65
1298.807, 25987.95
1299.290, 25971.62
1299.772, 25989.24
1300.254, 26047.57
1300.736, 26078.32
1301.218, 26067.52
1301.700, 26050.52
1302.182, 26068.36
##END=



