##NAMES=Tremolite
##RRUFFID=R060311
##IDEAL CHEMISTRY=[box]Ca_2_Mg_5_Si_8_O_22_(OH)_2_
##LOCALITY=Khyber Pass area, Khyber Agency, North-West Frontier Province, Pakistan
##OWNER=RRUFF
##SOURCE=Herb Obodda
##DESCRIPTION=Colorless fragment
##STATUS=The identification of this mineral has been confirmed by X-ray diffraction and chemical analysis
##URL=rruff.info/R060311
##MEASURED CHEMISTRY=[box](Ca_1.96_Mg_0.04_)_Σ=2_(Mg_4.97_Fe^3+^_0.03_)_Σ=5_(Si_7.97_Al_0.03_)_Σ=8_O_22_(OH)_2_
90.49219, 34.50376
90.97430, 33.78596
91.45642, 33.53186
91.93854, 34.41597
92.42065, 35.56494
92.90277, 35.53209
93.38489, 34.05644
93.86700, 32.18529
94.34912, 31.06170
94.83124, 30.62610
95.31335, 30.58006
95.79547, 31.14130
96.27759, 32.05412
96.75970, 32.17929
97.24182, 31.12869
97.72394, 29.50283
98.20605, 28.63586
98.68817, 28.59760
99.17029, 28.73679
99.65240, 28.48827
100.1345, 27.81262
100.6166, 27.31314
101.0988, 27.07417
101.5809, 27.10193
102.0630, 27.54809
102.5451, 28.66475
103.0272, 29.75898
103.5093, 30.00492
103.9915, 29.10825
104.4736, 28.10459
104.9557, 27.16349
105.4378, 26.19558
105.9199, 25.85718
106.4020, 26.59515
106.8842, 27.74219
107.3663, 28.09010
107.8484, 26.76188
108.3305, 25.64841
108.8126, 25.48249
109.2947, 27.39132
109.7769, 28.37134
110.2590, 27.82662
110.7411, 26.24713
111.2232, 25.17078
111.7053, 25.04970
112.1874, 25.13515
112.6696, 25.09359
113.1517, 24.74236
113.6338, 24.42534
114.1159, 24.01887
114.5980, 23.59253
115.0801, 23.63828
115.5623, 25.20294
116.0444, 26.83825
116.5265, 27.42272
117.0086, 25.14366
117.4907, 23.10251
117.9728, 22.91177
118.4550, 24.67946
118.9371, 25.83698
119.4192, 24.59840
119.9013, 22.23160
120.3834, 20.37108
120.8655, 19.80768
121.3477, 19.90586
121.8298, 20.34826
122.3119, 21.17079
122.7940, 21.97099
123.2761, 22.50056
123.7582, 22.79722
124.2404, 22.94502
124.7225, 22.88020
125.2046, 22.72861
125.6867, 22.61268
126.1688, 22.50419
126.6509, 22.54479
127.1331, 22.97109
127.6152, 23.72456
128.0973, 24.51419
128.5794, 25.43892
129.0615, 26.26066
129.5436, 26.32159
130.0258, 25.18273
130.5079, 23.54163
130.9900, 22.59980
131.4721, 22.36487
131.9542, 22.41187
132.4363, 22.27502
132.9185, 22.03518
133.4006, 22.25199
133.8827, 23.11064
134.3648, 24.52923
134.8469, 26.53031
135.3290, 29.28715
135.8112, 31.87388
136.2933, 32.80592
136.7754, 31.94052
137.2575, 31.74816
137.7396, 33.39650
138.2217, 36.78920
138.7039, 39.19141
139.1860, 40.17788
139.6681, 40.84969
140.1502, 43.00768
140.6323, 46.95557
141.1144, 51.30611
141.5966, 55.66797
142.0787, 60.11382
142.5608, 64.05710
143.0429, 67.17698
143.5250, 69.96564
144.0071, 73.66739
144.4893, 78.95718
144.9714, 84.01153
145.4535, 87.91149
145.9356, 90.14494
146.4177, 92.32584
146.8998, 94.57813
147.3820, 96.81721
147.8641, 98.72734
148.3462, 99.53526
148.8283, 100.7163
149.3104, 103.0461
149.7925, 106.2460
150.2747, 110.9766
150.7568, 117.8359
151.2389, 126.6235
151.7210, 134.9586
152.2031, 142.1808
152.6852, 149.2668
153.1674, 156.9053
153.6495, 164.8562
154.1316, 173.5764
154.6137, 182.5715
155.0958, 191.8079
155.5779, 203.6325
156.0601, 217.6800
156.5422, 234.7385
157.0243, 255.3405
157.5064, 278.4266
157.9885, 306.1455
158.4706, 339.3874
158.9528, 378.3852
159.4349, 421.1772
159.9170, 479.3583
160.3991, 537.5038
160.8812, 577.7833
161.3633, 593.3508
161.8455, 591.3460
162.3276, 569.8457
162.8097, 524.7061
163.2918, 481.9134
163.7739, 454.1952
164.2560, 434.9396
164.7382, 412.0721
165.2203, 380.1771
165.7024, 349.7734
166.1845, 326.6606
166.6666, 311.9816
167.1487, 302.3566
167.6309, 296.4693
168.1130, 293.9975
168.5951, 294.4085
169.0772, 297.7383
169.5593, 303.5198
170.0414, 311.4335
170.5236, 321.5854
171.0057, 333.4059
171.4878, 345.8978
171.9699, 359.6676
172.4520, 376.3106
172.9341, 395.9965
173.4163, 419.3596
173.8984, 446.9600
174.3805, 478.5820
174.8626, 515.0601
175.3447, 556.9220
175.8268, 604.4919
176.3090, 659.8737
176.7911, 731.0828
177.2732, 809.3985
177.7553, 882.5294
178.2374, 957.3124
178.7195, 1014.952
179.2017, 1032.439
179.6838, 1011.213
180.1659, 960.4041
180.6480, 870.2801
181.1301, 755.8000
181.6122, 649.0432
182.0944, 555.9353
182.5765, 477.8632
183.0586, 416.8173
183.5407, 373.6281
184.0228, 341.4747
184.5049, 317.7565
184.9871, 301.1710
185.4692, 288.1157
185.9513, 277.6331
186.4334, 269.6930
186.9155, 264.4896
187.3976, 262.1776
187.8798, 261.0247
188.3619, 258.7190
188.8440, 255.6592
189.3261, 254.6590
189.8082, 257.5161
190.2903, 263.1296
190.7725, 267.7917
191.2546, 271.5849
191.7367, 274.3260
192.2188, 275.8177
192.7009, 276.0944
193.1830, 275.4680
193.6652, 274.2155
194.1473, 272.2183
194.6294, 268.4725
195.1115, 262.6708
195.5936, 256.1586
196.0757, 250.4610
196.5579, 245.5716
197.0400, 241.5185
197.5221, 238.2463
198.0042, 235.7754
198.4863, 234.4937
198.9684, 234.5875
199.4506, 235.4786
199.9327, 236.2050
200.4148, 236.6770
200.8969, 237.7798
201.3790, 239.9045
201.8611, 243.0562
202.3433, 246.7576
202.8254, 250.9131
203.3075, 255.7773
203.7896, 261.7425
204.2717, 268.8921
204.7538, 276.7983
205.2360, 285.4120
205.7181, 294.7963
206.2002, 304.2747
206.6823, 313.8752
207.1644, 323.5287
207.6465, 332.5960
208.1287, 340.2195
208.6108, 349.9067
209.0929, 363.5096
209.5750, 381.7047
210.0571, 400.2956
210.5392, 418.8078
211.0214, 438.2590
211.5035, 461.1379
211.9856, 487.9760
212.4677, 516.1257
212.9498, 545.1387
213.4319, 575.6243
213.9140, 603.8177
214.3962, 631.1370
214.8783, 655.3220
215.3604, 669.9123
215.8425, 672.2159
216.3246, 671.3156
216.8067, 669.4783
217.2889, 663.4538
217.7710, 667.5230
218.2531, 682.3522
218.7352, 707.0701
219.2173, 740.1124
219.6994, 781.8759
220.1816, 831.5302
220.6637, 890.3495
221.1458, 961.4213
221.6279, 1034.682
222.1100, 1116.847
222.5921, 1198.777
223.0743, 1261.290
223.5564, 1310.181
224.0385, 1328.780
224.5206, 1306.161
225.0027, 1229.981
225.4848, 1144.032
225.9670, 1041.409
226.4491, 932.6955
226.9312, 843.4108
227.4133, 775.8461
227.8954, 724.9180
228.3775, 690.1260
228.8597, 673.3934
229.3418, 666.8586
229.8239, 672.1788
230.3060, 687.1402
230.7881, 706.2831
231.2702, 733.3558
231.7524, 759.2829
232.2345, 780.8406
232.7166, 802.0643
233.1987, 810.4100
233.6808, 805.4316
234.1629, 787.8186
234.6451, 757.7316
235.1272, 709.6905
235.6093, 657.7152
236.0914, 607.2708
236.5735, 557.0651
237.0556, 511.2180
237.5378, 469.0298
238.0199, 431.3792
238.5020, 400.9414
238.9841, 379.5409
239.4662, 362.1250
239.9483, 346.4879
240.4305, 332.2832
240.9126, 321.0280
241.3947, 313.1091
241.8768, 307.9960
242.3589, 304.2487
242.8410, 300.8954
243.3232, 300.3634
243.8053, 304.2610
244.2874, 315.3804
244.7695, 323.9186
245.2516, 327.8550
245.7337, 330.0451
246.2159, 336.8277
246.6980, 349.0788
247.1801, 364.5880
247.6622, 382.8983
248.1443, 404.8891
248.6264, 427.6797
249.1086, 452.8657
249.5907, 478.2428
250.0728, 499.8929
250.5549, 519.9616
251.0370, 532.7321
251.5191, 535.8522
252.0013, 528.3495
252.4834, 513.8354
252.9655, 489.8235
253.4476, 460.4430
253.9297, 432.9421
254.4118, 407.1133
254.8940, 384.0693
255.3761, 364.3959
255.8582, 348.4168
256.3403, 334.2447
256.8224, 321.7641
257.3046, 311.1566
257.7867, 303.1043
258.2688, 298.0735
258.7509, 294.4726
259.2330, 291.8322
259.7151, 290.0824
260.1973, 289.6380
260.6794, 290.6389
261.1615, 292.8190
261.6436, 295.8473
262.1257, 299.9176
262.6078, 304.4651
263.0900, 309.6859
263.5721, 315.8900
264.0542, 320.4084
264.5363, 324.0290
265.0184, 325.0722
265.5005, 320.9926
265.9827, 310.6124
266.4648, 298.5287
266.9469, 285.4103
267.4290, 271.2425
267.9111, 258.9162
268.3932, 248.5228
268.8754, 239.9792
269.3575, 233.4225
269.8396, 229.1172
270.3217, 225.6141
270.8038, 222.5846
271.2859, 220.0172
271.7681, 218.2592
272.2502, 217.4778
272.7323, 217.1593
273.2144, 216.9178
273.6965, 216.8244
274.1786, 216.3704
274.6608, 215.1681
275.1429, 213.4459
275.6250, 212.9432
276.1071, 213.9111
276.5892, 215.3749
277.0714, 216.4809
277.5535, 217.2068
278.0356, 217.8118
278.5177, 218.2125
278.9998, 218.5619
279.4819, 219.6376
279.9641, 221.6239
280.4462, 223.6210
280.9283, 224.7121
281.4104, 224.8430
281.8925, 225.4781
282.3746, 226.7014
282.8568, 228.6749
283.3389, 232.2281
283.8210, 237.5582
284.3031, 242.9347
284.7852, 246.7131
285.2673, 249.0092
285.7495, 252.5176
286.2316, 257.5511
286.7137, 263.9595
287.1958, 271.7084
287.6779, 280.8227
288.1600, 290.3857
288.6422, 300.3184
289.1243, 310.4978
289.6064, 319.8705
290.0885, 329.0499
290.5706, 336.0291
291.0527, 337.3646
291.5349, 333.2184
292.0170, 325.8511
292.4991, 314.4637
292.9812, 300.5248
293.4633, 289.8543
293.9454, 282.9024
294.4276, 278.2521
294.9097, 274.2544
295.3918, 270.9937
295.8739, 269.0410
296.3560, 269.0895
296.8381, 270.6111
297.3203, 272.3698
297.8024, 274.2986
298.2845, 276.7162
298.7666, 279.6323
299.2487, 283.2280
299.7308, 288.1572
300.2130, 295.2467
300.6951, 303.6355
301.1772, 312.1106
301.6593, 320.6372
302.1414, 329.2347
302.6235, 339.2162
303.1057, 349.1824
303.5878, 356.0779
304.0699, 358.7572
304.5520, 358.0827
305.0341, 354.8242
305.5162, 349.0523
305.9984, 341.0633
306.4805, 328.9623
306.9626, 315.3525
307.4447, 304.0865
307.9268, 296.3382
308.4089, 290.8573
308.8911, 286.9431
309.3732, 284.4637
309.8553, 282.8857
310.3374, 281.5301
310.8195, 281.0792
311.3016, 282.8087
311.7838, 288.6598
312.2659, 293.1173
312.7480, 291.6309
313.2301, 285.8637
313.7122, 279.9382
314.1943, 275.6898
314.6765, 271.9794
315.1586, 267.8331
315.6407, 262.8212
316.1228, 258.4547
316.6049, 255.3777
317.0870, 253.4563
317.5692, 252.5022
318.0513, 253.1875
318.5334, 254.1920
319.0155, 254.7446
319.4976, 254.6532
319.9797, 255.0671
320.4619, 256.5247
320.9440, 258.6299
321.4261, 260.9169
321.9082, 263.7491
322.3903, 266.3025
322.8724, 268.0327
323.3546, 268.9081
323.8367, 270.4231
324.3188, 273.3995
324.8009, 276.8445
325.2830, 279.9655
325.7651, 282.1340
326.2473, 284.6067
326.7294, 287.4178
327.2115, 290.6164
327.6936, 294.5607
328.1757, 299.1360
328.6578, 304.5284
329.1400, 310.8337
329.6221, 317.2773
330.1042, 325.5817
330.5863, 336.3325
331.0684, 349.0176
331.5505, 361.9713
332.0327, 376.0203
332.5148, 389.5078
332.9969, 402.5848
333.4790, 417.3309
333.9611, 425.1518
334.4432, 424.5495
334.9254, 417.8508
335.4075, 408.4159
335.8896, 394.1299
336.3717, 381.2003
336.8538, 371.5980
337.3359, 365.3846
337.8180, 360.8643
338.3001, 357.5993
338.7823, 356.6883
339.2644, 359.9907
339.7465, 368.4279
340.2286, 377.0931
340.7107, 384.6069
341.1928, 391.3603
341.6750, 399.3123
342.1571, 408.6870
342.6392, 418.7968
343.1213, 430.3164
343.6034, 443.2187
344.0855, 452.6568
344.5677, 457.4982
345.0498, 458.6472
345.5319, 457.6321
346.0140, 454.4076
346.4961, 450.3496
346.9782, 445.1432
347.4604, 439.4692
347.9425, 436.7601
348.4246, 437.2722
348.9067, 440.9254
349.3888, 448.8373
349.8709, 460.3662
350.3531, 471.9295
350.8352, 481.9262
351.3173, 490.6582
351.7994, 499.5168
352.2815, 508.7042
352.7636, 515.5017
353.2458, 517.0763
353.7279, 514.3055
354.2100, 509.0508
354.6921, 500.9835
355.1742, 491.5079
355.6563, 481.6680
356.1385, 471.5371
356.6206, 461.4930
357.1027, 449.8707
357.5848, 439.2075
358.0669, 432.4962
358.5490, 431.8362
359.0312, 433.3708
359.5133, 434.7435
359.9954, 436.3349
360.4775, 439.3268
360.9596, 444.4122
361.4417, 451.0029
361.9239, 458.7664
362.4060, 467.6577
362.8881, 477.6792
363.3702, 488.3647
363.8523, 500.2622
364.3344, 514.2145
364.8166, 528.9218
365.2987, 547.2478
365.7808, 569.4347
366.2629, 595.4487
366.7450, 627.1370
367.2271, 665.8124
367.7093, 709.7730
368.1914, 757.5228
368.6735, 817.6882
369.1556, 872.3518
369.6377, 922.8233
370.1198, 968.0556
370.6020, 993.0888
371.0841, 997.2025
371.5662, 981.7361
372.0483, 945.8870
372.5304, 875.5125
373.0125, 810.3291
373.4947, 749.9911
373.9768, 696.2864
374.4589, 653.1043
374.9410, 622.0627
375.4231, 598.1725
375.9052, 580.3691
376.3874, 569.3158
376.8695, 558.7239
377.3516, 548.2643
377.8337, 538.6433
378.3158, 530.6377
378.7979, 524.3884
379.2801, 518.4970
379.7622, 512.4203
380.2443, 506.3955
380.7264, 501.1490
381.2085, 496.6897
381.6906, 493.1367
382.1728, 489.9806
382.6549, 487.5218
383.1370, 488.0424
383.6191, 492.3407
384.1012, 499.0296
384.5833, 505.6545
385.0655, 512.4680
385.5476, 521.1295
386.0297, 532.7012
386.5118, 546.8365
386.9939, 563.0613
387.4760, 581.1932
387.9582, 601.8521
388.4403, 624.6448
388.9224, 650.7070
389.4045, 682.0573
389.8866, 720.7982
390.3687, 764.6071
390.8509, 811.1882
391.3330, 860.3734
391.8151, 913.3679
392.2972, 973.3538
392.7793, 1035.820
393.2614, 1097.451
393.7436, 1162.819
394.2257, 1218.259
394.7078, 1263.954
395.1899, 1295.452
395.6720, 1301.035
396.1541, 1272.867
396.6363, 1221.302
397.1184, 1147.045
397.6005, 1041.906
398.0826, 940.4671
398.5647, 842.3260
399.0468, 752.4985
399.5290, 677.0660
400.0111, 620.9279
400.4932, 574.5701
400.9753, 537.7017
401.4574, 510.1973
401.9395, 487.6165
402.4217, 470.7325
402.9038, 457.7133
403.3859, 447.4307
403.8680, 439.9590
404.3501, 435.2078
404.8322, 433.9971
405.3144, 435.1418
405.7965, 435.3814
406.2786, 434.2109
406.7607, 433.7946
407.2428, 434.8326
407.7249, 437.3204
408.2071, 442.2115
408.6892, 449.8302
409.1713, 458.9419
409.6534, 467.6237
410.1355, 475.9717
410.6176, 486.4791
411.0998, 500.0836
411.5819, 516.2606
412.0640, 533.9159
412.5461, 552.9059
413.0282, 573.5291
413.5103, 596.8855
413.9925, 621.6455
414.4746, 645.7513
414.9567, 669.4251
415.4388, 690.8201
415.9209, 710.3840
416.4030, 726.5134
416.8852, 735.7543
417.3673, 737.5217
417.8494, 730.7642
418.3315, 712.9386
418.8136, 683.9802
419.2957, 650.5852
419.7779, 612.8401
420.2600, 574.2490
420.7421, 538.9445
421.2242, 507.5214
421.7063, 479.7635
422.1884, 455.0729
422.6706, 433.6828
423.1527, 415.4783
423.6348, 401.5480
424.1169, 390.1718
424.5990, 380.6608
425.0811, 373.7486
425.5633, 367.0796
426.0454, 359.6401
426.5275, 352.7857
427.0096, 348.2757
427.4917, 347.7023
427.9738, 347.1096
428.4560, 345.5776
428.9381, 343.1593
429.4202, 341.3104
429.9023, 339.8900
430.3844, 339.3185
430.8665, 340.0423
431.3487, 342.2162
431.8308, 344.7216
432.3129, 347.4216
432.7950, 350.4477
433.2771, 353.9671
433.7592, 357.9409
434.2414, 362.5604
434.7235, 368.5697
435.2056, 375.3750
435.6877, 380.9149
436.1698, 385.2326
436.6519, 387.5923
437.1341, 387.2999
437.6162, 384.4292
438.0983, 378.9858
438.5804, 370.2401
439.0625, 359.9873
439.5446, 349.4488
440.0268, 338.9353
440.5089, 329.5746
440.9910, 322.2415
441.4731, 316.2455
441.9552, 310.9644
442.4373, 306.4223
442.9195, 302.3460
443.4016, 298.2358
443.8837, 294.6404
444.3658, 292.2272
444.8479, 292.1949
445.3300, 292.3671
445.8122, 291.9673
446.2943, 291.0800
446.7764, 290.5511
447.2585, 290.9933
447.7406, 291.4452
448.2227, 291.4073
448.7049, 290.5764
449.1870, 289.8277
449.6691, 289.1465
450.1512, 288.5581
450.6333, 288.0762
451.1154, 287.5478
451.5976, 287.4702
452.0797, 288.1548
452.5618, 289.5208
453.0439, 290.3165
453.5260, 290.4295
454.0081, 290.2791
454.4903, 290.0835
454.9724, 289.8482
455.4545, 289.8905
455.9366, 290.3019
456.4187, 290.8958
456.9008, 291.2950
457.3830, 291.5464
457.8651, 291.9615
458.3472, 292.9940
458.8293, 294.1999
459.3114, 294.6343
459.7935, 294.2974
460.2757, 294.0060
460.7578, 294.7047
461.2399, 295.7692
461.7220, 296.2614
462.2041, 295.5544
462.6862, 294.8839
463.1684, 295.0347
463.6505, 295.8295
464.1326, 296.8587
464.6147, 298.4616
465.0968, 299.8459
465.5789, 300.4455
466.0611, 300.1044
466.5432, 299.9393
467.0253, 299.9307
467.5074, 300.3145
467.9895, 301.2941
468.4716, 303.8528
468.9538, 305.7630
469.4359, 306.5247
469.9180, 306.5420
470.4001, 307.1415
470.8822, 308.6359
471.3643, 310.1624
471.8465, 311.3627
472.3286, 312.2039
472.8107, 313.1435
473.2928, 314.2329
473.7749, 315.2846
474.2570, 315.8867
474.7392, 316.0484
475.2213, 316.7839
475.7034, 318.4457
476.1855, 320.6461
476.6676, 322.6159
477.1497, 324.3860
477.6319, 326.1640
478.1140, 328.3038
478.5961, 330.4752
479.0782, 331.8596
479.5603, 332.3188
480.0424, 333.1615
480.5246, 335.7588
481.0067, 339.3271
481.4888, 342.7680
481.9709, 345.8408
482.4530, 348.6026
482.9352, 350.6798
483.4173, 352.3943
483.8994, 354.7659
484.3815, 359.4031
484.8636, 363.7480
485.3457, 366.4043
485.8279, 366.7977
486.3100, 367.3844
486.7921, 369.1227
487.2742, 370.7233
487.7563, 371.0532
488.2384, 369.7038
488.7206, 367.7226
489.2027, 364.9410
489.6848, 361.6623
490.1669, 358.9833
490.6490, 356.9923
491.1311, 355.4048
491.6133, 353.9720
492.0954, 352.6992
492.5775, 352.6971
493.0596, 354.2214
493.5417, 355.9469
494.0238, 356.4900
494.5060, 355.9913
494.9881, 355.0126
495.4702, 353.5675
495.9523, 351.9176
496.4344, 350.4985
496.9165, 349.2298
497.3987, 347.8178
497.8808, 345.6966
498.3629, 343.5755
498.8450, 342.0390
499.3271, 341.1114
499.8092, 340.8765
500.2914, 341.3364
500.7735, 342.5157
501.2556, 344.4767
501.7377, 348.6544
502.2198, 351.8660
502.7019, 352.8339
503.1841, 352.3091
503.6662, 352.3596
504.1483, 353.2587
504.6304, 354.6441
505.1125, 356.4172
505.5946, 358.5736
506.0768, 361.1863
506.5589, 364.3955
507.0410, 367.8371
507.5231, 371.1821
508.0052, 374.3612
508.4873, 377.8299
508.9695, 381.5438
509.4516, 385.6169
509.9337, 390.2311
510.4158, 395.3822
510.8979, 400.9926
511.3800, 407.4596
511.8622, 414.2713
512.3443, 420.4472
512.8264, 425.9371
513.3085, 430.8240
513.7906, 435.5269
514.2728, 439.5094
514.7549, 441.9981
515.2370, 442.6703
515.7191, 442.3830
516.2012, 441.5074
516.6833, 440.0589
517.1655, 438.0495
517.6476, 434.8813
518.1297, 431.7588
518.6118, 428.9105
519.0939, 426.3860
519.5760, 424.5493
520.0582, 424.2144
520.5403, 423.9407
521.0224, 423.1216
521.5045, 421.5611
521.9866, 419.9199
522.4688, 417.8122
522.9509, 416.0428
523.4330, 415.5214
523.9151, 416.2705
524.3972, 418.2224
524.8793, 421.6181
525.3615, 425.9626
525.8436, 429.8879
526.3257, 433.4257
526.8078, 437.4842
527.2899, 442.9893
527.7720, 449.3909
528.2542, 455.6935
528.7363, 461.8656
529.2184, 467.0444
529.7005, 470.7003
530.1826, 472.7909
530.6647, 473.2349
531.1469, 472.0683
531.6290, 469.1336
532.1111, 463.7391
532.5932, 456.5539
533.0753, 448.9729
533.5574, 440.8612
534.0396, 432.8719
534.5217, 425.0287
535.0038, 417.3911
535.4859, 410.2850
535.9680, 403.5656
536.4501, 397.5760
536.9323, 392.5748
537.4144, 388.7363
537.8965, 385.2099
538.3786, 381.8022
538.8607, 378.9471
539.3428, 377.7484
539.8250, 378.3652
540.3071, 378.2825
540.7892, 376.4420
541.2713, 373.7284
541.7534, 372.5111
542.2355, 372.6663
542.7177, 372.8646
543.1998, 372.1534
543.6819, 370.9855
544.1640, 369.9442
544.6461, 369.0570
545.1282, 368.5841
545.6104, 368.9587
546.0925, 369.7536
546.5746, 370.5133
547.0567, 371.3511
547.5388, 371.7998
548.0209, 371.4366
548.5031, 370.5774
548.9852, 369.9127
549.4673, 368.9669
549.9494, 368.8668
550.4315, 370.3326
550.9136, 373.3536
551.3958, 375.0396
551.8779, 374.7589
552.3600, 374.2108
552.8421, 374.6378
553.3242, 376.2241
553.8063, 376.9333
554.2885, 376.5077
554.7706, 375.6798
555.2527, 375.2539
555.7348, 375.2409
556.2169, 375.7862
556.6990, 377.2247
557.1812, 378.8540
557.6633, 379.5326
558.1454, 379.4867
558.6275, 379.5699
559.1096, 380.7673
559.5917, 381.9516
560.0739, 381.8563
560.5560, 380.3726
561.0381, 379.5278
561.5202, 380.8780
562.0023, 382.7450
562.4844, 383.8754
562.9666, 383.4764
563.4487, 383.2510
563.9308, 383.2045
564.4129, 383.4147
564.8950, 384.0597
565.3771, 385.3663
565.8593, 386.5763
566.3414, 387.5348
566.8235, 388.2567
567.3056, 388.8013
567.7877, 389.1337
568.2698, 389.5053
568.7520, 389.9614
569.2341, 390.5664
569.7162, 391.7418
570.1983, 393.5290
570.6804, 395.2812
571.1625, 396.3850
571.6447, 397.0387
572.1268, 397.5151
572.6089, 397.7715
573.0910, 398.1216
573.5731, 398.9677
574.0552, 400.0195
574.5374, 400.7871
575.0195, 400.4887
575.5016, 400.5099
575.9837, 401.3836
576.4658, 403.0681
576.9479, 404.9100
577.4301, 407.3008
577.9122, 409.3372
578.3943, 410.4708
578.8764, 410.3915
579.3585, 411.2344
579.8406, 413.2872
580.3228, 415.6191
580.8049, 417.1635
581.2870, 417.9681
581.7691, 419.0358
582.2512, 420.5106
582.7333, 422.3433
583.2155, 424.8988
583.6975, 427.8012
584.1796, 430.0014
584.6617, 430.2080
585.1439, 430.0370
585.6260, 431.1532
586.1081, 433.2864
586.5902, 435.0692
587.0723, 435.5513
587.5544, 435.7365
588.0366, 436.3458
588.5187, 437.7124
589.0008, 438.3389
589.4829, 437.2274
589.9650, 435.8708
590.4471, 435.4533
590.9293, 436.6640
591.4114, 437.1257
591.8935, 436.2652
592.3756, 435.0551
592.8577, 435.4890
593.3398, 437.6753
593.8220, 439.6147
594.3041, 440.6640
594.7862, 441.0496
595.2683, 441.0355
595.7504, 440.7070
596.2325, 440.6893
596.7147, 441.7782
597.1968, 443.1764
597.6789, 443.8965
598.1610, 443.8589
598.6431, 443.8466
599.1252, 444.2876
599.6074, 444.9483
600.0895, 445.6783
600.5716, 446.7231
601.0537, 447.3644
601.5358, 446.9853
602.0179, 446.3424
602.5001, 446.5064
602.9822, 448.2460
603.4643, 449.1916
603.9464, 448.6512
604.4285, 447.1608
604.9106, 446.5163
605.3928, 446.7969
605.8749, 447.1988
606.3570, 447.2464
606.8391, 447.1113
607.3212, 447.4628
607.8033, 448.2760
608.2855, 449.0495
608.7676, 449.4914
609.2497, 449.6182
609.7318, 449.1557
610.2139, 447.7701
610.6960, 447.2851
611.1782, 449.6969
611.6603, 453.0818
612.1424, 455.4243
612.6245, 455.6389
613.1066, 455.5146
613.5887, 455.0269
614.0709, 454.4071
614.5530, 454.0983
615.0351, 454.1288
615.5172, 454.4214
615.9993, 454.9482
616.4814, 455.7260
616.9636, 456.9626
617.4457, 458.7035
617.9278, 460.3721
618.4099, 461.6788
618.8920, 462.6139
619.3741, 463.0759
619.8563, 463.0603
620.3384, 462.9674
620.8205, 463.0344
621.3026, 463.2491
621.7847, 463.5251
622.2668, 463.6721
622.7490, 464.3618
623.2311, 466.4034
623.7132, 468.9764
624.1953, 471.0322
624.6774, 471.9845
625.1595, 472.8960
625.6417, 473.7814
626.1238, 474.7358
626.6059, 476.0694
627.0880, 477.9650
627.5701, 479.7298
628.0522, 481.1586
628.5344, 482.2606
629.0165, 482.8102
629.4986, 482.7854
629.9807, 483.2170
630.4628, 484.9613
630.9449, 487.6284
631.4271, 490.6515
631.9092, 493.9971
632.3913, 497.3410
632.8734, 500.8830
633.3555, 504.0757
633.8376, 506.2949
634.3198, 506.6995
634.8019, 507.4605
635.2840, 509.5340
635.7661, 512.1406
636.2482, 514.1730
636.7303, 514.7914
637.2125, 516.1915
637.6946, 518.8015
638.1767, 522.3348
638.6588, 526.1282
639.1409, 530.2819
639.6230, 534.2359
640.1052, 537.6979
640.5873, 540.8829
641.0694, 544.2073
641.5515, 547.7327
642.0336, 551.7529
642.5157, 556.5195
642.9979, 561.8945
643.4800, 567.8353
643.9621, 574.4244
644.4442, 580.7659
644.9263, 585.5801
645.4084, 590.5604
645.8906, 597.0922
646.3727, 606.3273
646.8548, 615.3877
647.3369, 623.6746
647.8190, 631.9826
648.3011, 641.1011
648.7833, 651.2323
649.2654, 661.5844
649.7475, 671.8629
650.2296, 682.6745
650.7117, 696.1139
651.1938, 712.0473
651.6760, 727.4749
652.1581, 740.7784
652.6402, 753.3959
653.1223, 767.6712
653.6044, 783.1758
654.0865, 799.0002
654.5687, 815.3065
655.0508, 830.9647
655.5329, 844.9194
656.0150, 856.9708
656.4971, 869.9745
656.9792, 883.8718
657.4614, 899.5147
657.9435, 917.0338
658.4256, 935.8523
658.9077, 958.6300
659.3898, 985.7485
659.8719, 1016.133
660.3541, 1048.738
660.8362, 1083.420
661.3183, 1121.029
661.8004, 1161.264
662.2825, 1203.845
662.7646, 1247.249
663.2468, 1292.553
663.7289, 1342.372
664.2110, 1397.554
664.6931, 1457.692
665.1752, 1521.331
665.6573, 1589.492
666.1395, 1666.005
666.6216, 1750.856
667.1037, 1845.372
667.5858, 1950.042
668.0679, 2065.191
668.5500, 2190.863
669.0322, 2328.875
669.5143, 2475.976
669.9964, 2633.092
670.4785, 2799.806
670.9606, 2972.326
671.4427, 3152.426
671.9249, 3326.590
672.4070, 3494.731
672.8891, 3649.342
673.3712, 3778.532
673.8533, 3884.131
674.3354, 3940.316
674.8176, 3928.083
675.2997, 3857.867
675.7818, 3738.923
676.2639, 3558.811
676.7460, 3355.271
677.2281, 3124.292
677.7103, 2882.749
678.1924, 2651.204
678.6745, 2427.583
679.1566, 2223.277
679.6387, 2038.986
680.1208, 1875.771
680.6030, 1732.534
681.0851, 1611.498
681.5672, 1504.578
682.0493, 1411.330
682.5314, 1329.927
683.0135, 1261.229
683.4957, 1203.431
683.9778, 1152.149
684.4599, 1104.243
684.9420, 1061.951
685.4241, 1026.524
685.9063, 998.0179
686.3884, 972.4512
686.8705, 948.5269
687.3526, 928.1593
687.8347, 912.3448
688.3168, 901.7253
688.7990, 891.7344
689.2811, 882.4599
689.7632, 873.2993
690.2453, 863.5273
690.7274, 853.1852
691.2095, 844.0582
691.6917, 836.4124
692.1738, 828.9972
692.6559, 821.1432
693.1380, 812.6281
693.6201, 803.0348
694.1022, 792.0814
694.5844, 780.6093
695.0665, 768.6572
695.5486, 756.7168
696.0307, 745.3757
696.5128, 734.6869
696.9949, 724.9116
697.4771, 716.2718
697.9592, 708.4321
698.4413, 700.9144
698.9234, 693.6993
699.4055, 686.8831
699.8876, 680.4199
700.3698, 674.4239
700.8519, 669.5965
701.3340, 665.7468
701.8161, 661.7090
702.2982, 655.9775
702.7803, 650.3578
703.2625, 647.1892
703.7446, 646.0591
704.2267, 644.8829
704.7088, 642.3212
705.1909, 639.8144
705.6730, 638.2001
706.1552, 637.5973
706.6373, 636.8741
707.1194, 636.0684
707.6015, 635.0622
708.0836, 633.6882
708.5657, 631.9077
709.0479, 630.4902
709.5300, 629.4506
710.0121, 628.5963
710.4942, 627.5836
710.9763, 626.6357
711.4584, 626.5409
711.9406, 627.5609
712.4227, 628.0846
712.9048, 625.9670
713.3869, 623.2101
713.8690, 622.0113
714.3511, 624.0516
714.8333, 625.5457
715.3154, 625.3854
715.7975, 624.5773
716.2796, 624.1159
716.7617, 624.0187
717.2438, 624.3578
717.7260, 625.3134
718.2081, 626.4734
718.6902, 627.1829
719.1723, 627.4545
719.6544, 627.1667
720.1365, 625.7232
720.6187, 624.5775
721.1008, 626.1216
721.5829, 629.2853
722.0650, 631.6058
722.5471, 630.8568
723.0292, 630.1716
723.5114, 631.0371
723.9935, 633.1207
724.4756, 634.9150
724.9577, 636.2136
725.4398, 637.3740
725.9219, 638.3051
726.4041, 639.1603
726.8862, 641.0336
727.3683, 644.0529
727.8504, 646.9297
728.3325, 648.3941
728.8146, 649.4141
729.2968, 652.5638
729.7789, 657.5622
730.2610, 661.7709
730.7431, 662.5787
731.2252, 662.6821
731.7073, 663.9216
732.1895, 666.5011
732.6716, 669.7669
733.1537, 673.8104
733.6358, 678.3190
734.1179, 683.3951
734.6000, 689.2919
735.0822, 693.7014
735.5643, 695.9515
736.0464, 699.0496
736.5285, 706.6403
737.0106, 717.4732
737.4927, 726.7903
737.9749, 734.0518
738.4570, 740.5429
738.9391, 747.6813
739.4212, 754.4817
739.9033, 759.8710
740.3854, 763.7946
740.8676, 765.9183
741.3497, 764.8528
741.8318, 762.6422
742.3139, 761.4437
742.7960, 761.9050
743.2781, 761.7007
743.7603, 760.4316
744.2424, 758.8491
744.7245, 757.6603
745.2066, 756.9684
745.6887, 757.7532
746.1708, 760.4675
746.6530, 764.1380
747.1351, 767.9047
747.6172, 771.7714
748.0993, 775.7256
748.5814, 779.3744
749.0635, 783.5583
749.5457, 789.7197
750.0278, 796.5050
750.5099, 800.9094
750.9920, 802.3412
751.4741, 802.7604
751.9562, 803.0132
752.4384, 802.1035
752.9205, 796.7121
753.4026, 786.9543
753.8847, 777.2717
754.3668, 769.2154
754.8489, 762.4373
755.3311, 757.1022
755.8132, 752.6728
756.2953, 747.7461
756.7774, 740.6925
757.2595, 733.8729
757.7416, 728.3620
758.2238, 724.1131
758.7059, 720.0491
759.1880, 715.7614
759.6701, 712.2805
760.1522, 710.1606
760.6343, 709.0853
761.1165, 707.1051
761.5986, 704.1732
762.0807, 701.4628
762.5628, 699.2120
763.0449, 697.7733
763.5270, 698.3369
764.0092, 700.5180
764.4913, 702.2892
764.9734, 702.1118
765.4555, 701.5250
765.9376, 701.6033
766.4197, 702.3961
766.9019, 702.3748
767.3840, 700.9131
767.8661, 699.4378
768.3482, 698.4697
768.8303, 698.0078
769.3124, 698.3143
769.7946, 699.4472
770.2767, 700.6281
770.7588, 701.2698
771.2409, 701.6005
771.7230, 702.0911
772.2051, 702.7383
772.6873, 703.1310
773.1694, 702.2116
773.6515, 701.5703
774.1336, 702.4735
774.6157, 705.3565
775.0978, 707.8129
775.5800, 709.8473
776.0621, 711.3098
776.5442, 712.1420
777.0263, 712.3449
777.5084, 711.2649
777.9905, 708.6664
778.4727, 706.9697
778.9548, 709.2631
779.4369, 713.5286
779.9190, 716.3161
780.4011, 717.2224
780.8832, 717.4674
781.3654, 716.5670
781.8475, 716.0963
782.3296, 717.6090
782.8117, 722.5561
783.2938, 725.2141
783.7759, 724.4186
784.2581, 722.9763
784.7402, 722.9680
785.2223, 724.3941
785.7044, 726.2834
786.1865, 728.6662
786.6686, 730.7459
787.1508, 731.5753
787.6329, 731.6537
788.1150, 731.5887
788.5971, 731.3577
789.0792, 731.7241
789.5613, 733.3978
790.0435, 735.5762
790.5256, 737.7070
791.0077, 739.9407
791.4898, 741.4393
791.9719, 741.7787
792.4540, 742.0642
792.9362, 743.4499
793.4183, 745.8364
793.9004, 747.8790
794.3825, 749.5009
794.8646, 750.7490
795.3467, 751.8098
795.8289, 752.5019
796.3110, 752.3473
796.7931, 750.9302
797.2752, 750.1991
797.7573, 750.9612
798.2394, 752.6627
798.7216, 754.9372
799.2037, 758.4584
799.6858, 760.5469
800.1679, 760.5856
800.6500, 760.5810
801.1321, 763.0323
801.6143, 767.3349
802.0964, 770.4256
802.5785, 771.8485
803.0606, 772.9843
803.5427, 774.7883
804.0248, 777.0626
804.5070, 779.7382
804.9891, 783.0987
805.4712, 785.9146
805.9533, 786.6825
806.4354, 787.7873
806.9175, 791.2327
807.3997, 797.8371
807.8818, 803.1627
808.3639, 806.8174
808.8460, 810.1479
809.3281, 815.2108
809.8102, 820.9641
810.2924, 824.4080
810.7745, 824.9384
811.2566, 825.1332
811.7387, 827.3509
812.2208, 829.7189
812.7029, 830.5561
813.1851, 829.2874
813.6672, 827.2103
814.1493, 824.1425
814.6314, 820.6044
815.1135, 816.8475
815.5956, 812.8001
816.0778, 809.4386
816.5599, 806.7892
817.0420, 804.7496
817.5241, 803.4904
818.0062, 802.6783
818.4883, 801.6296
818.9705, 800.1542
819.4526, 799.3295
819.9347, 800.2334
820.4168, 801.5649
820.8989, 802.2772
821.3810, 802.0043
821.8632, 802.5781
822.3453, 804.3067
822.8274, 806.2214
823.3095, 807.6913
823.7916, 808.6960
824.2737, 808.6650
824.7559, 807.5580
825.2380, 806.8444
825.7201, 808.0150
826.2022, 809.9907
826.6843, 811.9019
827.1664, 813.7029
827.6486, 814.8291
828.1307, 814.1918
828.6128, 813.7635
829.0949, 814.6371
829.5770, 816.9229
830.0591, 818.7283
830.5413, 820.0222
831.0234, 820.9603
831.5055, 821.2597
831.9876, 821.4084
832.4697, 822.6217
832.9518, 824.8425
833.4340, 826.8156
833.9161, 827.8151
834.3982, 828.2919
834.8803, 828.2451
835.3624, 827.6247
835.8445, 827.8749
836.3267, 829.1737
836.8088, 831.0272
837.2909, 833.5538
837.7730, 836.4788
838.2551, 837.8235
838.7372, 837.7004
839.2194, 837.7787
839.7015, 839.1173
840.1836, 841.2043
840.6657, 844.1028
841.1478, 847.5397
841.6299, 849.8435
842.1121, 849.5970
842.5942, 849.0499
843.0763, 848.7078
843.5584, 848.6610
844.0405, 849.6364
844.5226, 851.7805
845.0048, 853.7760
845.4869, 854.8551
845.9690, 855.5634
846.4511, 856.8975
846.9332, 858.7617
847.4153, 860.8505
847.8975, 864.0226
848.3796, 866.3480
848.8617, 865.7740
849.3438, 863.5352
849.8259, 863.9601
850.3080, 869.0686
850.7902, 872.4254
851.2723, 871.9258
851.7544, 869.6683
852.2365, 870.7350
852.7186, 874.5257
853.2007, 877.4136
853.6829, 877.5885
854.1650, 877.1880
854.6471, 877.9086
855.1292, 879.3941
855.6113, 881.0508
856.0934, 883.1278
856.5756, 884.7653
857.0577, 885.6183
857.5398, 886.1877
858.0219, 887.2365
858.5040, 888.7863
858.9861, 890.3887
859.4683, 891.9723
859.9504, 893.5886
860.4325, 895.6316
860.9146, 897.6420
861.3967, 898.5898
861.8788, 897.5079
862.3610, 897.3071
862.8431, 900.2747
863.3252, 903.8610
863.8073, 905.4863
864.2894, 903.9910
864.7715, 904.3854
865.2537, 907.1870
865.7358, 910.4744
866.2179, 912.5084
866.7000, 913.5261
867.1821, 913.9896
867.6642, 913.9330
868.1464, 914.1034
868.6285, 914.3895
869.1106, 915.5605
869.5927, 918.8558
870.0748, 925.3434
870.5569, 928.4351
871.0391, 926.3072
871.5212, 924.0995
872.0033, 924.9268
872.4854, 928.3978
872.9675, 931.9725
873.4496, 935.6225
873.9318, 938.3928
874.4139, 938.9247
874.8960, 938.8162
875.3781, 939.4650
875.8602, 940.8243
876.3423, 942.0676
876.8245, 942.5267
877.3066, 943.4449
877.7887, 945.4951
878.2708, 948.2162
878.7529, 949.4200
879.2350, 949.1125
879.7172, 949.1074
880.1993, 950.3036
880.6814, 952.0750
881.1635, 953.7579
881.6456, 955.3704
882.1277, 956.9426
882.6099, 958.4338
883.0920, 959.9634
883.5741, 961.7072
884.0562, 963.4470
884.5383, 964.8770
885.0204, 965.9723
885.5026, 966.8773
885.9847, 967.5612
886.4668, 968.2162
886.9489, 968.8171
887.4310, 969.6398
887.9131, 971.2967
888.3953, 974.1114
888.8774, 977.2339
889.3595, 981.2768
889.8416, 984.8116
890.3237, 986.1158
890.8058, 983.0792
891.2880, 984.7619
891.7701, 992.7850
892.2522, 1000.425
892.7343, 999.6075
893.2164, 993.8807
893.6985, 993.3439
894.1807, 998.7379
894.6628, 1004.458
895.1449, 1007.558
895.6270, 1009.182
896.1091, 1009.628
896.5912, 1008.810
897.0734, 1009.168
897.5555, 1011.107
898.0376, 1013.227
898.5197, 1014.682
899.0018, 1015.853
899.4839, 1018.218
899.9661, 1021.603
900.4482, 1024.986
900.9303, 1028.860
901.4124, 1031.594
901.8945, 1031.023
902.3766, 1028.370
902.8588, 1027.710
903.3409, 1029.792
903.8230, 1033.336
904.3051, 1038.965
904.7872, 1044.998
905.2693, 1047.645
905.7515, 1047.470
906.2336, 1048.050
906.7157, 1050.609
907.1978, 1053.476
907.6799, 1054.617
908.1620, 1055.479
908.6442, 1057.979
909.1263, 1064.943
909.6084, 1069.018
910.0905, 1069.010
910.5726, 1067.522
911.0547, 1066.172
911.5369, 1065.159
912.0190, 1067.340
912.5011, 1073.000
912.9832, 1078.424
913.4653, 1079.068
913.9474, 1079.037
914.4296, 1082.860
914.9117, 1091.135
915.3938, 1097.815
915.8759, 1101.454
916.3580, 1104.108
916.8401, 1106.328
917.3223, 1108.206
917.8044, 1109.859
918.2865, 1111.373
918.7686, 1114.579
919.2507, 1121.348
919.7328, 1129.479
920.2150, 1137.410
920.6971, 1144.960
921.1792, 1151.878
921.6613, 1156.883
922.1434, 1162.861
922.6255, 1170.130
923.1077, 1178.698
923.5898, 1188.996
924.0719, 1200.848
924.5540, 1212.347
925.0361, 1222.932
925.5182, 1233.948
926.0004, 1247.041
926.4825, 1261.318
926.9646, 1275.826
927.4467, 1290.157
927.9288, 1305.495
928.4109, 1322.967
928.8931, 1340.358
929.3752, 1356.250
929.8573, 1370.590
930.3394, 1384.139
930.8215, 1396.803
931.3036, 1405.868
931.7858, 1408.959
932.2679, 1407.747
932.7500, 1403.657
933.2321, 1396.834
933.7142, 1387.078
934.1964, 1373.658
934.6785, 1358.107
935.1606, 1340.187
935.6427, 1320.786
936.1248, 1302.504
936.6069, 1285.239
937.0891, 1270.736
937.5712, 1259.729
938.0533, 1250.698
938.5354, 1242.233
939.0175, 1234.664
939.4996, 1228.648
939.9818, 1226.038
940.4639, 1222.154
940.9460, 1215.658
941.4281, 1209.507
941.9102, 1207.309
942.3923, 1208.611
942.8745, 1208.955
943.3566, 1207.987
943.8387, 1207.455
944.3208, 1208.434
944.8029, 1210.737
945.2850, 1214.727
945.7672, 1220.464
946.2493, 1225.336
946.7314, 1229.008
947.2135, 1232.118
947.6956, 1234.960
948.1777, 1237.422
948.6599, 1239.148
949.1420, 1240.070
949.6241, 1239.701
950.1062, 1236.803
950.5883, 1233.741
951.0704, 1232.322
951.5526, 1231.838
952.0347, 1230.970
952.5168, 1229.472
952.9989, 1227.778
953.4810, 1225.779
953.9631, 1223.873
954.4453, 1222.462
954.9274, 1221.560
955.4095, 1221.360
955.8916, 1221.933
956.3737, 1222.522
956.8558, 1222.402
957.3380, 1222.265
957.8201, 1222.674
958.3022, 1223.682
958.7843, 1224.595
959.2664, 1225.330
959.7485, 1226.218
960.2307, 1227.416
960.7128, 1228.879
961.1949, 1230.351
961.6770, 1231.976
962.1591, 1234.214
962.6412, 1239.644
963.1234, 1243.119
963.6055, 1239.909
964.0876, 1234.467
964.5697, 1234.790
965.0518, 1242.697
965.5339, 1247.732
966.0161, 1248.291
966.4982, 1247.038
966.9803, 1246.354
967.4624, 1246.346
967.9445, 1247.286
968.4266, 1249.281
968.9088, 1251.642
969.3909, 1255.544
969.8730, 1258.259
970.3551, 1257.701
970.8372, 1254.178
971.3193, 1253.688
971.8015, 1256.292
972.2836, 1259.830
972.7657, 1264.113
973.2478, 1267.785
973.7299, 1268.468
974.2120, 1267.309
974.6942, 1267.170
975.1763, 1268.972
975.6584, 1271.993
976.1405, 1277.090
976.6226, 1282.336
977.1047, 1284.534
977.5869, 1284.031
978.0690, 1284.430
978.5511, 1286.315
979.0332, 1288.353
979.5153, 1289.125
979.9974, 1289.752
980.4796, 1291.277
980.9617, 1293.916
981.4438, 1296.885
981.9259, 1300.328
982.4080, 1303.885
982.8901, 1308.064
983.3723, 1311.950
983.8544, 1311.581
984.3365, 1308.028
984.8186, 1305.738
985.3007, 1307.580
985.7828, 1310.439
986.2650, 1313.090
986.7471, 1315.706
987.2292, 1318.729
987.7113, 1322.607
988.1934, 1325.013
988.6755, 1325.466
989.1577, 1325.473
989.6398, 1326.887
990.1219, 1328.919
990.6040, 1329.899
991.0861, 1329.620
991.5682, 1330.302
992.0504, 1334.208
992.5325, 1337.856
993.0146, 1339.559
993.4967, 1339.701
993.9788, 1340.426
994.4609, 1341.751
994.9431, 1343.492
995.4252, 1345.956
995.9073, 1348.271
996.3894, 1349.506
996.8715, 1349.973
997.3536, 1350.199
997.8358, 1349.926
998.3179, 1349.886
998.8000, 1349.641
999.2821, 1350.309
999.7642, 1353.688
1000.246, 1359.121
1000.728, 1362.779
1001.211, 1364.540
1001.693, 1365.859
1002.175, 1366.639
1002.657, 1368.248
1003.139, 1372.380
1003.621, 1378.495
1004.103, 1382.307
1004.585, 1383.062
1005.068, 1384.390
1005.550, 1387.486
1006.032, 1391.307
1006.514, 1394.598
1006.996, 1397.306
1007.478, 1399.191
1007.960, 1399.457
1008.442, 1400.771
1008.924, 1404.818
1009.407, 1409.524
1009.889, 1413.582
1010.371, 1416.942
1010.853, 1420.571
1011.335, 1424.510
1011.817, 1428.950
1012.299, 1434.508
1012.781, 1440.262
1013.263, 1445.286
1013.746, 1449.808
1014.228, 1454.730
1014.710, 1459.969
1015.192, 1465.901
1015.674, 1472.356
1016.156, 1479.876
1016.638, 1490.248
1017.120, 1502.450
1017.603, 1512.960
1018.085, 1521.044
1018.567, 1529.467
1019.049, 1539.423
1019.531, 1550.713
1020.013, 1563.944
1020.495, 1578.926
1020.977, 1591.475
1021.459, 1601.373
1021.942, 1610.727
1022.424, 1620.679
1022.906, 1630.452
1023.388, 1637.667
1023.870, 1644.288
1024.352, 1654.143
1024.834, 1670.233
1025.316, 1687.223
1025.799, 1704.412
1026.281, 1722.537
1026.763, 1743.009
1027.245, 1765.126
1027.727, 1787.520
1028.209, 1809.946
1028.691, 1828.466
1029.173, 1840.958
1029.656, 1848.130
1030.138, 1850.321
1030.620, 1847.254
1031.102, 1838.417
1031.584, 1823.304
1032.066, 1803.757
1032.548, 1779.435
1033.030, 1752.387
1033.512, 1723.153
1033.995, 1694.332
1034.477, 1671.345
1034.959, 1656.675
1035.441, 1643.148
1035.923, 1628.609
1036.405, 1615.287
1036.887, 1604.350
1037.369, 1595.725
1037.851, 1588.009
1038.334, 1581.312
1038.816, 1575.380
1039.298, 1569.776
1039.780, 1565.270
1040.262, 1562.790
1040.744, 1561.667
1041.226, 1560.459
1041.708, 1558.810
1042.191, 1557.812
1042.673, 1557.436
1043.155, 1558.074
1043.637, 1560.701
1044.119, 1564.374
1044.601, 1566.878
1045.083, 1568.240
1045.565, 1571.764
1046.047, 1582.278
1046.530, 1590.589
1047.012, 1592.407
1047.494, 1590.883
1047.976, 1595.305
1048.458, 1605.006
1048.940, 1613.980
1049.422, 1620.313
1049.904, 1626.521
1050.386, 1634.142
1050.869, 1642.902
1051.351, 1652.474
1051.833, 1662.584
1052.315, 1674.805
1052.797, 1689.382
1053.279, 1705.038
1053.761, 1720.867
1054.243, 1737.743
1054.726, 1757.117
1055.208, 1778.859
1055.690, 1802.649
1056.172, 1830.280
1056.654, 1857.315
1057.136, 1882.510
1057.618, 1907.908
1058.100, 1937.028
1058.583, 1968.907
1059.065, 1997.830
1059.547, 2023.336
1060.029, 2044.479
1060.511, 2062.300
1060.993, 2073.419
1061.475, 2075.168
1061.957, 2068.099
1062.439, 2053.419
1062.922, 2030.251
1063.404, 2004.558
1063.886, 1977.417
1064.368, 1950.063
1064.850, 1921.834
1065.332, 1895.059
1065.814, 1872.551
1066.296, 1854.852
1066.778, 1843.165
1067.261, 1839.954
1067.743, 1837.483
1068.225, 1830.794
1068.707, 1822.316
1069.189, 1821.532
1069.671, 1826.469
1070.153, 1830.119
1070.635, 1829.752
1071.118, 1826.975
1071.600, 1821.535
1072.082, 1814.540
1072.564, 1806.953
1073.046, 1798.810
1073.528, 1790.230
1074.010, 1781.267
1074.492, 1772.206
1074.974, 1762.469
1075.457, 1753.509
1075.939, 1746.670
1076.421, 1741.787
1076.903, 1737.838
1077.385, 1734.724
1077.867, 1732.704
1078.349, 1732.239
1078.831, 1731.766
1079.313, 1728.289
1079.796, 1723.679
1080.278, 1721.688
1080.760, 1722.960
1081.242, 1723.644
1081.724, 1721.033
1082.206, 1719.388
1082.688, 1720.827
1083.170, 1723.979
1083.652, 1723.801
1084.135, 1721.090
1084.617, 1720.140
1085.099, 1723.273
1085.581, 1726.086
1086.063, 1725.088
1086.545, 1723.117
1087.027, 1722.686
1087.509, 1723.909
1087.992, 1726.423
1088.474, 1730.356
1088.956, 1733.912
1089.438, 1735.863
1089.920, 1736.997
1090.402, 1737.859
1090.884, 1738.577
1091.366, 1739.379
1091.849, 1739.397
1092.331, 1741.373
1092.813, 1745.907
1093.295, 1750.972
1093.777, 1754.915
1094.259, 1757.750
1094.741, 1759.525
1095.223, 1760.285
1095.705, 1760.345
1096.188, 1758.667
1096.670, 1757.853
1097.152, 1758.658
1097.634, 1760.604
1098.116, 1763.263
1098.598, 1766.431
1099.080, 1768.646
1099.562, 1769.647
1100.044, 1770.460
1100.527, 1771.278
1101.009, 1772.628
1101.491, 1775.450
1101.973, 1779.249
1102.455, 1780.113
1102.937, 1777.849
1103.419, 1778.384
1103.901, 1784.803
1104.384, 1791.887
1104.866, 1793.680
1105.348, 1793.203
1105.830, 1794.148
1106.312, 1797.502
1106.794, 1799.951
1107.276, 1801.277
1107.758, 1802.424
1108.240, 1804.076
1108.723, 1805.790
1109.205, 1806.214
1109.687, 1806.203
1110.169, 1807.703
1110.651, 1812.462
1111.133, 1817.368
1111.615, 1822.828
1112.097, 1827.410
1112.579, 1829.317
1113.062, 1829.314
1113.544, 1830.261
1114.026, 1832.088
1114.508, 1833.646
1114.990, 1834.090
1115.472, 1834.444
1115.954, 1834.383
1116.436, 1834.934
1116.919, 1838.223
1117.401, 1844.036
1117.883, 1848.538
1118.365, 1851.259
1118.847, 1853.635
1119.329, 1856.688
1119.811, 1859.795
1120.293, 1862.734
1120.776, 1865.341
1121.258, 1866.664
1121.740, 1866.412
1122.222, 1867.721
1122.704, 1871.638
1123.186, 1876.028
1123.668, 1880.190
1124.150, 1882.741
1124.632, 1881.206
1125.115, 1874.617
1125.597, 1871.503
1126.079, 1872.431
1126.561, 1875.551
1127.043, 1881.061
1127.525, 1886.950
1128.007, 1889.705
1128.489, 1890.560
1128.971, 1891.661
1129.454, 1893.958
1129.936, 1894.997
1130.418, 1893.126
1130.900, 1892.805
1131.382, 1897.969
1131.864, 1906.055
1132.346, 1909.139
1132.828, 1908.625
1133.311, 1908.990
1133.793, 1913.216
1134.275, 1916.934
1134.757, 1919.325
1135.239, 1920.744
1135.721, 1920.732
1136.203, 1919.711
1136.685, 1921.904
1137.167, 1926.978
1137.650, 1931.343
1138.132, 1931.473
1138.614, 1932.055
1139.096, 1936.242
1139.578, 1941.672
1140.060, 1945.165
1140.542, 1946.733
1141.024, 1947.083
1141.506, 1946.243
1141.989, 1946.272
1142.471, 1949.726
1142.953, 1953.677
1143.435, 1956.110
1143.917, 1957.313
1144.399, 1958.676
1144.881, 1960.286
1145.363, 1961.125
1145.846, 1960.789
1146.328, 1961.068
1146.810, 1964.085
1147.292, 1968.350
1147.774, 1972.985
1148.256, 1977.748
1148.738, 1980.581
1149.220, 1980.693
1149.703, 1982.074
1150.185, 1986.174
1150.667, 1990.897
1151.149, 1993.157
1151.631, 1994.497
1152.113, 1997.161
1152.595, 2001.715
1153.077, 2006.060
1153.559, 2010.465
1154.042, 2013.369
1154.524, 2013.392
1155.006, 2012.627
1155.488, 2015.978
1155.970, 2021.176
1156.452, 2023.326
1156.934, 2019.477
1157.416, 2018.210
1157.898, 2021.835
1158.381, 2025.420
1158.863, 2025.393
1159.345, 2023.882
1159.827, 2028.578
1160.309, 2036.887
1160.791, 2041.374
1161.273, 2035.430
1161.755, 2032.847
1162.238, 2038.974
1162.720, 2045.756
1163.202, 2046.399
1163.684, 2042.541
1164.166, 2042.681
1164.648, 2046.290
1165.130, 2051.034
1165.612, 2057.930
1166.094, 2062.930
1166.577, 2063.188
1167.059, 2062.435
1167.541, 2064.582
1168.023, 2069.161
1168.505, 2072.061
1168.987, 2073.269
1169.469, 2074.023
1169.951, 2073.038
1170.433, 2074.026
1170.916, 2081.156
1171.398, 2089.661
1171.880, 2092.922
1172.362, 2091.283
1172.844, 2091.132
1173.326, 2092.937
1173.808, 2094.761
1174.290, 2094.766
1174.773, 2094.958
1175.255, 2096.230
1175.737, 2098.687
1176.219, 2103.440
1176.701, 2110.567
1177.183, 2113.996
1177.665, 2112.829
1178.147, 2110.832
1178.630, 2109.851
1179.112, 2110.150
1179.594, 2112.579
1180.076, 2116.411
1180.558, 2119.645
1181.040, 2122.313
1181.522, 2123.378
1182.004, 2122.229
1182.486, 2122.231
1182.969, 2127.148
1183.451, 2133.792
1183.933, 2140.244
1184.415, 2146.135
1184.897, 2150.221
1185.379, 2152.444
1185.861, 2153.564
1186.343, 2153.608
1186.825, 2153.305
1187.308, 2152.646
1187.790, 2152.534
1188.272, 2154.642
1188.754, 2158.865
1189.236, 2159.648
1189.718, 2156.379
1190.200, 2155.987
1190.682, 2161.452
1191.165, 2168.468
1191.647, 2174.063
1192.129, 2177.713
1192.611, 2177.795
1193.093, 2173.833
1193.575, 2174.014
1194.057, 2178.962
1194.539, 2183.233
1195.021, 2184.100
1195.504, 2184.559
1195.986, 2187.798
1196.468, 2192.739
1196.950, 2198.618
1197.432, 2205.991
1197.914, 2208.861
1198.396, 2206.473
1198.878, 2204.557
1199.360, 2206.058
1199.843, 2209.036
1200.325, 2211.603
1200.807, 2214.030
1201.289, 2217.017
1201.771, 2221.398
1202.253, 2222.079
1202.735, 2218.249
1203.217, 2216.294
1203.700, 2221.374
1204.182, 2228.290
1204.664, 2231.283
1205.146, 2231.972
1205.628, 2232.897
1206.110, 2234.283
1206.592, 2236.118
1207.074, 2238.397
1207.557, 2241.059
1208.039, 2244.024
1208.521, 2247.325
1209.003, 2252.224
1209.485, 2257.139
1209.967, 2258.522
1210.449, 2252.885
1210.931, 2254.515
1211.413, 2264.768
1211.896, 2273.784
1212.378, 2273.031
1212.860, 2269.079
1213.342, 2268.035
1213.824, 2269.260
1214.306, 2271.562
1214.788, 2275.079
1215.270, 2278.813
1215.752, 2282.898
1216.235, 2285.988
1216.717, 2286.939
1217.199, 2286.581
1217.681, 2284.366
1218.163, 2281.823
1218.645, 2282.563
1219.127, 2287.680
1219.609, 2292.210
1220.092, 2296.068
1220.574, 2298.529
1221.056, 2297.304
1221.538, 2295.989
1222.020, 2298.484
1222.502, 2303.345
1222.984, 2306.925
1223.466, 2308.565
1223.948, 2311.799
1224.431, 2316.989
1224.913, 2321.630
1225.395, 2323.916
1225.877, 2324.605
1226.359, 2322.936
1226.841, 2320.534
1227.323, 2321.198
1227.805, 2325.413
1228.287, 2329.661
1228.770, 2333.718
1229.252, 2337.332
1229.734, 2340.169
1230.216, 2342.543
1230.698, 2344.429
1231.180, 2346.056
1231.662, 2347.890
1232.144, 2349.930
1232.627, 2351.950
1233.109, 2353.922
1233.591, 2356.267
1234.073, 2359.790
1234.555, 2363.343
1235.037, 2366.426
1235.519, 2368.953
1236.001, 2370.694
1236.484, 2371.656
1236.966, 2372.414
1237.448, 2373.034
1237.930, 2373.863
1238.412, 2374.399
1238.894, 2376.040
1239.376, 2380.869
1239.858, 2386.574
1240.340, 2389.031
1240.823, 2388.545
1241.305, 2389.402
1241.787, 2391.930
1242.269, 2393.991
1242.751, 2393.289
1243.233, 2392.940
1243.715, 2394.208
1244.197, 2396.682
1244.679, 2400.386
1245.162, 2404.897
1245.644, 2407.029
1246.126, 2406.755
1246.608, 2407.951
1247.090, 2413.856
1247.572, 2420.255
1248.054, 2426.301
1248.536, 2431.311
1249.019, 2433.576
1249.501, 2433.854
1249.983, 2434.130
1250.465, 2434.693
1250.947, 2436.772
1251.429, 2442.855
1251.911, 2447.841
1252.393, 2450.935
1252.875, 2452.053
1253.358, 2449.427
1253.840, 2445.300
1254.322, 2445.140
1254.804, 2448.968
1255.286, 2452.722
1255.768, 2455.548
1256.250, 2457.600
1256.732, 2458.423
1257.214, 2459.767
1257.697, 2465.340
1258.179, 2472.054
1258.661, 2474.283
1259.143, 2472.464
1259.625, 2471.735
1260.107, 2473.122
1260.589, 2474.773
1261.071, 2476.514
1261.554, 2478.121
1262.036, 2479.083
1262.518, 2479.960
1263.000, 2481.069
1263.482, 2482.658
1263.964, 2485.959
1264.446, 2491.912
1264.928, 2494.758
1265.411, 2493.315
1265.893, 2492.189
1266.375, 2496.463
1266.857, 2502.005
1267.339, 2505.469
1267.821, 2507.183
1268.303, 2508.578
1268.785, 2509.560
1269.267, 2511.563
1269.750, 2514.763
1270.232, 2518.055
1270.714, 2521.751
1271.196, 2524.163
1271.678, 2522.277
1272.160, 2519.352
1272.642, 2521.384
1273.124, 2527.884
1273.606, 2531.557
1274.089, 2531.949
1274.571, 2531.896
1275.053, 2533.060
1275.535, 2534.119
1276.017, 2534.003
1276.499, 2534.195
1276.981, 2537.208
1277.463, 2542.212
1277.946, 2546.029
1278.428, 2548.583
1278.910, 2551.200
1279.392, 2555.044
1279.874, 2557.978
1280.356, 2559.341
1280.838, 2560.303
1281.320, 2562.236
1281.802, 2564.711
1282.285, 2567.242
1282.767, 2569.577
1283.249, 2570.664
1283.731, 2568.682
1284.213, 2568.617
1284.695, 2571.147
1285.177, 2574.569
1285.659, 2578.120
1286.141, 2581.099
1286.624, 2581.874
1287.106, 2581.375
1287.588, 2582.480
1288.070, 2586.228
1288.552, 2587.224
1289.034, 2584.792
1289.516, 2584.571
1289.998, 2593.906
1290.481, 2604.158
1290.963, 2608.868
1291.445, 2609.335
1291.927, 2607.673
1292.409, 2603.505
1292.891, 2604.083
1293.373, 2609.331
1293.855, 2615.332
1294.338, 2620.703
1294.820, 2625.081
1295.302, 2627.875
1295.784, 2629.886
1296.266, 2631.114
1296.748, 2632.007
1297.230, 2636.011
1297.712, 2642.620
1298.194, 2649.032
1298.677, 2653.400
1299.159, 2656.804
1299.641, 2659.270
1300.123, 2661.073
1300.605, 2661.580
1301.087, 2661.820
1301.569, 2665.093
1302.051, 2669.348
1302.533, 2670.224
1303.016, 2664.547
##END=



