##NAMES=Tremolite
##RRUFFID=R070422
##IDEAL CHEMISTRY=[box]Ca_2_Mg_5_Si_8_O_22_(OH)_2_
##LOCALITY=Merilani Hills, Arusha, Tanzania
##OWNER=RRUFF
##SOURCE=Steve Ulatowski
##DESCRIPTION=Green gemmy fragment
##STATUS=The identification of this mineral is confirmed by single-crystal X-ray diffraction and chemical analysis.
##URL=rruff.info/R070422
##MEASURED CHEMISTRY=([box]_0.74_Na_0.15_K_0.11_)_Σ=1_(Ca_1.96_Na_0.04_)_Σ=2_(Mg_4.55_Al_0.41_V_0.04_)_Σ=5_(Si_7.33_Al_0.67_)_Σ=8_O_22_((OH)_1.80_F_0.20_)_Σ=2_
150.4049, 2236.472
150.8870, 2268.328
151.3692, 2302.017
151.8513, 2342.822
152.3334, 2393.910
152.8155, 2449.875
153.2976, 2507.795
153.7797, 2569.368
154.2619, 2630.377
154.7440, 2687.934
155.2261, 2739.514
155.7082, 2801.618
156.1903, 2882.963
156.6724, 2974.377
157.1546, 3062.706
157.6367, 3136.860
158.1188, 3215.853
158.6009, 3304.248
159.0830, 3401.139
159.5651, 3514.053
160.0473, 3666.752
160.5294, 3836.886
161.0115, 3978.702
161.4936, 4093.696
161.9757, 4167.953
162.4578, 4191.879
162.9400, 4152.221
163.4221, 4081.657
163.9042, 3975.344
164.3863, 3843.581
164.8684, 3720.356
165.3505, 3615.096
165.8327, 3528.611
166.3148, 3462.294
166.7969, 3421.547
167.2790, 3396.026
167.7611, 3381.790
168.2433, 3378.613
168.7254, 3384.719
169.2075, 3400.844
169.6896, 3425.052
170.1717, 3455.047
170.6538, 3472.055
171.1360, 3506.220
171.6181, 3582.615
172.1002, 3702.671
172.5823, 3847.641
173.0644, 4067.174
173.5465, 4299.337
174.0287, 4437.485
174.5108, 4339.174
174.9929, 4164.786
175.4750, 4091.734
175.9571, 4140.804
176.4392, 4238.484
176.9214, 4332.933
177.4035, 4422.732
177.8856, 4505.368
178.3677, 4580.456
178.8498, 4646.822
179.3319, 4707.159
179.8141, 4766.276
180.2962, 4807.754
180.7783, 4808.685
181.2604, 4772.795
181.7425, 4720.017
182.2246, 4663.356
182.7068, 4599.582
183.1889, 4516.424
183.6710, 4405.124
184.1531, 4283.944
184.6352, 4183.608
185.1173, 4102.692
185.5995, 4031.315
186.0816, 3962.027
186.5637, 3895.950
187.0458, 3835.929
187.5279, 3784.292
188.0100, 3738.610
188.4922, 3692.099
188.9743, 3643.692
189.4564, 3604.256
189.9385, 3590.425
190.4206, 3598.664
190.9027, 3601.503
191.3849, 3587.495
191.8670, 3561.857
192.3491, 3544.517
192.8312, 3536.257
193.3133, 3531.665
193.7954, 3522.559
194.2776, 3509.154
194.7597, 3502.111
195.2418, 3508.233
195.7239, 3525.563
196.2060, 3538.132
196.6881, 3544.638
197.1703, 3549.466
197.6524, 3560.424
198.1345, 3577.948
198.6166, 3593.086
199.0987, 3600.377
199.5808, 3599.811
200.0630, 3600.059
200.5451, 3599.011
201.0272, 3602.265
201.5093, 3624.528
201.9914, 3670.127
202.4735, 3712.499
202.9557, 3735.368
203.4378, 3736.519
203.9199, 3744.958
204.4020, 3763.526
204.8841, 3788.951
205.3662, 3813.063
205.8484, 3835.299
206.3305, 3858.408
206.8126, 3884.173
207.2947, 3912.741
207.7768, 3943.256
208.2589, 3976.257
208.7411, 4010.941
209.2232, 4042.829
209.7053, 4068.929
210.1874, 4099.896
210.6695, 4145.401
211.1517, 4209.076
211.6338, 4272.103
212.1159, 4332.994
212.5980, 4391.423
213.0801, 4444.658
213.5622, 4489.688
214.0444, 4534.339
214.5265, 4581.053
215.0086, 4625.077
215.4907, 4688.948
215.9728, 4782.368
216.4549, 4902.595
216.9371, 5012.505
217.4192, 5106.443
217.9013, 5197.012
218.3834, 5294.272
218.8655, 5398.268
219.3476, 5508.178
219.8298, 5628.245
220.3119, 5757.667
220.7940, 5873.046
221.2761, 5975.515
221.7582, 6062.624
222.2403, 6132.723
222.7225, 6181.887
223.2046, 6220.216
223.6867, 6250.441
224.1688, 6273.467
224.6509, 6281.827
225.1330, 6280.311
225.6152, 6259.687
226.0973, 6205.649
226.5794, 6108.627
227.0615, 5999.081
227.5436, 5881.484
228.0257, 5750.416
228.5079, 5638.648
228.9900, 5550.658
229.4721, 5477.467
229.9542, 5405.316
230.4363, 5331.500
230.9184, 5263.958
231.4006, 5205.142
231.8827, 5157.021
232.3648, 5111.295
232.8469, 5068.958
233.3290, 5028.008
233.8111, 4984.461
234.2933, 4936.581
234.7754, 4888.879
235.2575, 4840.775
235.7396, 4787.151
236.2217, 4751.151
236.7038, 4741.881
237.1860, 4745.812
237.6681, 4735.291
238.1502, 4702.959
238.6323, 4667.783
239.1144, 4635.452
239.5965, 4605.505
240.0787, 4580.390
240.5608, 4561.161
241.0429, 4546.377
241.5250, 4533.530
242.0071, 4525.759
242.4892, 4515.078
242.9714, 4496.983
243.4535, 4463.902
243.9356, 4440.191
244.4177, 4425.406
244.8998, 4420.106
245.3819, 4427.088
245.8641, 4453.383
246.3462, 4481.714
246.8283, 4504.642
247.3104, 4521.928
247.7925, 4533.193
248.2746, 4532.239
248.7568, 4526.642
249.2389, 4540.198
249.7210, 4586.472
250.2031, 4631.355
250.6852, 4657.680
251.1674, 4656.856
251.6495, 4657.838
252.1316, 4664.446
252.6137, 4672.861
253.0958, 4669.686
253.5779, 4648.194
254.0601, 4625.478
254.5422, 4610.418
255.0243, 4604.795
255.5064, 4602.830
255.9885, 4607.145
256.4706, 4614.510
256.9528, 4613.058
257.4349, 4597.229
257.9170, 4581.752
258.3991, 4575.665
258.8812, 4584.621
259.3633, 4586.788
259.8455, 4577.851
260.3276, 4561.882
260.8097, 4554.173
261.2918, 4558.970
261.7739, 4564.126
262.2560, 4562.209
262.7382, 4550.148
263.2203, 4539.771
263.7024, 4530.398
264.1845, 4523.431
264.6666, 4524.991
265.1487, 4539.271
265.6309, 4553.387
266.1130, 4558.670
266.5951, 4551.950
267.0772, 4547.553
267.5593, 4545.182
268.0414, 4546.201
268.5236, 4557.795
269.0057, 4585.738
269.4878, 4610.563
269.9699, 4617.229
270.4520, 4599.261
270.9341, 4593.983
271.4163, 4609.268
271.8984, 4636.832
272.3805, 4648.550
272.8626, 4638.455
273.3447, 4630.470
273.8268, 4643.482
274.3090, 4682.265
274.7911, 4707.606
275.2732, 4712.300
275.7553, 4703.683
276.2374, 4702.079
276.7195, 4709.247
277.2017, 4716.550
277.6838, 4715.598
278.1659, 4704.830
278.6480, 4706.935
279.1301, 4728.214
279.6122, 4759.333
280.0944, 4778.322
280.5765, 4783.762
281.0586, 4784.345
281.5407, 4782.361
282.0228, 4777.730
282.5049, 4782.374
282.9871, 4800.848
283.4692, 4824.636
283.9513, 4831.699
284.4334, 4820.125
284.9155, 4814.211
285.3976, 4834.935
285.8798, 4879.578
286.3619, 4909.423
286.8440, 4917.054
287.3261, 4915.462
287.8082, 4931.519
288.2903, 4965.403
288.7725, 4997.602
289.2546, 5011.876
289.7367, 5012.363
290.2188, 5026.165
290.7009, 5059.265
291.1830, 5097.928
291.6652, 5117.785
292.1473, 5120.125
292.6294, 5120.604
293.1115, 5124.006
293.5936, 5132.113
294.0757, 5156.165
294.5579, 5202.732
295.0400, 5248.119
295.5221, 5250.669
296.0042, 5217.588
296.4863, 5191.507
296.9684, 5200.992
297.4506, 5233.518
297.9327, 5259.643
298.4148, 5276.858
298.8969, 5290.506
299.3790, 5304.186
299.8611, 5318.765
300.3433, 5337.053
300.8254, 5361.894
301.3075, 5390.936
301.7896, 5424.380
302.2717, 5464.849
302.7538, 5494.073
303.2360, 5481.033
303.7181, 5441.604
304.2002, 5414.035
304.6823, 5425.608
305.1644, 5454.970
305.6465, 5477.935
306.1287, 5493.360
306.6108, 5505.110
307.0929, 5518.897
307.5750, 5531.141
308.0571, 5535.853
308.5392, 5519.011
309.0214, 5500.484
309.5035, 5499.175
309.9856, 5516.123
310.4677, 5536.554
310.9498, 5553.397
311.4319, 5567.145
311.9141, 5578.830
312.3962, 5589.348
312.8783, 5597.660
313.3604, 5600.129
313.8426, 5597.179
314.3247, 5599.768
314.8068, 5615.309
315.2889, 5638.819
315.7710, 5665.123
316.2531, 5699.805
316.7353, 5730.771
317.2174, 5752.408
317.6995, 5765.072
318.1816, 5773.011
318.6637, 5771.057
319.1458, 5768.531
319.6280, 5772.920
320.1101, 5790.433
320.5922, 5810.713
321.0743, 5832.263
321.5564, 5854.677
322.0385, 5875.779
322.5207, 5895.413
323.0028, 5913.376
323.4849, 5929.304
323.9670, 5940.695
324.4491, 5953.164
324.9312, 5964.286
325.4134, 5976.259
325.8955, 5997.345
326.3776, 6048.134
326.8597, 6093.593
327.3418, 6116.776
327.8239, 6090.696
328.3061, 6078.691
328.7882, 6089.342
329.2703, 6115.230
329.7524, 6137.305
330.2345, 6148.330
330.7166, 6162.668
331.1988, 6187.527
331.6809, 6232.908
332.1630, 6264.473
332.6451, 6277.592
333.1272, 6278.566
333.6093, 6277.360
334.0915, 6265.582
334.5736, 6264.987
335.0557, 6288.004
335.5378, 6344.301
336.0199, 6375.566
336.5020, 6369.691
336.9842, 6350.767
337.4663, 6343.512
337.9484, 6332.031
338.4305, 6381.340
338.9126, 6551.246
339.3947, 6842.473
339.8769, 6958.161
340.3590, 6850.842
340.8411, 6666.657
341.3232, 6554.283
341.8053, 6518.273
342.2874, 6530.842
342.7696, 6606.983
343.2517, 6727.396
343.7338, 6778.519
344.2159, 6752.852
344.6980, 6702.355
345.1801, 6665.902
345.6623, 6643.812
346.1444, 6636.395
346.6265, 6644.040
347.1086, 6666.254
347.5907, 6709.717
348.0728, 6773.568
348.5550, 6834.227
349.0371, 6890.510
349.5192, 6931.098
350.0013, 6910.947
350.4834, 6805.181
350.9655, 6669.325
351.4477, 6559.862
351.9298, 6481.283
352.4119, 6464.995
352.8940, 6598.387
353.3761, 6788.733
353.8582, 6874.140
354.3404, 6818.599
354.8225, 6719.844
355.3046, 6653.931
355.7867, 6616.028
356.2688, 6594.521
356.7509, 6590.439
357.2331, 6596.158
357.7152, 6606.633
358.1973, 6622.008
358.6794, 6636.652
359.1615, 6643.984
359.6436, 6649.010
360.1258, 6658.724
360.6079, 6676.663
361.0900, 6699.319
361.5721, 6725.946
362.0542, 6756.430
362.5363, 6787.587
363.0185, 6819.037
363.5006, 6850.279
363.9827, 6880.492
364.4648, 6909.534
364.9469, 6937.798
365.4290, 6964.120
365.9112, 6988.920
366.3933, 7016.746
366.8754, 7052.449
367.3575, 7088.859
367.8396, 7121.568
368.3217, 7150.862
368.8039, 7175.963
369.2860, 7196.936
369.7681, 7213.582
370.2502, 7225.777
370.7323, 7230.635
371.2144, 7233.934
371.6966, 7237.554
372.1787, 7241.029
372.6608, 7246.391
373.1429, 7257.337
373.6250, 7268.134
374.1071, 7268.106
374.5893, 7250.694
375.0714, 7235.637
375.5535, 7229.963
376.0356, 7234.390
376.5177, 7237.080
376.9998, 7237.226
377.4820, 7236.980
377.9641, 7239.023
378.4462, 7243.716
378.9283, 7247.777
379.4104, 7247.694
379.8925, 7246.547
380.3747, 7262.020
380.8568, 7296.879
381.3389, 7331.999
381.8210, 7346.843
382.3031, 7344.586
382.7852, 7354.244
383.2674, 7385.168
383.7495, 7424.840
384.2316, 7443.462
384.7137, 7443.988
385.1958, 7452.760
385.6779, 7495.284
386.1601, 7557.389
386.6422, 7605.720
387.1243, 7633.313
387.6064, 7659.873
388.0885, 7711.112
388.5706, 7779.153
389.0528, 7842.290
389.5349, 7889.754
390.0170, 7927.064
390.4991, 7954.540
390.9812, 7970.948
391.4633, 7996.915
391.9455, 8055.191
392.4276, 8128.228
392.9097, 8193.730
393.3918, 8249.806
393.8739, 8290.897
394.3561, 8312.901
394.8382, 8316.473
395.3203, 8309.718
395.8024, 8293.804
396.2845, 8269.736
396.7667, 8237.991
397.2488, 8192.144
397.7309, 8146.868
398.2130, 8105.250
398.6951, 8066.351
399.1772, 8027.042
399.6594, 7989.829
400.1415, 7950.150
400.6236, 7903.958
401.1057, 7840.060
401.5878, 7797.136
402.0699, 7788.269
402.5521, 7794.001
403.0342, 7784.633
403.5163, 7748.342
403.9984, 7717.854
404.4805, 7701.146
404.9626, 7698.443
405.4448, 7703.701
405.9269, 7719.283
406.4090, 7738.490
406.8911, 7755.548
407.3732, 7770.508
407.8553, 7783.862
408.3375, 7797.386
408.8196, 7808.398
409.3017, 7801.532
409.7838, 7774.264
410.2659, 7757.567
410.7480, 7781.161
411.2302, 7836.791
411.7123, 7883.100
412.1944, 7914.629
412.6765, 7937.516
413.1586, 7957.834
413.6407, 7976.286
414.1229, 7995.418
414.6050, 8019.336
415.0871, 8044.024
415.5692, 8061.554
416.0513, 8071.583
416.5334, 8081.338
417.0156, 8097.324
417.4977, 8116.750
417.9798, 8135.221
418.4619, 8152.875
418.9440, 8167.776
419.4261, 8180.794
419.9083, 8190.879
420.3904, 8193.371
420.8725, 8178.299
421.3546, 8159.571
421.8367, 8146.670
422.3188, 8139.878
422.8010, 8141.366
423.2831, 8161.654
423.7652, 8190.130
424.2473, 8204.584
424.7294, 8190.053
425.2115, 8172.109
425.6937, 8155.706
426.1758, 8137.090
426.6579, 8135.946
427.1400, 8162.623
427.6221, 8199.913
428.1042, 8231.720
428.5864, 8259.412
429.0685, 8278.340
429.5506, 8284.588
430.0327, 8280.299
430.5148, 8280.989
430.9969, 8286.571
431.4791, 8297.489
431.9612, 8315.306
432.4433, 8340.437
432.9254, 8365.147
433.4075, 8388.657
433.8896, 8411.264
434.3718, 8433.763
434.8539, 8456.121
435.3360, 8477.266
435.8181, 8499.853
436.3002, 8520.556
436.7823, 8529.607
437.2645, 8526.433
437.7466, 8515.055
438.2287, 8488.464
438.7108, 8456.822
439.1929, 8443.782
439.6750, 8473.110
440.1572, 8509.064
440.6393, 8507.796
441.1214, 8478.209
441.6035, 8464.258
442.0856, 8515.052
442.5677, 8578.954
443.0499, 8610.477
443.5320, 8588.633
444.0141, 8564.492
444.4962, 8557.201
444.9783, 8560.881
445.4604, 8565.683
445.9426, 8569.345
446.4247, 8573.511
446.9068, 8578.399
447.3889, 8583.797
447.8710, 8591.494
448.3531, 8604.577
448.8353, 8618.058
449.3174, 8628.441
449.7995, 8635.228
450.2816, 8639.394
450.7637, 8638.409
451.2458, 8634.930
451.7280, 8639.810
452.2101, 8655.171
452.6922, 8673.653
453.1743, 8692.714
453.6564, 8712.561
454.1385, 8728.998
454.6207, 8741.665
455.1028, 8751.700
455.5849, 8758.336
456.0670, 8762.013
456.5491, 8772.104
457.0313, 8798.628
457.5134, 8830.730
457.9955, 8836.883
458.4776, 8818.084
458.9597, 8799.933
459.4418, 8798.449
459.9240, 8812.201
460.4061, 8842.400
460.8882, 8896.398
461.3703, 8949.354
461.8524, 8977.197
462.3345, 8987.121
462.8167, 8995.172
463.2988, 9009.716
463.7809, 9024.214
464.2630, 9030.567
464.7451, 9026.476
465.2272, 9034.519
465.7094, 9086.947
466.1915, 9142.986
466.6736, 9166.470
467.1557, 9100.224
467.6378, 9057.760
468.1199, 9066.941
468.6021, 9116.738
469.0842, 9157.621
469.5663, 9186.007
470.0484, 9209.591
470.5305, 9232.520
471.0126, 9257.302
471.4948, 9271.640
471.9769, 9272.096
472.4590, 9266.562
472.9411, 9263.075
473.4232, 9260.027
473.9053, 9270.521
474.3875, 9305.178
474.8696, 9354.806
475.3517, 9377.004
475.8338, 9370.411
476.3159, 9364.375
476.7981, 9385.515
477.2802, 9425.763
477.7623, 9460.404
478.2444, 9485.191
478.7265, 9505.825
479.2086, 9531.530
479.6908, 9558.384
480.1729, 9576.205
480.6550, 9568.461
481.1371, 9557.572
481.6192, 9563.208
482.1013, 9585.544
482.5835, 9611.344
483.0656, 9637.306
483.5477, 9661.795
484.0298, 9683.229
484.5119, 9698.757
484.9940, 9714.579
485.4762, 9730.786
485.9583, 9748.274
486.4404, 9769.355
486.9225, 9801.163
487.4046, 9829.827
487.8867, 9852.331
488.3689, 9868.774
488.8510, 9876.794
489.3331, 9867.346
489.8152, 9860.389
490.2973, 9880.825
490.7794, 9938.926
491.2616, 9979.376
491.7437, 9991.479
492.2258, 9982.153
492.7079, 9962.474
493.1900, 9931.395
493.6721, 9913.879
494.1543, 9935.649
494.6364, 9983.700
495.1185, 10011.07
495.6006, 10013.18
496.0827, 10012.27
496.5648, 10040.20
497.0470, 10080.96
497.5291, 10099.24
498.0112, 10056.71
498.4933, 10014.65
498.9754, 10034.73
499.4576, 10102.36
499.9397, 10161.43
500.4218, 10177.78
500.9039, 10182.81
501.3860, 10197.62
501.8681, 10229.49
502.3503, 10256.02
502.8324, 10271.19
503.3145, 10278.70
503.7966, 10282.82
504.2787, 10281.78
504.7608, 10279.39
505.2430, 10267.88
505.7251, 10252.24
506.2072, 10271.48
506.6893, 10344.01
507.1714, 10418.58
507.6535, 10467.64
508.1357, 10488.52
508.6178, 10503.04
509.0999, 10508.81
509.5820, 10514.69
510.0641, 10533.78
510.5462, 10565.42
511.0284, 10600.81
511.5105, 10645.85
511.9926, 10687.13
512.4747, 10688.49
512.9568, 10655.19
513.4389, 10631.27
513.9210, 10656.67
514.4031, 10705.04
514.8853, 10742.81
515.3674, 10762.79
515.8495, 10782.95
516.3316, 10820.78
516.8137, 10863.77
517.2958, 10894.66
517.7780, 10894.29
518.2601, 10894.68
518.7422, 10906.84
519.2244, 10930.00
519.7065, 10954.15
520.1886, 10976.15
520.6707, 11000.56
521.1528, 11030.65
521.6349, 11072.62
522.1171, 11104.99
522.5992, 11130.06
523.0813, 11143.14
523.5634, 11131.56
524.0455, 11087.48
524.5276, 11061.39
525.0098, 11070.07
525.4919, 11104.22
525.9740, 11137.62
526.4561, 11170.67
526.9382, 11193.58
527.4203, 11184.59
527.9025, 11162.60
528.3846, 11180.47
528.8667, 11249.33
529.3488, 11318.01
529.8309, 11332.18
530.3130, 11314.38
530.7952, 11301.27
531.2773, 11308.88
531.7594, 11323.31
532.2415, 11338.93
532.7236, 11355.63
533.2057, 11372.31
533.6879, 11372.77
534.1700, 11385.99
534.6521, 11435.30
535.1342, 11552.98
535.6163, 11618.03
536.0984, 11596.61
536.5806, 11543.32
537.0627, 11512.68
537.5448, 11504.33
538.0269, 11521.68
538.5090, 11574.79
538.9911, 11649.63
539.4733, 11698.03
539.9554, 11718.51
540.4375, 11726.39
540.9196, 11718.59
541.4017, 11702.72
541.8839, 11721.90
542.3660, 11780.45
542.8481, 11839.92
543.3302, 11861.41
543.8123, 11858.30
544.2944, 11857.04
544.7766, 11865.29
545.2587, 11877.14
545.7408, 11891.72
546.2229, 11906.38
546.7050, 11914.95
547.1871, 11900.66
547.6693, 11891.87
548.1514, 11908.07
548.6335, 11953.87
549.1156, 11986.69
549.5977, 11984.71
550.0798, 11978.17
550.5620, 11988.56
551.0441, 12031.65
551.5262, 12059.49
552.0083, 12062.05
552.4904, 12054.25
552.9725, 12066.39
553.4547, 12101.72
553.9368, 12140.20
554.4189, 12175.02
554.9010, 12207.34
555.3831, 12246.24
555.8652, 12292.08
556.3474, 12324.76
556.8295, 12312.00
557.3116, 12277.34
557.7937, 12272.06
558.2758, 12307.83
558.7579, 12353.10
559.2401, 12388.85
559.7222, 12414.57
560.2043, 12429.12
560.6864, 12415.14
561.1685, 12406.27
561.6506, 12421.35
562.1328, 12455.99
562.6149, 12486.15
563.0970, 12502.61
563.5791, 12517.77
564.0612, 12536.25
564.5433, 12557.62
565.0255, 12585.67
565.5076, 12628.72
565.9897, 12668.21
566.4718, 12682.65
566.9539, 12667.61
567.4360, 12653.03
567.9182, 12640.13
568.4003, 12635.19
568.8824, 12661.37
569.3645, 12715.29
569.8466, 12758.35
570.3287, 12749.09
570.8109, 12723.26
571.2930, 12749.89
571.7751, 12827.65
572.2572, 12901.84
572.7393, 12927.98
573.2214, 12935.01
573.7036, 12953.35
574.1857, 12994.24
574.6678, 13035.12
575.1499, 13075.09
575.6320, 13107.78
576.1141, 13124.30
576.5963, 13096.60
577.0784, 13082.74
577.5605, 13098.99
578.0426, 13139.62
578.5247, 13169.53
579.0068, 13185.20
579.4890, 13196.79
579.9711, 13208.18
580.4532, 13219.12
580.9353, 13234.70
581.4174, 13255.65
581.8995, 13278.25
582.3817, 13300.68
582.8638, 13321.72
583.3459, 13334.62
583.8280, 13331.66
584.3101, 13331.76
584.7922, 13364.74
585.2744, 13418.44
585.7565, 13462.28
586.2386, 13470.56
586.7207, 13473.92
587.2028, 13488.99
587.6849, 13516.29
588.1671, 13549.61
588.6492, 13596.41
589.1313, 13642.11
589.6134, 13677.42
590.0955, 13699.90
590.5776, 13717.48
591.0598, 13727.58
591.5419, 13735.10
592.0240, 13745.35
592.5061, 13757.52
592.9882, 13777.90
593.4703, 13811.14
593.9525, 13849.76
594.4346, 13871.97
594.9167, 13879.01
595.3988, 13888.30
595.8809, 13918.28
596.3630, 13953.77
596.8452, 13964.70
597.3273, 13950.35
597.8094, 13940.49
598.2915, 13957.25
598.7736, 13987.12
599.2557, 14017.14
599.7379, 14042.41
600.2200, 14071.35
600.7021, 14118.50
601.1842, 14167.79
601.6663, 14192.72
602.1484, 14163.98
602.6306, 14150.65
603.1127, 14165.73
603.5948, 14205.29
604.0769, 14254.75
604.5590, 14320.95
605.0411, 14373.16
605.5233, 14382.99
606.0054, 14357.66
606.4875, 14362.02
606.9696, 14397.65
607.4517, 14446.91
607.9338, 14504.66
608.4160, 14562.12
608.8981, 14597.98
609.3802, 14604.76
609.8623, 14599.55
610.3444, 14577.65
610.8265, 14555.82
611.3087, 14561.76
611.7908, 14643.08
612.2729, 14715.49
612.7550, 14735.24
613.2371, 14712.15
613.7192, 14722.41
614.2014, 14793.00
614.6835, 14866.45
615.1656, 14920.48
615.6477, 14953.58
616.1298, 14978.35
616.6119, 14991.20
617.0941, 15004.83
617.5762, 15035.45
618.0583, 15080.44
618.5404, 15114.24
619.0225, 15130.99
619.5046, 15141.75
619.9868, 15160.65
620.4689, 15184.57
620.9510, 15206.63
621.4331, 15217.25
621.9152, 15230.71
622.3973, 15261.12
622.8795, 15303.81
623.3616, 15339.80
623.8437, 15356.83
624.3258, 15371.05
624.8079, 15386.01
625.2900, 15399.29
625.7722, 15433.85
626.2543, 15508.82
626.7364, 15581.30
627.2185, 15612.53
627.7006, 15592.69
628.1827, 15597.98
628.6649, 15639.79
629.1470, 15693.08
629.6291, 15712.86
630.1112, 15708.18
630.5933, 15727.35
631.0754, 15799.44
631.5576, 15887.06
632.0397, 15946.19
632.5218, 15982.23
633.0039, 16011.25
633.4860, 16030.57
633.9681, 16053.83
634.4503, 16094.75
634.9324, 16154.55
635.4145, 16199.91
635.8966, 16204.57
636.3787, 16208.27
636.8608, 16233.24
637.3430, 16288.68
637.8251, 16339.62
638.3072, 16382.76
638.7893, 16425.53
639.2714, 16480.04
639.7535, 16546.22
640.2357, 16603.04
640.7178, 16644.83
641.1999, 16679.03
641.6820, 16710.51
642.1641, 16743.71
642.6462, 16793.40
643.1284, 16896.12
643.6105, 16996.64
644.0926, 17034.96
644.5747, 17021.98
645.0568, 17029.66
645.5389, 17095.07
646.0211, 17180.71
646.5032, 17270.44
646.9853, 17364.86
647.4674, 17456.51
647.9495, 17558.06
648.4316, 17642.28
648.9138, 17676.54
649.3959, 17645.40
649.8780, 17658.36
650.3601, 17733.08
650.8422, 17835.58
651.3243, 17919.82
651.8065, 17988.21
652.2886, 18054.27
652.7707, 18118.64
653.2528, 18187.61
653.7349, 18273.82
654.2170, 18371.73
654.6992, 18462.56
655.1813, 18533.03
655.6634, 18598.11
656.1455, 18659.97
656.6276, 18719.04
657.1097, 18795.84
657.5919, 18905.99
658.0740, 19021.92
658.5561, 19131.19
659.0382, 19234.35
659.5203, 19324.56
660.0024, 19392.30
660.4846, 19470.55
660.9667, 19602.72
661.4488, 19783.60
661.9309, 19954.74
662.4130, 20103.44
662.8951, 20248.37
663.3773, 20403.94
663.8594, 20572.58
664.3415, 20758.29
664.8236, 20966.27
665.3057, 21188.40
665.7878, 21430.46
666.2700, 21684.94
666.7521, 21927.38
667.2342, 22131.91
667.7163, 22340.56
668.1984, 22568.18
668.6805, 22812.83
669.1627, 23058.76
669.6448, 23309.74
670.1269, 23553.47
670.6090, 23785.86
671.0911, 24007.07
671.5732, 24209.44
672.0554, 24394.87
672.5375, 24539.43
673.0196, 24607.14
673.5017, 24618.29
673.9838, 24617.70
674.4659, 24632.15
674.9481, 24591.32
675.4302, 24448.04
675.9123, 24221.46
676.3944, 23937.74
676.8765, 23551.61
677.3586, 23168.22
677.8408, 22794.03
678.3229, 22434.68
678.8050, 22114.81
679.2871, 21846.57
679.7692, 21587.72
680.2513, 21317.14
680.7335, 21045.22
681.2156, 20848.25
681.6977, 20725.59
682.1799, 20617.96
682.6620, 20488.23
683.1441, 20345.80
683.6262, 20196.64
684.1083, 20042.24
684.5905, 19907.18
685.0726, 19804.64
685.5547, 19731.66
686.0368, 19692.82
686.5189, 19715.99
687.0010, 19712.39
687.4832, 19646.34
687.9653, 19560.54
688.4474, 19496.87
688.9295, 19459.37
689.4116, 19433.79
689.8937, 19421.77
690.3759, 19416.96
690.8580, 19402.77
691.3401, 19381.15
691.8222, 19376.78
692.3043, 19413.57
692.7864, 19457.57
693.2686, 19450.77
693.7507, 19407.10
694.2328, 19377.44
694.7149, 19397.66
695.1970, 19429.79
695.6791, 19456.73
696.1613, 19477.26
696.6434, 19486.04
697.1255, 19475.28
697.6076, 19459.67
698.0897, 19441.65
698.5718, 19418.04
699.0540, 19419.05
699.5361, 19450.63
700.0182, 19488.71
700.5003, 19508.20
700.9824, 19513.88
701.4645, 19530.12
701.9467, 19561.19
702.4288, 19595.45
702.9109, 19625.98
703.3930, 19650.89
703.8751, 19666.60
704.3572, 19663.26
704.8394, 19663.57
705.3215, 19674.84
705.8036, 19695.76
706.2857, 19725.12
706.7678, 19780.50
707.2499, 19815.36
707.7321, 19813.71
708.2142, 19788.50
708.6963, 19782.65
709.1784, 19796.99
709.6605, 19822.34
710.1426, 19860.39
710.6248, 19904.10
711.1069, 19936.11
711.5890, 19957.40
712.0711, 19973.49
712.5532, 19969.65
713.0353, 19974.72
713.5175, 20024.98
713.9996, 20126.37
714.4817, 20200.58
714.9638, 20205.41
715.4459, 20192.78
715.9280, 20194.17
716.4102, 20215.34
716.8923, 20230.31
717.3744, 20234.97
717.8565, 20241.50
718.3386, 20264.14
718.8207, 20301.34
719.3029, 20340.66
719.7850, 20381.69
720.2671, 20417.69
720.7492, 20430.94
721.2313, 20434.95
721.7134, 20455.55
722.1956, 20520.68
722.6777, 20575.49
723.1598, 20584.16
723.6419, 20566.93
724.1240, 20563.64
724.6061, 20587.47
725.0883, 20615.32
725.5704, 20645.33
726.0525, 20676.41
726.5346, 20706.16
727.0167, 20735.09
727.4988, 20757.40
727.9810, 20764.90
728.4631, 20766.76
728.9452, 20785.59
729.4273, 20819.85
729.9094, 20859.65
730.3915, 20898.80
730.8737, 20940.83
731.3558, 20999.72
731.8379, 21075.52
732.3200, 21118.38
732.8021, 21068.71
733.2842, 21021.76
733.7664, 21029.51
734.2485, 21105.95
734.7306, 21165.77
735.2127, 21205.50
735.6948, 21236.77
736.1769, 21267.59
736.6591, 21298.35
737.1412, 21330.56
737.6233, 21364.44
738.1054, 21400.37
738.5875, 21443.14
739.0696, 21486.73
739.5518, 21523.11
740.0339, 21551.95
740.5160, 21569.78
740.9981, 21562.21
741.4802, 21547.81
741.9623, 21552.94
742.4445, 21588.85
742.9266, 21623.43
743.4087, 21647.63
743.8908, 21674.29
744.3729, 21740.92
744.8550, 21847.54
745.3372, 21925.04
745.8193, 21948.47
746.3014, 21938.71
746.7835, 21905.06
747.2656, 21862.28
747.7477, 21853.29
748.2299, 21921.66
748.7120, 22008.45
749.1941, 22094.50
749.6762, 22175.29
750.1583, 22228.31
750.6404, 22227.96
751.1226, 22229.34
751.6047, 22252.21
752.0868, 22293.30
752.5689, 22315.53
753.0510, 22316.19
753.5331, 22318.69
754.0153, 22333.42
754.4974, 22361.42
754.9795, 22417.19
755.4616, 22498.09
755.9437, 22561.40
756.4258, 22559.21
756.9080, 22541.42
757.3901, 22550.27
757.8722, 22596.84
758.3543, 22631.58
758.8364, 22628.74
759.3185, 22627.81
759.8007, 22654.86
760.2828, 22719.24
760.7649, 22770.73
761.2470, 22810.07
761.7291, 22835.39
762.2112, 22826.28
762.6934, 22800.84
763.1755, 22824.44
763.6576, 22915.37
764.1397, 23011.61
764.6218, 23070.70
765.1039, 23104.70
765.5861, 23127.52
766.0682, 23135.43
766.5503, 23143.64
767.0324, 23155.90
767.5145, 23168.84
767.9966, 23175.87
768.4788, 23170.80
768.9609, 23185.06
769.4430, 23226.20
769.9251, 23282.65
770.4072, 23342.93
770.8893, 23403.68
771.3715, 23449.09
771.8536, 23471.30
772.3357, 23481.29
772.8178, 23478.29
773.2999, 23471.18
773.7820, 23477.56
774.2642, 23498.46
774.7463, 23539.83
775.2284, 23624.10
775.7105, 23725.90
776.1926, 23769.64
776.6747, 23734.82
777.1569, 23719.56
777.6390, 23763.64
778.1211, 23840.10
778.6032, 23870.73
779.0853, 23864.79
779.5674, 23876.42
780.0496, 23965.61
780.5317, 24060.30
781.0138, 24090.52
781.4959, 24068.85
781.9780, 24060.95
782.4601, 24095.26
782.9423, 24138.73
783.4244, 24182.81
783.9065, 24226.92
784.3886, 24263.85
784.8707, 24292.76
785.3528, 24316.50
785.8350, 24331.60
786.3171, 24342.91
786.7992, 24369.10
787.2813, 24409.33
787.7634, 24454.10
788.2455, 24496.43
788.7277, 24541.61
789.2098, 24599.69
789.6919, 24672.20
790.1740, 24726.54
790.6561, 24748.76
791.1382, 24755.77
791.6204, 24749.42
792.1025, 24726.90
792.5846, 24723.56
793.0667, 24737.44
793.5488, 24779.15
794.0309, 24889.33
794.5131, 25030.39
794.9952, 25084.90
795.4773, 25045.28
795.9594, 25006.57
796.4415, 25044.24
796.9236, 25107.55
797.4058, 25153.53
797.8879, 25172.92
798.3700, 25188.02
798.8521, 25178.76
799.3342, 25189.82
799.8163, 25265.09
800.2985, 25419.29
800.7806, 25520.89
801.2627, 25564.02
801.7448, 25573.86
802.2269, 25551.77
802.7090, 25520.80
803.1912, 25536.35
803.6733, 25615.78
804.1554, 25684.42
804.6375, 25671.60
805.1196, 25641.21
805.6017, 25652.59
806.0839, 25744.01
806.5660, 25822.26
807.0481, 25883.82
807.5302, 25936.52
808.0123, 25992.53
808.4944, 26051.84
808.9766, 26083.63
809.4587, 26081.82
809.9408, 26065.79
810.4229, 26033.62
810.9050, 26008.66
811.3871, 26035.30
811.8693, 26146.69
812.3514, 26247.64
812.8335, 26284.45
813.3156, 26297.95
813.7977, 26336.07
814.2798, 26430.18
814.7620, 26477.27
815.2441, 26456.28
815.7262, 26416.45
816.2083, 26419.27
816.6904, 26460.71
817.1725, 26519.15
817.6547, 26594.52
818.1368, 26669.09
818.6189, 26734.25
819.1010, 26785.76
819.5831, 26815.65
820.0652, 26788.86
820.5474, 26792.67
821.0295, 26877.25
821.5116, 26981.42
821.9937, 27038.49
822.4758, 27037.02
822.9579, 27036.44
823.4401, 27040.29
823.9222, 27055.38
824.4043, 27104.16
824.8864, 27171.65
825.3685, 27214.55
825.8506, 27209.93
826.3328, 27206.78
826.8149, 27247.40
827.2970, 27305.19
827.7791, 27345.61
828.2612, 27339.50
828.7433, 27347.38
829.2255, 27370.11
829.7076, 27408.72
830.1897, 27474.90
830.6718, 27568.04
831.1539, 27634.51
831.6360, 27658.45
832.1182, 27671.66
832.6003, 27719.22
833.0824, 27780.86
833.5645, 27821.54
834.0466, 27813.80
834.5287, 27813.15
835.0109, 27830.76
835.4930, 27870.73
835.9751, 27943.03
836.4572, 28076.12
836.9393, 28153.89
837.4214, 28150.92
837.9036, 28117.46
838.3857, 28120.95
838.8678, 28155.38
839.3499, 28199.46
839.8320, 28251.93
840.3141, 28300.10
840.7963, 28325.06
841.2784, 28343.13
841.7605, 28374.24
842.2426, 28434.09
842.7247, 28491.96
843.2068, 28547.79
843.6890, 28599.25
844.1711, 28641.49
844.6532, 28674.18
845.1353, 28705.38
845.6174, 28733.38
846.0995, 28771.33
846.5817, 28857.32
847.0638, 28958.75
847.5460, 29013.24
848.0281, 28988.39
848.5102, 28961.61
848.9923, 28955.60
849.4744, 28968.23
849.9565, 28997.89
850.4387, 29052.94
850.9208, 29105.64
851.4029, 29159.78
851.8850, 29199.78
852.3671, 29187.87
852.8492, 29143.99
853.3314, 29147.43
853.8135, 29216.03
854.2956, 29304.18
854.7777, 29396.72
855.2598, 29479.54
855.7419, 29538.28
856.2241, 29560.04
856.7062, 29576.74
857.1883, 29576.70
857.6704, 29588.21
858.1525, 29647.00
858.6346, 29755.44
859.1168, 29823.77
859.5989, 29843.37
860.0810, 29848.97
860.5631, 29870.07
861.0452, 29899.69
861.5273, 29930.35
862.0095, 29961.91
862.4916, 29986.06
862.9737, 29983.39
863.4558, 29984.75
863.9379, 30009.91
864.4200, 30061.97
864.9022, 30128.83
865.3843, 30217.83
865.8664, 30296.01
866.3485, 30315.89
866.8306, 30307.71
867.3127, 30362.07
867.7949, 30483.98
868.2770, 30588.74
868.7591, 30610.80
869.2412, 30606.88
869.7233, 30616.60
870.2054, 30647.06
870.6876, 30667.21
871.1697, 30671.28
871.6518, 30676.03
872.1339, 30687.25
872.6160, 30706.37
873.0981, 30743.58
873.5803, 30799.24
874.0624, 30868.95
874.5445, 30977.01
875.0266, 31078.30
875.5087, 31121.47
875.9908, 31110.06
876.4730, 31113.67
876.9551, 31159.38
877.4372, 31210.49
877.9193, 31254.22
878.4014, 31293.17
878.8835, 31357.59
879.3657, 31448.59
879.8478, 31509.47
880.3299, 31468.26
880.8120, 31406.67
881.2941, 31459.91
881.7762, 31595.51
882.2584, 31702.02
882.7405, 31701.11
883.2226, 31699.53
883.7047, 31735.71
884.1868, 31798.95
884.6689, 31863.52
885.1511, 31932.44
885.6332, 31985.74
886.1153, 32010.52
886.5974, 32025.36
887.0795, 32067.57
887.5616, 32127.51
888.0438, 32179.13
888.5259, 32209.95
889.0080, 32230.93
889.4901, 32229.95
889.9722, 32226.47
890.4543, 32258.18
890.9365, 32338.20
891.4186, 32423.00
891.9007, 32514.88
892.3828, 32594.80
892.8649, 32623.22
893.3470, 32613.74
893.8292, 32613.69
894.3113, 32633.40
894.7934, 32669.53
895.2755, 32726.35
895.7576, 32794.76
896.2397, 32865.26
896.7219, 32946.95
897.2040, 33008.71
897.6861, 33040.51
898.1682, 33068.46
898.6503, 33123.92
899.1324, 33201.78
899.6146, 33264.11
900.0967, 33306.34
900.5788, 33342.05
901.0609, 33376.82
901.5430, 33415.04
902.0251, 33464.42
902.5073, 33529.70
902.9894, 33583.40
903.4715, 33613.25
903.9536, 33643.45
904.4357, 33687.33
904.9178, 33743.93
905.4000, 33813.57
905.8821, 33896.12
906.3642, 33968.79
906.8463, 34017.25
907.3284, 34047.07
907.8105, 34051.50
908.2927, 34035.81
908.7748, 34046.30
909.2569, 34124.81
909.7390, 34199.96
910.2211, 34247.25
910.7032, 34272.90
911.1854, 34308.88
911.6675, 34355.26
912.1496, 34404.54
912.6317, 34447.29
913.1138, 34496.85
913.5959, 34579.71
914.0781, 34682.35
914.5602, 34773.39
915.0423, 34839.41
915.5244, 34892.98
916.0065, 34930.04
916.4886, 34960.35
916.9708, 35000.72
917.4529, 35051.57
917.9350, 35109.22
918.4171, 35175.00
918.8992, 35241.60
919.3813, 35302.64
919.8635, 35356.27
920.3456, 35394.19
920.8277, 35390.20
921.3098, 35422.64
921.7919, 35555.57
922.2740, 35707.04
922.7562, 35805.85
923.2383, 35842.93
923.7204, 35872.63
924.2025, 35893.62
924.6846, 35924.27
925.1667, 36005.63
925.6489, 36098.77
926.1310, 36121.61
926.6131, 36062.22
927.0952, 36046.71
927.5773, 36180.04
928.0594, 36322.54
928.5416, 36391.45
929.0237, 36387.43
929.5058, 36441.02
929.9879, 36562.78
930.4700, 36669.23
930.9521, 36696.73
931.4343, 36684.52
931.9164, 36695.44
932.3985, 36725.94
932.8806, 36762.71
933.3627, 36818.20
933.8448, 36858.16
934.3270, 36853.48
934.8091, 36827.29
935.2912, 36839.50
935.7733, 36897.42
936.2554, 36946.86
936.7375, 36973.73
937.2197, 36987.83
937.7018, 36987.98
938.1839, 36989.50
938.6660, 37026.00
939.1481, 37135.15
939.6302, 37231.55
940.1124, 37282.41
940.5945, 37311.56
941.0766, 37339.34
941.5587, 37362.98
942.0408, 37400.14
942.5229, 37450.34
943.0051, 37519.85
943.4872, 37661.71
943.9693, 37808.26
944.4514, 37830.06
944.9335, 37705.73
945.4156, 37609.20
945.8978, 37600.27
946.3799, 37652.94
946.8620, 37778.71
947.3441, 37971.75
947.8262, 38035.67
948.3083, 37956.92
948.7905, 37902.26
949.2726, 38005.12
949.7547, 38165.11
950.2368, 38239.16
950.7189, 38246.47
951.2010, 38249.74
951.6832, 38259.92
952.1653, 38285.22
952.6474, 38336.99
953.1295, 38399.75
953.6116, 38435.27
954.0938, 38442.32
954.5759, 38463.68
955.0580, 38513.18
955.5401, 38567.94
956.0222, 38605.97
956.5043, 38629.76
956.9865, 38639.45
957.4686, 38615.15
957.9507, 38622.41
958.4328, 38684.38
958.9149, 38766.15
959.3970, 38852.80
959.8792, 38945.50
960.3613, 38971.85
960.8434, 38927.25
961.3255, 38890.51
961.8076, 38929.63
962.2897, 39004.36
962.7719, 39087.69
963.2540, 39175.41
963.7361, 39232.44
964.2182, 39214.71
964.7003, 39220.38
965.1824, 39292.13
965.6646, 39405.46
966.1467, 39466.88
966.6288, 39481.83
967.1109, 39497.18
967.5930, 39522.98
968.0751, 39570.02
968.5573, 39680.25
969.0394, 39809.48
969.5215, 39877.79
970.0036, 39813.27
970.4857, 39795.55
970.9678, 39853.96
971.4500, 39931.32
971.9321, 39944.66
972.4142, 39912.79
972.8963, 39912.25
973.3784, 39954.30
973.8605, 40012.14
974.3427, 40078.36
974.8248, 40144.32
975.3069, 40194.14
975.7890, 40221.75
976.2711, 40305.06
976.7532, 40472.95
977.2354, 40604.70
977.7175, 40603.28
978.1996, 40533.66
978.6817, 40581.72
979.1638, 40716.95
979.6459, 40817.63
980.1281, 40785.07
980.6102, 40748.23
981.0923, 40749.78
981.5744, 40787.67
982.0565, 40869.41
982.5386, 41010.19
983.0208, 41110.80
983.5029, 41150.33
983.9850, 41156.45
984.4671, 41142.14
984.9492, 41126.99
985.4313, 41146.13
985.9135, 41215.32
986.3956, 41285.43
986.8777, 41313.14
987.3598, 41366.02
987.8419, 41506.23
988.3240, 41734.51
988.8062, 41838.85
989.2883, 41817.99
989.7704, 41794.19
990.2525, 41881.08
990.7346, 41982.44
991.2167, 41973.05
991.6989, 41884.16
992.1810, 41859.86
992.6631, 41988.67
993.1452, 42095.64
993.6273, 42139.13
994.1094, 42152.52
994.5916, 42201.00
995.0737, 42279.16
995.5558, 42368.73
996.0379, 42476.36
996.5200, 42553.88
997.0021, 42528.93
997.4843, 42476.92
997.9664, 42482.23
998.4485, 42572.31
998.9306, 42638.53
999.4127, 42673.87
999.8948, 42705.55
1000.377, 42754.76
1000.859, 42815.15
1001.341, 42877.62
1001.823, 42939.84
1002.305, 42990.65
1002.788, 43002.03
1003.270, 43025.83
1003.752, 43088.08
1004.234, 43177.73
1004.716, 43275.36
1005.198, 43382.55
1005.680, 43471.53
1006.162, 43532.00
1006.644, 43575.38
1007.127, 43599.70
1007.609, 43620.77
1008.091, 43660.59
1008.573, 43723.67
1009.055, 43810.77
1009.537, 43950.19
1010.019, 44072.96
1010.501, 44117.57
1010.984, 44093.34
1011.466, 44098.94
1011.948, 44133.98
1012.430, 44180.07
1012.912, 44233.63
1013.394, 44286.14
1013.876, 44332.61
1014.358, 44372.73
1014.841, 44406.06
1015.323, 44427.29
1015.805, 44454.69
1016.287, 44485.80
1016.769, 44538.01
1017.251, 44664.31
1017.733, 44828.47
1018.215, 44954.36
1018.697, 45020.73
1019.180, 45050.65
1019.662, 44984.15
1020.144, 44943.93
1020.626, 45040.37
1021.108, 45287.59
1021.590, 45393.19
1022.072, 45351.22
1022.554, 45309.86
1023.036, 45378.75
1023.519, 45493.32
1024.001, 45594.88
1024.483, 45683.38
1024.965, 45768.90
1025.447, 45871.13
1025.929, 45935.96
1026.411, 45929.97
1026.893, 45916.79
1027.375, 46044.89
1027.858, 46266.92
1028.340, 46381.98
1028.822, 46330.31
1029.304, 46279.41
1029.786, 46339.21
1030.268, 46440.00
1030.750, 46530.94
1031.232, 46610.55
1031.715, 46677.05
1032.197, 46729.13
1032.679, 46769.68
1033.161, 46788.20
1033.643, 46804.07
1034.125, 46853.03
1034.607, 46924.73
1035.089, 46988.65
1035.572, 47023.96
1036.054, 47064.82
1036.536, 47110.65
1037.018, 47170.63
1037.500, 47267.97
1037.982, 47396.08
1038.464, 47499.46
1038.946, 47571.76
1039.428, 47619.84
1039.911, 47609.93
1040.393, 47608.44
1040.875, 47685.02
1041.357, 47843.63
1041.839, 47946.59
1042.321, 47979.89
1042.803, 48007.74
1043.285, 48048.14
1043.767, 48109.10
1044.250, 48229.39
1044.732, 48377.74
1045.214, 48485.41
1045.696, 48441.63
1046.178, 48480.41
1046.660, 48713.74
1047.142, 48973.00
1047.624, 49080.04
1048.107, 49046.22
1048.589, 49067.52
1049.071, 49154.37
1049.553, 49247.49
1050.035, 49273.45
1050.517, 49313.27
1050.999, 49457.16
1051.481, 49688.19
1051.964, 49828.56
1052.446, 49844.80
1052.928, 49879.09
1053.410, 49977.01
1053.892, 50096.32
1054.374, 50158.85
1054.856, 50191.19
1055.338, 50244.84
1055.820, 50342.20
1056.302, 50434.90
1056.785, 50515.34
1057.267, 50581.75
1057.749, 50634.24
1058.231, 50671.92
1058.713, 50675.02
1059.195, 50647.24
1059.677, 50637.13
1060.159, 50609.78
1060.642, 50673.39
1061.124, 51027.79
1061.606, 51516.18
1062.088, 51712.10
1062.570, 51511.60
1063.052, 51343.30
1063.534, 51257.09
1064.016, 51233.13
1064.499, 51320.07
1064.981, 51421.80
1065.463, 51337.91
1065.945, 51024.55
1066.427, 50829.03
1066.909, 50957.35
1067.391, 51087.68
1067.873, 51101.40
1068.355, 51031.32
1068.838, 50988.73
1069.320, 50971.82
1069.802, 50967.66
1070.284, 50978.11
1070.766, 50988.35
1071.248, 50982.68
1071.730, 50975.76
1072.212, 50986.08
1072.694, 51020.06
1073.177, 51049.39
1073.659, 51075.11
1074.141, 51090.30
1074.623, 51077.84
1075.105, 51059.77
1075.587, 51064.88
1076.069, 51090.53
1076.551, 51116.15
1077.034, 51107.88
1077.516, 51152.53
1077.998, 51286.41
1078.480, 51448.06
1078.962, 51543.42
1079.444, 51581.18
1079.926, 51568.17
1080.408, 51493.51
1080.891, 51460.40
1081.373, 51578.28
1081.855, 51702.51
1082.337, 51742.86
1082.819, 51707.73
1083.301, 51686.73
1083.783, 51680.09
1084.265, 51714.12
1084.747, 51833.56
1085.229, 51952.73
1085.712, 51960.50
1086.194, 51926.27
1086.676, 51966.73
1087.158, 52158.16
1087.640, 52271.78
1088.122, 52285.74
1088.604, 52282.83
1089.086, 52342.35
1089.569, 52431.49
1090.051, 52480.89
1090.533, 52497.53
1091.015, 52541.73
1091.497, 52679.00
1091.979, 52788.78
1092.461, 52834.14
1092.943, 52847.89
1093.426, 52893.42
1093.908, 52963.64
1094.390, 53018.41
1094.872, 53045.82
1095.354, 53086.08
1095.836, 53189.83
1096.318, 53294.32
1096.800, 53351.90
1097.282, 53365.98
1097.765, 53385.44
1098.247, 53409.18
1098.729, 53462.71
1099.211, 53583.81
1099.693, 53696.55
1100.175, 53699.21
1100.657, 53645.45
1101.139, 53618.36
1101.622, 53626.25
1102.104, 53679.56
1102.586, 53788.23
1103.068, 53909.71
1103.550, 54020.13
1104.032, 54113.67
1104.514, 54169.05
1104.996, 54195.17
1105.479, 54234.25
1105.961, 54346.20
1106.443, 54410.12
1106.925, 54371.59
1107.407, 54309.47
1107.889, 54363.49
1108.371, 54510.96
1108.853, 54639.82
1109.335, 54736.70
1109.818, 54798.96
1110.300, 54766.26
1110.782, 54756.77
1111.264, 54875.52
1111.746, 55087.09
1112.228, 55166.85
1112.710, 55111.38
1113.192, 55087.20
1113.674, 55167.31
1114.157, 55259.75
1114.639, 55236.25
1115.121, 55191.12
1115.603, 55255.07
1116.085, 55496.35
1116.567, 55633.57
1117.049, 55646.48
1117.531, 55636.08
1118.014, 55672.67
1118.496, 55723.48
1118.978, 55711.60
1119.460, 55669.65
1119.942, 55681.71
1120.424, 55824.33
1120.906, 55954.06
1121.388, 56059.01
1121.870, 56146.91
1122.353, 56224.29
1122.835, 56291.75
1123.317, 56347.38
1123.799, 56392.71
1124.281, 56441.46
1124.763, 56499.34
1125.245, 56563.50
1125.727, 56635.98
1126.209, 56711.28
1126.692, 56773.48
1127.174, 56824.93
1127.656, 56893.70
1128.138, 56989.63
1128.620, 57069.30
1129.102, 57084.02
1129.584, 57083.85
1130.066, 57106.95
1130.549, 57152.37
1131.031, 57200.34
1131.513, 57250.96
1131.995, 57306.57
1132.477, 57372.86
1132.959, 57435.64
1133.441, 57463.46
1133.923, 57485.75
1134.406, 57546.21
1134.888, 57665.16
1135.370, 57780.48
1135.852, 57897.79
1136.334, 57986.27
1136.816, 58001.53
1137.298, 57989.82
1137.780, 58032.01
1138.262, 58110.13
1138.745, 58170.85
1139.227, 58167.86
1139.709, 58195.43
1140.191, 58267.98
1140.673, 58357.41
1141.155, 58430.80
1141.637, 58496.50
1142.119, 58577.83
1142.601, 58674.88
1143.084, 58760.41
1143.566, 58813.63
1144.048, 58868.02
1144.530, 58937.40
1145.012, 59009.73
1145.494, 59050.65
1145.976, 59072.25
1146.458, 59144.30
1146.941, 59288.43
1147.423, 59403.40
1147.905, 59399.00
1148.387, 59379.81
1148.869, 59403.59
1149.351, 59465.02
1149.833, 59536.79
1150.315, 59618.84
1150.797, 59707.13
1151.280, 59809.01
1151.762, 59898.89
1152.244, 59971.57
1152.726, 60012.16
1153.208, 59997.00
1153.690, 59919.08
1154.172, 59867.63
1154.654, 59840.92
1155.136, 59869.83
1155.619, 60015.46
1156.101, 60178.32
1156.583, 60252.50
1157.065, 60278.34
1157.547, 60330.71
1158.029, 60427.03
1158.511, 60510.11
1158.993, 60575.99
1159.476, 60642.94
1159.958, 60731.92
1160.440, 60826.66
1160.922, 60914.45
1161.404, 60990.28
1161.886, 61038.22
1162.368, 61040.30
1162.850, 61049.85
1163.333, 61072.58
1163.815, 61106.21
1164.297, 61142.09
1164.779, 61190.29
1165.261, 61275.77
1165.743, 61397.88
1166.225, 61508.25
1166.707, 61591.54
1167.189, 61665.10
1167.672, 61728.69
1168.154, 61791.35
1168.636, 61884.06
1169.118, 61984.18
1169.600, 62028.19
1170.082, 61992.82
1170.564, 61997.25
1171.046, 62137.17
1171.528, 62250.94
1172.011, 62262.87
1172.493, 62215.29
1172.975, 62235.61
1173.457, 62303.44
1173.939, 62348.94
1174.421, 62334.84
1174.903, 62337.39
1175.385, 62390.80
1175.868, 62468.30
1176.350, 62559.13
1176.832, 62661.10
1177.314, 62763.82
1177.796, 62862.35
1178.278, 62924.34
1178.760, 62907.15
1179.242, 62890.49
1179.724, 62884.22
1180.207, 62915.60
1180.689, 63028.70
1181.171, 63222.45
1181.653, 63350.81
1182.135, 63416.23
1182.617, 63458.78
1183.099, 63483.97
1183.581, 63514.15
1184.063, 63567.52
1184.546, 63630.82
1185.028, 63682.10
1185.510, 63720.95
1185.992, 63777.26
1186.474, 63853.59
1186.956, 63934.61
1187.438, 64016.61
1187.920, 64093.32
1188.403, 64164.75
1188.885, 64225.43
1189.367, 64248.70
1189.849, 64228.79
1190.331, 64283.98
1190.813, 64441.07
1191.295, 64579.96
1191.777, 64557.62
1192.260, 64508.24
1192.742, 64539.84
1193.224, 64645.01
1193.706, 64758.19
1194.188, 64883.75
1194.670, 64974.66
1195.152, 65014.59
1195.634, 65045.46
1196.116, 65112.56
1196.599, 65187.61
1197.081, 65234.38
1197.563, 65252.79
1198.045, 65323.59
1198.527, 65456.33
1199.009, 65554.62
1199.491, 65580.48
1199.973, 65565.63
1200.455, 65499.66
1200.938, 65436.89
1201.420, 65451.00
1201.902, 65555.37
1202.384, 65658.96
1202.866, 65763.16
1203.348, 65855.48
1203.830, 65922.08
1204.312, 65983.76
1204.795, 66057.09
1205.277, 66143.03
1205.759, 66255.82
1206.241, 66429.19
1206.723, 66480.40
1207.205, 66386.13
1207.687, 66330.08
1208.169, 66478.52
1208.651, 66679.59
1209.134, 66781.85
1209.616, 66806.65
1210.098, 66781.16
1210.580, 66664.20
1211.062, 66642.05
1211.544, 66727.78
1212.026, 66851.31
1212.508, 66996.16
1212.990, 67117.64
1213.473, 67130.40
1213.955, 67080.38
1214.437, 67105.11
1214.919, 67259.99
1215.401, 67314.02
1215.883, 67225.86
1216.365, 67173.00
1216.847, 67389.66
1217.330, 67667.15
1217.812, 67771.83
1218.294, 67730.50
1218.776, 67689.18
1219.258, 67635.30
1219.740, 67678.91
1220.222, 67851.30
1220.704, 68031.09
1221.187, 68081.39
1221.669, 68084.06
1222.151, 68127.68
1222.633, 68209.53
1223.115, 68260.90
1223.597, 68260.35
1224.079, 68318.48
1224.561, 68470.41
1225.043, 68617.59
1225.526, 68630.40
1226.008, 68596.99
1226.490, 68610.56
1226.972, 68677.56
1227.454, 68730.26
1227.936, 68764.16
1228.418, 68805.99
1228.900, 68862.23
1229.382, 68929.21
1229.865, 69012.76
1230.347, 69098.46
1230.829, 69164.09
1231.311, 69209.41
1231.793, 69282.82
1232.275, 69388.44
1232.757, 69495.91
1233.239, 69602.12
1233.722, 69687.77
1234.204, 69724.98
1234.686, 69735.16
1235.168, 69730.04
1235.650, 69710.71
1236.132, 69749.07
1236.614, 69849.73
1237.096, 69943.34
1237.578, 70003.30
1238.061, 70047.48
1238.543, 70077.49
1239.025, 70112.91
1239.507, 70189.34
1239.989, 70309.97
1240.471, 70340.58
1240.953, 70278.34
1241.435, 70255.67
1241.917, 70346.43
1242.400, 70470.63
1242.882, 70576.36
1243.364, 70671.64
1243.846, 70762.65
1244.328, 70850.15
1244.810, 70942.37
1245.292, 71040.03
1245.774, 71134.45
1246.257, 71258.53
1246.739, 71325.63
1247.221, 71193.14
1247.703, 71036.92
1248.185, 71051.23
1248.667, 71242.29
1249.149, 71384.83
1249.631, 71480.57
1250.114, 71543.63
1250.596, 71556.13
1251.078, 71568.41
1251.560, 71580.30
1252.042, 71625.71
1252.524, 71770.28
1253.006, 72001.65
1253.488, 72066.05
1253.970, 71983.68
1254.453, 71916.40
1254.935, 71932.02
1255.417, 72005.45
1255.899, 72188.31
1256.381, 72365.51
1256.863, 72409.16
1257.345, 72346.02
1257.827, 72333.89
1258.310, 72373.48
1258.792, 72446.84
1259.274, 72600.23
1259.756, 72708.80
1260.238, 72732.08
1260.720, 72721.27
1261.202, 72708.77
1261.684, 72707.52
1262.167, 72781.83
1262.649, 72915.20
1263.131, 73017.05
1263.613, 72993.50
1264.095, 73026.16
1264.577, 73175.85
1265.059, 73316.55
1265.541, 73267.63
1266.023, 73128.64
1266.505, 73088.48
1266.988, 73152.21
1267.470, 73295.91
1267.952, 73623.65
1268.434, 73827.34
1268.916, 73851.77
1269.398, 73826.78
1269.880, 73910.82
1270.362, 74018.16
1270.845, 73991.52
1271.327, 73862.18
1271.809, 73816.09
1272.291, 73874.71
1272.773, 74012.34
1273.255, 74244.10
1273.737, 74456.98
1274.219, 74512.86
1274.702, 74506.52
1275.184, 74515.67
1275.666, 74549.34
1276.148, 74621.65
1276.630, 74743.73
1277.112, 74831.20
1277.594, 74870.11
1278.076, 74904.07
1278.558, 74995.65
1279.041, 75075.02
1279.523, 75069.15
1280.005, 75008.74
1280.487, 74965.84
1280.969, 74940.05
1281.451, 74978.58
1281.933, 75088.30
1282.415, 75219.10
1282.897, 75359.60
1283.380, 75486.37
1283.862, 75582.93
1284.344, 75660.38
1284.826, 75739.15
1285.308, 75816.45
1285.790, 75861.84
1286.272, 75873.45
1286.754, 75902.70
1287.237, 76002.22
1287.719, 76094.15
1288.201, 76155.67
1288.683, 76192.95
1289.165, 76196.27
1289.647, 76186.05
1290.129, 76225.98
1290.611, 76320.27
1291.094, 76411.20
1291.576, 76467.52
1292.058, 76542.47
1292.540, 76661.48
1293.022, 76766.59
1293.504, 76752.63
1293.986, 76682.44
1294.468, 76644.87
1294.950, 76649.52
1295.432, 76707.34
1295.915, 76840.86
1296.397, 76948.06
1296.879, 77006.94
1297.361, 77051.32
1297.843, 77127.59
1298.325, 77203.50
1298.807, 77236.19
1299.289, 77231.08
1299.772, 77248.47
1300.254, 77289.56
1300.736, 77344.30
1301.218, 77411.21
1301.700, 77489.95
1302.182, 77611.17
1302.664, 77713.98
1303.146, 77732.39
1303.629, 77702.97
1304.111, 77701.06
1304.593, 77726.19
1305.075, 77771.73
1305.557, 77837.00
1306.039, 77917.58
1306.521, 78028.65
1307.003, 78131.47
1307.485, 78211.38
1307.968, 78276.02
1308.450, 78332.05
1308.932, 78386.49
1309.414, 78473.38
1309.896, 78593.50
1310.378, 78687.42
1310.860, 78748.41
1311.342, 78737.90
1311.824, 78613.95
1312.307, 78493.66
1312.789, 78576.52
1313.271, 78751.63
1313.753, 78832.20
1314.235, 78815.79
1314.717, 78858.09
1315.199, 78990.55
1315.681, 79106.85
1316.164, 79184.38
1316.646, 79264.16
1317.128, 79415.79
1317.610, 79566.46
##END=



