##NAMES=Trembathite
##RRUFFID=R070756
##IDEAL CHEMISTRY=Mg_3_B_7_O_13_Cl
##LOCALITY=Salt Springs deposit, Sussex, Kings Co., New Brunswick, Canada
##OWNER=RRUFF
##SOURCE=Michael Scott
##DESCRIPTION=Blue-green pseudocubic crystal
##STATUS=The identification of this mineral has been confirmed by single-crystal X-ray diffraction.
##URL=rruff.info/R070756
207.4213, 1820.426
207.9035, 1822.678
208.3856, 1815.946
208.8677, 1798.466
209.3498, 1778.288
209.8319, 1753.667
210.3140, 1726.950
210.7962, 1708.878
211.2783, 1701.184
211.7604, 1698.769
212.2425, 1700.500
212.7246, 1711.095
213.2067, 1709.724
213.6889, 1687.593
214.1710, 1647.096
214.6531, 1626.760
215.1352, 1635.541
215.6173, 1651.325
216.0994, 1651.084
216.5816, 1628.118
217.0637, 1606.249
217.5458, 1590.343
218.0279, 1580.719
218.5100, 1573.772
218.9921, 1571.347
219.4743, 1569.717
219.9564, 1562.014
220.4385, 1540.718
220.9206, 1529.197
221.4027, 1538.824
221.8848, 1577.588
222.3670, 1598.294
222.8491, 1593.728
223.3312, 1575.416
223.8133, 1564.032
224.2954, 1562.062
224.7775, 1562.595
225.2596, 1563.284
225.7418, 1564.299
226.2239, 1564.884
226.7060, 1563.906
227.1881, 1562.860
227.6702, 1566.020
228.1523, 1575.702
228.6345, 1586.118
229.1166, 1595.080
229.5987, 1604.343
230.0808, 1607.635
230.5629, 1602.449
231.0450, 1590.967
231.5272, 1582.006
232.0093, 1576.603
232.4914, 1572.464
232.9735, 1568.490
233.4556, 1565.953
233.9377, 1560.888
234.4199, 1551.377
234.9020, 1538.231
235.3841, 1530.619
235.8662, 1535.420
236.3483, 1538.025
236.8304, 1525.663
237.3126, 1486.098
237.7947, 1455.609
238.2768, 1443.347
238.7589, 1448.886
239.2410, 1442.783
239.7231, 1417.850
240.2053, 1388.395
240.6874, 1368.002
241.1695, 1361.359
241.6516, 1355.041
242.1337, 1346.639
242.6158, 1336.028
243.0980, 1324.022
243.5801, 1306.181
244.0622, 1290.640
244.5443, 1288.528
245.0264, 1310.943
245.5085, 1327.528
245.9907, 1329.939
246.4728, 1315.667
246.9549, 1301.052
247.4370, 1283.031
247.9191, 1267.014
248.4012, 1262.014
248.8834, 1274.748
249.3655, 1286.962
249.8476, 1293.423
250.3297, 1293.209
250.8118, 1290.866
251.2939, 1286.699
251.7761, 1280.233
252.2582, 1269.340
252.7403, 1248.162
253.2224, 1232.531
253.7045, 1229.686
254.1866, 1245.262
254.6688, 1256.070
255.1509, 1261.955
255.6330, 1263.090
256.1151, 1258.766
256.5972, 1245.258
257.0793, 1232.749
257.5615, 1226.607
258.0436, 1230.783
258.5257, 1230.002
259.0078, 1223.006
259.4899, 1211.409
259.9720, 1199.343
260.4542, 1187.107
260.9363, 1173.832
261.4184, 1157.585
261.9005, 1135.609
262.3826, 1120.444
262.8647, 1113.626
263.3469, 1113.876
263.8290, 1118.030
264.3111, 1128.354
264.7932, 1138.088
265.2753, 1143.126
265.7574, 1142.348
266.2396, 1140.427
266.7217, 1137.305
267.2038, 1133.378
267.6859, 1129.789
268.1680, 1125.915
268.6501, 1123.787
269.1323, 1125.429
269.6144, 1131.760
270.0965, 1137.831
270.5786, 1144.403
271.0607, 1150.064
271.5428, 1147.084
272.0250, 1132.309
272.5071, 1117.045
272.9892, 1109.872
273.4713, 1112.002
273.9534, 1116.165
274.4355, 1122.176
274.9177, 1129.285
275.3998, 1134.205
275.8819, 1136.759
276.3640, 1137.587
276.8461, 1137.568
277.3282, 1136.922
277.8104, 1132.847
278.2925, 1122.645
278.7746, 1108.869
279.2567, 1104.535
279.7388, 1111.541
280.2209, 1120.654
280.7031, 1123.194
281.1852, 1118.878
281.6673, 1115.317
282.1494, 1105.641
282.6315, 1120.455
283.1136, 1129.738
283.5958, 1133.787
284.0779, 1116.922
284.5600, 1127.062
285.0421, 1126.380
285.5242, 1125.254
286.0063, 1139.194
286.4884, 1125.371
286.9706, 1139.073
287.4527, 1112.798
287.9348, 1145.180
288.4169, 1163.349
288.8990, 1168.070
289.3811, 1119.065
289.8633, 1139.436
290.3454, 1132.004
290.8275, 1123.433
291.3096, 1153.568
291.7917, 1112.377
292.2738, 1141.900
292.7560, 1143.194
293.2381, 1157.408
293.7202, 1143.647
294.2023, 1138.526
294.6844, 1161.389
295.1665, 1155.055
295.6487, 1170.641
296.1308, 1180.577
296.6129, 1185.167
297.0950, 1184.844
297.5771, 1174.565
298.0592, 1162.250
298.5414, 1163.138
299.0235, 1177.349
299.5056, 1193.320
299.9877, 1201.020
300.4698, 1202.766
300.9519, 1203.969
301.4341, 1202.775
301.9162, 1204.175
302.3983, 1219.452
302.8804, 1248.072
303.3625, 1272.099
303.8446, 1271.687
304.3268, 1256.740
304.8089, 1244.854
305.2910, 1240.594
305.7731, 1243.584
306.2552, 1256.811
306.7373, 1279.835
307.2195, 1301.563
307.7016, 1316.018
308.1837, 1324.016
308.6658, 1326.422
309.1479, 1315.545
309.6300, 1305.086
310.1122, 1307.112
310.5943, 1320.942
311.0764, 1334.435
311.5585, 1342.728
312.0406, 1345.942
312.5227, 1344.257
313.0049, 1334.817
313.4870, 1322.829
313.9691, 1310.112
314.4512, 1296.714
314.9333, 1285.004
315.4154, 1274.265
315.8976, 1266.470
316.3797, 1263.482
316.8618, 1274.928
317.3439, 1282.846
317.8260, 1277.301
318.3081, 1259.553
318.7903, 1244.301
319.2724, 1240.449
319.7545, 1238.996
320.2366, 1232.814
320.7187, 1211.657
321.2008, 1194.360
321.6830, 1154.503
322.1651, 1192.079
322.6472, 1215.444
323.1293, 1225.361
323.6114, 1181.550
324.0935, 1207.117
324.5757, 1204.882
325.0578, 1201.505
325.5399, 1236.837
326.0220, 1200.841
326.5041, 1235.888
326.9862, 1227.635
327.4684, 1216.411
327.9505, 1209.502
328.4326, 1213.216
328.9147, 1213.205
329.3968, 1205.659
329.8789, 1192.441
330.3611, 1185.097
330.8432, 1184.706
331.3253, 1188.992
331.8074, 1197.048
332.2895, 1211.210
332.7716, 1225.198
333.2538, 1240.231
333.7359, 1254.991
334.2180, 1263.369
334.7001, 1261.158
335.1822, 1259.517
335.6643, 1265.839
336.1465, 1284.541
336.6286, 1297.198
337.1107, 1301.596
337.5928, 1299.778
338.0749, 1295.073
338.5570, 1283.940
339.0392, 1280.363
339.5213, 1297.651
340.0034, 1340.195
340.4855, 1364.408
340.9676, 1363.293
341.4497, 1348.830
341.9319, 1345.997
342.4140, 1355.681
342.8961, 1368.570
343.3782, 1380.961
343.8603, 1392.853
344.3424, 1401.016
344.8246, 1384.281
345.3067, 1404.951
345.7888, 1417.746
346.2709, 1423.090
346.7530, 1398.668
347.2351, 1412.683
347.7173, 1411.295
348.1994, 1409.274
348.6815, 1428.699
349.1636, 1408.606
349.6457, 1427.692
350.1278, 1427.598
350.6100, 1423.601
351.0921, 1415.812
351.5742, 1408.962
352.0563, 1410.045
352.5384, 1419.362
353.0205, 1436.445
353.5027, 1464.476
353.9848, 1499.824
354.4669, 1534.589
354.9490, 1564.315
355.4311, 1592.695
355.9132, 1622.719
356.3954, 1654.489
356.8775, 1687.950
357.3596, 1724.443
357.8417, 1762.477
358.3238, 1800.826
358.8059, 1840.196
359.2881, 1878.784
359.7702, 1921.892
360.2523, 1968.009
360.7344, 1995.993
361.2165, 1988.355
361.6986, 1962.324
362.1808, 1932.818
362.6629, 1898.692
363.1450, 1866.628
363.6271, 1838.318
364.1092, 1813.660
364.5913, 1791.908
365.0735, 1773.078
365.5556, 1756.947
366.0377, 1743.377
366.5198, 1725.762
367.0019, 1718.189
367.4840, 1720.438
367.9662, 1733.210
368.4482, 1760.056
368.9304, 1809.508
369.4125, 1865.309
369.8946, 1919.875
370.3767, 1970.527
370.8588, 2025.548
371.3409, 2087.787
371.8231, 2154.048
372.3052, 2217.487
372.7873, 2280.300
373.2694, 2335.775
373.7515, 2381.483
374.2336, 2418.102
374.7158, 2443.561
375.1979, 2463.321
375.6800, 2466.139
376.1621, 2427.335
376.6442, 2336.896
377.1263, 2244.415
377.6085, 2167.828
378.0906, 2107.840
378.5727, 2043.198
379.0548, 1973.032
379.5369, 1902.468
380.0190, 1839.101
380.5012, 1782.265
380.9833, 1728.509
381.4654, 1675.113
381.9475, 1624.148
382.4296, 1577.756
382.9117, 1536.168
383.3939, 1501.292
383.8760, 1480.952
384.3581, 1469.973
384.8402, 1452.222
385.3223, 1417.714
385.8044, 1379.312
386.2866, 1357.376
386.7687, 1350.172
387.2508, 1343.776
387.7329, 1325.688
388.2150, 1303.417
388.6971, 1287.023
389.1793, 1280.865
389.6614, 1278.367
390.1435, 1270.988
390.6256, 1262.319
391.1077, 1263.838
391.5898, 1299.350
392.0720, 1335.996
392.5541, 1345.458
393.0362, 1307.417
393.5183, 1280.500
394.0004, 1296.672
394.4825, 1338.322
394.9647, 1373.217
395.4468, 1389.018
395.9289, 1399.255
396.4110, 1407.513
396.8931, 1412.205
397.3752, 1421.896
397.8574, 1446.605
398.3395, 1473.760
398.8216, 1487.919
399.3037, 1477.232
399.7858, 1466.448
400.2679, 1460.889
400.7501, 1461.170
401.2322, 1456.981
401.7143, 1442.313
402.1964, 1429.211
402.6785, 1429.595
403.1606, 1451.035
403.6428, 1467.117
404.1249, 1470.959
404.6070, 1466.047
405.0891, 1471.386
405.5712, 1488.396
406.0533, 1511.286
406.5355, 1538.815
407.0176, 1571.706
407.4997, 1595.973
407.9818, 1606.701
408.4639, 1613.092
408.9460, 1639.066
409.4282, 1684.528
409.9103, 1724.109
410.3924, 1738.240
410.8745, 1734.567
411.3566, 1741.872
411.8387, 1765.068
412.3209, 1785.686
412.8030, 1781.778
413.2851, 1757.252
413.7672, 1723.251
414.2493, 1680.371
414.7314, 1633.433
415.2136, 1586.696
415.6957, 1540.633
416.1778, 1497.604
416.6599, 1459.876
417.1420, 1426.235
417.6241, 1396.281
418.1063, 1367.700
418.5884, 1343.891
419.0705, 1328.521
419.5526, 1320.505
420.0347, 1311.672
420.5168, 1297.065
420.9990, 1281.676
421.4811, 1269.467
421.9632, 1265.475
422.4453, 1258.484
422.9274, 1242.098
423.4095, 1220.858
423.8917, 1207.566
424.3738, 1208.922
424.8559, 1213.348
425.3380, 1217.416
425.8201, 1222.268
426.3022, 1223.348
426.7844, 1215.390
427.2665, 1206.894
427.7486, 1212.364
428.2307, 1240.712
428.7128, 1262.704
429.1949, 1268.262
429.6771, 1257.691
430.1592, 1253.300
430.6413, 1257.005
431.1234, 1261.838
431.6055, 1256.681
432.0876, 1240.885
432.5698, 1240.273
433.0519, 1266.471
433.5340, 1306.143
434.0161, 1326.334
434.4982, 1327.352
434.9803, 1322.833
435.4625, 1322.295
435.9446, 1323.724
436.4267, 1321.280
436.9088, 1313.111
437.3909, 1304.063
437.8730, 1301.567
438.3552, 1302.904
438.8373, 1300.413
439.3194, 1286.620
439.8015, 1269.276
440.2836, 1253.449
440.7657, 1238.953
441.2479, 1231.767
441.7300, 1240.618
442.2121, 1256.721
442.6942, 1269.720
443.1763, 1277.904
443.6584, 1280.922
444.1406, 1274.528
444.6227, 1259.842
445.1048, 1252.257
445.5869, 1266.146
446.0690, 1280.399
446.5511, 1282.537
447.0333, 1254.203
447.5154, 1236.411
447.9975, 1233.354
448.4796, 1240.711
448.9617, 1247.768
449.4438, 1257.850
449.9260, 1261.953
450.4081, 1254.076
450.8902, 1230.773
451.3723, 1216.175
451.8544, 1211.303
452.3365, 1213.516
452.8186, 1222.611
453.3008, 1239.772
453.7829, 1248.794
454.2650, 1239.721
454.7471, 1220.047
455.2292, 1218.888
455.7113, 1237.187
456.1935, 1257.807
456.6756, 1269.972
457.1577, 1273.225
457.6398, 1264.458
458.1219, 1236.666
458.6040, 1208.429
459.0862, 1205.183
459.5683, 1221.120
460.0504, 1237.033
460.5325, 1243.126
461.0146, 1243.551
461.4967, 1240.673
461.9789, 1233.869
462.4610, 1228.876
462.9431, 1228.377
463.4252, 1231.515
463.9073, 1237.209
464.3894, 1249.006
464.8716, 1259.538
465.3537, 1266.656
465.8358, 1270.286
466.3179, 1271.451
466.8000, 1266.415
467.2821, 1261.606
467.7643, 1261.110
468.2464, 1269.266
468.7285, 1274.769
469.2106, 1277.474
469.6927, 1277.104
470.1748, 1271.944
470.6570, 1259.482
471.1391, 1248.297
471.6212, 1243.321
472.1033, 1245.160
472.5854, 1241.184
473.0675, 1230.060
473.5497, 1216.989
474.0318, 1207.026
474.5139, 1200.289
474.9960, 1198.476
475.4781, 1203.744
475.9602, 1213.141
476.4424, 1222.460
476.9245, 1231.368
477.4066, 1236.407
477.8887, 1232.937
478.3708, 1224.611
478.8529, 1216.276
479.3351, 1207.976
479.8172, 1202.084
480.2993, 1201.891
480.7814, 1205.406
481.2635, 1208.404
481.7456, 1210.875
482.2278, 1210.937
482.7099, 1205.231
483.1920, 1192.210
483.6741, 1185.521
484.1562, 1196.978
484.6383, 1211.928
485.1205, 1217.727
485.6026, 1197.919
486.0847, 1187.491
486.5668, 1195.486
487.0489, 1216.355
487.5310, 1223.528
488.0132, 1210.298
488.4953, 1194.308
488.9774, 1183.100
489.4595, 1176.746
489.9416, 1175.548
490.4237, 1180.000
490.9059, 1188.801
491.3880, 1203.324
491.8701, 1223.425
492.3522, 1236.173
492.8343, 1230.648
493.3164, 1217.005
493.7986, 1225.020
494.2807, 1254.158
494.7628, 1282.267
495.2449, 1289.386
495.7270, 1283.501
496.2091, 1277.325
496.6913, 1271.856
497.1734, 1270.181
497.6555, 1276.670
498.1376, 1288.826
498.6197, 1300.841
499.1018, 1310.441
499.5840, 1319.030
500.0661, 1328.509
500.5482, 1339.521
501.0303, 1345.767
501.5124, 1341.739
501.9945, 1334.360
502.4767, 1329.889
502.9588, 1332.017
503.4409, 1333.062
503.9230, 1333.932
504.4051, 1333.498
504.8872, 1325.238
505.3694, 1302.450
505.8515, 1284.743
506.3336, 1283.219
506.8157, 1300.406
507.2978, 1315.510
507.7799, 1328.203
508.2621, 1339.692
508.7442, 1351.003
509.2263, 1362.244
509.7084, 1375.448
510.1905, 1391.716
510.6726, 1409.885
511.1548, 1426.301
511.6369, 1441.488
512.1190, 1460.604
512.6011, 1490.522
513.0832, 1525.372
513.5653, 1557.529
514.0474, 1584.748
514.5295, 1611.722
515.0117, 1643.893
515.4938, 1677.540
515.9759, 1705.895
516.4580, 1719.725
516.9401, 1734.854
517.4222, 1760.981
517.9044, 1799.187
518.3865, 1826.498
518.8686, 1839.152
519.3507, 1840.932
519.8328, 1832.707
520.3149, 1805.054
520.7971, 1786.909
521.2792, 1784.491
521.7613, 1789.385
522.2434, 1783.433
522.7255, 1765.949
523.2076, 1740.150
523.6898, 1700.402
524.1719, 1651.245
524.6540, 1624.358
525.1361, 1621.459
525.6182, 1627.154
526.1003, 1628.141
526.5825, 1625.815
527.0646, 1624.647
527.5467, 1616.496
528.0288, 1625.165
528.5109, 1628.317
528.9930, 1626.250
529.4752, 1603.324
529.9573, 1607.331
530.4394, 1600.545
530.9215, 1593.317
531.4036, 1601.114
531.8857, 1581.224
532.3679, 1588.781
532.8500, 1585.383
533.3321, 1587.000
533.8142, 1577.757
534.2963, 1571.868
534.7784, 1576.842
535.2606, 1575.801
535.7427, 1565.308
536.2248, 1567.243
536.7069, 1546.973
537.1890, 1556.864
537.6711, 1560.208
538.1533, 1563.076
538.6354, 1565.548
539.1175, 1567.466
539.5996, 1567.851
540.0817, 1567.117
540.5638, 1567.783
541.0460, 1569.056
541.5281, 1573.900
542.0102, 1587.979
542.4923, 1610.211
542.9744, 1635.553
543.4565, 1666.402
543.9387, 1695.803
544.4208, 1713.583
544.9029, 1716.327
545.3850, 1725.897
545.8671, 1761.021
546.3492, 1805.280
546.8314, 1841.061
547.3135, 1863.346
547.7956, 1877.306
548.2777, 1881.464
548.7598, 1877.339
549.2419, 1871.046
549.7241, 1860.149
550.2062, 1850.482
550.6883, 1845.795
551.1704, 1848.227
551.6525, 1842.021
552.1346, 1825.163
552.6168, 1804.082
553.0989, 1789.873
553.5810, 1781.873
554.0631, 1757.713
554.5452, 1704.593
555.0273, 1641.877
555.5095, 1606.323
555.9916, 1594.368
556.4737, 1587.795
556.9558, 1578.125
557.4379, 1566.577
557.9200, 1554.542
558.4022, 1542.261
558.8843, 1528.747
559.3664, 1510.762
559.8485, 1492.287
560.3306, 1477.350
560.8127, 1467.371
561.2949, 1460.749
561.7770, 1457.316
562.2591, 1457.089
562.7412, 1460.307
563.2233, 1472.496
563.7054, 1480.515
564.1876, 1476.542
564.6697, 1457.827
565.1518, 1455.538
565.6339, 1473.689
566.1160, 1499.015
566.5981, 1521.286
567.0803, 1539.987
567.5624, 1550.504
568.0445, 1551.078
568.5266, 1544.505
569.0087, 1531.722
569.4908, 1514.518
569.9730, 1501.021
570.4551, 1501.355
570.9372, 1503.865
571.4193, 1495.032
571.9014, 1474.418
572.3835, 1454.227
572.8657, 1440.551
573.3478, 1430.375
573.8299, 1421.273
574.3120, 1410.298
574.7941, 1403.666
575.2762, 1406.705
575.7584, 1413.970
576.2405, 1415.095
576.7226, 1411.021
577.2047, 1398.423
577.6868, 1369.702
578.1689, 1327.332
578.6511, 1317.090
579.1332, 1346.647
579.6153, 1379.835
580.0974, 1384.671
580.5795, 1366.045
581.0616, 1360.044
581.5438, 1373.240
582.0259, 1390.646
582.5080, 1392.220
582.9901, 1383.424
583.4722, 1377.766
583.9543, 1379.097
584.4365, 1387.261
584.9186, 1407.694
585.4007, 1437.209
585.8828, 1459.094
586.3649, 1453.712
586.8470, 1447.867
587.3292, 1458.559
587.8113, 1497.794
588.2934, 1526.473
588.7755, 1535.814
589.2576, 1538.724
589.7397, 1548.160
590.2219, 1563.462
590.7040, 1587.935
591.1861, 1626.451
591.6682, 1671.870
592.1503, 1699.898
592.6324, 1709.380
593.1146, 1721.859
593.5967, 1751.598
594.0788, 1793.164
594.5609, 1833.406
595.0430, 1872.283
595.5251, 1905.584
596.0073, 1927.495
596.4894, 1942.412
596.9715, 1955.270
597.4536, 1961.591
597.9357, 1976.166
598.4178, 2007.392
598.9000, 2051.441
599.3821, 2101.421
599.8642, 2162.360
600.3463, 2222.257
600.8284, 2275.792
601.3105, 2323.564
601.7927, 2382.944
602.2748, 2460.686
602.7569, 2538.315
603.2390, 2604.584
603.7211, 2659.843
604.2032, 2706.281
604.6854, 2745.206
605.1675, 2770.775
605.6496, 2777.825
606.1317, 2765.171
606.6138, 2726.863
607.0959, 2653.699
607.5781, 2561.695
608.0602, 2460.616
608.5423, 2355.237
609.0244, 2260.148
609.5065, 2193.259
609.9886, 2133.302
610.4708, 2067.118
610.9529, 1991.049
611.4350, 1922.814
611.9171, 1859.268
612.3992, 1808.752
612.8813, 1777.789
613.3635, 1776.010
613.8456, 1774.938
614.3277, 1774.802
614.8098, 1773.242
615.2919, 1761.259
615.7740, 1736.527
616.2562, 1725.639
616.7383, 1745.334
617.2204, 1782.774
617.7025, 1801.064
618.1846, 1801.738
618.6667, 1800.382
619.1489, 1809.078
619.6310, 1821.682
620.1131, 1829.111
620.5952, 1828.719
621.0773, 1832.795
621.5594, 1856.506
622.0416, 1884.560
622.5237, 1900.485
623.0058, 1889.980
623.4879, 1880.030
623.9700, 1879.096
624.4521, 1880.907
624.9343, 1867.580
625.4164, 1831.329
625.8985, 1797.259
626.3806, 1773.507
626.8627, 1759.521
627.3448, 1750.531
627.8270, 1746.642
628.3091, 1746.756
628.7912, 1752.469
629.2733, 1761.371
629.7554, 1766.543
630.2375, 1766.229
630.7197, 1766.300
631.2018, 1766.932
631.6839, 1772.549
632.1660, 1789.934
632.6481, 1832.664
633.1302, 1875.751
633.6124, 1911.390
634.0945, 1940.595
634.5766, 1967.258
635.0587, 1986.009
635.5408, 2008.515
636.0229, 2037.749
636.5051, 2074.026
636.9872, 2117.419
637.4693, 2168.702
637.9514, 2226.280
638.4335, 2286.182
638.9156, 2349.575
639.3978, 2428.383
639.8799, 2526.270
640.3620, 2628.734
640.8441, 2717.024
641.3262, 2797.324
641.8083, 2885.444
642.2905, 2985.250
642.7726, 3095.444
643.2547, 3221.082
643.7368, 3356.865
644.2189, 3489.816
644.7010, 3617.564
645.1832, 3737.109
645.6653, 3841.028
646.1474, 3927.548
646.6295, 4026.526
647.1116, 4139.255
647.5938, 4264.287
648.0759, 4408.584
648.5580, 4575.635
649.0401, 4715.759
649.5222, 4824.535
650.0043, 4912.542
650.4865, 4987.398
650.9686, 5053.316
651.4507, 5123.043
651.9328, 5204.826
652.4149, 5287.543
652.8970, 5358.219
653.3792, 5420.593
653.8613, 5485.910
654.3434, 5554.552
654.8255, 5631.801
655.3076, 5722.046
655.7897, 5826.404
656.2718, 5932.171
656.7539, 6038.076
657.2360, 6145.521
657.7181, 6259.521
658.2003, 6387.542
658.6824, 6488.491
659.1645, 6561.223
659.6466, 6610.100
660.1287, 6642.275
660.6108, 6656.756
661.0930, 6646.194
661.5751, 6610.819
662.0572, 6546.486
662.5393, 6444.635
663.0214, 6309.371
663.5035, 6151.103
663.9857, 5977.023
664.4678, 5781.134
664.9499, 5549.187
665.4320, 5282.749
665.9141, 5031.108
666.3962, 4808.367
666.8784, 4596.746
667.3605, 4388.826
667.8426, 4185.652
668.3247, 3985.293
668.8068, 3783.438
669.2889, 3591.417
669.7711, 3420.680
670.2532, 3270.883
670.7353, 3138.896
671.2174, 3027.673
671.6995, 2928.244
672.1816, 2830.696
672.6638, 2734.954
673.1459, 2642.424
673.6280, 2547.388
674.1101, 2460.367
674.5922, 2388.476
675.0743, 2330.471
675.5565, 2277.851
676.0386, 2237.087
676.5207, 2192.420
677.0028, 2133.790
677.4849, 2057.501
677.9670, 2003.050
678.4492, 1977.548
678.9313, 1957.154
679.4134, 1918.955
679.8955, 1865.410
680.3776, 1826.882
680.8597, 1808.971
681.3419, 1793.841
681.8240, 1753.002
682.3061, 1700.529
682.7882, 1664.802
683.2703, 1669.802
683.7524, 1675.471
684.2346, 1653.744
684.7167, 1615.973
685.1988, 1587.801
685.6809, 1581.896
686.1630, 1580.093
686.6451, 1581.233
687.1273, 1583.988
687.6094, 1572.721
688.0915, 1541.800
688.5736, 1511.572
689.0557, 1492.087
689.5378, 1483.058
690.0200, 1482.501
690.5021, 1491.133
690.9842, 1499.407
691.4663, 1497.372
691.9484, 1489.438
692.4305, 1483.070
692.9127, 1480.790
693.3948, 1476.818
693.8769, 1466.656
694.3590, 1453.198
694.8411, 1440.435
695.3232, 1426.030
695.8054, 1416.386
696.2875, 1414.443
696.7696, 1417.258
697.2517, 1416.809
697.7338, 1411.881
698.2159, 1408.050
698.6981, 1407.768
699.1802, 1409.942
699.6623, 1411.181
700.1444, 1411.456
700.6265, 1410.423
701.1086, 1405.617
701.5908, 1400.474
702.0729, 1399.930
702.5550, 1404.559
703.0371, 1409.092
703.5192, 1409.906
704.0013, 1410.250
704.4835, 1412.818
704.9656, 1420.857
705.4477, 1425.968
705.9298, 1427.294
706.4119, 1426.418
706.8940, 1423.677
707.3762, 1417.776
707.8583, 1420.522
708.3404, 1437.931
708.8225, 1458.339
709.3046, 1456.613
709.7867, 1438.020
710.2689, 1423.719
710.7510, 1425.412
711.2331, 1434.042
711.7152, 1443.553
712.1973, 1453.643
712.6794, 1463.060
713.1616, 1475.048
713.6437, 1482.789
714.1258, 1479.730
714.6079, 1464.696
715.0900, 1460.033
715.5721, 1469.367
716.0543, 1482.631
716.5364, 1495.938
717.0185, 1509.127
717.5006, 1509.807
717.9827, 1495.723
718.4648, 1479.876
718.9470, 1475.282
719.4291, 1479.108
719.9112, 1487.086
720.3933, 1501.153
720.8754, 1512.285
721.3575, 1513.220
721.8397, 1508.215
722.3218, 1503.341
722.8039, 1493.835
723.2860, 1492.544
723.7681, 1507.712
724.2502, 1530.661
724.7324, 1534.706
725.2145, 1514.531
725.6966, 1497.642
726.1787, 1497.067
726.6608, 1505.437
727.1429, 1498.725
727.6251, 1478.308
728.1072, 1458.203
728.5893, 1444.645
729.0714, 1437.755
729.5535, 1442.416
730.0356, 1458.861
730.5178, 1464.938
730.9999, 1446.140
731.4820, 1418.684
731.9641, 1391.401
732.4462, 1360.498
732.9283, 1342.037
733.4105, 1339.607
733.8926, 1344.342
734.3747, 1349.202
734.8568, 1354.128
735.3389, 1355.534
735.8210, 1352.404
736.3032, 1347.374
736.7853, 1343.269
737.2674, 1339.795
737.7495, 1336.344
738.2316, 1331.661
738.7137, 1328.243
739.1959, 1329.236
739.6780, 1332.331
740.1601, 1332.219
740.6422, 1322.959
741.1243, 1316.659
741.6064, 1316.247
742.0886, 1320.561
742.5707, 1325.684
743.0528, 1332.357
743.5349, 1335.235
744.0170, 1328.599
744.4991, 1316.776
744.9813, 1310.591
745.4634, 1309.987
745.9455, 1314.985
746.4276, 1333.276
746.9097, 1351.943
747.3918, 1358.994
747.8740, 1351.812
748.3561, 1344.172
748.8382, 1336.203
749.3203, 1331.308
749.8024, 1332.807
750.2845, 1345.494
750.7667, 1348.443
751.2488, 1338.746
751.7309, 1326.195
752.2130, 1321.504
752.6951, 1323.859
753.1772, 1329.582
753.6594, 1338.650
754.1415, 1348.880
754.6236, 1360.611
755.1057, 1371.519
755.5878, 1378.175
756.0699, 1377.957
756.5521, 1374.763
757.0342, 1367.389
757.5163, 1357.992
757.9984, 1352.159
758.4805, 1353.382
758.9626, 1349.626
759.4448, 1334.406
759.9269, 1314.462
760.4090, 1313.548
760.8911, 1330.466
761.3732, 1346.830
761.8553, 1352.107
762.3375, 1351.648
762.8196, 1351.417
763.3017, 1351.404
763.7838, 1351.235
764.2659, 1350.462
764.7480, 1349.669
765.2302, 1348.901
765.7123, 1348.033
766.1944, 1348.814
766.6765, 1353.089
767.1586, 1355.955
767.6407, 1353.616
768.1229, 1346.136
768.6050, 1340.535
769.0871, 1337.228
769.5692, 1332.968
770.0513, 1318.111
770.5334, 1302.454
771.0156, 1304.678
771.4977, 1331.966
771.9798, 1357.419
772.4619, 1367.958
772.9440, 1369.581
773.4261, 1368.025
773.9083, 1358.058
774.3904, 1355.320
774.8725, 1365.846
775.3546, 1377.609
775.8367, 1369.240
776.3188, 1340.539
776.8010, 1326.670
777.2831, 1337.985
777.7652, 1360.443
778.2473, 1380.107
778.7294, 1395.452
779.2115, 1403.445
779.6937, 1394.445
780.1758, 1386.365
780.6579, 1386.363
781.1400, 1393.359
781.6221, 1404.948
782.1042, 1429.852
782.5864, 1444.478
783.0685, 1440.564
783.5506, 1423.191
784.0327, 1411.017
784.5148, 1404.143
784.9969, 1397.004
785.4791, 1385.227
785.9612, 1372.016
786.4433, 1362.841
786.9254, 1357.267
787.4075, 1353.561
787.8896, 1357.743
788.3718, 1357.690
788.8539, 1341.927
789.3360, 1308.188
789.8181, 1290.987
790.3002, 1300.784
790.7823, 1311.949
791.2645, 1309.057
791.7466, 1292.511
792.2287, 1288.507
792.7108, 1297.950
793.1929, 1306.554
793.6750, 1299.037
794.1572, 1284.296
794.6393, 1275.553
795.1214, 1274.608
795.6035, 1275.471
796.0856, 1278.712
796.5677, 1280.240
797.0499, 1275.918
797.5320, 1261.259
798.0141, 1250.892
798.4962, 1242.380
798.9783, 1241.967
799.4604, 1263.127
799.9426, 1303.306
800.4247, 1323.788
800.9068, 1316.785
801.3889, 1303.606
801.8710, 1308.828
802.3531, 1322.167
802.8353, 1327.790
803.3174, 1317.378
803.7995, 1306.414
804.2816, 1296.327
804.7637, 1290.140
805.2458, 1292.327
805.7280, 1307.996
806.2101, 1318.971
806.6922, 1322.120
807.1743, 1321.196
807.6564, 1321.684
808.1385, 1323.650
808.6207, 1328.044
809.1028, 1336.983
809.5849, 1345.233
810.0670, 1346.880
810.5491, 1344.218
811.0313, 1341.734
811.5134, 1342.503
811.9955, 1341.676
812.4776, 1334.200
812.9597, 1325.033
813.4418, 1329.972
813.9240, 1355.621
814.4061, 1367.031
814.8882, 1347.191
815.3703, 1313.569
815.8524, 1309.715
816.3345, 1329.297
816.8167, 1342.693
817.2988, 1329.093
817.7809, 1309.499
818.2630, 1297.047
818.7451, 1290.786
819.2272, 1285.589
819.7094, 1280.812
820.1915, 1276.210
820.6736, 1270.459
821.1556, 1264.640
821.6378, 1267.766
822.1199, 1280.767
822.6020, 1291.261
823.0841, 1289.696
823.5662, 1282.348
824.0483, 1280.773
824.5305, 1284.233
825.0126, 1288.081
825.4947, 1289.992
825.9768, 1291.442
826.4589, 1293.102
826.9410, 1295.029
827.4232, 1297.360
827.9053, 1300.198
828.3874, 1303.289
828.8695, 1307.005
829.3516, 1311.038
829.8337, 1311.514
830.3159, 1308.534
830.7980, 1309.306
831.2801, 1323.569
831.7622, 1341.657
832.2443, 1352.234
832.7264, 1354.626
833.2086, 1357.298
833.6907, 1361.500
834.1728, 1368.410
834.6549, 1379.630
835.1370, 1396.197
835.6191, 1405.991
836.1013, 1406.601
836.5834, 1409.290
837.0655, 1425.902
837.5476, 1450.898
838.0297, 1467.146
838.5118, 1473.883
838.9940, 1479.657
839.4761, 1483.343
839.9582, 1493.335
840.4403, 1520.895
840.9224, 1574.849
841.4045, 1609.307
841.8867, 1614.869
842.3688, 1609.944
842.8509, 1604.652
843.3330, 1598.914
843.8151, 1595.001
844.2972, 1593.329
844.7794, 1588.681
845.2615, 1573.562
845.7436, 1553.903
846.2257, 1538.928
846.7078, 1530.629
847.1899, 1519.381
847.6721, 1496.823
848.1542, 1473.244
848.6363, 1455.614
849.1184, 1444.593
849.6005, 1437.663
850.0826, 1435.745
850.5648, 1435.469
851.0469, 1434.526
851.5290, 1432.778
852.0111, 1429.755
852.4932, 1425.435
852.9753, 1419.520
853.4575, 1405.151
853.9396, 1393.192
854.4217, 1395.051
854.9038, 1418.744
855.3859, 1437.207
855.8680, 1449.143
856.3502, 1455.312
856.8323, 1454.388
857.3144, 1446.179
857.7965, 1441.435
858.2786, 1440.771
858.7607, 1442.570
859.2429, 1449.176
859.7250, 1455.615
860.2071, 1454.935
860.6892, 1445.536
861.1713, 1432.013
861.6534, 1409.109
862.1356, 1387.992
862.6177, 1378.094
863.0998, 1383.983
863.5819, 1381.775
864.0640, 1368.931
864.5461, 1356.322
865.0283, 1356.754
865.5104, 1365.109
865.9925, 1366.715
866.4746, 1359.581
866.9567, 1351.444
867.4388, 1344.559
867.9210, 1340.670
868.4031, 1341.842
868.8852, 1350.889
869.3673, 1358.289
869.8494, 1366.004
870.3315, 1368.807
870.8137, 1357.896
871.2958, 1335.565
871.7779, 1328.355
872.2600, 1338.360
872.7421, 1351.684
873.2242, 1361.722
873.7064, 1365.582
874.1885, 1356.727
874.6706, 1330.292
875.1527, 1314.248
875.6348, 1322.417
876.1169, 1336.581
876.5991, 1347.976
877.0812, 1356.633
877.5633, 1361.474
878.0454, 1362.161
878.5275, 1361.196
879.0096, 1360.529
879.4918, 1359.676
879.9739, 1357.880
880.4560, 1355.068
880.9381, 1351.392
881.4202, 1341.668
881.9023, 1335.510
882.3845, 1341.972
882.8666, 1363.794
883.3487, 1372.355
883.8308, 1364.347
884.3129, 1353.224
884.7950, 1346.738
885.2772, 1344.577
885.7593, 1347.610
886.2414, 1355.409
886.7235, 1360.699
887.2056, 1354.281
887.6877, 1347.187
888.1699, 1350.743
888.6520, 1367.366
889.1341, 1365.801
889.6162, 1332.116
890.0983, 1305.669
890.5804, 1312.054
891.0626, 1343.647
891.5447, 1348.244
892.0268, 1327.550
892.5089, 1308.150
892.9910, 1310.104
893.4731, 1319.224
893.9553, 1324.298
894.4374, 1324.983
894.9195, 1324.756
895.4016, 1322.806
895.8837, 1322.032
896.3658, 1324.986
896.8480, 1329.958
897.3301, 1324.710
897.8122, 1309.248
898.2943, 1297.507
898.7764, 1301.398
899.2585, 1310.480
899.7407, 1312.008
900.2228, 1307.562
900.7049, 1303.059
901.1870, 1300.993
901.6691, 1298.619
902.1512, 1291.963
902.6334, 1284.690
903.1155, 1293.341
903.5976, 1320.327
904.0797, 1341.736
904.5618, 1347.986
905.0439, 1345.262
905.5261, 1340.245
906.0082, 1334.161
906.4903, 1330.198
906.9724, 1328.653
907.4545, 1330.509
907.9366, 1341.976
908.4188, 1355.546
908.9009, 1354.645
909.3830, 1334.431
909.8651, 1319.412
910.3472, 1315.505
910.8293, 1317.457
911.3115, 1315.386
911.7936, 1312.293
912.2757, 1316.174
912.7578, 1335.854
913.2399, 1352.728
913.7220, 1354.634
914.2042, 1349.840
914.6863, 1350.671
915.1684, 1361.621
915.6505, 1365.960
916.1326, 1360.547
916.6147, 1352.396
917.0969, 1349.244
917.5790, 1350.901
918.0611, 1358.392
918.5432, 1373.809
919.0253, 1386.412
919.5074, 1386.094
919.9896, 1381.497
920.4717, 1380.869
920.9538, 1385.118
921.4359, 1393.189
921.9180, 1406.809
922.4001, 1420.618
922.8823, 1430.302
923.3644, 1435.967
923.8465, 1436.415
924.3286, 1431.396
924.8107, 1428.370
925.2928, 1433.165
925.7750, 1441.819
926.2571, 1453.164
926.7392, 1468.642
927.2213, 1474.247
927.7034, 1464.930
928.1855, 1455.804
928.6677, 1456.116
929.1498, 1464.102
929.6319, 1470.999
930.1140, 1476.862
930.5961, 1483.405
931.0782, 1494.563
931.5604, 1504.332
932.0425, 1506.230
932.5246, 1501.209
933.0067, 1501.632
933.4888, 1514.904
933.9709, 1520.446
934.4531, 1507.397
934.9352, 1484.784
935.4173, 1482.790
935.8994, 1498.410
936.3815, 1513.491
936.8636, 1518.873
937.3458, 1520.735
937.8279, 1521.232
938.3100, 1521.727
938.7921, 1525.578
939.2742, 1533.841
939.7563, 1544.938
940.2385, 1561.389
940.7206, 1577.430
941.2027, 1578.309
941.6848, 1567.885
942.1669, 1568.612
942.6490, 1591.232
943.1312, 1612.939
943.6133, 1610.303
944.0954, 1598.712
944.5775, 1597.449
945.0596, 1621.770
945.5417, 1635.340
946.0239, 1633.873
946.5060, 1628.859
946.9881, 1633.300
947.4702, 1645.115
947.9523, 1654.092
948.4344, 1659.388
948.9166, 1659.841
949.3987, 1651.995
949.8808, 1640.807
950.3629, 1630.038
950.8450, 1620.078
951.3271, 1610.626
951.8093, 1599.570
952.2914, 1593.302
952.7735, 1599.409
953.2556, 1613.711
953.7377, 1615.536
954.2198, 1605.986
954.7020, 1594.891
955.1841, 1588.847
955.6662, 1582.864
956.1483, 1570.289
956.6304, 1553.490
957.1125, 1549.402
957.5947, 1567.001
958.0768, 1576.259
958.5589, 1564.523
959.0410, 1543.168
959.5231, 1540.703
960.0052, 1552.972
960.4874, 1565.051
960.9695, 1571.955
961.4516, 1575.707
961.9337, 1576.543
962.4158, 1575.246
962.8979, 1572.664
963.3801, 1566.052
963.8622, 1565.599
964.3443, 1572.862
964.8264, 1584.958
965.3085, 1603.361
965.7906, 1622.960
966.2728, 1629.330
966.7549, 1617.288
967.2370, 1604.853
967.7191, 1602.715
968.2012, 1603.494
968.6833, 1599.920
969.1655, 1588.922
969.6476, 1591.806
970.1297, 1612.513
970.6118, 1630.515
971.0939, 1627.742
971.5760, 1612.592
972.0582, 1599.937
972.5403, 1590.321
973.0224, 1582.427
973.5045, 1577.522
973.9866, 1572.167
974.4688, 1563.791
974.9509, 1553.578
975.4330, 1548.303
975.9151, 1548.884
976.3972, 1546.218
976.8793, 1536.925
977.3615, 1522.469
977.8436, 1500.649
978.3257, 1475.550
978.8078, 1457.046
979.2899, 1451.299
979.7720, 1449.126
980.2542, 1452.237
980.7363, 1455.203
981.2184, 1449.114
981.7005, 1433.672
982.1826, 1422.618
982.6647, 1418.844
983.1469, 1414.439
983.6290, 1399.092
984.1111, 1379.973
984.5932, 1364.645
985.0753, 1354.360
985.5574, 1349.170
986.0395, 1353.052
986.5216, 1355.855
987.0037, 1349.939
987.4858, 1336.553
987.9680, 1330.396
988.4501, 1330.941
988.9322, 1328.501
989.4143, 1312.299
989.8964, 1294.486
990.3785, 1284.371
990.8607, 1281.122
991.3428, 1277.561
991.8249, 1275.832
992.3070, 1267.140
992.7891, 1245.488
993.2712, 1220.272
993.7534, 1214.251
994.2355, 1222.656
994.7176, 1230.039
995.1997, 1228.849
995.6818, 1229.438
996.1639, 1241.521
996.6461, 1256.214
997.1282, 1262.223
997.6103, 1257.220
998.0924, 1250.420
998.5745, 1241.316
999.0566, 1233.799
999.5388, 1231.889
1000.021, 1234.306
1000.503, 1240.214
1000.985, 1249.489
1001.467, 1256.804
1001.949, 1257.670
1002.431, 1258.300
1002.914, 1262.125
1003.396, 1268.570
1003.878, 1271.567
1004.360, 1271.105
1004.842, 1269.750
1005.324, 1267.871
1005.806, 1266.686
1006.288, 1267.785
1006.771, 1270.625
1007.253, 1262.023
1007.735, 1281.001
1008.217, 1292.872
1008.699, 1298.020
1009.181, 1276.304
1009.663, 1289.277
1010.145, 1288.348
1010.627, 1286.849
1011.110, 1304.709
1011.592, 1286.901
1012.074, 1304.448
1012.556, 1307.883
1013.038, 1317.777
1013.520, 1313.683
1014.002, 1313.909
1014.484, 1328.128
1014.966, 1334.599
1015.449, 1328.901
1015.931, 1325.905
1016.413, 1335.129
1016.895, 1341.441
1017.377, 1344.998
1017.859, 1337.549
1018.341, 1344.312
1018.823, 1345.380
1019.306, 1346.219
1019.788, 1354.983
1020.270, 1349.134
1020.752, 1357.773
1021.234, 1360.628
1021.716, 1366.130
1022.198, 1365.901
1022.680, 1367.442
1023.162, 1374.716
1023.645, 1378.821
1024.127, 1377.932
1024.609, 1383.602
1025.091, 1377.553
1025.573, 1402.764
1026.055, 1406.156
1026.537, 1405.002
1027.019, 1399.992
1027.502, 1397.910
1027.984, 1406.224
1028.466, 1416.042
1028.948, 1418.849
1029.430, 1417.301
1029.912, 1427.328
1030.394, 1452.377
1030.876, 1476.789
1031.359, 1497.546
1031.841, 1513.668
1032.323, 1523.723
1032.805, 1527.896
1033.287, 1526.097
1033.769, 1512.683
1034.251, 1504.016
1034.733, 1504.557
1035.215, 1510.558
1035.698, 1522.619
1036.180, 1540.854
1036.662, 1542.406
1037.144, 1526.160
1037.626, 1511.283
1038.108, 1517.521
1038.590, 1527.742
1039.072, 1527.214
1039.554, 1515.807
1040.037, 1505.495
1040.519, 1497.396
1041.001, 1489.420
1041.483, 1480.611
1041.965, 1472.095
1042.447, 1464.806
1042.929, 1459.498
1043.411, 1458.888
1043.894, 1469.978
1044.376, 1474.798
1044.858, 1457.347
1045.340, 1436.790
1045.822, 1432.286
1046.304, 1445.922
1046.786, 1453.209
1047.268, 1452.877
1047.750, 1453.021
1048.233, 1462.656
1048.715, 1474.575
1049.197, 1479.264
1049.679, 1477.186
1050.161, 1482.220
1050.643, 1501.955
1051.125, 1516.213
1051.607, 1517.252
1052.089, 1511.842
1052.572, 1517.545
1053.054, 1530.481
1053.536, 1538.244
1054.018, 1535.540
1054.500, 1529.445
1054.982, 1517.373
1055.464, 1507.556
1055.946, 1508.222
1056.429, 1521.090
1056.911, 1534.961
1057.393, 1549.875
1057.875, 1564.134
1058.357, 1578.618
1058.839, 1590.145
1059.321, 1593.943
1059.803, 1590.619
1060.286, 1587.124
1060.768, 1583.067
1061.250, 1581.722
1061.732, 1584.496
1062.214, 1589.670
1062.696, 1594.106
1063.178, 1597.849
1063.660, 1599.893
1064.142, 1596.068
1064.625, 1600.772
1065.107, 1637.115
1065.589, 1673.129
1066.071, 1677.797
1066.553, 1643.854
1067.035, 1635.162
1067.517, 1653.616
1067.999, 1670.422
1068.481, 1659.997
1068.964, 1640.800
1069.446, 1632.558
1069.928, 1633.192
1070.410, 1630.216
1070.892, 1616.032
1071.374, 1609.271
1071.856, 1614.696
1072.338, 1626.682
1072.820, 1638.477
1073.303, 1648.768
1073.785, 1652.420
1074.267, 1646.233
1074.749, 1642.344
1075.231, 1648.153
1075.713, 1656.717
1076.195, 1661.857
1076.677, 1663.648
1077.160, 1680.236
1077.642, 1711.751
1078.124, 1736.524
1078.606, 1735.495
1079.088, 1726.885
1079.570, 1722.983
1080.052, 1724.078
1080.534, 1731.384
1081.016, 1747.959
1081.499, 1763.514
1081.981, 1778.298
1082.463, 1788.233
1082.945, 1782.760
1083.427, 1770.367
1083.909, 1770.508
1084.391, 1787.081
1084.873, 1796.509
1085.355, 1777.168
1085.838, 1762.590
1086.320, 1769.100
1086.802, 1791.694
1087.284, 1808.539
1087.766, 1819.264
1088.248, 1820.540
1088.730, 1806.013
1089.212, 1788.538
1089.695, 1775.622
1090.177, 1765.776
1090.659, 1755.755
1091.141, 1741.901
1091.623, 1744.268
1092.105, 1767.130
1092.587, 1786.540
1093.069, 1770.377
1093.552, 1744.002
1094.034, 1745.594
1094.516, 1773.543
1094.998, 1787.748
1095.480, 1768.460
1095.962, 1752.966
1096.444, 1753.279
1096.926, 1758.793
1097.408, 1743.720
1097.891, 1714.324
1098.373, 1691.691
1098.855, 1683.885
1099.337, 1674.949
1099.819, 1654.152
1100.301, 1631.876
1100.783, 1614.594
1101.265, 1602.124
1101.747, 1602.589
1102.230, 1615.689
1102.712, 1619.227
1103.194, 1587.865
1103.676, 1551.303
1104.158, 1531.248
1104.640, 1525.602
1105.122, 1528.938
1105.604, 1547.327
1106.087, 1553.330
1106.569, 1541.967
1107.051, 1523.566
1107.533, 1505.901
1108.015, 1491.536
1108.497, 1486.285
1108.979, 1491.213
1109.461, 1493.734
1109.943, 1489.525
1110.426, 1484.219
1110.908, 1478.755
1111.390, 1474.219
1111.872, 1477.133
1112.354, 1484.434
1112.836, 1484.495
1113.318, 1466.906
1113.800, 1452.847
1114.282, 1459.643
1114.765, 1468.296
1115.247, 1458.094
1115.729, 1426.451
1116.211, 1417.103
1116.693, 1430.699
1117.175, 1439.761
1117.657, 1412.997
1118.139, 1384.345
1118.622, 1386.830
1119.104, 1411.340
1119.586, 1418.756
1120.068, 1403.574
1120.550, 1387.068
1121.032, 1370.901
1121.514, 1361.134
1121.996, 1371.357
1122.479, 1390.363
1122.961, 1402.319
1123.443, 1404.490
1123.925, 1403.094
1124.407, 1398.035
1124.889, 1391.635
1125.371, 1383.122
1125.853, 1375.224
1126.335, 1377.726
1126.818, 1387.459
1127.300, 1395.174
1127.782, 1398.603
1128.264, 1397.240
1128.746, 1385.568
1129.228, 1373.834
1129.710, 1372.129
1130.192, 1379.782
1130.674, 1377.366
1131.157, 1384.446
1131.639, 1388.615
1132.121, 1390.028
1132.603, 1380.435
1133.085, 1385.054
1133.567, 1383.978
1134.049, 1382.668
1134.531, 1389.288
1135.014, 1381.296
1135.496, 1387.790
1135.978, 1388.501
1136.460, 1391.859
1136.942, 1389.486
1137.424, 1396.117
1137.906, 1393.765
1138.388, 1391.800
1138.870, 1390.103
1139.353, 1389.325
1139.835, 1388.813
1140.317, 1390.639
1140.799, 1400.505
1141.281, 1414.822
1141.763, 1426.767
1142.245, 1431.871
1142.727, 1438.807
1143.209, 1448.391
1143.692, 1459.331
1144.174, 1470.118
1144.656, 1481.544
1145.138, 1498.277
1145.620, 1519.026
1146.102, 1536.003
1146.584, 1543.459
1147.066, 1548.823
1147.549, 1550.300
1148.031, 1554.619
1148.513, 1577.512
1148.995, 1614.912
1149.477, 1639.838
1149.959, 1647.498
1150.441, 1653.657
1150.923, 1674.486
1151.406, 1691.699
1151.888, 1691.778
1152.370, 1677.995
1152.852, 1666.049
1153.334, 1655.932
1153.816, 1645.047
1154.298, 1631.392
1154.780, 1619.100
1155.262, 1614.159
1155.745, 1611.311
1156.227, 1603.129
1156.709, 1587.163
1157.191, 1580.931
1157.673, 1586.408
1158.155, 1586.635
1158.637, 1564.119
1159.119, 1535.806
1159.601, 1519.165
1160.084, 1512.138
1160.566, 1510.122
1161.048, 1514.594
1161.530, 1519.348
1162.012, 1525.101
1162.494, 1527.552
1162.976, 1518.698
1163.458, 1505.375
1163.941, 1499.309
1164.423, 1500.421
1164.905, 1498.748
1165.387, 1491.842
1165.869, 1481.472
1166.351, 1466.138
1166.833, 1450.347
1167.315, 1442.040
1167.797, 1439.163
1168.280, 1436.880
1168.762, 1434.069
1169.244, 1432.891
1169.726, 1437.815
1170.208, 1439.729
1170.690, 1433.419
1171.172, 1421.703
1171.654, 1415.179
1172.136, 1412.402
1172.619, 1406.909
1173.101, 1389.847
1173.583, 1380.956
1174.065, 1400.847
1174.547, 1421.405
1175.029, 1417.060
1175.511, 1389.580
1175.993, 1382.356
1176.476, 1393.702
1176.958, 1403.846
1177.440, 1399.750
1177.922, 1392.426
1178.404, 1387.566
1178.886, 1382.760
1179.368, 1372.036
1179.850, 1355.132
1180.333, 1350.175
1180.815, 1359.646
1181.297, 1367.427
1181.779, 1354.914
1182.261, 1341.504
1182.743, 1345.980
1183.225, 1362.202
1183.707, 1361.495
1184.189, 1341.699
1184.672, 1333.758
1185.154, 1348.225
1185.636, 1363.411
1186.118, 1354.525
1186.600, 1338.473
1187.082, 1333.125
1187.564, 1340.292
1188.046, 1343.953
1188.528, 1343.894
1189.011, 1341.416
1189.493, 1336.575
1189.975, 1330.381
1190.457, 1324.933
1190.939, 1318.614
1191.421, 1307.742
1191.903, 1286.001
1192.385, 1280.667
1192.868, 1295.532
1193.350, 1308.118
1193.832, 1293.969
1194.314, 1275.095
1194.796, 1288.251
1195.278, 1320.222
1195.760, 1335.017
1196.242, 1319.223
1196.724, 1302.852
1197.207, 1285.508
1197.689, 1275.684
1198.171, 1289.040
1198.653, 1311.233
1199.135, 1321.478
1199.617, 1319.738
1200.099, 1315.974
1200.581, 1308.948
1201.063, 1306.637
1201.546, 1311.268
1202.028, 1319.133
1202.510, 1329.301
1202.992, 1337.143
1203.474, 1332.635
1203.956, 1313.661
1204.438, 1298.818
1204.920, 1288.784
1205.403, 1288.011
1205.885, 1300.902
1206.367, 1319.702
1206.849, 1330.395
1207.331, 1334.605
1207.813, 1333.179
1208.295, 1321.319
1208.777, 1323.334
1209.260, 1351.002
1209.742, 1375.273
1210.224, 1377.576
1210.706, 1368.107
1211.188, 1373.385
1211.670, 1388.606
1212.152, 1401.097
1212.634, 1403.680
1213.116, 1408.336
1213.599, 1417.502
1214.081, 1427.312
1214.563, 1433.922
1215.045, 1439.069
1215.527, 1447.962
1216.009, 1459.978
1216.491, 1472.621
1216.973, 1485.406
1217.455, 1497.600
1217.938, 1507.916
1218.420, 1519.257
1218.902, 1537.104
1219.384, 1558.058
1219.866, 1572.933
1220.348, 1581.311
1220.830, 1585.552
1221.312, 1579.825
1221.795, 1579.596
1222.277, 1590.078
1222.759, 1605.064
1223.241, 1611.596
1223.723, 1614.872
1224.205, 1633.104
1224.687, 1669.578
1225.169, 1694.999
1225.651, 1684.021
1226.134, 1678.317
1226.616, 1692.929
1227.098, 1716.881
1227.580, 1725.867
1228.062, 1724.044
1228.544, 1722.928
1229.026, 1726.162
1229.508, 1724.792
1229.990, 1711.332
1230.473, 1699.880
1230.955, 1699.675
1231.437, 1703.753
1231.919, 1687.268
1232.401, 1658.763
1232.883, 1643.178
1233.365, 1661.194
1233.847, 1662.453
1234.329, 1632.183
1234.812, 1591.508
1235.294, 1549.393
1235.776, 1509.139
1236.258, 1481.819
1236.740, 1465.031
1237.222, 1451.558
1237.704, 1441.732
1238.186, 1429.995
1238.669, 1415.328
1239.151, 1399.505
1239.633, 1384.840
1240.115, 1370.397
1240.597, 1352.954
1241.079, 1333.475
1241.561, 1315.670
1242.043, 1303.503
1242.526, 1288.968
1243.008, 1268.415
1243.490, 1250.825
1243.972, 1251.773
1244.454, 1261.850
1244.936, 1258.110
1245.418, 1241.375
1245.900, 1229.060
1246.382, 1231.558
1246.865, 1232.014
1247.347, 1227.773
1247.829, 1220.489
1248.311, 1213.159
1248.793, 1204.025
1249.275, 1184.244
1249.757, 1153.418
1250.239, 1145.180
1250.721, 1182.127
1251.204, 1204.650
1251.686, 1194.811
1252.168, 1171.076
1252.650, 1157.963
1253.132, 1152.603
1253.614, 1152.088
1254.096, 1156.663
1254.578, 1157.166
1255.061, 1151.205
1255.543, 1146.417
1256.025, 1146.338
1256.507, 1147.145
1256.989, 1140.933
1257.471, 1132.621
1257.953, 1130.664
1258.435, 1139.579
1258.917, 1138.798
1259.400, 1124.884
1259.882, 1114.573
1260.364, 1117.259
1260.846, 1124.815
1261.328, 1126.677
1261.810, 1126.130
1262.292, 1129.026
1262.774, 1138.916
1263.256, 1138.883
1263.739, 1127.318
1264.221, 1116.835
1264.703, 1116.801
##END=



