##NAMES=Tremolite
##RRUFFID=R060311
##IDEAL CHEMISTRY=[box]Ca_2_Mg_5_Si_8_O_22_(OH)_2_
##LOCALITY=Khyber Pass area, Khyber Agency, North-West Frontier Province, Pakistan
##OWNER=RRUFF
##SOURCE=Herb Obodda
##DESCRIPTION=Colorless fragment
##STATUS=The identification of this mineral has been confirmed by X-ray diffraction and chemical analysis
##URL=rruff.info/R060311
##MEASURED CHEMISTRY=[box](Ca_1.96_Mg_0.04_)_Σ=2_(Mg_4.97_Fe^3+^_0.03_)_Σ=5_(Si_7.97_Al_0.03_)_Σ=8_O_22_(OH)_2_
98.28284, 1868.185
98.76495, 1863.251
99.24707, 1859.149
99.72919, 1857.491
100.2113, 1855.797
100.6934, 1852.451
101.1755, 1848.172
101.6577, 1844.539
102.1398, 1842.747
102.6219, 1842.510
103.1040, 1845.195
103.5861, 1851.749
104.0682, 1859.203
104.5504, 1865.872
105.0325, 1871.444
105.5146, 1876.715
105.9967, 1882.376
106.4788, 1887.914
106.9609, 1894.942
107.4431, 1904.776
107.9252, 1915.767
108.4073, 1925.175
108.8894, 1931.488
109.3715, 1937.297
109.8536, 1947.101
110.3358, 1961.115
110.8179, 1976.590
111.3000, 1992.263
111.7821, 2008.176
112.2642, 2024.620
112.7463, 2040.521
113.2285, 2057.974
113.7106, 2078.396
114.1927, 2101.476
114.6748, 2128.915
115.1569, 2162.297
115.6390, 2201.286
116.1212, 2248.819
116.6033, 2315.589
117.0854, 2386.641
117.5675, 2449.210
118.0496, 2498.395
118.5317, 2532.860
119.0139, 2545.374
119.4960, 2511.155
119.9781, 2479.071
120.4602, 2455.900
120.9423, 2441.134
121.4244, 2433.920
121.9066, 2435.188
122.3887, 2446.718
122.8708, 2439.500
123.3529, 2410.800
123.8350, 2371.128
124.3171, 2320.698
124.7993, 2261.597
125.2814, 2201.460
125.7635, 2147.007
126.2456, 2099.252
126.7277, 2056.727
127.2098, 2019.722
127.6920, 1987.842
128.1741, 1960.612
128.6562, 1938.174
129.1383, 1919.970
129.6204, 1906.694
130.1025, 1897.659
130.5847, 1890.005
131.0668, 1883.097
131.5489, 1876.766
132.0310, 1870.284
132.5131, 1862.557
132.9952, 1855.768
133.4774, 1851.384
133.9595, 1849.447
134.4416, 1849.346
134.9237, 1851.364
135.4058, 1856.032
135.8879, 1859.258
136.3701, 1858.550
136.8522, 1857.282
137.3343, 1856.585
137.8164, 1856.884
138.2985, 1859.217
138.7806, 1865.881
139.2628, 1880.444
139.7449, 1892.995
140.2270, 1900.455
140.7091, 1906.812
141.1912, 1915.705
141.6733, 1928.724
142.1555, 1944.902
142.6376, 1960.767
143.1197, 1978.994
143.6018, 1993.745
144.0839, 2006.174
144.5660, 2014.474
145.0482, 2015.340
145.5303, 2006.272
146.0124, 1988.521
146.4945, 1971.434
146.9766, 1952.920
147.4587, 1936.890
147.9409, 1924.826
148.4230, 1916.638
148.9051, 1911.705
149.3872, 1909.756
149.8693, 1911.260
150.3514, 1915.429
150.8336, 1922.790
151.3157, 1932.496
151.7978, 1943.916
152.2799, 1957.131
152.7620, 1971.948
153.2441, 1987.798
153.7263, 2005.183
154.2084, 2025.987
154.6905, 2049.044
155.1726, 2076.022
155.6547, 2110.308
156.1368, 2150.546
156.6190, 2201.786
157.1011, 2259.473
157.5832, 2327.672
158.0653, 2416.873
158.5474, 2542.846
159.0295, 2701.738
159.5117, 2844.550
159.9938, 3014.086
160.4759, 3117.725
160.9580, 3104.161
161.4401, 2994.325
161.9222, 2842.700
162.4044, 2691.066
162.8865, 2534.295
163.3686, 2404.635
163.8507, 2308.777
164.3328, 2230.699
164.8149, 2166.744
165.2971, 2114.946
165.7792, 2075.102
166.2613, 2046.934
166.7434, 2033.504
167.2255, 2025.615
167.7076, 2023.982
168.1898, 2026.401
168.6719, 2031.289
169.1540, 2038.365
169.6361, 2048.448
170.1182, 2062.813
170.6003, 2082.388
171.0825, 2104.960
171.5646, 2130.593
172.0467, 2159.098
172.5288, 2189.539
173.0109, 2221.343
173.4930, 2256.762
173.9752, 2300.257
174.4573, 2350.608
174.9394, 2408.416
175.4215, 2475.089
175.9036, 2549.630
176.3857, 2632.254
176.8679, 2730.730
177.3500, 2826.112
177.8321, 2903.468
178.3142, 2967.387
178.7963, 2991.809
179.2784, 2952.883
179.7606, 2855.270
180.2427, 2736.761
180.7248, 2587.485
181.2069, 2437.373
181.6890, 2310.368
182.1711, 2207.839
182.6533, 2125.745
183.1354, 2062.498
183.6175, 2019.252
184.0996, 1985.779
184.5817, 1966.800
185.0638, 1953.214
185.5460, 1940.646
186.0281, 1928.104
186.5102, 1916.894
186.9923, 1908.936
187.4744, 1904.866
187.9565, 1902.621
188.4387, 1902.777
188.9208, 1903.845
189.4029, 1904.483
189.8850, 1904.354
190.3671, 1904.539
190.8492, 1907.379
191.3314, 1915.556
191.8135, 1922.025
192.2956, 1927.643
192.7777, 1930.988
193.2598, 1930.272
193.7419, 1924.867
194.2241, 1916.294
194.7062, 1908.226
195.1883, 1900.754
195.6704, 1893.737
196.1525, 1886.266
196.6346, 1879.565
197.1168, 1875.323
197.5989, 1874.330
198.0810, 1875.610
198.5631, 1876.396
199.0452, 1875.307
199.5273, 1875.540
200.0095, 1878.153
200.4916, 1882.340
200.9737, 1886.665
201.4558, 1890.373
201.9379, 1894.134
202.4200, 1900.113
202.9022, 1908.561
203.3843, 1918.017
203.8664, 1928.083
204.3485, 1938.802
204.8306, 1950.116
205.3127, 1961.765
205.7949, 1974.378
206.2770, 1988.741
206.7591, 2004.672
207.2412, 2022.501
207.7233, 2041.729
208.2054, 2062.728
208.6876, 2087.160
209.1697, 2115.051
209.6518, 2147.953
210.1339, 2186.460
210.6160, 2230.725
211.0981, 2279.777
211.5803, 2333.406
212.0624, 2391.499
212.5445, 2452.943
213.0266, 2523.912
213.5087, 2593.130
213.9908, 2651.320
214.4730, 2697.000
214.9551, 2730.499
215.4372, 2746.767
215.9193, 2742.238
216.4014, 2743.200
216.8836, 2753.177
217.3657, 2774.155
217.8478, 2808.451
218.3299, 2856.450
218.8120, 2918.436
219.2941, 2996.183
219.7763, 3092.872
220.2584, 3195.185
220.7405, 3308.681
221.2226, 3422.239
221.7047, 3537.203
222.1868, 3652.262
222.6690, 3747.577
223.1511, 3793.346
223.6332, 3788.425
224.1153, 3729.463
224.5974, 3592.847
225.0795, 3427.656
225.5617, 3258.785
226.0438, 3096.370
226.5259, 2949.283
227.0080, 2832.785
227.4901, 2752.988
227.9722, 2698.824
228.4544, 2674.368
228.9365, 2668.017
229.4186, 2673.988
229.9007, 2689.626
230.3828, 2712.460
230.8649, 2739.091
231.3471, 2781.408
231.8292, 2807.093
232.3113, 2820.198
232.7934, 2816.294
233.2755, 2789.423
233.7576, 2738.734
234.2398, 2670.391
234.7219, 2594.610
235.2040, 2502.817
235.6861, 2418.558
236.1682, 2340.390
236.6503, 2270.155
237.1325, 2210.616
237.6146, 2162.565
238.0967, 2123.173
238.5788, 2088.614
239.0609, 2059.403
239.5430, 2035.704
240.0252, 2018.774
240.5073, 2006.949
240.9894, 1999.202
241.4715, 1995.236
241.9536, 1994.273
242.4357, 1995.451
242.9179, 1998.828
243.4000, 2004.494
243.8821, 2011.782
244.3642, 2021.696
244.8463, 2034.997
245.3284, 2051.855
245.8106, 2072.840
246.2927, 2099.753
246.7748, 2132.756
247.2569, 2166.622
247.7390, 2201.478
248.2211, 2236.569
248.7033, 2273.474
249.1854, 2313.475
249.6675, 2347.630
250.1496, 2366.723
250.6317, 2372.125
251.1138, 2366.873
251.5960, 2349.940
252.0781, 2323.347
252.5602, 2287.188
253.0423, 2240.358
253.5244, 2191.479
254.0065, 2146.025
254.4887, 2104.427
254.9708, 2069.407
255.4529, 2042.953
255.9350, 2023.071
256.4171, 2007.787
256.8992, 1997.372
257.3813, 1990.034
257.8635, 1984.721
258.3456, 1981.617
258.8277, 1981.752
259.3098, 1985.942
259.7919, 1993.226
260.2740, 2002.275
260.7562, 2013.008
261.2383, 2025.779
261.7204, 2042.988
262.2025, 2061.879
262.6846, 2079.921
263.1667, 2098.548
263.6489, 2113.359
264.1310, 2118.993
264.6131, 2115.629
265.0952, 2102.177
265.5773, 2070.562
266.0594, 2031.484
266.5416, 1993.402
267.0237, 1957.727
267.5058, 1925.975
267.9879, 1900.231
268.4700, 1881.135
268.9521, 1865.526
269.4343, 1854.622
269.9164, 1845.708
270.3985, 1836.803
270.8806, 1827.346
271.3627, 1818.699
271.8448, 1812.797
272.3270, 1810.032
272.8091, 1807.805
273.2912, 1805.446
273.7733, 1803.492
274.2554, 1802.796
274.7375, 1803.399
275.2197, 1803.639
275.7018, 1800.778
276.1839, 1793.925
276.6660, 1789.785
277.1481, 1792.766
277.6302, 1796.260
278.1124, 1796.658
278.5945, 1793.931
279.0766, 1790.780
279.5587, 1790.170
280.0408, 1792.498
280.5229, 1793.819
281.0051, 1792.676
281.4872, 1791.594
281.9693, 1791.541
282.4514, 1792.497
282.9335, 1794.035
283.4156, 1795.984
283.8978, 1798.363
284.3799, 1800.258
284.8620, 1800.944
285.3441, 1801.855
285.8262, 1803.029
286.3083, 1804.785
286.7905, 1807.750
287.2726, 1812.560
287.7547, 1819.009
288.2368, 1825.071
288.7189, 1830.149
289.2010, 1835.550
289.6832, 1842.804
290.1653, 1850.353
290.6474, 1855.967
291.1295, 1858.305
291.6116, 1857.803
292.0938, 1855.930
292.5759, 1850.710
293.0580, 1847.049
293.5401, 1845.847
294.0222, 1846.559
294.5043, 1848.775
294.9865, 1852.345
295.4686, 1856.886
295.9507, 1861.486
296.4328, 1866.097
296.9149, 1870.871
297.3970, 1874.855
297.8792, 1879.488
298.3613, 1886.217
298.8434, 1895.430
299.3255, 1906.009
299.8076, 1915.883
300.2897, 1923.723
300.7719, 1934.044
301.2540, 1948.582
301.7361, 1964.131
302.2182, 1980.196
302.7003, 1995.903
303.1824, 2009.036
303.6646, 2017.394
304.1467, 2021.411
304.6288, 2018.458
305.1109, 2004.780
305.5930, 1987.880
306.0751, 1969.202
306.5573, 1950.031
307.0394, 1932.439
307.5215, 1918.352
308.0036, 1907.824
308.4857, 1899.026
308.9678, 1892.231
309.4500, 1886.985
309.9321, 1883.969
310.4142, 1882.409
310.8963, 1881.018
311.3784, 1879.030
311.8605, 1876.381
312.3427, 1872.684
312.8248, 1868.665
313.3069, 1862.430
313.7890, 1851.690
314.2711, 1839.169
314.7532, 1827.971
315.2354, 1819.651
315.7175, 1813.953
316.1996, 1810.484
316.6817, 1811.344
317.1638, 1811.164
317.6459, 1808.048
318.1281, 1804.450
318.6102, 1802.602
319.0923, 1803.196
319.5744, 1805.312
320.0565, 1807.370
320.5386, 1808.768
321.0208, 1811.580
321.5029, 1817.213
321.9850, 1823.037
322.4671, 1827.642
322.9492, 1830.764
323.4313, 1832.744
323.9135, 1833.808
324.3956, 1833.712
324.8777, 1833.882
325.3598, 1835.247
325.8419, 1836.002
326.3240, 1834.795
326.8062, 1832.275
327.2883, 1830.138
327.7704, 1829.551
328.2525, 1830.525
328.7346, 1833.122
329.2167, 1838.132
329.6989, 1844.118
330.1810, 1850.801
330.6631, 1858.210
331.1452, 1866.469
331.6273, 1875.715
332.1094, 1885.670
332.5916, 1895.701
333.0737, 1907.280
333.5558, 1916.195
334.0379, 1922.107
334.5200, 1925.350
335.0021, 1925.100
335.4843, 1921.264
335.9664, 1916.759
336.4485, 1916.306
336.9306, 1920.782
337.4127, 1926.785
337.8948, 1934.527
338.3770, 1943.200
338.8591, 1951.570
339.3412, 1960.000
339.8233, 1970.626
340.3055, 1986.329
340.7876, 2007.565
341.2697, 2028.615
341.7518, 2049.431
342.2339, 2069.950
342.7160, 2091.608
343.1982, 2113.075
343.6803, 2131.580
344.1624, 2145.383
344.6445, 2154.702
345.1266, 2160.339
345.6087, 2160.884
346.0909, 2159.761
346.5730, 2155.581
347.0551, 2151.525
347.5372, 2151.722
348.0193, 2158.061
348.5014, 2168.641
348.9836, 2180.468
349.4657, 2193.779
349.9478, 2207.387
350.4299, 2224.211
350.9120, 2239.257
351.3941, 2248.740
351.8763, 2251.946
352.3584, 2250.460
352.8405, 2245.772
353.3226, 2237.874
353.8047, 2226.042
354.2868, 2208.208
354.7690, 2188.105
355.2511, 2166.134
355.7332, 2143.395
356.2153, 2124.195
356.6974, 2112.762
357.1795, 2107.334
357.6617, 2100.402
358.1438, 2089.709
358.6259, 2082.300
359.1080, 2082.936
359.5901, 2089.055
360.0722, 2097.129
360.5544, 2106.563
361.0365, 2116.633
361.5186, 2126.469
362.0007, 2135.977
362.4828, 2145.528
362.9649, 2154.019
363.4471, 2163.492
363.9292, 2175.963
364.4113, 2191.577
364.8934, 2210.675
365.3755, 2233.087
365.8576, 2259.042
366.3398, 2289.949
366.8219, 2326.926
367.3040, 2368.329
367.7861, 2413.728
368.2682, 2462.663
368.7503, 2510.255
369.2325, 2562.097
369.7146, 2609.409
370.1967, 2637.237
370.6788, 2643.920
371.1609, 2633.774
371.6430, 2603.275
372.1252, 2557.478
372.6073, 2514.207
373.0894, 2473.711
373.5715, 2438.211
374.0536, 2410.190
374.5357, 2389.280
375.0179, 2373.446
375.5000, 2363.904
375.9821, 2357.178
376.4642, 2345.270
376.9463, 2328.383
377.4284, 2307.133
377.9106, 2279.885
378.3927, 2248.870
378.8748, 2216.819
379.3569, 2184.068
379.8390, 2153.506
380.3211, 2129.023
380.8033, 2111.512
381.2854, 2095.948
381.7675, 2081.147
382.2496, 2068.886
382.7317, 2060.292
383.2138, 2055.536
383.6960, 2054.644
384.1781, 2057.845
384.6602, 2065.018
385.1423, 2074.398
385.6244, 2083.472
386.1065, 2096.969
386.5887, 2117.714
387.0708, 2143.612
387.5529, 2171.051
388.0350, 2198.448
388.5171, 2227.114
388.9992, 2259.917
389.4814, 2295.441
389.9635, 2338.251
390.4456, 2390.539
390.9277, 2448.529
391.4098, 2509.878
391.8919, 2573.754
392.3741, 2641.321
392.8562, 2715.516
393.3383, 2799.869
393.8204, 2865.255
394.3025, 2921.306
394.7846, 2950.348
395.2668, 2945.334
395.7489, 2908.825
396.2310, 2842.886
396.7131, 2746.693
397.1952, 2628.603
397.6773, 2516.155
398.1595, 2404.387
398.6416, 2307.446
399.1237, 2226.137
399.6058, 2158.645
400.0879, 2104.836
400.5700, 2064.065
401.0522, 2032.764
401.5343, 2006.945
402.0164, 1987.006
402.4985, 1971.047
402.9806, 1960.134
403.4627, 1952.570
403.9449, 1948.385
404.4270, 1947.006
404.9091, 1947.196
405.3912, 1948.158
405.8733, 1950.151
406.3554, 1953.878
406.8376, 1959.250
407.3197, 1966.713
407.8018, 1977.005
408.2839, 1989.148
408.7660, 2002.138
409.2481, 2015.782
409.7303, 2030.663
410.2124, 2047.032
410.6945, 2064.964
411.1766, 2085.943
411.6587, 2110.635
412.1408, 2138.435
412.6230, 2169.086
413.1051, 2202.252
413.5872, 2235.630
414.0693, 2269.970
414.5514, 2303.343
415.0335, 2334.011
415.5157, 2362.383
415.9978, 2382.767
416.4799, 2392.684
416.9620, 2390.485
417.4441, 2375.073
417.9262, 2342.793
418.4084, 2301.989
418.8905, 2253.331
419.3726, 2199.740
419.8547, 2148.434
420.3368, 2101.472
420.8189, 2059.006
421.3011, 2021.915
421.7832, 1990.460
422.2653, 1962.988
422.7474, 1939.836
423.2295, 1920.318
423.7116, 1904.005
424.1938, 1890.754
424.6759, 1880.226
425.1580, 1872.385
425.6401, 1867.104
426.1222, 1861.730
426.6043, 1853.943
427.0865, 1848.728
427.5686, 1848.745
428.0507, 1851.610
428.5328, 1853.772
429.0149, 1853.904
429.4970, 1853.680
429.9792, 1856.155
430.4613, 1862.754
430.9434, 1869.083
431.4255, 1873.837
431.9076, 1879.491
432.3897, 1887.943
432.8719, 1898.713
433.3540, 1910.039
433.8361, 1920.804
434.3182, 1930.826
434.8003, 1938.926
435.2824, 1945.456
435.7646, 1949.188
436.2467, 1951.929
436.7288, 1951.182
437.2109, 1943.742
437.6930, 1928.574
438.1751, 1908.849
438.6573, 1887.126
439.1394, 1863.093
439.6215, 1841.468
440.1036, 1822.734
440.5857, 1806.906
441.0678, 1793.769
441.5500, 1783.196
442.0321, 1774.755
442.5142, 1769.060
442.9963, 1764.990
443.4784, 1760.264
443.9605, 1754.690
444.4427, 1749.990
444.9248, 1747.479
445.4069, 1746.213
445.8890, 1744.483
446.3711, 1742.014
446.8532, 1739.647
447.3354, 1737.822
447.8175, 1736.446
448.2996, 1735.346
448.7817, 1734.501
449.2638, 1733.852
449.7459, 1733.526
450.2281, 1733.549
450.7102, 1732.722
451.1923, 1729.271
451.6744, 1726.486
452.1565, 1727.651
452.6386, 1731.389
453.1208, 1733.055
453.6029, 1729.925
454.0850, 1724.199
454.5671, 1722.010
455.0492, 1728.507
455.5313, 1731.537
456.0135, 1727.451
456.4956, 1722.213
456.9777, 1721.418
457.4598, 1725.197
457.9419, 1728.980
458.4240, 1728.145
458.9062, 1722.604
459.3883, 1719.099
459.8704, 1719.048
460.3525, 1719.602
460.8346, 1720.473
461.3167, 1721.479
461.7989, 1722.647
462.2810, 1724.005
462.7631, 1724.928
463.2452, 1724.050
463.7273, 1720.870
464.2094, 1718.851
464.6916, 1719.358
465.1737, 1720.267
465.6558, 1720.263
466.1379, 1719.544
466.6200, 1719.041
467.1021, 1719.389
467.5843, 1720.214
468.0664, 1720.735
468.5485, 1720.900
469.0306, 1721.205
469.5127, 1722.347
469.9948, 1723.459
470.4770, 1723.074
470.9591, 1720.728
471.4412, 1718.498
471.9233, 1717.340
472.4054, 1717.031
472.8875, 1717.237
473.3697, 1717.914
473.8518, 1718.964
474.3339, 1720.369
474.8160, 1722.132
475.2981, 1723.807
475.7802, 1725.312
476.2624, 1726.802
476.7445, 1728.745
477.2266, 1730.656
477.7087, 1731.473
478.1908, 1730.763
478.6729, 1729.279
479.1551, 1728.382
479.6372, 1728.318
480.1193, 1728.258
480.6014, 1727.742
481.0835, 1727.625
481.5656, 1728.509
482.0478, 1730.219
482.5299, 1732.288
483.0120, 1734.498
483.4941, 1736.666
483.9762, 1737.923
484.4583, 1737.666
484.9405, 1737.761
485.4226, 1739.290
485.9047, 1740.820
486.3868, 1740.881
486.8689, 1739.439
487.3510, 1738.191
487.8332, 1739.550
488.3153, 1742.585
488.7974, 1742.163
489.2795, 1736.600
489.7616, 1731.274
490.2437, 1729.792
490.7259, 1730.594
491.2080, 1731.554
491.6901, 1732.419
492.1722, 1733.141
492.6543, 1733.814
493.1364, 1734.314
493.6186, 1734.302
494.1007, 1733.698
494.5828, 1732.511
495.0649, 1730.719
495.5470, 1728.275
496.0291, 1725.382
496.5113, 1721.795
496.9934, 1717.984
497.4755, 1714.044
497.9576, 1710.107
498.4397, 1706.489
498.9218, 1703.386
499.4040, 1700.489
499.8861, 1696.961
500.3682, 1690.685
500.8503, 1687.933
501.3324, 1691.240
501.8145, 1695.461
502.2967, 1697.083
502.7788, 1696.659
503.2609, 1697.098
503.7430, 1700.628
504.2251, 1706.344
504.7072, 1710.784
505.1894, 1713.884
505.6715, 1715.852
506.1536, 1714.707
506.6357, 1713.820
507.1178, 1716.344
507.5999, 1722.523
508.0821, 1729.206
508.5642, 1733.714
509.0463, 1736.938
509.5284, 1741.755
510.0105, 1748.633
510.4926, 1755.732
510.9748, 1762.078
511.4569, 1767.752
511.9390, 1772.989
512.4211, 1777.496
512.9032, 1782.044
513.3853, 1787.380
513.8674, 1792.888
514.3495, 1797.653
514.8317, 1801.500
515.3138, 1804.008
515.7959, 1804.565
516.2780, 1803.001
516.7601, 1801.852
517.2422, 1801.732
517.7244, 1801.260
518.2065, 1798.581
518.6886, 1795.724
519.1707, 1796.059
519.6528, 1800.651
520.1349, 1806.964
520.6171, 1811.216
521.0992, 1813.070
521.5813, 1814.264
522.0634, 1811.868
522.5455, 1811.863
523.0276, 1817.365
523.5098, 1826.721
523.9919, 1836.688
524.4740, 1845.871
524.9561, 1855.083
525.4382, 1865.323
525.9203, 1876.517
526.4025, 1889.966
526.8846, 1907.471
527.3667, 1925.193
527.8488, 1940.854
528.3309, 1954.191
528.8130, 1962.891
529.2952, 1964.845
529.7773, 1962.959
530.2594, 1961.016
530.7415, 1957.991
531.2236, 1948.534
531.7057, 1929.646
532.1879, 1904.893
532.6700, 1880.838
533.1521, 1856.859
533.6342, 1834.946
534.1163, 1815.767
534.5984, 1798.242
535.0806, 1781.891
535.5627, 1766.606
536.0448, 1752.164
536.5269, 1738.405
537.0090, 1725.783
537.4911, 1716.197
537.9733, 1711.267
538.4554, 1705.633
538.9375, 1696.891
539.4196, 1688.741
539.9017, 1683.977
540.3839, 1682.129
540.8660, 1680.400
541.3481, 1676.995
541.8302, 1672.508
542.3123, 1668.049
542.7944, 1663.562
543.2766, 1659.696
543.7587, 1656.655
544.2408, 1654.506
544.7229, 1653.529
545.2050, 1653.918
545.6871, 1653.752
546.1693, 1651.865
546.6514, 1649.417
547.1335, 1647.749
547.6156, 1646.837
548.0977, 1645.676
548.5798, 1643.499
549.0620, 1640.867
549.5441, 1639.695
550.0262, 1641.257
550.5083, 1642.631
550.9904, 1643.888
551.4725, 1644.868
551.9547, 1645.439
552.4368, 1645.606
552.9189, 1645.407
553.4010, 1644.784
553.8831, 1643.915
554.3652, 1643.533
554.8474, 1643.724
555.3295, 1644.211
555.8116, 1645.306
556.2937, 1646.431
556.7758, 1647.323
557.2579, 1647.913
557.7401, 1647.917
558.2222, 1646.802
558.7043, 1645.143
559.1864, 1643.889
559.6685, 1643.071
560.1506, 1642.476
560.6328, 1642.174
561.1149, 1641.862
561.5970, 1640.591
562.0791, 1637.676
562.5612, 1636.095
563.0433, 1637.330
563.5255, 1639.393
564.0076, 1641.057
564.4897, 1642.026
564.9718, 1641.823
565.4539, 1639.954
565.9360, 1637.311
566.4182, 1637.100
566.9003, 1641.561
567.3824, 1644.244
567.8645, 1643.467
568.3466, 1642.079
568.8287, 1641.929
569.3109, 1642.849
569.7930, 1643.530
570.2751, 1642.929
570.7572, 1641.824
571.2393, 1642.159
571.7214, 1644.115
572.2036, 1645.257
572.6857, 1644.526
573.1678, 1642.934
573.6499, 1641.280
574.1320, 1639.562
574.6141, 1639.076
575.0963, 1641.286
575.5784, 1643.986
576.0605, 1645.468
576.5426, 1645.790
577.0247, 1645.294
577.5068, 1644.052
577.9890, 1642.602
578.4711, 1641.950
578.9532, 1642.340
579.4353, 1642.978
579.9174, 1643.985
580.3995, 1645.095
580.8817, 1646.386
581.3638, 1647.648
581.8459, 1648.597
582.3280, 1649.124
582.8101, 1649.078
583.2922, 1647.920
583.7744, 1645.530
584.2565, 1643.693
584.7386, 1642.124
585.2207, 1641.899
585.7029, 1645.725
586.1850, 1651.428
586.6671, 1653.022
587.1492, 1645.857
587.6313, 1638.525
588.1135, 1637.962
588.5956, 1641.909
589.0777, 1645.399
589.5598, 1647.197
590.0419, 1647.750
590.5240, 1647.395
591.0062, 1646.100
591.4883, 1644.719
591.9704, 1643.209
592.4525, 1641.690
592.9346, 1639.493
593.4167, 1637.668
593.8989, 1637.550
594.3810, 1639.345
594.8631, 1642.013
595.3452, 1645.053
595.8273, 1648.257
596.3094, 1648.826
596.7916, 1645.278
597.2737, 1642.502
597.7558, 1643.819
598.2379, 1646.375
598.7200, 1647.071
599.2021, 1645.413
599.6843, 1643.527
600.1664, 1642.039
600.6485, 1641.172
601.1306, 1641.525
601.6127, 1642.995
602.0948, 1644.583
602.5770, 1645.918
603.0591, 1646.610
603.5412, 1645.547
604.0233, 1640.927
604.5054, 1637.450
604.9875, 1635.306
605.4697, 1634.096
605.9518, 1634.381
606.4339, 1635.380
606.9160, 1635.250
607.3981, 1632.843
607.8802, 1629.353
608.3624, 1627.052
608.8445, 1626.031
609.3266, 1625.659
609.8087, 1626.233
610.2908, 1626.955
610.7729, 1627.346
611.2551, 1627.424
611.7372, 1627.208
612.2193, 1626.650
612.7014, 1625.864
613.1835, 1624.937
613.6656, 1623.837
614.1478, 1622.154
614.6299, 1619.803
615.1120, 1618.141
615.5941, 1618.702
616.0762, 1621.492
616.5583, 1623.672
617.0405, 1625.422
617.5226, 1626.321
618.0047, 1625.730
618.4868, 1624.598
618.9689, 1623.630
619.4510, 1623.054
619.9332, 1623.056
620.4153, 1624.067
620.8974, 1625.735
621.3795, 1626.771
621.8616, 1627.131
622.3438, 1627.077
622.8259, 1625.955
623.3080, 1625.177
623.7901, 1626.982
624.2722, 1631.541
624.7543, 1635.312
625.2365, 1637.717
625.7186, 1638.691
626.2007, 1637.195
626.6828, 1634.179
627.1649, 1632.112
627.6470, 1632.021
628.1292, 1633.214
628.6113, 1634.545
629.0934, 1635.763
629.5755, 1638.124
630.0576, 1644.012
630.5397, 1648.440
631.0219, 1648.242
631.5040, 1646.339
631.9861, 1647.184
632.4682, 1652.147
632.9503, 1657.434
633.4324, 1658.964
633.9146, 1658.040
634.3967, 1659.066
634.8788, 1662.598
635.3609, 1666.019
635.8430, 1667.626
636.3251, 1668.163
636.8073, 1669.707
637.2894, 1672.369
637.7715, 1675.580
638.2536, 1678.992
638.7357, 1683.144
639.2178, 1689.241
639.7000, 1696.467
640.1821, 1702.440
640.6642, 1705.803
641.1463, 1707.957
641.6284, 1711.744
642.1105, 1717.331
642.5927, 1723.599
643.0748, 1730.934
643.5569, 1738.292
644.0390, 1744.754
644.5211, 1750.915
645.0032, 1758.066
645.4854, 1766.920
645.9675, 1775.871
646.4496, 1784.048
646.9317, 1791.583
647.4138, 1798.086
647.8959, 1803.703
648.3781, 1810.666
648.8602, 1820.754
649.3423, 1833.397
649.8244, 1845.482
650.3065, 1857.073
650.7886, 1868.032
651.2708, 1876.786
651.7529, 1886.341
652.2350, 1899.571
652.7171, 1915.353
653.1992, 1930.123
653.6813, 1941.912
654.1635, 1952.178
654.6456, 1963.038
655.1277, 1974.437
655.6098, 1985.649
656.0919, 1996.223
656.5740, 2007.360
657.0562, 2019.508
657.5383, 2033.050
658.0204, 2049.449
658.5025, 2067.168
658.9846, 2089.589
659.4667, 2119.153
659.9489, 2152.822
660.4310, 2186.675
660.9131, 2220.890
661.3952, 2258.782
661.8773, 2302.903
662.3594, 2353.385
662.8416, 2410.659
663.3237, 2474.392
663.8058, 2546.999
664.2879, 2630.677
664.7700, 2722.612
665.2521, 2818.410
665.7343, 2919.896
666.2164, 3033.039
666.6985, 3160.031
667.1806, 3299.317
667.6627, 3451.141
668.1448, 3614.275
668.6270, 3787.462
669.1091, 3969.189
669.5912, 4159.388
670.0733, 4358.476
670.5554, 4564.011
671.0375, 4765.404
671.5197, 4975.502
672.0018, 5157.405
672.4839, 5321.644
672.9660, 5446.242
673.4481, 5521.857
673.9302, 5544.161
674.4124, 5504.820
674.8945, 5394.288
675.3766, 5228.150
675.8587, 5012.291
676.3408, 4754.695
676.8229, 4487.717
677.3051, 4214.489
677.7872, 3950.119
678.2693, 3705.479
678.7514, 3480.890
679.2335, 3281.672
679.7156, 3107.656
680.1978, 2954.815
680.6799, 2825.867
681.1620, 2714.473
681.6441, 2617.735
682.1262, 2533.657
682.6083, 2461.859
683.0905, 2402.119
683.5726, 2352.875
684.0547, 2311.761
684.5368, 2278.906
685.0189, 2249.662
685.5010, 2222.892
685.9832, 2200.533
686.4653, 2185.852
686.9474, 2177.510
687.4295, 2168.270
687.9116, 2156.132
688.3937, 2145.587
688.8759, 2139.412
689.3580, 2134.472
689.8401, 2128.240
690.3222, 2120.175
690.8043, 2110.547
691.2864, 2099.649
691.7686, 2086.760
692.2507, 2069.784
692.7328, 2048.269
693.2149, 2025.421
693.6970, 2000.869
694.1791, 1976.361
694.6613, 1953.250
695.1434, 1931.094
695.6255, 1908.570
696.1076, 1885.014
696.5897, 1862.199
697.0718, 1840.219
697.5540, 1819.698
698.0361, 1801.683
698.5182, 1786.047
699.0003, 1771.789
699.4824, 1758.319
699.9645, 1745.790
700.4467, 1734.799
700.9288, 1725.669
701.4109, 1717.069
701.8930, 1709.137
702.3751, 1701.498
702.8572, 1693.823
703.3394, 1686.407
703.8215, 1679.583
704.3036, 1673.228
704.7857, 1668.425
705.2678, 1667.630
705.7499, 1667.818
706.2321, 1664.184
706.7142, 1657.155
707.1963, 1650.969
707.6784, 1647.844
708.1605, 1646.477
708.6426, 1644.236
709.1248, 1640.747
709.6069, 1637.742
710.0890, 1635.985
710.5711, 1633.781
711.0532, 1630.151
711.5353, 1625.934
712.0175, 1622.166
712.4996, 1619.028
712.9817, 1616.325
713.4638, 1613.459
713.9459, 1611.203
714.4280, 1610.974
714.9102, 1612.495
715.3923, 1614.614
715.8744, 1616.999
716.3565, 1618.340
716.8386, 1616.207
717.3207, 1609.649
717.8029, 1606.599
718.2850, 1610.734
718.7671, 1613.912
719.2492, 1613.916
719.7313, 1612.373
720.2134, 1610.732
720.6956, 1609.239
721.1777, 1607.727
721.6598, 1605.736
722.1419, 1603.918
722.6240, 1603.458
723.1061, 1603.982
723.5883, 1604.126
724.0704, 1603.517
724.5525, 1601.848
725.0346, 1598.301
725.5167, 1593.017
725.9988, 1591.178
726.4810, 1595.702
726.9631, 1599.536
727.4452, 1602.070
727.9273, 1603.477
728.4094, 1603.163
728.8915, 1601.758
729.3737, 1601.302
729.8558, 1602.930
730.3379, 1605.568
730.8200, 1608.460
731.3021, 1611.425
731.7842, 1614.044
732.2664, 1616.238
732.7485, 1617.765
733.2306, 1618.325
733.7127, 1618.199
734.1948, 1618.445
734.6769, 1618.715
735.1591, 1620.037
735.6412, 1622.606
736.1233, 1625.977
736.6054, 1630.696
737.0875, 1635.862
737.5696, 1639.699
738.0518, 1641.452
738.5339, 1643.055
739.0160, 1646.477
739.4981, 1650.641
739.9802, 1653.867
740.4623, 1655.956
740.9445, 1656.521
741.4266, 1655.265
741.9087, 1652.822
742.3908, 1650.439
742.8729, 1648.510
743.3550, 1644.805
743.8372, 1635.574
744.3193, 1629.122
744.8014, 1629.310
745.2835, 1632.425
745.7656, 1634.557
746.2477, 1635.152
746.7299, 1635.702
747.2120, 1636.855
747.6941, 1638.541
748.1762, 1640.903
748.6583, 1643.740
749.1404, 1646.673
749.6226, 1649.573
750.1047, 1651.632
750.5868, 1652.127
751.0689, 1651.012
751.5510, 1647.544
752.0331, 1640.305
752.5153, 1633.456
752.9974, 1627.430
753.4795, 1622.148
753.9616, 1618.144
754.4437, 1614.873
754.9258, 1610.657
755.4080, 1604.417
755.8901, 1598.144
756.3722, 1593.054
756.8543, 1588.850
757.3364, 1585.350
757.8185, 1582.390
758.3007, 1579.255
758.7828, 1575.472
759.2649, 1571.616
759.7470, 1568.778
760.2291, 1566.816
760.7112, 1566.634
761.1934, 1569.458
761.6755, 1572.204
762.1576, 1574.230
762.6397, 1574.986
763.1218, 1573.139
763.6039, 1568.228
764.0861, 1564.066
764.5682, 1561.928
765.0503, 1561.068
765.5324, 1561.504
766.0145, 1562.644
766.4966, 1563.263
766.9788, 1563.099
767.4609, 1563.311
767.9430, 1565.483
768.4251, 1568.862
768.9072, 1569.326
769.3893, 1566.296
769.8715, 1563.307
770.3536, 1561.126
770.8357, 1559.364
771.3178, 1557.516
771.7999, 1555.738
772.2820, 1554.866
772.7642, 1556.529
773.2463, 1556.955
773.7284, 1554.103
774.2105, 1550.385
774.6926, 1547.482
775.1747, 1545.690
775.6569, 1545.220
776.1390, 1546.273
776.6211, 1547.724
777.1032, 1547.858
777.5853, 1546.961
778.0674, 1546.878
778.5496, 1547.895
779.0317, 1548.310
779.5138, 1547.110
779.9959, 1545.113
780.4780, 1543.681
780.9601, 1542.853
781.4423, 1542.516
781.9244, 1542.854
782.4065, 1543.432
782.8886, 1544.559
783.3707, 1545.575
783.8528, 1545.709
784.3350, 1544.938
784.8171, 1543.933
785.2992, 1543.190
785.7813, 1542.314
786.2634, 1540.201
786.7455, 1537.498
787.2277, 1536.534
787.7098, 1537.749
788.1919, 1539.637
788.6740, 1541.115
789.1561, 1542.180
789.6382, 1542.694
790.1204, 1541.994
790.6025, 1542.332
791.0846, 1544.492
791.5667, 1546.986
792.0488, 1549.826
792.5309, 1552.334
793.0131, 1553.181
793.4952, 1551.866
793.9773, 1551.076
794.4594, 1553.194
794.9415, 1555.450
795.4236, 1554.879
795.9058, 1552.395
796.3879, 1550.542
796.8700, 1550.033
797.3521, 1549.294
797.8342, 1546.290
798.3163, 1541.797
798.7985, 1540.199
799.2806, 1542.052
799.7627, 1543.403
800.2448, 1542.899
800.7269, 1542.420
801.2090, 1543.943
801.6912, 1546.973
802.1733, 1548.743
802.6554, 1547.468
803.1375, 1547.750
803.6196, 1551.383
804.1017, 1555.988
804.5839, 1559.934
805.0660, 1563.464
805.5481, 1567.624
806.0302, 1572.839
806.5123, 1577.666
806.9944, 1580.357
807.4766, 1581.691
807.9587, 1583.363
808.4408, 1585.456
808.9229, 1588.354
809.4050, 1592.389
809.8871, 1596.137
810.3693, 1598.043
810.8514, 1598.102
811.3335, 1596.031
811.8156, 1590.700
812.2977, 1585.100
812.7798, 1579.458
813.2620, 1573.864
813.7441, 1568.216
814.2262, 1562.680
814.7083, 1557.598
815.1904, 1552.828
815.6725, 1549.074
816.1547, 1546.928
816.6368, 1545.830
817.1189, 1545.499
817.6010, 1545.609
818.0831, 1545.554
818.5652, 1545.062
819.0474, 1544.020
819.5295, 1542.027
820.0116, 1539.247
820.4937, 1537.334
820.9758, 1536.443
821.4579, 1535.393
821.9401, 1533.525
822.4222, 1531.896
822.9043, 1532.096
823.3864, 1533.978
823.8685, 1533.825
824.3506, 1530.089
824.8328, 1526.610
825.3149, 1523.618
825.7970, 1521.391
826.2791, 1520.191
826.7612, 1519.899
827.2433, 1520.438
827.7255, 1521.930
828.2076, 1523.098
828.6897, 1522.388
829.1718, 1520.898
829.6539, 1520.580
830.1360, 1521.266
830.6182, 1521.557
831.1003, 1520.920
831.5824, 1520.377
832.0645, 1521.414
832.5466, 1523.755
833.0287, 1523.717
833.5109, 1520.421
833.9930, 1517.274
834.4751, 1514.431
834.9572, 1512.578
835.4393, 1512.943
835.9214, 1514.756
836.4036, 1515.737
836.8857, 1515.068
837.3678, 1514.867
837.8499, 1515.912
838.3320, 1517.357
838.8141, 1519.386
839.2963, 1521.121
839.7784, 1520.717
840.2605, 1517.743
840.7426, 1514.671
841.2247, 1513.792
841.7068, 1514.288
842.1890, 1514.839
842.6711, 1515.362
843.1532, 1515.245
843.6353, 1514.311
844.1174, 1513.337
844.5995, 1513.050
845.0817, 1513.247
845.5638, 1513.104
846.0459, 1512.715
846.5280, 1511.596
847.0101, 1508.394
847.4922, 1506.166
847.9744, 1508.072
848.4565, 1511.247
848.9386, 1510.708
849.4207, 1505.333
849.9028, 1501.742
850.3849, 1502.564
850.8671, 1504.771
851.3492, 1507.586
851.8313, 1510.168
852.3134, 1511.549
852.7955, 1511.606
853.2776, 1510.788
853.7598, 1509.173
854.2419, 1507.330
854.7240, 1505.771
855.2061, 1504.687
855.6882, 1505.550
856.1703, 1508.453
856.6525, 1509.799
857.1346, 1507.341
857.6167, 1502.959
858.0988, 1500.082
858.5809, 1498.711
859.0630, 1499.023
859.5452, 1502.983
860.0273, 1505.114
860.5094, 1502.112
860.9915, 1497.904
861.4736, 1495.592
861.9557, 1495.139
862.4379, 1495.879
862.9200, 1499.162
863.4021, 1501.601
863.8842, 1501.827
864.3663, 1500.902
864.8484, 1499.385
865.3306, 1497.564
865.8127, 1495.536
866.2948, 1493.355
866.7769, 1491.961
867.2590, 1492.879
867.7411, 1495.008
868.2233, 1496.365
868.7054, 1496.836
869.1875, 1495.734
869.6696, 1492.831
870.1517, 1490.054
870.6339, 1489.214
871.1160, 1490.023
871.5981, 1491.443
872.0802, 1494.056
872.5623, 1495.081
873.0444, 1493.388
873.5266, 1491.525
874.0087, 1491.025
874.4908, 1491.216
874.9729, 1490.993
875.4550, 1490.421
875.9371, 1489.049
876.4193, 1485.366
876.9014, 1482.602
877.3835, 1482.726
877.8656, 1484.056
878.3477, 1484.953
878.8298, 1485.213
879.3120, 1485.234
879.7941, 1485.092
880.2762, 1485.079
880.7583, 1485.604
881.2404, 1486.388
881.7225, 1486.972
882.2047, 1487.326
882.6868, 1487.525
883.1689, 1487.602
883.6510, 1487.598
884.1331, 1487.112
884.6152, 1486.566
885.0974, 1490.332
885.5795, 1499.544
886.0616, 1504.508
886.5437, 1502.117
887.0258, 1496.974
887.5079, 1492.001
887.9901, 1487.507
888.4722, 1484.699
888.9543, 1484.229
889.4364, 1484.255
889.9185, 1486.507
890.4006, 1487.260
890.8828, 1483.115
891.3649, 1477.791
891.8470, 1476.175
892.3291, 1478.591
892.8112, 1480.834
893.2933, 1480.839
893.7755, 1480.604
894.2576, 1482.088
894.7397, 1483.604
895.2218, 1482.266
895.7039, 1478.812
896.1860, 1476.653
896.6682, 1477.430
897.1503, 1479.543
897.6324, 1481.355
898.1145, 1482.872
898.5966, 1483.778
899.0787, 1484.224
899.5609, 1486.513
900.0430, 1491.605
900.5251, 1494.877
901.0072, 1491.084
901.4893, 1482.467
901.9714, 1480.737
902.4536, 1488.811
902.9357, 1492.789
903.4178, 1489.100
903.8999, 1485.456
904.3820, 1485.788
904.8641, 1488.730
905.3463, 1492.260
905.8284, 1496.509
906.3105, 1500.192
906.7926, 1503.576
907.2747, 1505.944
907.7568, 1507.278
908.2390, 1507.384
908.7211, 1505.258
909.2032, 1501.805
909.6853, 1499.576
910.1674, 1499.678
910.6495, 1500.317
911.1317, 1499.490
911.6138, 1499.195
912.0959, 1502.932
912.5780, 1508.837
913.0601, 1511.998
913.5422, 1511.351
914.0244, 1510.298
914.5065, 1511.680
914.9886, 1514.702
915.4707, 1517.653
915.9528, 1520.671
916.4349, 1524.828
916.9171, 1530.243
917.3992, 1536.425
917.8813, 1543.262
918.3634, 1550.059
918.8455, 1555.244
919.3276, 1558.515
919.8098, 1566.196
920.2919, 1580.504
920.7740, 1593.670
921.2561, 1603.818
921.7382, 1612.383
922.2203, 1618.597
922.7025, 1624.189
923.1846, 1635.956
923.6667, 1657.447
924.1488, 1677.447
924.6309, 1692.541
925.1130, 1708.677
925.5952, 1729.783
926.0773, 1752.811
926.5594, 1773.765
927.0415, 1792.354
927.5236, 1811.459
928.0057, 1833.793
928.4879, 1854.706
928.9700, 1871.858
929.4521, 1885.421
929.9342, 1895.865
930.4163, 1902.964
930.8984, 1906.392
931.3806, 1905.964
931.8627, 1901.058
932.3448, 1891.434
932.8269, 1876.695
933.3090, 1854.474
933.7911, 1826.145
934.2733, 1797.373
934.7554, 1769.386
935.2375, 1742.038
935.7196, 1714.997
936.2017, 1689.810
936.6838, 1670.836
937.1660, 1658.373
937.6481, 1644.905
938.1302, 1629.631
938.6123, 1616.804
939.0944, 1607.852
939.5765, 1601.825
940.0587, 1598.032
940.5408, 1596.303
941.0229, 1595.619
941.5050, 1596.473
941.9871, 1597.460
942.4692, 1598.667
942.9514, 1599.846
943.4335, 1600.834
943.9156, 1601.760
944.3977, 1602.500
944.8798, 1603.076
945.3619, 1604.847
945.8441, 1609.605
946.3262, 1613.605
946.8083, 1616.512
947.2904, 1617.254
947.7725, 1614.452
948.2546, 1608.887
948.7368, 1602.336
949.2189, 1595.309
949.7010, 1587.367
950.1831, 1577.240
950.6652, 1566.849
951.1473, 1558.093
951.6295, 1550.474
952.1116, 1542.926
952.5937, 1535.467
953.0758, 1529.309
953.5579, 1525.194
954.0400, 1521.924
954.5222, 1517.335
955.0043, 1512.371
955.4864, 1510.659
955.9685, 1511.682
956.4506, 1510.441
956.9327, 1505.450
957.4149, 1500.145
957.8970, 1497.575
958.3791, 1496.939
958.8612, 1495.669
959.3433, 1493.654
959.8254, 1492.567
960.3076, 1492.613
960.7897, 1493.214
961.2718, 1494.381
961.7539, 1495.449
962.2360, 1495.539
962.7181, 1494.689
963.2003, 1493.837
963.6824, 1493.741
964.1645, 1492.000
964.6466, 1486.081
965.1287, 1481.365
965.6108, 1481.572
966.0930, 1484.378
966.5751, 1486.756
967.0572, 1488.721
967.5393, 1489.334
968.0214, 1487.388
968.5035, 1485.545
968.9857, 1484.938
969.4678, 1484.315
969.9499, 1482.227
970.4320, 1479.454
970.9141, 1477.780
971.3962, 1477.667
971.8784, 1478.272
972.3605, 1480.197
972.8426, 1481.652
973.3247, 1480.971
973.8068, 1479.358
974.2889, 1478.564
974.7711, 1478.440
975.2532, 1477.199
975.7353, 1473.735
976.2174, 1470.978
976.6995, 1472.520
977.1816, 1475.719
977.6638, 1477.466
978.1459, 1477.619
978.6280, 1475.353
979.1101, 1471.136
979.5922, 1468.602
980.0743, 1470.502
980.5565, 1474.538
981.0386, 1477.414
981.5207, 1479.243
982.0028, 1480.455
982.4849, 1481.024
982.9670, 1480.136
983.4492, 1477.503
983.9313, 1475.231
984.4134, 1475.409
984.8955, 1477.313
985.3776, 1478.881
985.8597, 1480.132
986.3419, 1479.891
986.8240, 1477.705
987.3061, 1476.400
987.7882, 1477.420
988.2703, 1479.116
988.7524, 1479.470
989.2346, 1478.627
989.7167, 1478.082
990.1988, 1477.661
990.6809, 1478.251
991.1630, 1481.071
991.6451, 1482.680
992.1273, 1480.350
992.6094, 1476.730
993.0915, 1475.789
993.5736, 1477.651
994.0557, 1479.822
994.5378, 1483.970
995.0200, 1485.921
995.5021, 1483.558
995.9842, 1480.740
996.4663, 1479.531
996.9484, 1479.216
997.4305, 1478.667
997.9127, 1477.817
998.3948, 1476.479
998.8769, 1473.077
999.3590, 1471.229
999.8411, 1472.768
1000.323, 1475.595
1000.805, 1479.013
1001.287, 1482.166
1001.770, 1483.425
1002.252, 1482.354
1002.734, 1481.121
1003.216, 1479.843
1003.698, 1479.582
1004.180, 1482.253
1004.662, 1485.323
1005.144, 1484.834
1005.627, 1482.392
1006.109, 1483.447
1006.591, 1490.056
1007.073, 1496.725
1007.555, 1499.016
1008.037, 1500.186
1008.519, 1503.673
1009.001, 1508.010
1009.483, 1510.297
1009.966, 1510.869
1010.448, 1512.441
1010.930, 1516.299
1011.412, 1520.877
1011.894, 1523.978
1012.376, 1527.185
1012.858, 1533.665
1013.340, 1542.196
1013.823, 1549.209
1014.305, 1554.523
1014.787, 1561.068
1015.269, 1570.496
1015.751, 1581.645
1016.233, 1593.155
1016.715, 1605.025
1017.197, 1617.670
1017.679, 1630.703
1018.162, 1642.733
1018.644, 1653.398
1019.126, 1662.599
1019.608, 1670.109
1020.090, 1676.986
1020.572, 1685.229
1021.054, 1693.266
1021.536, 1701.408
1022.018, 1710.686
1022.501, 1719.136
1022.983, 1728.834
1023.465, 1739.320
1023.947, 1750.048
1024.429, 1762.182
1024.911, 1779.145
1025.393, 1801.125
1025.875, 1819.962
1026.358, 1835.307
1026.840, 1850.906
1027.322, 1868.413
1027.804, 1883.512
1028.286, 1893.320
1028.768, 1897.555
1029.250, 1895.014
1029.732, 1885.065
1030.214, 1873.879
1030.697, 1862.697
1031.179, 1845.785
1031.661, 1820.877
1032.143, 1791.107
1032.625, 1757.263
1033.107, 1721.511
1033.589, 1689.913
1034.071, 1662.125
1034.553, 1640.256
1035.036, 1625.450
1035.518, 1613.919
1036.000, 1606.429
1036.482, 1599.364
1036.964, 1589.678
1037.446, 1578.282
1037.928, 1567.856
1038.410, 1557.902
1038.893, 1550.648
1039.375, 1547.422
1039.857, 1544.817
1040.339, 1542.304
1040.821, 1539.882
1041.303, 1536.816
1041.785, 1533.947
1042.267, 1533.854
1042.750, 1537.226
1043.232, 1541.021
1043.714, 1546.910
1044.196, 1550.879
1044.678, 1549.260
1045.160, 1547.938
1045.642, 1551.064
1046.124, 1557.777
1046.606, 1565.934
1047.089, 1575.453
1047.571, 1586.128
1048.053, 1597.951
1048.535, 1610.797
1049.017, 1625.587
1049.499, 1640.588
1049.981, 1652.757
1050.463, 1664.558
1050.945, 1681.526
1051.428, 1704.748
1051.910, 1730.115
1052.392, 1755.980
1052.874, 1784.944
1053.356, 1817.305
1053.838, 1853.750
1054.320, 1896.581
1054.802, 1943.108
1055.285, 1987.839
1055.767, 2029.405
1056.249, 2074.343
1056.731, 2127.228
1057.213, 2179.799
1057.695, 2232.729
1058.177, 2280.362
1058.659, 2321.719
1059.141, 2353.483
1059.624, 2370.453
1060.106, 2371.668
1060.588, 2361.254
1061.070, 2340.796
1061.552, 2308.517
1062.034, 2260.692
1062.516, 2203.778
1062.998, 2138.301
1063.480, 2069.584
1063.963, 2003.847
1064.445, 1942.713
1064.927, 1889.828
1065.409, 1848.473
1065.891, 1812.979
1066.373, 1781.486
1066.855, 1754.786
1067.337, 1734.782
1067.820, 1719.362
1068.302, 1705.980
1068.784, 1693.932
1069.266, 1681.716
1069.748, 1668.435
1070.230, 1655.597
1070.712, 1644.787
1071.194, 1633.668
1071.677, 1619.663
1072.159, 1604.576
1072.641, 1590.977
1073.123, 1579.046
1073.605, 1567.808
1074.087, 1556.765
1074.569, 1546.717
1075.051, 1538.014
1075.533, 1530.462
1076.016, 1524.316
1076.498, 1518.973
1076.980, 1514.106
1077.462, 1509.336
1077.944, 1503.452
1078.426, 1495.302
1078.908, 1488.701
1079.390, 1486.090
1079.873, 1484.828
1080.355, 1483.115
1080.837, 1481.866
1081.319, 1482.494
1081.801, 1484.646
1082.283, 1487.398
1082.765, 1490.990
1083.247, 1491.805
1083.729, 1485.721
1084.212, 1479.358
1084.694, 1476.487
1085.176, 1475.316
1085.658, 1473.483
1086.140, 1471.759
1086.622, 1472.867
1087.104, 1477.582
1087.586, 1481.744
1088.068, 1483.910
1088.551, 1484.709
1089.033, 1482.778
1089.515, 1481.143
1089.997, 1483.434
1090.479, 1487.625
1090.961, 1489.379
1091.443, 1488.056
1091.925, 1487.235
1092.408, 1489.441
1092.890, 1490.789
1093.372, 1490.252
1093.854, 1487.782
1094.336, 1481.815
1094.818, 1474.720
1095.300, 1469.680
1095.782, 1467.026
1096.265, 1465.502
1096.747, 1465.124
1097.229, 1465.077
1097.711, 1465.706
1098.193, 1465.897
1098.675, 1464.343
1099.157, 1462.446
1099.639, 1461.969
1100.121, 1462.721
1100.604, 1463.206
1101.086, 1462.916
1101.568, 1462.935
1102.050, 1463.794
1102.532, 1464.689
1103.014, 1465.995
1103.496, 1466.550
1103.978, 1464.543
1104.460, 1461.083
1104.943, 1459.088
1105.425, 1459.122
1105.907, 1459.648
1106.389, 1459.780
1106.871, 1461.198
1107.353, 1465.431
1107.835, 1470.065
1108.317, 1474.219
1108.800, 1477.293
1109.282, 1478.037
1109.764, 1476.285
1110.246, 1474.710
1110.728, 1474.187
1111.210, 1472.921
1111.692, 1471.537
1112.174, 1468.370
1112.656, 1459.713
1113.139, 1450.732
1113.621, 1448.426
1114.103, 1452.232
1114.585, 1455.178
1115.067, 1456.911
1115.549, 1458.312
1116.031, 1459.354
1116.513, 1460.084
1116.995, 1460.223
1117.478, 1460.380
1117.960, 1461.420
1118.442, 1462.821
1118.924, 1462.781
1119.406, 1460.638
1119.888, 1459.744
1120.370, 1460.899
1120.852, 1461.604
1121.335, 1461.042
1121.817, 1460.415
1122.299, 1460.395
1122.781, 1460.912
1123.263, 1461.843
1123.745, 1463.185
1124.227, 1465.243
1124.709, 1468.746
1125.192, 1470.109
1125.674, 1468.120
1126.156, 1466.202
1126.638, 1465.774
1127.120, 1466.510
1127.602, 1468.139
1128.084, 1470.514
1128.566, 1473.242
1129.048, 1476.585
1129.531, 1477.526
1130.013, 1475.524
1130.495, 1474.265
1130.977, 1474.948
1131.459, 1476.425
1131.941, 1477.795
1132.423, 1479.233
1132.905, 1481.050
1133.387, 1483.265
1133.870, 1486.421
1134.352, 1490.458
1134.834, 1492.908
1135.316, 1493.327
1135.798, 1494.432
1136.280, 1497.716
1136.762, 1502.094
1137.244, 1506.398
1137.727, 1510.509
1138.209, 1513.920
1138.691, 1516.809
1139.173, 1520.195
1139.655, 1523.939
1140.137, 1526.182
1140.619, 1526.483
1141.101, 1527.962
1141.583, 1533.757
1142.066, 1540.166
1142.548, 1540.842
1143.030, 1538.312
1143.512, 1537.287
1143.994, 1537.654
1144.476, 1538.303
1144.958, 1539.078
1145.440, 1540.621
1145.922, 1543.314
1146.405, 1546.089
1146.887, 1549.159
1147.369, 1550.635
1147.851, 1547.656
1148.333, 1542.109
1148.815, 1535.531
1149.297, 1529.276
1149.779, 1526.074
1150.262, 1526.443
1150.744, 1526.940
1151.226, 1525.361
1151.708, 1523.802
1152.190, 1523.327
1152.672, 1523.737
1153.154, 1526.438
1153.636, 1528.963
1154.119, 1527.256
1154.601, 1521.832
1155.083, 1517.076
1155.565, 1514.278
1156.047, 1511.825
1156.529, 1509.074
1157.011, 1506.696
1157.493, 1505.454
1157.975, 1504.262
1158.458, 1501.880
1158.940, 1498.982
1159.422, 1497.430
1159.904, 1497.599
1160.386, 1495.777
1160.868, 1488.524
1161.350, 1484.099
1161.832, 1485.088
1162.314, 1486.866
1162.797, 1489.091
1163.279, 1489.663
1163.761, 1485.493
1164.243, 1477.800
1164.725, 1472.311
1165.207, 1469.176
1165.689, 1468.025
1166.171, 1470.129
1166.654, 1470.186
1167.136, 1466.179
1167.618, 1462.196
1168.100, 1460.945
1168.582, 1461.341
1169.064, 1461.800
1169.546, 1462.175
1170.028, 1460.825
1170.510, 1457.690
1170.993, 1454.863
1171.475, 1452.536
1171.957, 1452.165
1172.439, 1454.370
1172.921, 1456.135
1173.403, 1454.562
1173.885, 1451.441
1174.367, 1450.475
1174.849, 1450.923
1175.332, 1449.792
1175.814, 1447.756
1176.296, 1448.153
1176.778, 1451.111
1177.260, 1453.818
1177.742, 1454.914
1178.224, 1454.859
1178.706, 1453.211
1179.189, 1451.685
1179.671, 1452.939
1180.153, 1455.446
1180.635, 1458.011
1181.117, 1459.550
1181.599, 1457.818
1182.081, 1452.841
1182.563, 1447.228
1183.046, 1441.747
1183.528, 1437.437
1184.010, 1435.393
1184.492, 1434.210
1184.974, 1433.145
1185.456, 1432.273
1185.938, 1432.116
1186.420, 1432.141
1186.902, 1431.086
1187.385, 1428.717
1187.867, 1426.016
1188.349, 1420.687
1188.831, 1418.769
1189.313, 1424.039
1189.795, 1429.747
1190.277, 1433.742
1190.759, 1435.666
1191.241, 1434.226
1191.724, 1430.493
1192.206, 1428.903
1192.688, 1430.439
1193.170, 1429.638
1193.652, 1425.207
1194.134, 1422.631
1194.616, 1423.557
1195.098, 1424.545
1195.581, 1423.541
1196.063, 1424.317
1196.545, 1422.269
1197.027, 1423.642
1197.509, 1423.232
1197.991, 1421.269
1198.473, 1422.218
1198.955, 1425.933
1199.438, 1426.398
1199.920, 1422.145
1200.402, 1416.729
1200.884, 1412.387
1201.366, 1409.574
1201.848, 1410.144
1202.330, 1411.785
1202.812, 1409.409
1203.294, 1405.041
1203.776, 1402.333
1204.259, 1401.693
1204.741, 1403.612
1205.223, 1407.596
1205.705, 1409.391
1206.187, 1405.718
1206.669, 1401.505
1207.151, 1399.931
1207.633, 1399.430
1208.116, 1398.922
1208.598, 1398.691
1209.080, 1399.581
1209.562, 1401.001
1210.044, 1401.288
1210.526, 1400.068
1211.008, 1398.883
1211.490, 1398.027
1211.973, 1397.187
1212.455, 1396.262
1212.937, 1395.343
1213.419, 1394.056
1213.901, 1393.178
1214.383, 1393.584
1214.865, 1394.998
1215.347, 1396.722
1215.829, 1399.121
1216.312, 1398.974
1216.794, 1395.508
1217.276, 1393.802
1217.758, 1395.161
1218.240, 1395.252
1218.722, 1391.641
1219.204, 1388.437
1219.686, 1390.859
1220.168, 1387.861
1220.651, 1386.390
1221.133, 1386.695
1221.615, 1383.304
1222.097, 1383.231
1222.579, 1384.219
1223.061, 1385.705
1223.543, 1387.937
1224.025, 1391.017
1224.508, 1393.607
1224.990, 1394.968
1225.472, 1394.709
1225.954, 1390.396
1226.436, 1385.979
1226.918, 1387.435
1227.400, 1391.325
1227.882, 1391.044
1228.365, 1386.719
1228.847, 1383.765
1229.329, 1384.106
1229.811, 1384.057
1230.293, 1382.127
1230.775, 1380.295
1231.257, 1378.328
1231.739, 1377.625
1232.221, 1380.171
1232.703, 1383.713
1233.186, 1385.461
1233.668, 1385.597
1234.150, 1385.148
1234.632, 1383.647
1235.114, 1383.661
1235.596, 1385.730
1236.078, 1386.755
1236.560, 1385.928
1237.043, 1384.673
1237.525, 1383.793
1238.007, 1382.998
1238.489, 1381.944
1238.971, 1380.622
1239.453, 1378.417
1239.935, 1376.021
1240.417, 1376.208
1240.900, 1378.428
1241.382, 1380.654
1241.864, 1382.164
1242.346, 1381.935
1242.828, 1379.407
1243.310, 1376.811
1243.792, 1375.330
1244.274, 1375.200
1244.756, 1377.412
1245.239, 1380.274
1245.721, 1383.225
1246.203, 1385.063
1246.685, 1383.394
1247.167, 1378.889
1247.649, 1375.770
1248.131, 1374.836
1248.613, 1374.992
1249.095, 1377.983
1249.578, 1379.106
1250.060, 1375.845
1250.542, 1373.356
1251.024, 1374.679
1251.506, 1377.348
1251.988, 1378.518
1252.470, 1378.478
1252.952, 1378.162
1253.435, 1377.548
1253.917, 1377.744
1254.399, 1378.733
1254.881, 1379.486
1255.363, 1379.834
1255.845, 1380.338
1256.327, 1381.246
1256.809, 1381.862
1257.292, 1381.252
1257.774, 1380.647
1258.256, 1381.626
1258.738, 1383.775
1259.220, 1387.094
1259.702, 1390.814
1260.184, 1394.217
1260.666, 1396.818
1261.148, 1397.439
1261.630, 1395.743
1262.113, 1394.670
1262.595, 1396.475
1263.077, 1397.275
1263.559, 1394.960
1264.041, 1392.644
1264.523, 1392.257
1265.005, 1392.111
1265.487, 1390.269
1265.970, 1390.488
1266.452, 1390.333
1266.934, 1389.832
1267.416, 1390.780
1267.898, 1390.359
1268.380, 1390.386
1268.862, 1391.101
1269.344, 1390.968
1269.827, 1389.477
1270.309, 1387.489
1270.791, 1385.523
1271.273, 1384.313
1271.755, 1385.158
1272.237, 1387.273
1272.719, 1389.952
1273.201, 1392.395
1273.683, 1393.086
1274.166, 1392.317
1274.648, 1390.432
1275.130, 1388.042
1275.612, 1387.178
1276.094, 1388.702
1276.576, 1391.302
1277.058, 1396.007
1277.540, 1399.523
1278.022, 1399.749
1278.505, 1399.240
1278.987, 1399.612
1279.469, 1400.219
1279.951, 1400.199
1280.433, 1399.783
1280.915, 1400.007
1281.397, 1401.185
1281.879, 1402.444
1282.362, 1403.871
1282.844, 1404.010
1283.326, 1402.603
1283.808, 1401.415
1284.290, 1401.078
1284.772, 1400.317
1285.254, 1397.394
1285.736, 1392.276
##END=



