##NAMES=Tremolite
##RRUFFID=R050498
##IDEAL CHEMISTRY=[box]Ca_2_Mg_5_Si_8_O_22_(OH)_2_
##LOCALITY=Inyo County, California, USA
##OWNER=RRUFF
##SOURCE=California Institute of Technology
##DESCRIPTION=Group of pale blue parallel acicular crystals
##STATUS=The identification of this mineral has been confirmed by X-ray diffraction and chemical analysis
##URL=rruff.info/R050498
##MEASURED CHEMISTRY=(Ca_1.95_Na_0.05_)_Σ=2_(Mg_4.75_Fe^3+^_0.13_Fe^2+^_0.07_Mn_0.05_)_Σ=5_(Si_7.92_Al_0.08_)_Σ=8_O_22_(OH)_2_; OH estimated by charge balance
90.92609, 0.0000000E+00
91.40820, 58.84944
91.89032, 59.07502
92.37244, 59.03686
92.85455, 58.75658
93.33667, 58.36438
93.81879, 57.76649
94.30090, 57.10283
94.78302, 56.79574
95.26514, 57.00584
95.74725, 57.57109
96.22937, 58.19682
96.71149, 58.88437
97.19360, 59.55334
97.67572, 60.18143
98.15784, 60.75592
98.63995, 61.11009
99.12207, 61.04639
99.60419, 60.65534
100.0863, 60.77097
100.5684, 61.47927
101.0505, 62.52663
101.5327, 63.70840
102.0148, 65.13770
102.4969, 66.27541
102.9790, 66.74361
103.4611, 66.24720
103.9432, 66.69467
104.4253, 68.20784
104.9075, 70.60264
105.3896, 73.46732
105.8717, 76.80530
106.3538, 80.65025
106.8359, 85.16341
107.3180, 90.97189
107.8002, 96.24870
108.2823, 100.0967
108.7644, 103.2307
109.2465, 108.4668
109.7286, 117.1519
110.2107, 126.9098
110.6929, 136.8778
111.1750, 146.4666
111.6571, 156.7708
112.1392, 167.2759
112.6213, 178.2347
113.1034, 191.7336
113.5856, 208.3766
114.0677, 227.7347
114.5498, 249.3219
115.0319, 273.6346
115.5140, 299.7780
115.9961, 327.5999
116.4783, 357.0783
116.9604, 387.3258
117.4425, 419.6833
117.9246, 452.5124
118.4067, 483.7305
118.8888, 513.4564
119.3710, 541.0862
119.8531, 566.1668
120.3352, 588.5172
120.8173, 609.0021
121.2994, 626.6139
121.7815, 642.6073
122.2637, 659.2368
122.7458, 675.8868
123.2279, 694.3287
123.7100, 716.4168
124.1921, 742.6007
124.6742, 771.3672
125.1564, 801.5847
125.6385, 833.2966
126.1206, 866.7880
126.6027, 902.5701
127.0848, 939.9261
127.5669, 977.4967
128.0491, 1015.265
128.5312, 1052.803
129.0133, 1090.081
129.4954, 1126.680
129.9775, 1161.859
130.4596, 1195.048
130.9418, 1226.119
131.4239, 1255.752
131.9060, 1283.886
132.3881, 1310.898
132.8702, 1337.427
133.3523, 1363.673
133.8345, 1388.498
134.3166, 1410.431
134.7987, 1429.672
135.2808, 1448.402
135.7629, 1466.682
136.2450, 1485.155
136.7272, 1506.900
137.2093, 1532.718
137.6914, 1559.704
138.1735, 1584.173
138.6556, 1604.967
139.1377, 1628.593
139.6199, 1657.310
140.1020, 1690.848
140.5841, 1725.362
141.0662, 1760.510
141.5483, 1796.544
142.0304, 1834.059
142.5126, 1873.623
142.9947, 1911.883
143.4768, 1941.373
143.9589, 1957.416
144.4410, 1972.849
144.9231, 1988.141
145.4053, 2002.731
145.8874, 2016.034
146.3695, 2027.745
146.8516, 2038.677
147.3337, 2049.023
147.8158, 2059.583
148.2980, 2068.109
148.7801, 2073.074
149.2622, 2076.386
149.7443, 2081.735
150.2264, 2090.781
150.7085, 2100.440
151.1907, 2109.558
151.6728, 2117.765
152.1549, 2126.332
152.6370, 2134.357
153.1191, 2142.670
153.6012, 2153.198
154.0834, 2166.272
154.5655, 2181.224
155.0476, 2197.800
155.5297, 2213.054
156.0118, 2233.293
156.4939, 2257.925
156.9761, 2287.819
157.4582, 2325.406
157.9403, 2373.729
158.4224, 2428.111
158.9045, 2486.512
159.3866, 2559.856
159.8688, 2623.297
160.3509, 2675.378
160.8330, 2714.021
161.3151, 2728.520
161.7972, 2701.063
162.2793, 2655.698
162.7615, 2610.711
163.2436, 2567.806
163.7257, 2529.442
164.2078, 2496.249
164.6899, 2468.086
165.1720, 2444.362
165.6541, 2424.447
166.1363, 2408.830
166.6184, 2397.997
167.1005, 2392.537
167.5826, 2391.463
168.0647, 2395.166
168.5468, 2403.377
169.0290, 2412.957
169.5111, 2421.642
169.9932, 2430.593
170.4753, 2441.398
170.9574, 2453.340
171.4395, 2468.075
171.9217, 2487.205
172.4038, 2510.724
172.8859, 2537.611
173.3680, 2565.804
173.8501, 2596.816
174.3322, 2633.847
174.8144, 2680.293
175.2965, 2732.883
175.7786, 2787.630
176.2607, 2845.049
176.7428, 2902.019
177.2249, 2962.709
177.7071, 3021.268
178.1892, 3064.823
178.6713, 3092.934
179.1534, 3100.805
179.6355, 3078.131
180.1176, 3023.192
180.5998, 2949.486
181.0819, 2860.042
181.5640, 2760.596
182.0461, 2668.310
182.5282, 2592.410
183.0103, 2529.955
183.4925, 2475.335
183.9746, 2428.670
184.4567, 2389.822
184.9388, 2359.514
185.4209, 2337.119
185.9030, 2320.683
186.3852, 2311.438
186.8673, 2307.630
187.3494, 2302.601
187.8315, 2295.804
188.3136, 2288.944
188.7957, 2284.019
189.2779, 2281.032
189.7600, 2279.256
190.2421, 2278.174
190.7242, 2277.934
191.2063, 2279.857
191.6884, 2284.530
192.1706, 2289.972
192.6527, 2292.910
193.1348, 2293.256
193.6169, 2293.648
194.0990, 2295.442
194.5811, 2298.521
195.0633, 2301.165
195.5454, 2302.568
196.0275, 2304.835
196.5096, 2313.423
196.9917, 2329.108
197.4738, 2342.820
197.9560, 2348.614
198.4381, 2346.485
198.9202, 2346.556
199.4023, 2349.246
199.8844, 2354.456
200.3665, 2362.437
200.8487, 2373.625
201.3308, 2385.402
201.8129, 2395.820
202.2950, 2404.570
202.7771, 2416.331
203.2592, 2431.722
203.7414, 2449.880
204.2235, 2469.188
204.7056, 2489.363
205.1877, 2510.927
205.6698, 2534.738
206.1519, 2561.374
206.6341, 2586.188
207.1162, 2608.315
207.5983, 2628.814
208.0804, 2649.929
208.5625, 2671.627
209.0446, 2693.332
209.5268, 2714.160
210.0089, 2733.308
210.4910, 2755.780
210.9731, 2782.927
211.4552, 2812.780
211.9373, 2839.804
212.4195, 2862.506
212.9016, 2885.989
213.3837, 2912.905
213.8658, 2944.367
214.3479, 2975.472
214.8300, 3005.639
215.3121, 3035.881
215.7943, 3068.366
216.2764, 3101.968
216.7585, 3139.511
217.2406, 3182.664
217.7227, 3231.326
218.2048, 3284.268
218.6870, 3341.640
219.1691, 3402.981
219.6512, 3469.469
220.1333, 3544.427
220.6154, 3618.789
221.0975, 3691.796
221.5797, 3766.886
222.0618, 3829.709
222.5439, 3884.782
223.0260, 3925.493
223.5081, 3938.195
223.9902, 3921.682
224.4724, 3879.114
224.9545, 3808.911
225.4366, 3698.153
225.9187, 3593.578
226.4008, 3490.844
226.8829, 3395.485
227.3651, 3318.817
227.8472, 3263.188
228.3293, 3220.958
228.8114, 3189.971
229.2935, 3172.154
229.7757, 3159.889
230.2578, 3154.658
230.7399, 3154.277
231.2220, 3154.987
231.7041, 3158.666
232.1862, 3160.317
232.6684, 3158.871
233.1505, 3155.799
233.6326, 3144.650
234.1147, 3124.573
234.5968, 3096.846
235.0789, 3063.481
235.5611, 3021.042
236.0432, 2978.710
236.5253, 2938.451
237.0074, 2900.385
237.4895, 2866.239
237.9716, 2836.022
238.4538, 2809.742
238.9359, 2787.506
239.4180, 2769.228
239.9001, 2754.819
240.3822, 2744.594
240.8643, 2739.274
241.3465, 2735.282
241.8286, 2732.887
242.3107, 2731.618
242.7928, 2730.537
243.2749, 2728.079
243.7570, 2728.466
244.2392, 2733.125
244.7213, 2742.600
245.2034, 2753.325
245.6855, 2766.000
246.1676, 2779.440
246.6497, 2792.263
247.1319, 2804.677
247.6140, 2816.160
248.0961, 2826.297
248.5782, 2834.920
249.0603, 2844.972
249.5424, 2859.598
250.0246, 2872.825
250.5067, 2877.693
250.9888, 2870.321
251.4709, 2862.231
251.9530, 2856.001
252.4351, 2851.712
252.9173, 2845.591
253.3994, 2836.139
253.8815, 2826.323
254.3636, 2818.931
254.8457, 2814.404
255.3278, 2811.347
255.8100, 2809.755
256.2921, 2809.570
256.7742, 2809.371
257.2563, 2808.600
257.7384, 2808.547
258.2205, 2810.245
258.7026, 2813.746
259.1848, 2819.145
259.6669, 2827.353
260.1490, 2837.912
260.6311, 2845.696
261.1132, 2849.369
261.5953, 2852.555
262.0775, 2858.472
262.5596, 2869.217
263.0417, 2876.835
263.5238, 2880.735
264.0059, 2880.835
264.4880, 2876.107
264.9702, 2864.473
265.4523, 2851.988
265.9344, 2842.416
266.4165, 2836.124
266.8986, 2831.102
267.3807, 2827.474
267.8629, 2824.856
268.3450, 2821.900
268.8271, 2818.330
269.3092, 2815.100
269.7913, 2812.513
270.2734, 2810.472
270.7556, 2810.077
271.2377, 2811.922
271.7198, 2815.133
272.2019, 2817.522
272.6840, 2818.808
273.1661, 2820.467
273.6483, 2822.811
274.1304, 2825.611
274.6125, 2831.353
275.0946, 2841.159
275.5767, 2852.327
276.0588, 2859.360
276.5410, 2861.165
277.0231, 2864.029
277.5052, 2871.051
277.9873, 2882.280
278.4694, 2891.992
278.9515, 2899.963
279.4337, 2906.667
279.9158, 2912.541
280.3979, 2917.469
280.8800, 2922.387
281.3621, 2928.078
281.8442, 2934.280
282.3264, 2937.426
282.8085, 2936.783
283.2906, 2935.828
283.7727, 2938.858
284.2548, 2945.948
284.7369, 2953.640
285.2191, 2961.630
285.7012, 2969.395
286.1833, 2974.126
286.6654, 2975.312
287.1475, 2976.955
287.6296, 2983.732
288.1118, 2995.100
288.5939, 3005.337
289.0760, 3012.947
289.5581, 3018.669
290.0402, 3024.604
290.5223, 3030.777
291.0045, 3036.355
291.4866, 3040.959
291.9687, 3044.531
292.4508, 3046.519
292.9329, 3046.203
293.4150, 3045.288
293.8972, 3047.091
294.3793, 3051.432
294.8614, 3055.932
295.3435, 3057.649
295.8256, 3058.244
296.3077, 3062.975
296.7899, 3073.355
297.2720, 3085.368
297.7541, 3093.149
298.2362, 3097.484
298.7183, 3102.048
299.2004, 3108.603
299.6826, 3116.751
300.1647, 3126.689
300.6468, 3138.771
301.1289, 3149.897
301.6110, 3156.518
302.0931, 3159.591
302.5753, 3161.899
303.0574, 3164.249
303.5395, 3166.707
304.0216, 3169.816
304.5037, 3173.656
304.9858, 3176.417
305.4680, 3175.517
305.9501, 3172.690
306.4322, 3170.900
306.9143, 3171.730
307.3964, 3173.754
307.8785, 3176.039
308.3607, 3178.547
308.8428, 3180.781
309.3249, 3181.834
309.8070, 3182.641
310.2891, 3184.171
310.7712, 3185.990
311.2534, 3189.480
311.7355, 3197.376
312.2176, 3208.299
312.6997, 3216.958
313.1818, 3217.483
313.6639, 3216.134
314.1461, 3218.065
314.6282, 3225.242
315.1103, 3233.730
315.5924, 3242.950
316.0745, 3252.027
316.5566, 3259.278
317.0388, 3260.464
317.5209, 3262.188
318.0030, 3269.189
318.4851, 3283.715
318.9672, 3296.606
319.4493, 3304.938
319.9315, 3309.789
320.4136, 3312.662
320.8957, 3311.668
321.3778, 3310.807
321.8599, 3311.679
322.3420, 3314.512
322.8242, 3317.298
323.3063, 3318.060
323.7884, 3319.327
324.2705, 3323.304
324.7526, 3333.872
325.2347, 3343.490
325.7169, 3349.546
326.1990, 3352.477
326.6811, 3357.340
327.1632, 3366.484
327.6453, 3376.282
328.1274, 3384.723
328.6096, 3390.816
329.0917, 3396.758
329.5738, 3402.167
330.0559, 3407.376
330.5380, 3413.617
331.0201, 3422.224
331.5023, 3430.438
331.9844, 3437.162
332.4665, 3441.892
332.9486, 3446.163
333.4307, 3449.596
333.9128, 3452.733
334.3950, 3456.376
334.8771, 3460.522
335.3592, 3465.206
335.8413, 3470.276
336.3234, 3475.664
336.8055, 3482.280
337.2877, 3490.333
337.7698, 3499.195
338.2519, 3508.266
338.7340, 3517.344
339.2161, 3527.142
339.6982, 3537.871
340.1803, 3549.466
340.6624, 3560.681
341.1446, 3571.424
341.6267, 3582.575
342.1088, 3595.433
342.5909, 3609.961
343.0730, 3624.116
343.5551, 3637.564
344.0373, 3650.375
344.5194, 3662.272
345.0015, 3673.331
345.4836, 3683.842
345.9657, 3693.760
346.4478, 3703.211
346.9300, 3712.957
347.4121, 3723.230
347.8942, 3733.481
348.3763, 3742.992
348.8584, 3751.901
349.3405, 3761.120
349.8227, 3772.386
350.3048, 3784.052
350.7869, 3792.418
351.2690, 3797.467
351.7511, 3800.894
352.2332, 3804.696
352.7154, 3807.982
353.1975, 3808.465
353.6796, 3802.810
354.1617, 3796.688
354.6438, 3796.898
355.1259, 3802.590
355.6081, 3809.406
356.0902, 3815.844
356.5723, 3821.266
357.0544, 3824.584
357.5365, 3824.465
358.0186, 3824.568
358.5008, 3827.817
358.9829, 3833.102
359.4650, 3838.091
359.9471, 3840.633
360.4292, 3843.334
360.9113, 3847.939
361.3935, 3854.749
361.8756, 3862.497
362.3577, 3871.685
362.8398, 3881.281
363.3219, 3890.109
363.8040, 3895.972
364.2862, 3902.984
364.7683, 3913.457
365.2504, 3927.247
365.7325, 3939.568
366.2146, 3948.125
366.6967, 3955.933
367.1789, 3964.865
367.6610, 3977.326
368.1431, 3988.322
368.6252, 3998.196
369.1073, 4006.503
369.5894, 4011.725
370.0716, 4009.638
370.5537, 4008.848
371.0358, 4013.046
371.5179, 4025.074
372.0000, 4033.320
372.4821, 4036.428
372.9643, 4036.568
373.4464, 4036.579
373.9285, 4036.820
374.4106, 4035.995
374.8927, 4033.389
375.3748, 4029.044
375.8570, 4025.503
376.3391, 4022.635
376.8212, 4020.653
377.3033, 4020.496
377.7854, 4022.753
378.2675, 4021.961
378.7497, 4016.303
379.2318, 4008.204
379.7139, 4003.975
380.1960, 4003.953
380.6781, 4004.590
381.1602, 4003.519
381.6424, 4001.217
382.1245, 4000.407
382.6066, 4001.205
383.0887, 4003.728
383.5708, 4008.773
384.0529, 4015.928
384.5351, 4023.338
385.0172, 4029.731
385.4993, 4036.066
385.9814, 4044.017
386.4635, 4053.512
386.9456, 4064.731
387.4278, 4078.356
387.9099, 4093.491
388.3920, 4108.717
388.8741, 4122.857
389.3562, 4138.182
389.8383, 4158.084
390.3205, 4181.189
390.8026, 4203.131
391.2847, 4220.982
391.7668, 4237.114
392.2489, 4254.243
392.7310, 4273.326
393.2132, 4289.323
393.6953, 4300.450
394.1774, 4306.761
394.6595, 4308.322
395.1416, 4305.632
395.6237, 4297.681
396.1059, 4282.115
396.5880, 4259.471
397.0701, 4237.588
397.5522, 4217.326
398.0343, 4199.077
398.5164, 4183.153
398.9986, 4170.458
399.4807, 4159.034
399.9628, 4148.963
400.4449, 4140.120
400.9270, 4132.032
401.4091, 4123.079
401.8913, 4117.132
402.3734, 4115.838
402.8555, 4119.919
403.3376, 4124.632
403.8197, 4130.076
404.3018, 4135.988
404.7840, 4142.050
405.2661, 4148.167
405.7482, 4154.782
406.2303, 4162.470
406.7124, 4170.569
407.1945, 4175.818
407.6767, 4177.338
408.1588, 4180.059
408.6409, 4187.991
409.1230, 4200.736
409.6051, 4213.289
410.0872, 4225.532
410.5694, 4236.940
411.0515, 4246.171
411.5336, 4253.562
412.0157, 4260.860
412.4978, 4269.407
412.9799, 4278.298
413.4621, 4285.722
413.9442, 4291.801
414.4263, 4297.134
414.9084, 4301.351
415.3905, 4305.448
415.8727, 4311.576
416.3548, 4322.327
416.8369, 4331.938
417.3190, 4333.907
417.8011, 4330.679
418.2832, 4328.769
418.7654, 4332.815
419.2475, 4338.278
419.7296, 4341.932
420.2117, 4343.169
420.6938, 4344.182
421.1759, 4345.580
421.6581, 4347.229
422.1402, 4349.013
422.6223, 4350.508
423.1044, 4352.471
423.5865, 4355.438
424.0686, 4359.195
424.5508, 4362.306
425.0329, 4363.629
425.5150, 4365.098
425.9971, 4367.560
426.4792, 4371.166
426.9613, 4375.547
427.4435, 4380.642
427.9256, 4386.604
428.4077, 4393.767
428.8898, 4402.822
429.3719, 4411.854
429.8540, 4420.596
430.3362, 4428.979
430.8183, 4436.368
431.3004, 4442.485
431.7825, 4448.287
432.2646, 4453.773
432.7467, 4458.891
433.2289, 4467.584
433.7110, 4481.346
434.1931, 4496.868
434.6752, 4508.561
435.1573, 4516.491
435.6394, 4521.646
436.1216, 4523.025
436.6036, 4522.229
437.0858, 4522.790
437.5679, 4524.787
438.0500, 4527.300
438.5321, 4531.251
439.0142, 4534.872
439.4963, 4534.766
439.9785, 4527.354
440.4606, 4519.553
440.9427, 4516.827
441.4248, 4518.326
441.9069, 4521.541
442.3890, 4527.363
442.8712, 4533.106
443.3533, 4536.898
443.8354, 4538.245
444.3175, 4539.265
444.7996, 4539.023
445.2817, 4539.451
445.7639, 4542.548
446.2460, 4550.609
446.7281, 4559.161
447.2102, 4567.608
447.6923, 4575.862
448.1744, 4583.389
448.6566, 4589.673
449.1387, 4595.615
449.6208, 4601.398
450.1029, 4606.563
450.5850, 4613.239
451.0671, 4622.771
451.5493, 4632.332
452.0314, 4637.372
452.5135, 4636.805
452.9956, 4636.476
453.4777, 4638.251
453.9598, 4641.437
454.4420, 4642.273
454.9241, 4640.400
455.4062, 4639.631
455.8883, 4643.450
456.3704, 4650.984
456.8525, 4658.724
457.3347, 4666.554
457.8168, 4673.091
458.2989, 4674.915
458.7810, 4673.683
459.2631, 4674.190
459.7452, 4680.103
460.2274, 4687.947
460.7095, 4693.876
461.1916, 4698.170
461.6737, 4702.283
462.1558, 4707.398
462.6379, 4712.635
463.1201, 4717.022
463.6022, 4719.819
464.0843, 4723.107
464.5664, 4727.881
465.0485, 4733.604
465.5306, 4739.446
466.0128, 4746.310
466.4949, 4752.111
466.9770, 4755.317
467.4591, 4755.780
467.9412, 4758.385
468.4233, 4764.298
468.9055, 4771.523
469.3876, 4779.232
469.8697, 4788.515
470.3518, 4795.874
470.8339, 4800.383
471.3160, 4803.745
471.7982, 4809.552
472.2803, 4818.704
472.7624, 4826.712
473.2445, 4831.087
473.7266, 4832.859
474.2087, 4838.587
474.6909, 4848.542
475.1730, 4859.471
475.6551, 4868.588
476.1372, 4876.185
476.6193, 4883.672
477.1014, 4891.182
477.5836, 4898.407
478.0657, 4904.942
478.5478, 4910.851
479.0299, 4916.263
479.5120, 4919.868
479.9941, 4924.002
480.4763, 4931.384
480.9584, 4941.784
481.4405, 4952.263
481.9226, 4962.281
482.4047, 4971.148
482.8868, 4978.208
483.3690, 4982.630
483.8511, 4986.624
484.3332, 4990.151
484.8153, 4993.780
485.2974, 4998.497
485.7795, 5005.179
486.2617, 5012.144
486.7438, 5018.946
487.2259, 5025.633
487.7080, 5033.060
488.1901, 5042.533
488.6722, 5051.173
489.1544, 5056.877
489.6365, 5058.358
490.1186, 5061.906
490.6007, 5068.258
491.0828, 5075.955
491.5649, 5082.555
492.0471, 5087.888
492.5292, 5094.561
493.0113, 5104.179
493.4934, 5115.169
493.9755, 5123.096
494.4576, 5127.968
494.9398, 5132.552
495.4219, 5138.821
495.9040, 5146.123
496.3861, 5152.990
496.8682, 5159.233
497.3503, 5165.548
497.8325, 5172.516
498.3146, 5180.017
498.7967, 5188.024
499.2788, 5197.130
499.7609, 5206.225
500.2430, 5216.084
500.7252, 5225.983
501.2073, 5232.691
501.6894, 5229.772
502.1715, 5227.961
502.6536, 5233.062
503.1357, 5248.733
503.6179, 5262.368
504.1000, 5272.423
504.5821, 5281.091
505.0642, 5290.444
505.5463, 5300.484
506.0284, 5311.007
506.5106, 5322.065
506.9927, 5333.350
507.4748, 5343.541
507.9569, 5352.079
508.4390, 5361.795
508.9211, 5374.658
509.4033, 5390.191
509.8854, 5404.628
510.3675, 5417.855
510.8496, 5430.753
511.3317, 5443.854
511.8138, 5457.382
512.2960, 5472.119
512.7781, 5489.771
513.2602, 5506.110
513.7423, 5515.567
514.2244, 5520.266
514.7065, 5525.331
515.1887, 5533.934
515.6708, 5543.250
516.1529, 5551.776
516.6350, 5559.461
517.1171, 5565.833
517.5992, 5567.358
518.0814, 5569.711
518.5635, 5576.896
519.0456, 5594.240
519.5277, 5608.454
520.0098, 5616.532
520.4919, 5622.086
520.9741, 5630.562
521.4562, 5643.565
521.9383, 5656.064
522.4204, 5667.138
522.9025, 5676.750
523.3846, 5683.667
523.8668, 5686.503
524.3489, 5692.094
524.8310, 5706.313
525.3131, 5728.080
525.7952, 5747.864
526.2773, 5765.413
526.7595, 5780.643
527.2416, 5793.322
527.7237, 5803.472
528.2058, 5811.383
528.6879, 5817.454
529.1700, 5820.831
529.6522, 5818.426
530.1343, 5812.357
530.6164, 5808.590
531.0985, 5815.137
531.5806, 5821.080
532.0627, 5818.144
532.5449, 5805.203
533.0270, 5794.617
533.5091, 5790.581
533.9912, 5789.630
534.4733, 5789.399
534.9554, 5790.406
535.4376, 5790.913
535.9197, 5790.123
536.4018, 5789.095
536.8839, 5789.693
537.3660, 5792.037
537.8481, 5795.688
538.3303, 5801.569
538.8124, 5808.627
539.2945, 5810.411
539.7766, 5806.253
540.2587, 5802.560
540.7408, 5803.632
541.2230, 5808.815
541.7051, 5816.454
542.1872, 5826.845
542.6693, 5836.756
543.1514, 5842.447
543.6335, 5845.572
544.1157, 5849.259
544.5978, 5854.433
545.0799, 5860.572
545.5620, 5867.138
546.0441, 5874.355
546.5262, 5882.753
547.0084, 5893.286
547.4905, 5904.278
547.9726, 5915.611
548.4547, 5927.288
548.9368, 5937.417
549.4189, 5943.744
549.9011, 5950.065
550.3832, 5958.984
550.8653, 5973.615
551.3474, 5982.817
551.8295, 5983.996
552.3116, 5982.361
552.7938, 5985.907
553.2759, 5995.159
553.7580, 6004.272
554.2401, 6011.508
554.7222, 6017.800
555.2043, 6026.255
555.6865, 6036.533
556.1686, 6045.376
556.6507, 6049.430
557.1328, 6051.390
557.6149, 6055.077
558.0970, 6060.764
558.5792, 6068.251
559.0613, 6079.172
559.5434, 6091.003
560.0255, 6101.231
560.5076, 6109.106
560.9897, 6115.514
561.4719, 6118.947
561.9540, 6121.458
562.4361, 6126.386
562.9182, 6135.359
563.4003, 6145.460
563.8824, 6156.695
564.3646, 6168.693
564.8467, 6180.052
565.3288, 6191.377
565.8109, 6200.548
566.2930, 6204.842
566.7751, 6203.800
567.2573, 6209.465
567.7394, 6222.758
568.2215, 6238.445
568.7036, 6252.277
569.1857, 6264.155
569.6678, 6273.956
570.1500, 6281.003
570.6321, 6287.399
571.1142, 6296.873
571.5963, 6307.504
572.0784, 6314.894
572.5605, 6312.461
573.0427, 6310.437
573.5248, 6316.575
574.0069, 6329.598
574.4890, 6340.569
574.9711, 6343.725
575.4532, 6346.505
575.9354, 6352.789
576.4175, 6364.003
576.8996, 6374.567
577.3817, 6385.419
577.8638, 6394.586
578.3459, 6399.239
578.8281, 6397.003
579.3102, 6399.739
579.7923, 6409.411
580.2744, 6423.428
580.7565, 6438.385
581.2386, 6454.009
581.7208, 6465.870
582.2029, 6470.073
582.6850, 6471.083
583.1671, 6477.794
583.6492, 6489.327
584.1313, 6500.398
584.6134, 6506.124
585.0955, 6510.971
585.5776, 6519.601
586.0598, 6532.902
586.5419, 6546.421
587.0240, 6560.951
587.5061, 6573.568
587.9882, 6581.714
588.4703, 6578.093
588.9525, 6579.670
589.4346, 6589.530
589.9167, 6603.751
590.3988, 6616.215
590.8809, 6626.341
591.3630, 6635.529
591.8452, 6643.689
592.3273, 6651.116
592.8094, 6658.790
593.2915, 6666.580
593.7736, 6675.692
594.2557, 6688.399
594.7379, 6702.748
595.2200, 6713.392
595.7021, 6720.173
596.1842, 6726.442
596.6663, 6734.910
597.1484, 6744.420
597.6306, 6753.759
598.1127, 6762.725
598.5948, 6771.046
599.0769, 6778.198
599.5590, 6784.851
600.0411, 6791.842
600.5233, 6799.239
601.0054, 6807.151
601.4875, 6816.158
601.9696, 6825.735
602.4517, 6834.237
602.9338, 6841.158
603.4160, 6848.268
603.8981, 6856.172
604.3802, 6864.878
604.8623, 6874.223
605.3444, 6884.361
605.8265, 6894.411
606.3087, 6903.545
606.7908, 6912.003
607.2729, 6920.400
607.7550, 6928.680
608.2371, 6937.716
608.7192, 6947.720
609.2014, 6959.197
609.6835, 6973.753
610.1656, 6995.712
610.6477, 7013.681
611.1298, 7018.160
611.6119, 7016.085
612.0941, 7019.999
612.5762, 7040.255
613.0583, 7057.686
613.5404, 7067.344
614.0225, 7070.630
614.5046, 7076.109
614.9868, 7084.608
615.4689, 7093.275
615.9510, 7100.298
616.4331, 7105.853
616.9152, 7115.047
617.3973, 7128.206
617.8795, 7141.750
618.3616, 7151.919
618.8437, 7159.910
619.3258, 7168.564
619.8079, 7178.564
620.2900, 7188.443
620.7722, 7197.086
621.2543, 7204.898
621.7364, 7212.274
622.2185, 7218.413
622.7006, 7225.426
623.1827, 7234.049
623.6649, 7244.099
624.1470, 7255.219
624.6291, 7269.322
625.1112, 7282.039
625.5933, 7291.930
626.0754, 7299.361
626.5576, 7306.606
627.0397, 7313.078
627.5218, 7320.987
628.0039, 7332.644
628.4860, 7347.339
628.9681, 7358.622
629.4503, 7366.297
629.9324, 7373.583
630.4145, 7383.311
630.8966, 7394.803
631.3787, 7407.315
631.8608, 7421.107
632.3430, 7434.107
632.8251, 7444.248
633.3072, 7453.089
633.7893, 7462.673
634.2714, 7474.686
634.7535, 7486.264
635.2357, 7495.546
635.7178, 7504.207
636.1999, 7516.171
636.6820, 7532.910
637.1641, 7549.955
637.6462, 7566.421
638.1284, 7582.095
638.6105, 7594.482
639.0926, 7603.053
639.5747, 7612.886
640.0568, 7627.894
640.5389, 7646.314
641.0211, 7662.186
641.5032, 7675.433
641.9853, 7689.662
642.4674, 7710.189
642.9495, 7731.831
643.4316, 7747.719
643.9138, 7754.717
644.3959, 7764.209
644.8780, 7783.573
645.3601, 7806.534
645.8422, 7826.517
646.3243, 7840.885
646.8065, 7854.817
647.2886, 7867.399
647.7707, 7880.366
648.2528, 7898.036
648.7349, 7922.148
649.2170, 7942.942
649.6992, 7956.335
650.1813, 7966.602
650.6634, 7987.000
651.1455, 8016.437
651.6276, 8044.681
652.1097, 8063.163
652.5919, 8079.079
653.0740, 8101.747
653.5561, 8130.894
654.0382, 8164.261
654.5203, 8206.566
655.0024, 8247.657
655.4846, 8278.986
655.9667, 8295.955
656.4488, 8320.241
656.9309, 8357.165
657.4130, 8400.053
657.8951, 8445.162
658.3773, 8491.933
658.8594, 8541.918
659.3415, 8595.558
659.8236, 8651.631
660.3057, 8708.479
660.7878, 8765.823
661.2700, 8826.428
661.7521, 8892.225
662.2342, 8958.427
662.7163, 9017.293
663.1984, 9071.999
663.6805, 9131.291
664.1627, 9197.434
664.6448, 9270.220
665.1269, 9349.962
665.6090, 9436.716
666.0911, 9528.516
666.5732, 9626.870
667.0554, 9729.354
667.5375, 9835.644
668.0196, 9946.108
668.5017, 10057.86
668.9838, 10172.29
669.4659, 10286.04
669.9481, 10399.67
670.4302, 10511.63
670.9123, 10614.19
671.3944, 10707.47
671.8765, 10788.53
672.3586, 10858.63
672.8408, 10912.49
673.3229, 10942.93
673.8050, 10949.74
674.2871, 10927.93
674.7692, 10872.48
675.2513, 10787.82
675.7335, 10677.80
676.2156, 10526.82
676.6977, 10375.49
677.1798, 10226.31
677.6619, 10081.14
678.1440, 9939.334
678.6262, 9796.905
679.1083, 9667.344
679.5904, 9550.509
680.0725, 9449.354
680.5546, 9368.436
681.0367, 9306.832
681.5189, 9253.432
682.0010, 9202.647
682.4831, 9156.438
682.9652, 9116.947
683.4473, 9084.356
683.9294, 9056.343
684.4116, 9033.399
684.8937, 9013.748
685.3758, 8996.165
685.8579, 8980.732
686.3400, 8967.700
686.8221, 8957.996
687.3043, 8950.268
687.7864, 8943.476
688.2685, 8936.826
688.7506, 8937.441
689.2327, 8948.479
689.7148, 8958.579
690.1970, 8954.996
690.6791, 8940.057
691.1612, 8928.709
691.6433, 8922.934
692.1254, 8919.828
692.6075, 8917.735
693.0897, 8916.009
693.5718, 8913.487
694.0539, 8909.035
694.5360, 8905.362
695.0181, 8904.916
695.5002, 8905.731
695.9824, 8904.639
696.4645, 8896.110
696.9466, 8892.915
697.4287, 8898.796
697.9108, 8909.987
698.3929, 8916.751
698.8751, 8918.378
699.3572, 8920.166
699.8393, 8923.425
700.3214, 8928.340
700.8035, 8936.436
701.2856, 8947.071
701.7678, 8956.656
702.2499, 8961.661
702.7320, 8965.628
703.2141, 8971.494
703.6962, 8979.226
704.1783, 8988.047
704.6605, 8997.669
705.1426, 9008.109
705.6247, 9019.944
706.1068, 9033.481
706.5889, 9044.239
707.0710, 9050.428
707.5532, 9056.604
708.0353, 9066.463
708.5174, 9080.032
708.9995, 9091.178
709.4816, 9099.857
709.9637, 9106.379
710.4459, 9109.115
710.9280, 9110.632
711.4101, 9116.134
711.8922, 9127.382
712.3743, 9138.928
712.8564, 9147.202
713.3386, 9154.175
713.8207, 9162.017
714.3028, 9171.308
714.7849, 9181.274
715.2670, 9192.304
715.7491, 9203.552
716.2313, 9213.578
716.7134, 9221.116
717.1955, 9231.959
717.6776, 9248.064
718.1597, 9265.835
718.6418, 9277.919
719.1240, 9285.377
719.6061, 9294.221
720.0882, 9307.729
720.5703, 9321.960
721.0524, 9333.192
721.5345, 9341.909
722.0167, 9349.315
722.4988, 9354.092
722.9809, 9359.717
723.4630, 9368.910
723.9451, 9380.627
724.4272, 9388.769
724.9094, 9390.487
725.3915, 9394.694
725.8736, 9405.538
726.3557, 9421.628
726.8378, 9434.730
727.3199, 9444.964
727.8021, 9456.135
728.2842, 9471.683
728.7663, 9489.248
729.2484, 9505.372
729.7305, 9519.652
730.2126, 9531.551
730.6948, 9536.011
731.1769, 9541.239
731.6590, 9553.487
732.1411, 9574.534
732.6232, 9593.397
733.1053, 9607.473
733.5875, 9621.157
734.0696, 9637.389
734.5517, 9656.965
735.0338, 9673.659
735.5159, 9687.590
735.9980, 9699.351
736.4802, 9708.853
736.9623, 9716.958
737.4444, 9725.182
737.9265, 9733.660
738.4086, 9744.170
738.8907, 9759.121
739.3729, 9776.471
739.8550, 9794.240
740.3371, 9814.465
740.8192, 9830.313
741.3013, 9835.748
741.7834, 9838.946
742.2656, 9848.100
742.7477, 9865.426
743.2298, 9880.487
743.7119, 9891.766
744.1940, 9900.793
744.6761, 9908.205
745.1583, 9914.877
745.6404, 9925.910
746.1225, 9945.007
746.6046, 9963.374
747.0867, 9969.287
747.5688, 9969.291
748.0510, 9974.394
748.5331, 9995.467
749.0152, 10014.20
749.4973, 10025.19
749.9794, 10030.84
750.4615, 10034.72
750.9437, 10033.17
751.4258, 10039.94
751.9079, 10061.60
752.3900, 10090.04
752.8721, 10104.37
753.3542, 10105.71
753.8364, 10106.84
754.3185, 10111.47
754.8006, 10120.12
755.2827, 10136.42
755.7648, 10157.53
756.2469, 10174.88
756.7291, 10179.25
757.2112, 10184.75
757.6933, 10198.49
758.1754, 10218.81
758.6575, 10236.01
759.1396, 10249.00
759.6218, 10260.53
760.1039, 10271.04
760.5860, 10280.89
761.0681, 10292.77
761.5502, 10306.66
762.0323, 10321.29
762.5145, 10336.54
762.9966, 10352.10
763.4787, 10368.99
763.9608, 10386.55
764.4429, 10400.52
764.9250, 10403.36
765.4072, 10407.08
765.8893, 10418.50
766.3714, 10438.37
766.8535, 10458.08
767.3356, 10478.06
767.8177, 10497.01
768.2999, 10514.41
768.7820, 10529.99
769.2641, 10540.77
769.7462, 10546.36
770.2283, 10553.15
770.7104, 10565.09
771.1926, 10581.30
771.6747, 10603.00
772.1568, 10629.66
772.6389, 10652.48
773.1210, 10667.03
773.6031, 10676.64
774.0853, 10682.60
774.5674, 10684.54
775.0495, 10686.23
775.5316, 10685.68
776.0137, 10688.86
776.4958, 10702.05
776.9780, 10724.66
777.4601, 10740.81
777.9422, 10750.14
778.4243, 10757.91
778.9064, 10767.72
779.3885, 10779.18
779.8707, 10791.82
780.3528, 10805.53
780.8349, 10820.80
781.3170, 10841.28
781.7991, 10860.69
782.2812, 10873.43
782.7633, 10876.43
783.2454, 10883.84
783.7275, 10896.79
784.2097, 10911.54
784.6918, 10924.52
785.1739, 10936.06
785.6560, 10951.71
786.1381, 10972.41
786.6202, 10991.51
787.1024, 11000.77
787.5845, 11006.06
788.0666, 11014.31
788.5487, 11026.88
789.0308, 11041.78
789.5129, 11059.13
789.9951, 11078.17
790.4772, 11098.34
790.9593, 11120.75
791.4414, 11141.15
791.9235, 11159.39
792.4056, 11176.22
792.8878, 11191.97
793.3699, 11206.84
793.8520, 11223.16
794.3341, 11241.54
794.8162, 11258.86
795.2983, 11271.47
795.7805, 11282.45
796.2626, 11295.76
796.7447, 11313.17
797.2268, 11329.56
797.7089, 11344.46
798.1910, 11357.69
798.6732, 11368.97
799.1553, 11378.33
799.6374, 11385.60
800.1195, 11389.18
800.6016, 11396.17
801.0837, 11418.32
801.5659, 11450.20
802.0480, 11475.13
802.5301, 11490.28
803.0122, 11500.86
803.4943, 11505.67
803.9764, 11510.65
804.4586, 11521.92
804.9407, 11542.56
805.4228, 11564.59
805.9049, 11589.77
806.3870, 11613.22
806.8691, 11629.94
807.3513, 11638.43
807.8334, 11653.44
808.3155, 11676.78
808.7976, 11700.70
809.2797, 11716.46
809.7618, 11727.05
810.2440, 11737.80
810.7261, 11749.57
811.2082, 11761.96
811.6903, 11774.23
812.1724, 11787.43
812.6545, 11802.55
813.1367, 11820.95
813.6188, 11838.68
814.1009, 11856.74
814.5830, 11872.39
815.0651, 11881.66
815.5472, 11885.24
816.0294, 11893.02
816.5115, 11906.03
816.9936, 11919.80
817.4757, 11928.28
817.9578, 11936.01
818.4399, 11949.37
818.9221, 11970.41
819.4042, 11990.87
819.8863, 12006.73
820.3684, 12022.10
820.8505, 12040.33
821.3326, 12062.96
821.8148, 12081.33
822.2969, 12093.72
822.7790, 12106.60
823.2611, 12127.10
823.7432, 12152.18
824.2253, 12171.57
824.7075, 12184.10
825.1896, 12196.21
825.6717, 12212.13
826.1538, 12229.64
826.6359, 12247.68
827.1180, 12266.59
827.6002, 12281.85
828.0823, 12290.11
828.5644, 12298.51
829.0465, 12311.73
829.5286, 12329.96
830.0107, 12346.86
830.4929, 12362.65
830.9750, 12376.40
831.4571, 12386.41
831.9392, 12394.51
832.4213, 12402.61
832.9034, 12410.93
833.3856, 12421.13
833.8677, 12433.81
834.3498, 12448.60
834.8319, 12467.24
835.3140, 12489.94
835.7961, 12504.86
836.2783, 12508.10
836.7604, 12513.87
837.2425, 12531.91
837.7246, 12558.74
838.2067, 12579.17
838.6888, 12594.05
839.1710, 12611.39
839.6531, 12640.45
840.1352, 12670.93
840.6173, 12692.17
841.0994, 12705.06
841.5815, 12722.75
842.0637, 12756.23
842.5458, 12784.57
843.0279, 12800.25
843.5100, 12805.19
843.9921, 12810.37
844.4742, 12815.73
844.9564, 12823.53
845.4385, 12837.42
845.9206, 12853.00
846.4027, 12862.60
846.8848, 12868.17
847.3669, 12875.87
847.8491, 12889.81
848.3312, 12905.54
848.8133, 12921.87
849.2954, 12939.01
849.7775, 12956.95
850.2596, 12975.62
850.7418, 12995.49
851.2239, 13016.05
851.7060, 13038.29
852.1881, 13065.37
852.6702, 13096.03
853.1523, 13125.04
853.6345, 13150.03
854.1166, 13172.51
854.5987, 13192.48
855.0808, 13210.35
855.5629, 13227.64
856.0450, 13244.52
856.5272, 13260.60
857.0093, 13276.67
857.4914, 13291.16
857.9735, 13300.46
858.4556, 13305.06
858.9377, 13310.77
859.4199, 13319.15
859.9020, 13329.31
860.3841, 13341.50
860.8662, 13354.75
861.3483, 13367.17
861.8304, 13374.34
862.3126, 13388.28
862.7947, 13417.98
863.2768, 13451.58
863.7589, 13478.13
864.2410, 13495.99
864.7231, 13514.53
865.2053, 13533.83
865.6874, 13554.69
866.1695, 13582.09
866.6516, 13610.62
867.1337, 13628.28
867.6158, 13631.92
868.0980, 13635.07
868.5801, 13641.03
869.0622, 13652.19
869.5443, 13673.07
870.0264, 13708.00
870.5085, 13732.67
870.9907, 13745.54
871.4728, 13752.73
871.9549, 13754.19
872.4370, 13753.40
872.9191, 13766.17
873.4012, 13792.26
873.8834, 13819.02
874.3655, 13838.45
874.8476, 13854.53
875.3297, 13869.14
875.8118, 13882.38
876.2939, 13897.99
876.7761, 13916.00
877.2582, 13936.12
877.7403, 13959.67
878.2224, 13984.92
878.7045, 14001.92
879.1866, 14011.31
879.6688, 14021.35
880.1509, 14034.61
880.6330, 14052.12
881.1151, 14079.08
881.5972, 14111.55
882.0793, 14137.70
882.5615, 14145.08
883.0436, 14157.69
883.5257, 14184.70
884.0078, 14217.70
884.4899, 14235.92
884.9720, 14238.51
885.4542, 14244.40
885.9363, 14258.61
886.4184, 14277.99
886.9005, 14300.78
887.3826, 14325.15
887.8647, 14347.42
888.3469, 14363.37
888.8290, 14382.44
889.3111, 14411.56
889.7932, 14442.33
890.2753, 14465.82
890.7574, 14479.70
891.2396, 14496.86
891.7217, 14518.69
892.2038, 14540.81
892.6859, 14557.20
893.1680, 14570.66
893.6501, 14587.25
894.1323, 14608.17
894.6144, 14629.70
895.0965, 14652.82
895.5786, 14674.03
896.0607, 14690.35
896.5428, 14701.25
897.0250, 14714.24
897.5071, 14729.31
897.9892, 14747.07
898.4713, 14769.12
898.9534, 14794.10
899.4355, 14819.09
899.9177, 14843.76
900.3998, 14867.73
900.8819, 14889.92
901.3640, 14911.12
901.8461, 14930.53
902.3282, 14948.37
902.8104, 14968.07
903.2925, 14990.77
903.7746, 15011.11
904.2567, 15026.18
904.7388, 15039.01
905.2209, 15059.82
905.7031, 15085.54
906.1852, 15102.94
906.6673, 15100.58
907.1494, 15099.00
907.6315, 15113.94
908.1136, 15138.33
908.5958, 15161.13
909.0779, 15181.82
909.5600, 15200.08
910.0421, 15215.16
910.5242, 15229.60
911.0063, 15245.99
911.4885, 15264.50
911.9706, 15286.52
912.4527, 15312.13
912.9348, 15339.75
913.4169, 15368.96
913.8990, 15398.71
914.3812, 15427.28
914.8633, 15453.05
915.3454, 15484.00
915.8275, 15523.61
916.3096, 15562.00
916.7917, 15591.98
917.2739, 15615.17
917.7560, 15644.44
918.2381, 15679.15
918.7202, 15713.46
919.2023, 15743.64
919.6844, 15771.69
920.1666, 15800.55
920.6487, 15829.35
921.1308, 15852.94
921.6129, 15866.57
922.0950, 15882.34
922.5771, 15903.21
923.0593, 15927.98
923.5414, 15955.81
924.0235, 15985.62
924.5056, 16009.24
924.9877, 16020.13
925.4698, 16032.17
925.9520, 16060.51
926.4341, 16096.60
926.9162, 16128.16
927.3983, 16143.57
927.8804, 16168.81
928.3625, 16208.80
928.8447, 16251.20
929.3268, 16283.73
929.8089, 16306.74
930.2910, 16325.09
930.7731, 16339.07
931.2552, 16350.24
931.7374, 16359.72
932.2195, 16367.23
932.7016, 16370.32
933.1837, 16367.82
933.6658, 16375.34
934.1479, 16402.73
934.6301, 16424.64
935.1122, 16427.24
935.5943, 16416.47
936.0764, 16418.92
936.5585, 16432.99
937.0406, 16445.86
937.5228, 16444.22
938.0049, 16445.19
938.4870, 16465.71
938.9691, 16498.38
939.4512, 16525.10
939.9333, 16539.09
940.4155, 16555.20
940.8976, 16575.03
941.3797, 16597.55
941.8618, 16622.12
942.3439, 16647.88
942.8260, 16669.88
943.3082, 16686.54
943.7903, 16703.73
944.2724, 16725.33
944.7545, 16749.80
945.2366, 16776.90
945.7188, 16808.68
946.2009, 16835.04
946.6830, 16856.05
947.1651, 16872.13
947.6472, 16882.02
948.1293, 16887.33
948.6115, 16894.14
949.0936, 16902.53
949.5757, 16911.95
950.0578, 16923.48
950.5399, 16934.94
951.0220, 16942.46
951.5042, 16948.71
951.9863, 16964.66
952.4684, 16996.06
952.9505, 17022.01
953.4326, 17036.47
953.9147, 17045.85
954.3969, 17062.47
954.8790, 17083.61
955.3611, 17100.43
955.8432, 17106.56
956.3253, 17118.05
956.8074, 17147.79
957.2896, 17183.86
957.7717, 17215.35
958.2538, 17241.87
958.7359, 17260.63
959.2180, 17268.09
959.7001, 17280.03
960.1823, 17316.32
960.6644, 17363.64
961.1465, 17390.77
961.6286, 17399.27
962.1107, 17411.27
962.5928, 17444.14
963.0750, 17475.42
963.5571, 17494.44
964.0392, 17504.75
964.5213, 17519.59
965.0034, 17540.33
965.4855, 17556.91
965.9677, 17566.46
966.4498, 17571.77
966.9319, 17568.81
967.4140, 17566.56
967.8961, 17582.27
968.3782, 17638.81
968.8604, 17680.30
969.3425, 17685.54
969.8246, 17682.33
970.3067, 17693.49
970.7888, 17719.30
971.2709, 17741.95
971.7531, 17760.17
972.2352, 17782.78
972.7173, 17821.89
973.1994, 17864.96
973.6815, 17898.28
974.1636, 17921.54
974.6458, 17944.44
975.1279, 17966.41
975.6100, 17991.00
976.0921, 18019.93
976.5742, 18051.46
977.0563, 18080.01
977.5385, 18106.55
978.0206, 18135.78
978.5027, 18171.24
978.9848, 18206.44
979.4669, 18240.97
979.9490, 18270.65
980.4311, 18289.06
980.9132, 18289.00
981.3953, 18292.86
981.8774, 18300.09
982.3596, 18312.89
982.8417, 18336.23
983.3238, 18366.32
983.8059, 18390.48
984.2880, 18408.74
984.7701, 18428.62
985.2523, 18456.82
985.7344, 18485.22
986.2165, 18508.64
986.6986, 18528.28
987.1807, 18549.75
987.6628, 18573.31
988.1450, 18595.57
988.6271, 18614.94
989.1092, 18633.80
989.5913, 18657.75
990.0734, 18683.40
990.5555, 18704.08
991.0377, 18714.43
991.5198, 18727.18
992.0019, 18746.58
992.4840, 18768.46
992.9661, 18788.92
993.4482, 18807.78
993.9304, 18835.18
994.4125, 18871.71
994.8946, 18906.28
995.3767, 18927.69
995.8588, 18946.59
996.3409, 18975.33
996.8231, 19011.57
997.3052, 19039.86
997.7873, 19049.97
998.2694, 19066.21
998.7515, 19094.20
999.2336, 19130.18
999.7158, 19167.96
1000.198, 19206.88
1000.680, 19245.09
1001.162, 19283.12
1001.644, 19315.49
1002.126, 19334.25
1002.608, 19347.83
1003.091, 19362.63
1003.573, 19378.25
1004.055, 19400.64
1004.537, 19431.34
1005.019, 19462.70
1005.501, 19490.37
1005.983, 19515.37
1006.465, 19540.66
1006.948, 19565.78
1007.430, 19589.53
1007.912, 19607.55
1008.394, 19628.89
1008.876, 19656.22
1009.358, 19687.65
1009.840, 19721.08
1010.322, 19756.39
1010.804, 19789.19
1011.287, 19819.31
1011.769, 19844.79
1012.251, 19854.18
1012.733, 19864.03
1013.215, 19894.08
1013.697, 19951.53
1014.179, 19998.07
1014.661, 20029.25
1015.143, 20055.93
1015.626, 20080.95
1016.108, 20106.30
1016.590, 20140.09
1017.072, 20179.87
1017.554, 20217.51
1018.036, 20243.38
1018.518, 20273.00
1019.000, 20318.78
1019.483, 20368.64
1019.965, 20404.87
1020.447, 20424.02
1020.929, 20449.65
1021.411, 20484.39
1021.893, 20519.01
1022.375, 20542.73
1022.857, 20562.07
1023.339, 20586.65
1023.822, 20616.82
1024.304, 20641.70
1024.786, 20648.42
1025.268, 20664.63
1025.750, 20701.51
1026.232, 20751.09
1026.714, 20790.20
1027.196, 20821.28
1027.679, 20857.50
1028.161, 20908.34
1028.643, 20952.60
1029.125, 20971.38
1029.607, 20979.42
1030.089, 20992.27
1030.571, 21011.15
1031.053, 21033.05
1031.536, 21059.38
1032.018, 21081.22
1032.500, 21085.59
1032.982, 21084.37
1033.464, 21097.02
1033.946, 21121.71
1034.428, 21149.95
1034.910, 21186.31
1035.392, 21216.07
1035.875, 21235.27
1036.357, 21247.98
1036.839, 21258.32
1037.321, 21267.38
1037.803, 21284.57
1038.285, 21312.92
1038.767, 21339.88
1039.249, 21349.16
1039.731, 21357.29
1040.214, 21378.98
1040.696, 21415.66
1041.178, 21455.13
1041.660, 21499.26
1042.142, 21536.95
1042.624, 21559.34
1043.106, 21577.18
1043.588, 21613.91
1044.071, 21661.94
1044.553, 21704.00
1045.035, 21725.09
1045.517, 21754.85
1045.999, 21805.87
1046.481, 21860.53
1046.963, 21897.81
1047.445, 21919.87
1047.927, 21960.68
1048.410, 22021.27
1048.892, 22085.10
1049.374, 22140.65
1049.856, 22195.15
1050.338, 22255.63
1050.820, 22319.68
1051.302, 22371.74
1051.784, 22404.20
1052.266, 22451.55
1052.749, 22523.22
1053.231, 22605.00
1053.713, 22682.57
1054.195, 22754.25
1054.677, 22817.42
1055.159, 22868.95
1055.641, 22925.77
1056.123, 22998.77
1056.606, 23071.23
1057.088, 23137.20
1057.570, 23196.49
1058.052, 23246.69
1058.534, 23287.75
1059.016, 23320.75
1059.498, 23345.88
1059.980, 23363.34
1060.463, 23374.64
1060.945, 23377.31
1061.427, 23367.19
1061.909, 23339.97
1062.391, 23317.46
1062.873, 23301.13
1063.355, 23285.29
1063.837, 23268.54
1064.319, 23247.00
1064.802, 23210.21
1065.284, 23161.55
1065.766, 23122.23
1066.248, 23100.83
1066.730, 23085.75
1067.212, 23075.38
1067.694, 23069.67
1068.176, 23067.82
1068.658, 23070.65
1069.141, 23082.62
1069.623, 23105.80
1070.105, 23129.38
1070.587, 23153.35
1071.069, 23169.92
1071.551, 23171.18
1072.033, 23159.00
1072.515, 23158.11
1072.998, 23168.79
1073.480, 23181.36
1073.962, 23188.31
1074.444, 23199.73
1074.926, 23233.11
1075.408, 23275.74
1075.890, 23306.95
1076.372, 23313.19
1076.854, 23327.18
1077.337, 23350.87
1077.819, 23376.93
1078.301, 23399.38
1078.783, 23419.60
1079.265, 23438.69
1079.747, 23457.62
1080.229, 23480.63
1080.711, 23515.90
1081.193, 23547.00
1081.676, 23565.07
1082.158, 23580.75
1082.640, 23613.53
1083.122, 23661.33
1083.604, 23705.73
1084.086, 23744.16
1084.568, 23777.32
1085.050, 23803.08
1085.532, 23825.98
1086.015, 23853.39
1086.497, 23883.29
1086.979, 23889.87
1087.461, 23868.30
1087.943, 23858.81
1088.425, 23878.27
1088.907, 23908.53
1089.389, 23929.53
1089.872, 23944.80
1090.354, 23958.00
1090.836, 23965.59
1091.318, 23985.85
1091.800, 24024.18
1092.282, 24064.74
1092.764, 24097.31
1093.246, 24124.43
1093.729, 24153.94
1094.211, 24185.11
1094.693, 24214.63
1095.175, 24239.93
1095.657, 24264.87
1096.139, 24288.28
1096.621, 24313.35
1097.103, 24346.38
1097.585, 24386.81
1098.068, 24415.13
1098.550, 24430.57
1099.032, 24447.48
1099.514, 24473.78
1099.996, 24507.66
1100.478, 24557.91
1100.960, 24615.52
1101.442, 24644.89
1101.924, 24639.70
1102.407, 24645.35
1102.889, 24671.27
1103.371, 24706.07
1103.853, 24741.54
1104.335, 24775.88
1104.817, 24805.37
1105.299, 24828.34
1105.781, 24861.61
1106.264, 24913.77
1106.746, 24955.98
1107.228, 24973.61
1107.710, 24979.74
1108.192, 25001.37
1108.674, 25033.09
1109.156, 25063.47
1109.638, 25088.18
1110.120, 25112.38
1110.603, 25134.82
1111.085, 25160.44
1111.567, 25198.34
1112.049, 25243.77
1112.531, 25255.76
1113.013, 25240.36
1113.495, 25236.20
1113.977, 25278.11
1114.459, 25319.95
1114.942, 25336.85
1115.424, 25343.02
1115.906, 25355.72
1116.388, 25375.27
1116.870, 25400.72
1117.352, 25432.32
1117.834, 25464.06
1118.316, 25489.93
1118.799, 25515.10
1119.281, 25543.98
1119.763, 25576.13
1120.245, 25608.12
1120.727, 25640.08
1121.209, 25667.71
1121.691, 25688.12
1122.173, 25711.16
1122.656, 25758.27
1123.138, 25809.65
1123.620, 25833.50
1124.102, 25825.15
1124.584, 25831.36
1125.066, 25864.74
1125.548, 25896.62
1126.030, 25914.10
1126.512, 25931.13
1126.995, 25987.18
1127.477, 26063.32
1127.959, 26111.97
1128.441, 26114.45
1128.923, 26118.83
1129.405, 26139.29
1129.887, 26166.68
1130.369, 26198.93
1130.851, 26234.00
1131.334, 26260.62
1131.816, 26281.19
1132.298, 26309.54
1132.780, 26360.52
1133.262, 26405.43
1133.744, 26421.05
1134.226, 26431.39
1134.708, 26461.11
1135.191, 26511.77
1135.673, 26548.53
1136.155, 26571.86
1136.637, 26590.40
1137.119, 26606.19
1137.601, 26623.63
1138.083, 26647.57
1138.565, 26675.67
1139.047, 26702.51
1139.530, 26729.91
1140.012, 26747.50
1140.494, 26753.00
1140.976, 26762.71
1141.458, 26795.25
1141.940, 26835.96
1142.422, 26872.20
1142.904, 26902.72
1143.386, 26925.48
1143.869, 26935.43
1144.351, 26953.83
1144.833, 26985.69
1145.315, 27021.94
1145.797, 27048.10
1146.279, 27072.37
1146.761, 27113.34
1147.243, 27173.82
1147.726, 27204.05
1148.208, 27171.61
1148.690, 27165.34
1149.172, 27221.00
1149.654, 27303.54
1150.136, 27348.59
1150.618, 27368.09
1151.100, 27383.34
1151.583, 27395.08
1152.065, 27420.54
1152.547, 27476.06
1153.029, 27528.24
1153.511, 27560.29
1153.993, 27577.71
1154.475, 27598.18
1154.957, 27620.78
1155.439, 27642.47
1155.922, 27662.69
1156.404, 27681.60
1156.886, 27697.93
1157.368, 27715.32
1157.850, 27735.97
1158.332, 27760.17
1158.814, 27791.44
1159.296, 27828.40
1159.778, 27861.47
1160.261, 27880.93
1160.743, 27900.72
1161.225, 27926.03
1161.707, 27954.96
1162.189, 27985.15
1162.671, 28016.19
1163.153, 28053.21
1163.635, 28095.74
1164.118, 28133.78
1164.600, 28157.77
1165.082, 28177.58
1165.564, 28196.15
1166.046, 28216.03
1166.528, 28242.79
1167.010, 28278.25
1167.492, 28305.49
1167.974, 28323.05
1168.457, 28338.66
1168.939, 28360.20
1169.421, 28381.56
1169.903, 28392.22
1170.385, 28398.42
1170.867, 28427.36
1171.349, 28484.88
1171.831, 28529.48
1172.313, 28552.34
1172.796, 28567.90
1173.278, 28583.81
1173.760, 28604.25
1174.242, 28636.73
1174.724, 28680.64
1175.206, 28716.05
1175.688, 28740.31
1176.170, 28765.98
1176.653, 28796.91
1177.135, 28827.97
1177.617, 28847.73
1178.099, 28866.13
1178.581, 28898.66
1179.063, 28949.66
1179.545, 28980.35
1180.027, 28979.45
1180.510, 28994.87
1180.992, 29051.21
1181.474, 29117.85
1181.956, 29152.55
1182.438, 29165.63
1182.920, 29169.76
1183.402, 29160.75
1183.884, 29173.01
1184.366, 29213.79
1184.849, 29259.10
1185.331, 29302.59
1185.813, 29338.72
1186.295, 29346.54
1186.777, 29342.34
1187.259, 29357.74
1187.741, 29415.84
1188.223, 29460.24
1188.705, 29487.22
1189.188, 29502.09
1189.670, 29496.75
1190.152, 29488.70
1190.634, 29520.79
1191.116, 29580.12
1191.598, 29635.84
1192.080, 29676.49
1192.562, 29714.47
1193.045, 29751.27
1193.527, 29783.82
1194.009, 29807.03
1194.491, 29824.83
1194.973, 29844.48
1195.455, 29866.54
1195.937, 29892.47
1196.419, 29925.05
1196.901, 29958.90
1197.384, 29996.16
1197.866, 30029.17
1198.348, 30046.44
1198.830, 30055.95
1199.312, 30080.09
1199.794, 30116.15
1200.276, 30146.58
1200.758, 30163.55
1201.240, 30175.10
1201.723, 30181.48
1202.205, 30186.24
1202.687, 30188.19
1203.169, 30193.53
1203.651, 30222.66
1204.133, 30273.74
1204.615, 30318.99
1205.097, 30338.31
1205.580, 30365.53
1206.062, 30411.25
1206.544, 30460.30
1207.026, 30488.28
1207.508, 30502.21
1207.990, 30516.91
1208.472, 30533.91
1208.954, 30556.19
1209.437, 30588.88
1209.919, 30621.23
1210.401, 30650.14
1210.883, 30678.74
1211.365, 30713.28
1211.847, 30752.00
1212.329, 30792.88
1212.811, 30835.65
1213.293, 30878.26
1213.776, 30928.35
1214.258, 30966.64
1214.740, 30984.21
1215.222, 30993.14
1215.704, 31016.34
1216.186, 31049.51
1216.668, 31085.29
1217.150, 31123.41
1217.632, 31150.49
1218.115, 31149.94
1218.597, 31157.98
1219.079, 31189.16
1219.561, 31231.62
1220.043, 31261.69
1220.525, 31285.11
1221.007, 31317.49
1221.489, 31365.33
1221.972, 31400.31
1222.454, 31409.73
1222.936, 31417.43
1223.418, 31430.85
1223.900, 31450.53
1224.382, 31483.05
1224.864, 31521.50
1225.346, 31551.01
1225.828, 31566.51
1226.311, 31580.45
1226.793, 31594.58
1227.275, 31608.70
1227.757, 31623.36
1228.239, 31637.42
1228.721, 31644.78
1229.203, 31650.66
1229.685, 31665.47
1230.167, 31693.10
1230.650, 31727.85
1231.132, 31773.05
1231.614, 31814.72
1232.096, 31843.63
1232.578, 31866.87
1233.060, 31899.40
1233.542, 31935.71
1234.024, 31964.36
1234.507, 31978.84
1234.989, 31994.90
1235.471, 32012.84
1235.953, 32031.57
1236.435, 32045.40
1236.917, 32064.83
1237.399, 32123.19
1237.881, 32195.65
1238.364, 32233.60
1238.846, 32201.24
1239.328, 32199.90
1239.810, 32235.33
1240.292, 32280.44
1240.774, 32323.39
1241.256, 32362.38
1241.738, 32392.85
1242.220, 32419.37
1242.703, 32451.03
1243.185, 32490.61
1243.667, 32529.62
1244.149, 32567.86
1244.631, 32602.34
1245.113, 32627.66
1245.595, 32649.59
1246.077, 32668.56
1246.559, 32689.48
1247.042, 32724.68
1247.524, 32783.91
1248.006, 32816.83
1248.488, 32821.71
1248.970, 32823.30
1249.452, 32839.41
1249.934, 32859.09
1250.416, 32871.86
1250.899, 32883.55
1251.381, 32905.73
1251.863, 32944.49
1252.345, 32958.98
1252.827, 32949.39
1253.309, 32945.53
1253.791, 32974.21
1254.273, 33007.46
1254.755, 33025.29
1255.238, 33036.08
1255.720, 33049.54
1256.202, 33064.55
1256.684, 33093.32
1257.166, 33134.91
1257.648, 33179.39
1258.130, 33224.33
1258.612, 33266.05
1259.094, 33305.11
1259.577, 33337.74
1260.059, 33355.09
1260.541, 33359.68
1261.023, 33380.21
1261.505, 33416.92
1261.987, 33462.43
1262.469, 33529.47
1262.951, 33582.89
1263.434, 33606.03
1263.916, 33617.64
1264.398, 33635.64
1264.880, 33657.55
1265.362, 33670.15
1265.844, 33675.66
1266.326, 33689.07
1266.808, 33720.44
1267.291, 33754.64
1267.773, 33787.00
1268.255, 33823.73
1268.737, 33881.20
1269.219, 33944.70
1269.701, 33973.88
1270.183, 33975.45
1270.665, 33979.47
1271.147, 34000.71
1271.630, 34018.12
1272.112, 34028.62
1272.594, 34040.56
1273.076, 34064.88
1273.558, 34093.56
1274.040, 34112.02
1274.522, 34124.29
1275.004, 34145.96
1275.486, 34186.73
1275.969, 34213.71
1276.451, 34221.26
1276.933, 34234.26
1277.415, 34282.48
1277.897, 34339.24
1278.379, 34377.32
1278.861, 34400.68
1279.343, 34419.73
1279.825, 34433.77
1280.308, 34448.54
1280.790, 34463.64
1281.272, 34490.72
1281.754, 34555.39
1282.236, 34617.13
1282.718, 34642.24
1283.200, 34646.88
1283.682, 34656.54
1284.165, 34671.01
1284.647, 34701.64
1285.129, 34747.40
1285.611, 34785.30
1286.093, 34791.99
1286.575, 34799.28
1287.057, 34825.72
1287.539, 34857.01
1288.021, 34878.27
1288.504, 34890.92
1288.986, 34900.97
1289.468, 34910.17
1289.950, 34926.20
1290.432, 34960.06
1290.914, 34991.98
1291.396, 35020.75
1291.878, 35042.82
1292.360, 35046.04
1292.843, 35043.56
1293.325, 35075.57
1293.807, 35131.82
1294.289, 35174.44
1294.771, 35173.31
1295.253, 35187.87
1295.735, 35224.29
1296.217, 35263.39
1296.700, 35282.69
1297.182, 35298.96
1297.664, 35337.93
1298.146, 35389.42
1298.628, 35435.22
1299.110, 35483.64
1299.592, 35509.57
1300.074, 35510.16
1300.557, 35502.35
1301.039, 35495.27
1301.521, 35487.13
1302.003, 35477.68
1302.485, 35467.85
1302.967, 35468.39
1303.449, 35499.89
##END=



