##NAMES=Tremolite
##RRUFFID=R050173
##IDEAL CHEMISTRY=[box]Ca_2_Mg_5_Si_8_O_22_(OH)_2_
##LOCALITY=Fort Dauphin, Madagascar
##OWNER=RRUFF
##SOURCE=Marcus Origlieri
##DESCRIPTION=Mass of colorless acicular crystals
##STATUS=The identification of this mineral has been confirmed by X-ray diffraction and chemical analysis
##URL=rruff.info/R050173
##MEASURED CHEMISTRY=[box]Ca_2.00_Mg_5.00_Si_8.00_O_22_(OH)_2_
92.96582, 1029.458
93.44794, 1021.658
93.93005, 1023.600
94.41217, 1033.003
94.89429, 1036.926
95.37640, 1037.631
95.85852, 1036.751
96.34064, 1035.330
96.82275, 1034.356
97.30487, 1033.010
97.78699, 1030.097
98.26910, 1024.742
98.75122, 1019.817
99.23334, 1017.069
99.71545, 1015.915
100.1976, 1013.706
100.6797, 1012.519
101.1618, 1012.286
101.6439, 1012.104
102.1260, 1011.566
102.6081, 1010.731
103.0903, 1009.795
103.5724, 1008.430
104.0545, 1007.368
104.5366, 1006.835
105.0187, 1006.679
105.5008, 1006.666
105.9830, 1006.733
106.4651, 1006.887
106.9472, 1006.518
107.4293, 1004.050
107.9114, 1002.008
108.3935, 1001.257
108.8757, 1001.862
109.3578, 1003.453
109.8399, 1005.633
110.3220, 1008.707
110.8041, 1011.665
111.2862, 1014.101
111.7684, 1016.630
112.2505, 1019.792
112.7326, 1023.758
113.2147, 1028.165
113.6968, 1032.280
114.1789, 1036.010
114.6611, 1039.600
115.1432, 1042.418
115.6253, 1045.083
116.1074, 1048.989
116.5895, 1054.919
117.0716, 1062.344
117.5538, 1069.931
118.0359, 1078.743
118.5180, 1086.044
119.0001, 1089.203
119.4822, 1088.112
119.9643, 1086.458
120.4465, 1085.495
120.9286, 1085.208
121.4107, 1085.939
121.8928, 1088.547
122.3749, 1091.444
122.8570, 1092.033
123.3392, 1091.281
123.8213, 1085.678
124.3034, 1072.405
124.7855, 1054.939
125.2676, 1037.482
125.7497, 1022.446
126.2319, 1009.766
126.7140, 998.9203
127.1961, 992.4623
127.6782, 985.5805
128.1603, 976.1852
128.6424, 965.1977
129.1246, 955.1410
129.6067, 948.4301
130.0888, 945.9259
130.5709, 942.6443
131.0530, 937.2350
131.5351, 932.2267
132.0173, 929.1838
132.4994, 928.2507
132.9815, 928.4290
133.4636, 928.5228
133.9457, 928.4127
134.4278, 928.7049
134.9100, 929.3472
135.3921, 930.4337
135.8742, 931.9158
136.3563, 933.6581
136.8384, 936.2402
137.3205, 940.6744
137.8027, 946.8188
138.2848, 953.9130
138.7669, 963.1249
139.2490, 973.4921
139.7311, 981.0667
140.2132, 983.7611
140.6954, 983.8245
141.1775, 983.6458
141.6596, 983.2725
142.1417, 983.0600
142.6238, 983.4224
143.1059, 984.4529
143.5881, 985.4767
144.0702, 986.5828
144.5523, 987.4773
145.0344, 987.8103
145.5165, 987.4606
145.9986, 986.8709
146.4807, 986.7199
146.9629, 986.6139
147.4450, 987.8681
147.9271, 991.9952
148.4092, 996.7883
148.8913, 999.7775
149.3734, 999.7278
149.8556, 997.6644
150.3377, 997.7006
150.8198, 1001.639
151.3019, 1006.023
151.7840, 1010.786
152.2661, 1015.723
152.7483, 1020.457
153.2304, 1024.689
153.7125, 1028.551
154.1946, 1033.681
154.6767, 1039.771
155.1588, 1047.042
155.6410, 1055.038
156.1231, 1064.096
156.6052, 1075.290
157.0873, 1089.268
157.5694, 1106.432
158.0515, 1126.441
158.5337, 1157.152
159.0158, 1185.278
159.4979, 1200.859
159.9800, 1203.212
160.4621, 1195.527
160.9442, 1174.613
161.4264, 1144.620
161.9085, 1118.078
162.3906, 1098.147
162.8727, 1083.328
163.3548, 1071.316
163.8369, 1062.439
164.3191, 1055.588
164.8012, 1050.042
165.2833, 1045.726
165.7654, 1042.783
166.2475, 1041.340
166.7296, 1041.350
167.2118, 1042.610
167.6939, 1045.923
168.1760, 1049.658
168.6581, 1053.293
169.1402, 1056.705
169.6223, 1059.729
170.1045, 1061.958
170.5866, 1063.255
171.0687, 1065.337
171.5508, 1068.629
172.0329, 1072.396
172.5150, 1076.190
172.9972, 1080.155
173.4793, 1084.881
173.9614, 1091.062
174.4435, 1099.021
174.9256, 1107.416
175.4077, 1114.504
175.8899, 1123.260
176.3720, 1137.167
176.8541, 1155.768
177.3362, 1174.629
177.8183, 1188.519
178.3004, 1199.827
178.7826, 1197.395
179.2647, 1175.283
179.7468, 1144.107
180.2289, 1109.754
180.7110, 1074.222
181.1931, 1040.604
181.6752, 1014.105
182.1574, 996.3183
182.6395, 981.3747
183.1216, 969.0773
183.6037, 959.1523
184.0858, 951.6249
184.5679, 946.6219
185.0501, 943.5411
185.5322, 942.0850
186.0143, 942.4186
186.4964, 942.2803
186.9785, 940.1390
187.4606, 936.9048
187.9428, 934.9553
188.4249, 935.3224
188.9070, 936.7137
189.3891, 937.1624
189.8712, 936.5300
190.3533, 936.6606
190.8355, 939.3023
191.3176, 944.1152
191.7997, 948.1380
192.2818, 950.2734
192.7639, 951.6653
193.2460, 953.4374
193.7282, 955.6711
194.2103, 957.5764
194.6924, 958.1283
195.1745, 957.1359
195.6566, 956.7067
196.1387, 957.8692
196.6209, 959.3661
197.1030, 960.2742
197.5851, 960.5114
198.0672, 961.0634
198.5493, 963.1570
199.0314, 966.9951
199.5136, 971.8435
199.9957, 977.3334
200.4778, 983.8905
200.9599, 992.0302
201.4420, 1001.831
201.9241, 1012.675
202.4063, 1023.879
202.8884, 1036.549
203.3705, 1047.377
203.8526, 1056.962
204.3347, 1064.653
204.8168, 1069.598
205.2990, 1071.650
205.7811, 1071.901
206.2632, 1072.229
206.7453, 1071.271
207.2274, 1072.586
207.7095, 1077.705
208.1917, 1084.163
208.6738, 1089.477
209.1559, 1092.832
209.6380, 1095.480
210.1201, 1099.958
210.6022, 1107.212
211.0844, 1115.082
211.5665, 1124.086
212.0486, 1133.454
212.5307, 1142.500
213.0128, 1151.061
213.4949, 1158.713
213.9771, 1164.428
214.4592, 1167.788
214.9413, 1170.375
215.4234, 1172.026
215.9055, 1173.161
216.3876, 1174.284
216.8698, 1175.469
217.3519, 1177.039
217.8340, 1179.470
218.3161, 1182.215
218.7982, 1186.952
219.2803, 1194.697
219.7625, 1204.839
220.2446, 1216.097
220.7267, 1228.183
221.2088, 1241.110
221.6909, 1256.967
222.1730, 1277.251
222.6552, 1291.000
223.1373, 1293.099
223.6194, 1284.379
224.1015, 1266.932
224.5836, 1238.254
225.0657, 1204.284
225.5479, 1170.978
226.0300, 1138.145
226.5121, 1108.790
226.9942, 1084.447
227.4763, 1065.137
227.9584, 1050.129
228.4406, 1040.099
228.9227, 1034.251
229.4048, 1032.082
229.8869, 1033.382
230.3690, 1035.911
230.8511, 1038.582
231.3333, 1041.360
231.8154, 1042.935
232.2975, 1043.431
232.7796, 1042.180
233.2617, 1038.920
233.7438, 1033.649
234.2260, 1026.544
234.7081, 1017.068
235.1902, 1005.003
235.6723, 993.8506
236.1544, 983.4005
236.6365, 974.3359
237.1187, 967.3151
237.6008, 962.1326
238.0829, 957.9688
238.5650, 954.0709
239.0471, 950.3694
239.5292, 947.4332
240.0114, 945.4291
240.4935, 944.1071
240.9756, 943.6472
241.4577, 943.8777
241.9398, 944.3387
242.4219, 944.6168
242.9041, 944.6851
243.3862, 944.7901
243.8683, 944.8116
244.3504, 944.9941
244.8325, 945.2630
245.3146, 945.7529
245.7968, 946.8254
246.2789, 948.9471
246.7610, 952.3477
247.2431, 954.7970
247.7252, 954.9863
248.2073, 955.5554
248.6895, 957.9342
249.1716, 961.6409
249.6537, 965.3023
250.1358, 967.9191
250.6179, 969.5511
251.1000, 968.9025
251.5822, 964.8121
252.0643, 959.9354
252.5464, 954.6633
253.0285, 949.3151
253.5106, 944.3604
253.9927, 940.0858
254.4748, 936.5021
254.9570, 933.8239
255.4391, 932.7834
255.9212, 931.6962
256.4033, 929.5180
256.8854, 926.7692
257.3676, 924.8572
257.8497, 924.8818
258.3318, 926.6050
258.8139, 926.9915
259.2960, 924.9691
259.7781, 923.1125
260.2603, 921.9363
260.7424, 921.5779
261.2245, 922.3416
261.7066, 924.5292
262.1887, 927.8663
262.6708, 930.8839
263.1530, 934.9702
263.6351, 937.3696
264.1172, 936.7691
264.5993, 933.8615
265.0814, 929.8810
265.5635, 925.1525
266.0457, 920.1430
266.5278, 916.4826
267.0099, 914.5165
267.4920, 912.9227
267.9741, 911.5302
268.4562, 910.2014
268.9384, 908.4882
269.4204, 906.0180
269.9026, 903.4927
270.3847, 902.7147
270.8668, 904.2347
271.3489, 905.4127
271.8310, 904.9535
272.3131, 903.6374
272.7953, 902.9775
273.2774, 903.5033
273.7595, 904.6699
274.2416, 905.8242
274.7237, 907.0906
275.2058, 907.7643
275.6880, 907.4053
276.1701, 906.3674
276.6522, 905.1592
277.1343, 903.7955
277.6164, 902.5735
278.0985, 901.8329
278.5807, 901.5066
279.0628, 901.6935
279.5449, 902.9816
280.0270, 904.6319
280.5091, 905.2932
280.9912, 904.5462
281.4734, 903.7761
281.9555, 904.6075
282.4376, 906.6649
282.9197, 908.5115
283.4018, 910.2850
283.8839, 911.4426
284.3661, 910.7402
284.8482, 907.7666
285.3303, 905.0963
285.8124, 905.3740
286.2945, 907.5025
286.7766, 908.8213
287.2588, 907.8039
287.7409, 906.2593
288.2230, 906.6259
288.7051, 909.1152
289.1872, 911.2225
289.6693, 911.2969
290.1515, 910.0068
290.6336, 908.4744
291.1157, 906.5574
291.5978, 904.8198
292.0799, 904.0031
292.5620, 904.1157
293.0442, 904.0595
293.5263, 903.2698
294.0084, 902.0707
294.4905, 900.7967
294.9726, 899.2645
295.4547, 898.2365
295.9369, 898.6832
296.4190, 900.4800
296.9011, 901.9652
297.3832, 902.5731
297.8653, 902.6378
298.3474, 902.3892
298.8296, 901.7509
299.3117, 901.5891
299.7938, 902.8456
300.2759, 905.2286
300.7580, 907.2410
301.2401, 908.8131
301.7223, 909.5438
302.2044, 908.9002
302.6865, 907.0311
303.1686, 905.2119
303.6507, 904.5692
304.1328, 904.5499
304.6150, 903.2607
305.0971, 900.0717
305.5792, 896.4523
306.0613, 893.4924
306.5434, 891.0006
307.0255, 888.5313
307.5077, 885.3951
307.9898, 882.2512
308.4719, 880.4828
308.9540, 880.2595
309.4361, 880.9426
309.9182, 883.0782
310.4004, 885.7000
310.8825, 887.2596
311.3646, 886.8772
311.8467, 885.6264
312.3288, 884.9779
312.8109, 885.0192
313.2931, 885.0781
313.7752, 884.7797
314.2573, 884.3611
314.7394, 884.1439
315.2215, 884.2922
315.7036, 884.3545
316.1858, 883.6232
316.6679, 882.1082
317.1500, 881.2253
317.6321, 881.8235
318.1142, 882.9550
318.5963, 883.6448
319.0785, 883.8185
319.5606, 883.8729
320.0427, 884.0238
320.5248, 884.2746
321.0069, 884.5905
321.4890, 884.7395
321.9712, 885.3058
322.4533, 887.0045
322.9354, 889.6602
323.4175, 892.0869
323.8996, 893.5910
324.3817, 894.4276
324.8639, 895.2338
325.3460, 896.0355
325.8281, 896.8683
326.3102, 897.7215
326.7923, 898.6141
327.2744, 899.6249
327.7566, 901.1312
328.2387, 902.5915
328.7208, 902.8105
329.2029, 901.4571
329.6850, 900.7823
330.1671, 902.5246
330.6493, 905.6154
331.1314, 908.6506
331.6135, 911.6160
332.0956, 914.0793
332.5777, 915.3451
333.0598, 915.4606
333.5420, 915.8053
334.0241, 917.1744
334.5062, 918.7941
334.9883, 919.6560
335.4704, 919.6597
335.9525, 919.3224
336.4347, 918.6486
336.9168, 917.8273
337.3989, 917.6843
337.8810, 918.6542
338.3631, 919.9336
338.8452, 920.4407
339.3274, 920.2740
339.8094, 920.7247
340.2916, 922.4579
340.7737, 925.0917
341.2558, 928.2151
341.7379, 931.9775
342.2200, 935.4224
342.7021, 937.8475
343.1843, 939.3312
343.6664, 939.9199
344.1485, 939.3811
344.6306, 938.1042
345.1127, 936.1700
345.5948, 933.6055
346.0770, 931.2752
346.5591, 929.4191
347.0412, 928.3065
347.5233, 928.3679
348.0054, 930.2247
348.4875, 932.2500
348.9697, 933.3980
349.4518, 933.9050
349.9339, 934.5635
350.4160, 935.6707
350.8981, 937.0308
351.3802, 938.5425
351.8624, 940.4442
352.3445, 941.4094
352.8266, 941.0768
353.3087, 939.5375
353.7908, 936.5105
354.2729, 931.7957
354.7551, 926.9730
355.2372, 923.7380
355.7193, 922.1390
356.2014, 920.8956
356.6835, 919.9158
357.1656, 919.2495
357.6478, 919.2673
358.1299, 919.8459
358.6120, 919.8478
359.0941, 918.1464
359.5762, 915.1931
360.0583, 913.9821
360.5405, 915.4242
361.0226, 917.4056
361.5047, 919.2262
361.9868, 920.9316
362.4689, 922.7386
362.9510, 924.7687
363.4332, 926.8048
363.9153, 928.2302
364.3974, 928.6165
364.8795, 929.2727
365.3616, 929.7899
365.8438, 930.9310
366.3259, 933.8979
366.8080, 938.8797
367.2901, 944.4426
367.7722, 948.9267
368.2543, 952.1056
368.7365, 954.9008
369.2186, 958.1512
369.7007, 960.3427
370.1828, 960.5208
370.6649, 958.8189
371.1470, 955.8276
371.6292, 951.8351
372.1113, 946.9576
372.5934, 942.5851
373.0755, 937.7916
373.5576, 934.5470
374.0397, 934.1150
374.5219, 935.2941
375.0040, 936.6301
375.4861, 937.5016
375.9682, 937.8511
376.4503, 937.5529
376.9324, 936.4223
377.4146, 934.8326
377.8967, 932.5200
378.3788, 929.9873
378.8609, 927.5750
379.3430, 925.3360
379.8251, 923.0731
380.3073, 920.4323
380.7894, 917.1889
381.2715, 915.1666
381.7536, 914.7620
382.2357, 915.1708
382.7178, 916.5367
383.2000, 918.5001
383.6821, 920.4758
384.1642, 922.0930
384.6463, 923.4681
385.1284, 925.1008
385.6105, 927.3152
386.0927, 929.2412
386.5748, 930.1866
387.0569, 931.1020
387.5390, 933.0701
388.0211, 936.3848
388.5032, 940.0540
388.9854, 942.2917
389.4675, 942.4760
389.9496, 944.6508
390.4317, 951.4195
390.9138, 958.5323
391.3959, 963.8304
391.8781, 967.4968
392.3602, 970.9676
392.8423, 975.9011
393.3244, 981.5961
393.8065, 984.6002
394.2886, 984.5181
394.7708, 982.3557
395.2529, 978.8355
395.7350, 973.6542
396.2171, 966.0538
396.6992, 955.2871
397.1813, 943.0389
397.6635, 930.7609
398.1456, 918.3900
398.6277, 907.4391
399.1098, 898.3972
399.5919, 891.2022
400.0740, 885.8030
400.5562, 882.2178
401.0383, 879.4483
401.5204, 877.2311
402.0025, 875.3781
402.4846, 873.2928
402.9667, 870.7484
403.4489, 868.4843
403.9310, 867.4084
404.4131, 867.2166
404.8952, 866.8820
405.3773, 865.7908
405.8594, 864.8089
406.3416, 864.8526
406.8237, 865.8033
407.3058, 866.7328
407.7879, 867.0571
408.2700, 867.1870
408.7521, 868.2379
409.2343, 870.5977
409.7164, 872.8719
410.1985, 874.3311
410.6806, 875.5445
411.1627, 877.5665
411.6448, 880.6620
412.1269, 883.6672
412.6090, 885.0527
413.0912, 884.3200
413.5733, 884.5516
414.0554, 887.2245
414.5375, 889.4962
415.0196, 889.3615
415.5017, 887.3105
415.9839, 885.2459
416.4660, 884.4291
416.9481, 884.4192
417.4302, 883.1030
417.9123, 879.3446
418.3944, 875.6156
418.8766, 871.7914
419.3587, 868.2624
419.8408, 865.6970
420.3229, 864.1632
420.8050, 862.7089
421.2871, 859.9162
421.7693, 855.1503
422.2514, 851.4119
422.7335, 849.1617
423.2156, 847.4142
423.6977, 846.0803
424.1798, 844.9202
424.6620, 843.4416
425.1441, 841.1811
425.6262, 838.5646
426.1083, 837.3530
426.5904, 838.4915
427.0725, 839.2346
427.5547, 838.6371
428.0368, 837.6000
428.5189, 836.8020
429.0010, 836.4158
429.4831, 836.4567
429.9652, 837.1754
430.4474, 838.5742
430.9295, 839.4247
431.4116, 839.0177
431.8937, 838.8230
432.3758, 840.1735
432.8579, 842.4781
433.3401, 844.0413
433.8222, 843.4922
434.3043, 842.1633
434.7864, 842.5861
435.2685, 844.9973
435.7506, 846.4358
436.2328, 844.8813
436.7149, 841.9658
437.1970, 840.5579
437.6791, 841.2697
438.1612, 841.5575
438.6433, 839.6965
439.1255, 836.5130
439.6076, 833.7642
440.0897, 831.8521
440.5718, 830.0571
441.0539, 827.2022
441.5360, 823.3637
442.0182, 821.8090
442.5003, 824.4615
442.9824, 827.8873
443.4645, 829.9999
443.9466, 831.0291
444.4287, 832.0394
444.9109, 833.6428
445.3930, 835.3906
445.8751, 836.0500
446.3572, 834.3795
446.8393, 833.4887
447.3214, 833.9519
447.8036, 834.9781
448.2857, 835.9408
448.7678, 836.7258
449.2499, 837.5224
449.7320, 838.5063
450.2141, 839.6808
450.6963, 840.9725
451.1784, 842.9691
451.6605, 844.4445
452.1426, 844.6220
452.6247, 844.2453
453.1068, 844.4561
453.5890, 845.7438
454.0711, 847.3729
454.5532, 847.7083
455.0353, 845.9931
455.5174, 845.6437
455.9995, 848.3530
456.4817, 851.5265
456.9638, 853.6779
457.4459, 855.0226
457.9280, 856.8149
458.4101, 860.2538
458.8922, 864.7125
459.3744, 868.1317
459.8565, 870.2385
460.3386, 872.1806
460.8207, 874.6299
461.3028, 877.1520
461.7849, 879.2276
462.2671, 880.7845
462.7492, 881.8815
463.2313, 882.7899
463.7134, 883.2916
464.1955, 882.7198
464.6776, 880.9297
465.1598, 878.0632
465.6419, 873.8021
466.1240, 868.3287
466.6061, 863.3281
467.0882, 859.4376
467.5703, 855.7210
468.0525, 851.0957
468.5346, 846.0015
469.0167, 841.9592
469.4988, 839.7991
469.9809, 838.8229
470.4630, 837.3976
470.9452, 835.3417
471.4273, 833.1332
471.9094, 830.7049
472.3915, 828.1757
472.8736, 825.2717
473.3557, 822.2303
473.8379, 820.0862
474.3200, 819.9169
474.8021, 821.5127
475.2842, 821.5735
475.7663, 818.1463
476.2484, 815.5580
476.7306, 815.1035
477.2127, 815.5154
477.6948, 815.3486
478.1769, 814.2073
478.6590, 812.9410
479.1411, 812.9593
479.6233, 814.4915
480.1054, 814.6393
480.5875, 811.9489
481.0696, 809.4096
481.5517, 808.6669
482.0338, 809.1463
482.5159, 809.5410
482.9980, 809.1068
483.4802, 808.6082
483.9623, 809.5696
484.4444, 811.9993
484.9265, 813.2010
485.4086, 811.6981
485.8907, 809.2216
486.3729, 808.0541
486.8550, 808.2280
487.3371, 808.3969
487.8192, 808.3253
488.3013, 807.8887
488.7834, 806.5889
489.2656, 804.5092
489.7477, 802.9466
490.2298, 802.8312
490.7119, 803.8525
491.1940, 804.4990
491.6761, 804.9814
492.1583, 804.8967
492.6404, 803.6805
493.1225, 802.1024
493.6046, 800.9973
494.0867, 800.5351
494.5688, 800.3981
495.0510, 800.2559
495.5331, 800.0939
496.0152, 800.1129
496.4973, 800.4568
496.9794, 800.8272
497.4615, 801.3464
497.9437, 801.7821
498.4258, 801.7189
498.9079, 801.0023
499.3900, 800.1629
499.8721, 800.1618
500.3542, 801.1885
500.8364, 801.5090
501.3185, 799.9188
501.8006, 798.7598
502.2827, 799.8509
502.7648, 802.3985
503.2469, 804.2830
503.7291, 804.2204
504.2112, 803.3892
504.6933, 803.6191
505.1754, 804.8577
505.6575, 805.2939
506.1396, 803.7966
506.6218, 801.7836
507.1039, 801.4309
507.5860, 802.8067
508.0681, 804.2680
508.5502, 805.4518
509.0323, 806.4864
509.5145, 807.3979
509.9966, 808.2441
510.4787, 809.2738
510.9608, 810.6650
511.4429, 812.3304
511.9250, 813.9003
512.4072, 815.4101
512.8893, 816.7616
513.3714, 817.7993
513.8535, 818.7669
514.3356, 820.2275
514.8177, 821.9987
515.2999, 822.9697
515.7820, 821.8945
516.2641, 818.9961
516.7462, 817.3146
517.2283, 817.8527
517.7104, 818.1516
518.1926, 817.3849
518.6747, 816.2457
519.1568, 815.4417
519.6389, 815.1430
520.1210, 814.9763
520.6031, 814.4324
521.0853, 813.6389
521.5674, 813.5922
522.0495, 814.8006
522.5316, 815.7313
523.0137, 814.6328
523.4958, 812.6044
523.9780, 811.9113
524.4601, 813.7576
524.9422, 815.6126
525.4243, 815.5033
525.9064, 814.1835
526.3885, 813.4259
526.8707, 813.7031
527.3528, 814.4011
527.8349, 814.8490
528.3170, 815.0053
528.7991, 815.2913
529.2813, 816.3143
529.7634, 816.8104
530.2455, 816.1760
530.7276, 814.6758
531.2097, 812.7693
531.6918, 810.6400
532.1740, 808.1974
532.6561, 805.1822
533.1382, 801.3595
533.6203, 797.8430
534.1024, 794.0674
534.5845, 791.1959
535.0667, 790.4305
535.5488, 790.7911
536.0309, 790.3478
536.5130, 788.0987
536.9951, 785.0377
537.4772, 782.3680
537.9594, 780.0750
538.4415, 778.8391
538.9236, 779.4265
539.4057, 780.2811
539.8878, 779.5423
540.3699, 777.5903
540.8521, 776.6176
541.3342, 778.4862
541.8163, 780.5729
542.2984, 780.4991
542.7805, 778.6319
543.2626, 776.4047
543.7448, 774.3250
544.2269, 772.4688
544.7090, 770.9337
545.1911, 769.5975
545.6732, 769.0319
546.1553, 769.5424
546.6375, 770.5204
547.1196, 772.0828
547.6017, 773.8087
548.0838, 774.7504
548.5659, 774.3586
549.0480, 773.2912
549.5302, 773.1574
550.0123, 774.4657
550.4944, 775.1815
550.9765, 774.4220
551.4586, 773.5749
551.9407, 773.4971
552.4229, 773.9377
552.9050, 773.9754
553.3871, 772.7542
553.8692, 771.2986
554.3513, 771.7077
554.8334, 773.9201
555.3156, 774.6649
555.7977, 772.0586
556.2798, 768.7002
556.7619, 768.6497
557.2440, 771.8463
557.7261, 773.8640
558.2083, 772.8211
558.6904, 771.1768
559.1725, 770.9542
559.6546, 771.7821
560.1367, 772.2637
560.6188, 771.7400
561.1010, 770.5245
561.5831, 769.1768
562.0652, 767.1261
562.5473, 766.2891
563.0294, 767.6607
563.5115, 769.1005
563.9937, 769.4628
564.4758, 769.0538
564.9579, 768.7851
565.4400, 769.1803
565.9221, 769.7342
566.4042, 769.3851
566.8864, 767.9861
567.3685, 766.8532
567.8506, 766.0803
568.3327, 765.8199
568.8148, 766.5298
569.2969, 767.8749
569.7791, 768.5878
570.2612, 767.7447
570.7433, 766.5551
571.2254, 766.0941
571.7075, 766.2064
572.1896, 766.3288
572.6718, 766.2613
573.1539, 766.2195
573.6360, 766.5071
574.1181, 767.2148
574.6002, 767.8528
575.0823, 768.6278
575.5645, 769.1250
576.0466, 769.2553
576.5287, 768.9658
577.0108, 768.0067
577.4929, 766.3163
577.9750, 764.5311
578.4572, 763.5732
578.9393, 763.5010
579.4214, 763.9280
579.9035, 765.4243
580.3856, 766.6788
580.8677, 766.9563
581.3499, 766.6808
581.8320, 766.5305
582.3141, 766.7387
582.7962, 766.9830
583.2783, 767.1633
583.7604, 767.1581
584.2426, 766.2372
584.7247, 764.0620
585.2068, 762.4801
585.6889, 763.4363
586.1710, 766.5312
586.6531, 768.0745
587.1352, 766.6797
587.6173, 765.5188
588.0994, 765.8555
588.5815, 766.6991
589.0637, 766.8575
589.5458, 766.1492
590.0279, 765.2002
590.5100, 764.5551
590.9921, 764.2137
591.4742, 764.2693
591.9564, 765.0906
592.4385, 765.6801
592.9206, 765.6467
593.4027, 765.4205
593.8848, 765.5532
594.3669, 766.0394
594.8491, 766.0513
595.3312, 764.7695
595.8133, 762.7040
596.2954, 760.5714
596.7775, 758.3605
597.2596, 757.3660
597.7418, 758.5952
598.2239, 760.9910
598.7060, 762.5022
599.1881, 763.1107
599.6702, 763.2074
600.1523, 762.4426
600.6345, 761.5177
601.1166, 760.6905
601.5987, 760.1451
602.0808, 760.4169
602.5629, 761.8438
603.0450, 763.5821
603.5272, 763.5646
604.0093, 760.6625
604.4914, 759.4199
604.9735, 761.9971
605.4556, 764.3843
605.9377, 764.6166
606.4199, 763.4066
606.9020, 762.3007
607.3841, 761.8372
607.8662, 761.7875
608.3483, 762.3380
608.8304, 763.1935
609.3126, 762.7255
609.7947, 760.3329
610.2768, 757.9569
610.7589, 757.2968
611.2410, 758.2734
611.7231, 759.3895
612.2053, 761.1533
612.6874, 762.4340
613.1695, 762.3812
613.6516, 761.9473
614.1337, 762.5890
614.6158, 764.2997
615.0980, 765.4326
615.5801, 764.3105
616.0622, 761.3571
616.5443, 759.6380
617.0264, 759.5966
617.5085, 759.8889
617.9907, 760.5921
618.4728, 761.2087
618.9549, 761.2065
619.4370, 760.6339
619.9191, 760.2346
620.4012, 760.4448
620.8834, 761.0221
621.3655, 761.8156
621.8476, 762.7507
622.3297, 763.3204
622.8118, 763.3264
623.2939, 762.8701
623.7761, 761.9380
624.2582, 760.1856
624.7403, 759.5762
625.2224, 760.8981
625.7045, 762.4819
626.1866, 763.8352
626.6688, 764.8717
627.1509, 765.5189
627.6330, 765.7628
628.1151, 765.7287
628.5972, 765.3241
629.0793, 764.5447
629.5615, 764.8693
630.0436, 766.9407
630.5257, 768.8297
631.0078, 769.5516
631.4899, 769.5723
631.9720, 769.2585
632.4542, 768.5361
632.9363, 768.1245
633.4184, 768.3217
633.9005, 769.0553
634.3826, 770.4808
634.8647, 772.4591
635.3469, 774.1717
635.8290, 775.1016
636.3111, 775.6673
636.7932, 776.9359
637.2753, 779.3651
637.7574, 781.5759
638.2396, 783.6907
638.7217, 785.5022
639.2038, 786.7372
639.6859, 787.6213
640.1680, 788.4934
640.6501, 789.4628
641.1323, 790.7211
641.6144, 792.6277
642.0965, 795.0953
642.5786, 797.5658
643.0607, 800.0526
643.5428, 802.2010
644.0250, 803.4770
644.5071, 804.2293
644.9892, 805.7083
645.4713, 808.1123
645.9534, 810.8741
646.4355, 814.1580
646.9177, 817.4986
647.3998, 820.3814
647.8819, 822.8513
648.3640, 825.2498
648.8461, 827.7444
649.3282, 830.5579
649.8104, 834.4453
650.2925, 839.8868
650.7746, 844.9057
651.2567, 848.5652
651.7388, 852.5313
652.2209, 857.4201
652.7031, 863.3568
653.1852, 870.6647
653.6673, 879.8980
654.1494, 889.7275
654.6315, 899.0276
655.1136, 908.0458
655.5958, 917.2059
656.0779, 926.5740
656.5600, 936.5995
657.0421, 947.5471
657.5242, 959.4650
658.0063, 972.5179
658.4885, 988.9597
658.9706, 1003.541
659.4527, 1014.854
659.9348, 1025.051
660.4169, 1035.983
660.8990, 1047.370
661.3812, 1057.462
661.8633, 1064.643
662.3454, 1071.121
662.8275, 1080.987
663.3096, 1094.123
663.7917, 1106.895
664.2739, 1118.429
664.7560, 1129.629
665.2381, 1140.682
665.7202, 1151.960
666.2023, 1165.453
666.6844, 1183.015
667.1666, 1200.535
667.6487, 1216.496
668.1308, 1231.885
668.6129, 1248.060
669.0950, 1264.948
669.5771, 1281.254
670.0593, 1296.031
670.5414, 1309.464
671.0235, 1322.701
671.5056, 1336.594
671.9877, 1347.484
672.4698, 1355.970
672.9520, 1359.719
673.4341, 1358.169
673.9162, 1351.068
674.3983, 1337.584
674.8804, 1316.147
675.3625, 1290.063
675.8447, 1260.866
676.3268, 1228.706
676.8089, 1193.127
677.2910, 1154.292
677.7731, 1115.415
678.2552, 1078.797
678.7374, 1044.622
679.2195, 1013.891
679.7016, 986.5994
680.1837, 962.9616
680.6658, 943.4202
681.1479, 926.7858
681.6301, 913.3409
682.1122, 902.2304
682.5943, 891.2515
683.0764, 879.1492
683.5585, 867.5056
684.0406, 857.8492
684.5228, 850.0741
685.0049, 844.4470
685.4870, 841.1017
685.9691, 838.5296
686.4512, 835.6895
686.9333, 832.5670
687.4155, 829.1358
687.8976, 824.3676
688.3797, 820.7324
688.8618, 819.3382
689.3439, 818.2714
689.8260, 816.1608
690.3082, 813.2128
690.7903, 810.4106
691.2724, 808.3184
691.7545, 806.3622
692.2366, 803.7355
692.7188, 800.4828
693.2009, 796.7883
693.6830, 792.4676
694.1651, 788.6879
694.6472, 786.6734
695.1293, 785.8216
695.6115, 783.6278
696.0936, 779.2690
696.5757, 775.1637
697.0578, 771.5211
697.5399, 768.3947
698.0220, 766.0289
698.5042, 764.2230
698.9863, 762.5133
699.4684, 760.6737
699.9505, 758.7631
700.4326, 756.6349
700.9147, 754.2988
701.3969, 753.2805
701.8790, 754.2604
702.3611, 755.1691
702.8432, 754.8026
703.3253, 753.4865
703.8074, 751.9048
704.2896, 749.7360
704.7717, 748.2805
705.2538, 748.4297
705.7359, 748.9745
706.2180, 748.9838
706.7001, 748.5305
707.1823, 747.9609
707.6644, 747.4295
708.1465, 747.0560
708.6286, 747.2140
709.1107, 747.9692
709.5928, 747.8659
710.0750, 746.5476
710.5571, 745.0829
711.0392, 743.6570
711.5213, 742.5180
712.0034, 742.1815
712.4855, 742.8141
712.9677, 742.9695
713.4498, 741.7687
713.9319, 740.2806
714.4140, 739.2421
714.8961, 738.6326
715.3782, 738.4107
715.8604, 738.5333
716.3425, 738.6033
716.8246, 738.0992
717.3067, 737.0361
717.7888, 735.9960
718.2709, 734.6603
718.7531, 734.0598
719.2352, 735.1921
719.7173, 736.7253
720.1994, 737.5955
720.6815, 737.7623
721.1636, 737.4180
721.6458, 736.3114
722.1279, 735.0135
722.6100, 733.5760
723.0921, 732.3400
723.5742, 732.1434
724.0563, 733.0756
724.5385, 734.1212
725.0206, 734.3038
725.5027, 733.8113
725.9848, 733.9091
726.4669, 735.0677
726.9490, 735.5577
727.4312, 734.2696
727.9132, 732.9801
728.3953, 733.2409
728.8774, 734.5194
729.3596, 734.9613
729.8417, 733.4861
730.3238, 732.0689
730.8059, 731.7966
731.2880, 732.3917
731.7701, 733.8734
732.2523, 735.9702
732.7344, 737.4811
733.2165, 737.5535
733.6986, 736.7490
734.1807, 736.4606
734.6628, 736.7217
735.1450, 737.4390
735.6271, 739.3746
736.1092, 740.7521
736.5913, 739.8984
737.0734, 738.2171
737.5555, 738.1384
738.0377, 740.4286
738.5198, 742.4562
739.0019, 742.7204
739.4840, 742.2902
739.9661, 742.3269
740.4482, 742.6863
740.9304, 742.4855
741.4125, 741.3505
741.8946, 740.2102
742.3767, 740.7496
742.8588, 743.1445
743.3409, 742.9933
743.8231, 738.3655
744.3052, 735.0873
744.7873, 736.7119
745.2694, 739.6006
745.7515, 740.1047
746.2336, 738.1984
746.7158, 736.6823
747.1979, 736.6284
747.6800, 737.0081
748.1621, 737.2133
748.6442, 737.3417
749.1263, 737.7288
749.6085, 738.3605
750.0906, 738.6428
750.5727, 737.9910
751.0548, 736.6748
751.5369, 735.8261
752.0190, 735.6543
752.5012, 734.9793
752.9833, 733.1623
753.4654, 731.3737
753.9475, 730.6302
754.4296, 730.5934
754.9117, 730.4289
755.3939, 730.0959
755.8760, 729.5183
756.3581, 728.6904
756.8402, 727.5848
757.3223, 725.8088
757.8044, 723.7180
758.2866, 722.3035
758.7687, 722.0609
759.2508, 722.4590
759.7329, 722.7298
760.2150, 722.8767
760.6971, 723.1954
761.1793, 723.8182
761.6614, 724.1702
762.1435, 723.8229
762.6256, 723.1920
763.1077, 723.0751
763.5898, 723.5832
764.0720, 723.5480
764.5541, 722.5494
765.0362, 721.2943
765.5183, 719.6257
766.0004, 718.1564
766.4825, 717.8313
766.9647, 718.6833
767.4468, 719.8018
767.9289, 720.6537
768.4110, 721.0383
768.8931, 720.1713
769.3752, 718.1100
769.8574, 716.5428
770.3395, 715.7860
770.8216, 715.8189
771.3037, 717.0015
771.7858, 718.9792
772.2679, 719.6132
772.7501, 717.6438
773.2322, 716.2340
773.7143, 715.4802
774.1964, 715.4312
774.6785, 716.7991
775.1606, 718.7565
775.6428, 719.4924
776.1249, 718.2498
776.6070, 716.9943
777.0891, 718.2489
777.5712, 720.6697
778.0533, 720.9605
778.5355, 719.1252
779.0176, 717.3093
779.4997, 716.3391
779.9818, 716.2432
780.4639, 717.2693
780.9460, 719.6570
781.4282, 720.8371
781.9103, 720.1153
782.3924, 719.1199
782.8745, 717.7986
783.3566, 716.6257
783.8387, 716.0682
784.3209, 716.0619
784.8030, 716.1041
785.2851, 715.6412
785.7672, 715.6501
786.2493, 717.9250
786.7314, 720.8309
787.2136, 721.0837
787.6957, 718.5847
788.1778, 715.8917
788.6599, 714.6012
789.1420, 714.5270
789.6241, 715.4386
790.1063, 717.5768
790.5884, 719.4831
791.0705, 721.8253
791.5526, 722.6204
792.0347, 719.3751
792.5168, 714.7653
792.9990, 712.5676
793.4811, 713.1395
793.9632, 714.3925
794.4453, 716.6859
794.9274, 718.6176
795.4095, 719.3646
795.8917, 719.1804
796.3738, 718.1624
796.8559, 716.5591
797.3380, 715.3309
797.8201, 715.4045
798.3022, 716.2118
798.7844, 716.3295
799.2665, 715.7789
799.7486, 715.5834
800.2307, 716.1070
800.7128, 716.2621
801.1949, 714.9830
801.6771, 712.7625
802.1592, 711.5182
802.6413, 711.3428
803.1234, 712.0223
803.6055, 714.9172
804.0876, 717.2358
804.5698, 717.0002
805.0519, 715.5099
805.5340, 714.8341
806.0161, 715.4863
806.4982, 716.5270
806.9803, 717.6990
807.4625, 718.6145
807.9446, 718.6349
808.4267, 717.9051
808.9088, 716.8300
809.3909, 715.5438
809.8730, 714.4315
810.3552, 713.8801
810.8373, 713.8182
811.3194, 713.7593
811.8015, 713.5554
812.2836, 713.8452
812.7657, 715.7399
813.2479, 716.9137
813.7300, 715.1619
814.2121, 711.7848
814.6942, 709.4533
815.1763, 708.3959
815.6584, 708.5372
816.1406, 711.2463
816.6227, 713.8772
817.1048, 713.8818
817.5869, 712.3141
818.0690, 711.5811
818.5511, 712.3716
819.0333, 713.2449
819.5154, 712.5383
819.9975, 710.9160
820.4796, 710.4808
820.9617, 711.2064
821.4438, 711.9965
821.9260, 712.6592
822.4081, 712.8877
822.8902, 712.2175
823.3723, 710.8809
823.8544, 710.3622
824.3365, 711.1478
824.8187, 711.9933
825.3008, 713.1238
825.7829, 714.0418
826.2650, 714.3998
826.7471, 714.4072
827.2292, 714.3631
827.7114, 714.3242
828.1935, 714.4611
828.6756, 715.4926
829.1577, 716.2636
829.6398, 715.1302
830.1219, 712.7549
830.6041, 710.6480
831.0862, 709.3177
831.5683, 708.9893
832.0504, 710.0969
832.5325, 712.1020
833.0146, 712.8313
833.4968, 712.0960
833.9789, 711.3911
834.4610, 710.5782
834.9431, 710.7173
835.4252, 713.1074
835.9073, 716.8528
836.3895, 719.3781
836.8716, 721.0267
837.3537, 720.7722
837.8358, 716.7714
838.3179, 712.7636
838.8000, 710.4376
839.2822, 709.2903
839.7643, 708.5057
840.2464, 707.9412
840.7285, 707.9816
841.2106, 709.2458
841.6927, 710.8945
842.1749, 712.0806
842.6570, 712.8047
843.1391, 713.0891
843.6212, 712.9328
844.1033, 712.1105
844.5854, 710.3519
845.0676, 708.2810
845.5497, 707.7209
846.0318, 709.0890
846.5139, 709.3912
846.9960, 708.0836
847.4781, 706.6008
847.9603, 705.0203
848.4424, 704.0267
848.9245, 705.0920
849.4066, 708.3943
849.8887, 710.3492
850.3708, 709.6931
850.8530, 708.6859
851.3351, 707.8359
851.8172, 707.2383
852.2993, 707.1456
852.7814, 707.3788
853.2635, 707.2828
853.7457, 706.4236
854.2278, 705.5690
854.7099, 705.6977
855.1920, 706.3669
855.6741, 706.4583
856.1563, 706.0285
856.6384, 706.2725
857.1205, 707.7711
857.6026, 709.1078
858.0847, 708.0690
858.5668, 704.7809
859.0490, 703.2609
859.5311, 703.9484
860.0132, 705.1415
860.4953, 706.9644
860.9774, 708.5192
861.4595, 709.1442
861.9417, 708.8752
862.4238, 707.7082
862.9059, 704.5165
863.3880, 702.5795
863.8701, 703.8243
864.3522, 705.1467
864.8344, 704.2137
865.3165, 702.1398
865.7986, 700.8261
866.2807, 700.7614
866.7628, 701.3561
867.2449, 702.6209
867.7271, 703.9801
868.2092, 704.6719
868.6913, 704.8258
869.1733, 704.8480
869.6555, 704.7969
870.1376, 704.2719
870.6197, 702.8942
871.1018, 701.2048
871.5839, 700.7205
872.0660, 701.6652
872.5482, 701.5286
873.0303, 699.6304
873.5124, 698.3382
873.9945, 699.1912
874.4766, 700.6901
874.9587, 700.5147
875.4409, 698.4374
875.9230, 697.1945
876.4051, 697.1539
876.8872, 697.4792
877.3693, 698.5074
877.8514, 699.3947
878.3336, 699.5314
878.8157, 698.9564
879.2978, 697.7587
879.7799, 695.7574
880.2620, 694.2020
880.7441, 694.1580
881.2263, 694.9076
881.7084, 696.0216
882.1905, 697.1272
882.6726, 697.1785
883.1547, 695.9850
883.6368, 694.9427
884.1190, 695.5316
884.6011, 697.0489
885.0832, 697.1898
885.5653, 695.9677
886.0474, 695.2857
886.5295, 695.4127
887.0117, 696.4323
887.4938, 698.9493
887.9759, 701.6464
888.4580, 701.3965
888.9401, 697.1491
889.4222, 694.0038
889.9044, 691.7527
890.3865, 690.9722
890.8686, 693.3066
891.3507, 695.9738
891.8328, 696.3944
892.3149, 694.8044
892.7971, 693.1340
893.2792, 691.5365
893.7613, 690.4891
894.2434, 690.4607
894.7255, 690.8484
895.2076, 691.1960
895.6898, 691.4836
896.1719, 691.8245
896.6540, 692.2501
897.1361, 692.6112
897.6182, 692.7559
898.1003, 692.7502
898.5825, 692.7119
899.0646, 692.6281
899.5467, 692.4112
900.0288, 692.0523
900.5109, 691.7775
900.9930, 691.7719
901.4752, 691.8820
901.9573, 691.6590
902.4394, 691.0002
902.9215, 690.8085
903.4036, 691.2283
903.8857, 691.7774
904.3679, 692.4521
904.8500, 692.9398
905.3321, 692.7518
905.8142, 691.8920
906.2963, 691.2991
906.7784, 691.3875
907.2606, 691.1520
907.7427, 689.6627
908.2248, 688.6116
908.7069, 689.6282
909.1890, 691.6829
909.6711, 692.6114
910.1533, 691.8408
910.6354, 691.4369
911.1175, 692.9948
911.5996, 694.7531
912.0817, 694.6307
912.5638, 694.0297
913.0460, 695.8307
913.5281, 699.8421
914.0102, 702.8011
914.4923, 702.5393
914.9744, 701.0353
915.4565, 700.8885
915.9387, 701.8531
916.4208, 703.2413
916.9029, 704.9782
917.3850, 707.0801
917.8671, 709.6043
918.3492, 711.8244
918.8314, 712.7684
919.3135, 712.7196
919.7956, 713.9062
920.2777, 716.7149
920.7598, 719.0154
921.2419, 720.1641
921.7241, 721.5106
922.2062, 724.2589
922.6883, 727.5342
923.1704, 729.3268
923.6525, 728.9797
924.1346, 729.6795
924.6168, 732.5538
925.0989, 735.0090
925.5810, 735.7504
926.0631, 736.2872
926.5452, 738.2299
927.0273, 741.1395
927.5095, 743.2167
927.9916, 743.6855
928.4737, 744.1115
928.9558, 745.7627
929.4379, 747.2372
929.9200, 747.3502
930.4022, 746.3626
930.8843, 744.6116
931.3664, 742.3474
931.8485, 740.3256
932.3306, 739.4573
932.8127, 738.4819
933.2949, 735.3315
933.7770, 730.7299
934.2591, 726.3253
934.7412, 722.3810
935.2233, 719.0940
935.7054, 716.5699
936.1876, 714.2872
936.6697, 711.4209
937.1518, 708.1548
937.6339, 705.8961
938.1160, 704.7090
938.5981, 703.7799
939.0803, 702.9348
939.5624, 702.4169
940.0445, 702.6766
940.5266, 703.0870
941.0087, 701.7975
941.4908, 697.8983
941.9730, 695.5836
942.4551, 695.4325
942.9372, 696.0131
943.4193, 697.5124
943.9014, 699.1013
944.3835, 700.0038
944.8657, 700.3568
945.3478, 700.8962
945.8299, 702.4882
946.3120, 702.8025
946.7941, 699.9965
947.2762, 697.2032
947.7584, 696.6178
948.2405, 697.0495
948.7226, 696.7245
949.2047, 695.3654
949.6868, 693.6878
950.1689, 691.7689
950.6511, 690.0378
951.1332, 688.9098
951.6153, 688.1109
952.0974, 687.4618
952.5795, 686.7979
953.0616, 685.6541
953.5438, 683.8918
954.0259, 682.3677
954.5080, 682.3175
954.9901, 682.8231
955.4722, 681.6654
955.9543, 679.4301
956.4365, 678.5715
956.9186, 679.3935
957.4007, 680.1248
957.8828, 679.7025
958.3649, 678.4854
958.8470, 676.8641
959.3292, 674.8840
959.8113, 673.8034
960.2934, 673.6996
960.7755, 673.8214
961.2576, 674.0465
961.7397, 674.1202
962.2219, 673.7077
962.7040, 673.0753
963.1861, 673.3069
963.6682, 675.1685
964.1503, 675.5146
964.6324, 673.3810
965.1146, 671.3694
965.5967, 670.4133
966.0788, 669.9651
966.5609, 669.1854
967.0430, 668.2668
967.5251, 668.6592
968.0073, 672.5078
968.4894, 674.4247
968.9715, 672.1642
969.4536, 669.7264
969.9357, 669.4194
970.4178, 670.0436
970.9000, 669.7027
971.3821, 668.2990
971.8642, 667.5473
972.3463, 668.7321
972.8284, 669.8090
973.3105, 669.5614
973.7927, 668.9658
974.2748, 668.8057
974.7569, 669.0750
975.2390, 669.7565
975.7211, 670.7741
976.2032, 671.2802
976.6854, 670.1541
977.1675, 668.7146
977.6496, 668.4487
978.1317, 668.8264
978.6138, 668.9249
979.0959, 668.7172
979.5781, 668.6314
980.0602, 668.8649
980.5423, 669.3645
981.0244, 670.4335
981.5065, 671.5713
981.9886, 671.2784
982.4708, 669.8943
982.9529, 668.8848
983.4350, 668.5578
983.9171, 669.0663
984.3992, 670.6253
984.8813, 672.2321
985.3635, 671.9504
985.8456, 669.9290
986.3277, 668.1353
986.8098, 666.5554
987.2919, 665.5375
987.7740, 665.1992
988.2562, 665.3292
988.7383, 665.8623
989.2204, 666.5707
989.7025, 666.7742
990.1846, 666.3115
990.6667, 666.1616
991.1489, 666.5219
991.6310, 666.5936
992.1131, 665.7339
992.5952, 665.1321
993.0773, 666.3484
993.5594, 668.7176
994.0416, 669.1109
994.5237, 665.4285
995.0058, 664.1914
995.4879, 667.9738
995.9700, 670.9465
996.4521, 670.4369
996.9343, 668.9952
997.4164, 669.5587
997.8985, 671.6014
998.3806, 671.6994
998.8627, 667.7067
999.3448, 665.1390
999.8270, 665.7106
1000.309, 667.0163
1000.791, 668.3701
1001.273, 669.4169
1001.755, 669.5391
1002.238, 668.8948
1002.720, 668.7652
1003.202, 670.1566
1003.684, 670.9781
1004.166, 669.2211
1004.648, 667.5891
1005.130, 668.6429
1005.612, 671.1080
1006.094, 672.9301
1006.577, 673.7006
1007.059, 673.9471
1007.541, 673.4575
1008.023, 673.4386
1008.505, 675.5564
1008.987, 678.1067
1009.469, 679.0516
1009.951, 678.7239
1010.433, 677.9775
1010.916, 677.1880
1011.398, 676.9088
1011.880, 677.6042
1012.362, 678.8763
1012.844, 680.4637
1013.326, 682.1803
1013.808, 683.8134
1014.290, 685.2344
1014.773, 685.9486
1015.255, 685.8791
1015.737, 686.1223
1016.219, 687.9434
1016.701, 690.2252
1017.183, 690.2390
1017.665, 692.1244
1018.147, 693.8617
1018.629, 694.1777
1019.112, 697.0971
1019.594, 697.7464
1020.076, 698.0824
1020.558, 700.3913
1021.040, 703.6505
1021.522, 704.7336
1022.004, 703.8760
1022.486, 703.1429
1022.969, 702.7621
1023.451, 702.6035
1023.933, 702.5847
1024.415, 703.0739
1024.897, 704.6918
1025.379, 704.9886
1025.861, 707.8780
1026.343, 707.0922
1026.825, 707.4157
1027.308, 709.2439
1027.790, 711.5953
1028.272, 714.2361
1028.754, 716.4324
1029.236, 717.3099
1029.718, 716.8795
1030.200, 714.9872
1030.682, 711.2311
1031.165, 707.9988
1031.647, 705.7277
1032.129, 703.3007
1032.611, 700.0651
1033.093, 696.6013
1033.575, 693.5740
1034.057, 690.9930
1034.539, 688.9922
1035.021, 687.9402
1035.504, 686.3853
1035.986, 683.9641
1036.468, 681.4586
1036.950, 678.8848
1037.432, 676.7833
1037.914, 675.9473
1038.396, 676.3262
1038.878, 676.9195
1039.360, 677.9135
1039.843, 678.7247
1040.325, 678.7559
1040.807, 679.3969
1041.289, 681.7705
1041.771, 684.6591
1042.253, 686.5385
1042.735, 687.4583
1043.217, 688.5778
1043.700, 689.5834
1044.182, 691.2935
1044.664, 693.6848
1045.146, 696.8554
1045.628, 701.1490
1046.110, 706.0350
1046.592, 711.0019
1047.074, 716.0434
1047.557, 721.0945
1048.039, 726.4948
1048.521, 731.3424
1049.003, 735.1979
1049.485, 738.9074
1049.967, 742.3356
1050.449, 746.1279
1050.931, 751.3622
1051.413, 757.7343
1051.896, 763.2457
1052.378, 766.8871
1052.860, 771.0443
1053.342, 775.8369
1053.824, 781.5863
1054.306, 789.6918
1054.788, 797.8686
1055.270, 803.2469
1055.752, 806.3445
1056.235, 810.3959
1056.717, 816.3828
1057.199, 822.4332
1057.681, 828.7548
1058.163, 834.1868
1058.645, 838.8304
1059.127, 841.8151
1059.609, 841.9059
1060.092, 839.5414
1060.574, 836.5306
1061.056, 833.6392
1061.538, 828.7419
1062.020, 820.9251
1062.502, 811.1730
1062.984, 798.8936
1063.466, 785.7638
1063.948, 773.1222
1064.431, 761.1263
1064.913, 749.3355
1065.395, 737.3915
1065.877, 727.4630
1066.359, 721.4512
1066.841, 716.4991
1067.323, 711.2614
1067.805, 706.2396
1068.287, 701.8704
1068.770, 698.1670
1069.252, 694.9544
1069.734, 692.1535
1070.216, 690.2646
1070.698, 690.4996
1071.180, 690.4290
1071.662, 688.6013
1072.144, 686.0601
1072.627, 683.3190
1073.109, 680.7982
1073.591, 679.0804
1074.073, 678.2965
1074.555, 678.1144
1075.037, 678.9034
1075.519, 679.6016
1076.001, 679.8086
1076.484, 679.5844
1076.966, 678.5970
1077.448, 677.3904
1077.930, 676.8928
1078.412, 677.2230
1078.894, 677.6677
1079.376, 678.0477
1079.858, 678.2950
1080.340, 678.2648
1080.823, 678.1966
1081.305, 678.2274
1081.787, 678.3727
1082.269, 678.7169
1082.751, 679.2035
1083.233, 679.4285
1083.715, 678.7924
1084.197, 678.9442
1084.679, 682.0656
1085.161, 684.7311
1085.644, 684.3779
1086.126, 682.2473
1086.608, 679.2518
1087.090, 676.1070
1087.572, 674.8415
1088.054, 676.9485
1088.536, 677.5180
1089.018, 672.9036
1089.501, 667.9130
1089.983, 665.5696
1090.465, 664.2404
1090.947, 662.0380
1091.429, 659.1966
1091.911, 656.9557
1092.393, 655.6721
1092.875, 654.4922
1093.358, 652.8340
1093.840, 651.5154
1094.322, 650.9043
1094.804, 650.8177
1095.286, 651.6976
1095.768, 652.7500
1096.250, 652.2159
1096.732, 649.7971
1097.214, 648.0150
1097.697, 647.7245
1098.179, 648.1891
1098.661, 650.2423
1099.143, 651.8297
1099.625, 650.7770
1100.107, 648.6857
1100.589, 648.1418
1101.071, 649.2679
1101.553, 650.1533
1102.036, 650.2587
1102.518, 650.1686
1103.000, 649.8638
1103.482, 649.5956
1103.964, 649.6431
1104.446, 649.6931
1104.928, 649.3204
1105.410, 648.6060
1105.893, 648.0297
1106.375, 647.7257
1106.857, 647.3943
1107.339, 646.6999
1107.821, 646.3306
1108.303, 646.9962
1108.785, 647.6863
1109.267, 647.2946
1109.750, 646.2962
1110.232, 646.0717
1110.714, 646.9750
1111.196, 647.3093
1111.678, 646.1641
1112.160, 645.4875
1112.642, 646.2912
1113.124, 647.0362
1113.606, 646.4124
1114.089, 645.3145
1114.571, 645.2723
1115.053, 646.3559
1115.535, 647.2823
1116.017, 648.9810
1116.499, 648.9590
1116.981, 645.3033
1117.463, 642.3224
1117.945, 642.1681
1118.428, 643.1199
1118.910, 643.2419
1119.392, 642.7952
1119.874, 643.4091
1120.356, 643.1628
1120.838, 642.3682
1121.320, 643.5433
1121.802, 641.1891
1122.285, 642.0739
1122.767, 643.1263
1123.249, 641.4465
1123.731, 642.9829
1124.213, 639.0853
1124.695, 643.3137
1125.177, 645.0266
1125.659, 643.2363
1126.141, 642.2488
1126.624, 643.1473
1127.106, 643.8715
1127.588, 643.1212
1128.070, 641.9355
1128.552, 641.8238
1129.034, 642.6719
1129.516, 643.5552
1129.998, 644.5135
1130.480, 645.2705
1130.963, 645.8668
1131.445, 645.6546
1131.927, 644.2765
1132.409, 642.6544
1132.891, 641.6599
1133.373, 641.1150
1133.855, 640.4835
1134.337, 640.3127
1134.820, 639.8011
1135.302, 640.4866
1135.784, 641.1807
1136.266, 641.7224
1136.748, 641.9802
1137.230, 641.8455
1137.712, 641.6432
1138.194, 641.9078
1138.677, 642.4805
1139.159, 642.6135
1139.641, 642.5336
1140.123, 643.6369
1140.605, 645.8060
1141.087, 647.1465
1141.569, 646.9210
1142.051, 645.7744
1142.533, 644.1083
1143.016, 642.3017
1143.498, 640.5183
1143.980, 639.2515
1144.462, 639.9612
1144.944, 642.0743
1145.426, 643.9337
1145.908, 645.1307
1146.390, 646.0331
1146.872, 646.8566
1147.355, 647.3151
1147.837, 646.7422
1148.319, 646.0045
1148.801, 646.5701
1149.283, 647.3988
1149.765, 646.6017
1150.247, 644.5566
1150.729, 642.7881
1151.212, 641.7830
1151.694, 641.5016
1152.176, 642.3767
1152.658, 643.3342
1153.140, 643.7996
1153.622, 643.9379
1154.104, 643.7986
1154.586, 643.4912
1155.068, 642.9805
1155.551, 642.4048
1156.033, 642.3820
1156.515, 643.3157
1156.997, 644.1719
1157.479, 644.6429
1157.961, 644.9218
1158.443, 644.9242
1158.925, 644.9269
1159.407, 645.4684
1159.890, 646.1100
1160.372, 645.6572
1160.854, 643.8183
1161.336, 642.6956
1161.818, 642.8735
1162.300, 643.1462
1162.782, 643.5292
1163.264, 643.7740
1163.747, 643.5955
1164.229, 643.4008
1164.711, 643.8015
1165.193, 644.5994
1165.675, 644.6710
1166.157, 643.7585
1166.639, 642.9172
1167.121, 642.0739
1167.604, 641.5627
1168.086, 641.5910
1168.568, 641.5510
1169.050, 640.8677
1169.532, 640.2787
1170.014, 641.2614
1170.496, 643.5810
1170.978, 644.7648
1171.460, 644.7894
1171.943, 644.7388
1172.425, 644.7460
1172.907, 643.5209
1173.389, 640.5071
1173.871, 638.1949
1174.353, 639.0211
1174.835, 641.3523
1175.317, 641.9385
1175.799, 641.2383
1176.282, 640.5273
1176.764, 639.9901
1177.246, 640.3976
1177.728, 641.6218
1178.210, 642.1666
1178.692, 641.3258
1179.174, 640.2078
1179.656, 639.6591
1180.139, 639.7049
1180.621, 641.2649
1181.103, 642.8254
1181.585, 640.9896
1182.067, 637.6915
1182.549, 638.1072
1183.031, 642.5009
1183.513, 645.8091
1183.995, 645.4783
1184.478, 644.5778
1184.960, 645.0901
1185.442, 645.4088
1185.924, 644.0088
1186.406, 642.2593
1186.888, 641.4863
1187.370, 641.5707
1187.852, 642.1555
1188.334, 643.2094
1188.817, 643.6443
1189.299, 642.7769
1189.781, 641.9854
1190.263, 641.3492
1190.745, 641.0292
1191.227, 641.4197
1191.709, 641.8752
1192.191, 641.5453
1192.674, 640.8317
1193.156, 641.3095
1193.638, 640.8173
1194.120, 640.4570
1194.602, 641.3303
1195.084, 640.3489
1195.566, 642.2806
1196.048, 644.0276
1196.531, 643.9330
1197.013, 642.9256
1197.495, 642.0692
1197.977, 641.4198
1198.459, 641.1450
1198.941, 641.2585
1199.423, 642.2610
1199.905, 644.0081
1200.387, 644.2626
1200.870, 642.6248
1201.352, 641.7797
1201.834, 643.4167
1202.316, 645.3273
1202.798, 644.3792
1203.280, 642.1942
1203.762, 641.6599
1204.244, 642.1116
1204.726, 642.5886
1205.209, 642.8008
1205.691, 642.2071
1206.173, 640.8571
1206.655, 639.8209
1207.137, 639.7010
1207.619, 639.8507
1208.101, 639.9005
1208.583, 639.9789
1209.066, 639.9630
1209.548, 640.2142
1210.030, 641.9189
1210.512, 643.9382
1210.994, 643.1738
1211.476, 639.1827
1211.958, 637.1699
1212.440, 640.0632
1212.922, 642.0105
1213.405, 641.3968
1213.887, 640.7609
1214.369, 641.3033
1214.851, 641.8994
1215.333, 641.5690
1215.815, 640.5764
1216.297, 639.5480
1216.779, 638.4489
1217.261, 637.6494
1217.744, 637.1102
1218.226, 637.2088
1218.708, 638.1437
1219.190, 638.5455
1219.672, 637.7728
1220.154, 636.9200
1220.636, 637.1462
1221.118, 637.6464
1221.600, 636.0389
1222.083, 633.3265
1222.565, 633.5108
1223.047, 636.0206
1223.529, 639.1174
1224.011, 642.0172
1224.493, 642.6405
1224.975, 640.3314
1225.457, 637.9932
1225.940, 637.8885
1226.422, 638.6239
1226.904, 639.2531
1227.386, 639.6490
1227.868, 639.6579
1228.350, 639.3494
1228.832, 638.3146
1229.314, 637.1127
1229.797, 637.8104
1230.279, 641.2439
1230.761, 642.9461
1231.243, 639.7346
1231.725, 637.4835
1232.207, 638.4153
1232.689, 639.7932
1233.171, 640.0104
1233.653, 640.1483
1234.135, 641.6406
1234.618, 643.8599
1235.100, 644.5822
1235.582, 643.6007
1236.064, 642.4060
1236.546, 640.9240
1237.028, 639.5745
1237.510, 638.3718
1237.992, 637.5984
1238.475, 637.3563
1238.957, 637.9143
1239.439, 639.7532
1239.921, 641.9361
1240.403, 642.6755
1240.885, 642.0219
1241.367, 639.1955
1241.849, 635.3104
1242.332, 633.9863
1242.814, 635.1915
1243.296, 636.2963
1243.778, 636.2975
1244.260, 635.8951
1244.742, 635.4026
1245.224, 634.9875
1245.706, 634.6021
1246.188, 634.5323
1246.671, 635.1241
1247.153, 636.0881
1247.635, 637.3220
1248.117, 638.5498
1248.599, 639.0987
1249.081, 638.8051
1249.563, 638.4208
1250.045, 637.8173
1250.527, 637.4645
1251.010, 637.4836
1251.492, 637.6318
1251.974, 638.0227
1252.456, 638.0858
1252.938, 637.1461
1253.420, 635.8129
1253.902, 635.4921
1254.384, 636.1269
1254.867, 636.8799
1255.349, 637.7343
1255.831, 638.2152
1256.313, 638.3025
1256.795, 638.2755
1257.277, 638.2522
1257.759, 638.5646
1258.241, 639.6189
1258.724, 640.0130
1259.206, 637.0745
1259.688, 633.4277
1260.170, 632.3112
1260.652, 632.7953
1261.134, 633.9951
1261.616, 635.3967
1262.098, 636.3846
1262.580, 636.8365
1263.063, 636.8782
1263.545, 636.3654
1264.027, 635.9131
1264.509, 635.5914
1264.991, 635.4846
1265.473, 636.1454
1265.955, 636.4047
1266.437, 634.9598
1266.919, 633.3333
1267.402, 633.8723
1267.884, 636.1060
1268.366, 637.0775
1268.848, 636.6367
1269.330, 636.3275
1269.812, 636.1926
1270.294, 635.8848
1270.776, 635.3433
1271.259, 635.2976
1271.741, 636.1129
1272.223, 636.7029
1272.705, 635.7858
1273.187, 634.3901
1273.669, 633.9305
1274.151, 634.1277
1274.633, 635.0276
1275.115, 636.0010
1275.598, 635.7289
1276.080, 634.5637
1276.562, 634.0745
1277.044, 634.6705
1277.526, 635.0312
1278.008, 634.3100
1278.490, 633.8491
1278.972, 634.1586
1279.454, 634.5855
1279.937, 635.2274
1280.419, 635.4190
1280.901, 634.0912
1281.383, 635.2814
1281.865, 633.3615
1282.347, 636.4094
1282.829, 638.1720
1283.311, 638.6603
1283.794, 637.2070
1284.276, 633.8105
1284.758, 632.2269
1285.240, 633.3395
1285.722, 634.8300
1286.204, 635.4005
##END=



