##NAMES=Tremolite
##RRUFFID=R040109
##IDEAL CHEMISTRY=[box]Ca_2_Mg_5_Si_8_O_22_(OH)_2_
##LOCALITY=Cassiar, British Columbia, Canada
##OWNER=RRUFF
##SOURCE=University of Arizona Mineral Museum
##DESCRIPTION=Green fine-grained massive
##STATUS=The identification of this mineral has been confirmed by X-ray diffraction and chemical analysis
##URL=rruff.info/R040109
##MEASURED CHEMISTRY=[box]Ca_1.99_(Mg_0.90_Fe_0.08_Al_0.01_)_5_Si_8.01_O_22_(OH)_2_
154.5755, 27282.30
155.0576, 27366.03
155.5397, 27441.47
156.0219, 27567.68
156.5040, 27768.81
156.9861, 28018.16
157.4682, 28293.71
157.9503, 28596.99
158.4324, 28906.67
158.9146, 29216.97
159.3967, 29521.06
159.8788, 29796.75
160.3609, 30009.21
160.8430, 30200.17
161.3251, 30426.46
161.8073, 30691.47
162.2894, 30980.24
162.7715, 31293.39
163.2536, 31621.05
163.7357, 31953.69
164.2178, 32296.78
164.7000, 32638.53
165.1821, 32951.06
165.6642, 33225.77
166.1463, 33493.22
166.6284, 33783.71
167.1105, 34079.74
167.5927, 34348.93
168.0748, 34562.93
168.5569, 34747.65
169.0390, 34962.86
169.5211, 35222.36
170.0032, 35483.82
170.4854, 35733.16
170.9675, 35969.17
171.4496, 36186.57
171.9317, 36372.38
172.4138, 36542.38
172.8959, 36737.00
173.3781, 36964.52
173.8602, 37201.91
174.3423, 37427.79
174.8244, 37658.97
175.3065, 37921.87
175.7886, 38246.86
176.2708, 38602.68
176.7529, 38915.07
177.2350, 39202.93
177.7171, 39402.46
178.1992, 39491.71
178.6813, 39493.39
179.1635, 39429.10
179.6456, 39294.15
180.1277, 39113.23
180.6098, 38957.61
181.0919, 38836.76
181.5740, 38726.71
182.0562, 38600.60
182.5383, 38483.43
183.0204, 38408.28
183.5025, 38393.41
183.9846, 38426.82
184.4667, 38477.53
184.9489, 38555.46
185.4310, 38633.69
185.9131, 38702.75
186.3952, 38768.38
186.8773, 38836.68
187.3594, 38910.02
187.8416, 38988.88
188.3237, 39077.69
188.8058, 39183.82
189.2879, 39286.27
189.7700, 39383.88
190.2521, 39474.14
190.7343, 39552.78
191.2164, 39616.23
191.6985, 39672.97
192.1806, 39744.51
192.6627, 39842.13
193.1448, 39935.42
193.6270, 40009.43
194.1091, 40082.03
194.5912, 40176.85
195.0733, 40303.80
195.5554, 40440.39
196.0375, 40532.55
196.5197, 40543.62
197.0018, 40580.09
197.4839, 40657.32
197.9660, 40760.08
198.4481, 40881.31
198.9302, 41018.03
199.4124, 41158.32
199.8945, 41280.34
200.3766, 41380.14
200.8587, 41467.68
201.3408, 41554.11
201.8229, 41625.75
202.3051, 41662.02
202.7872, 41660.30
203.2693, 41647.65
203.7514, 41667.92
204.2335, 41732.94
204.7156, 41806.32
205.1978, 41901.15
205.6799, 41992.41
206.1620, 42049.43
206.6441, 42072.34
207.1262, 42101.50
207.6083, 42204.07
208.0905, 42430.89
208.5726, 42598.24
209.0547, 42669.52
209.5368, 42716.93
210.0189, 42771.63
210.5010, 42842.09
210.9832, 42928.64
211.4653, 43036.34
211.9474, 43175.33
212.4295, 43295.52
212.9116, 43359.23
213.3937, 43436.58
213.8759, 43575.97
214.3580, 43767.71
214.8401, 43959.24
215.3222, 44087.98
215.8043, 44133.08
216.2864, 44254.36
216.7686, 44517.13
217.2507, 44794.88
217.7328, 45037.97
218.2149, 45254.30
218.6970, 45482.51
219.1791, 45758.34
219.6613, 46083.55
220.1434, 46391.84
220.6255, 46705.71
221.1076, 46978.53
221.5897, 47212.63
222.0718, 47394.64
222.5540, 47500.93
223.0361, 47510.90
223.5182, 47429.84
224.0003, 47314.42
224.4824, 47141.41
224.9645, 46954.83
225.4467, 46752.32
225.9288, 46543.91
226.4109, 46336.91
226.8930, 46132.80
227.3751, 45941.56
227.8572, 45806.81
228.3393, 45760.21
228.8215, 45733.00
229.3036, 45727.05
229.7857, 45727.78
230.2678, 45715.45
230.7499, 45680.40
231.2320, 45638.05
231.7142, 45631.74
232.1963, 45707.30
232.6784, 45738.00
233.1605, 45696.22
233.6426, 45616.65
234.1247, 45532.86
234.6069, 45455.34
235.0890, 45362.59
235.5711, 45201.32
236.0532, 44900.11
236.5353, 44703.38
237.0174, 44675.55
237.4996, 44712.00
237.9817, 44758.79
238.4638, 44799.57
238.9459, 44830.39
239.4280, 44840.57
239.9101, 44818.56
240.3923, 44819.32
240.8744, 44866.28
241.3565, 44918.74
241.8386, 44966.44
242.3207, 45003.91
242.8028, 45020.80
243.2850, 44988.19
243.7671, 44895.75
244.2492, 44880.67
244.7313, 45041.49
245.2134, 45189.98
245.6955, 45246.05
246.1777, 45230.52
246.6598, 45208.15
247.1419, 45226.06
247.6240, 45279.21
248.1061, 45320.14
248.5882, 45337.11
249.0704, 45357.48
249.5525, 45399.63
250.0346, 45449.95
250.5167, 45486.11
250.9988, 45495.21
251.4809, 45483.72
251.9631, 45469.70
252.4452, 45453.00
252.9273, 45433.66
253.4094, 45422.00
253.8915, 45404.22
254.3736, 45355.32
254.8558, 45258.07
255.3379, 45158.32
255.8200, 45138.39
256.3021, 45221.21
256.7842, 45297.29
257.2664, 45326.89
257.7485, 45342.70
258.2306, 45369.31
258.7127, 45412.16
259.1948, 45455.32
259.6769, 45479.22
260.1591, 45482.77
260.6412, 45492.99
261.1233, 45517.53
261.6054, 45548.76
262.0875, 45584.47
262.5696, 45623.59
263.0518, 45657.82
263.5339, 45675.83
264.0160, 45681.71
264.4981, 45705.70
264.9802, 45777.23
265.4623, 45824.42
265.9445, 45774.50
266.4266, 45654.99
266.9087, 45557.77
267.3908, 45534.46
267.8729, 45561.13
268.3550, 45594.23
268.8372, 45638.80
269.3193, 45669.88
269.8014, 45646.32
270.2835, 45599.05
270.7656, 45583.64
271.2477, 45637.56
271.7299, 45710.23
272.2120, 45736.79
272.6941, 45715.56
273.1762, 45711.35
273.6583, 45778.17
274.1404, 45871.48
274.6226, 45903.79
275.1047, 45843.30
275.5868, 45772.25
276.0689, 45736.96
276.5510, 45734.96
277.0331, 45760.59
277.5153, 45822.54
277.9974, 45897.25
278.4795, 45941.79
278.9616, 45948.93
279.4437, 45965.75
279.9258, 46025.41
280.4080, 46102.06
280.8901, 46141.43
281.3722, 46125.96
281.8543, 46108.43
282.3364, 46160.96
282.8185, 46290.55
283.3007, 46396.71
283.7828, 46463.16
284.2649, 46504.64
284.7470, 46521.71
285.2291, 46518.65
285.7112, 46530.09
286.1934, 46590.66
286.6755, 46698.80
287.1576, 46772.13
287.6397, 46790.84
288.1218, 46797.63
288.6039, 46810.44
289.0861, 46827.95
289.5682, 46843.57
290.0503, 46853.57
290.5324, 46859.07
291.0145, 46864.41
291.4966, 46872.46
291.9788, 46876.91
292.4609, 46866.81
292.9430, 46856.13
293.4251, 46865.78
293.9072, 46902.71
294.3893, 46951.61
294.8715, 46985.62
295.3536, 47001.04
295.8357, 47006.41
296.3178, 46988.74
296.7999, 46971.11
297.2820, 46965.48
297.7642, 46975.55
298.2463, 47004.35
298.7284, 47058.57
299.2105, 47144.27
299.6926, 47213.88
300.1747, 47258.35
300.6569, 47296.29
301.1390, 47326.39
301.6211, 47355.14
302.1032, 47397.41
302.5853, 47467.75
303.0674, 47554.43
303.5496, 47594.73
304.0317, 47551.17
304.5138, 47514.36
304.9959, 47510.82
305.4780, 47519.58
305.9601, 47515.43
306.4423, 47488.58
306.9244, 47455.30
307.4065, 47440.63
307.8886, 47445.46
308.3707, 47466.00
308.8528, 47520.46
309.3350, 47577.67
309.8171, 47623.70
310.2992, 47655.65
310.7813, 47669.44
311.2634, 47650.98
311.7455, 47604.43
312.2277, 47578.54
312.7098, 47591.40
313.1919, 47604.18
313.6740, 47593.71
314.1561, 47564.59
314.6382, 47527.54
315.1204, 47467.25
315.6025, 47410.76
316.0846, 47418.25
316.5667, 47501.82
317.0488, 47577.88
317.5309, 47589.54
318.0131, 47568.46
318.4952, 47567.08
318.9773, 47596.43
319.4594, 47637.43
319.9415, 47680.08
320.4236, 47723.46
320.9058, 47766.73
321.3879, 47814.50
321.8700, 47853.70
322.3521, 47852.02
322.8342, 47798.38
323.3163, 47776.60
323.7985, 47836.77
324.2806, 47930.73
324.7627, 47989.51
325.2448, 48001.98
325.7269, 48018.20
326.2090, 48096.87
326.6912, 48246.60
327.1733, 48326.86
327.6554, 48278.41
328.1375, 48218.11
328.6196, 48200.25
329.1017, 48224.67
329.5839, 48282.84
330.0660, 48374.55
330.5481, 48488.29
331.0302, 48568.80
331.5123, 48613.58
331.9944, 48628.03
332.4766, 48576.08
332.9587, 48510.69
333.4408, 48494.50
333.9229, 48544.49
334.4050, 48622.26
334.8871, 48672.02
335.3693, 48686.26
335.8514, 48690.75
336.3335, 48670.40
336.8156, 48654.72
337.2977, 48661.65
337.7798, 48687.77
338.2620, 48717.83
338.7441, 48739.91
339.2262, 48755.12
339.7083, 48772.54
340.1904, 48786.77
340.6725, 48812.05
341.1547, 48862.60
341.6368, 48921.66
342.1189, 48966.68
342.6010, 48987.92
343.0831, 48999.31
343.5652, 49020.37
344.0474, 49051.87
344.5295, 49088.69
345.0116, 49138.27
345.4937, 49185.86
345.9758, 49216.00
346.4579, 49228.70
346.9401, 49245.77
347.4222, 49282.43
347.9043, 49333.86
348.3864, 49388.37
348.8685, 49446.24
349.3506, 49503.19
349.8328, 49559.13
350.3149, 49611.90
350.7970, 49653.21
351.2791, 49683.89
351.7612, 49700.91
352.2433, 49689.53
352.7254, 49657.25
353.2076, 49648.34
353.6897, 49694.48
354.1718, 49764.32
354.6539, 49767.94
355.1360, 49670.49
355.6181, 49595.41
356.1003, 49576.63
356.5824, 49591.55
357.0645, 49623.67
357.5466, 49667.05
358.0287, 49701.44
358.5108, 49698.27
358.9930, 49641.74
359.4751, 49639.84
359.9572, 49728.79
360.4393, 49827.50
360.9214, 49903.34
361.4035, 49960.30
361.8857, 50015.53
362.3678, 50080.30
362.8499, 50147.78
363.3320, 50188.05
363.8141, 50143.39
364.2962, 50168.45
364.7784, 50340.41
365.2605, 50544.32
365.7426, 50675.30
366.2247, 50714.73
366.7068, 50735.21
367.1889, 50831.43
367.6711, 51012.09
368.1532, 51131.37
368.6353, 51138.26
369.1174, 51135.85
369.5995, 51195.36
370.0816, 51287.50
370.5638, 51340.26
371.0459, 51312.32
371.5280, 51232.19
372.0101, 51139.58
372.4922, 51032.73
372.9743, 50932.68
373.4565, 50855.17
373.9386, 50785.83
374.4207, 50699.18
374.9028, 50586.44
375.3849, 50485.64
375.8670, 50421.86
376.3492, 50383.72
376.8313, 50347.96
377.3134, 50309.09
377.7955, 50278.59
378.2776, 50269.15
378.7597, 50283.38
379.2419, 50302.23
379.7240, 50342.58
380.2061, 50372.10
380.6882, 50351.84
381.1703, 50302.73
381.6524, 50286.78
382.1346, 50340.49
382.6167, 50439.41
383.0988, 50510.61
383.5809, 50541.18
384.0630, 50556.80
384.5451, 50532.57
385.0273, 50510.38
385.5094, 50519.53
385.9915, 50567.15
386.4736, 50649.93
386.9557, 50771.61
387.4378, 50934.52
387.9200, 51082.57
388.4021, 51210.07
388.8842, 51329.03
389.3663, 51425.75
389.8484, 51520.73
390.3305, 51650.04
390.8127, 51838.98
391.2948, 52043.16
391.7769, 52201.32
392.2590, 52312.98
392.7411, 52376.50
393.2232, 52379.61
393.7054, 52340.11
394.1875, 52279.30
394.6696, 52197.25
395.1517, 52087.61
395.6338, 51922.84
396.1159, 51736.98
396.5981, 51590.00
397.0802, 51489.10
397.5623, 51395.85
398.0444, 51284.57
398.5265, 51158.76
399.0086, 51037.81
399.4908, 50917.57
399.9729, 50807.82
400.4550, 50702.35
400.9371, 50612.39
401.4192, 50561.30
401.9013, 50556.73
402.3835, 50575.29
402.8656, 50581.48
403.3477, 50564.63
403.8298, 50569.16
404.3119, 50633.27
404.7940, 50680.54
405.2762, 50650.89
405.7583, 50570.70
406.2404, 50508.08
406.7225, 50505.88
407.2046, 50553.33
407.6867, 50619.86
408.1689, 50735.88
408.6510, 50806.63
409.1331, 50768.56
409.6152, 50712.00
410.0973, 50709.87
410.5794, 50772.23
411.0616, 50854.19
411.5437, 50916.56
412.0258, 50965.09
412.5079, 51031.70
412.9900, 51128.22
413.4721, 51218.69
413.9543, 51277.88
414.4364, 51313.11
414.9185, 51334.36
415.4006, 51350.98
415.8827, 51345.16
416.3648, 51281.10
416.8470, 51181.14
417.3291, 51121.65
417.8112, 51135.12
418.2933, 51174.53
418.7754, 51167.87
419.2575, 51095.97
419.7397, 51042.05
420.2218, 51034.47
420.7039, 51024.85
421.1860, 50975.82
421.6681, 50894.32
422.1502, 50807.70
422.6324, 50731.12
423.1145, 50667.67
423.5966, 50631.73
424.0787, 50643.88
424.5608, 50652.46
425.0429, 50657.73
425.5251, 50653.94
426.0072, 50626.86
426.4893, 50579.46
426.9714, 50541.80
427.4535, 50549.74
427.9356, 50598.70
428.4178, 50633.51
428.8999, 50651.50
429.3820, 50660.08
429.8641, 50646.59
430.3462, 50630.69
430.8283, 50647.15
431.3105, 50718.35
431.7926, 50792.58
432.2747, 50827.76
432.7568, 50830.53
433.2389, 50819.79
433.7210, 50795.44
434.2032, 50775.40
434.6853, 50779.84
435.1674, 50810.17
435.6495, 50858.35
436.1316, 50958.84
436.6137, 51045.66
437.0959, 51074.61
437.5780, 51056.55
438.0601, 51020.75
438.5422, 50980.75
439.0243, 50941.25
439.5064, 50915.31
439.9886, 50915.53
440.4707, 50907.01
440.9528, 50883.38
441.4349, 50856.46
441.9170, 50829.64
442.3991, 50805.92
442.8813, 50791.80
443.3634, 50796.79
443.8455, 50813.55
444.3276, 50808.46
444.8097, 50766.95
445.2918, 50744.72
445.7740, 50805.50
446.2561, 50873.65
446.7382, 50858.90
447.2203, 50738.24
447.7024, 50631.09
448.1845, 50620.04
448.6667, 50672.42
449.1488, 50725.09
449.6309, 50770.44
450.1130, 50811.20
450.5951, 50855.92
451.0772, 50899.49
451.5594, 50902.25
452.0415, 50800.73
452.5236, 50735.17
453.0057, 50791.05
453.4878, 50896.44
453.9699, 50945.49
454.4521, 50909.56
454.9342, 50843.74
455.4163, 50820.92
455.8984, 50852.37
456.3805, 50863.12
456.8626, 50834.87
457.3448, 50803.63
457.8269, 50773.13
458.3090, 50748.46
458.7911, 50737.46
459.2732, 50744.64
459.7553, 50760.75
460.2375, 50771.86
460.7196, 50777.76
461.2017, 50788.38
461.6838, 50798.98
462.1659, 50824.51
462.6480, 50893.23
463.1302, 50994.19
463.6123, 51067.78
464.0944, 51087.54
464.5765, 51081.63
465.0586, 51063.63
465.5407, 51039.14
466.0229, 51027.10
466.5050, 51035.98
466.9871, 51060.63
467.4692, 51091.63
467.9513, 51133.71
468.4334, 51172.41
468.9156, 51224.62
469.3977, 51259.09
469.8798, 51246.05
470.3619, 51197.04
470.8440, 51143.87
471.3261, 51103.94
471.8083, 51080.15
472.2904, 51086.23
472.7725, 51139.43
473.2546, 51175.33
473.7367, 51166.88
474.2188, 51145.81
474.7010, 51125.13
475.1831, 51108.13
475.6652, 51105.27
476.1473, 51133.04
476.6294, 51174.55
477.1115, 51206.39
477.5937, 51227.96
478.0758, 51222.65
478.5579, 51165.10
479.0400, 51089.36
479.5221, 51085.17
480.0042, 51183.45
480.4864, 51263.33
480.9685, 51290.94
481.4506, 51297.75
481.9327, 51307.62
482.4148, 51324.71
482.8969, 51349.77
483.3791, 51386.72
483.8612, 51428.54
484.3433, 51433.92
484.8254, 51368.55
485.3075, 51322.93
485.7896, 51318.61
486.2718, 51330.34
486.7539, 51341.26
487.2360, 51348.18
487.7181, 51352.71
488.2002, 51348.50
488.6823, 51343.21
489.1645, 51366.85
489.6466, 51426.11
490.1287, 51475.69
490.6108, 51486.50
491.0929, 51476.05
491.5750, 51483.48
492.0572, 51517.53
492.5393, 51544.03
493.0214, 51557.92
493.5035, 51554.50
493.9856, 51510.48
494.4677, 51433.84
494.9499, 51383.33
495.4320, 51409.27
495.9141, 51496.09
496.3962, 51543.88
496.8783, 51540.09
497.3604, 51510.85
497.8426, 51425.13
498.3247, 51339.27
498.8068, 51306.39
499.2889, 51327.63
499.7710, 51357.54
500.2531, 51344.59
500.7353, 51310.85
501.2174, 51355.01
501.6995, 51500.71
502.1816, 51624.18
502.6637, 51662.39
503.1458, 51651.64
503.6280, 51650.63
504.1101, 51662.27
504.5922, 51675.43
505.0743, 51687.68
505.5564, 51698.26
506.0385, 51698.69
506.5207, 51692.67
507.0028, 51706.37
507.4849, 51761.12
507.9670, 51844.31
508.4491, 51899.12
508.9312, 51880.98
509.4134, 51900.86
509.8955, 52008.58
510.3776, 52120.73
510.8597, 52177.94
511.3418, 52178.35
511.8239, 52150.00
512.3061, 52096.15
512.7882, 52038.73
513.2703, 52054.23
513.7524, 52160.21
514.2346, 52230.24
514.7167, 52203.26
515.1988, 52132.66
515.6809, 52081.45
516.1630, 52048.37
516.6451, 52045.67
517.1273, 52117.01
517.6094, 52190.81
518.0915, 52185.16
518.5736, 52116.36
519.0557, 52065.98
519.5378, 52079.09
520.0200, 52128.83
520.5021, 52150.74
520.9842, 52126.27
521.4663, 52108.89
521.9484, 52106.03
522.4305, 52102.56
522.9127, 52081.93
523.3948, 52053.97
523.8769, 52045.58
524.3590, 52075.36
524.8411, 52121.49
525.3232, 52143.20
525.8054, 52140.78
526.2875, 52160.98
526.7696, 52225.99
527.2517, 52298.97
527.7338, 52339.21
528.2159, 52350.60
528.6981, 52359.24
529.1802, 52376.43
529.6623, 52384.23
530.1444, 52365.31
530.6265, 52330.62
531.1086, 52298.19
531.5908, 52274.53
532.0729, 52264.73
532.5550, 52284.36
533.0371, 52348.35
533.5192, 52347.32
534.0013, 52191.77
534.4835, 52073.52
534.9656, 52087.71
535.4477, 52158.88
535.9298, 52177.79
536.4119, 52109.02
536.8940, 52026.71
537.3762, 52000.91
537.8583, 52017.13
538.3404, 52028.98
538.8225, 52030.33
539.3046, 52033.06
539.7867, 52045.45
540.2689, 52066.21
540.7510, 52088.22
541.2331, 52122.21
541.7152, 52143.07
542.1973, 52143.48
542.6794, 52130.05
543.1616, 52099.86
543.6437, 52059.12
544.1258, 52031.47
544.6079, 52038.93
545.0900, 52071.45
545.5721, 52083.61
546.0543, 52067.43
546.5364, 52052.53
547.0185, 52037.59
547.5006, 52033.77
547.9827, 52061.21
548.4648, 52115.65
548.9470, 52149.93
549.4291, 52125.97
549.9112, 52083.77
550.3933, 52072.05
550.8754, 52082.93
551.3575, 52074.27
551.8397, 52025.70
552.3218, 51967.41
552.8039, 51948.63
553.2860, 51980.88
553.7681, 52014.81
554.2502, 52042.41
554.7324, 52080.10
555.2145, 52154.87
555.6966, 52237.79
556.1787, 52280.17
556.6608, 52263.46
557.1429, 52226.14
557.6251, 52214.02
558.1072, 52223.75
558.5893, 52227.28
559.0714, 52220.27
559.5535, 52213.02
560.0356, 52214.69
560.5178, 52220.90
560.9999, 52216.38
561.4820, 52182.91
561.9641, 52170.36
562.4462, 52211.40
562.9283, 52270.64
563.4105, 52312.52
563.8926, 52333.36
564.3747, 52344.89
564.8568, 52353.80
565.3389, 52363.74
565.8210, 52397.48
566.3032, 52487.28
566.7853, 52519.14
567.2674, 52412.62
567.7495, 52290.15
568.2316, 52230.03
568.7137, 52224.38
569.1959, 52218.42
569.6780, 52167.57
570.1601, 52125.59
570.6422, 52167.86
571.1243, 52267.38
571.6064, 52324.09
572.0886, 52303.62
572.5707, 52272.04
573.0528, 52314.68
573.5349, 52444.80
574.0170, 52524.55
574.4991, 52546.56
574.9813, 52530.75
575.4634, 52441.40
575.9455, 52337.96
576.4276, 52283.37
576.9097, 52291.66
577.3918, 52336.20
577.8740, 52421.81
578.3561, 52524.05
578.8382, 52542.54
579.3203, 52463.75
579.8024, 52412.45
580.2845, 52462.18
580.7667, 52557.72
581.2488, 52587.00
581.7309, 52533.79
582.2130, 52497.20
582.6951, 52498.92
583.1772, 52513.93
583.6594, 52530.96
584.1415, 52547.37
584.6236, 52559.51
585.1057, 52565.55
585.5878, 52573.12
586.0699, 52599.49
586.5521, 52647.84
587.0342, 52676.12
587.5163, 52676.52
587.9984, 52666.48
588.4805, 52651.58
588.9626, 52633.98
589.4448, 52614.29
589.9269, 52584.80
590.4090, 52573.82
590.8911, 52627.82
591.3732, 52690.19
591.8553, 52670.48
592.3375, 52576.01
592.8196, 52497.55
593.3017, 52497.42
593.7838, 52550.12
594.2659, 52575.97
594.7480, 52559.75
595.2302, 52552.61
595.7123, 52571.02
596.1944, 52588.14
596.6765, 52583.34
597.1586, 52566.70
597.6407, 52566.29
598.1228, 52600.84
598.6049, 52638.39
599.0870, 52650.77
599.5692, 52643.64
600.0513, 52623.19
600.5334, 52590.41
601.0155, 52578.99
601.4976, 52624.54
601.9797, 52716.44
602.4619, 52767.50
602.9440, 52738.45
603.4261, 52720.90
603.9082, 52733.46
604.3903, 52750.54
604.8724, 52758.39
605.3546, 52753.23
605.8367, 52728.05
606.3188, 52660.98
606.8009, 52595.81
607.2830, 52619.81
607.7651, 52718.29
608.2473, 52767.27
608.7294, 52727.16
609.2115, 52666.38
609.6936, 52656.05
610.1757, 52696.41
610.6578, 52708.95
611.1400, 52672.61
611.6221, 52637.98
612.1042, 52598.98
612.5863, 52578.29
613.0684, 52615.62
613.5505, 52702.63
614.0327, 52776.68
614.5148, 52789.46
614.9969, 52756.61
615.4790, 52699.59
615.9611, 52615.19
616.4432, 52587.58
616.9254, 52664.50
617.4075, 52764.88
617.8896, 52796.10
618.3717, 52756.45
618.8538, 52721.42
619.3359, 52676.99
619.8181, 52657.06
620.3002, 52685.92
620.7823, 52741.20
621.2644, 52804.30
621.7465, 52866.21
622.2286, 52910.59
622.7108, 52918.95
623.1929, 52899.67
623.6750, 52881.37
624.1571, 52861.30
624.6392, 52861.13
625.1213, 52904.00
625.6035, 52950.68
626.0856, 52941.45
626.5677, 52880.15
627.0498, 52851.54
627.5319, 52880.22
628.0140, 52930.13
628.4962, 53017.47
628.9783, 53100.66
629.4604, 53102.43
629.9425, 53015.57
630.4246, 52925.14
630.9067, 52916.96
631.3889, 52976.49
631.8710, 53022.95
632.3531, 53054.41
632.8352, 53082.13
633.3173, 53119.64
633.7994, 53144.62
634.2816, 53118.57
634.7637, 53045.34
635.2458, 53006.06
635.7279, 53047.74
636.2100, 53095.03
636.6921, 53104.17
637.1743, 53091.79
637.6564, 53081.54
638.1385, 53080.97
638.6206, 53091.43
639.1027, 53114.83
639.5848, 53150.36
640.0670, 53198.01
640.5491, 53268.72
641.0312, 53311.07
641.5133, 53286.91
641.9954, 53250.64
642.4775, 53261.69
642.9597, 53316.17
643.4418, 53367.27
643.9239, 53408.07
644.4060, 53440.24
644.8881, 53470.23
645.3702, 53490.01
645.8524, 53466.10
646.3345, 53403.28
646.8166, 53378.71
647.2987, 53476.21
647.7808, 53664.43
648.2629, 53792.68
648.7451, 53845.99
649.2272, 53893.36
649.7093, 53932.64
650.1914, 53993.38
650.6735, 54143.40
651.1556, 54359.84
651.6378, 54474.44
652.1199, 54378.89
652.6020, 54267.48
653.0841, 54204.39
653.5662, 54192.70
654.0483, 54255.07
654.5305, 54381.24
655.0126, 54509.60
655.4947, 54593.57
655.9768, 54637.56
656.4589, 54638.12
656.9410, 54578.48
657.4232, 54583.91
657.9053, 54707.84
658.3874, 54863.88
658.8695, 54960.97
659.3516, 55019.51
659.8337, 55133.27
660.3159, 55353.92
660.7980, 55577.52
661.2801, 55755.21
661.7622, 55927.05
662.2443, 56131.55
662.7264, 56373.78
663.2086, 56650.16
663.6907, 56963.55
664.1728, 57295.37
664.6549, 57595.48
665.1370, 57861.44
665.6191, 58178.09
666.1013, 58567.18
666.5834, 58992.06
667.0655, 59430.69
667.5476, 59883.22
668.0297, 60354.45
668.5118, 60870.64
668.9940, 61360.25
669.4761, 61798.77
669.9582, 62213.62
670.4403, 62646.23
670.9224, 63077.96
671.4045, 63466.63
671.8867, 63799.46
672.3688, 64035.98
672.8509, 64117.31
673.3330, 64050.16
673.8151, 63891.48
674.2972, 63652.91
674.7794, 63269.45
675.2615, 62660.09
675.7436, 61911.61
676.2257, 61258.39
676.7078, 60752.63
677.1899, 60221.46
677.6721, 59648.13
678.1542, 59060.18
678.6363, 58446.81
679.1184, 57841.73
679.6005, 57291.26
680.0826, 56811.18
680.5648, 56399.49
681.0469, 56078.24
681.5290, 55822.71
682.0111, 55577.87
682.4932, 55342.55
682.9753, 55119.98
683.4575, 54905.32
683.9396, 54726.27
684.4217, 54635.18
684.9038, 54660.53
685.3859, 54624.27
685.8680, 54471.04
686.3502, 54321.24
686.8323, 54192.16
687.3144, 54087.42
687.7965, 54015.09
688.2786, 53973.34
688.7607, 53940.25
689.2429, 53902.32
689.7250, 53867.46
690.2071, 53852.60
690.6892, 53848.32
691.1713, 53821.50
691.6534, 53763.84
692.1356, 53708.85
692.6177, 53695.12
693.0998, 53714.25
693.5819, 53684.86
694.0640, 53563.19
694.5461, 53490.69
695.0283, 53540.59
695.5104, 53605.46
695.9925, 53605.11
696.4746, 53555.98
696.9567, 53527.38
697.4388, 53569.62
697.9210, 53585.91
698.4031, 53481.63
698.8852, 53346.88
699.3673, 53306.73
699.8494, 53356.99
700.3315, 53408.75
700.8137, 53408.70
701.2958, 53370.43
701.7779, 53307.91
702.2600, 53217.54
702.7421, 53186.91
703.2242, 53256.63
703.7064, 53298.97
704.1885, 53204.89
704.6706, 53045.44
705.1527, 52998.73
705.6348, 53113.28
706.1169, 53192.43
706.5991, 53182.15
707.0812, 53156.78
707.5633, 53152.24
708.0454, 53166.37
708.5275, 53196.07
709.0096, 53238.81
709.4918, 53272.77
709.9739, 53281.54
710.4560, 53264.90
710.9381, 53211.43
711.4202, 53123.86
711.9023, 53048.20
712.3845, 52999.66
712.8666, 52973.74
713.3487, 52966.18
713.8308, 52977.41
714.3129, 52998.47
714.7950, 53066.08
715.2772, 53091.90
715.7593, 53025.21
716.2414, 52941.41
716.7235, 52898.41
717.2056, 52895.71
717.6877, 52904.54
718.1699, 52913.58
718.6520, 52930.07
719.1341, 52971.25
719.6162, 53019.35
720.0983, 53041.66
720.5804, 53036.23
721.0626, 53023.03
721.5447, 53014.63
722.0268, 53010.71
722.5089, 53011.17
722.9910, 53016.73
723.4731, 53024.25
723.9553, 53043.29
724.4374, 53043.99
724.9195, 52987.01
725.4016, 52909.40
725.8837, 52891.05
726.3658, 52954.23
726.8480, 52999.93
727.3301, 53001.64
727.8122, 52989.95
728.2943, 52965.59
728.7764, 52946.88
729.2585, 52971.53
729.7407, 53044.30
730.2228, 53108.80
730.7049, 53124.01
731.1870, 53090.45
731.6691, 52973.41
732.1512, 52788.44
732.6334, 52694.42
733.1155, 52745.67
733.5976, 52844.96
734.0797, 52893.39
734.5618, 52896.19
735.0439, 52926.69
735.5261, 53023.43
736.0082, 53083.16
736.4903, 53069.40
736.9724, 53040.16
737.4545, 53017.01
737.9366, 53008.05
738.4188, 53034.92
738.9009, 53127.12
739.3830, 53197.50
739.8651, 53171.85
740.3472, 53115.14
740.8293, 53105.93
741.3115, 53137.39
741.7936, 53165.96
742.2757, 53171.18
742.7578, 53153.95
743.2399, 53102.30
743.7220, 53021.08
744.2042, 52981.42
744.6863, 52990.92
745.1684, 53003.32
745.6505, 52996.66
746.1326, 52991.28
746.6147, 53021.66
747.0969, 53095.65
747.5790, 53130.23
748.0611, 53081.64
748.5432, 53052.92
749.0253, 53110.66
749.5074, 53166.84
749.9896, 53119.97
750.4717, 52990.52
750.9538, 52895.09
751.4359, 52900.56
751.9180, 52936.82
752.4001, 52948.15
752.8823, 52941.17
753.3644, 52925.53
753.8465, 52903.73
754.3286, 52884.71
754.8107, 52876.25
755.2928, 52856.57
755.7750, 52766.80
756.2571, 52592.73
756.7392, 52486.64
757.2213, 52467.11
757.7034, 52475.61
758.1855, 52490.83
758.6677, 52517.22
759.1498, 52584.47
759.6319, 52706.39
760.1140, 52727.97
760.5961, 52499.27
761.0782, 52332.72
761.5604, 52407.88
762.0425, 52563.28
762.5246, 52626.81
763.0067, 52587.22
763.4888, 52533.20
763.9709, 52504.70
764.4531, 52501.98
764.9352, 52555.36
765.4173, 52629.35
765.8994, 52614.36
766.3815, 52506.66
766.8636, 52426.29
767.3458, 52450.98
767.8279, 52531.22
768.3100, 52559.86
768.7921, 52529.09
769.2742, 52488.18
769.7563, 52417.88
770.2385, 52381.49
770.7206, 52431.43
771.2027, 52513.70
771.6848, 52554.81
772.1669, 52554.42
772.6490, 52525.96
773.1312, 52412.55
773.6133, 52341.21
774.0954, 52406.79
774.5775, 52508.72
775.0596, 52541.68
775.5417, 52500.22
776.0239, 52435.03
776.5060, 52361.27
776.9881, 52301.90
777.4702, 52289.81
777.9523, 52309.99
778.4344, 52329.99
778.9166, 52345.71
779.3987, 52369.25
779.8808, 52410.31
780.3629, 52440.99
780.8450, 52390.58
781.3271, 52242.21
781.8093, 52193.53
782.2914, 52283.71
782.7735, 52371.39
783.2556, 52418.40
783.7377, 52422.47
784.2198, 52355.51
784.7020, 52214.36
785.1841, 52145.73
785.6662, 52211.08
786.1483, 52278.30
786.6304, 52316.41
787.1125, 52338.43
787.5947, 52361.54
788.0768, 52380.27
788.5589, 52368.27
789.0410, 52302.34
789.5231, 52243.12
790.0052, 52254.45
790.4874, 52298.79
790.9695, 52318.98
791.4516, 52313.73
791.9337, 52304.52
792.4158, 52300.53
792.8979, 52287.03
793.3801, 52231.33
793.8622, 52143.05
794.3443, 52129.93
794.8264, 52206.68
795.3085, 52265.07
795.7906, 52271.55
796.2728, 52255.82
796.7549, 52247.68
797.2370, 52244.58
797.7191, 52219.46
798.2012, 52141.54
798.6833, 52086.04
799.1655, 52063.16
799.6476, 52056.64
800.1297, 52068.30
800.6118, 52086.41
801.0939, 52088.99
801.5760, 52068.59
802.0582, 52050.18
802.5403, 52051.27
803.0224, 52055.41
803.5045, 52040.32
803.9866, 52019.26
804.4688, 52026.75
804.9509, 52066.00
805.4330, 52092.73
805.9151, 52060.50
806.3972, 52003.73
806.8793, 52009.07
807.3615, 52065.00
807.8436, 52078.62
808.3257, 52031.96
808.8078, 51977.42
809.2899, 51947.00
809.7720, 51937.55
810.2542, 51945.03
810.7363, 51980.00
811.2184, 51990.61
811.7005, 51947.29
812.1826, 51928.36
812.6647, 51996.98
813.1469, 52083.38
813.6290, 52094.58
814.1111, 52030.48
814.5932, 52005.18
815.0753, 52084.30
815.5574, 52142.21
816.0396, 52103.95
816.5217, 52051.00
817.0038, 52079.40
817.4859, 52161.39
817.9680, 52187.55
818.4501, 52101.95
818.9323, 51999.41
819.4144, 51960.59
819.8965, 51955.87
820.3786, 51931.06
820.8607, 51896.77
821.3428, 51913.76
821.8250, 52000.91
822.3071, 52087.96
822.7892, 52093.76
823.2713, 52037.38
823.7534, 51998.61
824.2355, 51977.73
824.7177, 51965.79
825.1998, 51965.53
825.6819, 51952.17
826.1640, 51895.18
826.6461, 51819.74
827.1282, 51817.73
827.6104, 51955.47
828.0925, 52012.93
828.5746, 51934.44
829.0567, 51842.89
829.5388, 51756.44
830.0209, 51696.05
830.5031, 51698.82
830.9852, 51765.76
831.4673, 51819.63
831.9494, 51850.45
832.4315, 51854.32
832.9136, 51797.50
833.3958, 51736.54
833.8779, 51734.18
834.3600, 51781.45
834.8421, 51835.87
835.3242, 51885.26
835.8063, 51899.27
836.2885, 51816.00
836.7706, 51697.20
837.2527, 51644.63
837.7348, 51651.34
838.2169, 51671.70
838.6990, 51689.37
839.1812, 51707.61
839.6633, 51731.13
840.1454, 51756.73
840.6275, 51769.20
841.1096, 51768.09
841.5917, 51788.83
842.0739, 51849.18
842.5560, 51867.25
843.0381, 51765.99
843.5202, 51612.39
844.0023, 51583.87
844.4844, 51737.96
844.9666, 51824.45
845.4487, 51815.73
845.9308, 51780.60
846.4129, 51715.71
846.8950, 51652.86
847.3771, 51627.96
847.8593, 51638.30
848.3414, 51644.17
848.8235, 51629.75
849.3056, 51624.36
849.7877, 51665.70
850.2698, 51692.45
850.7520, 51623.11
851.2341, 51509.03
851.7162, 51474.30
852.1983, 51561.59
852.6804, 51651.50
853.1625, 51660.30
853.6447, 51637.51
854.1268, 51630.03
854.6089, 51633.72
855.0910, 51641.70
855.5731, 51648.78
856.0552, 51635.54
856.5374, 51579.70
857.0195, 51519.30
857.5016, 51533.50
857.9837, 51603.73
858.4658, 51643.40
858.9479, 51645.43
859.4301, 51661.19
859.9122, 51718.88
860.3943, 51769.79
860.8764, 51733.81
861.3585, 51616.28
861.8406, 51568.98
862.3228, 51615.25
862.8049, 51638.10
863.2870, 51599.49
863.7691, 51557.20
864.2512, 51565.49
864.7333, 51603.64
865.2155, 51592.96
865.6976, 51475.80
866.1797, 51430.65
866.6618, 51515.58
867.1439, 51599.85
867.6260, 51643.84
868.1082, 51659.93
868.5903, 51658.58
869.0724, 51641.85
869.5545, 51620.43
870.0366, 51595.68
870.5187, 51568.62
871.0009, 51536.89
871.4830, 51505.45
871.9651, 51474.10
872.4472, 51447.75
872.9293, 51437.65
873.4114, 51448.02
873.8936, 51463.08
874.3757, 51482.25
874.8578, 51491.30
875.3399, 51464.50
875.8220, 51418.02
876.3041, 51385.41
876.7863, 51372.39
877.2684, 51363.01
877.7505, 51344.16
878.2326, 51332.98
878.7147, 51373.58
879.1968, 51445.46
879.6790, 51467.27
880.1611, 51436.70
880.6432, 51392.84
881.1253, 51350.20
881.6074, 51322.25
882.0895, 51326.97
882.5717, 51360.00
883.0538, 51397.99
883.5359, 51444.00
884.0180, 51468.29
884.5001, 51459.23
884.9822, 51451.76
885.4644, 51474.82
885.9465, 51506.42
886.4286, 51495.00
886.9107, 51426.16
887.3928, 51379.22
887.8749, 51355.49
888.3571, 51352.17
888.8392, 51381.72
889.3213, 51420.00
889.8034, 51460.95
890.2855, 51495.63
890.7676, 51479.64
891.2498, 51344.00
891.7319, 51277.59
892.2140, 51383.84
892.6961, 51480.38
893.1782, 51455.03
893.6603, 51369.95
894.1425, 51302.09
894.6246, 51265.36
895.1067, 51267.34
895.5888, 51364.74
896.0709, 51436.44
896.5530, 51382.35
897.0352, 51297.43
897.5173, 51292.04
897.9994, 51342.08
898.4815, 51350.65
898.9636, 51282.63
899.4457, 51230.96
899.9279, 51302.97
900.4100, 51406.23
900.8921, 51419.52
901.3742, 51377.10
901.8563, 51359.00
902.3384, 51374.16
902.8206, 51375.51
903.3027, 51331.85
903.7848, 51272.54
904.2669, 51240.17
904.7490, 51227.34
905.2311, 51206.74
905.7133, 51181.06
906.1954, 51184.83
906.6775, 51228.91
907.1596, 51276.51
907.6417, 51291.81
908.1238, 51284.13
908.6060, 51282.45
909.0881, 51286.80
909.5702, 51297.27
910.0523, 51317.01
910.5344, 51317.03
911.0165, 51279.93
911.4987, 51225.79
911.9808, 51179.85
912.4629, 51142.45
912.9450, 51134.94
913.4271, 51169.49
913.9092, 51193.42
914.3914, 51187.15
914.8735, 51188.52
915.3556, 51221.41
915.8377, 51280.30
916.3198, 51361.13
916.8019, 51490.04
917.2841, 51541.74
917.7662, 51457.39
918.2483, 51379.07
918.7304, 51323.86
919.2125, 51300.02
919.6946, 51342.85
920.1768, 51424.80
920.6589, 51438.31
921.1410, 51312.23
921.6231, 51258.70
922.1052, 51375.93
922.5873, 51493.40
923.0695, 51525.57
923.5516, 51520.10
924.0337, 51530.02
924.5158, 51560.43
924.9979, 51598.93
925.4800, 51661.55
925.9622, 51699.24
926.4443, 51639.45
926.9264, 51596.06
927.4085, 51699.88
927.8906, 51869.86
928.3727, 51956.38
928.8549, 51930.38
929.3370, 51884.73
929.8191, 51852.74
930.3012, 51841.27
930.7833, 51876.20
931.2654, 51920.46
931.7476, 51928.70
932.2297, 51903.35
932.7118, 51869.43
933.1939, 51835.63
933.6760, 51781.63
934.1581, 51662.57
934.6403, 51535.76
935.1224, 51495.18
935.6045, 51497.28
936.0866, 51438.88
936.5687, 51322.91
937.0508, 51242.46
937.5330, 51248.53
938.0151, 51284.18
938.4972, 51295.24
938.9793, 51277.97
939.4614, 51206.16
939.9435, 51096.92
940.4257, 51007.96
940.9078, 50955.32
941.3899, 50956.37
941.8720, 51028.91
942.3541, 51131.77
942.8362, 51191.85
943.3184, 51215.94
943.8005, 51249.08
944.2826, 51288.75
944.7647, 51261.85
945.2468, 51143.65
945.7289, 51042.73
946.2111, 51063.86
946.6932, 51158.08
947.1753, 51188.98
947.6574, 51156.83
948.1395, 51117.07
948.6216, 51072.63
949.1038, 51025.59
949.5859, 50974.59
950.0680, 50934.82
950.5501, 50930.88
951.0322, 50948.00
951.5143, 50892.79
951.9965, 50743.71
952.4786, 50669.75
952.9607, 50704.96
953.4428, 50752.60
953.9249, 50779.36
954.4070, 50768.88
954.8892, 50681.16
955.3713, 50524.64
955.8534, 50490.24
956.3355, 50642.71
956.8176, 50711.62
957.2997, 50623.24
957.7819, 50534.74
958.2640, 50536.43
958.7461, 50581.33
959.2282, 50590.57
959.7103, 50559.74
960.1924, 50559.13
960.6746, 50619.24
961.1567, 50647.21
961.6388, 50608.69
962.1209, 50563.96
962.6030, 50556.92
963.0851, 50564.38
963.5673, 50529.34
964.0494, 50428.64
964.5315, 50410.21
965.0136, 50546.24
965.4957, 50659.64
965.9778, 50745.35
966.4600, 50776.02
966.9421, 50703.86
967.4242, 50570.67
967.9063, 50466.31
968.3884, 50389.07
968.8705, 50356.44
969.3527, 50432.88
969.8348, 50468.43
970.3169, 50387.64
970.7990, 50286.94
971.2811, 50223.33
971.7632, 50200.66
972.2454, 50231.96
972.7275, 50346.28
973.2096, 50414.35
973.6917, 50378.22
974.1738, 50345.21
974.6559, 50354.45
975.1381, 50381.42
975.6202, 50410.31
976.1023, 50437.33
976.5844, 50454.91
977.0665, 50458.84
977.5486, 50463.45
978.0308, 50493.01
978.5129, 50498.15
978.9950, 50435.76
979.4771, 50355.28
979.9592, 50302.62
980.4413, 50276.44
980.9235, 50254.48
981.4056, 50226.55
981.8877, 50220.41
982.3698, 50276.49
982.8519, 50318.66
983.3340, 50285.48
983.8162, 50234.50
984.2983, 50235.55
984.7804, 50279.88
985.2625, 50310.20
985.7446, 50311.52
986.2267, 50297.84
986.7089, 50258.56
987.1910, 50223.35
987.6731, 50209.51
988.1552, 50209.34
988.6373, 50224.84
989.1194, 50245.91
989.6016, 50233.21
990.0837, 50151.90
990.5658, 50104.54
991.0479, 50166.28
991.5300, 50239.51
992.0121, 50266.00
992.4943, 50264.67
992.9764, 50266.29
993.4585, 50268.26
993.9406, 50237.09
994.4227, 50138.56
994.9048, 50074.52
995.3870, 50133.70
995.8691, 50196.03
996.3512, 50154.52
996.8333, 50083.95
997.3154, 50104.07
997.7975, 50197.74
998.2797, 50225.68
998.7618, 50112.00
999.2439, 50014.32
999.7260, 50027.23
1000.208, 50057.67
1000.690, 50029.05
1001.172, 49987.00
1001.654, 50003.60
1002.137, 50070.13
1002.619, 50113.91
1003.101, 50104.67
1003.583, 50087.14
1004.065, 50087.44
1004.547, 50081.15
1005.029, 50030.28
1005.511, 49976.87
1005.994, 49983.05
1006.476, 50040.12
1006.958, 50090.03
1007.440, 50119.75
1007.922, 50118.32
1008.404, 50053.91
1008.886, 49986.48
1009.368, 49926.58
1009.850, 49905.55
1010.333, 49994.89
1010.815, 50158.31
1011.297, 50249.96
1011.779, 50209.51
1012.261, 50154.62
1012.743, 50124.32
1013.225, 50107.98
1013.707, 50096.08
1014.190, 50096.90
1014.672, 50140.41
1015.154, 50205.31
1015.636, 50212.43
1016.118, 50117.82
1016.600, 50062.15
1017.082, 50120.24
1017.564, 50206.72
1018.046, 50300.75
1018.529, 50379.68
1019.011, 50424.49
1019.493, 50435.38
1019.975, 50411.44
1020.457, 50339.83
1020.939, 50298.74
1021.421, 50326.40
1021.903, 50374.20
1022.385, 50417.62
1022.868, 50472.64
1023.350, 50569.93
1023.832, 50688.73
1024.314, 50778.84
1024.796, 50831.02
1025.278, 50853.09
1025.760, 50811.79
1026.242, 50786.66
1026.725, 50805.78
1027.207, 50854.04
1027.689, 50953.70
1028.171, 51062.14
1028.653, 51086.79
1029.135, 51005.74
1029.617, 50928.23
1030.099, 50890.26
1030.582, 50835.77
1031.064, 50729.46
1031.546, 50621.86
1032.028, 50557.33
1032.510, 50511.25
1032.992, 50432.08
1033.474, 50312.29
1033.956, 50216.97
1034.438, 50141.25
1034.921, 50107.64
1035.403, 50184.13
1035.885, 50233.73
1036.367, 50169.16
1036.849, 50037.41
1037.331, 49886.71
1037.813, 49715.17
1038.295, 49628.77
1038.777, 49695.21
1039.260, 49738.03
1039.742, 49736.48
1040.224, 49723.77
1040.706, 49712.08
1041.188, 49698.07
1041.670, 49668.77
1042.152, 49628.99
1042.634, 49634.27
1043.117, 49713.45
1043.599, 49775.00
1044.081, 49818.85
1044.563, 49838.28
1045.045, 49820.22
1045.527, 49790.76
1046.009, 49769.34
1046.491, 49760.75
1046.974, 49792.46
1047.456, 49889.17
1047.938, 49936.32
1048.420, 49906.06
1048.902, 49910.96
1049.384, 49999.59
1049.866, 50093.81
1050.348, 50122.87
1050.830, 50114.71
1051.313, 50145.59
1051.795, 50219.10
1052.277, 50294.07
1052.759, 50367.89
1053.241, 50464.36
1053.723, 50597.67
1054.205, 50702.88
1054.687, 50730.44
1055.169, 50725.90
1055.652, 50771.15
1056.134, 50863.85
1056.616, 50990.85
1057.098, 51152.62
1057.580, 51256.69
1058.062, 51286.77
1058.544, 51322.96
1059.026, 51410.84
1059.509, 51481.50
1059.991, 51436.85
1060.473, 51307.34
1060.955, 51192.19
1061.437, 51086.54
1061.919, 50960.68
1062.401, 50815.08
1062.883, 50677.07
1063.365, 50558.26
1063.848, 50478.04
1064.330, 50468.41
1064.812, 50484.02
1065.294, 50445.75
1065.776, 50366.39
1066.258, 50259.68
1066.740, 50142.10
1067.222, 50070.16
1067.704, 50050.18
1068.187, 50008.30
1068.669, 49881.89
1069.151, 49761.00
1069.633, 49781.39
1070.115, 49844.57
1070.597, 49805.67
1071.079, 49704.10
1071.561, 49628.01
1072.044, 49588.05
1072.526, 49548.54
1073.008, 49494.09
1073.490, 49431.04
1073.972, 49351.30
1074.454, 49278.05
1074.936, 49243.63
1075.418, 49217.12
1075.901, 49145.89
1076.383, 49051.20
1076.865, 48997.70
1077.347, 49002.83
1077.829, 49030.91
1078.311, 49112.55
1078.793, 49152.93
1079.275, 49065.87
1079.757, 48963.82
1080.240, 48920.90
1080.722, 48929.59
1081.204, 48995.96
1081.686, 49111.89
1082.168, 49139.02
1082.650, 48939.91
1083.132, 48823.45
1083.614, 48923.09
1084.096, 49010.53
1084.579, 48966.79
1085.061, 48871.75
1085.543, 48809.00
1086.025, 48772.48
1086.507, 48729.19
1086.989, 48674.04
1087.471, 48624.06
1087.953, 48562.62
1088.436, 48542.19
1088.918, 48587.79
1089.400, 48659.12
1089.882, 48739.30
1090.364, 48810.68
1090.846, 48833.31
1091.328, 48805.91
1091.810, 48764.16
1092.292, 48703.48
1092.775, 48659.69
1093.257, 48638.94
1093.739, 48633.59
1094.221, 48640.78
1094.703, 48657.00
1095.185, 48682.84
1095.667, 48708.04
1096.149, 48689.13
1096.631, 48631.71
1097.114, 48572.77
1097.596, 48518.09
1098.078, 48486.20
1098.560, 48482.53
1099.042, 48496.12
1099.524, 48521.73
1100.006, 48545.49
1100.488, 48543.34
1100.970, 48525.34
1101.453, 48515.77
1101.935, 48507.07
1102.417, 48468.55
1102.899, 48405.80
1103.381, 48363.79
1103.863, 48364.41
1104.345, 48379.02
1104.827, 48389.64
1105.310, 48397.57
1105.792, 48408.09
1106.274, 48413.46
1106.756, 48396.88
1107.238, 48369.69
1107.720, 48361.09
1108.202, 48375.75
1108.684, 48382.10
1109.167, 48374.00
1109.649, 48345.05
1110.131, 48267.65
1110.613, 48197.11
1111.095, 48170.91
1111.577, 48168.56
1112.059, 48152.43
1112.541, 48132.59
1113.023, 48177.02
1113.505, 48355.52
1113.988, 48437.68
1114.470, 48361.86
1114.952, 48275.34
1115.434, 48178.66
1115.916, 48128.04
1116.398, 48188.72
1116.880, 48291.74
1117.362, 48303.92
1117.845, 48224.67
1118.327, 48169.15
1118.809, 48140.48
1119.291, 48117.66
1119.773, 48097.58
1120.255, 48089.63
1120.737, 48099.37
1121.219, 48112.52
1121.702, 48115.94
1122.184, 48108.12
1122.666, 48070.57
1123.148, 48016.88
1123.630, 48037.07
1124.112, 48114.48
1124.594, 48135.18
1125.076, 48079.42
1125.558, 48016.70
1126.041, 47986.94
1126.523, 47960.79
1127.005, 47876.86
1127.487, 47802.27
1127.969, 47866.53
1128.451, 47982.26
1128.933, 48006.67
1129.415, 47955.48
1129.897, 47910.18
1130.380, 47892.55
1130.862, 47877.99
1131.344, 47845.66
1131.826, 47828.45
1132.308, 47855.65
1132.790, 47890.14
1133.272, 47922.42
1133.754, 47936.01
1134.237, 47900.33
1134.719, 47829.32
1135.201, 47777.22
1135.683, 47743.10
1136.165, 47753.47
1136.647, 47858.83
1137.129, 47938.26
1137.611, 47979.72
1138.094, 47976.25
1138.576, 47902.52
1139.058, 47807.20
1139.540, 47765.61
1140.022, 47770.21
1140.504, 47743.50
1140.986, 47677.31
1141.468, 47646.04
1141.950, 47657.79
1142.432, 47666.07
1142.915, 47655.89
1143.397, 47642.99
1143.879, 47640.29
1144.361, 47638.29
1144.843, 47612.23
1145.325, 47576.13
1145.807, 47579.36
1146.289, 47608.66
1146.772, 47630.47
1147.254, 47634.82
1147.736, 47594.71
1148.218, 47505.68
1148.700, 47451.41
1149.182, 47523.92
1149.664, 47604.45
1150.146, 47575.01
1150.629, 47514.14
1151.111, 47496.61
1151.593, 47503.07
1152.075, 47495.47
1152.557, 47474.31
1153.039, 47462.13
1153.521, 47459.29
1154.003, 47486.23
1154.485, 47611.56
1154.968, 47678.59
1155.450, 47612.64
1155.932, 47502.95
1156.414, 47363.96
1156.896, 47248.79
1157.378, 47249.21
1157.860, 47352.97
1158.342, 47416.73
1158.824, 47437.29
1159.307, 47427.04
1159.789, 47379.77
1160.271, 47339.25
1160.753, 47316.87
1161.235, 47323.77
1161.717, 47374.75
1162.199, 47423.56
1162.681, 47376.53
1163.164, 47269.46
1163.646, 47227.41
1164.128, 47228.84
1164.610, 47193.40
1165.092, 47130.96
1165.574, 47134.45
1166.056, 47222.82
1166.538, 47278.43
1167.021, 47203.11
1167.503, 47121.00
1167.985, 47148.08
1168.467, 47199.72
1168.949, 47207.91
1169.431, 47189.87
1169.913, 47166.34
1170.395, 47141.79
1170.877, 47119.50
1171.359, 47100.65
1171.842, 47078.58
1172.324, 47019.73
1172.806, 47008.94
1173.288, 47115.80
1173.770, 47190.05
1174.252, 47155.00
1174.734, 47075.75
1175.216, 47010.00
1175.699, 46962.84
1176.181, 46958.21
1176.663, 47000.03
1177.145, 47028.71
1177.627, 47044.13
1178.109, 47059.82
1178.591, 47077.75
1179.073, 47063.95
1179.556, 47001.64
1180.038, 46963.47
1180.520, 47051.52
1181.002, 47162.48
1181.484, 47101.18
1181.966, 46963.66
1182.448, 46905.75
1182.930, 46909.66
1183.412, 46936.41
1183.895, 46960.66
1184.377, 46920.36
1184.859, 46780.11
1185.341, 46675.46
1185.823, 46685.52
1186.305, 46720.70
1186.787, 46758.81
1187.269, 46792.41
1187.751, 46816.87
1188.234, 46834.14
1188.716, 46848.75
1189.198, 46859.55
1189.680, 46857.53
1190.162, 46837.02
1190.644, 46825.81
1191.126, 46829.25
1191.608, 46818.62
1192.091, 46787.87
1192.573, 46733.28
1193.055, 46646.98
1193.537, 46586.01
1194.019, 46638.83
1194.501, 46742.95
1194.983, 46731.17
1195.465, 46652.02
1195.948, 46631.46
1196.430, 46662.20
1196.912, 46713.42
1197.394, 46763.93
1197.876, 46756.50
1198.358, 46658.72
1198.840, 46577.04
1199.322, 46582.04
1199.804, 46617.18
1200.286, 46690.78
1200.769, 46739.89
1201.251, 46695.10
1201.733, 46607.20
1202.215, 46547.46
1202.697, 46518.20
1203.179, 46496.24
1203.661, 46469.59
1204.143, 46499.08
1204.626, 46625.18
1205.108, 46665.71
1205.590, 46564.00
1206.072, 46467.90
1206.554, 46458.05
1207.036, 46480.16
1207.518, 46472.44
1208.000, 46443.72
1208.483, 46389.81
1208.965, 46341.95
1209.447, 46439.03
1209.929, 46613.45
1210.411, 46640.85
1210.893, 46517.85
1211.375, 46413.07
1211.857, 46393.27
1212.339, 46387.54
1212.822, 46346.14
1213.304, 46315.04
1213.786, 46348.66
1214.268, 46367.77
1214.750, 46271.66
1215.232, 46162.60
1215.714, 46190.97
1216.196, 46316.89
1216.678, 46375.21
1217.161, 46349.85
1217.643, 46360.05
1218.125, 46422.49
1218.607, 46450.58
1219.089, 46431.85
1219.571, 46372.09
1220.053, 46269.13
1220.535, 46185.15
1221.018, 46180.70
1221.500, 46211.67
1221.982, 46203.31
1222.464, 46171.92
1222.946, 46151.23
1223.428, 46133.99
1223.910, 46093.71
1224.392, 46043.07
1224.875, 46024.37
1225.357, 46047.20
1225.839, 46084.07
1226.321, 46146.93
1226.803, 46175.07
1227.285, 46128.20
1227.767, 46068.29
1228.249, 45984.43
1228.731, 45939.78
1229.214, 46004.57
1229.696, 46114.91
1230.178, 46163.20
1230.660, 46153.23
1231.142, 46120.50
1231.624, 46064.23
1232.106, 46000.24
1232.588, 45930.68
1233.070, 45878.33
1233.553, 45848.42
1234.035, 45828.73
1234.517, 45812.43
1234.999, 45797.63
1235.481, 45779.19
1235.963, 45764.76
1236.445, 45765.24
1236.927, 45772.03
1237.410, 45774.25
1237.892, 45776.67
1238.374, 45796.63
##END=



