##NAMES=Tridymite
##RRUFFID=R040143
##IDEAL CHEMISTRY=SiO_2_
##LOCALITY=Big Lue Mountain, Highway 78, Greenlee County, Arizona, USA
##OWNER=RRUFF
##SOURCE=University of Arizona Mineral Museum
##DESCRIPTION=Colorless thin hexagonal plates. Masami Kanzaki (Okayama University) suggests this is polytype tridymite PO-10.
##STATUS=The identification of this mineral is confirmed by single-crystal X-ray diffraction and chemical analysis.
##URL=rruff.info/R040143
##MEASURED CHEMISTRY=(Si_0.99_Al_0.01_)O_2_
149.4643, 2326.170
149.9464, 2411.963
150.4285, 2490.787
150.9106, 2557.680
151.3928, 2612.136
151.8749, 2661.356
152.3570, 2709.637
152.8391, 2750.367
153.3212, 2775.482
153.8033, 2784.012
154.2855, 2786.904
154.7676, 2791.798
155.2497, 2797.999
155.7318, 2802.432
156.2139, 2806.683
156.6960, 2807.908
157.1782, 2800.473
157.6603, 2782.717
158.1424, 2765.850
158.6245, 2759.909
159.1066, 2761.710
159.5887, 2764.409
160.0709, 2761.181
160.5530, 2759.798
161.0351, 2774.833
161.5172, 2810.897
161.9993, 2846.980
162.4814, 2865.659
162.9636, 2873.617
163.4457, 2882.379
163.9278, 2892.628
164.4099, 2906.911
164.8920, 2931.891
165.3741, 2971.453
165.8563, 3010.667
166.3384, 3041.791
166.8205, 3066.259
167.3026, 3085.244
167.7847, 3095.604
168.2668, 3101.992
168.7490, 3116.978
169.2311, 3147.457
169.7132, 3170.594
170.1953, 3166.921
170.6774, 3149.693
171.1595, 3139.859
171.6417, 3150.528
172.1238, 3173.244
172.6059, 3186.125
173.0880, 3184.398
173.5701, 3182.157
174.0522, 3186.980
174.5344, 3195.161
175.0165, 3201.105
175.4986, 3201.070
175.9807, 3197.700
176.4628, 3199.656
176.9449, 3213.233
177.4271, 3220.042
177.9092, 3205.152
178.3913, 3182.114
178.8734, 3169.580
179.3555, 3177.767
179.8376, 3201.183
180.3197, 3223.932
180.8019, 3245.325
181.2840, 3267.295
181.7661, 3296.201
182.2482, 3324.444
182.7303, 3340.750
183.2124, 3337.303
183.6946, 3322.308
184.1767, 3319.426
184.6588, 3333.716
185.1409, 3352.309
185.6230, 3374.000
186.1051, 3396.369
186.5873, 3416.126
187.0694, 3431.196
187.5515, 3444.319
188.0336, 3463.897
188.5157, 3495.371
188.9978, 3523.700
189.4800, 3543.562
189.9621, 3559.839
190.4442, 3577.938
190.9263, 3600.200
191.4084, 3624.754
191.8905, 3647.104
192.3727, 3666.768
192.8548, 3684.962
193.3369, 3698.205
193.8190, 3712.073
194.3011, 3733.857
194.7832, 3766.613
195.2654, 3803.443
195.7475, 3828.394
196.2296, 3833.435
196.7117, 3841.616
197.1938, 3857.202
197.6759, 3875.981
198.1581, 3895.047
198.6402, 3913.363
199.1223, 3930.194
199.6044, 3943.146
200.0865, 3946.729
200.5686, 3957.945
201.0508, 3987.845
201.5329, 4018.737
202.0150, 4034.750
202.4971, 4032.255
202.9792, 4022.071
203.4613, 4022.466
203.9435, 4041.181
204.4256, 4052.991
204.9077, 4057.960
205.3898, 4056.159
205.8719, 4045.091
206.3540, 4025.365
206.8362, 4002.857
207.3183, 3985.287
207.8004, 3974.084
208.2825, 3964.875
208.7646, 3957.316
209.2467, 3951.634
209.7289, 3951.080
210.2110, 3954.314
210.6931, 3954.315
211.1752, 3941.716
211.6573, 3912.368
212.1395, 3885.769
212.6216, 3864.402
213.1037, 3843.594
213.5858, 3817.635
214.0679, 3788.880
214.5500, 3766.750
215.0322, 3763.512
215.5143, 3784.240
215.9964, 3789.833
216.4785, 3768.534
216.9606, 3743.281
217.4427, 3720.312
217.9249, 3700.512
218.4070, 3682.451
218.8891, 3664.066
219.3712, 3645.088
219.8533, 3635.680
220.3354, 3644.551
220.8176, 3655.119
221.2997, 3665.667
221.7818, 3674.497
222.2639, 3678.699
222.7460, 3675.125
223.2281, 3665.074
223.7103, 3663.124
224.1924, 3687.539
224.6745, 3699.805
225.1566, 3680.146
225.6387, 3645.663
226.1208, 3623.060
226.6030, 3629.009
227.0851, 3655.513
227.5672, 3668.700
228.0493, 3657.496
228.5314, 3647.001
229.0135, 3640.531
229.4957, 3637.386
229.9778, 3636.764
230.4599, 3638.345
230.9420, 3641.765
231.4241, 3646.418
231.9062, 3653.899
232.3884, 3659.762
232.8705, 3667.163
233.3526, 3671.055
233.8347, 3664.921
234.3168, 3646.999
234.7989, 3624.705
235.2811, 3612.153
235.7632, 3616.692
236.2453, 3613.234
236.7274, 3588.876
237.2095, 3564.212
237.6916, 3554.592
238.1738, 3562.170
238.6559, 3575.950
239.1380, 3583.745
239.6201, 3585.852
240.1022, 3580.472
240.5843, 3555.579
241.0665, 3532.974
241.5486, 3524.358
242.0307, 3529.221
242.5128, 3538.864
242.9949, 3546.954
243.4770, 3553.969
243.9592, 3553.516
244.4413, 3538.690
244.9234, 3522.337
245.4055, 3506.802
245.8876, 3493.393
246.3697, 3484.578
246.8519, 3484.066
247.3340, 3490.344
247.8161, 3489.355
248.2982, 3474.474
248.7803, 3460.918
249.2624, 3455.514
249.7446, 3454.542
250.2267, 3451.874
250.7088, 3443.957
251.1909, 3432.472
251.6730, 3421.804
252.1551, 3410.924
252.6373, 3403.129
253.1194, 3398.152
253.6015, 3396.870
254.0836, 3400.928
254.5657, 3411.381
255.0478, 3425.581
255.5300, 3440.677
256.0121, 3457.989
256.4942, 3470.932
256.9763, 3474.365
257.4584, 3474.453
257.9406, 3473.999
258.4227, 3473.425
258.9048, 3476.238
259.3869, 3485.774
259.8690, 3502.116
260.3511, 3524.408
260.8333, 3556.500
261.3154, 3591.636
261.7975, 3627.221
262.2796, 3662.537
262.7617, 3693.213
263.2438, 3714.768
263.7260, 3728.507
264.2081, 3741.714
264.6902, 3755.089
265.1723, 3767.990
265.6544, 3780.016
266.1365, 3791.297
266.6187, 3802.031
267.1008, 3812.583
267.5829, 3822.612
268.0650, 3831.671
268.5471, 3840.053
269.0292, 3846.447
269.5114, 3850.811
269.9935, 3852.453
270.4756, 3848.933
270.9577, 3834.432
271.4398, 3818.760
271.9219, 3812.225
272.4041, 3814.919
272.8862, 3824.852
273.3683, 3846.660
273.8504, 3872.565
274.3325, 3887.186
274.8146, 3884.285
275.2968, 3880.170
275.7789, 3888.329
276.2610, 3905.263
276.7431, 3915.102
277.2252, 3908.461
277.7073, 3897.493
278.1895, 3902.809
278.6716, 3925.848
279.1537, 3952.961
279.6358, 3983.097
280.1179, 4013.276
280.6000, 4036.498
281.0822, 4050.317
281.5643, 4063.107
282.0464, 4085.515
282.5285, 4118.162
283.0106, 4150.923
283.4927, 4183.626
283.9749, 4215.362
284.4570, 4244.910
284.9391, 4272.367
285.4212, 4300.221
285.9033, 4331.473
286.3854, 4365.640
286.8676, 4392.057
287.3497, 4405.610
287.8318, 4417.188
288.3139, 4435.107
288.7960, 4455.708
289.2781, 4467.907
289.7603, 4464.704
290.2424, 4449.952
290.7245, 4439.794
291.2066, 4440.522
291.6887, 4437.752
292.1708, 4429.631
292.6530, 4416.735
293.1351, 4398.855
293.6172, 4376.018
294.0993, 4350.486
294.5814, 4326.011
295.0635, 4299.586
295.5457, 4280.656
296.0278, 4277.604
296.5099, 4275.550
296.9920, 4261.907
297.4741, 4236.689
297.9562, 4210.839
298.4384, 4196.551
298.9205, 4196.589
299.4026, 4188.658
299.8847, 4159.826
300.3668, 4136.157
300.8489, 4130.276
301.3311, 4136.585
301.8131, 4142.079
302.2953, 4137.909
302.7774, 4126.328
303.2595, 4118.754
303.7416, 4116.037
304.2237, 4116.613
304.7058, 4120.238
305.1880, 4126.509
305.6701, 4136.862
306.1522, 4152.095
306.6343, 4166.270
307.1164, 4168.556
307.5985, 4155.840
308.0807, 4142.775
308.5628, 4126.658
309.0449, 4114.774
309.5270, 4114.569
310.0091, 4125.646
310.4912, 4137.547
310.9734, 4141.207
311.4555, 4137.275
311.9376, 4132.206
312.4197, 4124.034
312.9018, 4118.425
313.3839, 4123.212
313.8661, 4133.462
314.3482, 4135.783
314.8303, 4115.894
315.3124, 4088.010
315.7945, 4079.247
316.2766, 4092.584
316.7588, 4107.814
317.2409, 4116.918
317.7230, 4119.872
318.2051, 4115.228
318.6872, 4096.638
319.1693, 4081.313
319.6515, 4088.624
320.1336, 4112.422
320.6157, 4123.177
321.0978, 4106.269
321.5799, 4079.321
322.0620, 4071.531
322.5442, 4084.925
323.0263, 4098.286
323.5084, 4101.938
323.9905, 4103.837
324.4726, 4115.742
324.9547, 4139.630
325.4369, 4166.251
325.9190, 4186.627
326.4011, 4199.954
326.8832, 4216.280
327.3653, 4238.902
327.8474, 4261.460
328.3296, 4282.092
328.8117, 4299.917
329.2938, 4312.214
329.7759, 4316.664
330.2580, 4315.776
330.7401, 4320.800
331.2223, 4343.499
331.7044, 4357.531
332.1865, 4350.245
332.6686, 4337.525
333.1507, 4339.767
333.6328, 4362.085
334.1150, 4388.883
334.5971, 4395.589
335.0792, 4371.378
335.5613, 4356.199
336.0434, 4354.850
336.5255, 4357.120
337.0077, 4360.062
337.4898, 4362.293
337.9719, 4361.400
338.4540, 4353.200
338.9361, 4339.817
339.4182, 4341.824
339.9004, 4373.383
340.3825, 4399.542
340.8646, 4405.258
341.3467, 4402.127
341.8288, 4404.852
342.3109, 4419.303
342.7931, 4439.744
343.2752, 4458.225
343.7573, 4474.581
344.2394, 4489.884
344.7215, 4497.312
345.2036, 4510.039
345.6858, 4539.652
346.1679, 4586.504
346.6500, 4639.083
347.1321, 4693.490
347.6142, 4747.993
348.0963, 4798.622
348.5785, 4845.501
349.0606, 4887.104
349.5427, 4921.218
350.0248, 4948.961
350.5069, 4972.526
350.9890, 4982.162
351.4712, 4995.892
351.9533, 5032.169
352.4354, 5087.388
352.9175, 5143.701
353.3996, 5194.830
353.8817, 5239.437
354.3639, 5272.969
354.8460, 5294.968
355.3281, 5310.069
355.8102, 5316.477
356.2923, 5317.721
356.7744, 5319.080
357.2566, 5321.347
357.7387, 5318.776
358.2208, 5303.717
358.7029, 5272.495
359.1850, 5249.168
359.6671, 5236.657
360.1493, 5227.884
360.6314, 5224.561
361.1135, 5222.313
361.5956, 5212.221
362.0777, 5188.336
362.5598, 5154.880
363.0420, 5127.541
363.5241, 5113.126
364.0062, 5093.834
364.4883, 5063.076
364.9704, 5029.954
365.4525, 5002.365
365.9347, 4981.923
366.4168, 4963.931
366.8989, 4941.852
367.3810, 4914.826
367.8631, 4895.666
368.3452, 4888.879
368.8274, 4885.625
369.3095, 4881.823
369.7916, 4877.714
370.2737, 4873.957
370.7558, 4869.694
371.2379, 4866.901
371.7201, 4869.357
372.2022, 4877.383
372.6843, 4887.917
373.1664, 4903.948
373.6485, 4918.883
374.1306, 4920.517
374.6128, 4902.675
375.0949, 4892.474
375.5770, 4916.171
376.0591, 4955.428
376.5412, 4967.342
377.0233, 4939.859
377.5055, 4911.271
377.9876, 4923.943
378.4697, 4983.316
378.9518, 5028.283
379.4339, 5048.943
379.9160, 5063.212
380.3982, 5076.462
380.8803, 5091.577
381.3624, 5115.906
381.8445, 5154.715
382.3266, 5200.878
382.8087, 5233.217
383.2909, 5234.889
383.7730, 5243.944
384.2551, 5258.729
384.7372, 5282.604
385.2193, 5320.587
385.7014, 5372.104
386.1836, 5430.644
386.6657, 5491.979
387.1478, 5556.655
387.6299, 5608.707
388.1120, 5637.098
388.5941, 5665.377
389.0763, 5697.451
389.5584, 5735.251
390.0405, 5781.150
390.5226, 5837.171
391.0047, 5900.111
391.4868, 5968.576
391.9690, 6043.646
392.4511, 6110.638
392.9332, 6156.754
393.4153, 6201.092
393.8974, 6266.613
394.3795, 6353.286
394.8617, 6428.200
395.3438, 6463.617
395.8259, 6480.954
396.3080, 6519.034
396.7901, 6582.208
397.2722, 6645.007
397.7544, 6687.739
398.2365, 6714.933
398.7186, 6753.129
399.2007, 6827.063
399.6828, 6883.877
400.1649, 6896.192
400.6471, 6879.468
401.1292, 6856.871
401.6113, 6835.833
402.0934, 6816.844
402.5755, 6800.162
403.0576, 6785.017
403.5398, 6775.414
404.0219, 6776.986
404.5040, 6777.988
404.9861, 6778.681
405.4682, 6773.831
405.9503, 6750.830
406.4325, 6699.137
406.9146, 6629.337
407.3967, 6581.131
407.8788, 6566.885
408.3609, 6549.188
408.8430, 6520.718
409.3252, 6486.245
409.8073, 6445.235
410.2894, 6398.881
410.7715, 6358.687
411.2536, 6336.375
411.7357, 6329.292
412.2179, 6324.807
412.7000, 6322.000
413.1821, 6322.081
413.6642, 6320.965
414.1463, 6323.722
414.6284, 6343.768
415.1106, 6399.492
415.5927, 6453.834
416.0748, 6477.293
416.5569, 6477.015
417.0390, 6472.723
417.5211, 6469.429
418.0033, 6470.956
418.4854, 6485.796
418.9675, 6522.668
419.4496, 6541.617
419.9317, 6536.638
420.4138, 6516.912
420.8960, 6487.967
421.3781, 6449.816
421.8602, 6398.228
422.3423, 6328.494
422.8244, 6246.688
423.3065, 6179.776
423.7887, 6140.135
424.2708, 6096.234
424.7529, 6044.274
425.2350, 5987.480
425.7171, 5926.362
426.1992, 5861.994
426.6814, 5799.939
427.1635, 5748.115
427.6456, 5704.837
428.1277, 5653.442
428.6098, 5587.970
429.0919, 5526.006
429.5741, 5479.046
430.0562, 5440.273
430.5383, 5400.101
431.0204, 5355.462
431.5025, 5310.716
431.9846, 5265.066
432.4668, 5221.548
432.9489, 5194.202
433.4310, 5190.195
433.9131, 5190.987
434.3952, 5173.724
434.8773, 5136.301
435.3595, 5102.763
435.8416, 5075.841
436.3237, 5051.901
436.8058, 5027.399
437.2879, 5003.950
437.7701, 4986.731
438.2522, 4978.867
438.7343, 4975.810
439.2164, 4964.953
439.6985, 4932.222
440.1806, 4917.588
440.6628, 4936.974
441.1449, 4959.777
441.6270, 4962.764
442.1091, 4949.238
442.5912, 4939.973
443.0733, 4951.472
443.5555, 4979.070
444.0376, 5007.351
444.5197, 5040.946
445.0018, 5062.133
445.4839, 5049.739
445.9660, 5028.938
446.4482, 5025.258
446.9303, 5043.430
447.4124, 5065.831
447.8945, 5088.104
448.3766, 5105.738
448.8587, 5108.491
449.3409, 5094.674
449.8230, 5069.970
450.3051, 5034.592
450.7872, 4990.709
451.2693, 4959.453
451.7514, 4944.004
452.2336, 4936.333
452.7157, 4942.450
453.1978, 4951.737
453.6799, 4947.581
454.1620, 4925.875
454.6441, 4898.699
455.1263, 4882.624
455.6084, 4881.219
456.0905, 4870.784
456.5726, 4840.453
457.0547, 4812.017
457.5368, 4796.519
458.0190, 4786.193
458.5011, 4767.306
458.9832, 4733.035
459.4653, 4693.121
459.9474, 4659.386
460.4295, 4631.938
460.9117, 4612.622
461.3938, 4606.303
461.8759, 4602.197
462.3580, 4591.663
462.8401, 4575.269
463.3222, 4554.792
463.8044, 4523.552
464.2865, 4493.930
464.7686, 4477.700
465.2507, 4473.038
465.7328, 4472.674
466.2149, 4474.000
466.6971, 4476.188
467.1792, 4478.270
467.6613, 4485.407
468.1434, 4480.296
468.6255, 4449.083
469.1076, 4417.847
469.5898, 4403.149
470.0719, 4402.986
470.5540, 4407.965
471.0361, 4412.822
471.5182, 4416.969
472.0003, 4419.135
472.4825, 4420.137
472.9646, 4416.845
473.4467, 4403.231
473.9288, 4388.902
474.4109, 4380.124
474.8930, 4377.009
475.3752, 4375.630
475.8573, 4373.302
476.3394, 4371.455
476.8215, 4373.734
477.3036, 4380.253
477.7857, 4384.917
478.2679, 4384.466
478.7500, 4380.408
479.2321, 4375.871
479.7142, 4369.670
480.1963, 4365.943
480.6784, 4368.861
481.1606, 4372.322
481.6427, 4369.301
482.1248, 4360.513
482.6069, 4353.074
483.0890, 4352.686
483.5711, 4357.634
484.0533, 4357.342
484.5354, 4340.140
485.0175, 4337.614
485.4996, 4364.565
485.9817, 4398.738
486.4638, 4427.010
486.9460, 4445.853
487.4281, 4450.782
487.9102, 4428.905
488.3923, 4390.860
488.8744, 4370.061
489.3565, 4368.905
489.8387, 4372.541
490.3208, 4372.552
490.8029, 4373.667
491.2850, 4386.198
491.7671, 4415.671
492.2492, 4440.468
492.7314, 4451.260
493.2135, 4454.554
493.6956, 4457.034
494.1777, 4459.562
494.6598, 4460.090
495.1419, 4456.405
495.6241, 4449.813
496.1062, 4448.874
496.5883, 4459.655
497.0704, 4467.701
497.5525, 4469.030
498.0346, 4468.975
498.5168, 4470.988
498.9989, 4475.974
499.4810, 4484.575
499.9631, 4503.564
500.4452, 4526.390
500.9273, 4523.311
501.4095, 4486.935
501.8916, 4455.847
502.3737, 4448.318
502.8558, 4455.238
503.3379, 4461.383
503.8200, 4465.787
504.3022, 4472.379
504.7843, 4487.102
505.2664, 4502.205
505.7485, 4507.474
506.2306, 4503.064
506.7127, 4495.386
507.1949, 4487.394
507.6770, 4481.384
508.1591, 4488.005
508.6412, 4527.106
509.1233, 4549.493
509.6054, 4542.300
510.0876, 4526.284
510.5697, 4513.494
511.0518, 4506.262
511.5339, 4503.891
512.0161, 4506.446
512.4982, 4513.130
512.9803, 4525.308
513.4624, 4545.864
513.9445, 4551.856
514.4266, 4519.477
514.9088, 4482.521
515.3909, 4490.078
515.8730, 4546.306
516.3551, 4591.229
516.8372, 4602.871
517.3193, 4598.275
517.8015, 4589.958
518.2836, 4579.538
518.7657, 4565.942
519.2478, 4547.543
519.7299, 4530.711
520.2120, 4532.194
520.6942, 4570.046
521.1763, 4591.591
521.6584, 4590.097
522.1405, 4580.702
522.6226, 4563.534
523.1047, 4545.282
523.5869, 4540.293
524.0690, 4558.324
524.5511, 4588.178
525.0332, 4616.967
525.5153, 4644.589
525.9974, 4652.468
526.4796, 4627.466
526.9617, 4595.541
527.4438, 4584.160
527.9259, 4591.060
528.4080, 4602.030
528.8901, 4623.375
529.3723, 4640.138
529.8544, 4640.258
530.3365, 4630.043
530.8186, 4620.851
531.3007, 4616.674
531.7828, 4616.991
532.2650, 4622.473
532.7471, 4635.400
533.2292, 4639.167
533.7113, 4621.851
534.1934, 4608.978
534.6755, 4608.746
535.1577, 4617.280
535.6398, 4631.070
536.1219, 4650.009
536.6040, 4665.939
537.0861, 4666.466
537.5682, 4657.692
538.0504, 4662.342
538.5325, 4685.068
539.0146, 4705.431
539.4967, 4708.347
539.9788, 4696.822
540.4609, 4686.415
540.9431, 4676.014
541.4252, 4667.945
541.9073, 4663.122
542.3894, 4660.543
542.8715, 4657.558
543.3536, 4655.150
543.8358, 4659.296
544.3179, 4676.449
544.8000, 4702.334
545.2821, 4717.891
545.7642, 4720.521
546.2463, 4719.893
546.7285, 4717.188
547.2106, 4712.846
547.6927, 4705.315
548.1748, 4695.287
548.6569, 4689.363
549.1390, 4691.627
549.6211, 4698.644
550.1032, 4708.728
550.5853, 4720.736
551.0674, 4729.580
551.5496, 4732.897
552.0317, 4734.467
552.5138, 4741.378
552.9959, 4758.650
553.4780, 4763.913
553.9601, 4744.304
554.4423, 4728.234
554.9244, 4727.770
555.4065, 4738.159
555.8886, 4752.767
556.3707, 4769.426
556.8528, 4783.602
557.3350, 4786.738
557.8171, 4780.864
558.2992, 4784.960
558.7813, 4805.259
559.2634, 4820.850
559.7455, 4812.803
560.2277, 4790.046
560.7098, 4782.069
561.1919, 4798.009
561.6740, 4813.049
562.1561, 4815.876
562.6382, 4816.152
563.1204, 4827.007
563.6025, 4847.328
564.0846, 4864.126
564.5667, 4867.954
565.0488, 4861.046
565.5309, 4850.805
566.0131, 4832.489
566.4952, 4822.870
566.9773, 4833.893
567.4594, 4847.330
567.9415, 4851.279
568.4236, 4847.088
568.9058, 4843.550
569.3879, 4843.651
569.8700, 4846.650
570.3521, 4851.109
570.8342, 4857.736
571.3163, 4872.307
571.7985, 4897.822
572.2806, 4918.496
572.7627, 4911.905
573.2448, 4872.682
573.7269, 4857.189
574.2090, 4890.919
574.6912, 4916.528
575.1733, 4909.377
575.6554, 4892.111
576.1375, 4888.771
576.6196, 4905.188
577.1017, 4934.559
577.5839, 4985.383
578.0660, 5044.106
578.5481, 5058.300
579.0302, 5022.327
579.5123, 4984.708
579.9944, 4964.482
580.4766, 4958.108
580.9587, 4962.085
581.4408, 4980.042
581.9229, 4991.393
582.4050, 4988.227
582.8871, 4982.162
583.3693, 4977.542
583.8514, 4976.590
584.3335, 4983.594
584.8156, 5000.583
585.2977, 5021.366
585.7798, 5037.371
586.2620, 5048.682
586.7441, 5052.914
587.2262, 5046.158
587.7083, 5038.589
588.1904, 5039.578
588.6725, 5042.632
589.1547, 5034.526
589.6368, 5005.759
590.1189, 4986.361
590.6010, 5001.344
591.0831, 5028.090
591.5652, 5034.670
592.0474, 5021.505
592.5295, 5012.048
593.0116, 5022.393
593.4937, 5045.794
593.9758, 5061.287
594.4579, 5064.717
594.9401, 5069.940
595.4222, 5084.892
595.9043, 5095.470
596.3864, 5086.451
596.8685, 5067.533
597.3506, 5064.608
597.8328, 5094.178
598.3149, 5129.035
598.7970, 5148.635
599.2791, 5154.061
599.7612, 5143.456
600.2433, 5116.352
600.7255, 5092.217
601.2076, 5088.659
601.6897, 5102.689
602.1718, 5109.765
602.6539, 5097.273
603.1360, 5095.255
603.6182, 5112.333
604.1003, 5135.449
604.5824, 5160.632
605.0645, 5183.604
605.5466, 5193.574
606.0287, 5179.888
606.5109, 5156.068
606.9930, 5140.724
607.4751, 5133.418
607.9572, 5130.504
608.4393, 5130.711
608.9214, 5136.875
609.4036, 5153.921
609.8857, 5181.920
610.3678, 5202.174
610.8499, 5214.419
611.3320, 5220.046
611.8141, 5215.637
612.2963, 5207.098
612.7784, 5196.855
613.2605, 5187.483
613.7426, 5186.494
614.2247, 5203.223
614.7068, 5229.322
615.1890, 5243.958
615.6711, 5246.737
616.1532, 5245.889
616.6353, 5241.033
617.1174, 5238.334
617.5995, 5247.388
618.0817, 5268.509
618.5638, 5281.007
619.0459, 5280.354
619.5280, 5275.285
620.0101, 5262.210
620.4922, 5250.048
620.9744, 5252.461
621.4565, 5270.131
621.9386, 5288.526
622.4207, 5293.161
622.9028, 5288.687
623.3849, 5296.249
623.8671, 5319.731
624.3492, 5331.679
624.8313, 5318.327
625.3134, 5296.189
625.7955, 5283.414
626.2776, 5279.405
626.7598, 5280.714
627.2419, 5285.291
627.7240, 5296.811
628.2061, 5326.042
628.6882, 5359.773
629.1703, 5376.079
629.6525, 5371.588
630.1346, 5364.140
630.6167, 5373.386
631.0988, 5394.313
631.5809, 5395.751
632.0630, 5370.682
632.5452, 5353.994
633.0273, 5361.233
633.5094, 5376.498
633.9915, 5382.492
634.4736, 5379.685
634.9557, 5375.681
635.4379, 5367.187
635.9200, 5362.897
636.4021, 5369.951
636.8842, 5383.590
637.3663, 5396.975
637.8484, 5408.183
638.3306, 5418.397
638.8127, 5429.157
639.2948, 5439.855
639.7769, 5446.150
640.2590, 5447.050
640.7411, 5447.316
641.2233, 5450.346
641.7054, 5451.199
642.1875, 5440.114
642.6696, 5418.848
643.1517, 5411.092
643.6339, 5429.609
644.1160, 5454.400
644.5981, 5482.634
645.0802, 5506.847
645.5623, 5512.907
646.0444, 5499.751
646.5266, 5482.515
647.0087, 5474.845
647.4908, 5475.114
647.9729, 5474.823
648.4550, 5471.989
648.9371, 5477.805
649.4193, 5505.525
649.9014, 5531.492
650.3835, 5525.063
650.8656, 5492.452
651.3477, 5478.619
651.8298, 5514.318
652.3120, 5543.894
652.7941, 5524.592
653.2762, 5491.776
653.7583, 5500.693
654.2404, 5553.993
654.7225, 5603.961
655.2047, 5609.784
655.6868, 5585.982
656.1689, 5583.074
656.6510, 5606.318
657.1331, 5617.173
657.6152, 5602.402
658.0974, 5580.602
658.5795, 5566.218
659.0616, 5558.538
659.5437, 5555.518
660.0258, 5554.416
660.5079, 5561.077
660.9901, 5589.588
661.4722, 5619.135
661.9543, 5622.367
662.4364, 5602.521
662.9185, 5587.944
663.4006, 5599.508
663.8828, 5621.891
664.3649, 5617.452
664.8470, 5584.926
665.3291, 5568.172
665.8112, 5577.300
666.2933, 5595.472
666.7755, 5616.125
667.2576, 5635.588
667.7397, 5638.601
668.2218, 5601.730
668.7039, 5586.481
669.1860, 5626.146
669.6682, 5674.112
670.1503, 5694.322
670.6324, 5690.266
671.1145, 5681.980
671.5966, 5679.098
672.0787, 5678.136
672.5609, 5670.191
673.0430, 5658.011
673.5251, 5664.835
674.0072, 5696.405
674.4893, 5726.169
674.9714, 5738.072
675.4536, 5737.795
675.9357, 5739.741
676.4178, 5745.422
676.8999, 5750.053
677.3820, 5752.951
677.8641, 5755.354
678.3463, 5755.043
678.8284, 5755.598
679.3105, 5765.796
679.7926, 5788.373
680.2747, 5806.297
680.7568, 5798.150
681.2390, 5774.702
681.7211, 5760.971
682.2032, 5757.802
682.6853, 5758.731
683.1674, 5760.838
683.6495, 5766.314
684.1317, 5778.944
684.6138, 5799.786
685.0959, 5822.034
685.5780, 5857.821
686.0601, 5880.549
686.5422, 5878.839
687.0244, 5863.940
687.5065, 5842.585
687.9886, 5817.669
688.4707, 5801.983
688.9528, 5807.405
689.4349, 5822.180
689.9171, 5832.240
690.3992, 5840.484
690.8813, 5861.997
691.3634, 5900.069
691.8455, 5924.617
692.3276, 5899.967
692.8098, 5834.936
693.2919, 5811.159
693.7740, 5852.489
694.2561, 5882.197
694.7382, 5876.678
695.2203, 5863.749
695.7025, 5861.002
696.1846, 5866.918
696.6667, 5874.278
697.1488, 5883.405
697.6309, 5890.449
698.1130, 5889.477
698.5952, 5887.438
699.0773, 5893.119
699.5594, 5906.833
700.0415, 5926.117
700.5236, 5950.861
701.0057, 5973.037
701.4879, 5969.958
701.9700, 5939.438
702.4521, 5931.917
702.9342, 5959.804
703.4163, 5990.535
703.8984, 6006.294
704.3806, 6011.208
704.8627, 6016.786
705.3448, 6028.212
705.8269, 6025.675
706.3090, 5982.044
706.7911, 5948.071
707.2733, 5967.651
707.7554, 6013.344
708.2375, 6033.661
708.7196, 6014.173
709.2017, 5991.681
709.6838, 6007.749
710.1660, 6045.700
710.6481, 6063.067
711.1302, 6060.094
711.6123, 6050.159
712.0944, 6036.733
712.5765, 6023.012
713.0587, 6011.496
713.5408, 6001.646
714.0229, 6005.957
714.5050, 6042.332
714.9871, 6068.329
715.4692, 6064.756
715.9514, 6058.380
716.4335, 6074.620
716.9156, 6109.521
717.3977, 6137.881
717.8798, 6150.608
718.3619, 6151.884
718.8441, 6140.010
719.3262, 6120.932
719.8083, 6099.427
720.2904, 6079.354
720.7725, 6077.107
721.2546, 6106.260
721.7368, 6149.740
722.2189, 6163.226
722.7010, 6140.869
723.1831, 6129.716
723.6652, 6138.469
724.1473, 6148.066
724.6295, 6142.957
725.1116, 6133.615
725.5937, 6144.636
726.0758, 6187.165
726.5579, 6210.814
727.0400, 6190.698
727.5222, 6165.342
728.0043, 6154.279
728.4864, 6154.854
728.9685, 6162.493
729.4506, 6175.007
729.9327, 6187.063
730.4149, 6193.484
730.8970, 6196.110
731.3791, 6198.105
731.8612, 6199.745
732.3433, 6204.175
732.8254, 6212.709
733.3076, 6222.366
733.7897, 6231.902
734.2718, 6240.269
734.7539, 6232.381
735.2360, 6184.080
735.7181, 6160.235
736.2003, 6191.653
736.6824, 6226.806
737.1645, 6230.316
737.6466, 6211.952
738.1287, 6201.492
738.6108, 6206.974
739.0930, 6221.151
739.5751, 6243.396
740.0572, 6269.857
740.5393, 6303.206
741.0214, 6336.811
741.5035, 6350.342
741.9857, 6334.022
742.4678, 6304.930
742.9499, 6286.079
743.4320, 6276.864
743.9141, 6265.898
744.3962, 6250.385
744.8784, 6248.827
745.3605, 6272.208
745.8426, 6307.502
746.3247, 6339.624
746.8068, 6369.495
747.2889, 6386.707
747.7711, 6385.807
748.2532, 6380.289
748.7353, 6370.424
749.2174, 6359.435
749.6995, 6347.253
750.1816, 6336.090
750.6638, 6332.914
751.1459, 6342.399
751.6280, 6358.417
752.1101, 6379.808
752.5922, 6402.150
753.0743, 6417.355
753.5565, 6424.489
754.0386, 6423.372
754.5207, 6412.758
755.0028, 6401.861
755.4849, 6413.623
755.9670, 6452.692
756.4492, 6468.077
756.9313, 6449.542
757.4134, 6430.899
757.8955, 6427.502
758.3776, 6431.387
758.8597, 6429.398
759.3419, 6420.448
759.8240, 6417.645
760.3061, 6422.242
760.7882, 6432.932
761.2703, 6454.785
761.7524, 6478.829
762.2346, 6495.222
762.7167, 6503.854
763.1988, 6511.259
763.6809, 6518.679
764.1630, 6530.857
764.6451, 6564.229
765.1273, 6604.746
765.6094, 6608.371
766.0915, 6573.851
766.5736, 6551.217
767.0557, 6572.594
767.5378, 6618.896
768.0200, 6650.531
768.5021, 6666.634
768.9842, 6670.449
769.4663, 6652.647
769.9484, 6642.696
770.4305, 6658.098
770.9127, 6685.180
771.3948, 6704.540
771.8769, 6715.641
772.3590, 6726.433
772.8411, 6738.412
773.3232, 6749.363
773.8054, 6754.248
774.2875, 6760.439
774.7696, 6778.343
775.2517, 6806.191
775.7338, 6831.653
776.2159, 6848.186
776.6981, 6859.127
777.1802, 6866.551
777.6623, 6871.640
778.1444, 6875.368
778.6265, 6878.711
779.1086, 6888.609
779.5908, 6909.686
780.0729, 6933.858
780.5550, 6946.051
781.0371, 6945.371
781.5192, 6939.930
782.0013, 6925.987
782.4835, 6917.185
782.9656, 6919.162
783.4477, 6928.358
783.9298, 6942.079
784.4119, 6960.471
784.8940, 6975.869
785.3762, 6987.567
785.8583, 6996.667
786.3404, 7001.601
786.8225, 7005.509
787.3046, 7012.068
787.7867, 7020.161
788.2689, 7026.439
788.7510, 7031.306
789.2331, 7028.121
789.7152, 7000.908
790.1973, 6967.311
790.6794, 6959.308
791.1616, 6973.158
791.6437, 6982.445
792.1258, 6975.806
792.6079, 6962.527
793.0900, 6953.666
793.5721, 6949.341
794.0543, 6953.331
794.5364, 6968.358
795.0185, 6973.610
795.5006, 6959.988
795.9827, 6941.402
796.4648, 6931.483
796.9470, 6929.217
797.4291, 6924.058
797.9112, 6911.701
798.3933, 6902.673
798.8754, 6897.987
799.3575, 6896.192
799.8397, 6901.005
800.3218, 6906.810
800.8039, 6899.866
801.2860, 6873.672
801.7681, 6859.172
802.2502, 6882.831
802.7324, 6915.352
803.2145, 6936.297
803.6966, 6944.122
804.1787, 6931.799
804.6608, 6901.860
805.1429, 6881.107
805.6251, 6896.290
806.1072, 6929.860
806.5893, 6945.141
807.0714, 6943.810
807.5535, 6936.302
808.0356, 6923.898
808.5178, 6913.597
808.9999, 6910.815
809.4820, 6911.513
809.9641, 6904.222
810.4462, 6883.401
810.9283, 6875.163
811.4105, 6884.993
811.8926, 6898.538
812.3747, 6914.794
812.8568, 6929.020
813.3389, 6932.383
813.8210, 6924.993
814.3032, 6927.462
814.7853, 6958.148
815.2674, 6979.563
815.7495, 6969.092
816.2316, 6951.504
816.7137, 6946.666
817.1959, 6955.674
817.6780, 6976.544
818.1601, 7013.165
818.6422, 7038.750
819.1243, 7014.430
819.6064, 6973.760
820.0886, 6977.338
820.5707, 7013.808
821.0528, 7028.913
821.5349, 7004.014
822.0170, 6967.411
822.4991, 6947.051
822.9813, 6942.622
823.4634, 6957.468
823.9455, 6993.100
824.4276, 7016.517
824.9097, 7017.320
825.3918, 7020.667
825.8740, 7050.238
826.3561, 7093.293
826.8382, 7104.654
827.3203, 7061.720
827.8024, 7039.430
828.2845, 7054.491
828.7667, 7069.901
829.2488, 7067.026
829.7309, 7060.485
830.2130, 7069.111
830.6951, 7093.925
831.1772, 7117.586
831.6594, 7149.109
832.1415, 7162.596
832.6236, 7128.010
833.1057, 7083.833
833.5878, 7068.722
834.0699, 7080.857
834.5521, 7100.787
835.0342, 7122.106
835.5163, 7136.306
835.9984, 7128.228
836.4805, 7111.860
836.9626, 7111.017
837.4448, 7123.457
837.9269, 7139.469
838.4090, 7154.801
838.8911, 7157.773
839.3732, 7130.660
839.8553, 7085.901
840.3375, 7071.136
840.8196, 7086.910
841.3017, 7106.354
841.7838, 7126.466
842.2659, 7140.913
842.7480, 7143.634
843.2302, 7140.198
843.7123, 7145.726
844.1944, 7166.086
844.6765, 7175.567
845.1586, 7168.635
845.6407, 7159.073
846.1229, 7147.102
846.6050, 7137.625
847.0871, 7135.658
847.5692, 7140.999
848.0513, 7149.985
848.5334, 7169.426
849.0156, 7182.608
849.4977, 7180.050
849.9798, 7173.994
850.4619, 7174.013
850.9440, 7178.146
851.4261, 7178.826
851.9083, 7173.148
852.3904, 7173.190
852.8725, 7195.451
853.3546, 7220.192
853.8367, 7223.069
854.3188, 7213.321
854.8010, 7210.695
855.2831, 7218.938
855.7652, 7230.596
856.2473, 7240.995
856.7294, 7249.375
857.2115, 7253.452
857.6937, 7254.212
858.1758, 7255.472
858.6579, 7257.704
859.1400, 7263.393
859.6221, 7274.313
860.1042, 7284.714
860.5864, 7284.950
861.0685, 7275.706
861.5506, 7277.517
862.0327, 7294.410
862.5148, 7306.656
862.9969, 7309.644
863.4791, 7307.503
863.9612, 7301.210
864.4433, 7292.936
864.9254, 7290.622
865.4075, 7295.841
865.8896, 7303.808
866.3718, 7321.351
866.8539, 7333.441
867.3360, 7324.045
867.8181, 7313.340
868.3002, 7330.866
868.7823, 7375.164
869.2645, 7402.463
869.7466, 7384.156
870.2287, 7369.476
870.7108, 7387.100
871.1929, 7408.065
871.6750, 7400.376
872.1572, 7375.551
872.6393, 7366.385
873.1214, 7384.364
873.6035, 7403.975
874.0856, 7406.349
874.5677, 7401.132
875.0499, 7394.809
875.5320, 7390.713
876.0141, 7397.756
876.4962, 7415.301
876.9783, 7431.028
877.4604, 7437.313
877.9426, 7434.577
878.4247, 7418.295
878.9068, 7393.557
879.3889, 7375.522
879.8710, 7366.487
880.3531, 7383.249
880.8353, 7434.262
881.3174, 7485.804
881.7995, 7495.179
882.2816, 7470.417
882.7637, 7464.068
883.2458, 7479.454
883.7280, 7488.190
884.2101, 7484.332
884.6922, 7477.164
885.1743, 7470.280
885.6564, 7466.868
886.1385, 7475.952
886.6207, 7503.858
887.1028, 7514.352
887.5849, 7487.298
888.0670, 7475.714
888.5491, 7514.781
889.0313, 7555.928
889.5134, 7549.074
889.9955, 7506.556
890.4776, 7485.181
890.9597, 7496.975
891.4418, 7515.081
891.9240, 7543.642
892.4061, 7569.286
892.8882, 7585.372
893.3703, 7594.178
893.8524, 7598.567
894.3345, 7599.162
894.8167, 7596.939
895.2988, 7589.435
895.7809, 7582.680
896.2630, 7575.208
896.7451, 7573.641
897.2272, 7592.051
897.7094, 7621.396
898.1915, 7637.984
898.6736, 7633.303
899.1557, 7621.828
899.6378, 7610.027
900.1199, 7601.846
900.6021, 7601.848
901.0842, 7609.370
901.5663, 7626.179
902.0484, 7650.001
902.5305, 7670.247
903.0126, 7680.500
903.4948, 7682.431
903.9769, 7676.089
904.4590, 7663.685
904.9411, 7648.475
905.4232, 7632.620
905.9053, 7632.732
906.3875, 7654.004
906.8696, 7675.302
907.3517, 7674.234
907.8338, 7661.064
908.3159, 7675.264
908.7980, 7717.184
909.2802, 7729.942
909.7623, 7703.262
910.2444, 7681.014
910.7265, 7685.098
911.2086, 7702.159
911.6907, 7713.249
912.1729, 7718.490
912.6550, 7728.658
913.1371, 7747.519
913.6192, 7759.842
914.1013, 7764.581
914.5834, 7758.647
915.0656, 7733.673
915.5477, 7700.495
916.0298, 7683.666
916.5119, 7685.235
916.9940, 7695.725
917.4761, 7720.990
917.9583, 7746.869
918.4404, 7779.646
918.9225, 7803.758
919.4046, 7801.269
919.8867, 7779.375
920.3688, 7764.810
920.8510, 7761.148
921.3331, 7761.230
921.8152, 7764.523
922.2973, 7770.794
922.7794, 7784.116
923.2615, 7797.682
923.7437, 7798.989
924.2258, 7790.613
924.7079, 7795.792
925.1900, 7833.627
925.6721, 7866.073
926.1542, 7880.689
926.6364, 7880.934
927.1185, 7854.360
927.6006, 7821.489
928.0827, 7821.412
928.5648, 7859.503
929.0469, 7891.366
929.5291, 7886.438
930.0112, 7873.023
930.4933, 7870.473
930.9754, 7872.845
931.4575, 7871.854
931.9396, 7868.992
932.4218, 7871.990
932.9039, 7883.512
933.3860, 7894.309
933.8681, 7892.631
934.3502, 7888.790
934.8323, 7901.994
935.3145, 7921.209
935.7966, 7918.624
936.2787, 7895.944
936.7608, 7880.442
937.2429, 7886.695
937.7250, 7903.642
938.2072, 7921.977
938.6893, 7939.331
939.1714, 7949.794
939.6535, 7954.312
940.1356, 7956.203
940.6177, 7956.559
941.0999, 7956.332
941.5820, 7955.524
942.0641, 7958.095
942.5462, 7978.402
943.0283, 8009.539
943.5104, 8009.222
943.9926, 7978.730
944.4747, 7955.941
944.9568, 7952.307
945.4389, 7969.886
945.9210, 8016.140
946.4031, 8071.695
946.8853, 8074.360
947.3674, 8024.487
947.8495, 7997.917
948.3316, 8000.589
948.8137, 8015.399
949.2958, 8037.688
949.7780, 8060.661
950.2601, 8078.112
950.7422, 8088.569
951.2243, 8078.434
951.7064, 8040.194
952.1885, 8034.411
952.6707, 8076.358
953.1528, 8115.496
953.6349, 8130.023
954.1170, 8125.615
954.5991, 8104.274
955.0812, 8068.268
955.5634, 8069.517
956.0455, 8127.544
956.5276, 8161.064
957.0097, 8149.723
957.4918, 8134.901
957.9739, 8137.254
958.4561, 8151.338
958.9382, 8171.712
959.4203, 8200.352
959.9024, 8206.920
960.3845, 8180.249
960.8666, 8152.986
961.3488, 8119.667
961.8309, 8101.189
962.3130, 8120.437
962.7951, 8158.053
963.2772, 8174.792
963.7593, 8165.230
964.2415, 8163.898
964.7236, 8181.448
965.2057, 8191.736
965.6878, 8176.628
966.1699, 8166.390
966.6520, 8188.690
967.1342, 8228.231
967.6163, 8250.705
968.0984, 8253.808
968.5805, 8245.860
969.0626, 8211.777
969.5447, 8187.421
970.0269, 8183.336
970.5090, 8190.743
970.9911, 8211.795
971.4732, 8237.716
971.9553, 8244.389
972.4374, 8221.906
972.9196, 8207.879
973.4017, 8212.886
973.8838, 8220.081
974.3659, 8221.494
974.8480, 8224.333
975.3301, 8239.778
975.8123, 8261.982
976.2944, 8270.438
976.7765, 8255.327
977.2586, 8248.599
977.7407, 8265.336
978.2228, 8282.172
978.7050, 8286.979
979.1871, 8288.462
979.6692, 8297.485
980.1513, 8311.335
980.6334, 8316.771
981.1155, 8305.245
981.5977, 8303.222
982.0798, 8327.543
982.5619, 8352.729
983.0440, 8370.997
983.5261, 8379.666
984.0082, 8368.193
984.4904, 8344.532
984.9725, 8339.861
985.4546, 8372.079
985.9367, 8394.583
986.4188, 8384.095
986.9009, 8366.584
987.3831, 8350.954
987.8652, 8341.079
988.3473, 8344.962
988.8294, 8358.637
989.3115, 8364.051
989.7936, 8351.190
990.2758, 8343.331
990.7579, 8348.539
991.2400, 8363.449
991.7221, 8400.455
992.2042, 8436.254
992.6863, 8433.466
993.1685, 8400.581
993.6506, 8390.862
994.1327, 8433.418
994.6148, 8466.807
995.0969, 8455.175
995.5790, 8434.318
996.0612, 8419.030
996.5433, 8415.127
997.0254, 8439.488
997.5075, 8482.313
997.9896, 8496.949
998.4717, 8453.929
998.9539, 8422.439
999.4360, 8452.367
999.9181, 8485.661
1000.400, 8468.945
1000.882, 8439.700
1001.364, 8461.891
1001.847, 8523.360
1002.329, 8539.705
1002.811, 8459.037
1003.293, 8402.673
1003.775, 8451.020
1004.257, 8517.561
1004.739, 8555.682
1005.221, 8568.288
1005.703, 8546.957
1006.186, 8506.395
1006.668, 8500.045
1007.150, 8560.316
1007.632, 8606.637
1008.114, 8589.771
1008.596, 8560.718
1009.078, 8543.789
1009.560, 8539.685
1010.043, 8551.408
1010.525, 8574.672
1011.007, 8598.250
1011.489, 8624.236
1011.971, 8629.885
1012.453, 8576.200
1012.935, 8532.646
1013.417, 8558.183
1013.899, 8604.796
1014.382, 8617.813
1014.864, 8600.068
1015.346, 8581.215
1015.828, 8566.345
1016.310, 8563.898
1016.792, 8584.660
1017.274, 8609.841
1017.756, 8631.705
1018.239, 8650.882
1018.721, 8672.505
1019.203, 8692.025
1019.685, 8695.004
1020.167, 8674.817
1020.649, 8655.062
1021.131, 8633.403
1021.613, 8626.216
1022.095, 8652.621
1022.578, 8686.979
1023.060, 8708.634
1023.542, 8717.981
1024.024, 8720.942
1024.506, 8718.173
1024.988, 8711.576
1025.470, 8696.657
1025.952, 8684.544
1026.435, 8669.457
1026.917, 8668.011
1027.399, 8711.052
1027.881, 8772.655
1028.363, 8794.377
1028.845, 8763.459
1029.327, 8738.461
1029.809, 8730.280
1030.292, 8728.837
1030.774, 8736.985
1031.256, 8745.414
1031.738, 8742.648
1032.220, 8737.966
1032.702, 8749.911
1033.184, 8781.148
1033.666, 8809.221
1034.148, 8836.690
1034.630, 8853.653
1035.113, 8853.066
1035.595, 8847.483
1036.077, 8840.950
1036.559, 8835.161
1037.041, 8832.762
1037.523, 8833.854
1038.005, 8835.179
1038.487, 8835.823
1038.970, 8838.157
1039.452, 8845.236
1039.934, 8850.126
1040.416, 8846.187
1040.898, 8841.639
1041.380, 8848.765
1041.862, 8865.782
1042.344, 8872.364
1042.826, 8860.617
1043.309, 8856.371
1043.791, 8867.853
1044.273, 8871.919
1044.755, 8850.354
1045.237, 8832.119
1045.719, 8850.683
1046.201, 8896.648
1046.683, 8927.336
1047.166, 8942.874
1047.648, 8939.337
1048.130, 8902.862
1048.612, 8890.606
1049.094, 8927.187
1049.576, 8974.784
1050.058, 9004.412
1050.540, 9017.432
1051.022, 9013.368
1051.505, 8988.350
1051.987, 8990.936
1052.469, 9029.684
1052.951, 9036.532
1053.433, 8988.553
1053.915, 8945.748
1054.397, 8949.669
1054.879, 8978.215
1055.361, 8991.665
1055.844, 8991.260
1056.326, 8987.219
1056.808, 8979.641
1057.290, 9003.437
1057.772, 9065.102
1058.254, 9104.073
1058.736, 9086.440
1059.218, 9057.532
1059.701, 9084.398
1060.183, 9142.017
1060.665, 9137.659
1061.147, 9084.209
1061.629, 9048.875
1062.111, 9039.372
1062.593, 9049.229
1063.075, 9075.147
1063.557, 9106.108
1064.040, 9134.945
1064.522, 9154.624
1065.004, 9143.145
1065.486, 9115.403
1065.968, 9107.073
1066.450, 9117.323
1066.932, 9134.000
1067.414, 9152.901
1067.896, 9172.164
1068.379, 9190.084
1068.861, 9209.287
1069.343, 9240.615
1069.825, 9269.085
1070.307, 9265.266
1070.789, 9245.692
1071.271, 9246.651
1071.753, 9269.117
1072.236, 9287.419
1072.718, 9289.759
1073.200, 9288.472
1073.682, 9289.674
1074.164, 9294.111
1074.646, 9310.037
1075.128, 9324.015
1075.610, 9311.112
1076.093, 9283.365
1076.575, 9277.012
1077.057, 9302.122
1077.539, 9330.607
1078.021, 9355.758
1078.503, 9374.345
1078.985, 9393.220
1079.467, 9396.783
1079.949, 9354.438
1080.432, 9297.518
1080.914, 9284.950
1081.396, 9320.047
1081.878, 9332.025
1082.360, 9273.663
1082.842, 9244.478
1083.324, 9293.788
1083.806, 9334.122
1084.288, 9302.792
1084.771, 9260.327
1085.253, 9286.806
1085.735, 9362.762
1086.217, 9390.290
1086.699, 9347.196
1087.181, 9313.797
1087.663, 9288.628
1088.145, 9276.873
1088.628, 9283.021
1089.110, 9297.892
1089.592, 9318.515
1090.074, 9338.808
1090.556, 9343.977
1091.038, 9333.171
1091.520, 9332.953
1092.002, 9345.707
1092.484, 9353.039
1092.967, 9351.087
1093.449, 9352.739
1093.931, 9367.496
1094.413, 9370.019
1094.895, 9318.958
1095.377, 9240.128
1095.859, 9241.263
1096.341, 9309.265
1096.823, 9339.909
1097.306, 9328.332
1097.788, 9316.963
1098.270, 9320.076
1098.752, 9334.432
1099.234, 9359.629
1099.716, 9385.416
1100.198, 9397.368
1100.680, 9397.769
1101.163, 9385.039
1101.645, 9366.446
1102.127, 9363.762
1102.609, 9375.184
1103.091, 9368.849
1103.573, 9327.586
1104.055, 9309.586
1104.537, 9402.510
1105.020, 9498.129
1105.502, 9482.444
1105.984, 9422.364
1106.466, 9394.449
1106.948, 9394.266
1107.430, 9389.062
1107.912, 9372.884
1108.394, 9374.123
1108.876, 9416.388
1109.359, 9459.872
1109.841, 9509.701
1110.323, 9533.844
1110.805, 9486.092
1111.287, 9419.651
1111.769, 9398.919
1112.251, 9420.634
1112.733, 9447.789
1113.215, 9487.562
1113.698, 9506.572
1114.180, 9486.942
1114.662, 9473.730
1115.144, 9480.913
1115.626, 9491.647
1116.108, 9495.962
1116.590, 9494.915
1117.072, 9488.512
1117.555, 9476.670
1118.037, 9481.357
1118.519, 9507.483
1119.001, 9522.687
1119.483, 9522.943
1119.965, 9511.013
1120.447, 9485.583
1120.929, 9465.597
1121.411, 9471.831
1121.894, 9494.891
1122.376, 9512.675
1122.858, 9525.332
1123.340, 9532.890
1123.822, 9536.153
1124.304, 9533.867
1124.786, 9529.168
1125.268, 9550.805
1125.750, 9617.306
1126.233, 9677.735
1126.715, 9663.049
1127.197, 9617.617
1127.679, 9593.331
1128.161, 9586.890
1128.643, 9599.619
1129.125, 9622.720
1129.607, 9637.064
1130.090, 9638.053
1130.572, 9635.320
1131.054, 9632.631
1131.536, 9629.290
1132.018, 9617.539
1132.500, 9613.157
1132.982, 9640.296
1133.464, 9671.261
1133.947, 9662.469
1134.429, 9626.304
1134.911, 9624.416
1135.393, 9680.434
1135.875, 9714.615
1136.357, 9715.196
1136.839, 9699.796
1137.321, 9648.744
1137.803, 9616.831
1138.286, 9648.489
1138.768, 9700.889
1139.250, 9708.909
1139.732, 9678.185
1140.214, 9659.600
1140.696, 9651.626
1141.178, 9675.406
1141.660, 9737.263
1142.142, 9772.698
1142.625, 9759.975
1143.107, 9732.808
1143.589, 9715.394
1144.071, 9708.948
1144.553, 9720.504
1145.035, 9743.010
1145.517, 9755.055
1145.999, 9759.306
1146.482, 9761.988
1146.964, 9766.070
1147.446, 9781.384
1147.928, 9810.138
1148.410, 9830.000
1148.892, 9819.828
1149.374, 9802.035
1149.856, 9790.461
1150.339, 9786.638
1150.821, 9798.489
1151.303, 9815.296
1151.785, 9823.409
1152.267, 9821.085
1152.749, 9809.244
1153.231, 9783.124
1153.713, 9767.656
1154.195, 9777.000
1154.677, 9785.790
1155.160, 9769.892
1155.642, 9770.590
1156.124, 9840.545
1156.606, 9919.053
1157.088, 9906.548
1157.570, 9814.162
1158.052, 9776.760
1158.534, 9808.354
1159.017, 9831.686
1159.499, 9842.537
1159.981, 9845.754
1160.463, 9841.065
1160.945, 9845.555
1161.427, 9874.171
1161.909, 9906.041
1162.391, 9900.694
1162.874, 9871.883
1163.356, 9862.791
1163.838, 9870.883
1164.320, 9897.470
1164.802, 9933.708
1165.284, 9944.489
1165.766, 9922.169
1166.248, 9906.146
1166.730, 9925.376
1167.213, 9952.398
1167.695, 9974.067
1168.177, 9983.600
1168.659, 9961.665
1169.141, 9933.534
1169.623, 9930.559
1170.105, 9949.423
1170.587, 9974.720
1171.069, 10006.63
1171.552, 10020.31
1172.034, 9999.498
1172.516, 9978.742
1172.998, 9961.385
1173.480, 9947.232
1173.962, 9932.237
1174.444, 9926.870
1174.926, 9946.869
1175.409, 9981.564
1175.891, 9992.705
1176.373, 9978.566
1176.855, 9960.362
1177.337, 9937.410
1177.819, 9945.362
1178.301, 9989.878
1178.783, 10025.88
1179.266, 10031.43
1179.748, 10030.95
1180.230, 10055.88
1180.712, 10079.31
1181.194, 10042.76
1181.676, 9983.813
1182.158, 9966.080
1182.640, 9979.138
1183.122, 9996.612
1183.604, 10011.88
1184.087, 10025.89
1184.569, 10040.22
1185.051, 10043.31
1185.533, 10012.36
1186.015, 9992.979
1186.497, 10015.68
1186.979, 10044.51
1187.461, 10053.40
1187.944, 10053.75
1188.426, 10063.18
1188.908, 10080.23
1189.390, 10094.40
1189.872, 10104.04
1190.354, 10117.99
1190.836, 10139.09
1191.318, 10151.16
1191.801, 10149.53
1192.283, 10147.00
1192.765, 10151.37
1193.247, 10152.87
1193.729, 10134.18
1194.211, 10111.48
1194.693, 10132.06
1195.175, 10177.86
1195.657, 10199.18
1196.140, 10202.26
1196.622, 10220.48
1197.104, 10253.51
1197.586, 10262.88
1198.068, 10228.56
1198.550, 10201.34
1199.032, 10228.96
1199.514, 10252.09
1199.996, 10226.29
1200.479, 10193.61
1200.961, 10188.06
1201.443, 10196.71
1201.925, 10196.40
1202.407, 10188.64
1202.889, 10193.23
1203.371, 10211.70
1203.853, 10240.74
1204.336, 10291.61
1204.818, 10313.70
1205.300, 10291.59
1205.782, 10263.53
1206.264, 10249.38
1206.746, 10241.12
1207.228, 10226.38
1207.710, 10216.19
1208.193, 10249.21
1208.675, 10305.65
1209.157, 10325.40
1209.639, 10317.29
1210.121, 10314.13
1210.603, 10320.67
1211.085, 10327.91
1211.567, 10332.52
1212.049, 10325.57
1212.531, 10285.06
1213.014, 10253.94
1213.496, 10262.42
1213.978, 10279.89
1214.460, 10278.89
1214.942, 10279.13
1215.424, 10323.11
1215.906, 10389.13
1216.388, 10390.52
1216.871, 10309.49
1217.353, 10275.93
1217.835, 10300.80
1218.317, 10328.91
1218.799, 10354.81
1219.281, 10365.40
1219.763, 10353.70
1220.245, 10348.31
1220.728, 10378.55
1221.210, 10417.57
1221.692, 10413.02
1222.174, 10385.72
1222.656, 10382.31
1223.138, 10388.27
1223.620, 10363.84
1224.102, 10320.04
1224.584, 10298.42
1225.067, 10309.67
1225.549, 10339.09
1226.031, 10399.89
1226.513, 10439.24
1226.995, 10427.00
1227.477, 10405.79
1227.959, 10386.19
1228.441, 10372.94
1228.923, 10365.45
1229.406, 10369.77
1229.888, 10400.99
1230.370, 10454.81
1230.852, 10484.61
1231.334, 10490.67
1231.816, 10450.38
1232.298, 10366.52
1232.780, 10337.40
1233.263, 10382.81
1233.745, 10419.45
1234.227, 10399.58
1234.709, 10370.81
1235.191, 10385.02
1235.673, 10413.19
1236.155, 10424.37
1236.637, 10430.92
1237.120, 10456.71
1237.602, 10481.54
##END=



