##NAMES=Trigonite
##RRUFFID=R100050
##IDEAL CHEMISTRY=Pb^2+^_3_Mn^2+^(As^3+^O_3_)_2_(As^3+^O_2_OH)
##LOCALITY=Langban, Filipstad, Varmland, Sweden
##OWNER=RRUFF
##SOURCE=William W Pinch
##DESCRIPTION=Yellow masses, some with crystal faces
##STATUS=The identification of this mineral has been confirmed by single-crystal X-ray diffraction.
##URL=rruff.info/R100050
92.49744, 2785.174
92.97955, 2836.624
93.46167, 2915.335
93.94379, 2963.945
94.42590, 2997.239
94.90802, 3021.952
95.39014, 3036.939
95.87225, 3039.801
96.35437, 3043.843
96.83649, 3055.981
97.31860, 3073.956
97.80072, 3095.498
98.28284, 3115.289
98.76495, 3131.802
99.24707, 3153.812
99.72919, 3179.747
100.2113, 3215.386
100.6934, 3262.605
101.1755, 3319.687
101.6577, 3383.625
102.1398, 3454.246
102.6219, 3534.922
103.1040, 3602.200
103.5861, 3657.032
104.0682, 3701.956
104.5504, 3734.306
105.0325, 3755.139
105.5146, 3772.162
105.9967, 3794.023
106.4788, 3817.191
106.9609, 3855.991
107.4431, 3913.172
107.9252, 3985.823
108.4073, 4071.016
108.8894, 4168.998
109.3715, 4276.944
109.8536, 4391.750
110.3358, 4517.475
110.8179, 4636.399
111.3000, 4747.104
111.7821, 4847.811
112.2642, 4919.841
112.7463, 4950.835
113.2285, 4949.021
113.7106, 4919.436
114.1927, 4857.997
114.6748, 4781.853
115.1569, 4711.321
115.6390, 4641.161
116.1212, 4590.305
116.6033, 4572.404
117.0854, 4569.909
117.5675, 4568.109
118.0496, 4560.976
118.5317, 4547.149
119.0139, 4520.214
119.4960, 4467.626
119.9781, 4413.663
120.4602, 4353.904
120.9423, 4295.868
121.4244, 4250.572
121.9066, 4225.986
122.3887, 4222.299
122.8708, 4240.559
123.3529, 4284.394
123.8350, 4340.734
124.3171, 4411.226
124.7993, 4492.413
125.2814, 4570.897
125.7635, 4635.858
126.2456, 4685.667
126.7277, 4712.055
127.2098, 4707.416
127.6920, 4682.532
128.1741, 4646.390
128.6562, 4599.910
129.1383, 4546.690
129.6204, 4487.897
130.1025, 4424.032
130.5847, 4363.178
131.0668, 4304.694
131.5489, 4250.877
132.0310, 4209.792
132.5131, 4183.335
132.9952, 4171.864
133.4774, 4171.744
133.9595, 4182.972
134.4416, 4206.979
134.9237, 4246.839
135.4058, 4304.165
135.8879, 4367.896
136.3701, 4438.890
136.8522, 4513.905
137.3343, 4595.861
137.8164, 4685.207
138.2985, 4771.064
138.7806, 4838.742
139.2628, 4897.821
139.7449, 4914.665
140.2270, 4884.797
140.7091, 4820.783
141.1912, 4727.525
141.6733, 4607.796
142.1555, 4469.350
142.6376, 4340.648
143.1197, 4211.149
143.6018, 4104.618
144.0839, 4023.899
144.5660, 3968.013
145.0482, 3935.753
145.5303, 3927.219
146.0124, 3941.433
146.4945, 3971.141
146.9766, 4022.914
147.4587, 4079.537
147.9409, 4137.712
148.4230, 4196.003
148.9051, 4249.826
149.3872, 4298.032
149.8693, 4337.804
150.3514, 4365.407
150.8336, 4378.198
151.3157, 4380.348
151.7978, 4373.215
152.2799, 4355.791
152.7620, 4336.308
153.2441, 4316.545
153.7263, 4299.073
154.2084, 4289.689
154.6905, 4291.539
155.1726, 4302.708
155.6547, 4318.866
156.1368, 4338.855
156.6190, 4366.897
157.1011, 4404.127
157.5832, 4449.480
158.0653, 4501.772
158.5474, 4559.894
159.0295, 4623.956
159.5117, 4695.584
159.9938, 4780.109
160.4759, 4868.503
160.9580, 4958.791
161.4401, 5050.168
161.9222, 5141.748
162.4044, 5234.955
162.8865, 5333.753
163.3686, 5412.412
163.8507, 5474.225
164.3328, 5515.878
164.8149, 5534.335
165.2971, 5530.026
165.7792, 5504.904
166.2613, 5459.837
166.7434, 5387.927
167.2255, 5313.737
167.7076, 5236.407
168.1898, 5157.507
168.6719, 5075.536
169.1540, 4990.755
169.6361, 4909.780
170.1182, 4841.400
170.6003, 4787.195
171.0825, 4745.432
171.5646, 4719.147
172.0467, 4704.334
172.5288, 4696.711
173.0109, 4695.101
173.4930, 4700.271
173.9752, 4714.994
174.4573, 4738.311
174.9394, 4768.362
175.4215, 4806.007
175.9036, 4850.133
176.3857, 4898.830
176.8679, 4954.094
177.3500, 5010.700
177.8321, 5061.857
178.3142, 5107.720
178.7963, 5151.000
179.2784, 5193.386
179.7606, 5234.990
180.2427, 5273.911
180.7248, 5309.897
181.2069, 5342.343
181.6890, 5370.813
182.1711, 5395.354
182.6533, 5416.714
183.1354, 5436.670
183.6175, 5455.892
184.0996, 5468.473
184.5817, 5469.430
185.0638, 5465.138
185.5460, 5459.279
186.0281, 5452.570
186.5102, 5442.202
186.9923, 5424.042
187.4744, 5396.724
187.9565, 5364.520
188.4387, 5328.877
188.9208, 5288.747
189.4029, 5243.073
189.8850, 5191.383
190.3671, 5135.114
190.8492, 5075.929
191.3314, 5014.416
191.8135, 4948.999
192.2956, 4880.909
192.7777, 4809.146
193.2598, 4732.114
193.7419, 4649.487
194.2241, 4562.917
194.7062, 4476.532
195.1883, 4388.890
195.6704, 4302.732
196.1525, 4219.210
196.6346, 4137.126
197.1168, 4054.605
197.5989, 3970.736
198.0810, 3886.946
198.5631, 3807.619
199.0452, 3733.001
199.5273, 3661.899
200.0095, 3593.685
200.4916, 3529.073
200.9737, 3468.616
201.4558, 3412.107
201.9379, 3360.275
202.4200, 3314.686
202.9022, 3277.233
203.3843, 3241.326
203.8664, 3205.194
204.3485, 3168.865
204.8306, 3132.633
205.3127, 3096.583
205.7949, 3060.758
206.2770, 3025.300
206.7591, 2989.382
207.2412, 2955.088
207.7233, 2923.522
208.2054, 2894.482
208.6876, 2867.635
209.1697, 2843.238
209.6518, 2820.919
210.1339, 2799.647
210.6160, 2779.224
211.0981, 2760.618
211.5803, 2744.789
212.0624, 2731.763
212.5445, 2720.425
213.0266, 2711.407
213.5087, 2703.543
213.9908, 2695.894
214.4730, 2688.431
214.9551, 2680.920
215.4372, 2673.031
215.9193, 2664.580
216.4014, 2656.768
216.8836, 2650.569
217.3657, 2644.780
217.8478, 2638.817
218.3299, 2632.583
218.8120, 2625.643
219.2941, 2617.135
219.7763, 2606.376
220.2584, 2596.286
220.7405, 2588.501
221.2226, 2580.763
221.7047, 2571.914
222.1868, 2561.556
222.6690, 2549.243
223.1511, 2533.932
223.6332, 2514.022
224.1153, 2494.439
224.5974, 2476.560
225.0795, 2458.664
225.5617, 2439.731
226.0438, 2419.422
226.5259, 2397.794
227.0080, 2374.930
227.4901, 2351.156
227.9722, 2325.465
228.4544, 2296.302
228.9365, 2266.511
229.4186, 2238.865
229.9007, 2214.051
230.3828, 2190.347
230.8649, 2165.099
231.3471, 2137.817
231.8292, 2109.235
232.3113, 2078.477
232.7934, 2047.111
233.2755, 2016.045
233.7576, 1985.737
234.2398, 1955.957
234.7219, 1926.750
235.2040, 1897.524
235.6861, 1870.082
236.1682, 1844.163
236.6503, 1820.072
237.1325, 1798.246
237.6146, 1778.870
238.0967, 1761.599
238.5788, 1745.993
239.0609, 1732.216
239.5430, 1720.423
240.0252, 1710.859
240.5073, 1703.252
240.9894, 1697.876
241.4715, 1694.756
241.9536, 1692.561
242.4357, 1688.977
242.9179, 1682.859
243.4000, 1680.953
243.8821, 1686.563
244.3642, 1695.488
244.8463, 1702.756
245.3284, 1707.300
245.8106, 1712.297
246.2927, 1721.801
246.7748, 1735.915
247.2569, 1750.901
247.7390, 1766.645
248.2211, 1782.862
248.7033, 1799.251
249.1854, 1815.796
249.6675, 1832.500
250.1496, 1849.118
250.6317, 1865.881
251.1138, 1883.932
251.5960, 1905.143
252.0781, 1927.138
252.5602, 1946.629
253.0423, 1962.829
253.5244, 1978.722
254.0065, 1996.369
254.4887, 2015.500
254.9708, 2035.911
255.4529, 2058.339
255.9350, 2081.674
256.4171, 2104.054
256.8992, 2125.189
257.3813, 2146.438
257.8635, 2169.797
258.3456, 2193.907
258.8277, 2216.535
259.3098, 2235.856
259.7919, 2253.848
260.2740, 2273.735
260.7562, 2296.190
261.2383, 2317.536
261.7204, 2335.779
262.2025, 2351.633
262.6846, 2365.780
263.1667, 2378.487
263.6489, 2389.447
264.1310, 2398.251
264.6131, 2404.779
265.0952, 2409.659
265.5773, 2413.370
266.0594, 2415.436
266.5416, 2415.303
267.0237, 2412.991
267.5058, 2408.020
267.9879, 2399.646
268.4700, 2387.757
268.9521, 2373.109
269.4343, 2355.898
269.9164, 2335.918
270.3985, 2312.764
270.8806, 2286.331
271.3627, 2256.763
271.8448, 2223.943
272.3270, 2187.396
272.8091, 2149.274
273.2912, 2108.378
273.7733, 2067.004
274.2554, 2026.069
274.7375, 1985.550
275.2197, 1946.108
275.7018, 1908.163
276.1839, 1871.979
276.6660, 1836.470
277.1481, 1801.552
277.6302, 1767.427
278.1124, 1734.004
278.5945, 1701.443
279.0766, 1671.221
279.5587, 1645.121
280.0408, 1623.409
280.5229, 1602.865
281.0051, 1583.759
281.4872, 1565.734
281.9693, 1548.194
282.4514, 1531.546
282.9335, 1516.884
283.4156, 1505.405
283.8978, 1497.147
284.3799, 1490.183
284.8620, 1486.327
285.3441, 1481.974
285.8262, 1474.766
286.3083, 1466.047
286.7905, 1458.889
287.2726, 1455.970
287.7547, 1456.696
288.2368, 1455.417
288.7189, 1450.800
289.2010, 1445.535
289.6832, 1440.653
290.1653, 1435.609
290.6474, 1429.714
291.1295, 1422.783
291.6116, 1414.453
292.0938, 1403.156
292.5759, 1387.617
293.0580, 1370.647
293.5401, 1351.708
294.0222, 1332.218
294.5043, 1314.016
294.9865, 1297.944
295.4686, 1283.030
295.9507, 1266.690
296.4328, 1247.025
296.9149, 1229.466
297.3970, 1214.952
297.8792, 1202.322
298.3613, 1190.698
298.8434, 1179.759
299.3255, 1169.760
299.8076, 1161.153
300.2897, 1154.111
300.7719, 1148.199
301.2540, 1142.696
301.7361, 1138.568
302.2182, 1136.243
302.7003, 1135.892
303.1824, 1137.589
303.6646, 1141.920
304.1467, 1150.016
304.6288, 1156.576
305.1109, 1161.113
305.5930, 1164.688
306.0751, 1168.195
306.5573, 1171.288
307.0394, 1172.932
307.5215, 1172.734
308.0036, 1170.965
308.4857, 1162.886
308.9678, 1145.904
309.4500, 1124.738
309.9321, 1100.094
310.4142, 1072.085
310.8963, 1040.370
311.3784, 1004.147
311.8605, 964.0558
312.3427, 925.8617
312.8248, 889.4214
313.3069, 854.9539
313.7890, 821.9070
314.2711, 790.9095
314.7532, 762.6019
315.2354, 737.5041
315.7175, 715.0134
316.1996, 693.7482
316.6817, 673.2468
317.1638, 654.8398
317.6459, 638.3825
318.1281, 623.9152
318.6102, 611.9333
319.0923, 602.4796
319.5744, 594.5797
320.0565, 586.5648
320.5386, 577.8456
321.0208, 570.4835
321.5029, 564.9580
321.9850, 560.2896
322.4671, 555.9050
322.9492, 551.7063
323.4313, 547.9182
323.9135, 544.7573
324.3956, 542.2828
324.8777, 540.1707
325.3598, 538.1229
325.8419, 536.7043
326.3240, 536.5266
326.8062, 537.2287
327.2883, 537.8436
327.7704, 537.5536
328.2525, 536.4353
328.7346, 535.8308
329.2167, 535.8932
329.6989, 536.3739
330.1810, 537.4653
330.6631, 538.8738
331.1452, 540.1376
331.6273, 540.9785
332.1094, 541.6254
332.5916, 542.8085
333.0737, 544.8048
333.5558, 546.9061
334.0379, 549.1094
334.5200, 551.2865
335.0021, 553.2596
335.4843, 554.9840
335.9664, 556.6169
336.4485, 558.4876
336.9306, 560.8630
337.4127, 562.6678
337.8948, 563.5352
338.3770, 564.0328
338.8591, 564.4805
339.3412, 564.9028
339.8233, 565.1153
340.3055, 564.8702
340.7876, 564.1191
341.2697, 563.3949
341.7518, 562.4289
342.2339, 561.7859
342.7160, 562.0409
343.1982, 562.8138
343.6803, 563.2698
344.1624, 562.9925
344.6445, 561.9227
345.1266, 559.6072
345.6087, 555.1381
346.0909, 550.8782
346.5730, 547.5981
347.0551, 544.9394
347.5372, 542.4901
348.0193, 540.0598
348.5014, 537.7479
348.9836, 535.7596
349.4657, 534.2270
349.9478, 532.6053
350.4299, 530.0734
350.9120, 527.8138
351.3941, 526.7013
351.8763, 526.9000
352.3584, 528.0582
352.8405, 530.2191
353.3226, 533.4371
353.8047, 535.9084
354.2868, 536.6991
354.7690, 537.3974
355.2511, 538.7280
355.7332, 540.7640
356.2153, 543.6044
356.6974, 547.8448
357.1795, 553.0309
357.6617, 557.2511
358.1438, 559.9358
358.6259, 562.7517
359.1080, 566.9406
359.5901, 571.7980
360.0722, 576.2766
360.5544, 580.1028
361.0365, 583.2630
361.5186, 585.9164
362.0007, 588.1198
362.4828, 589.2354
362.9649, 589.0541
363.4471, 587.4938
363.9292, 584.4309
364.4113, 579.7369
364.8934, 573.9854
365.3755, 567.3363
365.8576, 559.9021
366.3398, 552.3323
366.8219, 544.8079
367.3040, 537.0593
367.7861, 528.3567
368.2682, 518.8422
368.7503, 510.3457
369.2325, 504.1505
369.7146, 499.2336
370.1967, 493.7897
370.6788, 487.5436
371.1609, 481.3926
371.6430, 475.7386
372.1252, 470.7504
372.6073, 467.0992
373.0894, 465.8564
373.5715, 465.2173
374.0536, 463.5749
374.5357, 461.1628
375.0179, 459.3912
375.5000, 459.0937
375.9821, 459.7632
376.4642, 460.2488
376.9463, 460.7651
377.4284, 460.6753
377.9106, 459.3408
378.3927, 457.3330
378.8748, 455.7059
379.3569, 454.7786
379.8390, 453.9633
380.3211, 452.4413
380.8033, 450.0560
381.2854, 447.8744
381.7675, 446.3968
382.2496, 444.8578
382.7317, 442.4797
383.2138, 439.3199
383.6960, 436.1100
384.1781, 433.2776
384.6602, 430.8663
385.1423, 429.3172
385.6244, 428.7337
386.1065, 428.6973
386.5887, 429.2865
387.0708, 430.2910
387.5529, 431.4518
388.0350, 432.6701
388.5171, 433.8308
388.9992, 434.6740
389.4814, 434.7449
389.9635, 435.2019
390.4456, 436.5837
390.9277, 437.9937
391.4098, 438.6323
391.8919, 438.4415
392.3741, 437.9761
392.8562, 437.7982
393.3383, 437.9425
393.8204, 438.1263
394.3025, 438.2318
394.7846, 438.4976
395.2668, 439.1872
395.7489, 440.0806
396.2310, 440.7004
396.7131, 440.7223
397.1952, 440.4476
397.6773, 440.9316
398.1595, 442.4726
398.6416, 444.3492
399.1237, 446.7578
399.6058, 449.2374
400.0879, 451.1907
400.5700, 452.5619
401.0522, 454.1073
401.5343, 456.9621
402.0164, 461.4061
402.4985, 465.4165
402.9806, 468.5436
403.4627, 471.5645
403.9449, 474.5401
404.4270, 477.6579
404.9091, 481.3370
405.3912, 486.0187
405.8733, 491.3651
406.3554, 496.2833
406.8376, 500.7276
407.3197, 504.9379
407.8018, 509.0981
408.2839, 513.0364
408.7660, 516.3802
409.2481, 518.9656
409.7303, 521.5429
410.2124, 524.8719
410.6945, 528.9224
411.1766, 533.3319
411.6587, 538.2776
412.1408, 543.2732
412.6230, 547.7358
413.1051, 551.7546
413.5872, 556.0117
414.0693, 561.2390
414.5514, 566.7228
415.0335, 571.0829
415.5157, 574.1385
415.9978, 577.2231
416.4799, 581.1152
416.9620, 585.7338
417.4441, 590.6931
417.9262, 596.4758
418.4084, 601.9436
418.8905, 606.0215
419.3726, 609.2557
419.8547, 613.1443
420.3368, 618.3102
420.8189, 623.9454
421.3011, 628.5203
421.7832, 631.4896
422.2653, 635.7604
422.7474, 643.4651
423.2295, 651.3693
423.7116, 656.3829
424.1938, 658.5290
424.6759, 660.1573
425.1580, 663.0547
425.6401, 667.1530
426.1222, 671.2988
426.6043, 675.8155
427.0865, 679.9919
427.5686, 683.7689
428.0507, 687.0706
428.5328, 689.7982
429.0149, 691.9185
429.4970, 693.5133
429.9792, 694.7955
430.4613, 696.1370
430.9434, 696.2539
431.4255, 694.5826
431.9076, 692.4199
432.3897, 690.4951
432.8719, 688.7615
433.3540, 686.7894
433.8361, 684.2943
434.3182, 681.2755
434.8003, 677.6102
435.2824, 672.9628
435.7646, 668.1759
436.2467, 663.0071
436.7288, 658.0504
437.2109, 654.0961
437.6930, 651.3974
438.1751, 649.1827
438.6573, 646.1410
439.1394, 642.1122
439.6215, 639.6561
440.1036, 640.2216
440.5857, 641.2513
441.0678, 641.2317
441.5500, 640.2598
442.0321, 638.8363
442.5142, 636.5937
442.9963, 634.2991
443.4784, 633.7703
443.9605, 635.3172
444.4427, 636.1868
444.9248, 634.6367
445.4069, 631.7060
445.8890, 629.3388
446.3711, 627.8542
446.8532, 626.2438
447.3354, 624.1597
447.8175, 621.5325
448.2996, 618.0354
448.7817, 613.5058
449.2638, 608.7225
449.7459, 604.5975
450.2281, 601.1782
450.7102, 597.4163
451.1923, 592.7803
451.6744, 588.2272
452.1565, 584.4932
452.6386, 581.3747
453.1208, 578.3099
453.6029, 575.0445
454.0850, 571.4628
454.5671, 567.2287
455.0492, 560.7051
455.5313, 555.8129
456.0135, 553.6649
456.4956, 552.4404
456.9777, 550.4843
457.4598, 547.7236
457.9419, 545.3586
458.4240, 544.6451
458.9062, 545.6185
459.3883, 545.9698
459.8704, 544.6286
460.3525, 543.8793
460.8346, 544.2787
461.3167, 545.5233
461.7989, 547.3973
462.2810, 549.8410
462.7631, 552.3002
463.2452, 553.7216
463.7273, 553.8226
464.2094, 554.5733
464.6916, 556.8396
465.1737, 559.2352
465.6558, 560.8733
466.1379, 561.9088
466.6200, 563.0565
467.1021, 564.8215
467.5843, 566.8965
468.0664, 568.6727
468.5485, 570.1385
469.0306, 571.4367
469.5127, 572.6065
469.9948, 573.6555
470.4770, 574.5504
470.9591, 575.2250
471.4412, 576.0099
471.9233, 577.5178
472.4054, 579.1463
472.8875, 579.7438
473.3697, 579.0908
473.8518, 577.6953
474.3339, 575.8966
474.8160, 573.6896
475.2981, 571.4724
475.7802, 569.4977
476.2624, 567.2567
476.7445, 564.1774
477.2266, 560.7050
477.7087, 557.9739
478.1908, 556.4341
478.6729, 554.9733
479.1551, 551.5467
479.6372, 545.1674
480.1193, 538.9886
480.6014, 532.6050
481.0835, 526.7193
481.5656, 522.0840
482.0478, 518.3290
482.5299, 514.4758
483.0120, 509.9133
483.4941, 504.7260
483.9762, 499.3546
484.4583, 493.7578
484.9405, 488.0635
485.4226, 482.5821
485.9047, 476.8203
486.3868, 469.9476
486.8689, 462.0469
487.3510, 454.8758
487.8332, 450.9539
488.3153, 449.3216
488.7974, 444.7088
489.2795, 435.7734
489.7616, 426.7196
490.2437, 420.2453
490.7259, 415.2731
491.2080, 410.1588
491.6901, 404.4655
492.1722, 398.9753
492.6543, 394.5436
493.1364, 390.7988
493.6186, 386.6277
494.1007, 381.6483
494.5828, 376.4165
495.0649, 371.3991
495.5470, 366.5832
496.0291, 362.5695
496.5113, 360.0058
496.9934, 357.6451
497.4755, 354.6621
497.9576, 351.2935
498.4397, 348.1608
498.9218, 345.5757
499.4040, 343.4366
499.8861, 341.5499
500.3682, 339.8479
500.8503, 338.5887
501.3324, 337.8600
501.8145, 337.4359
502.2967, 337.3724
502.7788, 337.5076
503.2609, 337.4433
503.7430, 336.8623
504.2251, 335.9150
504.7072, 335.1789
505.1894, 334.6610
505.6715, 334.3382
506.1536, 334.6088
506.6357, 334.8027
507.1178, 334.2826
507.5999, 333.0027
508.0821, 331.6263
508.5642, 330.8846
509.0463, 330.4234
509.5284, 329.1190
510.0105, 326.8040
510.4926, 324.1339
510.9748, 321.6740
511.4569, 319.0822
511.9390, 315.4647
512.4211, 309.8911
512.9032, 304.9580
513.3853, 302.5922
513.8674, 301.5507
514.3495, 299.6905
514.8317, 296.5145
515.3138, 292.8929
515.7959, 289.6006
516.2780, 286.6142
516.7601, 284.3166
517.2422, 283.1554
517.7244, 282.0507
518.2065, 280.3716
518.6886, 278.6100
519.1707, 277.5766
519.6528, 277.5362
520.1349, 277.9497
520.6171, 277.9935
521.0992, 277.5417
521.5813, 277.2409
522.0634, 277.1153
522.5455, 277.1356
523.0276, 277.1176
523.5098, 277.2688
523.9919, 278.0284
524.4740, 279.7056
524.9561, 281.7432
525.4382, 283.2898
525.9203, 284.3233
526.4025, 285.5965
526.8846, 287.2490
527.3667, 289.2339
527.8488, 291.4232
528.3309, 293.8394
528.8130, 296.8180
529.2952, 300.6693
529.7773, 304.9524
530.2594, 309.4470
530.7415, 314.0699
531.2236, 318.4506
531.7057, 322.3234
532.1879, 326.1560
532.6700, 330.7915
533.1521, 336.2099
533.6342, 342.7320
534.1163, 351.3440
534.5984, 360.1974
535.0806, 367.7682
535.5627, 374.4810
536.0448, 381.8844
536.5269, 390.9507
537.0090, 401.1269
537.4911, 410.4743
537.9733, 418.2523
538.4554, 427.0392
538.9375, 437.7741
539.4196, 449.0206
539.9017, 459.9596
540.3839, 470.6345
540.8660, 481.5085
541.3481, 492.8527
541.8302, 504.6274
542.3123, 516.7918
542.7944, 529.3481
543.2766, 542.1039
543.7587, 554.8785
544.2408, 567.8836
544.7229, 581.3683
545.2050, 595.3755
545.6871, 609.4604
546.1693, 622.8443
546.6514, 636.5525
547.1335, 652.2049
547.6156, 669.5559
548.0977, 686.8353
548.5798, 702.8995
549.0620, 718.2070
549.5441, 734.1740
550.0262, 751.8644
550.5083, 768.7608
550.9904, 785.2889
551.4725, 800.6980
551.9547, 814.8287
552.4368, 827.3671
552.9189, 837.7101
553.4010, 845.2879
553.8831, 850.3451
554.3652, 853.7726
554.8474, 855.7377
555.3295, 855.6149
555.8116, 853.2381
556.2937, 848.6406
556.7758, 841.4303
557.2579, 831.7168
557.7401, 820.4658
558.2222, 807.5569
558.7043, 793.7844
559.1864, 780.1873
559.6685, 766.8707
560.1506, 753.7174
560.6328, 740.4688
561.1149, 727.6705
561.5970, 716.2693
562.0791, 706.0074
562.5612, 697.6215
563.0433, 691.7474
563.5255, 687.4393
564.0076, 683.9132
564.4897, 681.1638
564.9718, 679.4174
565.4539, 678.7784
565.9360, 679.3859
566.4182, 681.7953
566.9003, 687.0048
567.3824, 692.2332
567.8645, 697.7430
568.3466, 702.8536
568.8287, 707.1536
569.3109, 710.6696
569.7930, 713.4993
570.2751, 715.5975
570.7572, 717.2013
571.2393, 718.9856
571.7214, 721.0423
572.2036, 722.0670
572.6857, 721.1846
573.1678, 719.5595
573.6499, 718.8613
574.1320, 719.0641
574.6141, 718.1335
575.0963, 714.5245
575.5784, 710.3460
576.0605, 707.4660
576.5426, 705.6306
577.0247, 703.7352
577.5068, 701.3000
577.9890, 698.4730
578.4711, 695.4903
578.9532, 692.1500
579.4353, 689.1948
579.9174, 686.8489
580.3995, 684.6133
580.8817, 681.9594
581.3638, 679.2944
581.8459, 677.5773
582.3280, 677.3420
582.8101, 677.5520
583.2922, 676.2462
583.7744, 673.2615
584.2565, 671.2193
584.7386, 670.7529
585.2207, 670.8671
585.7029, 671.2634
586.1850, 671.6679
586.6671, 671.3001
587.1492, 669.5199
587.6313, 667.5195
588.1135, 666.3536
588.5956, 665.6060
589.0777, 664.2927
589.5598, 662.1656
590.0419, 659.5536
590.5240, 656.7207
591.0062, 653.6524
591.4883, 650.9818
591.9704, 649.5870
592.4525, 647.4858
592.9346, 643.8542
593.4167, 639.4362
593.8989, 635.0306
594.3810, 630.8511
594.8631, 626.5917
595.3452, 621.8195
595.8273, 616.6223
596.3094, 611.9757
596.7916, 608.1711
597.2737, 604.2196
597.7558, 599.5753
598.2379, 594.5978
598.7200, 589.5502
599.2021, 584.4241
599.6843, 579.5695
600.1664, 575.3084
600.6485, 571.3264
601.1306, 567.0807
601.6127, 562.5941
602.0948, 558.2487
602.5770, 554.1672
603.0591, 550.5544
603.5412, 548.0270
604.0233, 547.9597
604.5054, 546.7014
604.9875, 543.5414
605.4697, 539.8262
605.9518, 535.9225
606.4339, 532.2086
606.9160, 529.3823
607.3981, 527.8856
607.8802, 527.2319
608.3624, 526.5757
608.8445, 525.9458
609.3266, 525.1132
609.8087, 524.0154
610.2908, 522.7415
610.7729, 520.8948
611.2551, 518.8877
611.7372, 518.0092
612.2193, 519.0658
612.7014, 520.7442
613.1835, 522.5467
613.6656, 524.2120
614.1478, 524.9657
614.6299, 524.6218
615.1120, 524.1050
615.5941, 524.2545
616.0762, 525.0699
616.5583, 526.7632
617.0405, 530.8530
617.5226, 533.9160
618.0047, 534.8680
618.4868, 534.8707
618.9689, 534.7995
619.4510, 534.9366
619.9332, 535.5362
620.4153, 537.3938
620.8974, 539.7650
621.3795, 539.6932
621.8616, 536.7974
622.3438, 533.4695
622.8259, 530.2819
623.3080, 527.3658
623.7901, 525.1061
624.2722, 523.5699
624.7543, 521.4127
625.2365, 517.7399
625.7186, 513.7427
626.2007, 510.5155
626.6828, 507.8081
627.1649, 504.6530
627.6470, 500.6032
628.1292, 496.6150
628.6113, 494.3874
629.0934, 494.6060
629.5755, 493.6777
630.0576, 490.4989
630.5397, 487.2950
631.0219, 484.3510
631.5040, 481.9014
631.9861, 480.4005
632.4682, 480.0099
632.9503, 479.6948
633.4324, 478.1006
633.9146, 475.8215
634.3967, 475.1129
634.8788, 476.3590
635.3609, 477.1573
635.8430, 475.7721
636.3251, 473.1423
636.8073, 472.0605
637.2894, 473.0832
637.7715, 474.0340
638.2536, 474.6379
638.7357, 475.0099
639.2178, 475.0873
639.7000, 475.0049
640.1821, 475.1736
640.6642, 475.8520
641.1463, 476.5792
641.6284, 476.1817
642.1105, 474.2632
642.5927, 473.3741
643.0748, 474.2901
643.5569, 475.5792
644.0390, 476.5090
644.5211, 477.1971
645.0032, 477.8893
645.4854, 478.6934
645.9675, 479.4011
646.4496, 479.5182
646.9317, 479.5573
647.4138, 480.5485
647.8959, 482.6101
648.3781, 485.1799
648.8602, 488.0180
649.3423, 490.8500
649.8244, 492.2512
650.3065, 491.1317
650.7886, 490.1672
651.2708, 488.9626
651.7529, 488.3518
652.2350, 489.3097
652.7171, 491.3604
653.1992, 493.1051
653.6813, 493.7613
654.1635, 493.8817
654.6456, 494.2643
655.1277, 494.8887
655.6098, 495.6131
656.0919, 496.5695
656.5740, 497.1420
657.0562, 496.5886
657.5383, 495.0844
658.0204, 494.0717
658.5025, 493.7885
658.9846, 493.7038
659.4667, 494.0900
659.9489, 494.3466
660.4310, 493.8662
660.9131, 492.5805
661.3952, 490.6811
661.8773, 488.2159
662.3594, 485.3822
662.8416, 482.8102
663.3237, 480.5476
663.8058, 478.3409
664.2879, 476.1183
664.7700, 473.9614
665.2521, 471.8050
665.7343, 469.7401
666.2164, 468.0947
666.6985, 467.2476
667.1806, 466.4524
667.6627, 465.1115
668.1448, 463.4661
668.6270, 461.9871
669.1091, 460.7697
669.5912, 459.5506
670.0733, 458.0475
670.5554, 456.3743
671.0375, 455.3090
671.5197, 454.8494
672.0018, 455.0537
672.4839, 456.3676
672.9660, 457.9032
673.4481, 459.0756
673.9302, 459.9130
674.4124, 460.7141
674.8945, 461.5382
675.3766, 462.5229
675.8587, 463.9518
676.3408, 465.7215
676.8229, 467.3331
677.3051, 468.6667
677.7872, 469.9240
678.2693, 471.1577
678.7514, 472.4334
679.2335, 474.5264
679.7156, 478.2639
680.1978, 481.6440
680.6799, 483.8003
681.1620, 485.9481
681.6441, 489.2795
682.1262, 493.6356
682.6083, 497.8777
683.0905, 501.2633
683.5726, 504.2694
684.0547, 507.9936
684.5368, 512.4186
685.0189, 516.1121
685.5010, 518.2786
685.9832, 520.8191
686.4653, 525.4702
686.9474, 531.9279
687.4295, 538.2992
687.9116, 544.4445
688.3937, 550.6282
688.8759, 557.3238
689.3580, 563.8393
689.8401, 569.0564
690.3222, 573.2641
690.8043, 578.0358
691.2864, 584.5555
691.7686, 591.8090
692.2507, 597.3590
692.7328, 601.0605
693.2149, 604.0282
693.6970, 606.5804
694.1791, 608.1379
694.6613, 607.7581
695.1434, 606.1629
695.6255, 604.9556
696.1076, 604.6652
696.5897, 604.1839
697.0718, 602.9279
697.5540, 601.2416
698.0361, 599.4005
698.5182, 597.5172
699.0003, 595.8515
699.4824, 594.5889
699.9645, 593.5107
700.4467, 591.8680
700.9288, 589.0802
701.4109, 587.9471
701.8930, 589.3757
702.3751, 591.6237
702.8572, 593.4449
703.3394, 595.5463
703.8215, 599.2256
704.3036, 604.9210
704.7857, 611.3958
705.2678, 617.5879
705.7499, 624.2851
706.2321, 632.5799
706.7142, 642.4387
707.1963, 653.1795
707.6784, 664.5685
708.1605, 676.5388
708.6426, 689.0451
709.1248, 702.1205
709.6069, 715.5922
710.0890, 729.5078
710.5711, 743.8773
711.0532, 759.0393
711.5353, 774.4865
712.0175, 789.8658
712.4996, 805.2432
712.9817, 819.2314
713.4638, 829.4395
713.9459, 838.7579
714.4280, 851.9127
714.9102, 868.2054
715.3923, 883.1638
715.8744, 894.7083
716.3565, 904.9973
716.8386, 917.1511
717.3207, 931.1598
717.8029, 946.6117
718.2850, 964.5048
718.7671, 982.5280
719.2492, 999.9905
719.7313, 1017.401
720.2134, 1035.333
720.6956, 1053.825
721.1777, 1072.715
721.6598, 1091.380
722.1419, 1110.761
722.6240, 1132.164
723.1061, 1155.282
723.5883, 1178.947
724.0704, 1202.868
724.5525, 1227.016
725.0346, 1251.635
725.5167, 1276.724
725.9988, 1301.990
726.4810, 1326.345
726.9631, 1352.613
727.4452, 1381.245
727.9273, 1411.956
728.4094, 1444.787
728.8915, 1479.646
729.3737, 1515.688
729.8558, 1552.219
730.3379, 1590.710
730.8200, 1634.001
731.3021, 1680.482
731.7842, 1725.479
732.2664, 1768.123
732.7485, 1810.816
733.2306, 1854.920
733.7127, 1900.618
734.1948, 1948.758
734.6769, 2001.122
735.1591, 2052.708
735.6412, 2101.595
736.1233, 2151.679
736.6054, 2204.766
737.0875, 2260.347
737.5696, 2317.096
738.0518, 2374.688
738.5339, 2433.432
739.0160, 2494.402
739.4981, 2556.736
739.9802, 2619.540
740.4623, 2682.602
740.9445, 2744.583
741.4266, 2804.763
741.9087, 2862.853
742.3908, 2918.750
742.8729, 2974.023
743.3550, 3021.175
743.8372, 3058.941
744.3193, 3089.543
744.8014, 3115.059
745.2835, 3132.898
745.7656, 3140.227
746.2477, 3136.682
746.7299, 3123.882
747.2120, 3102.780
747.6941, 3072.818
748.1762, 3032.359
748.6583, 2982.599
749.1404, 2927.384
749.6226, 2867.938
750.1047, 2803.905
750.5868, 2734.850
751.0689, 2661.075
751.5510, 2582.477
752.0331, 2496.640
752.5153, 2411.174
752.9974, 2326.630
753.4795, 2242.839
753.9616, 2160.556
754.4437, 2078.889
754.9258, 1995.099
755.4080, 1906.321
755.8901, 1818.170
756.3722, 1734.276
756.8543, 1653.783
757.3364, 1575.662
757.8185, 1500.176
758.3007, 1426.810
758.7828, 1355.458
759.2649, 1286.736
759.7470, 1221.684
760.2291, 1159.593
760.7112, 1102.457
761.1934, 1051.359
761.6755, 1003.262
762.1576, 956.3854
762.6397, 911.7370
763.1218, 871.2642
763.6039, 835.1304
764.0861, 801.5444
764.5682, 770.2076
765.0503, 740.8570
765.5324, 713.3588
766.0145, 687.8775
766.4966, 664.7446
766.9788, 643.9553
767.4609, 624.6185
767.9430, 605.8896
768.4251, 587.8171
768.9072, 570.5008
769.3893, 553.8583
769.8715, 538.8345
770.3536, 526.1779
770.8357, 514.4682
771.3178, 502.4606
771.7999, 490.3128
772.2820, 478.7802
772.7642, 467.9332
773.2463, 457.6451
773.7284, 447.8592
774.2105, 438.6243
774.6926, 430.1069
775.1747, 422.2128
775.6569, 414.8180
776.1390, 407.8608
776.6211, 401.1965
777.1032, 394.5746
777.5853, 388.0347
778.0674, 381.7282
778.5496, 375.6812
779.0317, 369.8067
779.5138, 364.0983
779.9959, 358.4259
780.4780, 352.4390
780.9601, 345.7891
781.4423, 340.2855
781.9244, 336.9067
782.4065, 333.4433
782.8886, 328.9236
783.3707, 324.1342
783.8528, 319.8189
784.3350, 316.1242
784.8171, 312.9470
785.2992, 310.6020
785.7813, 308.2910
786.2634, 304.5551
786.7455, 299.9591
787.2277, 296.6043
787.7098, 294.8890
788.1919, 293.0648
788.6740, 289.7349
789.1561, 285.3345
789.6382, 281.4879
790.1204, 278.4967
790.6025, 275.3710
791.0846, 271.6881
791.5667, 268.3011
792.0488, 265.8735
792.5309, 263.8593
793.0131, 261.2874
793.4952, 257.8908
793.9773, 254.7320
794.4594, 252.5591
794.9415, 250.6321
795.4236, 248.4086
795.9058, 245.8463
796.3879, 242.7340
796.8700, 239.0897
797.3521, 235.7148
797.8342, 233.5445
798.3163, 232.2947
798.7985, 230.4636
799.2806, 227.9496
799.7627, 225.3621
800.2448, 222.5775
800.7269, 220.1759
801.2090, 218.9706
801.6912, 218.6477
802.1733, 217.4558
802.6554, 214.8725
803.1375, 212.2385
803.6196, 208.9636
804.1017, 206.4782
804.5839, 206.2503
805.0660, 207.5571
805.5481, 209.2538
806.0302, 210.9359
806.5123, 211.1428
806.9944, 207.2832
807.4766, 201.1814
807.9587, 197.2645
808.4408, 195.5386
808.9229, 194.1988
809.4050, 192.6074
809.8871, 191.1432
810.3693, 190.3426
810.8514, 190.1940
811.3335, 189.4506
811.8156, 187.5586
812.2977, 185.9942
812.7798, 185.4895
813.2620, 184.8991
813.7441, 183.1624
814.2262, 180.7307
814.7083, 179.0064
815.1904, 178.6811
815.6725, 178.2963
816.1547, 176.6845
816.6368, 174.8137
817.1189, 173.8239
817.6010, 173.6049
818.0831, 173.5939
818.5652, 173.5381
819.0474, 173.3019
819.5295, 172.6760
820.0116, 171.6921
820.4937, 170.5658
820.9758, 169.2222
821.4579, 168.2279
821.9401, 167.9258
822.4222, 167.7519
822.9043, 167.0774
823.3864, 165.9263
823.8685, 164.8904
824.3506, 164.0397
824.8328, 163.2088
825.3149, 162.5195
825.7970, 161.7141
826.2791, 160.3732
826.7612, 158.7981
827.2433, 157.6763
827.7255, 157.2650
828.2076, 157.2350
828.6897, 157.7611
829.1718, 158.2560
829.6539, 157.4080
830.1360, 155.5130
830.6182, 154.2080
831.1003, 154.1197
831.5824, 154.3929
832.0645, 154.0016
832.5466, 153.0048
833.0287, 152.1514
833.5109, 151.4437
833.9930, 150.8882
834.4751, 150.5853
834.9572, 150.3177
835.4393, 149.8466
835.9214, 149.2722
836.4036, 148.9117
836.8857, 148.9720
837.3678, 148.8758
837.8499, 148.3589
838.3320, 147.7541
838.8141, 147.4770
839.2963, 147.2417
839.7784, 146.2990
840.2605, 144.4823
840.7426, 142.8976
841.2247, 142.6393
841.7068, 143.2335
842.1890, 144.0612
842.6711, 144.9781
843.1532, 145.0215
843.6353, 143.9191
844.1174, 142.6131
844.5995, 141.9421
845.0817, 141.7561
845.5638, 141.3615
846.0459, 140.5081
846.5280, 140.1785
847.0101, 141.0565
847.4922, 141.6660
847.9744, 141.1384
848.4565, 139.9244
848.9386, 138.4884
849.4207, 136.7233
849.9028, 135.8074
850.3849, 136.7848
850.8671, 137.9261
851.3492, 138.2967
851.8313, 138.1588
852.3134, 137.7913
852.7955, 137.3367
853.2776, 137.0759
853.7598, 137.3206
854.2419, 137.5839
854.7240, 136.8482
855.2061, 135.4579
855.6882, 134.9485
856.1703, 135.4919
856.6525, 135.9982
857.1346, 135.8492
857.6167, 135.3419
858.0988, 135.0661
858.5809, 135.1107
859.0630, 134.7756
859.5452, 133.8794
860.0273, 132.9214
860.5094, 131.6717
860.9915, 130.7341
861.4736, 130.9013
861.9557, 131.9645
862.4379, 132.6242
862.9200, 132.4307
863.4021, 132.1170
863.8842, 131.8416
864.3663, 131.6321
864.8484, 131.5899
865.3306, 131.6221
865.8127, 131.5394
866.2948, 131.2699
866.7769, 130.8152
867.2590, 129.9366
867.7411, 128.9737
868.2233, 128.7759
868.7054, 129.2157
869.1875, 129.5316
869.6696, 129.5054
870.1517, 129.3010
870.6339, 129.0539
871.1160, 128.7784
871.5981, 128.5380
872.0802, 128.3301
872.5623, 128.1632
873.0444, 128.0363
873.5266, 127.9649
874.0087, 128.1953
874.4908, 128.3771
874.9729, 127.7231
875.4550, 125.9768
875.9371, 124.8726
876.4193, 125.2357
876.9014, 125.5770
877.3835, 125.0259
877.8656, 124.3086
878.3477, 124.3384
878.8298, 125.0323
879.3120, 125.5798
879.7941, 125.5797
880.2762, 125.2914
880.7583, 124.8256
881.2404, 124.3046
881.7225, 123.9817
882.2047, 123.8295
882.6868, 123.5968
883.1689, 123.1755
883.6510, 122.7948
884.1331, 122.8126
884.6152, 123.1383
885.0974, 123.0508
885.5795, 122.5023
886.0616, 121.8890
886.5437, 121.2944
887.0258, 120.6679
887.5079, 119.9035
887.9901, 119.0892
888.4722, 118.5634
888.9543, 118.2843
889.4364, 118.3871
889.9185, 119.6987
890.4006, 120.4285
890.8828, 119.3786
891.3649, 117.6458
891.8470, 116.4404
892.3291, 115.9307
892.8112, 115.9210
893.2933, 116.8876
893.7755, 117.7020
894.2576, 117.3977
894.7397, 116.7010
895.2218, 116.5484
895.7039, 116.9064
896.1860, 117.2584
896.6682, 117.3649
897.1503, 117.2186
897.6324, 116.6097
898.1145, 115.7783
898.5966, 115.4911
899.0787, 115.7165
899.5609, 115.9842
900.0430, 116.1576
900.5251, 116.1704
901.0072, 115.9173
901.4893, 115.4897
901.9714, 115.3875
902.4536, 115.7809
902.9357, 115.8426
903.4178, 115.2691
903.8999, 114.7758
904.3820, 114.8032
904.8641, 115.1077
905.3463, 115.2945
905.8284, 115.3631
906.3105, 115.3388
906.7926, 115.0695
907.2747, 114.9074
907.7568, 115.1353
908.2390, 115.3743
908.7211, 115.1956
909.2032, 114.7328
909.6853, 114.5217
910.1674, 114.8612
910.6495, 115.0269
911.1317, 114.1612
911.6138, 113.1583
912.0959, 113.2088
912.5780, 113.9356
913.0601, 114.3026
913.5422, 114.0541
914.0244, 113.7308
914.5065, 113.8080
914.9886, 114.0968
915.4707, 114.2504
915.9528, 114.2621
916.4349, 113.9551
916.9171, 113.2974
917.3992, 113.0740
917.8813, 113.7973
918.3634, 114.8538
918.8455, 115.1960
919.3276, 114.7781
919.8098, 114.4492
920.2919, 114.2108
920.7740, 114.0662
921.2561, 114.1058
921.7382, 114.1235
922.2203, 113.8801
922.7025, 113.4730
923.1846, 113.3114
923.6667, 113.7148
924.1488, 113.6659
924.6309, 112.5282
925.1130, 111.5383
925.5952, 111.3580
926.0773, 111.5777
926.5594, 111.7159
927.0415, 111.7126
927.5236, 111.7275
928.0057, 111.9160
928.4879, 112.0090
928.9700, 111.6909
929.4521, 111.2786
929.9342, 111.0968
930.4163, 111.1645
930.8984, 111.4807
931.3806, 112.0277
931.8627, 112.5116
932.3448, 112.6377
932.8269, 112.4969
933.3090, 112.1708
933.7911, 111.7324
934.2733, 111.5209
934.7554, 111.5949
935.2375, 111.7728
935.7196, 111.9513
936.2017, 112.0653
936.6838, 111.9119
937.1660, 111.4650
937.6481, 111.3161
938.1302, 111.5439
938.6123, 111.7222
939.0944, 111.6811
939.5765, 111.6197
940.0587, 111.8337
940.5408, 112.2207
941.0229, 111.9845
941.5050, 110.2180
941.9871, 109.4919
942.4692, 111.0502
942.9514, 112.3288
943.4335, 111.9629
943.9156, 110.9474
944.3977, 110.5711
944.8798, 110.9018
945.3619, 111.1274
945.8441, 111.0955
946.3262, 110.9082
946.8083, 110.4686
947.2904, 110.0030
947.7725, 109.7169
948.2546, 109.5533
948.7368, 109.3205
949.2189, 108.9559
949.7010, 108.6982
950.1831, 108.7254
950.6652, 108.9132
951.1473, 109.2846
951.6295, 109.6638
952.1116, 109.6775
952.5937, 109.3461
953.0758, 109.0597
953.5579, 109.0514
954.0400, 109.0860
954.5222, 108.6830
955.0043, 108.0969
955.4864, 108.2058
955.9685, 108.9300
956.4506, 109.5165
956.9327, 109.7390
957.4149, 109.6656
957.8970, 109.3160
958.3791, 108.8013
958.8612, 108.4413
959.3433, 108.2383
959.8254, 108.1853
960.3076, 108.3137
960.7897, 108.4537
961.2718, 108.5424
961.7539, 108.5983
962.2360, 108.6892
962.7181, 108.7985
963.2003, 108.4929
963.6824, 107.3335
964.1645, 106.6770
964.6466, 107.0205
965.1287, 107.4289
965.6108, 107.3707
966.0930, 107.0881
966.5751, 106.9415
967.0572, 106.9556
967.5393, 106.9170
968.0214, 107.0055
968.5035, 106.7678
968.9857, 105.6183
969.4678, 104.5163
969.9499, 104.2799
970.4320, 104.6481
970.9141, 104.9015
971.3962, 104.8393
971.8784, 104.9629
972.3605, 106.0121
972.8426, 106.7699
973.3247, 106.0271
973.8068, 104.7274
974.2889, 103.9805
974.7711, 103.9055
975.2532, 104.2597
975.7353, 105.0210
976.2174, 105.5519
976.6995, 104.9550
977.1816, 104.0017
977.6638, 103.8637
978.1459, 104.2683
978.6280, 104.4299
979.1101, 104.1876
979.5922, 103.8219
980.0743, 103.5067
980.5565, 103.2851
981.0386, 103.2299
981.5207, 103.3290
982.0028, 103.6518
982.4849, 104.1444
982.9670, 104.3064
983.4492, 103.9664
983.9313, 103.4698
984.4134, 103.1279
984.8955, 102.9135
985.3776, 102.7069
985.8597, 102.5007
986.3419, 102.6661
986.8240, 103.3612
987.3061, 103.4937
987.7882, 102.3976
988.2703, 101.1394
988.7524, 101.0982
989.2346, 102.1140
989.7167, 102.4567
990.1988, 101.8490
990.6809, 101.4292
991.1630, 101.4508
991.6451, 101.3730
992.1273, 100.7353
992.6094, 100.0167
993.0915, 100.0074
993.5736, 100.7590
994.0557, 101.2420
994.5378, 101.3886
995.0200, 101.3564
995.5021, 100.8768
995.9842, 100.5228
996.4663, 100.7284
996.9484, 101.2066
997.4305, 101.4580
997.9127, 101.4212
998.3948, 101.4859
998.8769, 102.0699
999.3590, 102.2895
999.8411, 101.5638
1000.323, 100.6581
1000.805, 100.0739
1001.287, 99.79945
1001.770, 99.77956
1002.252, 100.0203
1002.734, 100.1687
1003.216, 99.94822
1003.698, 99.74545
1004.180, 99.94608
1004.662, 100.1653
1005.144, 99.81167
1005.627, 99.11423
1006.109, 98.85583
1006.591, 99.32990
1007.073, 99.79036
1007.555, 99.47169
1008.037, 99.13709
1008.519, 100.0371
1009.001, 101.1600
1009.483, 100.4213
1009.966, 98.20254
1010.448, 96.83974
1010.930, 97.46034
1011.412, 98.69783
1011.894, 99.48784
1012.376, 99.81835
1012.858, 99.42289
1013.340, 98.60722
1013.823, 98.12914
1014.305, 98.09404
1014.787, 98.21395
1015.269, 98.33343
1015.751, 98.40562
1016.233, 98.18333
1016.715, 97.91431
1017.197, 98.57740
1017.679, 99.90118
1018.162, 100.5037
1018.644, 100.1115
1019.126, 99.31875
1019.608, 98.47465
1020.090, 97.81094
1020.572, 97.86368
1021.054, 98.50658
1021.536, 98.82662
1022.018, 98.82613
1022.501, 98.78922
1022.983, 98.78466
1023.465, 98.71916
1023.947, 98.48591
1024.429, 98.28913
1024.911, 98.68936
1025.393, 99.71050
1025.875, 100.1352
1026.358, 99.90210
1026.840, 99.52416
1027.322, 99.06679
1027.804, 98.82713
1028.286, 99.10461
1028.768, 99.63851
1029.250, 99.73097
1029.732, 99.29151
1030.214, 99.15453
1030.697, 99.46893
1031.179, 99.54533
1031.661, 99.10242
1032.143, 98.61470
1032.625, 98.48193
1033.107, 98.55537
1033.589, 98.36681
1034.071, 97.74013
1034.553, 97.70132
1035.036, 98.70320
1035.518, 99.28145
1036.000, 98.79065
1036.482, 98.16665
1036.964, 98.15247
1037.446, 98.56767
1037.928, 98.91129
1038.410, 99.25500
1038.893, 99.27137
1039.375, 98.69202
1039.857, 98.20608
1040.339, 97.71122
1040.821, 97.64387
1041.303, 98.83569
1041.785, 100.6437
1042.267, 101.0911
1042.750, 99.57040
1043.232, 98.72451
1043.714, 99.13718
1044.196, 99.47179
1044.678, 99.35875
1045.160, 99.12950
1045.642, 98.96214
1046.124, 98.87743
1046.606, 98.92097
1047.089, 99.12149
1047.571, 99.33463
1048.053, 99.37980
1048.535, 99.65585
1049.017, 100.6701
1049.499, 101.5863
1049.981, 101.8586
1050.463, 101.5264
1050.945, 100.4933
1051.428, 98.48158
1051.910, 97.54989
1052.392, 99.17165
1052.874, 100.4770
1053.356, 100.1050
1053.838, 99.49951
1054.320, 99.96223
1054.802, 100.9845
1055.285, 101.3622
1055.767, 100.8588
1056.249, 100.4638
1056.731, 100.3474
1057.213, 100.4978
1057.695, 101.3060
1058.177, 102.0034
1058.659, 101.7687
1059.141, 101.0746
1059.624, 100.8826
1060.106, 101.3582
1060.588, 101.8252
1061.070, 102.0408
1061.552, 102.2474
1062.034, 102.6968
1062.516, 103.0228
1062.998, 102.7053
1063.480, 102.1609
1063.963, 102.0860
1064.445, 102.5948
1064.927, 103.3995
1065.409, 104.8595
1065.891, 105.9656
1066.373, 106.1901
1066.855, 106.0129
1067.337, 105.6038
1067.820, 105.1470
1068.302, 104.8382
1068.784, 104.7159
1069.266, 104.7561
1069.748, 104.8301
1070.230, 105.2723
1070.712, 106.8207
1071.194, 108.1962
1071.677, 108.0227
1072.159, 107.2951
1072.641, 107.6009
1073.123, 108.9674
1073.605, 110.1455
1074.087, 110.5978
1074.569, 111.0014
1075.051, 111.7380
1075.533, 112.4665
1076.016, 113.0164
1076.498, 113.3639
1076.980, 113.3209
1077.462, 113.0467
1077.944, 113.1941
1078.426, 114.1163
1078.908, 114.9926
1079.390, 115.3785
1079.873, 115.6671
1080.355, 116.1523
1080.837, 116.6537
1081.319, 116.8846
1081.801, 116.9277
1082.283, 117.0792
1082.765, 117.4097
1083.247, 117.9594
1083.729, 119.1921
1084.212, 120.1163
1084.694, 120.0866
1085.176, 119.5121
1085.658, 118.5619
1086.140, 117.5019
1086.622, 116.8124
1087.104, 116.6137
1087.586, 116.5642
1088.068, 116.6295
1088.551, 116.6698
1089.033, 116.8344
1089.515, 116.7459
1089.997, 115.8869
1090.479, 114.6007
1090.961, 113.5200
1091.443, 112.7602
1091.925, 112.1439
1092.408, 111.8967
1092.890, 111.3806
1093.372, 110.0768
1093.854, 108.6867
1094.336, 107.6381
1094.818, 106.8721
1095.300, 106.3119
1095.782, 105.9059
1096.265, 105.4265
1096.747, 104.6870
1097.229, 104.0988
1097.711, 103.9007
1098.193, 103.7772
1098.675, 103.6559
1099.157, 103.4281
1099.639, 102.8991
1100.121, 102.1485
1100.604, 101.5568
1101.086, 101.2812
1101.568, 100.9181
1102.050, 100.5317
1102.532, 99.82339
1103.014, 97.90018
1103.496, 96.24852
1103.978, 96.69308
1104.460, 98.41316
1104.943, 99.05785
1105.425, 98.09724
1105.907, 97.29714
1106.389, 97.20913
1106.871, 96.99612
1107.353, 96.20663
1107.835, 95.42261
1108.317, 95.01347
1108.800, 94.90067
1109.282, 95.01426
1109.764, 95.36365
1110.246, 95.47292
1110.728, 95.23755
1111.210, 94.85149
1111.692, 94.32491
1112.174, 93.67162
1112.656, 92.57899
1113.139, 91.56893
1113.621, 91.39231
1114.103, 91.97202
1114.585, 92.39298
1115.067, 92.55659
1115.549, 92.72737
1116.031, 93.04079
1116.513, 93.16287
1116.995, 92.84734
1117.478, 92.45225
1117.960, 92.31322
1118.442, 92.33620
1118.924, 92.19826
1119.406, 91.80786
1119.888, 91.63747
1120.370, 91.88858
1120.852, 91.91389
1121.335, 91.37721
1121.817, 90.96329
1122.299, 91.28235
1122.781, 91.81424
1123.263, 91.54121
1123.745, 90.43938
1124.227, 89.79388
1124.709, 89.73988
1125.192, 89.66767
1125.674, 89.50516
1126.156, 89.31425
1126.638, 89.11214
1127.120, 88.91631
1127.602, 88.73329
1128.084, 88.58432
1128.566, 88.61795
1129.048, 88.52257
1129.531, 88.46159
1130.013, 88.56950
1130.495, 88.39877
1130.977, 88.55056
1131.459, 88.65862
1131.941, 88.39996
1132.423, 87.98191
1132.905, 87.93009
1133.387, 88.19993
1133.870, 87.91080
1134.352, 88.09576
1134.834, 87.07584
1135.316, 88.06690
1135.798, 88.75453
1136.280, 88.41040
1136.762, 87.56169
1137.244, 86.73112
1137.727, 86.07358
1138.209, 86.24358
1138.691, 87.00914
1139.173, 87.35941
1139.655, 87.25146
1140.137, 87.07870
1140.619, 86.99704
1141.101, 87.15231
1141.583, 87.77372
1142.066, 88.32631
1142.548, 87.78822
1143.030, 86.68618
1143.512, 86.05198
1143.994, 85.80485
1144.476, 85.48898
1144.958, 85.10165
1145.440, 85.19809
1145.922, 86.10128
1146.405, 86.88432
1146.887, 86.47141
1147.369, 85.67922
1147.851, 85.34439
1148.333, 85.30204
1148.815, 85.39343
1149.297, 85.51611
1149.779, 85.45277
1150.262, 85.17612
1150.744, 85.07899
1151.226, 85.52723
1151.708, 85.98280
1152.190, 86.22153
1152.672, 86.19933
1153.154, 85.54844
1153.636, 84.81107
1154.119, 84.92348
1154.601, 85.74186
1155.083, 86.12210
1155.565, 85.58714
1156.047, 85.18432
1156.529, 85.45682
1157.011, 85.67461
1157.493, 85.36629
1157.975, 85.01136
1158.458, 85.08356
1158.940, 85.39456
1159.422, 85.48902
1159.904, 85.30647
1160.386, 85.24895
1160.868, 85.46595
1161.350, 85.63107
1161.832, 85.74446
1162.314, 85.75459
1162.797, 85.59096
1163.279, 85.35850
1163.761, 85.13468
1164.243, 84.94097
1164.725, 84.89595
1165.207, 84.82923
1165.689, 84.79535
1166.171, 84.93121
1166.654, 84.86743
1167.136, 85.06834
1167.618, 85.23587
1168.100, 85.18376
1168.582, 84.94644
1169.064, 84.51806
1169.546, 83.96032
1170.028, 83.95081
1170.510, 84.50921
1170.993, 84.71655
1171.475, 84.47018
1171.957, 84.18455
1172.439, 84.00724
1172.921, 84.06541
1173.403, 84.50907
1173.885, 85.12578
1174.367, 85.49033
1174.849, 85.67408
1175.332, 85.95000
1175.814, 86.26690
1176.296, 86.38892
1176.778, 86.29075
1177.260, 86.07032
1177.742, 85.77674
1178.224, 85.54829
1178.706, 85.64138
1179.189, 85.72849
1179.671, 85.14268
1180.153, 84.44422
1180.635, 84.61239
1181.117, 85.32462
1181.599, 85.79504
1182.081, 85.83495
1182.563, 85.51387
1183.046, 84.64455
1183.528, 84.16444
1184.010, 85.09422
1184.492, 86.06385
1184.974, 86.04625
1185.456, 85.66817
1185.938, 85.59532
1186.420, 85.74706
1186.902, 85.73368
1187.385, 85.47632
1187.867, 85.42854
1188.349, 86.01755
1188.831, 86.31017
1189.313, 85.76485
1189.795, 85.32776
1190.277, 85.61471
1190.759, 86.09724
1191.241, 86.36074
1191.724, 86.35674
1192.206, 85.78957
1192.688, 86.06403
1193.170, 86.26611
1193.652, 85.76218
1194.134, 86.64973
1194.616, 85.87427
1195.098, 84.97386
1195.581, 84.76009
1196.063, 85.07015
1196.545, 85.82063
1197.027, 86.75986
1197.509, 86.62083
1197.991, 85.49562
1198.473, 84.87873
1198.955, 84.83556
1199.438, 84.87114
1199.920, 84.85731
1200.402, 85.08918
1200.884, 85.78911
1201.366, 86.52129
1201.848, 86.70219
1202.330, 86.51961
1202.812, 86.29306
1203.294, 85.99540
1203.776, 85.38261
1204.259, 84.67082
1204.741, 84.65466
1205.223, 85.42238
1205.705, 85.80495
1206.187, 84.87354
1206.669, 84.08034
1207.151, 84.69729
1207.633, 85.55880
1208.116, 85.82095
1208.598, 85.75343
1209.080, 85.68539
1209.562, 85.61890
1210.044, 85.37926
1210.526, 84.90125
1211.008, 84.74865
1211.490, 85.32913
1211.973, 85.78556
1212.455, 85.98926
1212.937, 85.99273
1213.419, 85.63510
1213.901, 85.28708
1214.383, 85.38386
1214.865, 85.76589
1215.347, 85.91713
1215.829, 85.85780
1216.312, 85.28578
1216.794, 83.92883
1217.276, 83.62907
1217.758, 84.91837
1218.240, 85.84515
1218.722, 85.41001
1219.204, 84.57011
1219.686, 84.38531
1220.168, 84.61806
1220.651, 84.77759
1221.133, 84.80818
1221.615, 84.14895
1222.097, 83.13761
1222.579, 83.48543
1223.061, 85.19125
1223.543, 86.27422
1224.025, 85.79885
1224.508, 85.14043
1224.990, 85.71109
1225.472, 85.15012
1225.954, 85.91379
1226.436, 85.15556
1226.918, 85.40961
1227.400, 86.12132
1227.882, 86.20369
1228.365, 85.64577
1228.847, 85.15958
1229.329, 84.85099
1229.811, 85.01272
1230.293, 86.36048
1230.775, 87.30708
1231.257, 87.14359
1231.739, 86.62758
1232.221, 85.94910
1232.703, 85.41655
1233.186, 85.55720
1233.668, 86.22170
1234.150, 86.37833
1234.632, 85.84236
1235.114, 85.53445
1235.596, 85.50403
1236.078, 85.52386
1236.560, 85.56516
1237.043, 85.43010
1237.525, 84.94921
1238.007, 84.63966
1238.489, 85.30016
1238.971, 86.44594
1239.453, 86.64065
1239.935, 87.03851
1240.417, 87.13759
1240.900, 86.88443
1241.382, 86.71214
1241.864, 85.79697
1242.346, 85.27207
1242.828, 85.70236
1243.310, 86.21899
1243.792, 86.01620
1244.274, 85.75466
1244.756, 85.96181
1245.239, 86.36635
1245.721, 86.83601
1246.203, 87.24123
1246.685, 87.42324
1247.167, 87.38451
1247.649, 87.21805
1248.131, 86.87605
1248.613, 86.61916
1249.095, 86.41782
1249.578, 86.40319
1250.060, 86.62856
1250.542, 87.00862
1251.024, 87.60296
1251.506, 88.18345
1251.988, 88.51679
1252.470, 88.57127
1252.952, 88.14028
1253.435, 87.20442
1253.917, 86.48093
1254.399, 85.97726
1254.881, 85.63538
1255.363, 85.44866
1255.845, 85.47865
1256.327, 85.75394
1256.809, 86.28097
1257.292, 87.16560
1257.774, 88.05915
1258.256, 88.43006
1258.738, 88.54545
1259.220, 88.79844
1259.702, 89.07535
1260.184, 89.10307
1260.666, 88.93774
1261.148, 88.87158
1261.630, 88.98488
1262.113, 89.02303
1262.595, 88.65981
1263.077, 88.55920
1263.559, 89.05053
1264.041, 89.67163
1264.523, 90.45472
1265.005, 91.01562
1265.487, 90.89244
1265.970, 90.39666
1266.452, 90.27225
1266.934, 90.52895
1267.416, 90.43961
1267.898, 89.91273
1268.380, 89.77177
1268.862, 90.11111
1269.344, 90.62496
1269.827, 91.22079
1270.309, 91.43082
1270.791, 90.86592
1271.273, 90.19689
1271.755, 90.47892
1272.237, 91.22778
1272.719, 91.68785
1273.201, 91.87891
1273.683, 91.63291
1274.166, 91.21968
1274.648, 91.22051
1275.130, 91.70851
1275.612, 92.40534
1276.094, 93.32785
1276.576, 93.91857
1277.058, 93.88548
1277.540, 93.57304
1278.022, 92.89902
1278.505, 92.22142
1278.987, 91.63011
1279.469, 91.28553
1279.951, 91.37803
1280.433, 91.87554
1280.915, 92.75960
1281.397, 92.91816
1281.879, 93.36494
1282.362, 93.95347
1282.844, 93.96224
1283.326, 94.97800
1283.808, 95.54163
1284.290, 95.04006
1284.772, 94.32186
1285.254, 94.01672
1285.736, 94.11941
##END=



