##NAMES=Trilithionite
##RRUFFID=R040105
##IDEAL CHEMISTRY=KLi_1.5_Al_1.5_(Si_3_Al)O_10_F_2_
##LOCALITY=Brown Derby mine, Ohio City, Gunnison County, Colorado, USA
##OWNER=RRUFF
##SOURCE=University of Arizona Mineral Museum
##DESCRIPTION=Purple hexagonal tablet
##STATUS=The identification of this mineral has been confirmed by X-ray diffraction and chemical analysis
##URL=rruff.info/R040105
##MEASURED CHEMISTRY=(K_0.82_Li_0.14_Na_0.04_)(Li_0.53_Al_0.42_Mn_0.05_)_3_(Si_0.84_Al_0.17_)_4_O_10_((OH)_0.59_F_0.41_)_2_
134.5908, 874.5208
135.0729, 866.9689
135.5550, 866.5017
136.0372, 873.7092
136.5193, 882.8646
137.0014, 891.4542
137.4835, 899.3625
137.9656, 907.7620
138.4477, 918.8304
138.9299, 929.7211
139.4120, 928.5966
139.8941, 910.8173
140.3762, 891.1887
140.8583, 881.6553
141.3404, 885.9062
141.8226, 888.7369
142.3047, 886.8372
142.7868, 880.0544
143.2689, 875.7994
143.7510, 876.0664
144.2331, 877.2045
144.7152, 873.9050
145.1974, 861.2762
145.6795, 851.8015
146.1616, 850.0582
146.6437, 861.3041
147.1258, 866.8845
147.6079, 863.3180
148.0901, 854.1705
148.5722, 849.1454
149.0543, 849.7980
149.5364, 853.0359
150.0185, 857.5416
150.5006, 867.2479
150.9828, 873.5618
151.4649, 875.3018
151.9470, 872.7823
152.4291, 869.5918
152.9112, 862.0796
153.3933, 855.9587
153.8755, 855.1956
154.3576, 869.8177
154.8397, 880.4227
155.3218, 880.8328
155.8039, 868.8575
156.2860, 860.2829
156.7682, 861.7126
157.2503, 867.0959
157.7324, 868.9071
158.2145, 858.8160
158.6966, 849.9439
159.1787, 848.0507
159.6609, 855.9971
160.1430, 866.0640
160.6251, 879.9962
161.1072, 894.6442
161.5893, 902.6422
162.0714, 895.3771
162.5536, 883.8697
163.0357, 875.6918
163.5178, 876.2523
163.9999, 876.4771
164.4820, 869.1729
164.9641, 856.0989
165.4463, 848.7879
165.9284, 860.4006
166.4105, 878.3251
166.8926, 888.9661
167.3747, 873.7081
167.8568, 859.1204
168.3390, 867.8332
168.8211, 901.9129
169.3032, 933.0934
169.7853, 939.7166
170.2674, 930.9965
170.7495, 923.0256
171.2317, 923.7229
171.7138, 928.6016
172.1959, 933.3813
172.6780, 937.5309
173.1601, 941.7992
173.6422, 947.1002
174.1244, 953.1661
174.6065, 958.9724
175.0886, 963.8460
175.5707, 968.1731
176.0528, 972.3325
176.5349, 975.7949
177.0171, 979.9177
177.4992, 987.2284
177.9813, 997.2767
178.4634, 1006.848
178.9455, 1013.372
179.4276, 1017.486
179.9098, 1020.808
180.3919, 1023.589
180.8740, 1025.926
181.3561, 1029.246
181.8382, 1033.701
182.3203, 1035.460
182.8025, 1028.957
183.2846, 1015.905
183.7667, 1002.903
184.2488, 993.7595
184.7309, 986.8304
185.2130, 977.2896
185.6951, 964.3077
186.1773, 951.2965
186.6594, 943.4084
187.1415, 940.2402
187.6236, 936.8812
188.1057, 929.7520
188.5878, 919.8824
189.0700, 912.2081
189.5521, 907.9296
190.0342, 904.9656
190.5163, 898.5989
190.9984, 888.7017
191.4805, 879.8678
191.9627, 874.7232
192.4448, 873.2730
192.9269, 877.0984
193.4090, 890.0549
193.8911, 906.3876
194.3732, 906.8096
194.8554, 889.2791
195.3375, 867.4943
195.8196, 853.3371
196.3017, 846.9224
196.7838, 843.1528
197.2659, 840.6803
197.7481, 839.7644
198.2302, 844.1790
198.7123, 856.4304
199.1944, 866.9961
199.6765, 860.0891
200.1586, 832.3990
200.6408, 812.4819
201.1229, 813.6025
201.6050, 836.1259
202.0871, 852.0850
202.5692, 861.2104
203.0513, 864.1912
203.5335, 860.2422
204.0156, 847.3944
204.4977, 835.7845
204.9798, 831.3063
205.4619, 835.5197
205.9440, 835.1489
206.4262, 827.9932
206.9083, 817.3068
207.3904, 811.5543
207.8725, 811.8450
208.3546, 813.9677
208.8367, 815.3489
209.3189, 815.4597
209.8010, 817.2664
210.2831, 821.7040
210.7652, 827.9740
211.2473, 832.7372
211.7294, 836.1927
212.2116, 837.8187
212.6937, 836.4979
213.1758, 830.7363
213.6579, 827.1601
214.1400, 827.7746
214.6221, 832.1436
215.1043, 833.1386
215.5864, 829.4172
216.0685, 824.3472
216.5506, 821.2695
217.0327, 820.6602
217.5148, 820.7986
217.9970, 821.4634
218.4791, 822.6791
218.9612, 823.7679
219.4433, 824.8760
219.9254, 825.6470
220.4075, 824.9503
220.8897, 820.4943
221.3718, 819.4147
221.8539, 825.9563
222.3360, 843.8718
222.8181, 850.3946
223.3002, 838.5935
223.7824, 819.6780
224.2645, 815.0377
224.7466, 832.2330
225.2287, 850.6407
225.7108, 862.4216
226.1929, 865.3127
226.6750, 867.6593
227.1572, 868.5566
227.6393, 869.1713
228.1214, 873.2989
228.6035, 884.7562
229.0856, 893.9974
229.5677, 894.8381
230.0499, 879.5637
230.5320, 873.9292
231.0141, 882.6180
231.4962, 901.8779
231.9783, 917.1112
232.4604, 929.1130
232.9426, 935.8510
233.4247, 934.6912
233.9068, 918.4055
234.3889, 909.3339
234.8710, 911.5073
235.3531, 923.6440
235.8353, 934.2098
236.3174, 944.3737
236.7995, 951.6866
237.2816, 953.5336
237.7637, 945.4476
238.2458, 940.4739
238.7280, 940.2862
239.2101, 944.8618
239.6922, 953.5801
240.1743, 970.0698
240.6564, 987.1021
241.1385, 997.2289
241.6207, 994.8680
242.1028, 995.9125
242.5849, 1005.265
243.0670, 1024.110
243.5491, 1035.521
244.0313, 1034.558
244.5134, 1030.291
244.9955, 1033.404
245.4776, 1047.259
245.9597, 1062.830
246.4418, 1079.004
246.9240, 1096.644
247.4061, 1109.860
247.8882, 1117.503
248.3703, 1121.458
248.8524, 1123.543
249.3345, 1120.368
249.8167, 1121.249
250.2988, 1129.835
250.7809, 1148.477
251.2630, 1165.977
251.7451, 1183.812
252.2272, 1199.469
252.7094, 1207.178
253.1915, 1201.322
253.6736, 1197.107
254.1557, 1200.543
254.6378, 1214.497
255.1199, 1227.288
255.6021, 1238.915
256.0842, 1249.280
256.5663, 1257.600
257.0484, 1262.139
257.5305, 1267.735
258.0126, 1276.986
258.4948, 1292.118
258.9769, 1304.610
259.4590, 1312.806
259.9411, 1318.946
260.4232, 1331.234
260.9053, 1356.529
261.3875, 1375.474
261.8696, 1376.031
262.3517, 1350.781
262.8338, 1330.833
263.3159, 1318.971
263.7980, 1313.165
264.2802, 1307.641
264.7623, 1303.554
265.2444, 1297.301
265.7265, 1285.791
266.2086, 1267.419
266.6907, 1250.339
267.1729, 1235.508
267.6550, 1222.532
268.1371, 1209.906
268.6192, 1198.163
269.1013, 1185.760
269.5834, 1172.472
270.0656, 1159.348
270.5477, 1140.728
271.0298, 1113.517
271.5119, 1080.863
271.9940, 1056.170
272.4761, 1041.455
272.9583, 1030.107
273.4404, 1015.863
273.9225, 997.0754
274.4046, 985.6194
274.8867, 985.6661
275.3688, 994.0172
275.8510, 995.9553
276.3331, 990.4174
276.8152, 981.6297
277.2973, 972.8966
277.7794, 964.3297
278.2615, 954.6242
278.7437, 942.9617
279.2258, 930.0413
279.7079, 919.4824
280.1900, 911.8662
280.6721, 904.3798
281.1542, 892.5143
281.6364, 875.7960
282.1185, 865.7087
282.6006, 866.7139
283.0827, 875.7839
283.5648, 881.3453
284.0469, 883.3762
284.5291, 882.0776
285.0112, 874.9662
285.4933, 862.3578
285.9754, 855.2202
286.4575, 858.9811
286.9396, 869.6107
287.4217, 871.8062
287.9038, 864.4677
288.3860, 856.5129
288.8681, 858.4222
289.3502, 868.9181
289.8323, 876.8881
290.3144, 879.8670
290.7965, 877.7950
291.2787, 867.3994
291.7608, 847.7295
292.2429, 805.8970
292.7250, 835.0049
293.2071, 851.0677
293.6892, 854.7863
294.1714, 809.1887
294.6535, 827.2728
295.1356, 819.8362
295.6177, 811.3531
296.0998, 838.4001
296.5819, 799.9755
297.0641, 826.4589
297.5462, 827.0323
298.0283, 839.4642
298.5104, 826.2177
298.9925, 820.9025
299.4746, 841.2737
299.9568, 847.4221
300.4389, 831.2195
300.9210, 844.4052
301.4031, 805.0837
301.8852, 811.8379
302.3673, 838.4717
302.8495, 823.5603
303.3316, 837.2154
303.8137, 839.9908
304.2958, 793.3227
304.7779, 832.6419
305.2600, 834.7744
305.7422, 798.7241
306.2243, 835.0970
306.7064, 804.3108
307.1885, 797.4963
307.6706, 808.7220
308.1527, 801.1414
308.6349, 823.2111
309.1170, 816.7165
309.5991, 813.7903
310.0812, 823.3869
310.5633, 828.8604
311.0454, 830.3578
311.5276, 829.5707
312.0097, 827.2695
312.4918, 823.3652
312.9739, 817.7060
313.4560, 806.7146
313.9381, 796.8867
314.4203, 791.8959
314.9024, 791.5009
315.3845, 793.5648
315.8666, 800.9822
316.3487, 808.7106
316.8308, 811.9847
317.3130, 802.9362
317.7951, 795.1312
318.2772, 796.4277
318.7593, 805.7603
319.2414, 810.8393
319.7235, 802.0405
320.2057, 790.1906
320.6878, 783.8701
321.1699, 792.1937
321.6520, 798.9767
322.1341, 799.1002
322.6162, 793.2183
323.0984, 788.2148
323.5805, 788.1552
324.0626, 787.8146
324.5447, 783.6704
325.0268, 766.1489
325.5089, 754.8089
325.9911, 754.6846
326.4732, 764.7680
326.9553, 773.8997
327.4374, 782.2706
327.9195, 788.9437
328.4016, 793.5231
328.8838, 797.8909
329.3659, 797.6287
329.8480, 789.0677
330.3301, 774.2162
330.8122, 765.6509
331.2943, 766.8325
331.7765, 770.7617
332.2586, 773.8757
332.7407, 777.3497
333.2228, 777.6026
333.7049, 772.1651
334.1870, 763.2512
334.6692, 760.7146
335.1513, 768.9493
335.6334, 776.5004
336.1155, 776.1822
336.5976, 764.6223
337.0797, 755.8480
337.5619, 750.7263
338.0440, 748.8687
338.5261, 750.3369
339.0082, 756.7288
339.4903, 761.6284
339.9724, 760.7253
340.4546, 753.2341
340.9367, 746.4827
341.4188, 740.4326
341.9009, 735.7191
342.3830, 733.8836
342.8651, 735.0988
343.3473, 737.6175
343.8294, 741.8690
344.3115, 747.5206
344.7936, 748.5444
345.2757, 743.2638
345.7578, 736.7028
346.2400, 737.3819
346.7221, 744.9391
347.2042, 753.1154
347.6863, 760.9413
348.1684, 767.1090
348.6505, 765.7866
349.1327, 755.3135
349.6148, 743.7287
350.0969, 740.9736
350.5790, 745.5174
351.0611, 751.4873
351.5432, 759.3909
352.0254, 765.8720
352.5075, 763.0436
352.9896, 749.5883
353.4717, 737.6169
353.9538, 741.6560
354.4359, 755.1837
354.9181, 765.2921
355.4002, 762.5983
355.8823, 756.4059
356.3644, 755.8571
356.8465, 761.1803
357.3286, 766.5056
357.8108, 767.1812
358.2929, 765.8640
358.7750, 766.0427
359.2571, 770.9225
359.7392, 776.0362
360.2213, 779.0775
360.7035, 780.0828
361.1856, 780.0569
361.6677, 777.5294
362.1498, 775.0686
362.6319, 774.8659
363.1140, 780.8150
363.5962, 785.7195
364.0783, 786.8268
364.5604, 784.6532
365.0425, 782.9451
365.5246, 783.2881
366.0067, 783.9000
366.4889, 783.6867
366.9710, 781.2761
367.4531, 779.4946
367.9352, 779.8580
368.4173, 781.4586
368.8994, 780.1229
369.3815, 768.8471
369.8636, 760.6886
370.3458, 761.8956
370.8279, 781.6795
371.3100, 794.8679
371.7921, 798.1121
372.2742, 795.5658
372.7563, 797.8536
373.2385, 808.1313
373.7206, 818.0077
374.2027, 824.2368
374.6848, 826.4838
375.1669, 826.2426
375.6490, 822.9020
376.1312, 817.6998
376.6133, 811.4816
377.0954, 802.9619
377.5775, 798.6816
378.0596, 802.4868
378.5417, 814.0287
379.0239, 824.2149
379.5060, 833.2874
379.9881, 840.0435
380.4702, 840.5973
380.9523, 835.2949
381.4344, 834.1128
381.9166, 843.7574
382.3987, 859.2771
382.8808, 865.0081
383.3629, 860.4329
383.8450, 853.2778
384.3271, 848.9966
384.8093, 847.7955
385.2914, 851.1047
385.7735, 863.1232
386.2556, 876.1805
386.7377, 876.8497
387.2198, 866.7679
387.7020, 858.4077
388.1841, 865.0659
388.6662, 877.5462
389.1483, 882.8120
389.6304, 873.3403
390.1125, 863.0120
390.5947, 863.1196
391.0768, 871.1096
391.5589, 878.9965
392.0410, 882.7001
392.5231, 884.8170
393.0052, 887.2274
393.4874, 890.3670
393.9695, 893.5062
394.4516, 895.1415
394.9337, 896.6981
395.4158, 900.7916
395.8979, 910.5450
396.3801, 920.8976
396.8622, 930.2289
397.3443, 938.8463
397.8264, 944.7255
398.3085, 943.9421
398.7906, 941.4524
399.2728, 943.3287
399.7549, 957.3517
400.2370, 967.1268
400.7191, 967.1958
401.2012, 956.4451
401.6833, 953.3511
402.1655, 962.7888
402.6476, 975.1168
403.1297, 982.0986
403.6118, 982.1745
404.0939, 980.5387
404.5760, 977.0035
405.0582, 972.2925
405.5403, 971.2918
406.0224, 975.6361
406.5045, 978.9554
406.9866, 974.9367
407.4688, 962.8549
407.9509, 956.9255
408.4330, 960.5994
408.9151, 968.3270
409.3972, 966.6923
409.8793, 955.6835
410.3615, 947.0378
410.8436, 950.7490
411.3257, 962.5360
411.8078, 967.5085
412.2899, 964.1746
412.7720, 956.6357
413.2542, 948.6019
413.7363, 940.2341
414.2184, 931.8232
414.7005, 921.3322
415.1826, 908.2432
415.6647, 910.1937
416.1469, 910.1367
416.6290, 908.1813
417.1111, 898.6387
417.5932, 898.8934
418.0753, 895.2219
418.5574, 891.3892
419.0396, 893.0221
419.5217, 884.5831
420.0038, 886.1299
420.4859, 883.6907
420.9680, 883.0758
421.4501, 878.5103
421.9323, 875.1644
422.4144, 875.7710
422.8965, 874.1893
423.3786, 869.1691
423.8607, 855.6735
424.3428, 847.8575
424.8250, 845.7714
425.3071, 846.3835
425.7892, 849.5005
426.2713, 858.1666
426.7534, 861.0226
427.2355, 854.4304
427.7177, 844.2709
428.1998, 839.3442
428.6819, 841.4377
429.1640, 844.6551
429.6461, 847.1776
430.1282, 849.0125
430.6104, 853.9571
431.0925, 863.3041
431.5746, 872.3091
432.0567, 875.7992
432.5388, 873.6361
433.0209, 870.1362
433.5031, 865.2694
433.9852, 860.3911
434.4673, 859.5192
434.9494, 862.5754
435.4315, 865.7082
435.9136, 865.2341
436.3958, 862.7393
436.8779, 862.4190
437.3600, 865.2576
437.8421, 869.3463
438.3242, 873.5925
438.8063, 877.5436
439.2885, 879.9056
439.7706, 879.3176
440.2527, 877.2455
440.7348, 873.9769
441.2169, 869.1611
441.6990, 867.0680
442.1812, 873.7057
442.6633, 883.1547
443.1454, 888.4557
443.6275, 883.8488
444.1096, 878.1712
444.5917, 874.7529
445.0739, 873.4020
445.5560, 870.8082
446.0381, 861.9005
446.5202, 854.5225
447.0023, 853.3459
447.4844, 867.4716
447.9666, 876.5422
448.4487, 879.6365
448.9308, 877.6871
449.4129, 872.1711
449.8950, 858.3738
450.3771, 849.0269
450.8593, 851.3108
451.3413, 868.6246
451.8235, 876.8101
452.3056, 873.0938
452.7877, 864.6656
453.2698, 861.3216
453.7519, 863.5562
454.2340, 865.2968
454.7162, 864.0081
455.1983, 861.0209
455.6804, 862.2223
456.1625, 867.9194
456.6446, 872.4075
457.1267, 870.0827
457.6089, 862.7313
458.0910, 854.6526
458.5731, 845.6564
459.0552, 838.4013
459.5373, 837.6440
460.0194, 841.7624
460.5016, 845.3765
460.9837, 843.8223
461.4658, 841.3101
461.9479, 842.4488
462.4300, 848.7111
462.9121, 853.2384
463.3943, 851.2349
463.8764, 845.7855
464.3585, 840.8941
464.8406, 838.3242
465.3227, 835.9274
465.8048, 831.2535
466.2870, 824.3422
466.7691, 823.4176
467.2512, 836.7161
467.7333, 851.2103
468.2154, 858.7881
468.6975, 853.5777
469.1797, 851.1650
469.6618, 854.2295
470.1439, 859.9368
470.6260, 860.1790
471.1081, 852.4736
471.5902, 845.2501
472.0724, 841.6735
472.5545, 841.7576
473.0366, 846.0116
473.5187, 856.0301
474.0008, 865.6327
474.4829, 865.0990
474.9651, 855.4434
475.4472, 849.1151
475.9293, 851.9786
476.4114, 859.1022
476.8935, 860.5123
477.3756, 856.4874
477.8578, 850.4531
478.3399, 843.7078
478.8220, 836.9139
479.3041, 831.0189
479.7862, 826.2074
480.2683, 822.3337
480.7505, 818.8185
481.2326, 816.1707
481.7147, 815.4129
482.1968, 820.9068
482.6789, 825.1234
483.1610, 823.1844
483.6432, 813.9396
484.1253, 805.6401
484.6074, 800.9594
485.0895, 797.8094
485.5716, 794.3392
486.0537, 790.0353
486.5359, 785.7188
487.0180, 780.0732
487.5001, 774.1478
487.9822, 773.6790
488.4643, 783.2118
488.9464, 790.7667
489.4286, 789.5615
489.9107, 777.5409
490.3928, 767.7541
490.8749, 760.2365
491.3570, 755.0594
491.8391, 752.9337
492.3213, 753.8722
492.8034, 754.7499
493.2855, 754.1441
493.7676, 752.8665
494.2497, 753.5689
494.7318, 756.1964
495.2140, 757.9858
495.6961, 755.7498
496.1782, 751.3150
496.6603, 747.7945
497.1424, 745.6237
497.6245, 744.8142
498.1067, 747.1796
498.5888, 750.9375
499.0709, 751.9951
499.5530, 742.8779
500.0351, 735.1198
500.5172, 737.1774
500.9994, 751.5748
501.4815, 760.7197
501.9636, 755.8835
502.4457, 746.4431
502.9278, 740.8693
503.4099, 743.8168
503.8921, 745.4207
504.3742, 743.7284
504.8563, 739.9703
505.3384, 739.7699
505.8205, 745.6468
506.3026, 750.3748
506.7848, 750.1349
507.2669, 744.2460
507.7490, 738.2817
508.2311, 731.8790
508.7132, 726.2921
509.1953, 723.4993
509.6775, 723.2940
510.1596, 723.1543
510.6417, 721.2043
511.1238, 719.4958
511.6059, 723.5716
512.0880, 732.8559
512.5701, 740.9010
513.0522, 742.3664
513.5344, 740.2635
514.0165, 738.1659
514.4986, 736.4924
514.9807, 735.4850
515.4628, 734.3489
515.9449, 734.1296
516.4271, 736.5929
516.9092, 750.2507
517.3913, 759.2883
517.8734, 754.2382
518.3555, 734.1089
518.8376, 721.0238
519.3198, 722.2928
519.8019, 727.9521
520.2840, 732.4135
520.7661, 736.5560
521.2482, 737.2604
521.7303, 731.8958
522.2125, 724.4217
522.6946, 725.1345
523.1767, 736.4676
523.6588, 745.5642
524.1409, 745.2225
524.6230, 737.2953
525.1052, 737.5563
525.5873, 747.1168
526.0694, 756.0656
526.5515, 751.0385
527.0336, 737.3073
527.5157, 730.8228
527.9979, 738.4050
528.4800, 749.4586
528.9621, 751.1279
529.4442, 746.6975
529.9263, 745.9406
530.4084, 759.0800
530.8906, 774.0029
531.3727, 781.6524
531.8548, 780.5107
532.3369, 779.0298
532.8190, 779.2043
533.3011, 780.6980
533.7833, 783.1995
534.2654, 788.0469
534.7475, 792.2415
535.2296, 795.5357
535.7117, 797.9976
536.1938, 799.9402
536.6760, 801.6776
537.1581, 802.3499
537.6402, 800.9047
538.1223, 796.9838
538.6044, 796.3062
539.0865, 799.7015
539.5687, 803.9332
540.0508, 804.0291
540.5329, 800.8696
541.0150, 801.2621
541.4971, 808.4458
541.9792, 818.0963
542.4614, 823.3597
542.9435, 824.8954
543.4256, 825.7510
543.9077, 827.7645
544.3898, 829.9700
544.8719, 831.2215
545.3541, 831.2289
545.8362, 831.5950
546.3183, 833.9505
546.8004, 836.7180
547.2825, 838.1953
547.7646, 834.7676
548.2468, 833.5786
548.7289, 835.1548
549.2110, 839.8665
549.6931, 849.8718
550.1752, 871.8182
550.6573, 889.9143
551.1395, 896.2477
551.6216, 887.8606
552.1037, 886.2390
552.5858, 894.0304
553.0679, 902.8173
553.5500, 900.8824
554.0322, 888.8099
554.5143, 880.5370
554.9964, 879.8848
555.4785, 884.1147
555.9606, 889.1196
556.4427, 894.8359
556.9249, 900.7946
557.4070, 907.1456
557.8891, 913.3597
558.3712, 919.1139
558.8533, 924.4271
559.3354, 928.3085
559.8176, 929.2568
560.2997, 928.9213
560.7818, 928.9960
561.2639, 930.4260
561.7460, 931.6885
562.2281, 932.9630
562.7103, 933.8935
563.1924, 933.2838
563.6745, 930.9315
564.1566, 927.2991
564.6387, 922.3121
565.1208, 915.7719
565.6030, 909.6676
566.0851, 904.0435
566.5672, 898.9448
567.0493, 893.8768
567.5314, 889.0298
568.0135, 887.4151
568.4957, 891.3685
568.9778, 895.7224
569.4599, 890.2340
569.9420, 876.9818
570.4241, 865.0137
570.9063, 861.3157
571.3884, 859.8704
571.8705, 853.9099
572.3526, 843.2144
572.8347, 832.8269
573.3168, 823.2492
573.7990, 816.3690
574.2811, 814.2650
574.7632, 824.3569
575.2453, 829.2043
575.7274, 821.4218
576.2095, 807.4002
576.6917, 800.4127
577.1738, 807.0775
577.6559, 809.6143
578.1380, 800.5663
578.6201, 781.1867
579.1022, 773.9641
579.5844, 781.9433
580.0665, 790.7603
580.5486, 786.5516
581.0307, 771.8504
581.5128, 766.1111
581.9949, 773.2051
582.4771, 783.5284
582.9592, 785.4578
583.4413, 781.3322
583.9234, 776.9333
584.4055, 777.1151
584.8876, 776.0575
585.3698, 765.7252
585.8519, 748.6707
586.3340, 738.5453
586.8161, 751.1253
587.2982, 764.8540
587.7803, 765.8639
588.2625, 743.8317
588.7446, 732.7657
589.2267, 742.4105
589.7088, 757.9669
590.1909, 762.6831
590.6730, 751.0037
591.1552, 743.7261
591.6373, 745.1971
592.1194, 752.6826
592.6015, 759.3668
593.0836, 765.4100
593.5657, 768.0269
594.0479, 763.0662
594.5300, 753.7662
595.0121, 748.8362
595.4942, 748.4879
595.9763, 750.7645
596.4584, 757.2928
596.9406, 764.2986
597.4227, 766.6743
597.9048, 761.1219
598.3869, 754.2376
598.8690, 746.9814
599.3511, 740.7531
599.8333, 738.1147
600.3154, 741.0516
600.7975, 746.2870
601.2796, 755.1979
601.7617, 767.5603
602.2438, 771.9446
602.7260, 765.3008
603.2081, 756.0634
603.6902, 748.5645
604.1723, 742.5621
604.6544, 741.9760
605.1365, 748.4349
605.6187, 755.9822
606.1008, 755.5064
606.5829, 748.8435
607.0650, 743.7922
607.5471, 744.0170
608.0292, 745.6661
608.5114, 742.7686
608.9935, 737.0709
609.4756, 734.7662
609.9577, 740.8228
610.4398, 749.9870
610.9219, 760.6775
611.4041, 773.7488
611.8862, 781.1248
612.3683, 776.2860
612.8504, 768.3171
613.3325, 764.5309
613.8146, 769.5852
614.2968, 769.0692
614.7789, 759.8615
615.2610, 741.8818
615.7431, 746.0842
616.2252, 748.2797
616.7073, 748.5760
617.1895, 741.2852
617.6716, 743.7917
618.1537, 742.3718
618.6358, 740.7910
619.1179, 744.6763
619.6000, 738.4891
620.0822, 742.2876
620.5643, 742.1001
621.0464, 743.7369
621.5285, 741.4232
622.0106, 740.3297
622.4927, 743.1880
622.9749, 743.8580
623.4570, 741.0896
623.9391, 742.8424
624.4212, 736.5172
624.9033, 738.7071
625.3854, 737.7012
625.8676, 737.5145
626.3497, 735.1260
626.8318, 728.1643
627.3139, 717.4890
627.7960, 711.9506
628.2781, 711.9296
628.7603, 713.8453
629.2424, 716.5427
629.7245, 718.8331
630.2066, 715.8160
630.6887, 705.0706
631.1708, 697.6180
631.6530, 708.2272
632.1351, 727.3462
632.6172, 740.5660
633.0993, 676.3954
633.5814, 703.2829
634.0635, 718.1288
634.5457, 721.5799
635.0278, 679.5087
635.5099, 696.2203
635.9920, 689.3744
636.4741, 681.5625
636.9562, 706.5477
637.4384, 671.0974
637.9205, 695.5624
638.4026, 696.1103
638.8847, 707.6044
639.3668, 695.3956
639.8489, 697.3574
640.3311, 710.5676
640.8132, 722.8078
641.2953, 723.1208
641.7774, 715.3216
642.2595, 707.6943
642.7416, 701.8013
643.2238, 698.7885
643.7059, 701.0845
644.1880, 707.2111
644.6701, 712.2384
645.1522, 715.6240
645.6343, 716.6152
646.1165, 713.6998
646.5986, 706.2386
647.0807, 701.9145
647.5628, 701.6902
648.0449, 703.1531
648.5270, 705.3395
649.0092, 708.5383
649.4913, 707.7072
649.9734, 701.0005
650.4555, 694.5939
650.9376, 699.2249
651.4197, 711.7662
651.9019, 720.8660
652.3840, 720.7320
652.8661, 717.9056
653.3482, 717.3168
653.8303, 718.9823
654.3124, 722.9517
654.7946, 734.4930
655.2767, 743.7533
655.7588, 744.8851
656.2409, 736.7208
656.7230, 729.6326
657.2051, 721.5364
657.6872, 717.3372
658.1693, 722.1401
658.6514, 740.2610
659.1335, 746.5077
659.6157, 737.1390
660.0978, 723.3000
660.5799, 719.3447
661.0620, 724.0988
661.5441, 732.0756
662.0262, 744.9944
662.5084, 755.3937
662.9905, 748.8370
663.4726, 731.8926
663.9547, 722.3701
664.4368, 738.2361
664.9189, 755.5026
665.4011, 760.2285
665.8832, 752.3819
666.3653, 746.5879
666.8474, 746.9554
667.3295, 748.2726
667.8116, 747.5002
668.2938, 742.7194
668.7759, 745.3248
669.2580, 757.9821
669.7401, 772.1377
670.2222, 777.7557
670.7043, 775.7319
671.1865, 775.2885
671.6686, 778.6938
672.1507, 782.8277
672.6328, 782.7572
673.1149, 780.3786
673.5970, 780.1707
674.0792, 783.8979
674.5613, 790.5151
675.0434, 802.6329
675.5255, 818.3288
676.0076, 827.8933
676.4897, 821.3525
676.9719, 815.9704
677.4540, 819.5178
677.9361, 833.6485
678.4182, 839.1541
678.9003, 831.7991
679.3824, 825.0478
679.8646, 832.4005
680.3467, 852.2537
680.8288, 864.8959
681.3109, 867.1335
681.7930, 867.9983
682.2751, 880.6731
682.7573, 899.3788
683.2394, 912.3935
683.7215, 910.2791
684.2036, 908.6158
684.6857, 917.3638
685.1678, 933.1201
685.6500, 948.2337
686.1321, 957.0538
686.6142, 969.2222
687.0963, 990.2239
687.5784, 1018.133
688.0605, 1035.403
688.5427, 1037.916
689.0248, 1040.088
689.5069, 1048.455
689.9890, 1063.066
690.4711, 1087.515
690.9532, 1122.804
691.4354, 1156.478
691.9175, 1171.565
692.3996, 1178.972
692.8817, 1196.858
693.3638, 1231.388
693.8459, 1269.411
694.3281, 1304.876
694.8102, 1339.084
695.2923, 1373.291
695.7744, 1409.723
696.2565, 1443.993
696.7386, 1473.824
697.2208, 1501.384
697.7029, 1531.279
698.1850, 1562.118
698.6671, 1600.795
699.1492, 1651.988
699.6313, 1711.882
700.1135, 1766.530
700.5956, 1816.147
701.0777, 1864.610
701.5598, 1912.350
702.0419, 1961.514
702.5240, 2016.022
703.0062, 2075.924
703.4883, 2135.245
703.9704, 2190.152
704.4525, 2243.752
704.9346, 2299.243
705.4167, 2364.317
705.8989, 2416.896
706.3810, 2454.156
706.8631, 2481.245
707.3452, 2505.496
707.8273, 2527.965
708.3094, 2541.234
708.7916, 2544.557
709.2737, 2537.499
709.7558, 2517.876
710.2379, 2486.957
710.7200, 2448.408
711.2021, 2405.432
711.6843, 2354.198
712.1664, 2290.487
712.6485, 2215.490
713.1306, 2134.940
713.6127, 2044.391
714.0948, 1955.233
714.5770, 1873.020
715.0591, 1797.952
715.5412, 1728.432
716.0233, 1667.042
716.5054, 1607.865
716.9875, 1546.653
717.4697, 1483.938
717.9518, 1421.837
718.4339, 1360.675
718.9160, 1305.170
719.3981, 1264.359
719.8802, 1232.947
720.3624, 1201.327
720.8445, 1165.437
721.3266, 1132.330
721.8087, 1110.319
722.2908, 1092.817
722.7729, 1070.891
723.2551, 1032.245
723.7372, 1001.682
724.2193, 985.9633
724.7014, 979.6710
725.1835, 967.8629
725.6656, 948.8434
726.1478, 931.2565
726.6299, 918.7268
727.1120, 909.5955
727.5941, 898.7542
728.0762, 886.3448
728.5583, 874.7268
729.0405, 865.4046
729.5226, 857.6718
730.0047, 851.5374
730.4868, 847.0277
730.9689, 840.5346
731.4510, 828.2665
731.9332, 815.3824
732.4153, 805.1813
732.8974, 797.8611
733.3795, 792.6805
733.8616, 790.4417
734.3438, 789.2147
734.8259, 787.5680
735.3080, 785.4810
735.7901, 781.4391
736.2722, 774.8087
736.7543, 767.5772
737.2365, 761.3148
737.7186, 756.4515
738.2007, 754.0327
738.6828, 755.6647
739.1649, 758.1864
739.6470, 762.3036
740.1292, 766.0010
740.6113, 764.5618
741.0934, 745.8602
741.5755, 736.4578
742.0576, 745.8780
742.5397, 768.4258
743.0219, 778.1404
743.5040, 773.4018
743.9861, 765.7787
744.4682, 760.2313
744.9503, 756.2580
745.4324, 751.2717
745.9146, 745.6641
746.3967, 743.7785
746.8788, 753.0211
747.3609, 764.2639
747.8430, 769.6663
748.3251, 767.8351
748.8073, 764.7697
749.2894, 760.5343
749.7715, 756.5779
750.2536, 753.6523
750.7357, 751.3510
751.2178, 752.0191
751.7000, 757.1368
752.1821, 761.8057
752.6642, 759.2098
753.1463, 750.7703
753.6284, 743.1927
754.1105, 737.0381
754.5927, 734.0275
755.0748, 739.0068
755.5569, 747.4425
756.0390, 752.2634
756.5211, 750.4152
757.0032, 745.2061
757.4854, 733.3215
757.9675, 719.2056
758.4496, 713.7888
758.9317, 722.8208
759.4138, 727.5238
759.8959, 721.6155
760.3781, 709.5238
760.8602, 705.8094
761.3423, 709.9545
761.8244, 713.7808
762.3065, 711.9499
762.7886, 707.9256
763.2708, 706.0544
763.7529, 706.0692
764.2350, 706.0204
764.7171, 706.0945
765.1992, 704.8839
765.6813, 699.9008
766.1635, 689.9813
766.6456, 688.1340
767.1277, 699.9342
767.6098, 710.7281
768.0919, 710.1504
768.5740, 698.3653
769.0562, 688.4963
769.5383, 680.6115
770.0204, 675.8568
770.5025, 677.0396
770.9846, 681.5028
771.4667, 685.0086
771.9489, 686.7813
772.4310, 688.2129
772.9131, 690.0548
773.3952, 691.8950
773.8773, 693.3049
774.3594, 693.8845
774.8416, 694.7997
775.3237, 697.1634
775.8058, 698.7235
776.2879, 695.6495
776.7700, 687.9161
777.2521, 681.0457
777.7343, 676.2581
778.2164, 672.6951
778.6985, 669.3771
779.1806, 666.3656
779.6627, 663.7047
780.1448, 660.9574
780.6270, 659.0837
781.1091, 657.7231
781.5912, 657.5129
782.0733, 660.7443
782.5554, 671.6265
783.0375, 679.1264
783.5197, 679.8579
784.0018, 675.5748
784.4839, 671.8942
784.9660, 668.7490
785.4481, 668.1418
785.9302, 674.3098
786.4124, 682.0712
786.8945, 681.6232
787.3766, 674.3690
787.8587, 667.2654
788.3408, 662.4905
788.8229, 660.2687
789.3051, 662.1289
789.7872, 668.5477
790.2693, 671.3005
790.7514, 668.2064
791.2335, 664.6465
791.7156, 663.5225
792.1978, 664.7797
792.6799, 666.4429
793.1620, 668.7295
793.6441, 668.3041
794.1262, 659.2532
794.6083, 646.9401
795.0905, 639.2535
795.5726, 637.2077
796.0547, 637.7100
796.5368, 640.9848
797.0189, 645.0258
797.5010, 648.8201
797.9832, 655.1776
798.4653, 652.8516
798.9474, 636.9615
799.4295, 620.1487
799.9116, 615.9449
800.3937, 623.6162
800.8759, 633.1144
801.3580, 644.2365
801.8401, 651.9541
802.3222, 648.0806
802.8043, 638.2017
803.2864, 630.7610
803.7686, 629.3206
804.2507, 628.2097
804.7328, 624.6775
805.2149, 620.8051
805.6970, 620.0357
806.1791, 625.9566
806.6613, 624.9371
807.1434, 611.9841
807.6255, 596.5307
808.1076, 598.0322
808.5897, 613.3801
809.0718, 623.8030
809.5540, 621.0921
810.0361, 614.8872
810.5182, 614.1807
811.0003, 616.8026
811.4824, 618.5302
811.9645, 617.5923
812.4467, 616.0743
812.9288, 614.9182
813.4109, 613.4849
813.8930, 609.6545
814.3751, 602.4556
814.8572, 596.7086
815.3394, 593.5945
815.8215, 593.0103
816.3036, 596.0557
816.7857, 601.9103
817.2678, 606.5438
817.7499, 608.8594
818.2321, 608.5430
818.7142, 602.5521
819.1963, 592.8835
819.6784, 588.5905
820.1605, 596.0295
820.6426, 604.0990
821.1248, 611.5132
821.6068, 617.3903
822.0889, 613.5334
822.5710, 598.8814
823.0532, 587.2394
823.5353, 588.4243
824.0174, 596.5767
824.4995, 602.0905
824.9816, 604.9717
825.4637, 605.8926
825.9459, 603.1843
826.4280, 600.3557
826.9101, 599.4578
827.3922, 600.7083
827.8743, 601.9808
828.3564, 604.2657
828.8386, 604.6865
829.3207, 600.8849
829.8028, 593.7197
830.2849, 589.4677
830.7670, 588.1414
831.2491, 588.5005
831.7313, 589.9608
832.2134, 592.4644
832.6955, 596.7017
833.1776, 602.6515
833.6597, 606.9735
834.1418, 607.1320
834.6240, 606.6666
835.1061, 608.1869
835.5882, 612.3807
836.0703, 610.7956
836.5524, 602.0733
837.0345, 592.8599
837.5167, 586.9936
837.9988, 584.5178
838.4809, 586.9419
838.9630, 594.2533
839.4451, 600.2906
839.9272, 598.8257
840.4094, 595.7090
840.8915, 595.9448
841.3736, 601.2145
841.8557, 604.6216
842.3378, 605.2182
842.8199, 604.5948
843.3021, 604.0463
843.7842, 603.6213
844.2663, 599.4371
844.7484, 590.9137
845.2305, 584.3303
845.7126, 586.7889
846.1948, 593.9244
846.6769, 600.4595
847.1590, 605.9503
847.6411, 608.7433
848.1232, 606.1580
848.6053, 602.1844
849.0875, 599.4626
849.5696, 597.9754
850.0517, 598.2140
850.5338, 600.6613
851.0159, 603.5512
851.4980, 606.4107
851.9802, 608.4277
852.4623, 605.5139
852.9444, 596.8697
853.4265, 589.6848
853.9086, 591.5937
854.3907, 596.1694
854.8729, 597.1151
855.3550, 590.9800
855.8371, 589.2643
856.3192, 595.9158
856.8013, 602.9015
857.2834, 603.8940
857.7656, 598.8170
858.2477, 591.3495
858.7298, 580.9422
859.2119, 574.3187
859.6940, 581.8937
860.1761, 595.3389
860.6583, 603.6083
861.1404, 604.5117
861.6225, 602.4455
862.1046, 594.5269
862.5867, 587.5927
863.0688, 587.2256
863.5510, 596.0963
864.0331, 601.0256
864.5152, 601.3485
864.9973, 600.0587
865.4794, 599.8305
865.9615, 600.2075
866.4437, 599.3969
866.9258, 597.0034
867.4079, 596.1700
867.8900, 602.8918
868.3721, 609.5234
868.8542, 609.0544
869.3364, 597.2196
869.8185, 587.6645
870.3006, 579.6812
870.7827, 575.4119
871.2648, 578.6581
871.7469, 588.4374
872.2291, 593.9310
872.7112, 594.4486
873.1933, 592.9722
873.6754, 589.6904
874.1575, 587.1545
874.6396, 589.3790
875.1218, 598.5118
875.6039, 603.0712
876.0860, 594.8441
876.5681, 586.1617
877.0502, 584.3115
877.5323, 590.2721
878.0145, 593.9282
878.4966, 595.0790
878.9787, 595.2385
879.4608, 596.5666
879.9429, 597.4168
880.4250, 592.9495
880.9072, 582.5460
881.3893, 577.3035
881.8714, 589.6871
882.3535, 603.2866
882.8356, 606.6503
883.3177, 598.0883
883.7999, 593.8856
884.2820, 595.1406
884.7641, 597.3811
885.2462, 597.2197
885.7283, 595.6296
886.2104, 595.7444
886.6926, 597.5651
887.1747, 599.5282
887.6568, 599.8455
888.1389, 600.5495
888.6210, 603.7684
889.1031, 609.9601
889.5853, 613.8567
890.0674, 615.9724
890.5495, 614.4511
891.0316, 605.2635
891.5137, 591.0256
891.9958, 591.8464
892.4780, 606.6541
892.9601, 618.0412
893.4422, 608.1553
893.9243, 594.6131
894.4064, 595.4122
894.8885, 609.3956
895.3707, 616.4124
895.8528, 604.4601
896.3349, 594.3665
896.8170, 593.5795
897.2991, 600.1812
897.7813, 603.3834
898.2634, 603.1498
898.7455, 602.3826
899.2276, 600.8752
899.7097, 600.8888
900.1918, 607.9418
900.6740, 619.5464
901.1561, 626.3908
901.6382, 618.8865
902.1203, 613.2914
902.6024, 616.0321
903.0845, 624.1694
903.5667, 626.9598
904.0488, 624.0150
904.5309, 618.7568
905.0130, 610.0321
905.4951, 602.6455
905.9772, 606.2269
906.4594, 617.3709
906.9415, 627.1050
907.4236, 634.6649
907.9057, 636.9488
908.3878, 627.9114
908.8699, 614.1114
909.3521, 608.9725
909.8342, 614.7465
910.3163, 619.8126
910.7984, 621.2618
911.2805, 621.9296
911.7626, 628.1022
912.2448, 637.1251
912.7269, 642.6731
913.2090, 642.4246
913.6911, 638.5108
914.1732, 628.3741
914.6553, 616.6218
915.1375, 609.4702
915.6196, 607.2247
916.1017, 609.7080
916.5838, 618.2339
917.0659, 628.3787
917.5480, 634.9623
918.0302, 638.3786
918.5123, 639.2732
918.9944, 637.0898
919.4765, 635.3051
919.9586, 637.8829
920.4407, 640.9088
920.9229, 640.2327
921.4050, 633.3742
921.8871, 628.7444
922.3692, 626.8257
922.8513, 626.1144
923.3334, 624.7659
923.8156, 623.4333
924.2977, 625.2061
924.7798, 630.3918
925.2619, 635.4857
925.7440, 639.4462
926.2261, 641.1793
926.7083, 639.2734
927.1904, 632.8979
927.6725, 626.6105
928.1546, 619.0649
928.6367, 614.3431
929.1188, 616.4733
929.6010, 623.6734
930.0831, 625.3242
930.5652, 622.1062
931.0473, 621.5748
931.5294, 634.0843
932.0115, 646.4709
932.4937, 647.0822
932.9758, 636.9713
933.4579, 631.8460
933.9400, 636.1978
934.4221, 638.6889
934.9042, 634.1251
935.3864, 626.1833
935.8685, 628.4534
936.3506, 638.9793
936.8327, 646.0302
937.3148, 638.8276
937.7969, 631.1183
938.2791, 635.4318
938.7612, 646.4777
939.2433, 651.6641
939.7254, 646.2416
940.2075, 639.9230
940.6896, 632.2877
941.1718, 626.4517
941.6539, 629.4715
942.1360, 639.8827
942.6181, 650.2902
943.1002, 659.7159
943.5823, 666.0375
944.0645, 667.8705
944.5466, 665.5403
945.0287, 659.1315
945.5108, 640.9809
945.9929, 632.7820
946.4750, 638.0056
946.9572, 647.3306
947.4393, 651.5219
947.9214, 651.2980
948.4035, 650.4610
948.8856, 649.3925
949.3677, 647.3382
949.8499, 642.2655
950.3320, 636.9607
950.8141, 633.9058
951.2962, 633.8651
951.7783, 633.5459
952.2604, 631.9789
952.7426, 632.0157
953.2247, 637.2793
953.7068, 645.6732
954.1889, 645.7904
954.6710, 638.5723
955.1531, 632.4214
955.6353, 634.3936
956.1174, 637.5837
956.5995, 635.9288
957.0816, 630.6153
957.5637, 631.5335
958.0458, 643.9849
958.5280, 650.3206
959.0101, 643.0941
959.4922, 629.0005
959.9743, 622.3567
960.4564, 622.7656
960.9385, 629.2971
961.4207, 649.6413
961.9028, 665.2016
962.3849, 661.8522
962.8670, 648.2165
963.3491, 639.2883
963.8312, 635.9156
964.3134, 637.3589
964.7955, 645.6224
965.2776, 653.5336
965.7597, 647.2349
966.2418, 633.4602
966.7239, 631.2607
967.2061, 646.8998
967.6882, 659.6119
968.1703, 654.2542
968.6524, 644.0639
969.1345, 640.1905
969.6166, 644.6958
970.0988, 644.4971
970.5809, 638.2486
971.0630, 632.9680
971.5451, 636.5555
972.0272, 643.7886
972.5093, 643.1235
972.9915, 635.2037
973.4736, 629.5013
973.9557, 633.6892
974.4378, 637.7491
974.9199, 637.3131
975.4020, 633.0146
975.8842, 625.9659
976.3663, 615.2695
976.8484, 611.0650
977.3305, 620.6934
977.8126, 634.3997
978.2947, 637.8470
978.7769, 634.3218
979.2590, 631.0187
979.7411, 628.1992
980.2232, 629.0236
980.7053, 636.7947
981.1874, 646.2603
981.6696, 649.7001
982.1517, 646.9433
982.6338, 645.9506
983.1159, 648.3094
983.5980, 649.7696
984.0801, 644.0414
984.5623, 636.0929
985.0444, 631.5136
985.5265, 631.7578
986.0085, 633.7722
986.4907, 637.8273
986.9728, 642.4049
987.4549, 647.7834
987.9370, 653.4308
988.4191, 652.7128
988.9012, 645.9509
989.3834, 638.1678
989.8655, 629.2628
990.3476, 623.5754
990.8297, 626.5997
991.3118, 636.6729
991.7939, 642.6883
992.2761, 642.7177
992.7582, 641.3817
993.2403, 638.9036
993.7224, 636.9616
994.2045, 641.8492
994.6866, 650.6852
995.1688, 653.4824
995.6509, 642.6725
996.1330, 632.5764
996.6151, 631.9472
997.0972, 635.6488
997.5793, 636.4627
998.0615, 631.8907
998.5436, 633.7474
999.0257, 644.0237
999.5078, 654.6302
999.9899, 655.8011
1000.472, 652.0891
1000.954, 651.5018
1001.436, 654.9604
1001.918, 658.2696
1002.401, 661.2631
1002.883, 661.9259
1003.365, 658.2344
1003.847, 650.9929
1004.329, 648.9051
1004.811, 652.0856
1005.293, 655.0346
1005.775, 656.0781
1006.257, 654.5770
1006.740, 645.9614
1007.222, 634.4787
1007.704, 630.3015
1008.186, 647.2840
1008.668, 655.9469
1009.150, 649.4738
1009.632, 637.9524
1010.114, 638.3350
1010.596, 648.1083
1011.079, 653.0776
1011.561, 649.8572
1012.043, 646.0396
1012.525, 648.1185
1013.007, 651.7792
1013.489, 652.5455
1013.971, 648.8480
1014.453, 649.2800
1014.936, 655.0055
1015.418, 661.1024
1015.900, 665.4329
1016.382, 667.4377
1016.864, 664.1206
1017.346, 656.6585
1017.828, 651.0806
1018.310, 652.4437
1018.792, 653.7427
1019.275, 650.9830
1019.757, 646.7233
1020.239, 648.4057
1020.721, 656.4526
1021.203, 661.1014
1021.685, 659.1501
1022.167, 655.4570
1022.649, 654.7783
1023.132, 656.1711
1023.614, 658.6938
1024.096, 664.2039
1024.578, 665.4246
1025.060, 658.4763
1025.542, 652.6699
1026.024, 656.7481
1026.506, 668.8622
1026.989, 678.7816
1027.471, 685.9359
1027.953, 686.6103
1028.435, 669.0811
1028.917, 652.7396
1029.399, 653.4278
1029.881, 667.6173
1030.363, 672.4186
1030.845, 664.5958
1031.328, 659.9608
1031.810, 664.1600
1032.292, 671.3085
1032.774, 672.0518
1033.256, 668.5907
1033.738, 665.4119
1034.220, 664.6976
1034.702, 662.7367
1035.184, 657.1902
1035.667, 651.4353
1036.149, 647.5513
1036.631, 645.5355
1037.113, 647.7648
1037.595, 654.3851
1038.077, 662.9351
1038.559, 676.3313
1039.041, 686.9722
1039.524, 685.6662
1040.006, 673.2819
1040.488, 668.0870
1040.970, 675.2541
1041.452, 678.7881
1041.934, 671.8470
1042.416, 661.0488
1042.898, 660.4052
1043.380, 666.8597
1043.863, 672.1293
1044.345, 673.5460
1044.827, 673.2496
1045.309, 670.6363
1045.791, 667.6681
1046.273, 666.3682
1046.755, 666.9991
1047.237, 665.9974
1047.719, 663.0134
1048.202, 661.6594
1048.684, 667.0521
1049.166, 674.1155
1049.648, 676.9807
1050.130, 675.7266
1050.612, 676.3314
1051.094, 682.6208
1051.576, 684.2492
1052.059, 676.0872
1052.541, 663.9507
1053.023, 663.4597
1053.505, 670.7319
1053.987, 672.2905
1054.469, 657.7285
1054.951, 648.9188
1055.433, 664.7026
1055.916, 685.4585
1056.398, 690.7485
1056.880, 676.7346
1057.362, 671.0454
1057.844, 674.6371
1058.326, 679.5564
1058.808, 677.5070
1059.290, 674.6544
1059.772, 679.5781
1060.255, 691.4266
1060.737, 698.6262
1061.219, 698.0334
1061.701, 695.2727
1062.183, 690.5460
1062.665, 685.8021
1063.147, 686.8597
1063.629, 691.5497
1064.111, 691.8337
1064.594, 682.0748
1065.076, 676.4401
1065.558, 687.2367
1066.040, 701.5380
1066.522, 707.5306
1067.004, 703.5635
1067.486, 703.8691
1067.968, 708.7737
1068.450, 713.5831
1068.933, 713.4753
1069.415, 712.6192
1069.897, 717.0834
1070.379, 725.1747
1070.861, 728.3472
1071.343, 722.5858
1071.825, 717.1060
1072.307, 713.5622
1072.790, 711.0432
1073.272, 705.6520
1073.754, 700.2072
1074.236, 703.9436
1074.718, 721.4468
1075.200, 737.3272
1075.682, 745.2651
1076.164, 747.9268
1076.646, 745.9494
1077.129, 739.3380
1077.611, 737.6716
1078.093, 740.9374
1078.575, 744.9704
1079.057, 747.5725
1079.539, 749.4671
1080.021, 750.9644
1080.503, 752.2271
1080.985, 753.9191
1081.468, 757.7557
1081.950, 757.4645
1082.432, 750.8096
1082.914, 743.9484
1083.396, 746.3251
1083.878, 753.6363
1084.360, 757.7752
1084.842, 757.5822
1085.325, 754.8941
1085.807, 745.7008
1086.289, 739.3291
1086.771, 740.4406
1087.253, 747.4971
1087.735, 754.1542
1088.217, 760.1423
1088.699, 763.1676
1089.182, 760.4004
1089.664, 756.9614
1090.146, 757.3178
1090.628, 758.6604
1091.110, 756.5379
1091.592, 748.8730
1092.074, 745.7270
1092.556, 748.1901
1093.038, 751.0786
1093.521, 748.6772
1094.003, 744.5094
1094.485, 742.3808
1094.967, 742.6509
1095.449, 746.3309
1095.931, 759.0232
1096.413, 765.9861
1096.895, 761.7981
1097.377, 751.9777
1097.860, 747.6201
1098.342, 747.7350
1098.824, 750.0977
1099.306, 755.8268
1099.788, 758.2145
1100.270, 746.4467
1100.752, 736.7686
1101.234, 744.1781
1101.717, 769.4206
1102.199, 774.3053
1102.681, 759.1706
1103.163, 744.2881
1103.645, 743.2440
1104.127, 747.2899
1104.609, 752.5307
1105.091, 757.0219
1105.573, 755.4718
1106.056, 744.8300
1106.538, 737.2292
1107.020, 734.2681
1107.502, 734.2286
1107.984, 737.7950
1108.466, 741.7361
1108.948, 738.7942
1109.430, 727.5393
1109.912, 723.8959
1110.395, 738.5583
1110.877, 751.0766
1111.359, 753.8149
1111.841, 749.5690
1112.323, 743.9362
1112.805, 738.3843
1113.287, 738.6870
1113.769, 750.5372
1114.252, 761.9192
1114.734, 770.3519
1115.216, 773.6921
1115.698, 768.4930
1116.180, 753.7448
1116.662, 745.3732
1117.144, 743.5861
1117.626, 743.1784
1118.109, 739.4544
1118.591, 736.5202
1119.073, 739.1991
1119.555, 745.6354
1120.037, 748.4319
1120.519, 746.7307
1121.001, 744.2164
1121.483, 741.8040
1121.965, 737.7983
1122.448, 726.3381
1122.930, 713.6711
1123.412, 710.4797
1123.894, 719.9106
1124.376, 724.4401
1124.858, 718.3701
1125.340, 714.2496
1125.822, 719.9647
1126.304, 729.5308
1126.787, 721.8871
1127.269, 703.6807
1127.751, 695.2426
1128.233, 715.1934
1128.715, 728.9874
1129.197, 719.3121
1129.679, 705.7769
1130.161, 707.5421
1130.644, 723.2871
1131.126, 726.5484
1131.608, 717.1364
1132.090, 707.1177
1132.572, 703.8504
1133.054, 703.0294
1133.536, 702.8563
1134.018, 702.9855
1134.500, 702.4070
1134.983, 700.8199
1135.465, 702.3047
1135.947, 708.7571
1136.429, 712.6141
1136.911, 701.5751
1137.393, 686.6514
1137.875, 680.1691
1138.357, 684.9556
1138.839, 686.2507
1139.322, 683.0130
1139.804, 679.6718
1140.286, 677.9880
1140.768, 677.4349
1141.250, 678.5515
1141.732, 679.7915
1142.214, 677.9927
1142.696, 668.6641
1143.179, 663.2054
1143.661, 664.9771
1144.143, 666.0152
1144.625, 655.9033
1145.107, 640.3433
1145.589, 640.1349
1146.071, 653.1853
1146.553, 664.8784
1147.036, 668.6567
1147.518, 669.5939
1148.000, 668.2385
1148.482, 666.0919
1148.964, 664.9403
1149.446, 665.0422
1149.928, 670.2424
1150.410, 681.7749
1150.892, 688.1371
1151.375, 675.0689
1151.857, 660.5777
1152.339, 657.4385
1152.821, 663.1436
1153.303, 663.4086
1153.785, 658.3189
1154.267, 654.9534
1154.749, 656.3164
1155.231, 658.6525
1155.714, 657.8977
1156.196, 656.6460
1156.678, 658.5942
1157.160, 664.9820
1157.642, 667.5185
1158.124, 665.8358
1158.606, 662.9729
1159.088, 660.0176
1159.571, 657.5811
1160.053, 656.3520
1160.535, 656.1639
1161.017, 656.7177
1161.499, 658.5770
1161.981, 659.9290
1162.463, 660.9117
1162.945, 660.5708
1163.427, 655.4636
1163.910, 649.6573
1164.392, 651.4895
1164.874, 660.4251
1165.356, 664.7127
1165.838, 657.2021
1166.320, 652.0030
1166.802, 652.5353
1167.284, 656.1854
1167.766, 660.0360
1168.249, 663.1005
1168.731, 662.9468
1169.213, 658.7068
1169.695, 653.4397
1170.177, 644.9777
1170.659, 639.5829
1171.141, 640.8260
1171.623, 646.8954
1172.106, 652.1765
1172.588, 656.6885
1173.070, 660.9595
1173.552, 667.6513
1174.034, 669.7275
1174.516, 660.0469
1174.998, 648.1155
1175.480, 639.3211
1175.963, 633.9360
1176.445, 640.3210
1176.927, 657.1243
1177.409, 670.4378
1177.891, 669.3779
1178.373, 665.0541
1178.855, 660.9977
1179.337, 658.1780
1179.819, 658.3029
1180.302, 661.4526
1180.784, 664.5933
1181.266, 667.5084
1181.748, 669.8077
1182.230, 673.2979
1182.712, 674.2469
1183.194, 667.1567
1183.676, 654.9235
1184.158, 649.4614
1184.641, 651.2632
1185.123, 652.9646
1185.605, 652.4112
1186.087, 652.8532
1186.569, 660.7391
1187.051, 668.9808
1187.533, 668.0508
1188.015, 656.6685
1188.498, 657.3754
1188.980, 672.3379
1189.462, 682.4791
1189.944, 677.5696
1190.426, 667.5653
1190.908, 661.5745
1191.390, 659.1580
1191.872, 660.4027
1192.354, 668.0171
1192.837, 669.6544
1193.319, 663.7869
1193.801, 659.5803
1194.283, 667.4789
1194.765, 677.7422
1195.247, 675.1068
1195.729, 664.3569
1196.211, 658.4506
1196.693, 662.7151
1197.176, 663.7474
1197.658, 659.5500
1198.140, 655.9437
1198.622, 660.4397
1199.104, 668.2556
1199.586, 672.5435
1200.068, 673.2411
1200.550, 673.6982
1201.033, 677.0097
1201.515, 673.6370
1201.997, 658.5634
1202.479, 644.1354
1202.961, 653.0464
1203.443, 672.5781
1203.925, 680.2617
1204.407, 672.1590
1204.890, 669.8265
1205.372, 683.2604
1205.854, 688.9839
1206.336, 675.7901
1206.818, 655.5975
1207.300, 652.4651
1207.782, 660.5058
1208.264, 668.8449
1208.746, 675.7927
1209.229, 680.0092
1209.711, 681.4728
1210.193, 680.3920
1210.675, 675.3449
1211.157, 668.9092
1211.639, 667.5677
1212.121, 670.1108
1212.603, 673.3882
1213.085, 678.1210
1213.568, 680.1995
1214.050, 677.5654
1214.532, 675.3216
1215.014, 678.7409
1215.496, 685.4619
1215.978, 690.0251
1216.460, 691.6544
1216.942, 687.6324
1217.425, 665.8390
1217.907, 654.5233
1218.389, 660.9230
1218.871, 673.8671
1219.353, 682.4790
1219.835, 686.9474
1220.317, 686.9849
1220.799, 682.9307
1221.281, 677.8986
1221.764, 668.3202
1222.246, 665.4537
1222.728, 675.2933
1223.210, 687.8151
1223.692, 683.6575
1224.174, 669.4152
1224.656, 663.2002
1225.138, 667.8611
1225.620, 673.4247
1226.103, 678.3151
1226.585, 680.5434
1227.067, 678.7565
1227.549, 674.7294
1228.031, 671.0903
1228.513, 668.6044
1228.995, 670.4584
1229.477, 679.0455
1229.960, 683.4886
1230.442, 677.2087
1230.924, 670.6416
1231.406, 667.6863
1231.888, 668.2216
1232.370, 674.7927
1232.852, 684.4850
1233.334, 688.8131
1233.816, 680.9267
1234.299, 677.4229
1234.781, 684.6353
1235.263, 691.8955
1235.745, 690.9020
1236.227, 685.0933
1236.709, 687.3546
1237.191, 694.4844
1237.673, 696.2863
1238.156, 681.2344
1238.638, 671.6999
1239.120, 671.1343
1239.602, 674.9438
1240.084, 681.6686
1240.566, 688.8784
1241.048, 687.1571
1241.530, 678.9355
1242.012, 675.4604
1242.495, 686.9708
1242.977, 695.3308
1243.459, 697.9359
1243.941, 696.7891
1244.423, 691.3088
1244.905, 684.6793
1245.387, 685.3741
1245.869, 692.8208
1246.351, 698.7621
1246.834, 702.1542
1247.316, 700.2302
1247.798, 690.1558
1248.280, 679.5602
1248.762, 679.8295
1249.244, 686.6951
1249.726, 693.1352
1250.208, 698.3757
1250.691, 701.2766
1251.173, 700.4467
1251.655, 700.2036
1252.137, 702.0130
1252.619, 704.0089
1253.101, 703.5986
1253.583, 701.2452
1254.065, 696.7291
1254.547, 689.4697
1255.030, 686.7778
1255.512, 690.5026
1255.994, 694.7711
1256.476, 697.7593
1256.958, 699.8016
##END=



