##NAMES=Trilithionite
##RRUFFID=R040105
##IDEAL CHEMISTRY=KLi_1.5_Al_1.5_(Si_3_Al)O_10_F_2_
##LOCALITY=Brown Derby mine, Ohio City, Gunnison County, Colorado, USA
##OWNER=RRUFF
##SOURCE=University of Arizona Mineral Museum
##DESCRIPTION=Purple hexagonal tablet
##STATUS=The identification of this mineral has been confirmed by X-ray diffraction and chemical analysis
##URL=rruff.info/R040105
##MEASURED CHEMISTRY=(K_0.82_Li_0.14_Na_0.04_)(Li_0.53_Al_0.42_Mn_0.05_)_3_(Si_0.84_Al_0.17_)_4_O_10_((OH)_0.59_F_0.41_)_2_
132.0585, 1019.827
132.5406, 1015.604
133.0227, 1008.365
133.5048, 990.3405
133.9869, 977.7004
134.4691, 975.2936
134.9512, 979.3857
135.4333, 984.0474
135.9154, 985.6843
136.3975, 984.3425
136.8796, 981.7340
137.3618, 977.0226
137.8439, 972.1091
138.3260, 967.0381
138.8081, 962.1416
139.2902, 959.3174
139.7723, 961.4053
140.2545, 968.2153
140.7366, 970.7492
141.2187, 967.0339
141.7008, 959.4888
142.1829, 949.3576
142.6650, 935.8926
143.1472, 923.7692
143.6293, 918.5579
144.1114, 918.9539
144.5935, 920.5126
145.0756, 922.2750
145.5577, 923.9370
146.0399, 924.5342
146.5220, 923.9764
147.0041, 921.9911
147.4862, 917.7204
147.9683, 911.3592
148.4504, 905.8268
148.9326, 905.0250
149.4147, 909.7348
149.8968, 910.8295
150.3789, 902.1574
150.8610, 892.0167
151.3431, 884.4462
151.8252, 880.4025
152.3074, 878.8022
152.7895, 878.1035
153.2716, 878.3043
153.7537, 879.5677
154.2358, 880.6926
154.7179, 883.1984
155.2001, 890.0410
155.6822, 902.5872
156.1643, 917.1274
156.6464, 922.1917
157.1285, 907.0327
157.6106, 893.7301
158.0928, 885.6742
158.5749, 880.5796
159.0570, 874.1932
159.5391, 863.4817
160.0212, 849.5684
160.5033, 846.1537
160.9855, 863.8785
161.4676, 879.6537
161.9497, 886.0091
162.4318, 884.2927
162.9139, 879.0339
163.3960, 872.4788
163.8782, 864.8157
164.3603, 864.6432
164.8424, 881.1221
165.3245, 897.3209
165.8066, 899.7926
166.2887, 888.1776
166.7709, 875.1475
167.2530, 873.1785
167.7351, 882.1863
168.2172, 888.7505
168.6993, 888.2955
169.1814, 885.9381
169.6636, 888.3627
170.1457, 897.1429
170.6278, 908.1622
171.1099, 917.8676
171.5920, 926.4714
172.0741, 934.1231
172.5563, 942.1376
173.0384, 949.3893
173.5205, 951.8535
174.0026, 946.0735
174.4847, 939.2686
174.9668, 936.7260
175.4490, 938.3545
175.9311, 943.7368
176.4132, 954.9877
176.8953, 971.9127
177.3774, 984.8550
177.8595, 990.9201
178.3417, 993.0992
178.8238, 992.1871
179.3059, 988.4635
179.7880, 984.2122
180.2701, 982.3071
180.7522, 983.5699
181.2344, 983.6711
181.7165, 982.1089
182.1986, 979.1417
182.6807, 974.6859
183.1628, 968.7486
183.6449, 961.6243
184.1271, 953.3853
184.6092, 942.2144
185.0913, 933.7674
185.5734, 930.2753
186.0555, 928.4089
186.5376, 925.5438
187.0198, 920.5972
187.5019, 914.0313
187.9840, 906.8342
188.4661, 897.2284
188.9482, 889.3760
189.4303, 885.5701
189.9125, 883.0058
190.3946, 878.4620
190.8767, 870.2048
191.3588, 858.8911
191.8409, 847.2817
192.3230, 831.0543
192.8052, 819.3465
193.2873, 815.9622
193.7694, 818.1705
194.2515, 821.8601
194.7336, 825.0624
195.2157, 827.3961
195.6979, 824.5373
196.1800, 811.0118
196.6621, 799.1484
197.1442, 793.6340
197.6263, 793.5899
198.1084, 796.0795
198.5906, 799.7647
199.0727, 804.3442
199.5548, 806.7797
200.0369, 810.2775
200.5190, 809.3127
201.0011, 795.8361
201.4833, 771.5436
201.9654, 752.0768
202.4475, 751.0872
202.9296, 767.0531
203.4117, 777.3105
203.8938, 777.9368
204.3760, 774.6791
204.8581, 771.9421
205.3402, 769.9522
205.8223, 768.7148
206.3044, 769.3411
206.7865, 770.9414
207.2687, 770.1365
207.7508, 764.5870
208.2329, 756.9293
208.7150, 749.8750
209.1971, 743.0022
209.6792, 738.9299
210.1614, 742.1736
210.6435, 750.0687
211.1256, 756.7144
211.6077, 760.4422
212.0898, 761.4113
212.5719, 758.6328
213.0541, 748.8928
213.5362, 742.0559
214.0183, 748.1653
214.5004, 762.5748
214.9825, 773.7460
215.4646, 774.1198
215.9468, 765.8811
216.4289, 757.4518
216.9110, 746.3958
217.3931, 739.3474
217.8752, 741.2347
218.3573, 749.7893
218.8395, 758.4634
219.3216, 762.4852
219.8037, 762.2531
220.2858, 763.0054
220.7679, 766.8949
221.2500, 769.3994
221.7322, 768.5519
222.2143, 764.6387
222.6964, 758.8235
223.1785, 750.2621
223.6606, 738.5753
224.1427, 732.6864
224.6249, 736.9968
225.1070, 743.8376
225.5891, 751.4586
226.0712, 759.2798
226.5533, 766.6925
227.0354, 773.7127
227.5176, 780.7806
227.9997, 784.0665
228.4818, 777.6102
228.9639, 772.2739
229.4460, 772.0100
229.9281, 777.0146
230.4103, 785.8401
230.8924, 798.6823
231.3745, 818.5662
231.8566, 828.5314
232.3387, 814.3995
232.8208, 803.0142
233.3030, 811.4865
233.7851, 837.5029
234.2672, 863.9849
234.7493, 870.2614
235.2314, 846.6143
235.7135, 838.3869
236.1957, 859.2577
236.6778, 881.6715
237.1599, 888.7050
237.6420, 880.5869
238.1241, 870.2578
238.6062, 873.2943
239.0884, 895.7998
239.5705, 911.8322
240.0526, 919.3207
240.5347, 923.2403
241.0168, 923.1093
241.4989, 920.6745
241.9811, 922.3194
242.4632, 936.9373
242.9453, 973.2084
243.4274, 994.7173
243.9095, 990.8932
244.3916, 982.4281
244.8738, 980.9103
245.3559, 988.4844
245.8380, 1002.344
246.3201, 1020.466
246.8022, 1047.121
247.2843, 1062.625
247.7665, 1057.565
248.2486, 1049.168
248.7307, 1049.191
249.2128, 1059.242
249.6949, 1074.327
250.1770, 1089.146
250.6592, 1103.683
251.1413, 1117.843
251.6234, 1131.758
252.1055, 1145.217
252.5876, 1157.883
253.0697, 1169.730
253.5519, 1181.809
254.0340, 1195.791
254.5161, 1213.268
254.9982, 1224.328
255.4803, 1223.641
255.9624, 1220.180
256.4445, 1219.475
256.9267, 1222.635
257.4088, 1230.367
257.8909, 1244.597
258.3730, 1267.531
258.8551, 1285.074
259.3372, 1295.349
259.8194, 1301.401
260.3015, 1304.777
260.7836, 1305.869
261.2657, 1306.063
261.7478, 1306.860
262.2299, 1308.447
262.7121, 1308.192
263.1942, 1306.081
263.6763, 1302.121
264.1584, 1296.650
264.6405, 1289.631
265.1227, 1279.910
265.6048, 1265.758
266.0869, 1246.678
266.5690, 1229.245
267.0511, 1218.063
267.5332, 1205.510
268.0154, 1182.910
268.4975, 1150.222
268.9796, 1118.083
269.4617, 1095.019
269.9438, 1081.464
270.4259, 1070.649
270.9081, 1070.352
271.3902, 1067.203
271.8723, 1047.168
272.3544, 1010.397
272.8365, 973.4315
273.3186, 947.8314
273.8008, 933.8257
274.2829, 922.3508
274.7650, 917.0678
275.2471, 911.4810
275.7292, 898.9814
276.2113, 880.1385
276.6935, 862.9392
277.1756, 853.2836
277.6577, 850.4619
278.1398, 846.6980
278.6219, 842.8517
279.1040, 837.3654
279.5862, 827.5237
280.0683, 814.0148
280.5504, 802.6407
281.0325, 798.1859
281.5146, 798.6059
281.9967, 794.8065
282.4789, 782.0131
282.9610, 769.4055
283.4431, 764.0637
283.9252, 764.7025
284.4073, 763.8528
284.8894, 756.7782
285.3716, 745.7868
285.8537, 738.2851
286.3358, 736.0138
286.8179, 734.8705
287.3000, 733.1084
287.7821, 730.7211
288.2643, 727.7186
288.7464, 724.0627
289.2285, 719.7347
289.7106, 714.4706
290.1927, 706.3765
290.6748, 700.6911
291.1570, 702.3375
291.6391, 708.8062
292.1212, 712.0438
292.6033, 708.1133
293.0854, 700.3632
293.5675, 695.3423
294.0497, 692.7552
294.5318, 692.6313
295.0139, 697.8449
295.4960, 705.5131
295.9781, 708.0558
296.4602, 701.5947
296.9424, 692.0556
297.4245, 691.0980
297.9066, 700.6997
298.3887, 707.2090
298.8708, 704.3144
299.3529, 695.9200
299.8351, 688.6245
300.3172, 684.1165
300.7993, 681.1054
301.2814, 678.0445
301.7635, 674.9925
302.2456, 671.6198
302.7278, 666.1673
303.2099, 660.9636
303.6920, 660.0090
304.1741, 664.4138
304.6562, 669.9736
305.1383, 671.6648
305.6205, 669.2299
306.1026, 667.8334
306.5847, 668.9282
307.0668, 670.9587
307.5489, 673.5903
308.0310, 676.7481
308.5132, 676.7665
308.9953, 668.7641
309.4774, 652.3764
309.9595, 640.3375
310.4416, 634.0429
310.9237, 631.6156
311.4059, 633.2088
311.8880, 638.2804
312.3701, 642.9193
312.8522, 644.2014
313.3343, 642.0968
313.8164, 610.3995
314.2986, 644.3179
314.7807, 662.2045
315.2628, 664.9203
315.7449, 607.0267
316.2270, 627.3975
316.7091, 616.4034
317.1913, 604.1227
317.6734, 635.5089
318.1555, 586.4309
318.6376, 617.1245
319.1197, 615.9747
319.6018, 629.3988
320.0840, 611.2639
320.5661, 602.8771
321.0482, 626.0588
321.5303, 631.7606
322.0124, 609.9935
322.4945, 624.3440
322.9767, 574.1630
323.4588, 580.6094
323.9409, 611.4879
324.4230, 591.3073
324.9051, 579.2808
325.3872, 581.5562
325.8694, 590.7693
326.3515, 596.8704
326.8336, 598.2690
327.3157, 596.6033
327.7978, 591.9827
328.2799, 584.7459
328.7621, 578.6422
329.2442, 579.4443
329.7263, 592.5116
330.2084, 598.8497
330.6905, 593.1519
331.1726, 584.8699
331.6548, 580.9984
332.1369, 582.1190
332.6190, 584.1431
333.1011, 582.7784
333.5832, 577.1818
334.0653, 572.8680
334.5475, 568.9003
335.0296, 566.7620
335.5117, 568.3552
335.9938, 572.6513
336.4759, 576.9871
336.9580, 579.6207
337.4402, 580.5225
337.9223, 577.2363
338.4044, 562.2417
338.8865, 551.3445
339.3686, 551.4460
339.8507, 558.1220
340.3329, 563.6813
340.8150, 563.7271
341.2971, 559.3871
341.7792, 555.5635
342.2613, 554.3878
342.7434, 550.9070
343.2256, 540.8017
343.7077, 529.7629
344.1898, 524.2887
344.6719, 526.8875
345.1540, 534.4462
345.6361, 541.2686
346.1183, 549.0169
346.6004, 552.3599
347.0825, 548.7909
347.5646, 543.0027
348.0467, 538.0807
348.5288, 534.7725
349.0110, 532.0751
349.4931, 528.1858
349.9752, 521.9206
350.4573, 519.1755
350.9394, 521.9802
351.4215, 526.8085
351.9037, 534.4897
352.3858, 543.4728
352.8679, 549.1955
353.3500, 546.0295
353.8321, 534.3651
354.3142, 527.1154
354.7964, 524.7318
355.2785, 526.9218
355.7606, 536.9912
356.2427, 550.9665
356.7248, 561.2150
357.2069, 562.6070
357.6891, 557.8044
358.1712, 553.9017
358.6533, 550.4695
359.1354, 548.9808
359.6175, 551.6612
360.0996, 555.8594
360.5818, 558.2580
361.0639, 557.1693
361.5460, 555.5351
362.0281, 558.3565
362.5102, 566.4293
362.9923, 571.7809
363.4745, 569.9493
363.9566, 565.3494
364.4387, 561.5970
364.9208, 558.8339
365.4029, 558.4459
365.8850, 563.1099
366.3672, 571.6954
366.8493, 578.2234
367.3314, 581.5255
367.8135, 582.0809
368.2956, 578.8405
368.7777, 572.1926
369.2599, 568.5905
369.7420, 574.1735
370.2241, 583.5229
370.7062, 586.7737
371.1883, 582.1113
371.6704, 575.5457
372.1526, 570.4053
372.6347, 567.2134
373.1168, 568.9702
373.5989, 581.1694
374.0810, 594.6812
374.5631, 601.8843
375.0453, 603.1125
375.5274, 602.8399
376.0095, 603.5502
376.4916, 604.8370
376.9737, 604.9822
377.4558, 601.7674
377.9380, 600.0485
378.4201, 602.4622
378.9022, 607.5148
379.3843, 612.7493
379.8664, 617.3761
380.3485, 620.7916
380.8307, 621.3763
381.3128, 615.9653
381.7949, 613.6472
382.2770, 617.1797
382.7591, 622.8578
383.2412, 627.5660
383.7234, 630.5797
384.2055, 632.2772
384.6876, 632.8904
385.1697, 631.8878
385.6518, 632.1522
386.1339, 634.9405
386.6161, 637.6072
387.0982, 638.4766
387.5803, 638.0394
388.0624, 637.8094
388.5445, 638.8121
389.0266, 641.0447
389.5088, 644.4667
389.9909, 652.4534
390.4730, 657.6522
390.9551, 656.3309
391.4372, 652.3565
391.9193, 650.4169
392.4015, 652.5410
392.8836, 657.5986
393.3657, 664.0236
393.8478, 673.6699
394.3299, 679.8510
394.8120, 676.5320
395.2942, 673.2339
395.7763, 678.9083
396.2584, 693.8959
396.7405, 707.5077
397.2226, 706.1729
397.7047, 689.7400
398.1869, 681.0265
398.6690, 684.1305
399.1511, 692.6240
399.6332, 705.1783
400.1153, 719.9344
400.5974, 732.0003
401.0796, 739.1667
401.5617, 741.7952
402.0438, 739.1251
402.5259, 729.2749
403.0080, 721.6087
403.4901, 723.8420
403.9723, 730.8113
404.4544, 734.6041
404.9365, 732.1949
405.4186, 729.1851
405.9007, 731.4474
406.3828, 737.7562
406.8650, 741.0067
407.3471, 737.6031
407.8292, 731.3766
408.3113, 729.1578
408.7934, 732.0232
409.2755, 732.9190
409.7577, 728.7552
410.2398, 721.7148
410.7219, 714.6288
411.2040, 708.0206
411.6861, 701.0483
412.1682, 692.0641
412.6504, 680.4980
413.1325, 674.6402
413.6146, 681.1107
414.0967, 687.0036
414.5788, 684.6572
415.0609, 675.4573
415.5431, 664.2668
416.0252, 653.5978
416.5073, 644.0323
416.9894, 638.1915
417.4715, 640.0049
417.9536, 640.9011
418.4358, 639.7344
418.9179, 637.4147
419.4000, 635.2634
419.8821, 633.5895
420.3642, 631.1731
420.8463, 625.7155
421.3285, 615.4322
421.8106, 607.0951
422.2927, 600.4113
422.7748, 595.8192
423.2569, 595.4855
423.7390, 597.9105
424.2212, 598.2576
424.7033, 590.9884
425.1854, 578.3193
425.6675, 575.0679
426.1496, 588.2604
426.6317, 599.0175
427.1139, 599.0514
427.5960, 593.2422
428.0781, 586.9264
428.5602, 581.0513
429.0423, 577.7411
429.5244, 582.2452
430.0066, 594.8558
430.4887, 601.5546
430.9708, 594.1654
431.4529, 583.1337
431.9350, 581.1389
432.4171, 588.7156
432.8993, 595.2601
433.3814, 592.3482
433.8635, 585.8779
434.3456, 588.7867
434.8277, 603.9764
435.3098, 618.2189
435.7920, 619.1818
436.2741, 607.7375
436.7562, 600.0991
437.2383, 599.9437
437.7204, 600.8348
438.2025, 598.4909
438.6847, 594.0109
439.1668, 590.7125
439.6489, 590.1445
440.1310, 591.9914
440.6131, 595.5259
441.0952, 605.1617
441.5774, 610.2227
442.0595, 606.2070
442.5416, 599.7816
443.0237, 596.4794
443.5058, 597.4817
443.9879, 601.5795
444.4701, 608.2496
444.9522, 618.5121
445.4343, 623.8439
445.9164, 621.5425
446.3985, 616.9092
446.8806, 608.4124
447.3628, 599.1373
447.8449, 595.2379
448.3270, 601.3351
448.8091, 611.5457
449.2912, 609.3246
449.7733, 588.0929
450.2555, 572.8383
450.7376, 576.1565
451.2197, 584.1174
451.7018, 585.7358
452.1839, 579.3041
452.6660, 573.1232
453.1482, 575.4831
453.6303, 584.2316
454.1124, 589.0656
454.5945, 587.8973
455.0766, 584.8043
455.5587, 583.1064
456.0409, 582.2396
456.5230, 580.4540
457.0051, 576.1478
457.4872, 571.6669
457.9693, 569.9751
458.4514, 570.3935
458.9336, 568.7563
459.4156, 562.4727
459.8978, 553.6418
460.3799, 547.9750
460.8620, 546.2950
461.3441, 545.5692
461.8262, 544.1415
462.3083, 544.0082
462.7905, 548.9887
463.2726, 559.0391
463.7547, 568.3210
464.2368, 570.5245
464.7189, 564.7671
465.2010, 559.5348
465.6832, 553.9095
466.1653, 549.7781
466.6474, 548.0870
467.1295, 548.2565
467.6116, 549.2205
468.0938, 550.4167
468.5759, 552.3254
469.0580, 556.8644
469.5401, 566.4814
470.0222, 571.7552
470.5043, 566.7032
470.9865, 559.9368
471.4686, 557.3931
471.9507, 559.2093
472.4328, 560.5023
472.9149, 556.2029
473.3970, 548.2925
473.8792, 543.9949
474.3613, 544.0493
474.8434, 546.4486
475.3255, 551.3802
475.8076, 557.6186
476.2897, 562.9690
476.7719, 569.8268
477.2540, 572.2388
477.7361, 560.6332
478.2182, 540.6353
478.7003, 531.1873
479.1824, 540.6201
479.6646, 556.3975
480.1467, 558.0513
480.6288, 538.9241
481.1109, 526.8922
481.5930, 530.7288
482.0751, 536.3260
482.5573, 532.6354
483.0394, 520.6725
483.5215, 508.5147
484.0036, 502.0420
484.4857, 500.3114
484.9678, 497.0316
485.4500, 489.9847
485.9321, 484.3341
486.4142, 479.8583
486.8963, 477.5095
487.3784, 480.0074
487.8605, 487.4148
488.3427, 493.7116
488.8248, 490.6725
489.3069, 477.7982
489.7890, 467.2875
490.2711, 460.2723
490.7532, 455.0992
491.2354, 449.5807
491.7175, 444.9272
492.1996, 444.3691
492.6817, 453.5240
493.1638, 462.8662
493.6459, 457.9295
494.1281, 439.9842
494.6102, 427.1123
495.0923, 426.8490
495.5744, 434.3373
496.0565, 442.3364
496.5386, 451.8767
497.0208, 457.9587
497.5029, 459.4543
497.9850, 456.9335
498.4671, 448.4252
498.9492, 435.1101
499.4313, 424.1235
499.9135, 421.5781
500.3956, 426.7803
500.8777, 430.3663
501.3598, 432.1947
501.8419, 432.5373
502.3240, 431.7744
502.8062, 429.3656
503.2883, 423.8934
503.7704, 415.2068
504.2525, 406.0094
504.7346, 399.1723
505.2167, 394.5667
505.6989, 393.7212
506.1810, 398.7459
506.6631, 405.3622
507.1452, 413.9285
507.6273, 422.3411
508.1094, 425.6061
508.5916, 418.3547
509.0737, 409.0144
509.5558, 410.9502
510.0379, 423.6818
510.5200, 433.4734
511.0021, 435.5526
511.4843, 432.4744
511.9664, 427.2513
512.4485, 419.4755
512.9306, 412.8692
513.4127, 406.9360
513.8948, 403.5424
514.3770, 407.0998
514.8591, 416.3876
515.3412, 422.4166
515.8233, 417.9691
516.3054, 405.4534
516.7875, 400.4684
517.2697, 411.0729
517.7518, 419.4424
518.2339, 423.6319
518.7160, 425.0014
519.1981, 424.2407
519.6802, 421.8438
520.1624, 419.1779
520.6445, 417.7322
521.1266, 417.5320
521.6087, 417.4573
522.0908, 417.1749
522.5729, 417.5545
523.0551, 418.2937
523.5372, 420.0153
524.0193, 424.2348
524.5014, 432.6845
524.9835, 440.7585
525.4656, 442.7935
525.9478, 440.0112
526.4299, 438.7288
526.9120, 440.4512
527.3941, 444.3921
527.8762, 451.3008
528.3583, 461.5154
528.8405, 466.1472
529.3226, 460.2221
529.8047, 452.1563
530.2868, 445.9764
530.7689, 442.1976
531.2510, 441.0137
531.7332, 442.5246
532.2153, 446.6674
532.6974, 453.9386
533.1795, 470.3706
533.6616, 478.5934
534.1437, 472.3542
534.6259, 463.9298
535.1080, 460.4253
535.5901, 461.8292
536.0722, 464.8060
536.5543, 467.1773
537.0364, 469.2566
537.5186, 472.0531
538.0007, 475.7519
538.4828, 479.5439
538.9649, 483.8868
539.4470, 487.6557
539.9291, 489.7393
540.4113, 490.1049
540.8934, 488.5105
541.3755, 481.1956
541.8576, 473.2320
542.3397, 473.9005
542.8218, 484.0056
543.3040, 495.5797
543.7861, 503.2115
544.2682, 507.1306
544.7503, 509.0942
545.2324, 506.4828
545.7145, 505.4565
546.1967, 508.0917
546.6788, 512.4421
547.1609, 516.2256
547.6430, 519.0293
548.1251, 522.4781
548.6072, 529.5995
549.0894, 540.7506
549.5715, 544.1797
550.0536, 532.7493
550.5357, 523.8020
551.0178, 525.1068
551.4999, 531.8870
551.9821, 537.7574
552.4642, 540.8251
552.9463, 543.0007
553.4284, 545.5454
553.9105, 548.5911
554.3926, 552.8154
554.8748, 558.5614
555.3569, 564.7356
555.8390, 570.8647
556.3211, 576.8209
556.8032, 580.2943
557.2853, 579.1741
557.7675, 577.7440
558.2496, 577.1042
558.7317, 577.7218
559.2138, 581.1571
559.6959, 587.8262
560.1780, 594.6776
560.6602, 596.7397
561.1423, 592.5693
561.6244, 589.4153
562.1065, 587.4354
562.5886, 586.4330
563.0707, 587.8036
563.5529, 589.8672
564.0350, 589.6598
564.5171, 585.7371
564.9992, 579.5904
565.4813, 571.7529
565.9634, 562.5328
566.4456, 557.9107
566.9277, 561.8613
567.4098, 566.1050
567.8919, 559.5654
568.3740, 543.6459
568.8561, 531.9904
569.3383, 529.4672
569.8204, 529.0903
570.3025, 526.5215
570.7846, 522.4285
571.2667, 519.3497
571.7488, 518.4106
572.2310, 517.4327
572.7131, 512.2881
573.1952, 500.8252
573.6773, 490.9129
574.1594, 481.4130
574.6415, 474.4763
575.1237, 473.3251
575.6058, 475.2668
576.0879, 474.7444
576.5700, 468.7574
577.0521, 459.9070
577.5342, 450.8017
578.0164, 441.4377
578.4985, 436.9059
578.9806, 440.6920
579.4627, 446.2654
579.9448, 447.0411
580.4269, 443.4996
580.9091, 438.1932
581.3912, 428.1778
581.8733, 419.6454
582.3554, 418.9548
582.8375, 423.1253
583.3196, 423.8102
583.8018, 417.4146
584.2839, 408.4054
584.7660, 404.9376
585.2481, 410.1978
585.7302, 411.9276
586.2123, 407.4376
586.6945, 402.3270
587.1766, 398.0677
587.6587, 395.0320
588.1408, 393.4807
588.6229, 393.5504
589.1050, 395.0943
589.5872, 398.4102
590.0693, 403.4366
590.5514, 408.4095
591.0335, 414.2222
591.5156, 417.6363
591.9977, 413.4290
592.4799, 402.8137
592.9620, 394.8796
593.4441, 391.0454
593.9262, 390.0201
594.4083, 393.9547
594.8904, 399.6957
595.3726, 399.7724
595.8547, 391.6974
596.3368, 382.1809
596.8189, 381.6902
597.3010, 392.9614
597.7831, 400.0872
598.2653, 399.0360
598.7474, 397.8520
599.2295, 399.7423
599.7116, 402.8976
600.1937, 404.0354
600.6758, 401.6113
601.1580, 398.9399
601.6401, 400.5001
602.1222, 405.1725
602.6043, 406.7168
603.0864, 403.1767
603.5685, 400.3593
604.0507, 404.8844
604.5328, 415.3630
605.0149, 418.3944
605.4970, 406.1852
605.9791, 395.7504
606.4612, 393.5659
606.9434, 396.2378
607.4255, 400.2518
607.9076, 404.3818
608.3897, 407.8123
608.8718, 409.6253
609.3539, 409.8401
609.8361, 409.3653
610.3182, 408.1592
610.8003, 406.2882
611.2824, 402.3995
611.7645, 398.6270
612.2466, 397.6910
612.7288, 400.2406
613.2109, 402.9065
613.6930, 402.8223
614.1751, 401.5764
614.6572, 402.7739
615.1393, 406.6203
615.6215, 409.1872
616.1036, 407.8436
616.5857, 403.5379
617.0678, 399.6614
617.5499, 394.5443
618.0320, 392.2383
618.5142, 396.6915
618.9963, 401.1176
619.4784, 399.3954
619.9605, 392.4673
620.4426, 385.7643
620.9247, 383.1149
621.4069, 383.1607
621.8890, 382.1693
622.3711, 379.7947
622.8532, 378.4838
623.3353, 379.4675
623.8174, 381.1680
624.2996, 382.1855
624.7817, 382.5313
625.2638, 382.1203
625.7459, 380.8557
626.2280, 378.8932
626.7101, 375.7028
627.1923, 371.9265
627.6744, 369.1658
628.1565, 368.0766
628.6386, 367.9843
629.1207, 367.8717
629.6028, 367.6906
630.0850, 367.6841
630.5671, 369.3756
631.0492, 369.6031
631.5313, 366.6760
632.0134, 361.8241
632.4955, 356.3427
632.9777, 350.2355
633.4598, 346.1116
633.9419, 348.5234
634.4240, 355.1246
634.9061, 357.0219
635.3882, 352.3442
635.8704, 348.7478
636.3525, 353.3856
636.8346, 364.1176
637.3167, 367.0017
637.7988, 354.4304
638.2809, 345.2151
638.7631, 344.2274
639.2452, 346.7544
639.7273, 349.2110
640.2094, 350.7914
640.6915, 351.5264
641.1736, 351.0750
641.6558, 350.1269
642.1379, 351.7678
642.6200, 357.1171
643.1021, 360.0631
643.5842, 357.6609
644.0663, 353.2041
644.5485, 349.9352
645.0306, 347.8420
645.5127, 346.6609
645.9948, 346.1765
646.4769, 346.6967
646.9590, 349.2217
647.4412, 352.9203
647.9233, 355.9342
648.4054, 357.5288
648.8875, 357.7295
649.3696, 355.9918
649.8517, 351.2190
650.3339, 350.2869
650.8160, 357.3869
651.2981, 363.4157
651.7802, 365.3397
652.2623, 364.4537
652.7444, 361.5480
653.2266, 356.0851
653.7087, 353.8063
654.1908, 363.8051
654.6729, 379.1719
655.1550, 383.3862
655.6371, 374.8297
656.1193, 364.8359
656.6014, 360.1725
657.0835, 360.2192
657.5656, 362.6866
658.0477, 371.0982
658.5298, 377.1214
659.0120, 380.7167
659.4941, 381.9297
659.9762, 378.6875
660.4583, 372.9651
660.9404, 370.3322
661.4225, 374.6799
661.9047, 382.1989
662.3868, 386.3343
662.8689, 387.2053
663.3510, 388.3176
663.8331, 391.0060
664.3152, 392.6978
664.7974, 389.3089
665.2795, 381.3942
665.7616, 379.2964
666.2437, 387.5343
666.7258, 396.6198
667.2079, 404.0745
667.6901, 409.9388
668.1722, 414.2169
668.6543, 417.0032
669.1364, 418.8068
669.6185, 420.1506
670.1006, 420.9211
670.5828, 419.4261
671.0649, 413.4684
671.5470, 412.8010
672.0291, 426.0637
672.5112, 441.9146
672.9933, 446.5844
673.4755, 439.5643
673.9576, 433.7967
674.4397, 432.4312
674.9218, 434.1628
675.4039, 439.4005
675.8860, 446.7633
676.3682, 453.0052
676.8503, 456.8636
677.3324, 460.5317
677.8145, 467.8272
678.2966, 479.6768
678.7787, 487.3528
679.2609, 486.5240
679.7430, 487.9084
680.2251, 498.4336
680.7072, 512.0867
681.1893, 520.3613
681.6714, 520.9971
682.1536, 522.8336
682.6357, 531.3457
683.1178, 543.5757
683.5999, 556.5476
684.0820, 569.6522
684.5641, 581.2398
685.0463, 590.3724
685.5284, 597.8764
686.0105, 605.1306
686.4926, 609.8338
686.9747, 619.7540
687.4568, 641.4387
687.9390, 661.8666
688.4211, 670.7401
688.9032, 675.5880
689.3853, 691.9479
689.8674, 727.6997
690.3495, 765.1448
690.8317, 787.6554
691.3138, 801.2645
691.7959, 818.1436
692.2780, 839.9222
692.7601, 867.5334
693.2422, 902.5685
693.7244, 942.4684
694.2065, 976.9390
694.6886, 1000.407
695.1707, 1027.175
695.6528, 1057.682
696.1349, 1091.365
696.6171, 1127.473
697.0992, 1166.613
697.5813, 1209.718
698.0634, 1257.625
698.5455, 1308.861
699.0276, 1364.228
699.5098, 1421.681
699.9919, 1473.052
700.4740, 1516.186
700.9561, 1558.926
701.4382, 1607.219
701.9203, 1660.838
702.4025, 1717.986
702.8846, 1784.885
703.3667, 1847.090
703.8488, 1900.112
704.3309, 1950.749
704.8130, 2007.835
705.2952, 2068.197
705.7773, 2120.057
706.2594, 2155.014
706.7415, 2180.364
707.2236, 2209.453
707.7057, 2239.687
708.1879, 2255.138
708.6700, 2252.132
709.1521, 2233.960
709.6342, 2201.345
710.1163, 2154.848
710.5984, 2110.667
711.0806, 2082.293
711.5627, 2038.301
712.0448, 1964.979
712.5269, 1880.812
713.0090, 1799.665
713.4911, 1723.289
713.9733, 1647.842
714.4554, 1570.819
714.9375, 1494.079
715.4196, 1422.351
715.9017, 1354.716
716.3839, 1281.246
716.8660, 1197.214
717.3481, 1117.908
717.8302, 1058.802
718.3123, 1020.066
718.7944, 980.9042
719.2766, 937.0930
719.7587, 898.1241
720.2408, 868.2923
720.7229, 841.9708
721.2050, 815.0656
721.6871, 786.6511
722.1693, 756.3653
722.6514, 721.6969
723.1335, 687.1754
723.6156, 660.5389
724.0977, 641.1901
724.5798, 624.4224
725.0620, 609.3295
725.5441, 595.0405
726.0262, 580.9017
726.5083, 566.8835
726.9904, 551.7612
727.4725, 534.9373
727.9547, 517.7011
728.4368, 495.7269
728.9189, 476.6715
729.4010, 469.8661
729.8831, 473.7600
730.3652, 476.7572
730.8474, 471.7398
731.3295, 462.1127
731.8116, 450.7424
732.2937, 438.6101
732.7758, 431.6417
733.2579, 431.8525
733.7401, 433.1362
734.2222, 429.2575
734.7043, 420.4923
735.1864, 413.1852
735.6685, 408.6588
736.1506, 403.9184
736.6328, 397.5659
737.1149, 391.7178
737.5970, 388.0704
738.0791, 386.5777
738.5612, 386.2610
739.0433, 387.3557
739.5255, 388.4733
740.0076, 387.7303
740.4897, 385.6793
740.9718, 384.0587
741.4539, 383.2646
741.9360, 382.8802
742.4182, 382.6516
742.9003, 382.4790
743.3824, 381.5454
743.8645, 380.0869
744.3466, 377.4169
744.8287, 370.0245
745.3109, 364.3979
745.7930, 366.7503
746.2751, 375.0170
746.7572, 380.8514
747.2393, 379.7842
747.7214, 377.2408
748.2036, 379.3721
748.6857, 382.7358
749.1678, 378.5998
749.6499, 366.4677
750.1320, 356.5161
750.6141, 356.9181
751.0963, 365.0130
751.5784, 370.2549
752.0605, 371.6862
752.5426, 373.0076
753.0247, 375.9590
753.5068, 377.4595
753.9890, 375.6713
754.4711, 371.0434
754.9532, 364.5378
755.4353, 354.0796
755.9174, 345.9106
756.3995, 343.5085
756.8817, 344.9533
757.3638, 350.0585
757.8459, 357.1787
758.3280, 360.9784
758.8101, 357.9638
759.2922, 350.7433
759.7744, 344.5367
760.2565, 339.4145
760.7386, 334.7926
761.2207, 330.4314
761.7028, 326.9876
762.1849, 326.1106
762.6671, 326.1710
763.1492, 322.6306
763.6313, 312.3254
764.1134, 305.5741
764.5955, 306.5226
765.0776, 310.2917
765.5598, 316.1012
766.0419, 321.3095
766.5240, 319.5390
767.0061, 307.8029
767.4882, 295.5572
767.9703, 298.0085
768.4525, 311.5374
768.9346, 314.3350
769.4167, 303.7350
769.8988, 295.0528
770.3809, 296.6786
770.8630, 303.7870
771.3452, 306.9883
771.8273, 304.6300
772.3094, 303.0739
772.7915, 303.7366
773.2736, 303.5875
773.7557, 300.6805
774.2379, 296.5641
774.7200, 292.9590
775.2021, 290.3328
775.6842, 289.2834
776.1663, 291.6949
776.6484, 295.1895
777.1306, 295.2873
777.6127, 292.6830
778.0948, 291.5084
778.5769, 293.2974
779.0590, 296.2704
779.5411, 298.4892
780.0233, 299.9803
780.5054, 299.0501
780.9875, 292.2293
781.4696, 288.7698
781.9517, 294.4408
782.4338, 301.5860
782.9160, 304.3213
783.3981, 302.5988
783.8802, 299.2076
784.3623, 293.4655
784.8444, 288.0658
785.3265, 283.7541
785.8087, 281.3180
786.2908, 283.9321
786.7729, 290.8214
787.2550, 294.4463
787.7371, 287.9337
788.2192, 275.8080
788.7014, 271.9858
789.1835, 277.5107
789.6656, 280.8813
790.1477, 279.7570
790.6298, 276.9741
791.1119, 273.7735
791.5941, 270.6606
792.0762, 269.8706
792.5583, 274.4920
793.0404, 276.4759
793.5225, 272.5748
794.0046, 267.4732
794.4868, 264.5713
794.9689, 263.1902
795.4510, 260.5077
795.9331, 255.0143
796.4152, 250.6392
796.8973, 253.0135
797.3795, 259.3866
797.8616, 262.9417
798.3437, 263.2256
798.8258, 261.7259
799.3079, 259.0028
799.7900, 255.5098
800.2722, 251.6341
800.7543, 246.2670
801.2364, 245.8914
801.7185, 257.9065
802.2006, 264.7227
802.6827, 256.2368
803.1649, 242.7964
803.6470, 236.0998
804.1291, 237.2731
804.6112, 237.9526
805.0933, 233.5097
805.5754, 228.9040
806.0576, 228.0434
806.5397, 229.5925
807.0218, 231.2740
807.5039, 232.4698
807.9860, 233.4801
808.4681, 234.6381
808.9503, 235.7552
809.4324, 236.5370
809.9145, 237.0739
810.3966, 235.1988
810.8787, 229.2232
811.3608, 223.9441
811.8430, 223.7923
812.3251, 228.0852
812.8072, 231.8440
813.2893, 238.6684
813.7714, 239.8400
814.2535, 228.3798
814.7357, 216.8404
815.2178, 214.0842
815.6999, 217.7713
816.1820, 221.2587
816.6641, 222.1670
817.1462, 222.3565
817.6284, 223.7871
818.1105, 225.2679
818.5926, 224.6080
819.0747, 221.9694
819.5568, 218.6663
820.0389, 215.2394
820.5211, 212.6395
821.0032, 212.7205
821.4853, 215.6901
821.9674, 218.0514
822.4495, 220.3984
822.9316, 220.4703
823.4138, 215.2015
823.8959, 209.0605
824.3780, 208.3321
824.8601, 213.0882
825.3422, 216.9733
825.8243, 220.2839
826.3065, 221.4271
826.7886, 217.3787
827.2707, 212.3969
827.7528, 211.2187
828.2349, 213.9825
828.7170, 217.8134
829.1992, 221.9097
829.6813, 224.5120
830.1633, 221.3972
830.6454, 214.8062
831.1276, 212.9080
831.6097, 216.7895
832.0918, 220.4759
832.5739, 219.7948
833.0560, 216.3683
833.5381, 214.7873
834.0203, 215.8796
834.5024, 215.8861
834.9845, 213.5530
835.4666, 211.7607
835.9487, 212.8149
836.4308, 214.9286
836.9130, 215.2065
837.3951, 212.9365
837.8772, 211.8901
838.3593, 214.5380
838.8414, 217.0730
839.3235, 216.1456
839.8057, 214.0541
840.2878, 215.4663
840.7699, 220.7456
841.2520, 223.9544
841.7341, 218.0844
842.2162, 208.9146
842.6984, 208.4762
843.1805, 214.8503
843.6626, 217.5251
844.1447, 213.9255
844.6268, 210.4767
845.1089, 212.9985
845.5911, 219.7905
846.0732, 222.9729
846.5553, 221.1955
847.0374, 219.3823
847.5195, 217.4250
848.0016, 216.1704
848.4838, 216.5472
848.9659, 217.8283
849.4480, 218.6824
849.9301, 219.0544
850.4122, 218.8376
850.8943, 217.5923
851.3765, 216.1470
851.8586, 214.9491
852.3407, 214.0000
852.8228, 213.1671
853.3049, 212.4394
853.7870, 212.1179
854.2692, 213.0512
854.7513, 214.2775
855.2334, 213.2192
855.7155, 210.6022
856.1976, 210.5793
856.6797, 214.3046
857.1619, 217.8482
857.6440, 217.3896
858.1261, 213.8348
858.6082, 212.0442
859.0903, 212.3405
859.5724, 213.4746
860.0546, 216.3794
860.5367, 218.5940
861.0188, 217.9199
861.5009, 215.4378
861.9830, 213.7022
862.4651, 212.8643
862.9473, 212.5884
863.4294, 213.4541
863.9115, 214.2180
864.3936, 213.8544
864.8757, 212.9941
865.3578, 212.9429
865.8400, 213.9506
866.3221, 214.4408
866.8042, 212.8602
867.2863, 210.3632
867.7684, 207.9794
868.2505, 206.0422
868.7327, 205.5027
869.2148, 206.5709
869.6969, 209.0149
870.1790, 213.1548
870.6611, 217.6823
871.1432, 217.3751
871.6254, 211.4652
872.1075, 206.8143
872.5896, 204.3335
873.0717, 203.1881
873.5538, 203.0691
874.0359, 203.7927
874.5181, 204.8642
875.0002, 206.3412
875.4823, 208.0808
875.9644, 210.7653
876.4465, 212.9293
876.9286, 213.7793
877.4108, 213.8730
877.8929, 214.2830
878.3750, 215.0701
878.8571, 214.3126
879.3392, 209.2939
879.8214, 204.1431
880.3035, 201.9635
880.7856, 201.9869
881.2677, 203.2156
881.7498, 205.2886
882.2319, 208.0250
882.7141, 211.6437
883.1962, 208.4155
883.6783, 216.0689
884.1604, 220.5160
884.6425, 221.9289
885.1246, 211.2198
885.6068, 216.1638
886.0889, 214.8347
886.5710, 213.2484
887.0531, 220.3954
887.5352, 211.4495
888.0173, 218.4579
888.4995, 219.0978
888.9816, 222.6524
889.4637, 219.8952
889.9458, 219.0876
890.4279, 224.5936
890.9100, 226.6037
891.3922, 223.1201
891.8743, 226.8600
892.3564, 217.6936
892.8385, 219.8526
893.3206, 226.8980
893.8027, 223.7316
894.2849, 227.5870
894.7670, 219.3859
895.2491, 219.1175
895.7312, 219.4174
896.2133, 218.9608
896.6954, 217.6936
897.1776, 214.5989
897.6597, 210.5476
898.1418, 208.3252
898.6239, 208.9437
899.1060, 212.2592
899.5881, 219.7542
900.0703, 229.2154
900.5524, 228.6004
901.0345, 217.2419
901.5166, 211.0802
901.9987, 214.4104
902.4808, 221.2278
902.9630, 227.8563
903.4451, 233.4002
903.9272, 233.7496
904.4093, 224.5306
904.8914, 219.2223
905.3735, 219.6665
905.8557, 222.3064
906.3378, 227.7545
906.8199, 233.4576
907.3020, 235.2503
907.7841, 232.3804
908.2662, 230.2761
908.7484, 231.4795
909.2305, 232.2883
909.7126, 228.9391
910.1947, 225.4196
910.6768, 227.7591
911.1589, 235.1013
911.6411, 240.2128
912.1232, 238.0000
912.6053, 234.8847
913.0874, 237.8963
913.5695, 244.1325
914.0516, 250.1870
914.5338, 254.6999
915.0159, 253.4515
915.4980, 244.4103
915.9801, 233.7080
916.4622, 229.8267
916.9443, 231.8963
917.4265, 235.0677
917.9086, 239.4786
918.3907, 240.6735
918.8728, 236.5072
919.3549, 232.4097
919.8370, 234.3251
920.3192, 240.8271
920.8013, 241.8529
921.2834, 233.6250
921.7655, 229.1803
922.2476, 232.9422
922.7297, 236.4044
923.2119, 233.0262
923.6940, 226.8986
924.1761, 225.6149
924.6582, 230.9411
925.1403, 234.2937
925.6224, 232.8030
926.1046, 231.1028
926.5867, 231.3936
927.0688, 232.3472
927.5509, 232.5481
928.0330, 231.8343
928.5151, 230.6869
928.9973, 229.7346
929.4794, 227.7195
929.9615, 220.8139
930.4436, 214.1596
930.9257, 216.0351
931.4078, 224.4219
931.8900, 230.9752
932.3721, 232.1103
932.8542, 231.1512
933.3363, 232.4292
933.8184, 234.3088
934.3005, 231.3497
934.7827, 224.4759
935.2648, 220.0412
935.7469, 219.7962
936.2290, 221.0159
936.7111, 221.3044
937.1932, 221.0748
937.6754, 222.0280
938.1575, 224.4191
938.6396, 225.7025
939.1217, 225.3338
939.6038, 224.6838
940.0859, 224.2533
940.5681, 224.2949
941.0502, 225.6939
941.5323, 229.3911
942.0144, 229.4359
942.4965, 220.8288
942.9786, 215.7455
943.4608, 220.3913
943.9429, 226.4657
944.4250, 226.9724
944.9071, 222.8913
945.3892, 219.4730
945.8713, 217.6718
946.3535, 216.2662
946.8356, 214.4921
947.3177, 213.4327
947.7998, 214.6614
948.2819, 216.8064
948.7640, 217.3664
949.2462, 215.7913
949.7283, 214.2066
950.2104, 213.7947
950.6925, 213.9689
951.1746, 214.0537
951.6567, 214.4388
952.1389, 216.3692
952.6210, 219.4622
953.1031, 221.1804
953.5852, 219.7931
954.0673, 217.7850
954.5494, 219.7177
955.0316, 223.3294
955.5137, 221.2137
955.9958, 214.1524
956.4779, 210.4812
956.9600, 213.2902
957.4421, 217.5013
957.9243, 217.2946
958.4064, 213.8177
958.8885, 212.3071
959.3706, 212.8357
959.8527, 214.2608
960.3348, 216.6571
960.8170, 218.5086
961.2991, 218.3778
961.7812, 217.7426
962.2633, 220.6155
962.7454, 228.9106
963.2275, 231.7995
963.7097, 226.4111
964.1918, 221.1338
964.6739, 218.9864
965.1560, 217.6344
965.6381, 214.3162
966.1202, 209.3029
966.6024, 206.0508
967.0845, 204.4533
967.5666, 204.7704
968.0487, 210.0005
968.5308, 214.0746
969.0129, 212.2797
969.4951, 207.6396
969.9772, 204.9369
970.4593, 204.9251
970.9414, 206.6913
971.4235, 211.7951
971.9056, 216.4304
972.3878, 219.3249
972.8699, 220.2087
973.3520, 217.6378
973.8341, 212.7786
974.3162, 209.5883
974.7983, 210.0320
975.2805, 211.3428
975.7626, 211.3740
976.2447, 211.1434
976.7268, 212.5368
977.2089, 214.5267
977.6910, 214.1092
978.1732, 210.7903
978.6553, 207.8044
979.1374, 207.9814
979.6195, 209.6852
980.1016, 210.7092
980.5837, 211.0236
981.0659, 210.3133
981.5480, 208.6854
982.0301, 206.5165
982.5122, 203.8784
982.9943, 203.0392
983.4764, 209.8568
983.9586, 221.7822
984.4407, 221.9165
984.9228, 210.4731
985.4049, 201.4571
985.8870, 198.3689
986.3691, 198.9843
986.8513, 202.0570
987.3334, 206.4715
987.8155, 208.5278
988.2976, 207.6232
988.7797, 208.7287
989.2618, 212.9136
989.7440, 216.2355
990.2261, 216.9137
990.7082, 216.2926
991.1903, 215.8382
991.6724, 215.5644
992.1545, 216.3183
992.6367, 220.2076
993.1188, 220.6367
993.6009, 213.6853
994.0830, 207.1259
994.5651, 205.7221
995.0472, 207.7670
995.5294, 209.8454
996.0115, 211.8394
996.4936, 214.3576
996.9757, 220.3618
997.4578, 223.0641
997.9399, 217.6006
998.4221, 210.6409
998.9042, 207.6627
999.3863, 208.1463
999.8684, 208.9267
1000.351, 209.4312
1000.833, 210.1973
1001.315, 212.2090
1001.797, 213.6376
1002.279, 212.9351
1002.761, 211.2357
1003.243, 209.4822
1003.725, 208.1348
1004.207, 208.9095
1004.690, 214.3396
1005.172, 219.4835
1005.654, 223.0975
1006.136, 223.7273
1006.618, 216.1394
1007.100, 205.1647
1007.582, 202.7306
1008.064, 212.2024
1008.547, 221.2326
1009.029, 219.3676
1009.511, 214.0115
1009.993, 211.6485
1010.475, 211.6680
1010.957, 213.6973
1011.439, 217.0060
1011.921, 219.7830
1012.403, 221.1900
1012.886, 221.0003
1013.368, 217.5576
1013.850, 213.1008
1014.332, 212.7699
1014.814, 214.9754
1015.296, 213.4212
1015.778, 207.2490
1016.260, 202.5238
1016.742, 204.1775
1017.225, 208.4716
1017.707, 207.4119
1018.189, 203.4673
1018.671, 207.9732
1019.153, 220.0841
1019.635, 226.0701
1020.117, 220.8685
1020.599, 213.3788
1021.082, 213.1064
1021.564, 217.4642
1022.046, 217.7504
1022.528, 214.2519
1023.010, 211.1316
1023.492, 208.9538
1023.974, 205.9918
1024.456, 201.0242
1024.938, 196.6794
1025.421, 197.1102
1025.903, 201.9436
1026.385, 207.1086
1026.867, 212.9758
1027.349, 215.1686
1027.831, 212.1095
1028.313, 208.6776
1028.795, 208.2551
1029.278, 209.4471
1029.760, 208.9270
1030.242, 206.2518
1030.724, 205.8224
1031.206, 208.4855
1031.688, 210.5878
1032.170, 211.4399
1032.652, 210.6271
1033.135, 207.1655
1033.617, 202.0636
1034.099, 199.0972
1034.581, 198.4778
1035.063, 199.5681
1035.545, 203.3836
1036.027, 206.7840
1036.509, 207.9441
1036.991, 204.1893
1037.474, 208.9056
1037.956, 211.4846
1038.438, 212.0409
1038.920, 204.5159
1039.402, 207.4261
1039.884, 206.1544
1040.366, 204.7112
1040.848, 209.0901
1041.330, 202.7406
1041.813, 207.0268
1042.295, 207.0677
1042.777, 209.0517
1043.259, 206.8279
1043.741, 205.9038
1044.223, 209.1888
1044.705, 210.1432
1045.187, 207.4351
1045.670, 209.5423
1046.152, 206.0013
1046.634, 208.8235
1047.116, 210.4291
1047.598, 209.1218
1048.080, 208.5513
1048.562, 210.1792
1049.044, 212.2083
1049.526, 213.5464
1050.009, 214.2667
1050.491, 214.4079
1050.973, 213.4660
1051.455, 214.2520
1051.937, 220.8477
1052.419, 224.6184
1052.901, 217.8236
1053.383, 210.8478
1053.865, 215.4990
1054.348, 227.7370
1054.830, 233.0372
1055.312, 225.8642
1055.794, 221.2038
1056.276, 225.7012
1056.758, 229.9703
1057.240, 229.1043
1057.722, 226.1217
1058.205, 223.3846
1058.687, 221.5980
1059.169, 222.4909
1059.651, 228.6619
1060.133, 232.2499
1060.615, 228.0393
1061.097, 223.5661
1061.579, 223.2480
1062.062, 225.2226
1062.544, 227.0077
1063.026, 228.4169
1063.508, 230.6272
1063.990, 234.9473
1064.472, 238.3045
1064.954, 239.4377
1065.436, 239.3135
1065.918, 236.3395
1066.401, 233.7339
1066.883, 237.5003
1067.365, 247.3665
1067.847, 254.0038
1068.329, 251.2324
1068.811, 248.9272
1069.293, 251.9400
1069.775, 256.5243
1070.257, 261.2873
1070.740, 264.8866
1071.222, 265.5429
1071.704, 263.0165
1072.186, 258.7240
1072.668, 247.2497
1073.150, 241.9251
1073.632, 254.7222
1074.114, 271.1295
1074.597, 280.4287
1075.079, 283.3431
1075.561, 282.3514
1076.043, 278.1630
1076.525, 273.8982
1077.007, 268.1871
1077.489, 266.1864
1077.971, 275.0663
1078.453, 284.7939
1078.936, 285.4520
1079.418, 280.0558
1079.900, 275.3795
1080.382, 273.0141
1080.864, 273.3899
1081.346, 279.4752
1081.828, 284.9182
1082.310, 287.4317
1082.792, 286.8324
1083.275, 281.1755
1083.757, 272.7722
1084.239, 265.5462
1084.721, 260.3480
1085.203, 259.6219
1085.685, 269.6475
1086.167, 278.0480
1086.649, 275.5734
1087.131, 270.5797
1087.614, 271.2834
1088.096, 276.1602
1088.578, 279.9620
1089.060, 281.4074
1089.542, 282.1322
1090.024, 283.3506
1090.506, 283.3491
1090.988, 280.8550
1091.471, 277.0563
1091.953, 271.0939
1092.435, 265.2159
1092.917, 264.9379
1093.399, 272.1132
1093.881, 279.1740
1094.363, 284.5268
1094.845, 287.6387
1095.328, 288.7368
1095.810, 287.0799
1096.292, 279.1076
1096.774, 268.3908
1097.256, 263.9816
1097.738, 268.7247
1098.220, 272.7951
1098.702, 273.0578
1099.184, 272.0040
1099.667, 267.5313
1100.149, 264.9310
1100.631, 272.0924
1101.113, 284.2666
1101.595, 288.7289
1102.077, 281.7068
1102.559, 276.1834
1103.041, 277.7646
1103.523, 278.2921
1104.006, 273.2174
1104.488, 267.2180
1104.970, 264.5202
1105.452, 264.0135
1105.934, 262.0697
1106.416, 257.4508
1106.898, 255.4471
1107.380, 258.7454
1107.863, 262.4095
1108.345, 266.5553
1108.827, 269.0302
1109.309, 266.6332
1109.791, 261.6703
1110.273, 259.6039
1110.755, 261.3087
1111.237, 263.6485
1111.719, 268.4078
1112.202, 270.9417
1112.684, 269.1947
1113.166, 265.8689
1113.648, 261.3575
1114.130, 257.0088
1114.612, 256.2810
1115.094, 260.4238
1115.576, 262.5605
1116.058, 261.1037
1116.541, 260.1253
1117.023, 262.1241
1117.505, 262.5293
1117.987, 256.7843
1118.469, 248.4145
1118.951, 244.6648
1119.433, 246.2726
1119.915, 247.0506
1120.398, 246.2567
1120.880, 246.1297
1121.362, 246.6810
1121.844, 248.8720
1122.326, 255.4404
1122.808, 261.6523
1123.290, 257.8155
1123.772, 243.1222
1124.255, 236.3256
1124.737, 240.4192
1125.219, 243.0851
1125.701, 242.5536
1126.183, 240.0210
1126.665, 235.2068
1127.147, 230.6260
1127.629, 230.4619
1128.111, 234.4291
1128.594, 237.4642
1129.076, 239.8215
1129.558, 239.1224
1130.040, 234.4782
1130.522, 229.8812
1131.004, 227.2035
1131.486, 226.0666
1131.968, 226.4315
1132.450, 227.6607
1132.933, 225.5811
1133.415, 220.2320
1133.897, 217.1963
1134.379, 217.1373
1134.861, 216.5046
1135.343, 213.6954
1135.825, 211.1049
1136.307, 211.6335
1136.790, 213.9863
1137.272, 214.5343
1137.754, 213.4977
1138.236, 212.0533
1138.718, 210.3209
1139.200, 207.9294
1139.682, 204.8343
1140.164, 202.9985
1140.646, 204.7427
1141.129, 207.4317
1141.611, 205.3741
1142.093, 200.7956
1142.575, 199.6573
1143.057, 201.4942
1143.539, 203.8410
1144.021, 205.6170
1144.503, 204.5733
1144.985, 198.2258
1145.468, 191.4369
1145.950, 191.2080
1146.432, 193.3986
1146.914, 190.9260
1147.396, 186.0790
1147.878, 185.6670
1148.360, 189.6025
1148.842, 190.1101
1149.325, 182.1096
1149.807, 174.4927
1150.289, 175.8130
1150.771, 179.2157
1151.253, 177.9004
1151.735, 174.7502
1152.217, 174.5081
1152.699, 176.8906
1153.182, 178.2992
1153.664, 177.2019
1154.146, 176.8856
1154.628, 180.5799
1155.110, 183.4891
1155.592, 182.1242
1156.074, 179.3007
1156.556, 177.3251
1157.038, 176.3917
1157.521, 176.4058
1158.003, 177.5018
1158.485, 178.4671
1158.967, 179.0340
1159.449, 179.4514
1159.931, 179.3433
1160.413, 179.5549
1160.895, 181.8553
1161.377, 184.3908
1161.860, 183.1126
1162.342, 177.4568
1162.824, 173.9350
1163.306, 172.9956
1163.788, 173.4187
1164.270, 175.4390
1164.752, 178.4509
1165.234, 183.9274
1165.717, 187.8493
1166.199, 183.3738
1166.681, 172.2312
1167.163, 171.6614
1167.645, 185.6908
1168.127, 191.9746
1168.609, 187.8136
1169.091, 180.7732
1169.573, 172.5537
1170.056, 167.2973
1170.538, 169.8500
1171.020, 176.9348
1171.502, 177.9275
1171.984, 173.3997
1172.466, 174.2905
1172.948, 180.6591
1173.430, 184.6086
1173.912, 184.1162
1174.395, 182.6836
1174.877, 182.8182
1175.359, 183.0125
1175.841, 180.1104
1176.323, 175.7015
1176.805, 174.1861
1177.287, 174.7869
1177.769, 175.1497
1178.252, 174.8094
1178.734, 173.6438
1179.216, 171.5519
1179.698, 170.4430
1180.180, 172.7028
1180.662, 176.2952
1181.144, 180.2023
1181.626, 183.1128
1182.109, 182.5022
1182.591, 179.4102
1183.073, 176.4743
1183.555, 174.4895
1184.037, 173.6163
1184.519, 174.6322
1185.001, 175.8587
1185.483, 176.1423
1185.965, 176.6014
1186.448, 179.5310
1186.930, 182.3926
1187.412, 179.9509
1187.894, 172.7966
1188.376, 170.1445
1188.858, 178.0294
1189.340, 182.4885
1189.822, 178.8967
1190.304, 175.0969
1190.787, 173.6202
1191.269, 173.5852
1191.751, 174.6709
1192.233, 176.4945
1192.715, 177.8560
1193.197, 178.8285
1193.679, 178.7238
1194.161, 176.3671
1194.644, 177.1380
1195.126, 183.9747
1195.608, 188.0271
1196.090, 182.7945
1196.572, 174.0500
1197.054, 171.5199
1197.536, 174.3380
1198.018, 175.6158
1198.500, 175.4666
1198.983, 177.4829
1199.465, 181.8739
1199.947, 183.0164
1200.429, 178.6139
1200.911, 174.2605
1201.393, 176.1017
1201.875, 180.1341
1202.357, 177.8412
1202.839, 172.7276
1203.322, 174.2867
1203.804, 179.7332
1204.286, 178.0090
1204.768, 168.4005
1205.250, 162.6167
1205.732, 167.9203
1206.214, 175.3485
1206.696, 178.1418
1207.179, 179.5605
1207.661, 182.8718
1208.143, 186.2427
1208.625, 186.9238
1209.107, 185.4542
1209.589, 184.1092
1210.071, 183.4396
1210.553, 182.7099
1211.036, 181.7295
1211.518, 180.6270
1212.000, 179.2343
1212.482, 177.9466
1212.964, 176.6869
1213.446, 175.8883
1213.928, 176.5193
1214.410, 178.4670
1214.892, 179.0326
1215.375, 177.5074
1215.857, 176.5247
1216.339, 176.3444
1216.821, 176.4178
1217.303, 176.7646
1217.785, 176.5168
1218.267, 174.5786
1218.749, 172.1729
1219.231, 172.9276
1219.714, 176.5071
1220.196, 177.2794
1220.678, 175.6133
1221.160, 176.6813
1221.642, 181.1172
1222.124, 184.4676
1222.606, 184.3713
1223.088, 182.0794
1223.571, 177.7073
1224.053, 173.2804
1224.535, 171.3583
1225.017, 172.0412
1225.499, 177.6545
1225.981, 185.5274
1226.463, 188.6154
1226.945, 185.7361
1227.427, 182.6263
1227.910, 181.8555
1228.392, 182.2110
1228.874, 183.7946
1229.356, 185.4617
1229.838, 187.9703
1230.320, 189.0055
1230.802, 184.3293
1231.284, 175.8925
1231.766, 171.2241
1232.249, 172.0148
1232.731, 173.2522
1233.213, 175.5060
1233.695, 176.8756
1234.177, 177.0381
1234.659, 176.2502
1235.141, 174.4767
1235.623, 172.0147
1236.106, 168.8456
1236.588, 165.4987
1237.070, 165.2523
##END=



