##NAMES=Trilithionite
##RRUFFID=R040101
##IDEAL CHEMISTRY=KLi_1.5_Al_1.5_(Si_3_Al)O_10_F_2_
##LOCALITY=Zambezi Region, Mozambique
##OWNER=RRUFF
##SOURCE=University of Arizona Mineral Museum
##DESCRIPTION=Aggregate of purple hexagonal plates, polytype is 2M1
##STATUS=The identification of this mineral has been confirmed by X-ray diffraction and chemical analysis
##URL=rruff.info/R040101
##MEASURED CHEMISTRY=(K_0.84_Li_0.13_Na_0.02_)(Li_0.54_Al_0.44_Mn_0.02_)_3_(Si_0.82_Al_0.18_)_4_O_10_F_2.00_
123.5578, 1194.873
124.0400, 1308.013
124.5221, 1427.581
125.0042, 1547.301
125.4863, 1668.317
125.9684, 1797.545
126.4505, 1944.995
126.9327, 2090.335
127.4148, 2231.873
127.8969, 2368.807
128.3790, 2500.189
128.8611, 2625.587
129.3432, 2745.441
129.8254, 2854.597
130.3075, 2954.859
130.7896, 3045.025
131.2717, 3130.004
131.7538, 3205.183
132.2359, 3260.656
132.7181, 3289.741
133.2002, 3292.348
133.6823, 3254.525
134.1644, 3159.087
134.6465, 3047.390
135.1286, 2930.244
135.6108, 2813.343
136.0929, 2705.036
136.5750, 2612.814
137.0571, 2538.175
137.5392, 2483.726
138.0213, 2449.626
138.5035, 2433.128
138.9856, 2431.697
139.4677, 2445.361
139.9498, 2477.947
140.4319, 2534.992
140.9140, 2622.040
141.3961, 2715.486
141.8783, 2815.274
142.3604, 2921.282
142.8425, 3035.719
143.3246, 3159.022
143.8067, 3284.417
144.2888, 3405.752
144.7710, 3523.456
145.2531, 3635.896
145.7352, 3735.147
146.2173, 3781.227
146.6994, 3771.079
147.1815, 3748.222
147.6637, 3713.139
148.1458, 3659.319
148.6279, 3588.081
149.1100, 3523.747
149.5921, 3482.501
150.0742, 3448.541
150.5564, 3394.017
151.0385, 3309.731
151.5206, 3212.999
152.0027, 3121.676
152.4848, 3034.071
152.9669, 2948.894
153.4491, 2860.543
153.9312, 2773.199
154.4133, 2700.173
154.8954, 2647.160
155.3775, 2602.612
155.8596, 2550.487
156.3418, 2490.463
156.8239, 2439.973
157.3060, 2412.427
157.7881, 2402.134
158.2702, 2388.058
158.7523, 2363.574
159.2345, 2337.438
159.7166, 2316.514
160.1987, 2300.639
160.6808, 2291.736
161.1629, 2297.502
161.6451, 2314.334
162.1272, 2319.147
162.6093, 2302.301
163.0914, 2278.511
163.5735, 2259.332
164.0556, 2244.982
164.5378, 2236.802
165.0199, 2240.397
165.5020, 2254.359
165.9841, 2259.738
166.4662, 2245.971
166.9483, 2229.612
167.4305, 2222.592
167.9126, 2225.441
168.3947, 2233.302
168.8768, 2242.673
169.3589, 2253.537
169.8410, 2267.410
170.3232, 2289.949
170.8053, 2310.818
171.2874, 2321.533
171.7695, 2321.507
172.2516, 2319.887
172.7337, 2325.009
173.2159, 2337.098
173.6980, 2349.283
174.1801, 2357.577
174.6622, 2367.729
175.1443, 2384.785
175.6264, 2408.871
176.1085, 2433.405
176.5907, 2452.020
177.0728, 2464.463
177.5549, 2474.068
178.0370, 2481.694
178.5191, 2485.834
179.0012, 2483.462
179.4834, 2474.774
179.9655, 2465.877
180.4476, 2463.937
180.9297, 2470.188
181.4118, 2474.590
181.8939, 2476.305
182.3761, 2475.269
182.8582, 2472.721
183.3403, 2468.314
183.8224, 2458.249
184.3045, 2433.771
184.7866, 2390.734
185.2688, 2360.925
185.7509, 2362.840
186.2330, 2368.893
186.7151, 2366.395
187.1972, 2353.767
187.6793, 2336.417
188.1615, 2316.771
188.6436, 2292.452
189.1257, 2279.531
189.6078, 2285.107
190.0899, 2298.728
190.5720, 2316.849
191.0542, 2338.712
191.5363, 2364.764
192.0184, 2395.760
192.5005, 2432.133
192.9826, 2470.821
193.4647, 2514.533
193.9469, 2558.614
194.4290, 2604.013
194.9111, 2649.373
195.3932, 2689.054
195.8753, 2717.322
196.3574, 2733.473
196.8396, 2743.617
197.3217, 2743.224
197.8038, 2740.282
198.2859, 2739.053
198.7680, 2739.054
199.2501, 2736.204
199.7323, 2726.512
200.2144, 2709.522
200.6965, 2688.713
201.1786, 2660.542
201.6607, 2630.958
202.1428, 2600.082
202.6250, 2569.181
203.1071, 2541.434
203.5892, 2520.130
204.0713, 2505.710
204.5534, 2492.452
205.0355, 2481.946
205.5177, 2471.174
205.9998, 2454.134
206.4819, 2434.505
206.9640, 2423.402
207.4461, 2432.211
207.9282, 2461.473
208.4104, 2490.048
208.8925, 2515.323
209.3746, 2542.506
209.8567, 2577.031
210.3388, 2615.362
210.8209, 2649.095
211.3030, 2671.309
211.7852, 2682.305
212.2673, 2691.193
212.7494, 2698.709
213.2315, 2702.762
213.7136, 2703.969
214.1957, 2701.394
214.6779, 2693.840
215.1600, 2682.794
215.6421, 2666.648
216.1242, 2631.586
216.6063, 2565.159
217.0884, 2494.664
217.5706, 2426.703
218.0527, 2361.528
218.5348, 2299.401
219.0169, 2240.877
219.4990, 2185.273
219.9811, 2129.284
220.4633, 2070.570
220.9454, 2015.414
221.4275, 1966.390
221.9096, 1921.453
222.3917, 1876.786
222.8738, 1828.723
223.3560, 1781.701
223.8381, 1750.081
224.3202, 1742.378
224.8023, 1734.672
225.2844, 1720.426
225.7665, 1701.823
226.2487, 1680.486
226.7308, 1656.165
227.2129, 1631.736
227.6950, 1613.618
228.1771, 1603.514
228.6592, 1595.598
229.1414, 1590.145
229.6235, 1585.010
230.1056, 1577.026
230.5877, 1564.400
231.0698, 1552.446
231.5519, 1550.083
232.0341, 1559.760
232.5162, 1569.876
232.9983, 1580.061
233.4804, 1587.878
233.9625, 1590.848
234.4446, 1588.225
234.9268, 1582.846
235.4089, 1575.415
235.8910, 1564.646
236.3731, 1562.730
236.8552, 1579.619
237.3373, 1601.922
237.8195, 1621.069
238.3016, 1635.937
238.7837, 1648.855
239.2658, 1660.020
239.7479, 1669.562
240.2300, 1683.930
240.7122, 1706.404
241.1943, 1732.269
241.6764, 1759.861
242.1585, 1788.720
242.6406, 1813.653
243.1227, 1825.536
243.6049, 1828.159
244.0870, 1844.395
244.5691, 1883.296
245.0512, 1927.588
245.5333, 1959.976
246.0154, 1983.903
246.4975, 2016.269
246.9797, 2068.142
247.4618, 2134.879
247.9439, 2204.179
248.4260, 2274.460
248.9081, 2349.379
249.3902, 2430.633
249.8724, 2517.936
250.3545, 2612.296
250.8366, 2710.901
251.3187, 2817.692
251.8008, 2936.821
252.2829, 3067.417
252.7651, 3213.638
253.2472, 3381.650
253.7293, 3567.808
254.2114, 3766.315
254.6935, 3977.082
255.1756, 4199.132
255.6578, 4430.909
256.1399, 4672.363
256.6220, 4922.613
257.1041, 5185.004
257.5862, 5454.435
258.0684, 5722.395
258.5505, 5995.360
259.0326, 6257.602
259.5147, 6505.810
259.9968, 6737.254
260.4789, 6932.621
260.9611, 7082.917
261.4432, 7193.867
261.9253, 7288.277
262.4074, 7383.388
262.8895, 7431.410
263.3716, 7414.306
263.8537, 7336.771
264.3358, 7202.620
264.8180, 7008.680
265.3001, 6772.687
265.7822, 6518.352
266.2643, 6238.449
266.7464, 5963.592
267.2285, 5698.886
267.7107, 5442.308
268.1928, 5190.475
268.6749, 4943.026
269.1570, 4702.833
269.6391, 4475.240
270.1212, 4262.251
270.6034, 4057.369
271.0855, 3856.156
271.5676, 3664.783
272.0497, 3488.095
272.5318, 3326.524
273.0139, 3183.570
273.4961, 3063.392
273.9782, 2969.146
274.4603, 2872.615
274.9424, 2764.912
275.4245, 2664.565
275.9066, 2579.768
276.3888, 2509.279
276.8709, 2448.456
277.3530, 2394.633
277.8351, 2347.207
278.3172, 2299.726
278.7993, 2251.183
279.2815, 2203.524
279.7636, 2154.503
280.2457, 2107.172
280.7278, 2066.126
281.2099, 2033.762
281.6920, 2006.877
282.1742, 1976.112
282.6563, 1932.515
283.1384, 1898.844
283.6205, 1881.785
284.1026, 1871.588
284.5847, 1861.414
285.0669, 1848.837
285.5490, 1832.489
286.0311, 1808.587
286.5132, 1770.626
286.9953, 1742.920
287.4774, 1734.016
287.9596, 1728.468
288.4417, 1715.826
288.9238, 1696.797
289.4059, 1681.284
289.8880, 1682.607
290.3701, 1702.431
290.8523, 1708.566
291.3344, 1688.131
291.8165, 1666.740
292.2986, 1655.204
292.7807, 1651.094
293.2628, 1647.272
293.7450, 1638.569
294.2271, 1627.033
294.7092, 1620.940
295.1913, 1623.871
295.6734, 1624.587
296.1555, 1615.616
296.6377, 1602.395
297.1198, 1591.731
297.6019, 1585.522
298.0840, 1583.331
298.5661, 1585.914
299.0482, 1593.859
299.5304, 1600.970
300.0125, 1606.512
300.4946, 1608.937
300.9767, 1605.865
301.4588, 1595.918
301.9409, 1585.383
302.4231, 1579.418
302.9052, 1576.810
303.3873, 1571.790
303.8694, 1561.189
304.3515, 1550.701
304.8336, 1548.480
305.3158, 1554.435
305.7979, 1559.483
306.2800, 1561.225
306.7621, 1560.178
307.2442, 1556.785
307.7263, 1551.081
308.2085, 1543.533
308.6906, 1532.881
309.1727, 1519.318
309.6548, 1512.820
310.1369, 1518.185
310.6190, 1527.008
311.1012, 1536.429
311.5833, 1545.081
312.0654, 1548.682
312.5475, 1543.606
313.0296, 1531.610
313.5117, 1523.991
313.9939, 1523.200
314.4760, 1523.009
314.9581, 1522.609
315.4402, 1521.721
315.9223, 1519.859
316.4044, 1516.820
316.8866, 1513.122
317.3687, 1509.808
317.8508, 1506.898
318.3329, 1504.373
318.8150, 1502.350
319.2971, 1500.585
319.7793, 1500.339
320.2614, 1500.971
320.7435, 1498.633
321.2256, 1487.174
321.7077, 1463.229
322.1898, 1451.112
322.6720, 1461.365
323.1541, 1473.575
323.6362, 1482.894
324.1183, 1488.543
324.6004, 1490.530
325.0826, 1488.568
325.5647, 1483.130
326.0468, 1475.257
326.5289, 1460.807
327.0110, 1451.917
327.4931, 1457.866
327.9753, 1468.307
328.4574, 1471.553
328.9395, 1463.222
329.4216, 1449.415
329.9037, 1434.999
330.3858, 1419.276
330.8680, 1413.403
331.3501, 1430.318
331.8322, 1449.644
332.3143, 1450.139
332.7964, 1430.784
333.2785, 1413.650
333.7606, 1416.506
334.2427, 1431.354
334.7249, 1435.539
335.2070, 1423.513
335.6891, 1408.904
336.1712, 1404.677
336.6533, 1408.778
337.1354, 1411.512
337.6176, 1408.358
338.0997, 1405.183
338.5818, 1408.596
339.0639, 1417.809
339.5460, 1425.521
340.0281, 1427.398
340.5103, 1424.513
340.9924, 1421.716
341.4745, 1419.549
341.9566, 1416.817
342.4387, 1412.022
342.9208, 1406.765
343.4030, 1403.890
343.8851, 1404.345
344.3672, 1406.062
344.8493, 1405.499
345.3314, 1400.862
345.8135, 1397.849
346.2957, 1393.871
346.7778, 1393.360
347.2599, 1401.997
347.7420, 1417.995
348.2241, 1433.133
348.7062, 1439.817
349.1884, 1438.120
349.6705, 1438.517
350.1526, 1443.406
350.6347, 1447.891
351.1168, 1450.776
351.5989, 1452.556
352.0811, 1453.139
352.5632, 1451.897
353.0453, 1451.978
353.5274, 1461.525
354.0095, 1484.519
354.4916, 1502.860
354.9738, 1506.618
355.4559, 1507.383
355.9380, 1512.789
356.4201, 1523.788
356.9022, 1537.014
357.3843, 1551.499
357.8665, 1566.327
358.3486, 1576.730
358.8307, 1580.236
359.3128, 1583.086
359.7949, 1592.637
360.2770, 1606.306
360.7592, 1615.218
361.2413, 1610.137
361.7234, 1603.908
362.2055, 1610.476
362.6876, 1629.039
363.1697, 1649.408
363.6519, 1666.796
364.1340, 1681.778
364.6161, 1696.041
365.0982, 1708.486
365.5803, 1722.168
366.0624, 1738.009
366.5446, 1755.554
367.0267, 1774.448
367.5088, 1794.453
367.9909, 1815.544
368.4730, 1837.250
368.9551, 1859.192
369.4373, 1883.680
369.9194, 1914.163
370.4015, 1943.719
370.8836, 1969.546
371.3657, 1991.182
371.8478, 2007.677
372.3300, 2017.277
372.8121, 2022.398
373.2942, 2037.366
373.7763, 2071.455
374.2584, 2101.291
374.7405, 2116.964
375.2227, 2129.297
375.7048, 2151.332
376.1869, 2186.867
376.6690, 2223.670
377.1511, 2246.070
377.6332, 2253.461
378.1154, 2260.185
378.5975, 2268.802
379.0796, 2276.363
379.5617, 2281.165
380.0438, 2283.317
380.5259, 2283.557
381.0081, 2277.313
381.4902, 2271.290
381.9723, 2278.927
382.4544, 2301.451
382.9365, 2322.055
383.4186, 2329.595
383.9008, 2328.306
384.3829, 2332.597
384.8650, 2345.901
385.3471, 2359.535
385.8292, 2372.037
386.3113, 2382.002
386.7935, 2384.188
387.2756, 2376.660
387.7577, 2369.526
388.2398, 2377.380
388.7219, 2406.479
389.2040, 2432.776
389.6862, 2452.641
390.1683, 2473.293
390.6504, 2501.942
391.1325, 2535.535
391.6146, 2563.308
392.0967, 2577.000
392.5789, 2580.380
393.0610, 2593.063
393.5431, 2615.901
394.0252, 2648.021
394.5073, 2698.358
394.9894, 2751.546
395.4716, 2793.510
395.9537, 2820.558
396.4358, 2839.720
396.9179, 2856.394
397.4000, 2870.582
397.8821, 2889.488
398.3643, 2916.889
398.8464, 2944.878
399.3285, 2971.707
399.8106, 2995.527
400.2927, 3010.292
400.7748, 3006.245
401.2570, 2996.448
401.7391, 2998.376
402.2212, 3011.154
402.7033, 3020.778
403.1854, 3020.718
403.6675, 3013.140
404.1497, 3003.007
404.6317, 2989.127
405.1139, 2975.606
405.5960, 2967.690
406.0781, 2958.686
406.5602, 2938.370
407.0423, 2905.878
407.5244, 2871.875
408.0066, 2848.785
408.4887, 2838.954
408.9708, 2814.747
409.4529, 2764.664
409.9350, 2714.115
410.4171, 2671.339
410.8993, 2633.288
411.3814, 2593.691
411.8635, 2549.332
412.3456, 2504.850
412.8277, 2469.422
413.3098, 2444.503
413.7920, 2423.780
414.2741, 2418.449
414.7562, 2407.711
415.2383, 2374.444
415.7204, 2321.437
416.2025, 2270.917
416.6847, 2237.433
417.1668, 2216.518
417.6489, 2199.006
418.1310, 2185.533
418.6131, 2171.209
419.0952, 2156.696
419.5774, 2137.926
420.0595, 2105.546
420.5416, 2048.340
421.0237, 1995.883
421.5058, 1963.092
421.9879, 1944.364
422.4701, 1931.691
422.9522, 1923.092
423.4343, 1915.062
423.9164, 1903.319
424.3985, 1886.946
424.8806, 1870.813
425.3628, 1859.820
425.8449, 1844.159
426.3270, 1811.882
426.8091, 1772.282
427.2912, 1744.993
427.7733, 1741.521
428.2555, 1751.433
428.7376, 1748.825
429.2197, 1729.491
429.7018, 1707.513
430.1839, 1676.497
430.6660, 1649.840
431.1482, 1640.234
431.6303, 1646.219
432.1124, 1650.815
432.5945, 1641.510
433.0766, 1621.647
433.5587, 1599.126
434.0409, 1572.901
434.5230, 1549.613
435.0051, 1534.250
435.4872, 1524.312
435.9693, 1513.561
436.4514, 1500.535
436.9336, 1488.768
437.4157, 1481.863
437.8978, 1476.922
438.3799, 1467.565
438.8620, 1452.132
439.3441, 1436.807
439.8263, 1429.156
440.3084, 1431.247
440.7905, 1428.633
441.2726, 1420.208
441.7547, 1409.031
442.2368, 1394.464
442.7190, 1378.405
443.2011, 1363.712
443.6832, 1351.763
444.1653, 1341.898
444.6474, 1333.564
445.1295, 1328.133
445.6117, 1319.688
446.0938, 1301.349
446.5759, 1284.863
447.0580, 1278.875
447.5401, 1281.660
448.0222, 1283.742
448.5044, 1279.873
448.9865, 1271.730
449.4686, 1260.613
449.9507, 1246.097
450.4328, 1235.605
450.9149, 1234.325
451.3971, 1238.265
451.8792, 1238.458
452.3613, 1233.876
452.8434, 1228.493
453.3255, 1221.461
453.8076, 1215.260
454.2898, 1214.164
454.7719, 1218.055
455.2540, 1221.220
455.7361, 1218.468
456.2182, 1209.985
456.7003, 1201.927
457.1825, 1190.318
457.6646, 1183.911
458.1467, 1189.429
458.6288, 1198.483
459.1109, 1201.336
459.5930, 1195.285
460.0752, 1186.021
460.5573, 1179.842
461.0394, 1176.769
461.5215, 1174.707
462.0036, 1173.750
462.4857, 1173.481
462.9679, 1172.995
463.4500, 1172.983
463.9321, 1175.301
464.4142, 1182.475
464.8963, 1189.640
465.3784, 1193.025
465.8606, 1193.071
466.3427, 1191.429
466.8248, 1188.795
467.3069, 1183.645
467.7890, 1172.147
468.2711, 1149.316
468.7533, 1140.093
469.2354, 1157.946
469.7175, 1176.392
470.1996, 1177.905
470.6817, 1168.778
471.1638, 1166.941
471.6460, 1182.739
472.1281, 1205.795
472.6102, 1209.118
473.0923, 1181.340
473.5744, 1166.085
474.0565, 1182.571
474.5387, 1202.608
475.0208, 1210.911
475.5029, 1208.149
475.9850, 1203.276
476.4671, 1199.160
476.9492, 1197.037
477.4313, 1201.904
477.9135, 1213.829
478.3956, 1218.414
478.8777, 1205.808
479.3598, 1185.314
479.8419, 1177.326
480.3240, 1185.504
480.8062, 1191.817
481.2883, 1194.688
481.7704, 1192.911
482.2525, 1181.838
482.7346, 1163.935
483.2167, 1149.543
483.6989, 1146.942
484.1810, 1153.407
484.6631, 1154.351
485.1452, 1144.736
485.6273, 1137.950
486.1094, 1136.869
486.5916, 1138.336
487.0737, 1140.629
487.5558, 1143.185
488.0379, 1144.946
488.5200, 1147.601
489.0021, 1148.765
489.4843, 1137.157
489.9664, 1108.919
490.4485, 1088.422
490.9306, 1092.730
491.4127, 1112.163
491.8948, 1123.073
492.3770, 1124.249
492.8591, 1119.793
493.3412, 1104.029
493.8233, 1086.959
494.3054, 1082.216
494.7875, 1090.567
495.2697, 1102.036
495.7518, 1108.690
496.2339, 1110.701
496.7160, 1110.226
497.1981, 1105.958
497.6802, 1100.746
498.1624, 1093.628
498.6445, 1086.640
499.1266, 1081.946
499.6087, 1079.847
500.0908, 1078.381
500.5729, 1075.259
501.0551, 1071.191
501.5372, 1070.029
502.0193, 1073.061
502.5014, 1074.485
502.9835, 1070.178
503.4656, 1062.085
503.9478, 1055.077
504.4299, 1049.045
504.9120, 1044.512
505.3941, 1041.450
505.8762, 1040.131
506.3583, 1041.930
506.8405, 1046.582
507.3226, 1051.151
507.8047, 1053.617
508.2868, 1053.742
508.7689, 1047.547
509.2510, 1025.511
509.7332, 1010.041
510.2153, 1007.324
510.6974, 1010.928
511.1795, 1016.454
511.6616, 1022.505
512.1437, 1026.435
512.6259, 1024.005
513.1080, 1017.433
513.5901, 1015.294
514.0722, 1018.529
514.5543, 1022.820
515.0364, 1027.027
515.5186, 1030.072
516.0007, 1029.314
516.4828, 1022.028
516.9649, 1016.782
517.4470, 1016.842
517.9291, 1019.900
518.4113, 1025.185
518.8934, 1031.557
519.3755, 1034.670
519.8576, 1030.162
520.3397, 1019.941
520.8218, 1017.393
521.3040, 1030.780
521.7861, 1037.801
522.2682, 1029.410
522.7503, 1017.758
523.2324, 1011.915
523.7145, 1013.005
524.1967, 1017.783
524.6788, 1026.905
525.1609, 1037.369
525.6430, 1042.169
526.1251, 1041.002
526.6072, 1038.988
527.0894, 1038.562
527.5715, 1038.814
528.0536, 1037.445
528.5357, 1033.536
529.0178, 1030.686
529.4999, 1030.801
529.9821, 1031.045
530.4642, 1028.131
530.9463, 1023.152
531.4284, 1020.380
531.9105, 1022.826
532.3926, 1028.259
532.8748, 1030.027
533.3569, 1026.685
533.8390, 1024.081
534.3211, 1019.587
534.8032, 1019.458
535.2853, 1031.659
535.7675, 1053.258
536.2496, 1069.669
536.7317, 1074.090
537.2138, 1070.706
537.6959, 1059.418
538.1780, 1043.008
538.6602, 1034.537
539.1423, 1039.496
539.6244, 1051.167
540.1065, 1060.118
540.5886, 1066.368
541.0707, 1069.352
541.5529, 1064.070
542.0350, 1061.056
542.5171, 1066.475
542.9992, 1076.831
543.4813, 1086.398
543.9634, 1092.952
544.4456, 1097.067
544.9277, 1099.853
545.4098, 1101.273
545.8919, 1098.542
546.3740, 1088.891
546.8561, 1080.080
547.3383, 1078.739
547.8204, 1082.456
548.3025, 1085.058
548.7846, 1084.579
549.2667, 1084.707
549.7488, 1087.449
550.2310, 1091.720
550.7131, 1095.489
551.1952, 1098.595
551.6773, 1103.404
552.1594, 1112.818
552.6415, 1126.218
553.1237, 1133.964
553.6058, 1132.270
554.0879, 1130.723
554.5700, 1133.128
555.0521, 1135.313
555.5342, 1133.276
556.0164, 1126.669
556.4985, 1118.794
556.9806, 1108.722
557.4627, 1100.017
557.9448, 1100.959
558.4269, 1111.286
558.9091, 1120.528
559.3912, 1123.700
559.8733, 1122.970
560.3554, 1122.742
560.8375, 1123.876
561.3196, 1123.492
561.8018, 1120.891
562.2839, 1117.369
562.7660, 1113.234
563.2481, 1108.805
563.7302, 1104.273
564.2123, 1099.579
564.6945, 1095.734
565.1766, 1096.615
565.6587, 1102.725
566.1408, 1099.285
566.6229, 1078.542
567.1050, 1057.612
567.5872, 1050.062
568.0693, 1053.051
568.5514, 1059.550
569.0335, 1074.216
569.5156, 1085.573
569.9977, 1084.801
570.4799, 1078.688
570.9620, 1077.752
571.4441, 1083.679
571.9262, 1089.852
572.4083, 1089.801
572.8904, 1084.135
573.3726, 1080.191
573.8547, 1080.541
574.3368, 1078.014
574.8189, 1065.377
575.3010, 1053.057
575.7831, 1051.783
576.2653, 1061.919
576.7474, 1070.811
577.2295, 1070.822
577.7116, 1066.303
578.1937, 1062.117
578.6758, 1058.528
579.1580, 1055.983
579.6401, 1054.699
580.1222, 1054.505
580.6042, 1055.413
581.0864, 1058.868
581.5685, 1058.972
582.0506, 1055.874
582.5327, 1049.747
583.0148, 1034.675
583.4969, 1018.344
583.9791, 1014.561
584.4612, 1029.008
584.9433, 1048.008
585.4254, 1057.488
585.9075, 1058.702
586.3896, 1057.176
586.8718, 1053.211
587.3539, 1047.707
587.8360, 1040.297
588.3181, 1032.031
588.8002, 1027.067
589.2823, 1028.497
589.7645, 1028.064
590.2466, 1022.216
590.7287, 1015.678
591.2108, 1012.180
591.6929, 1011.812
592.1750, 1013.019
592.6572, 1015.105
593.1393, 1017.380
593.6214, 1017.573
594.1035, 1015.174
594.5856, 1008.376
595.0677, 1017.474
595.5499, 1023.679
596.0320, 1027.145
596.5141, 1019.671
596.9962, 1026.324
597.4783, 1027.315
597.9604, 1028.074
598.4426, 1036.715
598.9247, 1030.832
599.4068, 1039.348
599.8889, 1042.116
600.3710, 1047.515
600.8531, 1047.217
601.3353, 1048.680
601.8174, 1055.839
602.2995, 1059.844
602.7816, 1058.891
603.2637, 1064.457
603.7458, 1058.375
604.2280, 1062.515
604.7101, 1057.354
605.1922, 1058.158
605.6743, 1082.719
606.1564, 1109.618
606.6385, 1117.498
607.1207, 1111.328
607.6028, 1105.719
608.0849, 1106.082
608.5670, 1111.239
609.0491, 1120.789
609.5313, 1136.101
610.0134, 1144.728
610.4955, 1141.486
610.9776, 1138.381
611.4597, 1137.325
611.9418, 1139.283
612.4240, 1146.329
612.9061, 1159.062
613.3882, 1171.844
613.8703, 1181.930
614.3524, 1189.766
614.8345, 1195.000
615.3167, 1198.190
615.7988, 1202.075
616.2809, 1207.729
616.7630, 1216.040
617.2451, 1229.572
617.7272, 1252.291
618.2094, 1268.820
618.6915, 1273.252
619.1736, 1277.733
619.6557, 1286.801
620.1378, 1298.737
620.6199, 1310.728
621.1021, 1321.943
621.5842, 1332.794
622.0663, 1342.676
622.5484, 1352.626
623.0305, 1366.268
623.5126, 1383.596
623.9948, 1397.320
624.4769, 1401.917
624.9590, 1401.964
625.4411, 1410.948
625.9232, 1439.762
626.4053, 1457.363
626.8875, 1454.103
627.3696, 1450.391
627.8517, 1458.057
628.3338, 1473.087
628.8159, 1486.199
629.2980, 1494.053
629.7802, 1498.352
630.2623, 1499.862
630.7444, 1499.217
631.2265, 1497.748
631.7086, 1495.606
632.1907, 1494.730
632.6729, 1497.348
633.1550, 1501.560
633.6371, 1499.827
634.1192, 1485.508
634.6013, 1475.169
635.0834, 1471.382
635.5656, 1469.405
636.0477, 1466.902
636.5298, 1463.768
637.0119, 1460.265
637.4940, 1456.186
637.9761, 1452.832
638.4583, 1454.112
638.9404, 1457.487
639.4225, 1453.221
639.9046, 1439.464
640.3867, 1423.931
640.8688, 1412.851
641.3510, 1404.538
641.8331, 1390.962
642.3152, 1361.637
642.7973, 1342.330
643.2794, 1342.803
643.7615, 1345.249
644.2437, 1338.246
644.7258, 1323.332
645.2079, 1307.612
645.6900, 1294.495
646.1721, 1281.416
646.6542, 1264.227
647.1364, 1244.590
647.6185, 1227.834
648.1006, 1214.838
648.5827, 1205.393
649.0648, 1200.090
649.5469, 1197.879
650.0291, 1193.573
650.5112, 1184.240
650.9933, 1177.281
651.4754, 1175.862
651.9575, 1174.210
652.4396, 1168.659
652.9218, 1159.809
653.4039, 1149.546
653.8860, 1137.377
654.3681, 1127.287
654.8502, 1125.058
655.3323, 1128.203
655.8145, 1129.785
656.2966, 1128.696
656.7787, 1127.672
657.2608, 1128.913
657.7429, 1131.663
658.2250, 1132.671
658.7072, 1130.870
659.1893, 1129.158
659.6714, 1128.257
660.1535, 1126.914
660.6356, 1123.729
661.1177, 1119.587
661.5999, 1116.187
662.0820, 1113.092
662.5641, 1113.567
663.0462, 1124.570
663.5283, 1139.900
664.0104, 1146.644
664.4926, 1143.567
664.9747, 1137.691
665.4568, 1133.294
665.9389, 1130.638
666.4210, 1130.490
666.9031, 1132.772
667.3853, 1137.816
667.8674, 1150.712
668.3495, 1161.201
668.8316, 1161.660
669.3137, 1156.712
669.7958, 1156.095
670.2780, 1163.351
670.7601, 1171.966
671.2422, 1177.410
671.7243, 1182.133
672.2064, 1189.972
672.6885, 1200.683
673.1707, 1211.528
673.6528, 1221.163
674.1349, 1228.954
674.6170, 1231.883
675.0991, 1227.085
675.5812, 1232.410
676.0634, 1257.039
676.5455, 1279.352
677.0276, 1281.736
677.5097, 1276.405
677.9918, 1284.307
678.4739, 1312.377
678.9561, 1336.817
679.4382, 1342.480
679.9203, 1345.982
680.4024, 1363.927
680.8845, 1392.679
681.3666, 1419.351
681.8488, 1438.232
682.3309, 1455.051
682.8130, 1479.969
683.2951, 1512.560
683.7772, 1537.651
684.2593, 1551.814
684.7415, 1567.921
685.2236, 1590.185
685.7057, 1619.170
686.1878, 1658.874
686.6699, 1713.612
687.1520, 1757.682
687.6342, 1773.465
688.1163, 1793.123
688.5984, 1838.257
689.0805, 1897.157
689.5626, 1951.719
690.0447, 1996.475
690.5269, 2037.386
691.0090, 2079.758
691.4911, 2122.730
691.9732, 2159.013
692.4553, 2188.626
692.9374, 2236.145
693.4196, 2314.442
693.9017, 2403.896
694.3838, 2480.530
694.8659, 2543.535
695.3480, 2601.121
695.8301, 2651.139
696.3123, 2699.148
696.7944, 2738.824
697.2765, 2782.145
697.7586, 2847.680
698.2407, 2931.946
698.7228, 3002.705
699.2050, 3034.707
699.6871, 3050.671
700.1692, 3074.165
700.6513, 3103.251
701.1334, 3137.210
701.6155, 3175.009
702.0977, 3197.489
702.5798, 3183.518
703.0619, 3141.277
703.5440, 3126.211
704.0261, 3159.433
704.5082, 3169.476
704.9904, 3126.429
705.4725, 3075.411
705.9546, 3047.820
706.4367, 3036.063
706.9188, 3014.897
707.4009, 2975.548
707.8831, 2931.470
708.3652, 2887.789
708.8473, 2843.673
709.3294, 2798.435
709.8115, 2751.767
710.2936, 2703.567
710.7758, 2653.642
711.2579, 2602.823
711.7400, 2554.507
712.2221, 2508.620
712.7042, 2451.603
713.1863, 2379.090
713.6685, 2308.751
714.1506, 2252.919
714.6327, 2204.635
715.1148, 2146.109
715.5969, 2073.719
716.0790, 2002.359
716.5612, 1928.785
717.0433, 1861.081
717.5254, 1805.623
718.0075, 1757.829
718.4896, 1710.765
718.9717, 1662.595
719.4539, 1614.457
719.9360, 1566.220
720.4181, 1518.859
720.9002, 1471.559
721.3823, 1425.756
721.8644, 1389.959
722.3465, 1367.382
722.8286, 1353.617
723.3107, 1345.612
723.7928, 1343.365
724.2750, 1326.009
724.7571, 1277.982
725.2392, 1243.001
725.7213, 1240.674
726.2034, 1247.628
726.6855, 1249.253
727.1677, 1245.061
727.6498, 1236.641
728.1319, 1218.320
728.6140, 1203.092
729.0961, 1201.008
729.5782, 1203.924
730.0604, 1201.653
730.5425, 1193.557
731.0246, 1183.897
731.5067, 1174.617
731.9888, 1168.395
732.4709, 1173.079
732.9531, 1187.874
733.4352, 1194.762
733.9173, 1189.881
734.3994, 1185.178
734.8815, 1187.708
735.3636, 1195.735
735.8458, 1204.821
736.3279, 1216.568
736.8100, 1225.934
737.2921, 1229.544
737.7742, 1234.632
738.2563, 1245.258
738.7385, 1259.009
739.2206, 1272.110
739.7027, 1283.813
740.1848, 1296.405
740.6669, 1312.814
741.1490, 1322.683
741.6312, 1344.118
742.1133, 1362.654
742.5954, 1378.453
743.0775, 1383.313
743.5596, 1402.297
744.0417, 1415.622
744.5239, 1428.718
745.0060, 1449.691
745.4881, 1456.142
745.9702, 1476.991
746.4523, 1492.091
746.9344, 1508.704
747.4166, 1513.062
747.8987, 1508.784
748.3808, 1512.716
748.8629, 1538.684
749.3450, 1554.701
749.8271, 1547.442
750.3093, 1533.991
750.7914, 1526.196
751.2735, 1523.970
751.7556, 1524.289
752.2377, 1526.714
752.7198, 1526.055
753.2020, 1516.172
753.6841, 1499.597
754.1662, 1480.274
754.6483, 1459.195
755.1304, 1439.992
755.6125, 1424.227
756.0947, 1412.706
756.5768, 1407.563
757.0589, 1409.445
757.5410, 1409.619
758.0231, 1410.427
758.5052, 1404.533
758.9874, 1386.390
759.4695, 1362.931
759.9516, 1339.788
760.4337, 1317.241
760.9158, 1298.964
761.3979, 1290.119
761.8801, 1279.942
762.3622, 1262.288
762.8443, 1242.487
763.3264, 1226.313
763.8085, 1213.698
764.2906, 1201.526
764.7728, 1188.713
765.2549, 1173.430
765.7370, 1149.089
766.2191, 1120.625
766.7012, 1105.020
767.1833, 1103.520
767.6655, 1102.141
768.1476, 1092.977
768.6297, 1079.279
769.1118, 1066.856
769.5939, 1055.147
770.0760, 1048.251
770.5582, 1050.246
771.0403, 1050.183
771.5224, 1044.507
772.0045, 1034.119
772.4866, 1017.725
772.9688, 994.9739
773.4509, 978.2620
773.9330, 975.0283
774.4151, 972.2726
774.8972, 962.4567
775.3793, 951.0872
775.8615, 945.9812
776.3436, 946.5256
776.8257, 944.9224
777.3078, 935.8579
777.7899, 923.8430
778.2720, 911.5395
778.7542, 901.4063
779.2363, 903.6786
779.7184, 918.6138
780.2005, 930.8334
780.6826, 930.9415
781.1647, 923.2009
781.6469, 916.2196
782.1290, 910.0078
782.6111, 904.1697
783.0932, 897.8049
783.5753, 893.7416
784.0574, 896.5394
784.5396, 899.8898
785.0217, 891.6287
785.5038, 870.1038
785.9859, 862.3824
786.4680, 890.2830
786.9501, 909.5626
787.4323, 893.7386
787.9144, 868.3649
788.3965, 862.4531
788.8786, 874.6062
789.3607, 881.9750
789.8428, 869.5406
790.3250, 854.2631
790.8071, 855.4410
791.2892, 865.8693
791.7713, 871.6804
792.2534, 871.6379
792.7355, 870.7526
793.2177, 872.0226
793.6998, 871.0328
794.1819, 857.6122
794.6640, 831.0921
795.1461, 813.5351
795.6282, 806.5046
796.1104, 803.1780
796.5925, 802.5043
797.0746, 802.2556
797.5567, 799.4097
798.0388, 793.7594
798.5209, 788.4911
799.0031, 778.5411
799.4852, 775.7430
799.9673, 790.6754
800.4494, 806.4783
800.9315, 808.6544
801.4136, 800.0504
801.8958, 792.7065
802.3779, 790.3955
802.8600, 790.7626
803.3421, 796.1169
803.8242, 800.7370
804.3063, 795.1832
804.7885, 783.0129
805.2706, 776.4659
805.7527, 780.3052
806.2348, 786.2932
806.7169, 783.9807
807.1990, 775.8212
807.6812, 770.0067
808.1633, 766.6245
808.6454, 769.5202
809.1275, 780.8618
809.6096, 792.1975
810.0917, 794.8008
810.5739, 789.7386
811.0560, 784.8482
811.5381, 780.1239
812.0202, 775.5240
812.5023, 770.1853
812.9844, 766.0060
813.4666, 764.5683
813.9487, 764.9485
814.4308, 765.4698
814.9129, 766.1507
815.3950, 766.5494
815.8771, 767.7076
816.3593, 767.3615
816.8414, 762.3701
817.3235, 755.9678
817.8056, 752.6450
818.2877, 753.1672
818.7698, 755.2062
819.2520, 757.7581
819.7341, 760.5638
820.2162, 763.3323
820.6983, 766.1277
821.1804, 770.3552
821.6625, 775.4193
822.1447, 776.3249
822.6268, 769.4124
823.1089, 758.9028
823.5910, 753.3895
824.0731, 752.5557
824.5552, 748.2617
825.0374, 739.3132
825.5195, 731.3950
826.0016, 725.9693
826.4837, 725.2846
826.9658, 734.6027
827.4479, 755.5689
827.9301, 764.4472
828.4122, 751.2979
828.8943, 741.6989
829.3764, 744.3772
829.8585, 748.7727
830.3406, 746.8575
830.8228, 740.3615
831.3049, 735.7748
831.7870, 734.6771
832.2691, 734.6057
832.7512, 734.9783
833.2333, 735.9676
833.7155, 739.9782
834.1976, 743.9643
834.6797, 740.9496
835.1618, 729.4020
835.6439, 719.6655
836.1260, 722.3990
836.6082, 729.0726
837.0903, 727.9427
837.5724, 721.8936
838.0545, 717.7945
838.5366, 717.2238
839.0187, 719.7817
839.5009, 725.9378
839.9830, 732.4778
840.4651, 729.6888
840.9472, 718.5062
841.4293, 719.3282
841.9114, 735.8816
842.3936, 747.8869
842.8757, 744.2760
843.3578, 733.5189
843.8399, 728.8267
844.3220, 730.6277
844.8041, 735.1857
845.2863, 747.4033
845.7684, 753.3116
846.2505, 745.0796
846.7326, 733.5901
847.2147, 726.8232
847.6968, 724.2830
848.1790, 723.9985
848.6611, 727.2654
849.1432, 730.2620
849.6253, 734.9374
850.1074, 736.4374
850.5895, 728.6588
851.0717, 716.7684
851.5538, 708.9568
852.0359, 707.1216
852.5180, 708.8910
853.0001, 716.1570
853.4822, 723.3409
853.9644, 725.7213
854.4465, 724.2845
854.9286, 718.5391
855.4107, 710.2318
855.8928, 706.4663
856.3749, 712.3732
856.8571, 722.1595
857.3392, 728.8770
857.8213, 732.1818
858.3034, 728.9718
858.7855, 719.8432
859.2676, 713.9363
859.7498, 715.2151
860.2319, 719.7491
860.7140, 723.1185
861.1961, 725.1412
861.6782, 722.7405
862.1603, 714.1167
862.6425, 710.6031
863.1245, 715.9515
863.6066, 723.5330
864.0887, 729.0464
864.5709, 732.6844
865.0530, 734.9391
865.5351, 733.7388
866.0172, 735.7905
866.4993, 748.7339
866.9814, 755.7804
867.4636, 744.9360
867.9457, 729.5290
868.4278, 726.5650
868.9099, 736.1979
869.3920, 740.0005
869.8741, 725.1746
870.3563, 715.6371
870.8384, 725.1974
871.3205, 739.0297
871.8026, 745.8471
872.2847, 745.6122
872.7668, 740.2153
873.2490, 729.3998
873.7311, 721.6276
874.2132, 725.6337
874.6953, 733.1807
875.1774, 733.8891
875.6595, 731.8228
876.1417, 738.1536
876.6238, 753.6265
877.1059, 766.1608
877.5880, 766.4508
878.0701, 759.8527
878.5522, 752.4077
879.0344, 745.6026
879.5165, 746.1318
879.9986, 753.7425
880.4807, 759.6578
880.9628, 759.6072
881.4449, 756.4466
881.9271, 752.9741
882.4092, 749.8145
882.8913, 754.8805
883.3734, 769.6678
883.8555, 778.6083
884.3376, 776.6595
884.8198, 773.6507
885.3019, 778.2335
885.7840, 787.0939
886.2661, 787.8734
886.7482, 773.7782
887.2303, 771.0832
887.7125, 787.9470
888.1946, 802.9315
888.6767, 805.9402
889.1588, 804.2674
889.6409, 807.1828
890.1230, 814.5691
890.6052, 819.7941
891.0873, 820.9486
891.5694, 822.2443
892.0515, 820.4494
892.5336, 822.7765
893.0157, 839.2169
893.4979, 861.8403
893.9800, 873.7570
894.4621, 870.4343
894.9442, 866.9214
895.4263, 866.5293
895.9084, 870.0553
896.3906, 880.6141
896.8727, 893.7154
897.3548, 904.3163
897.8369, 911.8502
898.3190, 917.8890
898.8011, 922.5645
899.2833, 927.7780
899.7654, 934.8585
900.2475, 943.5599
900.7296, 953.9014
901.2117, 965.5349
901.6938, 977.4684
902.1760, 989.5060
902.6581, 1003.125
903.1402, 1021.332
903.6223, 1039.796
904.1044, 1048.569
904.5865, 1051.063
905.0687, 1059.153
905.5508, 1073.847
906.0329, 1088.277
906.5150, 1098.851
906.9971, 1106.568
907.4792, 1112.138
907.9614, 1115.988
908.4435, 1120.330
908.9256, 1125.075
909.4077, 1138.152
909.8898, 1163.368
910.3719, 1183.116
910.8541, 1180.710
911.3362, 1164.750
911.8183, 1165.387
912.3004, 1188.531
912.7825, 1194.575
913.2646, 1176.117
913.7468, 1158.423
914.2289, 1151.788
914.7110, 1150.335
915.1931, 1146.955
915.6752, 1141.761
916.1573, 1139.174
916.6395, 1142.562
917.1216, 1142.182
917.6037, 1137.818
918.0858, 1128.598
918.5679, 1109.471
919.0500, 1086.909
919.5322, 1074.040
920.0143, 1073.928
920.4964, 1066.850
920.9785, 1042.709
921.4606, 1023.181
921.9427, 1018.889
922.4249, 1017.264
922.9070, 1006.769
923.3891, 990.3426
923.8712, 978.1293
924.3533, 972.4724
924.8354, 969.7405
925.3176, 972.6116
925.7997, 973.8709
926.2818, 968.1943
926.7639, 959.1407
927.2460, 950.4185
927.7281, 942.9598
928.2103, 937.9808
928.6924, 938.2133
929.1745, 936.5394
929.6566, 926.6194
930.1387, 914.3751
930.6208, 904.5114
931.1030, 897.3607
931.5851, 892.0647
932.0672, 888.5993
932.5493, 889.1897
933.0314, 900.5927
933.5135, 910.7006
933.9957, 901.2959
934.4778, 884.6734
934.9599, 881.1021
935.4420, 890.1842
935.9241, 902.1652
936.4063, 912.8277
936.8884, 921.3676
937.3705, 927.5205
937.8526, 930.6841
938.3347, 927.9902
938.8168, 921.4820
939.2990, 915.3604
939.7811, 911.4182
940.2632, 915.5961
940.7453, 932.3486
941.2274, 952.4033
941.7095, 960.4296
942.1917, 959.7595
942.6738, 963.1127
943.1559, 970.2167
943.6380, 975.7281
944.1201, 978.1619
944.6022, 980.2195
945.0844, 984.4919
945.5665, 988.8027
946.0486, 985.0988
946.5307, 974.4624
947.0128, 976.0085
947.4949, 991.2210
947.9771, 1007.098
948.4592, 1019.129
948.9413, 1026.342
949.4234, 1026.475
949.9055, 1021.938
950.3876, 1024.470
950.8698, 1034.661
951.3519, 1047.787
951.8340, 1065.113
952.3161, 1076.351
952.7982, 1075.038
953.2803, 1068.744
953.7625, 1068.403
954.2446, 1073.771
954.7267, 1078.249
955.2088, 1082.776
955.6909, 1082.841
956.1730, 1077.151
956.6552, 1068.091
957.1373, 1055.951
957.6194, 1042.728
958.1015, 1032.643
958.5836, 1026.488
959.0657, 1016.947
959.5479, 1000.437
960.0300, 988.6002
960.5121, 986.3820
960.9942, 985.8022
961.4763, 980.9918
961.9584, 973.6932
962.4406, 969.1931
962.9227, 970.7234
963.4048, 963.9555
963.8869, 939.7021
964.3690, 921.0356
964.8511, 917.7521
965.3333, 918.2457
965.8154, 912.8684
966.2975, 903.1997
966.7796, 895.6752
967.2617, 893.0099
967.7438, 886.5332
968.2260, 871.3149
968.7081, 858.1696
969.1902, 852.9959
969.6723, 849.6647
970.1544, 841.8555
970.6365, 830.3305
971.1187, 820.4118
971.6008, 813.3571
972.0829, 806.4631
972.5650, 796.7950
973.0471, 790.3414
973.5292, 793.4628
974.0114, 798.7769
974.4935, 796.8314
974.9756, 787.9951
975.4577, 781.3101
975.9398, 777.9417
976.4219, 777.3344
976.9041, 781.7965
977.3862, 786.3618
977.8683, 789.9733
978.3504, 790.9829
978.8325, 784.6522
979.3146, 771.5802
979.7968, 765.8551
980.2789, 780.8626
980.7610, 789.7552
981.2431, 778.3494
981.7252, 764.9672
982.2073, 760.6340
982.6895, 763.5443
983.1716, 772.1840
983.6537, 785.8282
984.1358, 792.2067
984.6179, 779.6536
985.1000, 769.5131
985.5822, 773.5327
986.0643, 779.5286
986.5464, 778.8250
987.0285, 772.6395
987.5106, 761.8670
987.9927, 746.7941
988.4749, 740.9721
988.9570, 762.2612
989.4391, 777.4026
989.9212, 764.8207
990.4033, 745.4543
990.8854, 735.2859
991.3676, 733.4334
991.8497, 735.8083
992.3318, 741.6555
992.8139, 744.9355
993.2960, 737.9312
993.7781, 734.2815
994.2603, 746.3271
994.7424, 760.5216
995.2245, 763.1931
995.7066, 757.5831
996.1887, 753.8907
996.6708, 754.8669
997.1530, 753.4908
997.6351, 740.3032
998.1172, 731.6244
998.5993, 742.9153
999.0814, 758.0492
999.5635, 758.9372
1000.046, 750.2108
1000.528, 747.7800
1001.010, 756.5790
1001.492, 762.5009
1001.974, 752.9673
1002.456, 746.1154
1002.938, 758.9427
1003.420, 774.4719
1003.903, 771.3025
1004.385, 756.1178
1004.867, 751.0727
1005.349, 763.0716
1005.831, 774.8156
1006.313, 779.7693
1006.795, 780.7421
1007.277, 775.2618
1007.759, 769.8638
1008.242, 773.8334
1008.724, 783.3133
1009.206, 785.5346
1009.688, 775.8694
1010.170, 770.0769
1010.652, 778.9774
1011.134, 789.0433
1011.616, 794.4688
1012.099, 795.7833
1012.581, 790.9479
1013.063, 783.1567
1013.545, 780.6334
1014.027, 786.3239
1014.509, 790.3729
1014.991, 785.6105
1015.473, 782.1164
1015.955, 788.7612
1016.438, 796.2646
1016.920, 795.8690
1017.402, 788.5117
1017.884, 776.7231
1018.366, 759.4846
1018.848, 750.7810
1019.330, 766.7322
1019.812, 778.3569
1020.294, 767.9890
1020.777, 750.5239
1021.259, 736.3307
1021.741, 727.3569
1022.223, 726.7888
1022.705, 736.8337
1023.187, 742.2764
1023.669, 730.7895
1024.151, 723.9476
1024.634, 738.0506
1025.116, 753.4822
1025.598, 752.5297
1026.080, 740.2865
1026.562, 728.7351
1027.044, 718.9527
1027.526, 716.7637
1028.008, 730.4003
1028.490, 742.4518
1028.973, 746.7722
1029.455, 748.0968
1029.937, 751.8959
1030.419, 754.7878
1030.901, 746.7092
1031.383, 724.0264
1031.865, 714.1960
1032.347, 734.5798
1032.830, 749.4991
1033.312, 745.4548
1033.794, 738.6013
1034.276, 741.5941
1034.758, 748.0698
1035.240, 743.9583
1035.722, 726.6734
1036.204, 719.1483
1036.687, 733.8932
1037.169, 742.2776
1037.651, 734.2671
1038.133, 725.5447
1038.615, 725.7168
1039.097, 729.9061
1039.579, 730.5966
1040.061, 727.5841
1040.543, 725.4595
1041.026, 724.6777
1041.508, 723.9500
1041.990, 723.1027
1042.472, 722.2679
1042.954, 720.0892
1043.436, 719.3630
1043.918, 725.1915
1044.400, 737.0896
1044.882, 743.0197
1045.365, 741.3391
1045.847, 737.4091
1046.329, 729.1083
1046.811, 724.2932
1047.293, 728.0852
1047.775, 733.8591
1048.257, 733.0301
1048.739, 727.3458
1049.222, 729.5118
1049.704, 742.6523
1050.186, 749.8164
1050.668, 748.7109
1051.150, 747.1432
1051.632, 748.4764
1052.114, 748.2265
1052.596, 740.5701
1053.078, 729.4771
1053.561, 730.8073
1054.043, 745.8637
1054.525, 755.2613
1055.007, 757.9217
1055.489, 758.4652
1055.971, 757.8051
1056.453, 760.1075
1056.935, 770.1532
1057.417, 781.3016
1057.900, 776.2718
1058.382, 756.8032
1058.864, 743.1291
1059.346, 735.5714
1059.828, 735.1749
1060.310, 741.8931
1060.792, 744.7302
1061.274, 735.9309
1061.757, 722.9246
1062.239, 715.5680
1062.721, 714.2428
1063.203, 724.7871
1063.685, 742.8256
1064.167, 746.5640
1064.649, 734.8276
1065.131, 728.2784
1065.614, 737.6754
1066.096, 747.8531
1066.578, 737.8745
1067.060, 719.5723
1067.542, 712.8524
1068.024, 715.2827
1068.506, 726.0916
1068.988, 740.9126
1069.470, 745.1351
1069.953, 734.0164
1070.435, 723.3671
1070.917, 726.9188
1071.399, 735.9556
1071.881, 744.3126
1072.363, 750.0963
1072.845, 748.6885
1073.327, 743.1249
1073.809, 739.7557
1074.292, 740.3195
1074.774, 744.1657
1075.256, 753.2874
1075.738, 761.2351
1076.220, 763.9517
1076.702, 763.8391
1077.184, 763.8753
1077.666, 761.9776
1078.148, 751.8024
1078.631, 735.4258
1079.113, 727.3511
1079.595, 736.2330
1080.077, 743.1464
1080.559, 738.1037
1081.041, 734.0363
1081.523, 739.9564
1082.005, 748.1732
1082.488, 750.1658
1082.970, 747.4644
1083.452, 746.5096
1083.934, 747.2031
1084.416, 752.2558
1084.898, 770.1008
1085.380, 780.8730
1085.862, 774.9807
1086.344, 766.1987
1086.827, 762.3746
1087.309, 762.2687
1087.791, 764.0318
1088.273, 768.0023
1088.755, 769.4585
1089.237, 765.6247
1089.719, 767.2614
1090.201, 778.4175
1090.683, 788.2459
1091.166, 790.7366
1091.648, 790.5504
1092.130, 794.1893
1092.612, 800.4354
1093.094, 800.9742
1093.576, 795.1608
1094.058, 792.2985
1094.540, 793.1173
1095.023, 797.2931
1095.505, 805.1219
1095.987, 810.5928
1096.469, 807.4869
1096.951, 800.9739
1097.433, 802.1671
1097.915, 809.9907
1098.397, 822.1084
1098.880, 836.5366
1099.362, 843.0204
1099.844, 840.0400
1100.326, 833.8126
1100.808, 827.6371
1101.290, 824.8964
1101.772, 832.9193
1102.254, 844.5500
1102.736, 846.8323
1103.219, 844.5663
1103.701, 847.0426
1104.183, 854.2792
1104.665, 862.8914
1105.147, 871.4294
1105.629, 876.0498
1106.111, 870.6827
1106.593, 864.8047
1107.075, 865.0829
1107.558, 868.5293
1108.040, 872.6334
1108.522, 877.5552
1109.004, 885.3895
1109.486, 895.5135
1109.968, 901.4657
1110.450, 897.7414
1110.932, 896.7930
1111.415, 905.9709
1111.897, 914.0588
1112.379, 913.5448
1112.861, 910.9807
1113.343, 913.9672
1113.825, 920.7118
1114.307, 923.8894
1114.789, 923.5760
1115.271, 918.7455
1115.754, 904.0823
1116.236, 895.8613
1116.718, 902.6507
1117.200, 905.8619
1117.682, 892.2213
1118.164, 871.6004
1118.646, 859.4338
1119.128, 855.3425
1119.610, 855.7750
1120.093, 861.9900
1120.575, 856.2797
1121.057, 835.4589
1121.539, 823.0440
1122.021, 828.6525
1122.503, 839.0679
1122.985, 842.6807
1123.467, 840.0008
1123.950, 829.3636
1124.432, 813.7657
1124.914, 804.8826
1125.396, 801.1553
1125.878, 794.7676
1126.360, 784.3224
1126.842, 772.3341
1127.324, 760.0013
1127.807, 749.3305
1128.289, 741.0109
1128.771, 736.8678
1129.253, 744.5762
1129.735, 753.9730
1130.217, 747.7129
1130.699, 731.6217
1131.181, 723.4810
1131.663, 727.3801
1132.146, 732.3068
1132.628, 737.3435
1133.110, 736.4954
1133.592, 722.1105
1134.074, 706.9319
1134.556, 700.2320
1135.038, 696.4043
1135.520, 686.7120
1136.002, 672.8812
1136.485, 666.4321
1136.967, 671.6674
1137.449, 674.9606
1137.931, 675.2183
1138.413, 675.8314
1138.895, 680.0108
1139.377, 679.4340
1139.859, 665.4532
1140.342, 648.9482
1140.824, 650.4175
1141.306, 667.4940
1141.788, 668.9351
1142.270, 653.7747
1142.752, 642.3403
1143.234, 636.6967
1143.716, 632.6772
1144.198, 628.7090
1144.681, 625.5137
1145.163, 623.8101
1145.645, 622.9006
1146.127, 621.4153
1146.609, 619.8313
1147.091, 618.2354
1147.573, 617.8080
1148.055, 625.4120
1148.537, 638.0004
1149.020, 637.0556
1149.502, 614.0529
1149.984, 594.5704
1150.466, 603.8445
1150.948, 615.8375
1151.430, 609.5486
1151.912, 597.8862
1152.394, 589.9141
1152.877, 587.7141
1153.359, 596.8588
1153.841, 615.6880
1154.323, 623.4230
1154.805, 607.0851
1155.287, 595.9810
1155.769, 598.8605
1156.251, 600.8472
1156.734, 596.1347
1157.216, 590.1573
1157.698, 586.5682
1158.180, 585.0216
1158.662, 585.3012
1159.144, 587.5926
1159.626, 585.2816
1160.108, 577.0497
1160.590, 575.0533
1161.073, 581.3890
1161.555, 589.2099
1162.037, 596.0032
1162.519, 597.0843
1163.001, 586.0553
1163.483, 571.4396
1163.965, 573.3260
1164.447, 584.5677
1164.929, 585.5641
1165.412, 579.3250
1165.894, 577.2682
1166.376, 580.6047
1166.858, 583.8533
1167.340, 584.6465
1167.822, 584.1235
1168.304, 583.3879
1168.786, 581.3041
1169.269, 575.7248
1169.751, 569.6778
1170.233, 566.1185
1170.715, 564.0581
1171.197, 560.7357
1171.679, 556.3974
1172.161, 555.8628
1172.643, 562.3561
1173.125, 567.7649
1173.608, 574.6653
1174.090, 575.0121
1174.572, 561.2490
1175.054, 549.4302
1175.536, 551.0829
1176.018, 561.3777
1176.500, 572.8604
1176.982, 584.8977
1177.464, 588.4382
1177.947, 583.5118
1178.429, 578.2527
1178.911, 573.8314
1179.393, 578.7701
1179.875, 595.2526
1180.357, 606.4207
1180.839, 598.5665
1181.321, 583.0509
1181.804, 572.0001
1182.286, 565.7331
1182.768, 567.6002
1183.250, 572.8847
1183.732, 573.4756
1184.214, 569.9056
1184.696, 566.7759
1185.178, 565.3839
1185.661, 564.3781
1186.143, 563.1333
1186.625, 562.2496
1187.107, 558.8873
1187.589, 559.5388
1188.071, 575.1781
1188.553, 590.4985
1189.035, 585.8782
1189.517, 568.6095
1190.000, 560.6210
1190.482, 562.8803
1190.964, 569.1650
1191.446, 582.2415
1191.928, 584.7454
1192.410, 572.5083
1192.892, 561.7393
1193.374, 560.0602
1193.856, 560.9875
1194.339, 557.1659
1194.821, 553.2001
1195.303, 562.2913
1195.785, 577.0262
1196.267, 575.6453
1196.749, 564.9092
1197.231, 565.6149
1197.713, 577.8482
1198.196, 586.9158
1198.678, 587.1372
1199.160, 583.3763
1199.642, 576.6221
1200.124, 569.2372
1200.606, 559.5696
1201.088, 552.8907
1201.570, 556.3231
1202.052, 562.7418
1202.535, 562.0997
1203.017, 555.5546
1203.499, 551.8615
1203.981, 551.3608
1204.463, 552.6962
1204.945, 557.1383
1205.427, 559.0776
1205.909, 557.2205
1206.391, 553.6399
1206.874, 548.7649
1207.356, 546.9046
1207.838, 554.5155
1208.320, 565.0574
1208.802, 560.0663
1209.284, 546.5729
1209.766, 546.4811
1210.248, 555.6095
1210.731, 558.8868
1211.213, 555.3435
1211.695, 553.8826
1212.177, 558.0762
1212.659, 561.9976
1213.141, 561.4601
1213.623, 560.4718
1214.105, 563.4969
1214.588, 564.2184
1215.070, 553.3040
1215.552, 541.0616
1216.034, 543.0610
1216.516, 555.2866
1216.998, 558.6519
1217.480, 550.3922
1217.962, 548.6632
1218.444, 555.4882
1218.927, 560.9026
1219.409, 563.5732
1219.891, 562.5227
1220.373, 556.8163
1220.855, 553.2365
1221.337, 559.4786
1221.819, 569.0017
1222.301, 568.5309
1222.783, 562.6623
1223.266, 561.9274
1223.748, 563.4502
1224.230, 557.9467
1224.712, 547.9081
1225.194, 546.3529
1225.676, 556.9147
1226.158, 564.3011
1226.640, 560.0007
1227.122, 553.5751
1227.605, 542.5417
1228.087, 537.1279
1228.569, 548.6624
1229.051, 562.1465
1229.533, 562.6099
1230.015, 557.2109
1230.497, 564.2179
1230.979, 583.5358
1231.462, 582.1288
1231.944, 558.4118
1232.426, 544.4550
1232.908, 543.3286
1233.390, 547.2469
1233.872, 553.3780
1234.354, 560.1871
1234.836, 567.1865
1235.318, 570.1442
1235.801, 560.6788
1236.283, 547.8046
1236.765, 539.5815
1237.247, 536.6245
1237.729, 544.6519
1238.211, 555.9072
1238.693, 553.3820
1239.175, 536.7549
1239.657, 526.8779
1240.140, 529.6133
1240.622, 535.3682
1241.104, 548.5595
1241.586, 554.6177
1242.068, 547.0114
1242.550, 539.8496
1243.032, 540.8226
1243.514, 547.3691
1243.997, 557.5342
1244.479, 568.3290
1244.961, 570.5016
1245.443, 565.7230
1245.925, 558.2087
1246.407, 549.8823
1246.889, 545.1408
1247.371, 544.8027
1247.854, 549.2388
1248.336, 558.4642
1248.818, 565.8071
1249.300, 566.7624
1249.782, 565.6118
1250.264, 562.2605
1250.746, 559.8378
1251.228, 561.9203
1251.710, 564.3032
1252.193, 561.7482
1252.675, 556.9611
1253.157, 556.7245
1253.639, 561.0167
1254.121, 558.6808
1254.603, 548.7546
1255.085, 549.7462
1255.567, 562.9284
1256.049, 574.0722
1256.532, 578.6125
1257.014, 573.8776
1257.496, 557.0859
1257.978, 541.9550
1258.460, 546.6473
1258.942, 556.2327
1259.424, 553.8384
1259.906, 549.1306
1260.389, 556.9402
1260.871, 567.4848
1261.353, 560.1991
1261.835, 538.1109
1262.317, 529.8775
1262.799, 543.5388
1263.281, 551.2004
1263.763, 551.2478
1264.245, 549.2896
1264.728, 545.0713
1265.210, 545.2946
1265.692, 553.7927
1266.174, 557.2904
1266.656, 542.0404
1267.138, 521.8932
1267.620, 521.1741
1268.102, 531.6674
1268.584, 541.9030
1269.067, 549.2856
1269.549, 547.9503
1270.031, 541.1549
##END=



