##NAMES=Trilithionite
##RRUFFID=R050486
##IDEAL CHEMISTRY=KLi_1.5_Al_1.5_(Si_3_Al)O_10_F_2_
##LOCALITY=Cotopaxie, Colorado, USA
##OWNER=RRUFF
##SOURCE=California Institute of Technology
##DESCRIPTION=Microcrystalline massive, no visible indication of foliation, polytype 1M
##STATUS=The identification of this mineral has been confirmed by X-ray diffraction and chemical analysis
##URL=rruff.info/R050486
##MEASURED CHEMISTRY=(K_0.98_Ca_0.02_)(Li_0.53_Al_0.47_)_3_(Si_0.79_Al_0.21_)_4_O_10_(OH)_2_
93.30109, 0.0000000E+00
93.78320, 112.3090
94.26532, 111.4860
94.74744, 111.8252
95.22955, 113.0561
95.71167, 114.9888
96.19379, 116.7838
96.67590, 118.7731
97.15802, 120.4163
97.64014, 121.5122
98.12225, 122.2426
98.60437, 122.9553
99.08649, 123.8377
99.56860, 124.7298
100.0507, 125.4696
100.5328, 125.9590
101.0150, 125.9972
101.4971, 125.4058
101.9792, 124.1887
102.4613, 122.7242
102.9434, 120.9090
103.4255, 118.9784
103.9077, 117.0807
104.3898, 115.2502
104.8719, 113.4684
105.3540, 111.7130
105.8361, 110.0324
106.3182, 108.2452
106.8004, 106.1555
107.2825, 103.9791
107.7646, 101.9279
108.2467, 100.1119
108.7288, 98.53233
109.2109, 97.30220
109.6931, 96.77630
110.1752, 96.22117
110.6573, 95.38506
111.1394, 94.33689
111.6215, 93.29884
112.1036, 92.46432
112.5858, 91.85499
113.0679, 91.35278
113.5500, 90.98177
114.0321, 90.68766
114.5142, 90.46841
114.9964, 90.32264
115.4785, 90.16286
115.9606, 89.86594
116.4427, 89.44057
116.9248, 89.02377
117.4069, 88.57275
117.8891, 88.15627
118.3712, 87.94530
118.8533, 88.07408
119.3354, 88.26270
119.8175, 88.25280
120.2996, 88.05782
120.7818, 87.79068
121.2639, 87.45414
121.7460, 87.03787
122.2281, 86.83303
122.7102, 87.27661
123.1923, 87.69214
123.6745, 87.68121
124.1566, 87.18608
124.6387, 86.47569
125.1208, 85.92252
125.6029, 85.58086
126.0850, 85.29913
126.5672, 84.99567
127.0493, 84.76467
127.5314, 84.71785
128.0135, 84.89440
128.4956, 85.20460
128.9777, 85.39969
129.4599, 85.49508
129.9420, 85.43739
130.4241, 85.13340
130.9062, 84.68701
131.3883, 84.21754
131.8704, 83.76708
132.3526, 83.37404
132.8347, 83.24763
133.3168, 83.61104
133.7989, 83.95425
134.2810, 84.05564
134.7632, 83.94273
135.2453, 83.76680
135.7274, 83.58508
136.2095, 83.42366
136.6916, 83.34864
137.1737, 83.46832
137.6559, 83.61214
138.1380, 83.58006
138.6201, 83.33582
139.1022, 83.08509
139.5843, 82.95034
140.0664, 82.89503
140.5486, 82.88551
141.0307, 82.92788
141.5128, 83.00341
141.9949, 83.05612
142.4770, 83.07674
142.9591, 83.08617
143.4413, 83.07907
143.9234, 83.06899
144.4055, 83.08241
144.8876, 83.14906
145.3697, 83.26949
145.8518, 83.34673
146.3340, 83.30866
146.8161, 83.28878
147.2982, 83.34081
147.7803, 83.45164
148.2624, 83.57232
148.7445, 83.65433
149.2267, 83.68550
149.7088, 83.72368
150.1909, 83.84689
150.6730, 83.91687
151.1551, 83.77438
151.6372, 83.43595
152.1194, 83.13557
152.6015, 83.19579
153.0836, 83.87783
153.5657, 84.18430
154.0478, 83.79133
154.5299, 83.17793
155.0121, 82.81441
155.4942, 82.82336
155.9763, 83.03765
156.4584, 83.27045
156.9405, 83.54250
157.4226, 83.70106
157.9048, 83.60278
158.3869, 83.36549
158.8690, 83.26871
159.3511, 83.46500
159.8332, 83.69203
160.3153, 83.55045
160.7975, 83.02260
161.2796, 82.63207
161.7617, 82.83837
162.2438, 83.58733
162.7259, 84.14693
163.2081, 84.25160
163.6902, 84.17098
164.1723, 84.08403
164.6544, 84.00898
165.1365, 83.94174
165.6186, 83.87667
166.1008, 83.81300
166.5829, 83.75818
167.0650, 83.60873
167.5471, 83.53504
168.0292, 83.73085
168.5113, 84.22476
168.9935, 84.77657
169.4756, 84.96516
169.9577, 84.56071
170.4398, 84.21309
170.9219, 83.95580
171.4040, 83.77486
171.8862, 83.68119
172.3683, 83.67441
172.8504, 83.71064
173.3325, 83.68338
173.8146, 83.41948
174.2967, 83.30534
174.7789, 83.43300
175.2610, 83.68763
175.7431, 83.92794
176.2252, 84.08970
176.7073, 84.21706
177.1894, 84.46032
177.6716, 84.92424
178.1537, 85.36174
178.6358, 85.79281
179.1179, 86.16502
179.6000, 86.33268
180.0821, 86.15515
180.5643, 85.81763
181.0464, 85.89608
181.5285, 86.57555
182.0106, 87.31536
182.4927, 87.93439
182.9748, 88.42518
183.4570, 88.74189
183.9391, 88.81355
184.4212, 88.70913
184.9033, 88.58571
185.3854, 88.34985
185.8675, 88.25229
186.3497, 88.60216
186.8318, 89.41460
187.3139, 90.14001
187.7960, 90.41460
188.2781, 90.52178
188.7602, 90.76594
189.2424, 91.22721
189.7245, 91.79166
190.2066, 92.33082
190.6887, 92.85218
191.1708, 93.32030
191.6530, 93.64647
192.1351, 93.95021
192.6172, 94.37076
193.0993, 94.97972
193.5814, 95.62910
194.0635, 95.95419
194.5457, 95.63654
195.0278, 95.64632
195.5099, 96.55328
195.9920, 97.67239
196.4741, 98.28512
196.9562, 98.05415
197.4384, 97.28399
197.9205, 96.86380
198.4026, 97.18717
198.8847, 97.34010
199.3668, 97.14302
199.8489, 96.74725
200.3311, 96.31873
200.8132, 95.94085
201.2953, 95.59340
201.7774, 95.20071
202.2595, 94.71284
202.7416, 94.23046
203.2238, 93.72168
203.7059, 93.23106
204.1880, 92.81279
204.6701, 92.49843
205.1522, 92.27605
205.6343, 92.10008
206.1165, 91.93902
206.5986, 91.84993
207.0807, 91.99319
207.5628, 92.20984
208.0449, 92.16090
208.5270, 91.62189
209.0092, 90.75706
209.4913, 90.25837
209.9734, 90.33829
210.4555, 90.44064
210.9376, 90.36357
211.4197, 90.15546
211.9019, 89.95329
212.3840, 89.83961
212.8661, 89.76414
213.3482, 89.57559
213.8303, 89.15309
214.3124, 88.81543
214.7946, 88.87871
215.2767, 89.24887
215.7588, 89.39587
216.2409, 88.99490
216.7230, 88.28066
217.2052, 87.69105
217.6873, 87.20075
218.1694, 86.90977
218.6515, 87.04713
219.1336, 87.59023
219.6157, 87.91621
220.0979, 87.68021
220.5800, 87.16172
221.0621, 86.65285
221.5442, 86.17506
222.0263, 85.74300
222.5084, 85.40199
222.9906, 85.16369
223.4727, 84.86933
223.9548, 84.35752
224.4369, 83.84023
224.9190, 83.49924
225.4011, 83.37215
225.8833, 83.30833
226.3654, 83.11263
226.8475, 82.74752
227.3296, 82.43462
227.8117, 82.26003
228.2938, 82.12705
228.7760, 81.99746
229.2581, 81.85886
229.7402, 81.69396
230.2223, 81.47784
230.7044, 81.20126
231.1865, 80.89822
231.6687, 80.44140
232.1508, 80.05178
232.6329, 79.92269
233.1150, 80.06693
233.5971, 80.29319
234.0792, 80.28149
234.5614, 79.78154
235.0435, 79.68569
235.5256, 80.43276
236.0077, 81.22220
236.4898, 81.46700
236.9719, 81.11440
237.4541, 80.61401
237.9362, 80.60196
238.4183, 81.36784
238.9004, 81.92872
239.3825, 82.14338
239.8646, 82.29527
240.3468, 82.55874
240.8289, 82.95947
241.3110, 83.40720
241.7931, 83.78815
242.2752, 84.03769
242.7573, 84.41223
243.2395, 84.88745
243.7216, 85.48100
244.2037, 86.28409
244.6858, 87.26588
245.1679, 88.23144
245.6501, 88.94909
246.1322, 89.32413
246.6143, 89.82358
247.0964, 90.56321
247.5785, 91.32837
248.0606, 91.91888
248.5428, 92.34573
249.0249, 92.84798
249.5070, 93.68673
249.9891, 94.94168
250.4712, 95.98862
250.9533, 96.71912
251.4355, 97.34426
251.9176, 97.92757
252.3997, 98.50401
252.8818, 99.22830
253.3639, 100.2745
253.8460, 101.6527
254.3282, 102.8406
254.8103, 103.6503
255.2924, 104.4239
255.7745, 105.4108
256.2566, 106.6012
256.7387, 107.7921
257.2209, 108.8269
257.7030, 109.7306
258.1851, 110.7217
258.6672, 111.8699
259.1493, 113.0437
259.6314, 114.1660
260.1136, 115.2366
260.5957, 116.2779
261.0778, 117.3641
261.5599, 118.3968
262.0420, 119.1825
262.5241, 119.7502
263.0063, 120.0337
263.4884, 119.8924
263.9705, 119.3652
264.4526, 118.8024
264.9347, 118.4313
265.4168, 118.0676
265.8990, 117.4390
266.3811, 116.5618
266.8632, 115.3658
267.3453, 113.5672
267.8274, 111.2714
268.3095, 109.3302
268.7917, 108.3658
269.2738, 107.6253
269.7559, 106.0496
270.2380, 103.4744
270.7201, 100.8801
271.2022, 98.99966
271.6844, 97.73804
272.1665, 96.39484
272.6486, 94.65134
273.1307, 92.94912
273.6128, 91.73683
274.0949, 91.00387
274.5771, 90.34666
275.0592, 89.46623
275.5413, 88.41196
276.0234, 87.49098
276.5055, 86.79533
276.9876, 86.18507
277.4698, 85.51535
277.9519, 84.81025
278.4340, 84.18536
278.9161, 83.74245
279.3982, 83.44590
279.8803, 83.12825
280.3625, 82.77504
280.8446, 82.40897
281.3267, 82.03291
281.8088, 81.65660
282.2909, 81.30286
282.7730, 81.02318
283.2552, 80.77487
283.7373, 80.38438
284.2194, 79.72169
284.7015, 79.16654
285.1836, 78.99306
285.6658, 79.00489
286.1479, 78.89041
286.6300, 78.44395
287.1121, 77.85061
287.5942, 77.58409
288.0764, 77.84272
288.5585, 77.95719
289.0406, 77.51985
289.5227, 76.89168
290.0048, 76.45376
290.4869, 76.35123
290.9691, 76.43797
291.4512, 76.49217
291.9333, 76.53673
292.4154, 76.47378
292.8975, 76.12509
293.3796, 75.75151
293.8618, 75.58099
294.3439, 75.67104
294.8260, 75.84495
295.3081, 75.88423
295.7902, 75.77297
296.2723, 75.60247
296.7545, 75.29672
297.2366, 74.99767
297.7187, 74.78958
298.2008, 74.67809
298.6829, 74.61140
299.1650, 74.57455
299.6472, 74.58411
300.1293, 74.45938
300.6114, 74.02187
301.0935, 73.59206
301.5756, 73.26308
302.0577, 73.05783
302.5399, 72.99710
303.0220, 73.13515
303.5041, 73.46188
303.9862, 73.76978
304.4683, 74.20942
304.9504, 74.43363
305.4326, 74.21088
305.9147, 73.70618
306.3968, 73.21612
306.8789, 72.91542
307.3610, 72.77061
307.8431, 72.63640
308.3253, 72.45467
308.8074, 72.38830
309.2895, 72.59139
309.7716, 72.87967
310.2537, 73.02787
310.7358, 72.93262
311.2180, 72.67492
311.7001, 72.40359
312.1822, 72.02902
312.6643, 71.84686
313.1464, 72.07610
313.6285, 72.39730
314.1107, 72.53548
314.5928, 72.41949
315.0749, 72.21611
315.5570, 72.19804
316.0391, 72.46320
316.5212, 72.55178
317.0034, 72.20614
317.4855, 71.83393
317.9676, 71.63371
318.4497, 71.63138
318.9318, 71.76133
319.4139, 72.02287
319.8961, 72.44807
320.3782, 72.68514
320.8603, 72.52614
321.3424, 72.36271
321.8245, 72.34998
322.3066, 72.45654
322.7888, 72.58713
323.2709, 72.70100
323.7530, 72.78306
324.2351, 72.69534
324.7172, 72.22347
325.1993, 71.88538
325.6815, 71.96420
326.1636, 72.22678
326.6457, 72.33599
327.1278, 72.10941
327.6099, 71.68214
328.0920, 71.35665
328.5742, 71.09720
329.0563, 71.03319
329.5384, 71.31679
330.0205, 71.71449
330.5026, 72.07285
330.9847, 72.34721
331.4669, 72.47884
331.9490, 72.32215
332.4311, 71.77919
332.9132, 71.38042
333.3953, 71.35855
333.8774, 71.39004
334.3596, 71.29588
334.8417, 71.07146
335.3238, 70.83569
335.8059, 70.68771
336.2880, 70.62756
336.7701, 70.62825
337.2523, 70.72411
337.7344, 70.84777
338.2165, 70.97205
338.6986, 71.09810
339.1807, 71.23593
339.6628, 71.40469
340.1450, 71.58625
340.6271, 71.72597
341.1092, 71.86195
341.5913, 71.87186
342.0735, 71.61745
342.5556, 71.25894
343.0377, 70.99966
343.5198, 70.93199
344.0019, 70.94024
344.4840, 70.78994
344.9662, 70.39935
345.4483, 70.20479
345.9304, 70.51572
346.4125, 70.97757
346.8946, 71.42785
347.3767, 71.83888
347.8589, 72.05730
348.3410, 71.81126
348.8231, 71.11646
349.3052, 70.64587
349.7873, 70.57535
350.2694, 70.67165
350.7516, 70.80772
351.2337, 70.96815
351.7158, 71.10481
352.1979, 71.22523
352.6800, 71.30274
353.1621, 71.22668
353.6443, 70.93434
354.1264, 70.62666
354.6085, 70.32945
355.0906, 70.10832
355.5727, 70.11025
356.0548, 70.48382
356.5370, 70.98026
357.0191, 71.25173
357.5012, 71.27658
357.9833, 71.31287
358.4654, 71.55865
358.9475, 71.80872
359.4297, 71.77138
359.9118, 71.35560
360.3939, 70.96714
360.8760, 70.96645
361.3581, 71.27550
361.8402, 71.50145
362.3224, 71.55895
362.8045, 71.49506
363.2866, 71.25512
363.7687, 70.86993
364.2508, 70.72062
364.7329, 71.19886
365.2151, 71.93259
365.6972, 72.24886
366.1793, 72.03688
366.6614, 71.74741
367.1435, 71.71413
367.6256, 71.87341
368.1078, 72.02453
368.5899, 72.04586
369.0720, 72.13240
369.5541, 72.56321
370.0362, 73.26880
370.5183, 73.77011
371.0005, 73.81228
371.4826, 73.53162
371.9647, 73.23048
372.4468, 72.85305
372.9289, 72.59333
373.4110, 72.61094
373.8932, 72.78226
374.3753, 72.86458
374.8574, 72.78255
375.3395, 72.67966
375.8216, 72.77235
376.3037, 73.09690
376.7859, 73.27428
377.2680, 73.06786
377.7501, 72.83653
378.2322, 72.95171
378.7143, 73.39657
379.1964, 73.82509
379.6786, 73.98557
380.1607, 73.89244
380.6428, 73.77440
381.1249, 73.52441
381.6070, 73.36995
382.0891, 73.46551
382.5713, 73.70483
383.0534, 73.89009
383.5355, 73.93737
384.0176, 73.88567
384.4997, 73.81081
384.9818, 73.58454
385.4640, 73.56101
385.9461, 74.00449
386.4282, 74.49509
386.9103, 74.62971
387.3924, 74.37550
387.8745, 74.00228
388.3567, 73.77792
388.8388, 73.69689
389.3209, 73.82481
389.8030, 74.41578
390.2851, 74.92322
390.7672, 75.11968
391.2494, 75.07402
391.7315, 74.92101
392.2136, 74.72588
392.6957, 74.53786
393.1778, 74.56446
393.6599, 75.11919
394.1421, 75.43977
394.6242, 75.26022
395.1063, 74.94701
395.5884, 74.81739
396.0706, 74.95369
396.5527, 75.24384
397.0348, 75.58664
397.5169, 76.04235
397.9990, 76.30021
398.4811, 76.14848
398.9633, 75.98373
399.4454, 75.95020
399.9275, 76.03477
400.4096, 76.17454
400.8917, 76.35325
401.3738, 76.54000
401.8560, 76.57703
402.3381, 76.33762
402.8202, 76.19289
403.3023, 76.31215
403.7844, 76.54328
404.2665, 76.76124
404.7487, 76.93587
405.2308, 77.01759
405.7129, 76.88771
406.1950, 76.52824
406.6771, 76.28706
407.1592, 76.28648
407.6414, 76.36641
408.1235, 76.41282
408.6056, 76.43040
409.0877, 76.46272
409.5698, 76.58781
410.0519, 76.73725
410.5341, 76.72771
411.0162, 76.51897
411.4983, 76.29005
411.9804, 76.18842
412.4625, 76.12719
412.9446, 75.93587
413.4268, 75.46700
413.9089, 75.06665
414.3910, 75.13184
414.8731, 75.55040
415.3552, 75.75487
415.8373, 75.49916
416.3195, 75.06330
416.8016, 74.88335
417.2837, 74.97210
417.7658, 74.98698
418.2479, 74.80101
418.7300, 74.51377
419.2122, 74.21800
419.6943, 73.92722
420.1764, 73.65597
420.6585, 73.40506
421.1406, 73.18375
421.6227, 73.06360
422.1049, 73.16272
422.5870, 73.22186
423.0691, 73.12355
423.5512, 72.91730
424.0333, 72.67934
424.5154, 72.43829
424.9976, 72.21703
425.4797, 72.06984
425.9618, 72.10827
426.4439, 71.98690
426.9260, 71.61608
427.4081, 71.16206
427.8903, 70.68489
428.3724, 70.22352
428.8545, 69.85583
429.3366, 69.65386
429.8187, 69.60908
430.3008, 69.54556
430.7830, 69.41889
431.2651, 69.32387
431.7472, 69.37159
432.2293, 69.42191
432.7114, 69.24918
433.1935, 68.77920
433.6757, 68.24981
434.1578, 68.10575
434.6399, 68.51141
435.1220, 68.71725
435.6041, 68.53593
436.0862, 68.24837
436.5684, 67.89352
437.0505, 67.53136
437.5326, 67.30578
438.0147, 67.41105
438.4968, 67.70190
438.9789, 67.61031
439.4611, 66.95634
439.9432, 66.37518
440.4253, 66.12571
440.9074, 66.08465
441.3895, 66.19798
441.8716, 66.49297
442.3538, 66.72263
442.8359, 66.62151
443.3180, 66.24062
443.8001, 65.88321
444.2822, 65.60270
444.7643, 65.36449
445.2465, 65.12247
445.7286, 64.88425
446.2107, 64.71391
446.6928, 64.63703
447.1749, 64.62972
447.6570, 64.69366
448.1392, 64.81938
448.6213, 64.94062
449.1034, 65.03348
449.5855, 65.08772
450.0677, 65.06940
450.5498, 64.95786
451.0319, 64.83394
451.5140, 64.68282
451.9961, 64.54617
452.4782, 64.50911
452.9604, 64.57687
453.4425, 64.62131
453.9246, 64.49910
454.4067, 64.18691
454.8888, 63.95549
455.3709, 63.87666
455.8531, 63.78708
456.3352, 63.58186
456.8173, 63.33561
457.2994, 63.19112
457.7815, 63.21600
458.2636, 63.32117
458.7458, 63.30195
459.2279, 63.02006
459.7100, 62.90905
460.1921, 63.17135
460.6742, 63.42537
461.1563, 63.37832
461.6385, 63.09422
462.1206, 62.88466
462.6027, 63.02807
463.0848, 63.43655
463.5669, 63.65308
464.0490, 63.62893
464.5312, 63.50126
465.0133, 63.24035
465.4954, 62.94463
465.9775, 62.71819
466.4596, 62.58678
466.9417, 62.47650
467.4239, 62.30162
467.9060, 62.07761
468.3881, 61.89568
468.8702, 61.74176
469.3523, 61.68584
469.8344, 61.89770
470.3166, 62.27151
470.7987, 62.48378
471.2808, 62.34861
471.7629, 62.10277
472.2450, 61.87680
472.7271, 61.69841
473.2093, 61.76281
473.6914, 62.24403
474.1735, 62.84322
474.6556, 62.91982
475.1377, 62.30566
475.6198, 61.83295
476.1020, 61.63459
476.5841, 61.61982
477.0662, 61.82416
477.5483, 62.17961
478.0304, 62.38514
478.5125, 62.17261
478.9947, 61.61507
479.4768, 61.36837
479.9589, 61.86169
480.4410, 62.13941
480.9231, 61.91288
481.4052, 61.49842
481.8874, 61.22679
482.3695, 61.17488
482.8516, 61.19162
483.3337, 61.07069
483.8158, 60.77692
484.2979, 60.65508
484.7801, 60.96740
485.2622, 61.15327
485.7443, 60.90003
486.2264, 60.42471
486.7085, 60.08532
487.1906, 60.04462
487.6728, 60.14643
488.1549, 60.14718
488.6370, 60.03491
489.1191, 60.04136
489.6012, 60.35319
490.0833, 60.64332
490.5655, 60.58369
491.0476, 60.22322
491.5297, 59.89804
492.0118, 59.75481
492.4939, 59.71302
492.9760, 59.68061
493.4582, 59.65540
493.9403, 59.65977
494.4224, 59.73011
494.9045, 59.81480
495.3866, 59.75665
495.8687, 59.45415
496.3509, 59.28217
496.8330, 59.43169
497.3151, 59.69421
497.7972, 59.86831
498.2793, 59.92277
498.7614, 59.89945
499.2436, 59.82772
499.7257, 59.70945
500.2078, 59.57643
500.6899, 59.42594
501.1720, 59.26305
501.6541, 58.99327
502.1363, 58.75888
502.6184, 58.76574
503.1005, 59.04343
503.5826, 59.36420
504.0647, 59.41141
504.5468, 59.14318
505.0290, 59.03021
505.5111, 59.19240
505.9932, 59.36762
506.4753, 59.49998
506.9575, 59.56554
507.4396, 59.52416
507.9217, 59.35121
508.4038, 59.10155
508.8859, 58.79026
509.3680, 58.42706
509.8502, 58.20918
510.3323, 58.22010
510.8144, 58.32257
511.2965, 58.44320
511.7786, 58.56231
512.2607, 58.53553
512.7429, 58.16061
513.2250, 57.75764
513.7071, 57.62645
514.1892, 57.71864
514.6713, 57.79795
515.1534, 57.75460
515.6356, 57.66064
516.1177, 57.66721
516.5998, 57.87373
517.0819, 57.95404
517.5640, 57.83421
518.0461, 57.64010
518.5283, 57.38615
519.0104, 57.12763
519.4925, 57.01234
519.9746, 57.15744
520.4567, 57.46180
520.9388, 57.52559
521.4210, 57.12342
521.9031, 56.90394
522.3852, 57.13659
522.8673, 57.40630
523.3494, 57.33906
523.8315, 56.97358
524.3137, 56.70209
524.7958, 56.89919
525.2779, 57.41825
525.7600, 57.75277
526.2421, 57.88502
526.7242, 57.89404
527.2064, 57.71634
527.6885, 57.48383
528.1706, 57.38297
528.6527, 57.45681
529.1348, 57.49470
529.6169, 57.31644
530.0991, 57.05908
530.5812, 56.97050
531.0633, 57.07864
531.5454, 57.20698
532.0275, 57.22496
532.5096, 57.15152
532.9918, 57.11729
533.4739, 57.12164
533.9560, 57.15861
534.4381, 57.27177
534.9202, 57.39310
535.4023, 57.45657
535.8845, 57.44619
536.3666, 57.36396
536.8487, 57.18445
537.3308, 56.90783
537.8129, 56.83436
538.2950, 57.14429
538.7772, 57.42916
539.2593, 57.63914
539.7414, 57.75653
540.2235, 57.74199
540.7056, 57.58912
541.1877, 57.39019
541.6699, 57.22973
542.1520, 57.10374
542.6341, 56.97713
543.1162, 56.83535
543.5983, 56.72367
544.0804, 56.67831
544.5626, 56.68325
545.0447, 56.71985
545.5268, 56.81773
546.0089, 56.88591
546.4910, 56.80598
546.9731, 56.67408
547.4553, 56.71571
547.9374, 56.98094
548.4195, 57.25032
548.9016, 57.30996
549.3837, 57.15559
549.8658, 57.00187
550.3480, 56.69181
550.8301, 56.56600
551.3122, 56.88367
551.7943, 57.36388
552.2764, 57.70630
552.7585, 57.81380
553.2407, 57.70210
553.7228, 57.32163
554.2049, 56.64528
554.6870, 56.19313
555.1691, 55.96806
555.6512, 55.98561
556.1334, 56.51595
556.6155, 57.15467
557.0976, 57.31556
557.5797, 56.79241
558.0618, 56.18133
558.5439, 56.09082
559.0261, 56.36870
559.5082, 56.40448
559.9903, 56.06090
560.4724, 55.72683
560.9545, 55.73899
561.4366, 56.02210
561.9188, 56.15236
562.4009, 55.96988
562.8830, 55.83053
563.3651, 55.96311
563.8472, 56.17812
564.3293, 56.20714
564.8115, 55.99810
565.2936, 55.66587
565.7757, 55.29498
566.2578, 54.88337
566.7399, 54.70397
567.2220, 55.02001
567.7042, 55.25948
568.1863, 55.27331
568.6684, 55.19554
569.1505, 55.17240
569.6326, 55.23119
570.1147, 55.27950
570.5969, 55.21770
571.0790, 55.06205
571.5611, 54.90687
572.0432, 54.73932
572.5253, 54.61285
573.0074, 54.58341
573.4896, 54.60044
573.9717, 54.59255
574.4538, 54.55632
574.9359, 54.48906
575.4180, 54.36319
575.9001, 54.21789
576.3823, 54.10107
576.8644, 54.01966
577.3465, 53.97892
577.8286, 53.99004
578.3107, 54.03905
578.7928, 54.05672
579.2750, 54.00581
579.7571, 53.97176
580.2392, 53.96852
580.7213, 53.97626
581.2034, 53.99285
581.6855, 54.00780
582.1677, 53.98931
582.6498, 53.90046
583.1319, 53.77319
583.6140, 53.73999
584.0961, 53.84971
584.5782, 53.87835
585.0604, 53.59371
585.5425, 52.97153
586.0246, 53.29727
586.5067, 53.47631
586.9889, 53.51653
587.4710, 53.00216
587.9531, 53.20393
588.4352, 53.11870
588.9174, 53.02171
589.3995, 53.32427
589.8816, 52.89057
590.3637, 53.18680
590.8458, 53.36308
591.3279, 53.48182
591.8101, 53.45476
592.2922, 53.06726
592.7743, 52.74638
593.2564, 52.75108
593.7385, 52.98626
594.2206, 53.29033
594.7028, 53.59082
595.1849, 53.79215
595.6670, 53.66148
596.1491, 53.12609
596.6312, 52.80422
597.1133, 52.81437
597.5955, 52.94738
598.0776, 53.16884
598.5597, 53.40584
599.0418, 53.50852
599.5239, 53.40118
600.0060, 53.23669
600.4882, 53.08025
600.9703, 52.96477
601.4524, 53.01091
601.9345, 53.24924
602.4166, 53.45154
602.8987, 53.08756
603.3809, 53.45000
603.8630, 53.66574
604.3451, 53.74266
604.8272, 53.26498
605.3093, 53.50346
605.7914, 53.45493
606.2736, 53.39464
606.7557, 53.73391
607.2378, 53.33690
607.7199, 53.72876
608.2020, 53.79879
608.6841, 53.70699
609.1663, 53.35423
609.6484, 53.12795
610.1305, 53.25116
610.6126, 53.47450
611.0947, 53.59581
611.5768, 53.60856
612.0590, 53.59115
612.5411, 53.57587
613.0232, 53.54912
613.5053, 53.47117
613.9874, 53.36037
614.4695, 53.29432
614.9517, 53.30127
615.4338, 53.38898
615.9159, 53.59725
616.3980, 54.02936
616.8801, 54.21051
617.3622, 53.90692
617.8444, 53.63111
618.3265, 53.62365
618.8086, 53.78012
619.2907, 53.92907
619.7728, 54.00698
620.2549, 54.04451
620.7371, 54.08934
621.2192, 54.13861
621.7013, 54.10846
622.1834, 53.94231
622.6655, 53.81594
623.1476, 53.87970
623.6298, 54.03403
624.1119, 54.08405
624.5940, 53.92228
625.0761, 53.93627
625.5582, 54.60019
626.0403, 55.37506
626.5225, 55.46085
627.0046, 54.88588
627.4867, 54.33743
627.9688, 54.25463
628.4509, 54.51894
628.9330, 54.74114
629.4152, 54.86557
629.8973, 55.04996
630.3794, 55.48601
630.8615, 55.80507
631.3436, 55.72585
631.8257, 55.36123
632.3079, 55.00346
632.7900, 54.77039
633.2721, 54.66359
633.7542, 54.79010
634.2363, 55.10307
634.7184, 55.11665
635.2006, 54.64518
635.6827, 54.13735
636.1648, 54.01540
636.6469, 54.22797
637.1290, 54.31060
637.6111, 54.17448
638.0933, 54.01136
638.5754, 53.81392
639.0575, 53.65979
639.5396, 53.68343
640.0217, 53.87093
640.5038, 54.03617
640.9860, 54.01324
641.4681, 53.85493
641.9502, 53.84503
642.4323, 54.08819
642.9144, 54.21572
643.3965, 54.01849
643.8787, 53.78203
644.3608, 53.72647
644.8429, 53.81810
645.3250, 53.84499
645.8071, 53.62712
646.2892, 53.38950
646.7714, 53.42206
647.2535, 53.63216
647.7356, 53.69417
648.2177, 53.50560
648.6998, 53.24916
649.1819, 52.82131
649.6641, 53.13229
650.1462, 53.29657
650.6283, 53.32203
651.1104, 52.79290
651.5925, 52.97990
652.0746, 52.87992
652.5568, 52.76816
653.0389, 53.05597
653.5210, 52.60750
654.0031, 52.88897
654.4852, 52.87906
654.9673, 53.00251
655.4495, 52.83719
655.9316, 52.54819
656.4137, 52.43826
656.8958, 52.42017
657.3779, 52.48826
657.8600, 52.63874
658.3422, 52.76794
658.8243, 52.92436
659.3064, 52.99150
659.7885, 52.79675
660.2706, 52.50501
660.7527, 52.42362
661.2349, 52.62414
661.7170, 52.85792
662.1991, 52.82467
662.6812, 52.53967
663.1633, 52.36615
663.6454, 52.31662
664.1276, 52.35241
664.6097, 52.57776
665.0918, 52.80739
665.5739, 52.85600
666.0560, 52.71819
666.5381, 52.57612
667.0203, 52.52335
667.5024, 52.49752
667.9845, 52.42712
668.4666, 52.32508
668.9487, 52.20358
669.4308, 52.05817
669.9130, 52.03530
670.3951, 52.38211
670.8772, 53.18824
671.3593, 53.63467
671.8414, 53.34713
672.3235, 53.13409
672.8057, 53.28682
673.2878, 53.52735
673.7699, 53.48661
674.2520, 53.14164
674.7341, 52.90703
675.2162, 53.24314
675.6984, 53.85223
676.1805, 54.08456
676.6626, 53.95369
677.1447, 53.86719
677.6268, 53.99373
678.1089, 54.18544
678.5911, 54.21441
679.0732, 54.02301
679.5553, 54.01733
680.0374, 54.39972
680.5195, 54.73011
681.0016, 54.78841
681.4838, 54.72631
681.9659, 54.70563
682.4480, 54.78015
682.9301, 54.97011
683.4122, 55.32967
683.8943, 55.81353
684.3765, 56.26614
684.8586, 56.69335
685.3407, 57.03712
685.8228, 57.26035
686.3049, 57.40974
686.7870, 57.51871
687.2692, 57.58825
687.7513, 57.70512
688.2334, 57.81670
688.7155, 58.04766
689.1976, 58.58380
689.6797, 59.23767
690.1619, 59.70554
690.6440, 59.92656
691.1261, 60.08706
691.6082, 60.36008
692.0903, 60.73970
692.5724, 61.20689
693.0546, 61.81892
693.5367, 62.34521
694.0188, 62.68339
694.5009, 62.94226
694.9830, 63.23827
695.4651, 63.55752
695.9473, 63.78156
696.4294, 63.69419
696.9116, 63.68214
697.3937, 64.11542
697.8758, 64.78265
698.3579, 65.29745
698.8400, 65.57120
699.3221, 65.73577
699.8043, 65.89061
700.2864, 66.05513
700.7685, 66.41904
701.2506, 67.20824
701.7327, 67.71374
702.2148, 67.58140
702.6970, 67.29253
703.1791, 67.13461
703.6612, 67.08735
704.1433, 67.00678
704.6254, 66.89201
705.1075, 66.65833
705.5897, 66.09144
706.0718, 65.38702
706.5539, 65.04491
707.0360, 65.12914
707.5181, 65.16164
708.0002, 64.74667
708.4824, 63.95919
708.9645, 63.15750
709.4466, 62.23243
709.9287, 61.50077
710.4108, 61.15698
710.8929, 60.84917
711.3751, 60.37907
711.8572, 59.78508
712.3393, 59.20274
712.8214, 58.68446
713.3035, 58.17405
713.7856, 57.57396
714.2678, 56.95935
714.7499, 56.49412
715.2320, 56.19802
715.7141, 55.97120
716.1962, 55.76513
716.6783, 55.55262
717.1605, 55.24699
717.6426, 54.77616
718.1247, 54.35521
718.6068, 53.97541
719.0889, 53.65337
719.5710, 53.42893
720.0532, 53.25698
720.5353, 53.07729
721.0174, 52.87844
721.4995, 52.61167
721.9816, 52.13519
722.4637, 51.59666
722.9459, 51.29925
723.4280, 51.25157
723.9101, 51.30910
724.3922, 51.42292
724.8743, 51.52610
725.3564, 51.48679
725.8386, 51.26059
726.3207, 51.04959
726.8028, 50.75722
727.2849, 50.58928
727.7670, 50.73883
728.2491, 50.97990
728.7313, 51.01808
729.2134, 50.80692
729.6955, 50.58375
730.1776, 50.56658
730.6597, 50.61172
731.1418, 50.45044
731.6240, 50.12367
732.1061, 49.88725
732.5882, 49.83497
733.0703, 49.86621
733.5524, 49.85121
734.0345, 49.78304
734.5167, 49.84098
734.9988, 50.27016
735.4809, 50.50227
735.9630, 50.27043
736.4451, 49.94715
736.9272, 49.85709
737.4094, 49.98613
737.8915, 50.09132
738.3736, 50.02143
738.8557, 49.90866
739.3378, 49.93699
739.8199, 50.04350
740.3021, 49.99778
740.7842, 49.75526
741.2663, 49.55272
741.7484, 49.59702
742.2305, 49.82345
742.7126, 49.90982
743.1948, 49.73010
743.6769, 49.63947
744.1590, 49.60040
744.6411, 49.70348
745.1232, 50.14370
745.6053, 50.73499
746.0875, 51.10357
746.5696, 51.11209
747.0517, 50.96445
747.5338, 50.72342
748.0159, 50.46752
748.4980, 50.33836
748.9802, 50.33672
749.4623, 50.39063
749.9444, 50.46870
750.4265, 50.55405
750.9086, 50.61635
751.3907, 50.65363
751.8729, 50.68486
752.3550, 50.85619
752.8371, 50.81904
753.3192, 50.15521
753.8013, 49.42068
754.2834, 49.31591
754.7656, 49.90345
755.2477, 50.43695
755.7298, 50.59552
756.2119, 50.51894
756.6940, 50.17685
757.1761, 49.72677
757.6583, 49.58028
758.1404, 49.83371
758.6225, 50.16919
759.1046, 50.28550
759.5867, 50.20016
760.0688, 50.00141
760.5510, 49.58725
761.0331, 49.34566
761.5152, 49.56861
761.9973, 49.76139
762.4794, 49.43738
762.9615, 48.78857
763.4437, 48.45150
763.9258, 48.72247
764.4079, 49.02464
764.8900, 49.13311
765.3721, 49.09260
765.8542, 48.89480
766.3364, 48.58947
766.8185, 48.30052
767.3006, 48.09119
767.7827, 47.98300
768.2648, 48.07423
768.7469, 48.37832
769.2291, 48.47136
769.7112, 48.26470
770.1933, 48.03735
770.6754, 47.94209
771.1575, 47.89121
771.6396, 47.72007
772.1218, 47.40199
772.6039, 47.15559
773.0860, 46.97129
773.5681, 46.91492
774.0502, 47.19613
774.5323, 47.54708
775.0145, 47.55220
775.4966, 47.16060
775.9787, 46.69938
776.4608, 46.41292
776.9429, 46.27251
777.4250, 46.25414
777.9072, 46.35323
778.3893, 46.34190
778.8714, 46.12562
779.3535, 45.95791
779.8356, 46.12586
780.3177, 46.54451
780.7999, 46.63031
781.2820, 45.92401
781.7641, 45.55521
782.2462, 45.88562
782.7283, 46.27895
783.2104, 46.29803
783.6926, 46.07818
784.1747, 45.96352
784.6568, 46.08081
785.1389, 46.25019
785.6210, 46.35186
786.1031, 46.37786
786.5853, 46.25627
787.0674, 46.01589
787.5495, 45.89329
788.0316, 46.00271
788.5137, 46.18228
788.9958, 46.19717
789.4780, 46.03419
789.9601, 45.89961
790.4422, 45.84549
790.9243, 45.73553
791.4064, 45.40719
791.8885, 45.11423
792.3707, 45.06535
792.8528, 45.24607
793.3349, 45.51170
793.8170, 46.00488
794.2991, 46.32180
794.7813, 46.01880
795.2634, 45.48903
795.7455, 45.30838
796.2276, 45.48915
796.7097, 45.68953
797.1918, 45.70648
797.6740, 45.59688
798.1561, 45.44477
798.6382, 45.24593
799.1203, 45.12650
799.6024, 45.13144
800.0845, 45.09912
800.5667, 44.91620
801.0488, 44.67050
801.5309, 44.51314
802.0130, 44.43843
802.4951, 44.44700
802.9772, 44.61155
803.4594, 44.77516
803.9415, 44.84800
804.4236, 44.89591
804.9057, 45.05243
805.3878, 45.29616
805.8699, 45.39112
806.3521, 45.06738
806.8342, 44.67024
807.3163, 44.85621
807.7985, 45.45415
808.2806, 45.71282
808.7627, 45.49320
809.2448, 45.14120
809.7269, 44.88205
810.2090, 44.70147
810.6912, 44.54430
811.1733, 44.33716
811.6554, 44.33036
812.1375, 44.80840
812.6196, 45.15833
813.1017, 45.04053
813.5839, 44.71505
814.0660, 44.51784
814.5481, 44.49614
815.0302, 44.52476
815.5123, 44.60356
815.9944, 44.66223
816.4766, 44.60309
816.9587, 44.49642
817.4408, 44.47795
817.9229, 44.57124
818.4050, 44.70210
818.8871, 44.81882
819.3693, 44.91096
819.8514, 44.96092
820.3335, 44.97012
820.8156, 44.87696
821.2977, 44.63198
821.7798, 44.40873
822.2620, 44.34124
822.7441, 44.37032
823.2262, 44.31367
823.7083, 44.08110
824.1904, 43.97276
824.6725, 44.21870
825.1547, 44.34475
825.6368, 43.94069
826.1189, 43.38662
826.6010, 43.24133
827.0831, 43.57986
827.5652, 43.92233
828.0474, 43.91302
828.5295, 43.77900
829.0116, 43.79769
829.4937, 43.91122
829.9758, 43.97867
830.4579, 43.96777
830.9401, 43.88834
831.4222, 43.73394
831.9043, 43.55375
832.3864, 43.53033
832.8685, 43.73091
833.3506, 43.71816
833.8328, 43.27732
834.3149, 42.96431
834.7970, 43.19183
835.2791, 43.68770
835.7612, 43.94299
836.2433, 43.90343
836.7255, 43.92286
837.2076, 44.22474
837.6897, 44.40680
838.1718, 44.10929
838.6539, 43.67692
839.1360, 43.54649
839.6182, 43.75600
840.1003, 44.04781
840.5824, 44.31011
841.0645, 44.48057
841.5466, 44.39147
842.0287, 44.14149
842.5109, 44.07618
842.9930, 44.23452
843.4751, 44.38414
843.9572, 44.37887
844.4393, 44.29531
844.9214, 44.31089
845.4036, 44.47055
845.8857, 44.49174
846.3678, 44.29181
846.8499, 44.09879
847.3320, 43.97355
847.8141, 43.91152
848.2963, 43.93763
848.7784, 44.04412
849.2605, 44.09075
849.7426, 43.94679
850.2247, 43.86829
850.7068, 44.09421
851.1890, 44.33429
851.6711, 44.23158
852.1532, 43.86323
852.6353, 43.58812
853.1174, 43.59301
853.5995, 43.64454
854.0817, 43.38419
854.5638, 42.98126
855.0459, 42.97307
855.5280, 43.33759
856.0101, 43.51473
856.4922, 43.26146
856.9744, 42.92004
857.4565, 42.96568
857.9386, 43.37390
858.4207, 43.41371
858.9028, 42.83314
859.3849, 42.50094
859.8671, 42.78165
860.3492, 43.14144
860.8313, 43.19044
861.3134, 43.01170
861.7955, 42.81116
862.2776, 42.54538
862.7598, 42.40588
863.2419, 42.52938
863.7240, 42.71006
864.2061, 42.83477
864.6882, 42.90912
865.1703, 42.96951
865.6525, 43.02250
866.1346, 43.03048
866.6167, 42.93372
867.0988, 42.79866
867.5809, 42.73722
868.0630, 42.72810
868.5452, 42.69163
869.0273, 42.61405
869.5094, 42.55983
869.9915, 42.58396
870.4736, 42.63774
870.9557, 42.57470
871.4379, 42.35606
871.9200, 42.25189
872.4021, 42.33806
872.8842, 42.38434
873.3663, 42.22606
873.8484, 42.02201
874.3306, 42.03158
874.8127, 42.26159
875.2948, 42.43428
875.7769, 42.52232
876.2590, 42.56309
876.7411, 42.53911
877.2233, 42.49366
877.7054, 42.48711
878.1875, 42.49136
878.6696, 42.38848
879.1517, 42.08833
879.6339, 41.87851
880.1160, 42.12379
880.5981, 42.51357
881.0802, 42.56513
881.5623, 42.35878
882.0444, 42.30120
882.5266, 42.51704
883.0087, 42.67916
883.4908, 42.38103
883.9729, 41.80260
884.4550, 41.76707
884.9371, 42.32368
885.4193, 42.50707
885.9014, 42.03922
886.3835, 41.54536
886.8656, 41.46090
887.3477, 41.66361
887.8298, 41.82161
888.3120, 41.91659
888.7941, 42.01383
889.2762, 42.14045
889.7583, 42.23658
890.2404, 42.30610
890.7225, 42.32224
891.2047, 42.22182
891.6868, 42.02346
892.1689, 41.88340
892.6510, 41.80503
893.1331, 41.85798
893.6152, 42.26366
894.0974, 42.68389
894.5795, 42.69965
895.0616, 42.40149
895.5437, 42.12091
896.0258, 41.99354
896.5079, 41.99009
896.9901, 42.19723
897.4722, 42.46261
897.9543, 42.31394
898.4364, 41.84859
898.9185, 41.71001
899.4006, 42.07994
899.8828, 42.48045
900.3649, 42.48417
900.8470, 42.20333
901.3291, 42.04401
901.8112, 42.03085
902.2933, 42.00473
902.7755, 41.89160
903.2576, 41.91555
903.7397, 42.31240
904.2218, 42.81663
904.7039, 42.96429
905.1860, 42.69166
905.6682, 42.54190
906.1503, 42.60951
906.6324, 42.68680
907.1145, 42.74750
907.5966, 42.77917
908.0787, 42.75113
908.5609, 42.68810
909.0430, 42.66633
909.5251, 42.72884
910.0072, 42.75544
910.4893, 42.62251
910.9714, 42.46459
911.4536, 42.45176
911.9357, 42.51051
912.4178, 42.44326
912.8999, 42.22246
913.3820, 42.05231
913.8641, 42.12384
914.3463, 42.30628
914.8284, 42.38251
915.3105, 42.35569
915.7926, 42.19564
916.2748, 41.90620
916.7569, 41.68755
917.2390, 41.65239
917.7211, 41.73273
918.2032, 41.82457
918.6854, 41.92859
919.1675, 42.03907
919.6496, 42.21597
920.1317, 42.18708
920.6138, 41.71011
921.0959, 41.26801
921.5781, 41.40196
922.0602, 41.93878
922.5423, 42.00719
923.0244, 41.17344
923.5065, 40.70033
923.9886, 40.91372
924.4708, 41.18249
924.9529, 41.21679
925.4350, 41.15535
925.9171, 41.21442
926.3992, 41.40097
926.8813, 41.48777
927.3635, 41.27349
927.8456, 41.07026
928.3277, 41.09964
928.8098, 41.20355
929.2919, 41.22666
929.7740, 41.15946
930.2562, 41.03645
930.7383, 40.87197
931.2204, 40.67345
931.7025, 40.39750
932.1846, 40.11883
932.6667, 40.00750
933.1489, 40.02180
933.6310, 39.98207
934.1131, 39.85604
934.5952, 39.79612
935.0773, 39.92406
935.5594, 40.16100
936.0416, 40.33515
936.5237, 40.44682
937.0058, 40.49757
937.4879, 40.48107
937.9700, 40.43499
938.4521, 40.36146
938.9343, 40.29372
939.4164, 40.26849
939.8985, 40.28539
940.3806, 40.33324
940.8627, 40.38707
941.3448, 40.52656
941.8270, 40.91902
942.3091, 41.21092
942.7912, 41.14775
943.2733, 40.89751
943.7554, 40.71761
944.2375, 40.62680
944.7197, 40.55909
945.2018, 40.52787
945.6839, 40.48812
946.1660, 40.46868
946.6481, 40.39711
947.1302, 40.08498
947.6124, 39.66869
948.0945, 39.57603
948.5766, 40.01623
949.0587, 40.45309
949.5408, 40.52076
950.0229, 40.45642
950.5051, 40.49379
950.9872, 40.58151
951.4693, 40.57558
951.9514, 40.46726
952.4335, 40.40075
952.9156, 40.48994
953.3978, 40.62762
953.8799, 40.65943
954.3620, 40.61656
954.8441, 40.60271
955.3262, 40.60961
955.8083, 40.49412
956.2905, 40.19937
956.7726, 39.92180
957.2547, 39.90833
957.7368, 40.07908
958.2189, 40.03757
958.7010, 39.76534
959.1832, 39.69706
959.6653, 39.94004
960.1474, 40.17094
960.6295, 40.20458
961.1116, 40.10594
961.5938, 39.96554
962.0759, 39.75465
962.5580, 39.80526
963.0401, 40.34594
963.5222, 40.66030
964.0043, 40.48800
964.4865, 40.17248
964.9686, 39.90409
965.4507, 39.70342
965.9328, 39.65240
966.4149, 39.86966
966.8970, 39.91512
967.3792, 39.57325
967.8613, 39.28315
968.3434, 39.27062
968.8255, 39.33647
969.3076, 39.23582
969.7897, 39.01067
970.2719, 38.94054
970.7540, 39.18519
971.2361, 39.40931
971.7182, 39.42599
972.2003, 39.41594
972.6824, 39.56238
973.1646, 39.76158
973.6467, 39.84589
974.1288, 39.78075
974.6109, 39.61353
975.0930, 39.29230
975.5751, 39.01383
976.0573, 39.02314
976.5394, 39.15476
977.0215, 39.16734
977.5036, 39.06753
977.9857, 38.95116
978.4678, 38.85655
978.9500, 38.79157
979.4321, 38.72749
979.9142, 38.73358
980.3963, 39.09667
980.8784, 39.65269
981.3605, 39.69486
981.8427, 39.18198
982.3248, 38.80407
982.8069, 38.93703
983.2890, 39.27698
983.7711, 39.40213
984.2532, 39.33214
984.7354, 39.17356
985.2175, 38.92013
985.6996, 38.81951
986.1817, 38.93968
986.6638, 39.13295
987.1459, 39.31974
987.6281, 39.45508
988.1102, 39.41919
988.5923, 39.18140
989.0744, 38.98920
989.5565, 38.82318
990.0386, 38.76457
990.5208, 38.86773
991.0029, 39.03439
991.4850, 39.21373
991.9671, 39.37776
992.4492, 39.41344
992.9313, 39.25806
993.4135, 39.12246
993.8956, 38.95818
994.3777, 38.88029
994.8598, 39.00599
995.3419, 39.17078
995.8240, 39.23063
996.3062, 39.19292
996.7883, 39.11666
997.2704, 38.96294
997.7525, 38.84874
998.2346, 38.79465
998.7167, 38.77744
999.1989, 38.78342
999.6810, 38.82053
1000.163, 38.90605
1000.645, 39.03697
1001.127, 39.18010
1001.609, 39.37298
1002.092, 39.50050
1002.574, 39.51556
1003.056, 39.44905
1003.538, 39.23238
1004.020, 38.99136
1004.502, 38.97316
1004.984, 39.19222
1005.466, 39.32362
1005.948, 39.10397
1006.431, 38.87020
1006.913, 38.88350
1007.395, 39.00856
1007.877, 39.14568
1008.359, 39.24401
1008.841, 39.18922
1009.323, 38.96724
1009.805, 38.80457
1010.288, 38.95027
1010.770, 39.15921
1011.252, 39.08138
1011.734, 38.87655
1012.216, 38.87878
1012.698, 39.05207
1013.180, 39.10312
1013.662, 38.91667
1014.144, 38.68357
1014.627, 38.56884
1015.109, 38.56515
1015.591, 38.75135
1016.073, 39.03056
1016.555, 39.01366
1017.037, 38.70412
1017.519, 38.51998
1018.001, 38.67276
1018.484, 38.98263
1018.966, 39.28442
1019.448, 39.51960
1019.930, 39.38300
1020.412, 38.92968
1020.894, 38.68780
1021.376, 38.74615
1021.858, 38.81925
1022.340, 38.73626
1022.823, 38.63408
1023.305, 38.75669
1023.787, 39.07076
1024.269, 39.26492
1024.751, 39.34116
1025.233, 39.22912
1025.715, 38.87897
1026.197, 38.61232
1026.680, 38.65351
1027.162, 38.84178
1027.644, 38.87408
1028.126, 38.74694
1028.608, 38.62115
1029.090, 38.48687
1029.572, 38.40247
1030.054, 38.37843
1030.536, 38.42284
1031.019, 38.57307
1031.501, 38.75056
1031.983, 38.77502
1032.465, 38.61708
1032.947, 38.53855
1033.429, 38.57688
1033.911, 38.59246
1034.393, 38.53428
1034.875, 38.48344
1035.358, 38.50136
1035.840, 38.56559
1036.322, 38.63230
1036.804, 38.72129
1037.286, 38.71246
1037.768, 38.52800
1038.250, 38.38111
1038.732, 38.24392
1039.215, 38.25065
1039.697, 38.65215
1040.179, 39.22392
1040.661, 39.35131
1041.143, 38.84446
1041.625, 38.60110
1042.107, 38.98872
1042.589, 39.13348
1043.072, 38.52965
1043.554, 37.94974
1044.036, 38.07636
1044.518, 38.60585
1045.000, 38.77264
1045.482, 38.43502
1045.964, 38.20803
1046.446, 38.29877
1046.928, 38.28012
1047.411, 37.81164
1047.893, 37.41325
1048.375, 37.56524
1048.857, 38.06231
1049.339, 38.39015
1049.821, 38.46775
1050.303, 38.54878
1050.785, 38.74165
1051.267, 38.85071
1051.750, 38.74019
1052.232, 38.58875
1052.714, 38.50445
1053.196, 38.49799
1053.678, 38.59260
1054.160, 38.81311
1054.642, 38.98119
1055.124, 39.05512
1055.607, 39.07012
1056.089, 38.99774
1056.571, 38.90840
1057.053, 38.88011
1057.535, 38.87365
1058.017, 38.75872
1058.499, 38.48849
1058.981, 38.39029
1059.464, 38.73345
1059.946, 39.04686
1060.428, 39.13774
1060.910, 39.12186
1061.392, 39.05988
1061.874, 38.98511
1062.356, 38.94164
1062.838, 38.93863
1063.320, 38.94921
1063.802, 39.02291
1064.285, 39.03182
1064.767, 38.83019
1065.249, 38.62016
1065.731, 38.63261
1066.213, 38.74917
1066.695, 38.67780
1067.177, 38.36698
1067.659, 38.18084
1068.142, 38.35209
1068.624, 38.56575
1069.106, 38.74300
1069.588, 38.83815
1070.070, 38.78955
1070.552, 38.64124
1071.034, 38.41845
1071.516, 38.14580
1071.999, 38.04574
1072.481, 38.45706
1072.963, 38.73532
1073.445, 38.34803
1073.927, 37.92965
1074.409, 38.14310
1074.891, 38.63073
1075.373, 38.72085
1075.855, 38.33962
1076.338, 37.99580
1076.820, 37.84072
1077.302, 37.84948
1077.784, 38.19608
1078.266, 38.51720
1078.748, 38.48570
1079.230, 38.26086
1079.712, 38.07752
1080.194, 37.97816
1080.677, 37.93788
1081.159, 37.98901
1081.641, 38.00831
1082.123, 37.94586
1082.605, 37.82197
1083.087, 37.52481
1083.569, 37.25352
1084.052, 37.34052
1084.534, 37.73165
1085.016, 37.99286
1085.498, 37.92707
1085.980, 37.86866
1086.462, 38.02162
1086.944, 38.16681
1087.426, 38.15702
1087.908, 38.06165
1088.391, 37.93761
1088.873, 37.81452
1089.355, 37.75504
1089.837, 37.79338
1090.319, 37.82434
1090.801, 37.88575
1091.283, 37.83395
1091.765, 37.42694
1092.247, 36.99625
1092.730, 36.91378
1093.212, 37.09405
1093.694, 37.23929
1094.176, 37.28298
1094.658, 37.27517
1095.140, 37.18409
1095.622, 37.10729
1096.104, 37.09312
1096.587, 37.10730
1097.069, 37.12751
1097.551, 37.14891
1098.033, 37.16293
1098.515, 37.16688
1098.997, 37.19646
1099.479, 37.37012
1099.961, 37.42214
1100.443, 37.09768
1100.926, 36.78794
1101.408, 36.89452
1101.890, 37.14258
1102.372, 36.97383
1102.854, 36.36743
1103.336, 36.11753
1103.818, 36.78462
1104.300, 37.25562
1104.782, 37.16736
1105.265, 36.96059
1105.747, 36.78710
1106.229, 36.68740
1106.711, 36.73619
1107.193, 36.90795
1107.675, 37.00645
1108.157, 36.95964
1108.639, 36.93081
1109.122, 36.99532
1109.604, 37.01241
1110.086, 36.85616
1110.568, 36.68491
1111.050, 36.67388
1111.532, 36.78011
1112.014, 36.82210
1112.496, 36.76293
1112.979, 36.71957
1113.461, 36.62737
1113.943, 36.64762
1114.425, 37.01217
1114.907, 37.30690
1115.389, 37.16952
1115.871, 36.77407
1116.353, 36.49144
1116.835, 36.31730
1117.318, 36.29239
1117.800, 36.59700
1118.282, 36.70650
1118.764, 36.35686
1119.246, 36.08678
1119.728, 36.26195
1120.210, 36.62462
1120.692, 36.79153
1121.174, 36.76606
1121.657, 36.68584
1122.139, 36.50243
1122.621, 36.40534
1123.103, 36.45600
1123.585, 36.48103
1124.067, 36.40539
1124.549, 36.27275
1125.031, 36.10920
1125.514, 35.94174
1125.996, 35.92100
1126.478, 36.09562
1126.960, 36.14074
1127.442, 36.02111
1127.924, 35.88261
1128.406, 35.75536
1128.888, 35.68312
1129.370, 35.71908
1129.853, 35.79025
1130.335, 35.71002
1130.817, 35.47869
1131.299, 35.30727
1131.781, 35.19200
1132.263, 35.25372
1132.745, 35.53499
1133.227, 35.67821
1133.709, 35.46704
1134.192, 35.08582
1134.674, 34.74575
1135.156, 34.49607
1135.638, 34.63572
1136.120, 35.09425
1136.602, 35.31831
1137.084, 35.25657
1137.566, 35.07558
1138.049, 34.84579
1138.531, 34.69133
1139.013, 34.75989
1139.495, 34.90570
1139.977, 34.77326
1140.459, 34.50462
1140.941, 34.56588
1141.423, 34.87887
1141.906, 35.02899
1142.388, 34.93325
1142.870, 34.82409
1143.352, 34.84515
1143.834, 34.92119
1144.316, 35.00700
1144.798, 35.05818
1145.280, 34.95037
1145.762, 34.78020
1146.245, 34.77370
1146.727, 34.90409
1147.209, 34.94357
1147.691, 34.80529
1148.173, 34.69130
1148.655, 34.75722
1149.137, 34.91004
1149.619, 35.20663
1150.101, 35.43426
1150.584, 35.24778
1151.066, 34.82863
1151.548, 34.56281
1152.030, 34.52150
1152.512, 34.53801
1152.994, 34.54974
1153.476, 34.58471
1153.958, 34.74686
1154.441, 34.83669
1154.923, 34.55760
1155.405, 34.24484
1155.887, 34.43238
1156.369, 34.96455
1156.851, 35.12577
1157.333, 34.68561
1157.815, 34.25165
1158.297, 33.73449
1158.780, 33.54208
1159.262, 34.13486
1159.744, 34.76782
1160.226, 34.85768
1160.708, 34.63812
1161.190, 34.57765
1161.672, 34.70001
1162.154, 34.72283
1162.636, 34.56519
1163.119, 34.45913
1163.601, 34.42558
1164.083, 34.44282
1164.565, 34.54997
1165.047, 34.62928
1165.529, 34.52458
1166.011, 34.30470
1166.493, 34.28188
1166.976, 34.54540
1167.458, 34.51335
1167.940, 34.09900
1168.422, 33.81346
1168.904, 33.77656
1169.386, 33.93966
1169.868, 34.32271
1170.350, 34.67271
1170.833, 34.50952
1171.315, 33.95215
1171.797, 33.67980
1172.279, 33.68182
1172.761, 33.89165
1173.243, 34.27654
1173.725, 34.54027
1174.207, 34.57281
1174.689, 34.60474
1175.172, 34.90298
1175.654, 35.15059
1176.136, 34.57996
1176.618, 33.64339
1177.100, 33.41547
1177.582, 33.73703
1178.064, 34.07193
1178.546, 34.28547
1179.028, 34.38277
1179.511, 34.36004
1179.993, 34.34517
1180.475, 34.51322
1180.957, 34.67423
1181.439, 34.64512
1181.921, 34.49501
1182.403, 34.23021
1182.885, 33.94953
1183.368, 33.85808
1183.850, 33.98085
1184.332, 34.07801
1184.814, 33.98983
1185.296, 33.97093
1185.778, 34.22614
1186.260, 34.46502
1186.742, 34.53431
1187.224, 34.47797
1187.707, 34.30778
1188.189, 34.06346
1188.671, 33.84316
1189.153, 33.61580
1189.635, 33.56816
1190.117, 33.92851
1190.599, 34.13728
1191.081, 33.98463
1191.564, 33.84196
1192.046, 33.89257
1192.528, 34.08683
1193.010, 34.41744
1193.492, 34.83590
1193.974, 34.90915
1194.456, 34.56226
1194.938, 34.24329
1195.421, 33.95199
1195.903, 33.84278
1196.385, 33.99012
1196.867, 34.12790
1197.349, 34.05415
1197.831, 33.86417
1198.313, 33.67680
1198.795, 33.53480
1199.277, 33.74608
1199.760, 34.21342
1200.242, 34.40120
1200.724, 34.27895
1201.206, 34.10969
1201.688, 34.00356
1202.170, 33.99853
1202.652, 34.16311
1203.134, 34.34805
1203.616, 34.38001
1204.099, 34.30268
1204.581, 34.09727
1205.063, 33.86958
1205.545, 33.84873
1206.027, 33.99466
1206.509, 34.00372
1206.991, 33.74413
1207.473, 33.64760
1207.956, 34.15648
1208.438, 34.60700
1208.920, 34.63533
1209.402, 34.49035
1209.884, 34.32253
1210.366, 34.14390
1210.848, 33.90014
1211.330, 33.61508
1211.813, 33.53371
1212.295, 33.84355
1212.777, 34.03122
1213.259, 34.04704
1213.741, 33.99992
1214.223, 33.89919
1214.705, 33.76373
1215.187, 33.56527
1215.669, 33.39562
1216.151, 33.44762
1216.634, 33.70235
1217.116, 33.84534
1217.598, 33.87512
1218.080, 33.77729
1218.562, 33.54069
1219.044, 33.37971
1219.526, 33.36969
1220.008, 33.42856
1220.491, 33.49993
1220.973, 33.54698
1221.455, 33.23371
1221.937, 33.56065
1222.419, 33.74090
1222.901, 33.78232
1223.383, 33.26915
1223.865, 33.47213
1224.348, 33.38809
1224.830, 33.29230
1225.312, 33.59607
1225.794, 33.16356
1226.276, 33.46099
1226.758, 33.46705
1227.240, 33.60646
1227.722, 33.45710
1228.204, 33.39694
1228.687, 33.62562
1229.169, 33.69437
1229.651, 33.51177
1230.133, 33.65966
1230.615, 33.21707
1231.097, 33.29263
1231.579, 33.59176
1232.061, 33.42368
1232.543, 33.57685
1233.026, 33.60765
1233.508, 33.08244
1233.990, 33.52423
1234.472, 33.54782
1234.954, 33.14202
1235.436, 33.56542
1235.918, 33.73236
1236.400, 33.67364
1236.883, 33.63700
1237.365, 33.67561
1237.847, 33.65107
1238.329, 33.48398
1238.811, 33.35219
1239.293, 33.50358
1239.775, 33.75205
1240.257, 33.64009
1240.740, 33.35428
1241.222, 33.39498
1241.704, 33.63495
1242.186, 33.64238
1242.668, 33.37777
1243.150, 33.04963
1243.632, 32.72583
1244.114, 32.65366
1244.596, 33.23410
1245.078, 33.81834
1245.561, 34.03493
1246.043, 34.03986
1246.525, 33.86736
1247.007, 33.63676
1247.489, 33.51161
1247.971, 33.48634
1248.453, 33.42463
1248.935, 33.29924
1249.418, 33.16062
1249.900, 32.84404
1250.382, 32.86505
1250.864, 33.52904
1251.346, 34.11016
1251.828, 34.18953
1252.310, 34.00147
1252.792, 33.83611
1253.275, 33.69033
1253.757, 33.51389
1254.239, 33.32430
1254.721, 33.40873
1255.203, 33.73147
1255.685, 33.88654
1256.167, 33.79737
1256.649, 33.64385
1257.131, 33.51842
1257.614, 33.43624
1258.096, 33.43032
1258.578, 33.45095
1259.060, 33.43115
1259.542, 33.41106
1260.024, 33.46978
1260.506, 33.54966
1260.988, 33.56190
1261.470, 33.49130
1261.953, 33.31815
1262.435, 32.97990
1262.917, 32.81386
1263.399, 33.04908
1263.881, 33.25794
1264.363, 33.30156
1264.845, 33.32239
1265.327, 33.40278
1265.810, 33.48364
1266.292, 33.48812
1266.774, 33.44199
1267.256, 33.46269
1267.738, 33.56614
1268.220, 33.55468
1268.702, 33.42425
1269.184, 33.30811
1269.667, 33.23051
1270.149, 33.14843
1270.631, 33.04285
1271.113, 33.02153
1271.595, 33.21727
1272.077, 33.47704
1272.559, 33.60596
1273.041, 33.62521
1273.523, 33.46047
1274.005, 33.26830
1274.488, 33.41962
1274.970, 33.78387
1275.452, 33.80211
1275.934, 33.32442
1276.416, 33.01292
1276.898, 33.23451
1277.380, 33.47359
1277.862, 33.63541
1278.345, 33.73060
1278.827, 33.73137
1279.309, 33.69761
1279.791, 33.67016
1280.273, 33.64577
1280.755, 33.60873
1281.237, 33.56009
1281.719, 33.61818
1282.202, 33.79804
1282.684, 33.82996
1283.166, 33.68951
1283.648, 33.58702
1284.130, 33.58580
1284.612, 33.55330
1285.094, 33.39063
1285.576, 33.21626
1286.058, 33.22842
1286.541, 33.27136
1287.023, 33.17762
##END=



