##NAMES=Trilithionite
##RRUFFID=R060004
##IDEAL CHEMISTRY=KLi_1.5_Al_1.5_(Si_3_Al)O_10_F_2_
##LOCALITY=Mount Begbie, Revelstoke, British Columbia, Canada
##OWNER=RRUFF
##SOURCE=Bob Downs
##DESCRIPTION=Aggregate of coarse purple crystals associated with elbaite, R060003
##STATUS=The identification of this mineral has been confirmed by X-ray diffraction and chemical analysis
##URL=rruff.info/R060004
##MEASURED CHEMISTRY=(K_0.99_[box]_0.01_)(Li_0.56_Al_0.43_Mn_0.01_)_3_(Si_0.85_Al_0.15_)_4_O_10_(F_0.54_(OH)_0.46_)_2_
131.4935, 124.2765
131.9756, 124.0650
132.4577, 123.8251
132.9398, 123.5759
133.4219, 123.3408
133.9040, 123.0992
134.3862, 122.9823
134.8683, 123.2548
135.3504, 123.9062
135.8325, 124.3495
136.3146, 124.3135
136.7967, 123.8570
137.2789, 123.5756
137.7610, 123.4842
138.2431, 123.5163
138.7252, 123.6566
139.2073, 123.9700
139.6894, 124.0782
140.1716, 123.7253
140.6537, 122.7907
141.1358, 122.3351
141.6179, 122.4937
142.1000, 122.9814
142.5821, 123.2673
143.0643, 123.3042
143.5464, 123.2527
144.0285, 123.1409
144.5106, 122.8575
144.9927, 122.8146
145.4748, 123.0956
145.9570, 123.6005
146.4391, 124.0411
146.9212, 124.4628
147.4033, 124.7728
147.8854, 124.9301
148.3675, 124.8992
148.8497, 124.7612
149.3318, 124.3865
149.8139, 123.8622
150.2960, 123.6408
150.7781, 124.0161
151.2602, 124.4771
151.7424, 124.7450
152.2245, 124.6505
152.7066, 124.5585
153.1887, 124.4777
153.6708, 124.4101
154.1529, 124.3782
154.6351, 124.4067
155.1172, 124.4554
155.5993, 124.4974
156.0814, 124.5021
156.5635, 124.5282
157.0456, 124.5291
157.5278, 124.5063
158.0099, 124.6861
158.4920, 125.2937
158.9741, 126.0453
159.4562, 126.6905
159.9383, 127.0919
160.4205, 127.4539
160.9026, 127.8583
161.3847, 128.3156
161.8668, 128.7222
162.3489, 128.9866
162.8310, 129.1991
163.3132, 129.4640
163.7953, 130.0532
164.2774, 130.5204
164.7595, 130.5262
165.2416, 129.9636
165.7237, 129.5292
166.2059, 129.6345
166.6880, 130.0697
167.1701, 130.5167
167.6522, 130.8353
168.1343, 131.1172
168.6164, 131.4192
169.0985, 131.7453
169.5807, 132.1058
170.0628, 132.5069
170.5449, 132.9484
171.0270, 133.4273
171.5091, 134.0297
171.9912, 134.6289
172.4734, 135.1057
172.9555, 135.4429
173.4376, 135.6740
173.9197, 135.7240
174.4018, 135.6730
174.8839, 135.7401
175.3661, 136.0773
175.8482, 136.5943
176.3303, 137.2192
176.8124, 138.0108
177.2945, 138.7380
177.7766, 139.1297
178.2588, 139.2347
178.7409, 139.2386
179.2230, 139.2386
179.7051, 139.2213
180.1872, 139.1646
180.6693, 139.0671
181.1515, 138.9232
181.6336, 138.7769
182.1157, 138.6094
182.5978, 138.2868
183.0799, 137.5909
183.5620, 136.6538
184.0442, 135.8478
184.5263, 135.2461
185.0084, 134.7927
185.4905, 134.4284
185.9726, 134.1505
186.4547, 133.8490
186.9369, 133.4162
187.4190, 132.8794
187.9011, 132.3781
188.3832, 131.9615
188.8653, 131.5731
189.3474, 131.0274
189.8296, 130.3117
190.3117, 129.6765
190.7938, 129.3753
191.2759, 129.3711
191.7580, 129.3724
192.2401, 129.3140
192.7223, 129.2191
193.2044, 129.1793
193.6865, 129.2060
194.1686, 129.1885
194.6507, 128.9574
195.1328, 128.5264
195.6150, 128.2426
196.0971, 128.2506
196.5792, 128.4513
197.0613, 128.4196
197.5434, 128.1109
198.0255, 127.7774
198.5077, 127.7177
198.9898, 127.9449
199.4719, 128.0735
199.9540, 127.9923
200.4361, 127.7380
200.9182, 127.4960
201.4004, 127.2668
201.8825, 127.0562
202.3646, 126.8663
202.8467, 126.6982
203.3288, 126.5667
203.8109, 126.4874
204.2931, 126.4533
204.7752, 126.3945
205.2573, 126.3005
205.7394, 126.2087
206.2215, 126.1723
206.7036, 126.2097
207.1858, 126.2016
207.6679, 126.0866
208.1500, 125.8787
208.6321, 125.8149
209.1142, 125.9423
209.5963, 126.1245
210.0785, 126.1945
210.5606, 126.1012
211.0427, 126.0927
211.5248, 126.2768
212.0069, 126.6459
212.4890, 126.8050
212.9712, 126.6594
213.4533, 126.4517
213.9354, 126.4906
214.4175, 126.8977
214.8996, 127.1781
215.3817, 127.1717
215.8639, 126.8775
216.3460, 126.7215
216.8281, 126.7662
217.3102, 126.8642
217.7923, 126.8296
218.2744, 126.5761
218.7565, 126.4115
219.2387, 126.4282
219.7208, 126.6297
220.2029, 126.8163
220.6850, 126.9992
221.1671, 127.1509
221.6492, 127.2272
222.1314, 127.1854
222.6135, 127.1685
223.0956, 127.2141
223.5777, 127.3258
224.0598, 127.4340
224.5419, 127.5411
225.0241, 127.6436
225.5062, 127.7237
225.9883, 127.7210
226.4704, 127.8295
226.9525, 128.1408
227.4346, 128.6745
227.9168, 129.0039
228.3989, 128.9943
228.8810, 128.9242
229.3631, 129.0927
229.8452, 129.6178
230.3273, 130.1562
230.8095, 130.6582
231.2916, 131.1259
231.7737, 131.5011
232.2558, 131.7237
232.7379, 131.9166
233.2200, 132.2050
233.7022, 132.6379
234.1843, 133.0681
234.6664, 133.4551
235.1485, 133.7945
235.6306, 134.1903
236.1127, 134.6817
236.5949, 135.1941
237.0770, 135.6496
237.5591, 135.9840
238.0412, 136.3872
238.5233, 136.9254
239.0054, 137.6010
239.4876, 138.1620
239.9697, 138.5411
240.4518, 138.8856
240.9339, 139.3159
241.4160, 139.8201
241.8981, 140.4381
242.3803, 141.2206
242.8624, 142.1637
243.3445, 142.9946
243.8266, 143.6924
244.3087, 144.3092
244.7908, 144.8808
245.2730, 145.3842
245.7551, 145.8822
246.2372, 146.3647
246.7193, 146.8363
247.2014, 147.3929
247.6835, 148.1074
248.1657, 148.8093
248.6478, 149.3408
249.1299, 149.5863
249.6120, 149.9197
250.0941, 150.4047
250.5762, 151.0243
251.0584, 151.6339
251.5405, 152.1854
252.0226, 152.7875
252.5047, 153.5243
252.9868, 154.4846
253.4689, 155.3849
253.9511, 156.1703
254.4332, 156.8745
254.9153, 157.6758
255.3974, 158.6663
255.8795, 159.6177
256.3616, 160.3491
256.8438, 160.7429
257.3259, 161.2388
257.8080, 161.8695
258.2901, 162.6246
258.7722, 163.5353
259.2543, 164.7778
259.7365, 165.8802
260.2186, 166.5733
260.7007, 166.7197
261.1828, 166.8504
261.6649, 167.0449
262.1470, 167.2189
262.6292, 167.1297
263.1113, 166.7515
263.5934, 166.1515
264.0755, 165.3153
264.5576, 164.1355
265.0397, 163.1002
265.5219, 162.3141
266.0040, 161.6133
266.4861, 160.5776
266.9682, 159.1401
267.4503, 157.5565
267.9324, 155.9239
268.4146, 154.1625
268.8967, 152.6376
269.3788, 151.4088
269.8609, 150.3596
270.3430, 149.3078
270.8251, 148.2566
271.3073, 147.1972
271.7894, 146.1267
272.2715, 145.0340
272.7536, 144.0328
273.2357, 143.1437
273.7178, 142.3265
274.2000, 141.4983
274.6821, 140.6445
275.1642, 139.8538
275.6463, 139.1327
276.1284, 138.4804
276.6105, 138.0298
277.0927, 137.8246
277.5748, 137.7254
278.0569, 137.5668
278.5390, 137.3462
279.0211, 137.1027
279.5032, 136.8407
279.9854, 136.5673
280.4675, 136.3073
280.9496, 136.0522
281.4317, 135.8428
281.9138, 135.7678
282.3959, 135.8362
282.8781, 135.8116
283.3602, 135.6107
283.8423, 135.2727
284.3244, 134.9483
284.8065, 134.6278
285.2886, 134.3678
285.7708, 134.2140
286.2529, 134.1650
286.7350, 134.2336
287.2171, 134.5061
287.6992, 134.8381
288.1813, 134.7287
288.6635, 134.1506
289.1456, 133.6144
289.6277, 133.6090
290.1098, 134.0479
290.5919, 134.3507
291.0740, 134.4149
291.5562, 134.3180
292.0383, 134.1531
292.5204, 133.9249
293.0025, 133.7648
293.4846, 133.8385
293.9667, 134.0635
294.4489, 134.1273
294.9310, 133.9580
295.4131, 133.7149
295.8952, 133.6272
296.3773, 133.6800
296.8594, 133.7643
297.3416, 133.8614
297.8237, 133.9446
298.3058, 133.9381
298.7879, 133.8275
299.2700, 133.6794
299.7521, 133.5533
300.2343, 133.4505
300.7164, 133.3822
301.1985, 133.3702
301.6806, 133.3879
302.1627, 133.3980
302.6448, 133.3985
303.1270, 133.3862
303.6091, 133.3367
304.0912, 133.2713
304.5733, 133.2328
305.0554, 133.2444
305.5375, 133.2881
306.0197, 133.3946
306.5018, 133.5547
306.9839, 133.6132
307.4660, 133.3258
307.9481, 132.8944
308.4302, 132.6085
308.9124, 132.6250
309.3945, 132.7514
309.8766, 132.8627
310.3587, 132.9586
310.8408, 133.0295
311.3229, 133.0860
311.8051, 133.1091
312.2872, 133.0723
312.7693, 132.9392
313.2514, 132.7988
313.7335, 132.7160
314.2156, 132.6694
314.6978, 132.5957
315.1799, 132.3355
315.6620, 132.1165
316.1441, 132.1427
316.6262, 132.5517
317.1083, 132.9146
317.5905, 133.0498
318.0726, 133.0149
318.5547, 132.9122
319.0368, 132.6561
319.5189, 132.4348
320.0010, 132.3761
320.4832, 132.5338
320.9653, 132.6242
321.4474, 132.5440
321.9295, 132.3634
322.4116, 132.1647
322.8937, 131.8937
323.3759, 131.6796
323.8580, 131.5700
324.3401, 131.5720
324.8222, 131.6064
325.3043, 131.6636
325.7864, 131.7493
326.2686, 131.8675
326.7507, 132.0700
327.2328, 132.2480
327.7149, 132.4391
328.1970, 132.6242
328.6791, 132.6213
329.1613, 132.1453
329.6434, 131.7030
330.1255, 131.5620
330.6076, 132.1678
331.0897, 132.4201
331.5718, 132.0684
332.0540, 131.3565
332.5361, 130.9939
333.0182, 131.2135
333.5003, 131.4732
333.9824, 131.5562
334.4645, 131.4051
334.9467, 131.2498
335.4288, 131.0618
335.9109, 130.8917
336.3930, 130.8377
336.8751, 130.9514
337.3572, 131.0626
337.8394, 131.1353
338.3215, 131.1711
338.8036, 131.0923
339.2857, 130.8204
339.7678, 130.5701
340.2499, 130.6381
340.7320, 131.1013
341.2141, 131.4041
341.6963, 131.3580
342.1784, 131.0594
342.6605, 130.9801
343.1426, 131.1530
343.6247, 131.3889
344.1068, 131.5622
344.5890, 131.6702
345.0711, 131.6866
345.5532, 131.5743
346.0353, 131.4131
346.5174, 131.3903
346.9995, 131.5035
347.4817, 131.6124
347.9638, 131.5861
348.4459, 131.4787
348.9280, 131.5234
349.4101, 131.7702
349.8922, 132.0299
350.3744, 131.9667
350.8565, 131.6764
351.3386, 131.5309
351.8207, 131.8453
352.3028, 132.3705
352.7849, 132.7148
353.2671, 132.8758
353.7492, 132.9261
354.2313, 132.8041
354.7134, 132.6332
355.1955, 132.6388
355.6776, 133.0342
356.1598, 133.5083
356.6419, 133.8138
357.1240, 133.9581
357.6061, 133.9774
358.0882, 133.7765
358.5703, 133.5173
359.0525, 133.3582
359.5346, 133.3385
360.0167, 133.4121
360.4988, 133.5874
360.9809, 133.8351
361.4630, 134.0911
361.9452, 134.3856
362.4273, 134.6348
362.9094, 134.7623
363.3915, 134.7221
363.8736, 134.7316
364.3557, 134.9060
364.8379, 135.1515
365.3200, 135.3582
365.8021, 135.4608
366.2842, 135.5620
366.7663, 135.7138
367.2484, 135.9198
367.7306, 136.0493
368.2127, 135.9628
368.6948, 135.8761
369.1769, 135.9323
369.6590, 136.2760
370.1411, 136.5983
370.6233, 136.9319
371.1054, 137.2445
371.5875, 137.3974
372.0696, 137.2341
372.5517, 137.0993
373.0338, 137.1329
373.5160, 137.3686
373.9981, 137.6957
374.4802, 138.1947
374.9623, 138.7240
375.4444, 139.0327
375.9265, 139.0489
376.4087, 139.0462
376.8908, 139.0760
377.3729, 139.1407
377.8550, 139.3898
378.3371, 139.9003
378.8192, 140.3842
379.3014, 140.4733
379.7835, 140.1437
380.2656, 139.9855
380.7477, 140.1477
381.2298, 140.5134
381.7119, 140.7937
382.1941, 140.9835
382.6762, 141.1857
383.1583, 141.5086
383.6404, 141.9079
384.1225, 142.1988
384.6046, 142.3565
385.0868, 142.4274
385.5689, 142.3933
386.0510, 142.3018
386.5331, 142.3282
387.0152, 142.6721
387.4973, 143.1367
387.9795, 143.4379
388.4616, 143.5735
388.9437, 143.6533
389.4258, 143.7069
389.9079, 143.7753
390.3900, 143.9207
390.8722, 144.2158
391.3543, 144.5323
391.8364, 144.6550
392.3185, 144.6837
392.8006, 145.2243
393.2827, 145.7177
393.7649, 146.1545
394.2470, 146.5378
394.7291, 146.7071
395.2112, 147.1527
395.6933, 147.4875
396.1754, 147.8179
396.6576, 148.3024
397.1397, 148.5028
397.6218, 148.9848
398.1039, 149.3544
398.5860, 149.4104
399.0681, 149.7505
399.5503, 149.9023
400.0324, 150.0215
400.5145, 150.2229
400.9966, 150.5978
401.4787, 150.9344
401.9608, 151.2326
402.4430, 151.4859
402.9251, 151.6674
403.4072, 151.7845
403.8893, 151.8200
404.3714, 151.7462
404.8535, 151.5228
405.3357, 151.3500
405.8178, 151.2237
406.2999, 151.1528
406.7820, 151.1719
407.2641, 151.3004
407.7462, 151.4098
408.2284, 151.4902
408.7105, 151.5207
409.1926, 151.3671
409.6747, 151.0106
410.1568, 150.6152
410.6389, 150.3233
411.1211, 150.1210
411.6032, 149.9042
412.0853, 149.6459
412.5674, 149.3881
413.0495, 149.2029
413.5316, 149.0750
414.0138, 148.9282
414.4959, 148.6589
414.9780, 148.3645
415.4601, 148.2579
415.9422, 148.3653
416.4243, 148.3814
416.9065, 147.9034
417.3886, 147.2056
417.8707, 146.7093
418.3528, 146.7412
418.8349, 146.8396
419.3170, 146.6722
419.7992, 146.2979
420.2813, 146.0060
420.7634, 146.0139
421.2455, 146.0799
421.7276, 146.0336
422.2097, 145.7903
422.6919, 145.5732
423.1740, 145.4699
423.6561, 145.4188
424.1382, 145.3229
424.6203, 144.9642
425.1024, 144.7670
425.5846, 144.9120
426.0667, 145.4244
426.5488, 145.7988
427.0309, 145.9955
427.5130, 146.0930
427.9951, 146.1359
428.4773, 146.0851
428.9594, 146.0666
429.4415, 146.0941
429.9236, 146.1577
430.4057, 146.2359
430.8878, 146.3315
431.3700, 146.4369
431.8521, 146.5722
432.3342, 146.7385
432.8163, 146.7783
433.2984, 146.6565
433.7805, 146.5349
434.2627, 146.6109
434.7448, 146.8687
435.2269, 147.1531
435.7090, 147.4389
436.1911, 147.7174
436.6732, 147.9676
437.1554, 148.1909
437.6375, 148.3978
438.1196, 148.6129
438.6017, 148.8083
439.0838, 148.9192
439.5659, 148.9208
440.0480, 148.9278
440.5302, 149.1309
441.0123, 149.3920
441.4944, 149.4798
441.9765, 149.0978
442.4586, 148.6826
442.9407, 148.5104
443.4229, 148.5638
443.9050, 148.6471
444.3871, 148.7430
444.8692, 148.8026
445.3513, 148.7846
445.8334, 148.6168
446.3156, 148.4915
446.7977, 148.5091
447.2798, 148.5808
447.7619, 148.5492
448.2440, 148.3230
448.7261, 148.0771
449.2083, 147.8186
449.6904, 147.5383
450.1725, 147.4073
450.6546, 147.5131
451.1367, 147.6610
451.6188, 147.7114
452.1010, 147.6552
452.5831, 147.5223
453.0652, 147.2850
453.5473, 147.0009
454.0294, 146.7773
454.5115, 146.6101
454.9937, 146.5396
455.4758, 146.6800
455.9579, 146.9580
456.4400, 146.8746
456.9221, 146.3858
457.4042, 145.9345
457.8864, 146.0679
458.3685, 146.5949
458.8506, 146.9613
459.3327, 146.9991
459.8148, 146.8629
460.2969, 146.6608
460.7791, 146.4206
461.2612, 146.2408
461.7433, 146.2674
462.2254, 146.3220
462.7075, 146.2356
463.1896, 145.9833
463.6718, 145.7190
464.1539, 145.5089
464.6360, 145.3361
465.1181, 145.1881
465.6002, 144.9847
466.0823, 144.8903
466.5645, 145.0268
467.0466, 145.3264
467.5287, 145.5290
468.0108, 145.5510
468.4929, 145.5167
468.9750, 145.4555
469.4572, 145.3439
469.9393, 145.2848
470.4214, 145.2767
470.9035, 145.3200
471.3856, 145.4332
471.8677, 145.6580
472.3499, 145.8110
472.8320, 145.8372
473.3141, 145.7821
473.7962, 145.8185
474.2783, 145.9627
474.7604, 146.0912
475.2426, 146.1328
475.7247, 146.0973
476.2068, 146.0530
476.6889, 146.0137
477.1710, 145.9048
477.6531, 145.5809
478.1353, 145.1157
478.6174, 144.7085
479.0995, 144.4150
479.5816, 144.2154
480.0637, 144.1217
480.5458, 144.1123
481.0280, 144.1116
481.5101, 144.1290
481.9922, 144.1006
482.4743, 143.9697
482.9564, 143.7199
483.4385, 143.4137
483.9207, 142.9600
484.4028, 142.5135
484.8849, 142.2380
485.3670, 142.3858
485.8491, 142.4707
486.3312, 142.3475
486.8134, 142.0703
487.2955, 141.9160
487.7776, 142.0069
488.2597, 142.0848
488.7418, 142.0490
489.2239, 141.8839
489.7061, 141.6708
490.1882, 141.3486
490.6703, 141.0699
491.1524, 141.0522
491.6345, 141.3426
492.1166, 141.5197
492.5988, 141.4896
493.0809, 141.3069
493.5630, 141.0518
494.0451, 140.7260
494.5272, 140.5093
495.0093, 140.5993
495.4915, 140.8578
495.9736, 140.9478
496.4557, 140.8447
496.9378, 140.7312
497.4199, 140.8283
497.9020, 141.0072
498.3842, 141.0589
498.8663, 140.8311
499.3484, 140.5935
499.8305, 140.5442
500.3126, 140.6215
500.7947, 140.6668
501.2769, 140.6141
501.7590, 140.5255
502.2411, 140.4103
502.7232, 140.2572
503.2053, 140.1650
503.6874, 140.1580
504.1696, 140.2104
504.6517, 140.3137
505.1338, 140.5753
505.6159, 140.6827
506.0980, 140.5204
506.5801, 140.2338
507.0623, 140.1796
507.5444, 140.4265
508.0265, 140.6820
508.5086, 140.8347
508.9907, 140.8997
509.4728, 141.0255
509.9550, 141.2258
510.4371, 141.3819
510.9192, 141.3345
511.4013, 141.1450
511.8834, 141.0501
512.3655, 141.0973
512.8477, 141.2129
513.3298, 141.3747
513.8119, 141.5423
514.2940, 141.6168
514.7761, 141.4511
515.2582, 141.2564
515.7404, 141.1722
516.2225, 141.1981
516.7046, 141.3082
517.1867, 141.6047
517.6688, 141.9022
518.1509, 142.0644
518.6331, 141.9936
519.1152, 141.9773
519.5973, 142.0631
520.0794, 142.2243
520.5615, 142.4292
521.0436, 142.7587
521.5258, 142.9945
522.0079, 143.0435
522.4900, 142.9637
522.9721, 143.0973
523.4542, 143.5564
523.9363, 143.8902
524.4185, 143.7700
524.9006, 143.2000
525.3827, 142.9090
525.8648, 142.9281
526.3469, 143.0681
526.8290, 143.1192
527.3112, 143.1178
527.7933, 143.2074
528.2754, 143.4537
528.7575, 143.7542
529.2396, 144.0356
529.7217, 144.2812
530.2039, 144.4352
530.6860, 144.4003
531.1681, 144.3161
531.6502, 144.2581
532.1323, 144.2306
532.6144, 144.2737
533.0966, 144.4118
533.5787, 144.6165
534.0608, 144.8755
534.5429, 145.2486
535.0250, 145.5688
535.5071, 145.7852
535.9893, 145.9510
536.4714, 146.1454
536.9535, 146.4251
537.4356, 146.6196
537.9177, 146.6562
538.3998, 146.5724
538.8820, 146.5930
539.3641, 146.7278
539.8462, 146.9218
540.3283, 147.1736
540.8104, 147.4669
541.2925, 147.6919
541.7747, 147.8406
542.2568, 147.9352
542.7389, 147.9312
543.2210, 147.8934
543.7031, 147.9908
544.1852, 148.3477
544.6674, 148.7317
545.1495, 148.9015
545.6316, 148.9280
546.1137, 148.9880
546.5958, 149.1498
547.0779, 149.3771
547.5601, 149.7048
548.0422, 150.1379
548.5243, 150.4385
549.0064, 150.4172
549.4885, 150.3453
549.9706, 150.3857
550.4528, 150.5428
550.9349, 150.8126
551.4170, 151.2764
551.8991, 151.7900
552.3812, 152.1207
552.8633, 152.2107
553.3455, 152.3588
553.8276, 152.6739
554.3097, 153.0757
554.7918, 153.2980
555.2739, 153.3383
555.7560, 153.3171
556.2382, 153.2741
556.7203, 153.2291
557.2024, 153.2109
557.6845, 153.2207
558.1666, 153.3020
558.6487, 153.5942
559.1309, 153.9428
559.6130, 154.1346
560.0951, 154.0561
560.5772, 153.9382
561.0593, 153.8791
561.5414, 153.8560
562.0236, 153.8304
562.5057, 153.8567
562.9878, 153.8106
563.4699, 153.6103
563.9520, 153.2766
564.4341, 153.0288
564.9163, 152.9556
565.3984, 152.8401
565.8805, 152.5377
566.3626, 151.9875
566.8447, 151.6317
567.3268, 151.5097
567.8090, 151.4568
568.2911, 151.2786
568.7732, 150.9904
569.2553, 150.7505
569.7374, 150.6065
570.2195, 150.4880
570.7017, 150.2947
571.1838, 150.0391
571.6659, 149.7651
572.1480, 149.5689
572.6301, 149.3055
573.1122, 148.7741
573.5944, 148.0095
574.0765, 147.3553
574.5586, 146.9408
575.0407, 146.7006
575.5228, 146.6423
576.0049, 146.9085
576.4871, 146.9548
576.9692, 146.5889
577.4513, 146.0814
577.9334, 145.6725
578.4155, 145.4062
578.8976, 145.1486
579.3798, 144.8720
579.8619, 144.6062
580.3440, 144.4171
580.8261, 144.3032
581.3082, 144.2948
581.7903, 144.4502
582.2725, 144.7094
582.7546, 144.9491
583.2367, 145.1607
583.7188, 145.2108
584.2009, 144.8546
584.6830, 144.3372
585.1652, 143.9559
585.6473, 143.7431
586.1294, 143.6950
586.6115, 143.9456
587.0936, 144.2953
587.5757, 144.5312
588.0578, 144.4626
588.5399, 144.4337
589.0220, 144.5910
589.5042, 144.8203
589.9863, 144.8452
590.4684, 144.4622
590.9505, 144.2112
591.4326, 144.2971
591.9147, 144.6625
592.3969, 144.7749
592.8790, 144.5955
593.3611, 144.3361
593.8432, 144.0940
594.3253, 143.8831
594.8074, 143.7559
595.2896, 143.7180
595.7717, 143.7435
596.2538, 143.8354
596.7359, 143.9689
597.2180, 144.1203
597.7001, 144.3451
598.1823, 144.4495
598.6644, 144.1435
599.1465, 143.6544
599.6286, 143.3712
600.1107, 143.6180
600.5928, 143.8855
601.0750, 144.0009
601.5571, 143.9824
602.0392, 144.0346
602.5213, 144.2306
603.0034, 144.3982
603.4855, 144.4392
603.9677, 144.3348
604.4498, 144.3846
604.9319, 144.6314
605.4140, 144.8943
605.8961, 144.9899
606.3782, 144.9420
606.8604, 144.8857
607.3425, 144.8214
607.8246, 144.8161
608.3067, 145.0494
608.7888, 145.3969
609.2709, 145.5825
609.7531, 145.4246
610.2352, 145.1720
610.7173, 144.9590
611.1994, 144.7785
611.6815, 144.6083
612.1636, 144.2582
612.6458, 144.0927
613.1279, 144.3889
613.6100, 145.1720
614.0921, 145.5844
614.5742, 145.4509
615.0563, 145.1862
615.5385, 145.0127
616.0206, 144.9513
616.5027, 144.8508
616.9848, 144.7044
617.4669, 144.5429
617.9490, 144.3665
618.4312, 144.1960
618.9133, 144.1658
619.3954, 144.3432
619.8775, 144.5613
620.3596, 144.6051
620.8417, 144.5368
621.3239, 144.4943
621.8060, 144.6530
622.2881, 144.7444
622.7702, 144.4960
623.2523, 144.0157
623.7344, 143.7505
624.2166, 144.0304
624.6987, 144.3430
625.1808, 144.4927
625.6629, 144.4700
626.1450, 144.3899
626.6271, 144.1840
627.1093, 144.0258
627.5914, 144.0893
628.0735, 144.4014
628.5556, 144.4992
629.0377, 144.3228
629.5198, 144.0771
630.0020, 144.0213
630.4841, 144.0986
630.9662, 144.1319
631.4483, 144.0819
631.9304, 143.9686
632.4125, 143.7668
632.8947, 143.5234
633.3768, 143.3260
633.8589, 143.1686
634.3410, 143.1134
634.8231, 143.3015
635.3052, 143.6646
635.7874, 143.7908
636.2695, 143.3580
636.7516, 142.9920
637.2337, 142.9182
637.7158, 143.1472
638.1979, 143.3867
638.6801, 143.6665
639.1622, 143.8615
639.6443, 143.7917
640.1264, 143.5010
640.6085, 143.4189
641.0906, 143.6021
641.5728, 143.8370
642.0549, 143.9035
642.5370, 143.8605
643.0191, 143.8274
643.5012, 143.8747
643.9833, 143.8652
644.4655, 143.6427
644.9476, 143.3224
645.4297, 143.0902
645.9118, 143.0014
646.3939, 143.0097
646.8760, 143.2109
647.3582, 143.5221
647.8403, 143.6023
648.3224, 143.3481
648.8045, 143.0618
649.2866, 142.8015
649.7687, 142.5867
650.2509, 142.6850
650.7330, 143.1253
651.2151, 143.5769
651.6972, 143.7685
652.1793, 143.7928
652.6614, 143.8569
653.1436, 143.9772
653.6257, 144.1162
654.1078, 144.2602
654.5899, 144.3981
655.0720, 144.5238
655.5541, 144.6512
656.0363, 144.7313
656.5184, 144.7197
657.0005, 144.6629
657.4826, 144.6159
657.9647, 144.5263
658.4468, 144.5450
658.9290, 144.7407
659.4111, 145.0251
659.8932, 145.1494
660.3753, 145.0820
660.8574, 145.1157
661.3395, 145.4043
661.8217, 145.8344
662.3038, 146.1748
662.7859, 146.4181
663.2680, 146.5204
663.7501, 146.2897
664.2322, 146.0095
664.7144, 145.9704
665.1965, 146.1814
665.6786, 146.4411
666.1607, 146.7983
666.6428, 147.0794
667.1249, 147.1543
667.6071, 146.9053
668.0892, 146.7339
668.5713, 146.5956
669.0534, 146.5868
669.5355, 146.8563
670.0176, 147.4747
670.4998, 147.8835
670.9819, 147.9963
671.4640, 147.9806
671.9461, 148.0338
672.4282, 148.1571
672.9103, 148.3693
673.3925, 148.7202
673.8746, 149.0861
674.3567, 149.2727
674.8388, 149.3778
675.3209, 149.6127
675.8030, 150.2808
676.2852, 150.8688
676.7673, 151.0257
677.2494, 150.8631
677.7315, 151.1059
678.2136, 152.1900
678.6957, 153.0900
679.1779, 153.3490
679.6600, 153.0109
680.1421, 153.0921
680.6242, 153.6530
681.1063, 154.2856
681.5884, 154.6839
682.0706, 154.9353
682.5527, 155.3096
683.0348, 155.8284
683.5169, 156.4181
683.9990, 157.0937
684.4811, 157.7856
684.9633, 158.4020
685.4454, 158.8652
685.9275, 159.4405
686.4096, 160.2858
686.8917, 161.2648
687.3738, 162.2356
687.8560, 163.1622
688.3381, 164.1197
688.8202, 165.1067
689.3023, 166.1395
689.7844, 167.2236
690.2665, 168.3582
690.7487, 169.6647
691.2308, 171.2169
691.7129, 172.8853
692.1950, 174.5091
692.6771, 176.0939
693.1592, 177.6914
693.6414, 179.2871
694.1235, 180.9364
694.6056, 182.6589
695.0877, 184.4467
695.5698, 186.3293
696.0519, 188.3712
696.5341, 190.4487
697.0162, 192.4800
697.4983, 194.4599
697.9804, 196.7540
698.4625, 199.4483
698.9446, 202.3012
699.4268, 205.1280
699.9089, 207.9519
700.3910, 211.0351
700.8731, 214.3944
701.3552, 217.8117
701.8373, 221.0821
702.3195, 224.2964
702.8016, 227.5877
703.2837, 231.0105
703.7658, 234.3669
704.2479, 237.4663
704.7300, 240.4753
705.2122, 243.5544
705.6943, 246.8166
706.1764, 250.0257
706.6585, 253.3522
707.1406, 256.5146
707.6227, 259.2393
708.1049, 261.5185
708.5870, 263.4380
709.0691, 265.0798
709.5512, 266.2083
710.0333, 266.3896
710.5154, 265.6618
710.9976, 264.2364
711.4797, 262.1392
711.9618, 259.4589
712.4439, 256.2682
712.9260, 252.5817
713.4081, 248.3631
713.8903, 243.3225
714.3724, 238.0310
714.8545, 232.4229
715.3366, 226.5945
715.8187, 221.2360
716.3008, 216.5103
716.7830, 211.9036
717.2651, 207.1248
717.7472, 202.2389
718.2293, 197.9572
718.7114, 194.2955
719.1935, 190.9918
719.6757, 187.9401
720.1578, 185.0898
720.6399, 182.1889
721.1220, 179.2760
721.6041, 176.6802
722.0862, 174.8266
722.5684, 173.2953
723.0505, 171.7694
723.5326, 170.1999
724.0147, 168.7539
724.4968, 167.5143
724.9789, 166.3684
725.4611, 165.2495
725.9432, 164.1760
726.4253, 163.0439
726.9074, 161.7945
727.3895, 160.6154
727.8716, 159.7353
728.3538, 159.0982
728.8359, 158.5009
729.3180, 157.9005
729.8001, 157.3838
730.2822, 157.1287
730.7643, 156.9641
731.2465, 156.6567
731.7286, 156.0167
732.2107, 155.4198
732.6928, 154.9501
733.1749, 154.5882
733.6570, 154.3069
734.1392, 154.1346
734.6213, 153.9681
735.1034, 153.7648
735.5855, 153.5862
736.0676, 153.6245
736.5497, 153.8571
737.0319, 153.9475
737.5140, 153.7306
737.9961, 153.3911
738.4782, 153.0988
738.9603, 152.8787
739.4424, 152.7925
739.9246, 153.0014
740.4067, 153.2214
740.8888, 153.2720
741.3709, 153.2104
741.8530, 153.3280
742.3351, 153.8706
742.8173, 154.2278
743.2994, 154.1682
743.7815, 153.7837
744.2636, 153.5643
744.7457, 153.5158
745.2278, 153.5452
745.7100, 153.6264
746.1921, 153.7388
746.6742, 153.8573
747.1563, 153.9766
747.6384, 154.0606
748.1205, 154.0538
748.6027, 154.0324
749.0848, 154.0143
749.5669, 153.9981
750.0490, 154.1281
750.5311, 154.6836
751.0132, 155.0945
751.4954, 155.0538
751.9775, 154.5196
752.4596, 154.1143
752.9417, 153.8404
753.4238, 153.6638
753.9059, 153.5899
754.3881, 153.5846
754.8702, 153.5808
755.3523, 153.5757
755.8344, 153.4960
756.3165, 153.1731
756.7986, 152.8248
757.2808, 152.6748
757.7629, 152.8342
758.2450, 152.8952
758.7271, 152.6957
759.2092, 152.4562
759.6913, 152.3247
760.1735, 152.3268
760.6556, 152.3436
761.1377, 152.3862
761.6198, 152.3921
762.1019, 152.3136
762.5840, 152.1402
763.0662, 151.7741
763.5483, 151.1382
764.0304, 150.6375
764.5125, 150.7642
764.9946, 151.1571
765.4767, 151.4069
765.9589, 151.4068
766.4410, 151.2847
766.9231, 150.9510
767.4052, 150.5768
767.8873, 150.3451
768.3694, 150.3037
768.8516, 150.2275
769.3337, 150.0724
769.8158, 149.9249
770.2979, 149.9616
770.7800, 150.1227
771.2621, 150.1817
771.7443, 150.0489
772.2264, 149.8736
772.7085, 149.7337
773.1906, 149.6480
773.6727, 149.6441
774.1548, 149.8537
774.6370, 149.9951
775.1191, 150.0151
775.6012, 149.9468
776.0833, 149.7962
776.5654, 149.4916
777.0475, 149.4448
777.5297, 149.8272
778.0118, 150.3331
778.4939, 150.3527
778.9760, 150.0048
779.4581, 149.7216
779.9402, 149.5884
780.4224, 149.6796
780.9045, 150.3197
781.3866, 151.1835
781.8687, 151.6557
782.3508, 151.0879
782.8329, 150.6896
783.3151, 150.7886
783.7972, 151.1574
784.2793, 151.3003
784.7614, 151.1931
785.2435, 150.9629
785.7256, 150.5728
786.2077, 150.1779
786.6898, 150.1735
787.1719, 150.4586
787.6541, 150.6586
788.1362, 150.5746
788.6183, 150.3894
789.1004, 150.2070
789.5825, 150.0211
790.0646, 149.8173
790.5468, 149.5365
791.0289, 149.3068
791.5110, 149.1646
791.9931, 149.0886
792.4752, 149.0371
792.9573, 149.0165
793.4395, 148.9352
793.9216, 148.7006
794.4037, 148.4444
794.8858, 148.4636
795.3679, 148.6814
795.8500, 148.8589
796.3322, 148.8430
796.8143, 148.7878
797.2964, 148.7744
797.7785, 148.7908
798.2606, 148.7948
798.7427, 148.8414
799.2249, 148.7770
799.7070, 148.4983
800.1891, 148.1127
800.6712, 147.9992
801.1533, 148.1633
801.6354, 148.3834
802.1176, 148.6583
802.5997, 148.8504
803.0818, 148.6477
803.5639, 148.1771
804.0460, 147.8229
804.5281, 147.8483
805.0103, 147.9365
805.4924, 147.9853
805.9745, 147.9866
806.4566, 147.9159
806.9387, 147.6584
807.4208, 147.5993
807.9030, 147.9558
808.3851, 148.5093
808.8672, 148.4972
809.3493, 147.9876
809.8314, 147.6132
810.3135, 147.8099
810.7957, 148.1619
811.2778, 148.2894
811.7599, 148.2269
812.2420, 148.0725
812.7241, 147.6974
813.2062, 147.4184
813.6884, 147.3986
814.1705, 147.5448
814.6526, 147.5366
815.1347, 147.3064
815.6168, 147.2236
816.0989, 147.4841
816.5811, 147.8743
817.0632, 147.8767
817.5453, 147.5729
818.0274, 147.2952
818.5095, 147.2172
818.9916, 147.2079
819.4738, 147.2116
819.9559, 147.2187
820.4380, 147.2042
820.9201, 147.1573
821.4022, 147.0884
821.8843, 146.9648
822.3665, 146.8386
822.8486, 146.8738
823.3307, 147.0753
823.8128, 147.2617
824.2949, 147.3562
824.7770, 147.4293
825.2592, 147.6394
825.7413, 147.9090
826.2234, 148.0628
826.7055, 147.8647
827.1876, 147.7617
827.6697, 147.9795
828.1519, 148.0967
828.6340, 148.1187
829.1161, 147.7605
829.5982, 147.8933
830.0803, 147.8293
830.5624, 147.7572
831.0446, 147.9591
831.5267, 147.6562
832.0088, 147.8538
832.4909, 147.8515
832.9730, 147.9407
833.4551, 147.8320
833.9373, 147.7843
834.4194, 147.9347
834.9015, 147.9755
835.3836, 147.8439
835.8657, 147.9389
836.3478, 147.6291
836.8300, 147.6745
837.3121, 147.8732
837.7942, 147.7516
838.2763, 147.8502
838.7584, 147.8650
839.2405, 147.5766
839.7227, 147.9093
840.2048, 148.2325
840.6869, 148.5148
841.1690, 148.7386
841.6511, 148.8846
842.1332, 148.9748
842.6154, 149.0453
843.0975, 149.1890
843.5796, 149.0762
844.0617, 148.5656
844.5438, 148.0365
845.0259, 148.0261
845.5081, 148.4283
845.9902, 148.7275
846.4723, 148.8447
846.9544, 148.8697
847.4365, 148.8437
847.9186, 148.7884
848.4008, 148.7234
848.8829, 148.6394
849.3650, 148.5874
849.8471, 148.5874
850.3292, 148.6101
850.8113, 148.6499
851.2935, 148.7168
851.7756, 148.6756
852.2577, 148.5000
852.7398, 148.3856
853.2219, 148.6120
853.7040, 148.9744
854.1862, 149.1223
854.6683, 149.0054
855.1504, 148.9048
855.6325, 148.9409
856.1146, 149.0408
856.5967, 149.1781
857.0789, 149.3624
857.5610, 149.4311
858.0431, 149.3246
858.5252, 149.2737
859.0073, 149.5156
859.4894, 149.9332
859.9716, 150.0980
860.4537, 150.0236
860.9358, 149.8798
861.4179, 149.6894
861.9000, 149.5421
862.3821, 149.5233
862.8643, 149.6304
863.3464, 149.7144
863.8285, 149.7324
864.3106, 149.7801
864.7927, 149.8893
865.2748, 150.0575
865.7570, 150.3475
866.2391, 150.7433
866.7212, 150.9135
867.2033, 150.4184
867.6854, 149.8293
868.1675, 149.8330
868.6497, 150.2457
869.1318, 150.5425
869.6139, 150.3565
870.0960, 150.2695
870.5781, 150.4879
871.0602, 150.8704
871.5424, 151.0827
872.0245, 151.1183
872.5066, 151.0132
872.9887, 150.7156
873.4708, 150.4011
873.9529, 150.3960
874.4351, 150.5719
874.9172, 150.6456
875.3993, 150.4334
875.8814, 150.2406
876.3635, 150.2176
876.8456, 150.2671
877.3278, 150.2406
877.8099, 150.0787
878.2920, 150.0451
878.7741, 150.1990
879.2562, 150.3993
879.7383, 150.4359
880.2205, 150.3762
880.7026, 150.4251
881.1847, 150.6380
881.6668, 150.8491
882.1489, 150.9183
882.6310, 150.9522
883.1132, 151.0704
883.5953, 151.3774
884.0774, 151.4442
884.5595, 151.1419
885.0416, 150.8349
885.5237, 150.8256
886.0059, 151.0644
886.4880, 151.3045
886.9701, 151.5326
887.4522, 151.6252
887.9343, 151.2911
888.4164, 150.9299
888.8986, 150.9621
889.3807, 151.4059
889.8628, 151.6551
890.3449, 151.4302
890.8270, 151.3003
891.3091, 151.5444
891.7913, 152.0563
892.2734, 152.1970
892.7555, 151.9857
893.2376, 151.8428
893.7197, 152.0555
894.2018, 152.3913
894.6840, 152.6649
895.1661, 152.8665
895.6482, 152.9677
896.1303, 152.8209
896.6124, 152.7446
897.0945, 152.8233
897.5767, 152.9955
898.0588, 153.1229
898.5409, 153.2033
899.0230, 153.3326
899.5051, 153.5514
899.9872, 153.7811
900.4694, 153.9439
900.9515, 154.0469
901.4336, 154.0928
901.9157, 154.0166
902.3978, 154.0164
902.8799, 154.2487
903.3621, 154.5091
903.8442, 154.6002
904.3263, 154.4714
904.8084, 154.4997
905.2905, 154.7310
905.7726, 154.9550
906.2548, 154.8789
906.7369, 154.6976
907.2190, 154.8020
907.7011, 155.2410
908.1832, 155.5197
908.6653, 155.2089
909.1475, 154.8597
909.6296, 154.7602
910.1117, 154.9080
910.5938, 155.2210
911.0759, 155.7554
911.5580, 156.1484
912.0402, 156.1150
912.5223, 155.8511
913.0044, 155.7279
913.4865, 155.7201
913.9686, 155.7415
914.4507, 155.7348
914.9329, 155.7659
915.4150, 155.9168
915.8971, 156.1184
916.3792, 156.1817
916.8613, 156.0574
917.3434, 155.9904
917.8256, 156.0424
918.3077, 156.1521
918.7898, 156.2708
919.2719, 156.3640
919.7540, 156.3371
920.2361, 156.1065
920.7183, 155.8864
921.2004, 155.7747
921.6825, 155.7253
922.1646, 155.6945
922.6467, 155.7075
923.1288, 155.6439
923.6110, 155.4747
924.0931, 155.3269
924.5752, 155.3464
925.0573, 155.4740
925.5394, 155.6003
926.0215, 155.7159
926.5037, 155.7780
926.9858, 155.6951
927.4679, 155.6122
927.9500, 155.6331
928.4321, 155.7490
928.9142, 155.8336
929.3964, 155.8884
929.8785, 155.9035
930.3606, 155.8732
930.8427, 155.8003
931.3248, 155.6032
931.8069, 155.3571
932.2891, 155.3095
932.7712, 155.9444
933.2533, 156.3859
933.7354, 156.0282
934.2175, 155.3010
934.6996, 155.0775
935.1818, 155.5536
935.6639, 155.8548
936.1460, 155.8543
936.6281, 155.7045
937.1102, 155.5305
937.5923, 155.3780
938.0745, 155.3508
938.5566, 155.4771
939.0387, 155.6897
939.5208, 156.0677
940.0029, 156.4294
940.4850, 156.6521
940.9672, 156.7376
941.4493, 156.6119
941.9314, 156.2179
942.4135, 155.8699
942.8956, 155.7494
943.3777, 155.8316
943.8599, 156.2275
944.3420, 156.8324
944.8241, 157.1447
945.3062, 156.6029
945.7883, 156.0565
946.2704, 155.8518
946.7526, 155.9094
947.2347, 156.0462
947.7168, 156.2759
948.1989, 156.5394
948.6810, 156.8701
949.1631, 157.1240
949.6453, 156.9399
950.1274, 156.5615
950.6095, 156.4670
951.0916, 156.9502
951.5737, 157.3521
952.0558, 157.3906
952.5380, 157.3274
953.0201, 157.3593
953.5022, 157.4976
953.9843, 157.6226
954.4664, 157.7276
954.9485, 157.8473
955.4307, 158.0806
955.9128, 158.3054
956.3949, 158.3456
956.8770, 158.2068
957.3591, 158.0508
957.8412, 157.9326
958.3234, 157.8036
958.8055, 157.6065
959.2876, 157.3992
959.7697, 157.4720
960.2518, 157.8168
960.7339, 157.9695
961.2161, 157.6374
961.6982, 157.2697
962.1803, 157.4138
962.6624, 157.8244
963.1445, 158.1195
963.6266, 158.1527
964.1088, 158.1157
964.5909, 157.9621
965.0730, 157.8174
965.5551, 157.8199
966.0372, 157.9554
966.5193, 158.1318
967.0015, 158.3431
967.4836, 158.4899
967.9657, 158.4656
968.4478, 158.3648
968.9299, 158.2254
969.4120, 158.0571
969.8942, 158.0090
970.3763, 158.0829
970.8584, 158.3049
971.3405, 158.8122
971.8226, 159.3735
972.3047, 159.2227
972.7869, 158.5341
973.2690, 158.0252
973.7511, 158.1118
974.2332, 158.2787
974.7153, 158.2338
975.1974, 158.1021
975.6796, 158.0642
976.1617, 158.1576
976.6438, 158.2528
977.1259, 158.3402
977.6080, 158.4372
978.0901, 158.6101
978.5723, 158.7889
979.0544, 158.7929
979.5365, 158.6083
980.0186, 158.4715
980.5007, 158.4636
980.9828, 158.5748
981.4650, 158.9042
981.9471, 159.3709
982.4291, 159.3665
982.9113, 158.8370
983.3934, 158.4550
983.8755, 158.5518
984.3576, 158.8313
984.8397, 158.9044
985.3218, 158.8684
985.8040, 158.9012
986.2861, 159.0530
986.7682, 159.3047
987.2503, 159.7999
987.7324, 160.2306
988.2145, 160.1664
988.6967, 159.6475
989.1788, 159.5652
989.6609, 159.9921
990.1430, 160.3478
990.6251, 159.9875
991.1072, 159.4957
991.5894, 159.4076
992.0715, 159.7447
992.5536, 160.0089
993.0357, 160.1806
993.5178, 160.2488
993.9999, 160.1808
994.4821, 160.0372
994.9642, 159.9550
995.4463, 159.9227
995.9284, 159.8962
996.4105, 159.8395
996.8926, 159.8206
997.3748, 159.8884
997.8569, 160.0040
998.3390, 160.1303
998.8211, 160.2881
999.3032, 160.3882
999.7853, 160.4371
1000.267, 160.3857
1000.750, 160.0264
1001.232, 159.6236
1001.714, 159.7018
1002.196, 160.2134
1002.678, 160.5880
1003.160, 160.5354
1003.642, 160.3759
1004.124, 160.1623
1004.607, 159.9397
1005.089, 159.8411
1005.571, 159.8620
1006.053, 159.9404
1006.535, 160.0764
1007.017, 160.2077
1007.499, 160.2924
1007.981, 160.3287
1008.463, 160.3051
1008.946, 160.1592
1009.428, 160.1032
1009.910, 160.1509
1010.392, 160.2596
1010.874, 160.4229
1011.356, 160.6231
1011.838, 160.8122
1012.320, 160.9805
1012.802, 161.0700
1013.285, 161.0190
1013.767, 160.9165
1014.249, 160.7314
1014.731, 160.5493
1015.213, 160.6023
1015.695, 160.9664
1016.177, 161.0570
1016.659, 160.7075
1017.142, 160.3405
1017.624, 160.5929
1018.106, 161.0922
1018.588, 161.2876
1019.070, 161.0324
1019.552, 160.8531
1020.034, 160.9141
1020.516, 160.9926
1020.998, 160.9476
1021.481, 160.8359
1021.963, 161.0203
1022.445, 161.4587
1022.927, 161.8611
1023.409, 162.0981
1023.891, 162.2348
1024.373, 162.3273
1024.855, 162.3421
1025.338, 162.1942
1025.820, 161.7541
1026.302, 161.5377
1026.784, 161.6032
1027.266, 161.8025
1027.748, 162.0827
1028.230, 162.3494
1028.712, 162.3957
1029.194, 162.2173
1029.677, 162.0410
1030.159, 161.8748
1030.641, 161.8365
1031.123, 162.0334
1031.605, 162.3592
1032.087, 162.4135
1032.569, 162.2123
1033.051, 162.0590
1033.534, 162.0576
1034.016, 162.1122
1034.498, 162.1623
1034.980, 162.2050
1035.462, 162.2264
1035.944, 162.1822
1036.426, 162.2709
1036.908, 162.5578
1037.391, 162.7993
1037.873, 162.8062
1038.355, 162.6426
1038.837, 162.3866
1039.319, 162.0850
1039.801, 161.9459
1040.283, 162.2377
1040.765, 162.5015
1041.247, 162.5107
1041.729, 162.4501
1042.212, 162.6826
1042.694, 163.2135
1043.176, 163.5204
1043.658, 163.5242
1044.140, 163.3517
1044.622, 162.8992
1045.104, 162.4768
1045.586, 162.4346
1046.069, 162.8359
1046.551, 163.1508
1047.033, 163.3509
1047.515, 163.4829
1047.997, 163.5598
1048.479, 163.5867
1048.961, 163.5309
1049.443, 163.4370
1049.926, 163.4211
1050.408, 163.5592
1050.890, 163.7190
1051.372, 163.9248
1051.854, 164.0777
1052.336, 164.0736
1052.818, 163.9008
1053.300, 163.8043
1053.782, 163.7868
1054.265, 163.8177
1054.747, 163.9125
1055.229, 164.0140
1055.711, 164.0746
1056.193, 164.1006
1056.675, 164.1176
1057.157, 164.1041
1057.639, 164.1337
1058.121, 164.2107
1058.604, 164.3484
1059.086, 164.6787
1059.568, 165.0490
1060.050, 165.1036
1060.532, 164.7545
1061.014, 164.4873
1061.496, 164.5428
1061.978, 164.6760
1062.461, 164.8012
1062.943, 164.9178
1063.425, 164.9940
1063.907, 165.0443
1064.389, 165.2065
1064.871, 165.6585
1065.353, 166.0185
1065.835, 165.8754
1066.318, 165.5304
1066.800, 165.3712
1067.282, 165.4523
1067.764, 165.5978
1068.246, 165.8108
1068.728, 166.0629
1069.210, 166.3331
1069.692, 166.6254
1070.174, 166.9762
1070.656, 167.3586
1071.139, 167.6825
1071.621, 167.9688
1072.103, 167.9381
1072.585, 168.2680
1073.067, 168.4974
1073.549, 168.6315
1074.031, 168.3854
1074.513, 168.6303
1074.996, 168.6786
1075.478, 168.7187
1075.960, 169.0327
1076.442, 168.8419
1076.924, 169.1516
1077.406, 169.2615
1077.888, 169.4628
1078.370, 169.4662
1078.853, 169.5309
1079.335, 169.7934
1079.817, 169.9463
1080.299, 169.9268
1080.781, 170.1340
1081.263, 169.9363
1081.745, 170.0938
1082.227, 170.4047
1082.709, 170.3507
1083.192, 170.4504
1083.674, 170.5798
1084.156, 170.7508
1084.638, 171.0731
1085.120, 171.4736
1085.602, 171.7102
1086.084, 171.4591
1086.566, 171.3304
1087.048, 171.5425
1087.531, 171.8619
1088.013, 172.0264
1088.495, 172.0438
1088.977, 171.9608
1089.459, 171.7825
1089.941, 171.6911
1090.423, 171.9451
1090.905, 172.2095
1091.387, 172.2172
1091.870, 172.0380
1092.352, 171.9863
1092.834, 172.0744
1093.316, 172.2151
1093.798, 172.4113
1094.280, 172.5743
1094.762, 172.5763
1095.244, 172.4951
1095.727, 172.3958
1096.209, 172.2658
1096.691, 172.3250
1097.173, 172.7107
1097.655, 172.9785
1098.137, 172.9079
1098.619, 172.6102
1099.101, 172.2378
1099.583, 171.8623
1100.066, 171.6608
1100.548, 171.8475
1101.030, 171.9419
1101.512, 171.7290
1101.994, 171.4766
1102.476, 171.3839
1102.958, 171.4434
1103.440, 171.5636
1103.922, 171.7316
1104.405, 171.8181
1104.887, 171.7202
1105.369, 171.5459
1105.851, 171.2528
1106.333, 170.9587
1106.815, 170.8764
1107.297, 171.0194
1107.779, 171.3295
1108.262, 171.8358
1108.744, 172.2230
1109.226, 172.0817
1109.708, 171.7695
1110.190, 171.6460
1110.672, 171.7156
1111.154, 171.7245
1111.636, 171.6267
1112.119, 171.5498
1112.601, 171.5154
1113.083, 171.5331
1113.565, 171.6462
1114.047, 171.8132
1114.529, 171.9748
1115.011, 172.1356
1115.493, 172.2074
1115.975, 172.1711
1116.458, 172.0465
1116.940, 171.8068
1117.422, 171.5048
1117.904, 171.2675
1118.386, 171.1125
1118.868, 171.0986
1119.350, 171.3150
1119.832, 171.5434
1120.314, 171.7614
1120.797, 171.8905
1121.279, 171.8284
1121.761, 171.5775
1122.243, 171.4998
1122.725, 171.5853
1123.207, 171.6980
1123.689, 171.7497
1124.171, 171.8064
1124.654, 172.0893
1125.136, 172.3266
1125.618, 172.0114
1126.100, 170.9784
1126.582, 170.2359
1127.064, 169.8521
1127.546, 169.6812
1128.028, 169.6690
1128.510, 169.7519
1128.993, 169.9234
1129.475, 170.1435
1129.957, 170.2404
1130.439, 170.1938
1130.921, 170.0647
1131.403, 169.8551
1131.885, 169.5938
1132.367, 169.2019
1132.849, 168.8388
1133.332, 168.8483
1133.814, 169.2789
1134.296, 169.3952
1134.778, 168.7712
1135.260, 168.2885
1135.742, 168.2404
1136.224, 168.4517
1136.706, 168.5885
1137.189, 168.6756
1137.671, 168.8120
1138.153, 169.0772
1138.635, 169.1528
1139.117, 168.7256
1139.599, 168.2723
1140.081, 167.9938
1140.563, 167.8842
1141.046, 168.0033
1141.528, 168.2780
1142.010, 168.3033
1142.492, 167.6241
1142.974, 167.1866
1143.456, 167.8299
1143.938, 168.6731
1144.420, 168.8928
1144.902, 168.4609
1145.385, 168.1824
1145.867, 168.0522
1146.349, 167.9590
1146.831, 167.7803
1147.313, 167.6714
1147.795, 167.7975
1148.277, 168.0455
1148.759, 168.2322
1149.241, 168.3572
1149.724, 168.3978
1150.206, 168.3499
1150.688, 168.2585
1151.170, 168.1519
1151.652, 168.0296
1152.134, 167.8962
1152.616, 167.7477
1153.098, 167.5596
1153.581, 167.2880
1154.063, 167.1443
1154.545, 167.1786
1155.027, 167.2488
1155.509, 167.1575
1155.991, 167.0329
1156.473, 167.0452
1156.955, 167.2004
1157.438, 167.3736
1157.920, 167.6026
1158.402, 167.7163
1158.884, 167.6522
1159.366, 167.5096
1159.848, 167.3620
1160.330, 167.2686
1160.812, 167.4081
1161.294, 167.8538
1161.776, 167.9942
1162.259, 167.5134
1162.741, 167.0745
1163.223, 166.8827
1163.705, 166.8998
1164.187, 167.1342
1164.669, 167.4933
1165.151, 167.7726
1165.633, 167.9214
1166.116, 167.9696
1166.598, 167.8922
1167.080, 167.7553
1167.562, 167.5616
1168.044, 167.3450
1168.526, 167.2409
1169.008, 167.2255
1169.490, 167.2018
1169.973, 167.0784
1170.455, 167.0627
1170.937, 167.3200
1171.419, 167.6262
1171.901, 167.8742
1172.383, 168.0499
1172.865, 168.0014
1173.347, 167.7614
1173.829, 167.5088
1174.312, 167.2039
1174.794, 167.0609
1175.276, 167.3316
1175.758, 167.6798
1176.240, 167.7686
1176.722, 167.6047
1177.204, 167.4862
1177.686, 167.4216
1178.168, 167.4296
1178.651, 167.5721
1179.133, 167.7355
1179.615, 167.9070
1180.097, 168.0384
1180.579, 168.0357
1181.061, 167.8961
1181.543, 167.8321
1182.025, 167.8580
1182.508, 167.9219
1182.990, 168.0285
1183.472, 168.1175
1183.954, 168.1616
1184.436, 168.1527
1184.918, 168.0532
1185.400, 167.8562
1185.882, 167.7143
1186.365, 167.6456
1186.847, 167.6676
1187.329, 167.9081
1187.811, 168.1492
1188.293, 168.2014
1188.775, 168.1059
1189.257, 168.0274
1189.739, 167.9685
1190.221, 167.9010
1190.703, 167.8163
1191.186, 167.7356
1191.668, 167.5862
1192.150, 167.5215
1192.632, 167.7565
1193.114, 168.2432
1193.596, 168.5298
1194.078, 168.5950
1194.560, 168.6423
1195.043, 168.7215
1195.525, 168.8107
1196.007, 168.8967
1196.489, 168.9724
1196.971, 169.0264
1197.453, 169.0585
1197.935, 169.1165
1198.417, 169.2112
1198.900, 169.2516
1199.382, 169.2096
1199.864, 169.0974
1200.346, 168.8185
1200.828, 168.5439
1201.310, 168.5011
1201.792, 168.7322
1202.274, 168.9375
1202.756, 169.1250
1203.239, 169.2029
1203.721, 169.0283
1204.203, 168.9008
1204.685, 169.3289
1205.167, 169.9176
1205.649, 170.0683
1206.131, 169.6114
1206.613, 169.4321
1207.095, 169.5552
1207.578, 169.7056
1208.060, 169.7473
1208.542, 169.7273
1209.024, 169.7003
1209.506, 169.6452
1209.988, 169.5135
1210.470, 169.2614
1210.952, 169.1170
1211.435, 169.0868
1211.917, 169.1253
1212.399, 169.2709
1212.881, 169.4108
1213.363, 169.3580
1213.845, 169.2390
1214.327, 169.2895
1214.809, 169.5431
1215.292, 169.9069
1215.774, 170.3988
1216.256, 170.7949
1216.738, 170.8264
1217.220, 170.7650
1217.702, 170.8610
1218.184, 171.0628
1218.666, 171.2834
1219.148, 171.5893
1219.630, 171.5661
1220.113, 171.1624
1220.595, 170.7616
1221.077, 170.6413
1221.559, 170.6891
1222.041, 170.9593
1222.523, 171.2914
1223.005, 171.2734
1223.487, 170.7753
1223.970, 170.5856
1224.452, 170.7829
1224.934, 171.0060
1225.416, 170.9039
1225.898, 170.7563
1226.380, 170.8708
1226.862, 171.1158
1227.344, 171.0742
1227.827, 170.6602
1228.309, 170.5446
1228.791, 170.8037
1229.273, 171.0874
1229.755, 171.0855
1230.237, 171.0087
1230.719, 170.9906
1231.201, 171.0384
1231.683, 171.1785
1232.166, 171.4332
1232.648, 171.4681
1233.130, 171.2323
1233.612, 171.0210
1234.094, 171.1731
1234.576, 171.3425
1235.058, 171.2005
1235.540, 170.8974
1236.022, 170.8419
1236.505, 171.0403
1236.987, 171.0862
1237.469, 170.9196
1237.951, 170.7532
1238.433, 170.7186
1238.915, 170.7760
1239.397, 170.9829
1239.879, 171.2384
1240.362, 171.2873
1240.844, 171.1478
1241.326, 171.0620
1241.808, 171.0637
1242.290, 171.1883
1242.772, 171.5995
1243.254, 171.9836
1243.736, 172.1464
1244.219, 172.1796
1244.701, 172.2883
1245.183, 172.4650
1245.665, 172.7481
1246.147, 173.1542
1246.629, 173.3538
1247.111, 172.8592
1247.593, 172.4700
1248.075, 172.5798
1248.557, 172.9690
1249.040, 173.1960
1249.522, 173.2624
1250.004, 173.0857
1250.486, 172.6340
1250.968, 172.3516
1251.450, 172.6735
1251.932, 172.9270
1252.414, 172.8459
1252.897, 172.6073
1253.379, 172.5571
1253.861, 172.6611
1254.343, 172.8867
1254.825, 173.2456
1255.307, 173.3932
1255.789, 172.9762
1256.271, 172.6941
1256.754, 172.7811
1257.236, 173.0594
1257.718, 173.2553
1258.200, 173.3766
1258.682, 173.4327
1259.164, 173.4228
1259.646, 173.3595
1260.128, 173.2233
1260.610, 173.0852
1261.093, 172.9546
1261.575, 172.8621
1262.057, 172.8457
1262.539, 172.9051
1263.021, 173.0521
1263.503, 173.2952
1263.985, 173.5630
1264.467, 173.8751
1264.949, 174.1554
1265.432, 174.4315
1265.914, 174.5308
1266.396, 174.0073
1266.878, 173.3291
1267.360, 173.0668
1267.842, 173.2870
1268.324, 173.4463
1268.806, 173.5345
1269.289, 173.6296
1269.771, 173.7555
1270.253, 173.8819
1270.735, 173.9743
1271.217, 174.0566
1271.699, 174.1773
1272.181, 174.3159
1272.663, 174.2968
1273.146, 174.1246
1273.628, 174.0799
1274.110, 174.2901
1274.592, 174.3961
1275.074, 173.9145
1275.556, 173.4493
1276.038, 173.4178
1276.520, 173.7180
1277.002, 174.0024
1277.484, 174.2638
1277.967, 174.4592
1278.449, 174.5669
1278.931, 174.6641
1279.413, 174.8470
1279.895, 174.9517
1280.377, 174.8717
1280.859, 174.6952
1281.341, 174.6871
1281.823, 174.7700
1282.306, 174.6457
1282.788, 174.1880
1283.270, 174.0710
1283.752, 174.9065
1284.234, 175.4180
1284.716, 175.0672
1285.198, 174.3697
1285.680, 174.2468
1286.163, 174.4670
1286.645, 174.5982
1287.127, 174.5559
1287.609, 174.6801
1288.091, 175.0987
1288.573, 175.3614
1289.055, 175.2905
1289.537, 175.1278
1290.020, 175.2777
1290.502, 175.4743
1290.984, 175.3369
1291.466, 174.8354
1291.948, 174.6085
1292.430, 174.6897
1292.912, 174.8225
1293.394, 174.9560
1293.876, 175.0552
1294.359, 175.0364
1294.841, 175.0113
1295.323, 175.1014
1295.805, 175.2733
1296.287, 175.4163
1296.769, 175.5262
1297.251, 175.4778
1297.733, 175.2210
1298.215, 175.0299
1298.698, 175.1947
1299.180, 175.3469
1299.662, 175.2624
1300.144, 175.0722
1300.626, 175.0935
1301.108, 175.2780
1301.590, 175.4868
1302.072, 175.7002
1302.555, 175.8268
1303.037, 175.5813
1303.519, 175.6259
##END=



