##NAMES=Trilithionite
##RRUFFID=R050486
##IDEAL CHEMISTRY=KLi_1.5_Al_1.5_(Si_3_Al)O_10_F_2_
##LOCALITY=Cotopaxie, Colorado, USA
##OWNER=RRUFF
##SOURCE=California Institute of Technology
##DESCRIPTION=Microcrystalline massive, no visible indication of foliation, polytype 1M
##STATUS=The identification of this mineral has been confirmed by X-ray diffraction and chemical analysis
##URL=rruff.info/R050486
##MEASURED CHEMISTRY=(K_0.98_Ca_0.02_)(Li_0.53_Al_0.47_)_3_(Si_0.79_Al_0.21_)_4_O_10_(OH)_2_
90.52570, 0.0000000E+00
91.00781, 8.996055
91.48993, 9.297677
91.97205, 9.418561
92.45416, 9.220920
92.93628, 8.848920
93.41840, 8.619823
93.90051, 8.598819
94.38263, 8.712476
94.86475, 8.837038
95.34686, 8.973189
95.82898, 9.186603
96.31110, 9.589208
96.79321, 10.15876
97.27533, 10.62700
97.75745, 10.85859
98.23956, 10.94729
98.72168, 11.31788
99.20380, 12.02483
99.68591, 12.83086
100.1680, 13.40989
100.6501, 13.66176
101.1323, 14.15432
101.6144, 15.07811
102.0965, 16.46088
102.5786, 17.93913
103.0607, 19.53792
103.5428, 21.22094
104.0250, 22.95246
104.5071, 24.65580
104.9892, 26.51036
105.4713, 28.52903
105.9534, 30.53871
106.4355, 33.07283
106.9177, 36.12913
107.3998, 39.70391
107.8819, 43.91073
108.3640, 48.80043
108.8461, 54.23112
109.3282, 60.22411
109.8104, 67.00661
110.2925, 73.94795
110.7746, 81.06864
111.2567, 88.30885
111.7388, 95.50518
112.2209, 102.6272
112.7031, 109.6233
113.1852, 116.5400
113.6673, 123.6600
114.1494, 130.3660
114.6315, 136.4061
115.1136, 141.8108
115.5958, 147.1304
116.0779, 152.4606
116.5600, 157.8269
117.0421, 163.2346
117.5242, 168.4977
118.0063, 174.0022
118.4885, 179.9912
118.9706, 186.4887
119.4527, 193.4512
119.9348, 200.9854
120.4169, 208.9317
120.8990, 217.1268
121.3812, 225.4208
121.8633, 233.9155
122.3454, 242.6943
122.8275, 251.9863
123.3096, 261.1718
123.7917, 269.8932
124.2739, 278.1104
124.7560, 285.6778
125.2381, 292.1052
125.7202, 297.9056
126.2023, 303.8232
126.6844, 310.0083
127.1666, 316.4708
127.6487, 323.5316
128.1308, 331.1629
128.6129, 338.3942
129.0950, 344.3018
129.5771, 349.1693
130.0593, 354.0298
130.5414, 359.1342
131.0235, 364.4012
131.5056, 369.1521
131.9877, 371.9606
132.4698, 373.1734
132.9520, 375.2688
133.4341, 378.1949
133.9162, 380.8613
134.3983, 382.7080
134.8804, 383.8940
135.3625, 385.6205
135.8447, 387.9304
136.3268, 390.6796
136.8089, 393.6936
137.2910, 396.9637
137.7731, 400.6122
138.2552, 404.8820
138.7374, 409.8691
139.2195, 414.4952
139.7016, 418.8025
140.1837, 422.7744
140.6658, 426.2434
141.1479, 429.0751
141.6301, 431.7671
142.1122, 434.5697
142.5943, 437.5622
143.0764, 440.4514
143.5585, 443.2535
144.0406, 445.9525
144.5228, 448.6329
145.0049, 451.4060
145.4870, 453.9956
145.9691, 456.2448
146.4512, 458.3404
146.9333, 459.8285
147.4155, 460.2312
147.8976, 459.7638
148.3797, 460.4152
148.8618, 463.1288
149.3439, 466.2896
149.8260, 468.8523
150.3082, 469.9081
150.7903, 471.4001
151.2724, 473.8256
151.7545, 477.2061
152.2366, 479.9462
152.7188, 481.3134
153.2009, 482.3431
153.6830, 483.8484
154.1651, 486.4906
154.6472, 489.0293
155.1293, 491.1537
155.6115, 492.8389
156.0936, 494.3179
156.5757, 495.7592
157.0578, 496.9860
157.5399, 497.7840
158.0220, 497.1549
158.5042, 496.9262
158.9863, 498.0538
159.4684, 500.9745
159.9505, 503.4733
160.4326, 504.5496
160.9147, 504.8427
161.3969, 505.2975
161.8790, 506.3422
162.3611, 507.5653
162.8432, 508.7491
163.3253, 509.8237
163.8074, 510.9368
164.2896, 512.2876
164.7717, 513.7132
165.2538, 514.8937
165.7359, 515.1760
166.2180, 515.4311
166.7001, 516.4156
167.1823, 518.5624
167.6644, 520.7267
168.1465, 522.1786
168.6286, 523.0652
169.1107, 523.8056
169.5928, 524.5794
170.0750, 525.3441
170.5571, 526.0450
171.0392, 526.5751
171.5213, 527.1907
172.0034, 528.2332
172.4855, 529.6119
172.9677, 530.8820
173.4498, 531.6959
173.9319, 532.2594
174.4140, 532.8315
174.8961, 533.3499
175.3782, 534.0577
175.8604, 535.4537
176.3425, 537.4540
176.8246, 539.2977
177.3067, 540.2801
177.7888, 540.7197
178.2709, 541.2484
178.7531, 542.0816
179.2352, 543.0823
179.7173, 544.0726
180.1994, 545.0561
180.6815, 546.0333
181.1636, 546.9977
181.6458, 547.9544
182.1279, 548.8755
182.6100, 549.6571
183.0921, 550.4444
183.5742, 551.6917
184.0563, 553.4018
184.5385, 555.0694
185.0206, 555.9541
185.5027, 556.2477
185.9848, 556.8393
186.4669, 558.1093
186.9490, 559.8911
187.4312, 561.8257
187.9133, 563.9003
188.3954, 565.9647
188.8775, 567.7388
189.3596, 569.2503
189.8417, 570.8670
190.3239, 572.9312
190.8060, 575.2751
191.2881, 576.7242
191.7702, 577.0588
192.2523, 577.3177
192.7344, 579.0985
193.2166, 582.3965
193.6987, 585.4615
194.1808, 587.5139
194.6629, 588.6389
195.1450, 589.9238
195.6271, 591.4011
196.1093, 592.9580
196.5914, 594.5829
197.0735, 596.3181
197.5556, 597.5729
198.0377, 598.0299
198.5198, 597.6863
199.0020, 597.0141
199.4841, 595.9031
199.9662, 594.6400
200.4483, 593.6984
200.9304, 593.1232
201.4125, 592.5712
201.8947, 591.8498
202.3768, 590.9318
202.8589, 590.2070
203.3410, 589.7291
203.8231, 589.3798
204.3052, 588.9723
204.7874, 588.5191
205.2695, 587.9695
205.7516, 587.2139
206.2337, 586.1746
206.7158, 585.5015
207.1979, 585.2938
207.6801, 585.3657
208.1622, 585.3181
208.6443, 585.0867
209.1264, 584.9369
209.6085, 585.0995
210.0906, 585.7511
210.5728, 585.7748
211.0549, 584.7186
211.5370, 583.3429
212.0191, 583.6385
212.5012, 586.3414
212.9833, 588.9184
213.4655, 590.0625
213.9476, 589.3558
214.4297, 588.7917
214.9118, 588.3350
215.3939, 588.0851
215.8760, 588.4020
216.3581, 589.6502
216.8403, 590.7040
217.3224, 590.9716
217.8045, 590.2191
218.2866, 589.3336
218.7687, 588.1390
219.2508, 586.8809
219.7330, 586.3604
220.2151, 586.9857
220.6972, 587.5607
221.1793, 587.4044
221.6614, 586.0378
222.1435, 585.2432
222.6257, 585.3381
223.1078, 585.9279
223.5899, 585.8544
224.0720, 584.6833
224.5541, 583.5530
225.0362, 583.0408
225.5184, 583.5480
226.0005, 583.7039
226.4826, 583.3663
226.9647, 582.7127
227.4468, 582.2056
227.9289, 581.8812
228.4111, 581.6829
228.8932, 581.6271
229.3753, 581.8724
229.8574, 581.9103
230.3395, 581.7022
230.8216, 581.2965
231.3038, 580.7684
231.7859, 579.9091
232.2680, 579.2330
232.7501, 578.9171
233.2322, 578.7897
233.7143, 579.4407
234.1965, 581.2543
234.6786, 583.7665
235.1607, 585.7079
235.6428, 586.8741
236.1249, 587.7476
236.6070, 588.4960
237.0892, 588.9827
237.5713, 589.6386
238.0534, 590.5770
238.5355, 591.6469
239.0176, 592.4090
239.4997, 592.5022
239.9819, 592.8199
240.4640, 593.7812
240.9461, 595.7056
241.4282, 597.5394
241.9103, 599.3011
242.3924, 600.9718
242.8746, 602.5032
243.3567, 603.8938
243.8388, 605.1570
244.3209, 606.1785
244.8030, 606.5025
245.2851, 607.8663
245.7673, 610.8144
246.2494, 614.5900
246.7315, 617.4579
247.2136, 618.6559
247.6957, 620.1691
248.1778, 622.9437
248.6600, 627.6638
249.1421, 631.4081
249.6242, 633.4485
250.1063, 634.9226
250.5884, 638.2132
251.0705, 644.4825
251.5527, 650.5955
252.0348, 655.2409
252.5169, 657.9251
252.9990, 661.0529
253.4811, 664.6952
253.9632, 668.7630
254.4454, 673.0682
254.9275, 677.7186
255.4096, 682.4411
255.8917, 687.1560
256.3738, 691.8125
256.8560, 696.5466
257.3381, 701.3404
257.8202, 706.2614
258.3023, 711.5718
258.7844, 717.4202
259.2665, 723.2338
259.7487, 728.9678
260.2308, 734.6877
260.7129, 739.6702
261.1950, 743.8488
261.6771, 747.3480
262.1592, 750.3312
262.6414, 752.8279
263.1235, 754.6795
263.6056, 755.9129
264.0877, 756.5733
264.5698, 755.9662
265.0519, 753.7602
265.5341, 750.7550
266.0162, 747.9871
266.4983, 745.8654
266.9804, 742.7540
267.4625, 738.0084
267.9446, 731.6972
268.4268, 725.3959
268.9089, 719.1593
269.3910, 713.0566
269.8731, 707.1168
270.3552, 701.3847
270.8373, 695.7358
271.3195, 689.8757
271.8016, 683.9445
272.2837, 679.3563
272.7658, 676.4256
273.2479, 673.9985
273.7300, 670.9481
274.2122, 667.1805
274.6943, 663.4615
275.1764, 659.9564
275.6585, 656.6468
276.1406, 653.2834
276.6227, 649.7015
277.1049, 646.6288
277.5870, 644.8968
278.0691, 644.6439
278.5512, 644.1382
279.0333, 643.0028
279.5154, 641.4803
279.9976, 640.3787
280.4797, 639.7328
280.9618, 639.3112
281.4439, 639.0356
281.9260, 638.9068
282.4081, 638.5839
282.8903, 638.0303
283.3724, 637.2422
283.8545, 636.0601
284.3366, 634.4272
284.8187, 632.9844
285.3008, 632.1169
285.7830, 631.8067
286.2651, 631.9958
286.7472, 632.7867
287.2293, 633.8641
287.7114, 634.7468
288.1935, 635.4317
288.6757, 635.8401
289.1578, 635.8153
289.6399, 635.4326
290.1220, 635.1097
290.6041, 634.8954
291.0862, 634.6443
291.5684, 633.9162
292.0505, 632.7988
292.5326, 632.1476
293.0147, 632.7314
293.4968, 634.1115
293.9789, 635.0799
294.4611, 635.6221
294.9432, 635.6252
295.4253, 634.5129
295.9074, 632.5834
296.3895, 631.1371
296.8716, 630.8464
297.3538, 631.3732
297.8359, 632.2596
298.3180, 633.5441
298.8001, 634.5419
299.2822, 634.3263
299.7643, 633.2998
300.2465, 632.5166
300.7286, 632.4291
301.2107, 632.7333
301.6928, 633.2224
302.1749, 633.8622
302.6570, 634.1748
303.1392, 633.1664
303.6213, 631.6595
304.1034, 631.1623
304.5855, 632.6631
305.0676, 634.6786
305.5497, 635.8112
306.0319, 636.1502
306.5140, 636.2142
306.9961, 636.0837
307.4782, 635.9538
307.9603, 636.0895
308.4424, 636.6707
308.9246, 637.2878
309.4067, 637.6415
309.8888, 637.7686
310.3709, 637.7891
310.8530, 637.6392
311.3351, 637.4734
311.8173, 637.4016
312.2994, 637.4133
312.7815, 637.6036
313.2636, 638.1069
313.7457, 638.8227
314.2278, 639.5762
314.7100, 640.6682
315.1921, 641.5071
315.6742, 641.6143
316.1563, 640.8298
316.6384, 640.0742
317.1205, 639.4242
317.6027, 639.1293
318.0848, 639.5131
318.5669, 641.7562
319.0490, 643.7314
319.5311, 644.4246
320.0132, 643.7400
320.4954, 643.0540
320.9775, 642.5125
321.4596, 642.2451
321.9417, 642.3739
322.4238, 643.3424
322.9059, 644.2676
323.3881, 645.0844
323.8702, 645.7543
324.3523, 645.9794
324.8344, 644.8743
325.3165, 643.8708
325.7986, 643.8063
326.2808, 646.1918
326.7629, 647.8265
327.2450, 648.1021
327.7271, 647.3727
328.2092, 647.0336
328.6913, 647.3651
329.1735, 647.8533
329.6556, 648.3223
330.1377, 648.8624
330.6198, 649.1951
331.1019, 649.1998
331.5840, 649.0221
332.0662, 648.9193
332.5483, 648.7730
333.0304, 648.8615
333.5125, 649.3528
333.9946, 650.3879
334.4767, 651.0484
334.9589, 651.1479
335.4410, 651.0421
335.9231, 651.1678
336.4052, 651.5644
336.8873, 652.1096
337.3694, 652.8663
337.8515, 653.8084
338.3336, 654.4309
338.8158, 654.7030
339.2979, 654.7500
339.7800, 654.5652
340.2621, 654.0709
340.7442, 654.0400
341.2263, 654.8572
341.7085, 656.1166
342.1906, 656.1096
342.6727, 654.5847
343.1548, 653.3749
343.6369, 654.1368
344.1190, 656.7012
344.6012, 658.3966
345.0833, 658.7904
345.5654, 658.4472
346.0475, 658.1920
346.5296, 658.0273
347.0117, 658.0802
347.4939, 658.5703
347.9760, 659.3353
348.4581, 659.8291
348.9402, 659.9821
349.4223, 660.0984
349.9044, 660.4588
350.3866, 661.0618
350.8687, 661.9034
351.3508, 663.3630
351.8329, 664.9033
352.3150, 665.5396
352.7971, 665.2988
353.2793, 665.0109
353.7614, 665.2681
354.2435, 665.9236
354.7256, 666.7649
355.2077, 667.8871
355.6898, 668.9678
356.1720, 669.7084
356.6541, 670.1580
357.1362, 670.5322
357.6183, 670.7714
358.1004, 671.0920
358.5826, 671.7924
359.0647, 673.1883
359.5468, 674.2917
360.0289, 674.2584
360.5110, 673.5761
360.9931, 673.1735
361.4753, 673.6498
361.9574, 674.3118
362.4395, 674.7585
362.9216, 674.8861
363.4037, 675.2443
363.8858, 676.4280
364.3680, 677.7636
364.8501, 678.5448
365.3322, 677.9354
365.8143, 677.4692
366.2964, 677.4931
366.7785, 678.0192
367.2607, 678.8220
367.7428, 680.3475
368.2249, 681.8509
368.7070, 682.8752
369.1891, 682.7424
369.6712, 683.0260
370.1534, 683.9846
370.6355, 685.3906
371.1176, 686.5364
371.5997, 687.2599
372.0818, 687.8964
372.5639, 688.5208
373.0461, 689.0093
373.5282, 689.9238
374.0103, 691.5844
374.4924, 693.3672
374.9745, 694.2487
375.4566, 693.9871
375.9388, 693.5848
376.4209, 693.2226
376.9030, 692.9298
377.3851, 693.1976
377.8672, 694.1568
378.3493, 695.3249
378.8315, 696.3418
379.3136, 697.2322
379.7957, 697.7347
380.2778, 697.6833
380.7599, 697.3607
381.2420, 697.3820
381.7242, 697.7454
382.2063, 698.4250
382.6884, 699.6687
383.1705, 701.2391
383.6526, 702.1641
384.1347, 702.2017
384.6169, 702.1243
385.0990, 703.0507
385.5811, 704.6995
386.0632, 706.1449
386.5453, 706.6735
387.0274, 706.8769
387.5096, 707.5969
387.9917, 708.8381
388.4738, 710.1015
388.9559, 711.1418
389.4380, 711.9188
389.9201, 712.3548
390.4023, 712.1494
390.8844, 711.9288
391.3665, 712.0139
391.8486, 712.4119
392.3307, 713.1383
392.8128, 714.4384
393.2950, 715.9032
393.7771, 717.2708
394.2592, 718.4678
394.7413, 719.6069
395.2234, 720.6984
395.7055, 721.7355
396.1877, 722.7137
396.6698, 723.6809
397.1519, 724.5350
397.6340, 725.1969
398.1161, 725.6344
398.5982, 726.1981
399.0804, 727.0512
399.5625, 727.9732
400.0446, 728.8183
400.5267, 729.7294
401.0088, 730.3940
401.4909, 730.7407
401.9731, 730.8344
402.4552, 730.8944
402.9373, 730.9324
403.4194, 730.9294
403.9015, 730.7296
404.3836, 730.0427
404.8658, 730.4474
405.3479, 732.3779
405.8300, 734.7850
406.3121, 736.1090
406.7942, 736.2317
407.2763, 735.9675
407.7585, 735.2880
408.2406, 734.3879
408.7227, 734.6092
409.2048, 736.0616
409.6869, 737.6248
410.1690, 738.2043
410.6512, 737.9837
411.1333, 737.9220
411.6154, 738.2824
412.0975, 738.7321
412.5796, 738.9122
413.0617, 738.7916
413.5439, 738.2164
414.0260, 736.5645
414.5081, 734.6102
414.9902, 733.5569
415.4723, 733.5482
415.9544, 733.7986
416.4366, 733.8894
416.9187, 733.7894
417.4008, 733.4500
417.8829, 732.6968
418.3650, 731.8312
418.8471, 730.9780
419.3293, 730.1467
419.8114, 729.3483
420.2935, 728.7530
420.7756, 728.0878
421.2577, 727.1288
421.7398, 725.4756
422.2220, 724.2159
422.7041, 723.7835
423.1862, 723.8610
423.6683, 723.8690
424.1504, 723.7648
424.6325, 723.5573
425.1147, 723.2949
425.5968, 723.0032
426.0789, 722.3844
426.5610, 721.0452
427.0431, 719.7361
427.5252, 719.1318
428.0074, 719.6072
428.4895, 719.8952
428.9716, 719.7858
429.4537, 719.4119
429.9358, 719.2867
430.4179, 719.5556
430.9001, 719.5429
431.3822, 718.7080
431.8643, 717.0306
432.3464, 715.8909
432.8285, 715.3456
433.3106, 715.1676
433.7928, 715.3298
434.2749, 715.7440
434.7570, 715.5693
435.2391, 714.0421
435.7212, 712.1708
436.2033, 712.4290
436.6855, 714.5870
437.1676, 716.3209
437.6497, 715.3766
438.1318, 713.1261
438.6139, 711.6855
439.0960, 711.4996
439.5782, 711.7529
440.0603, 711.9119
440.5424, 712.0207
441.0245, 712.1602
441.5066, 712.4081
441.9887, 712.6586
442.4709, 713.0211
442.9530, 713.4645
443.4351, 713.3684
443.9172, 711.9045
444.3993, 710.1494
444.8814, 708.8991
445.3636, 708.4828
445.8457, 708.2840
446.3278, 708.2130
446.8099, 708.3009
447.2920, 708.6384
447.7741, 709.7848
448.2563, 710.5600
448.7384, 710.4525
449.2205, 709.2838
449.7026, 708.7593
450.1847, 709.2482
450.6668, 709.9414
451.1490, 709.9856
451.6311, 709.0960
452.1132, 708.7443
452.5953, 709.3292
453.0774, 710.4516
453.5595, 711.0776
454.0417, 711.1808
454.5238, 711.0129
455.0059, 710.6730
455.4880, 710.1639
455.9701, 709.3085
456.4522, 707.9979
456.9344, 707.0364
457.4165, 707.6064
457.8986, 709.2521
458.3807, 710.6917
458.8628, 711.5072
459.3449, 711.9594
459.8271, 712.3382
460.3092, 712.6211
460.7913, 712.7204
461.2734, 712.3417
461.7555, 711.9081
462.2376, 711.7611
462.7198, 711.9603
463.2019, 712.4000
463.6840, 713.2582
464.1661, 714.2465
464.6482, 715.0153
465.1303, 715.2439
465.6125, 715.4659
466.0946, 715.9778
466.5767, 716.7062
467.0588, 716.9290
467.5409, 715.9101
468.0230, 714.9822
468.5052, 714.7711
468.9873, 715.6544
469.4694, 716.3411
469.9515, 716.8135
470.4336, 717.1176
470.9157, 717.3051
471.3979, 717.3590
471.8800, 717.3647
472.3621, 717.2704
472.8442, 717.1584
473.3263, 717.4747
473.8084, 718.2653
474.2906, 719.1195
474.7727, 719.9066
475.2548, 720.5422
475.7369, 720.4896
476.2190, 719.5412
476.7011, 718.4822
477.1833, 718.2336
477.6654, 718.6317
478.1475, 719.2332
478.6296, 720.0419
479.1117, 720.8371
479.5938, 721.5888
480.0760, 722.2262
480.5581, 722.2585
481.0402, 720.4030
481.5223, 718.4334
482.0044, 717.9852
482.4865, 720.0370
482.9687, 721.7680
483.4508, 722.0407
483.9329, 721.4745
484.4150, 720.9521
484.8971, 720.6929
485.3792, 720.4223
485.8614, 719.9230
486.3435, 719.2361
486.8256, 719.0942
487.3077, 719.8900
487.7898, 720.7680
488.2719, 721.2471
488.7541, 721.1448
489.2362, 721.2545
489.7183, 721.7404
490.2004, 722.2248
490.6825, 721.9518
491.1646, 720.7990
491.6468, 720.1387
492.1289, 720.5637
492.6110, 721.6589
493.0931, 722.1306
493.5752, 721.9894
494.0573, 721.9791
494.5395, 723.0165
495.0216, 724.5049
495.5037, 725.0801
495.9858, 724.4373
496.4679, 723.6550
496.9500, 723.8337
497.4322, 724.5237
497.9143, 724.9755
498.3964, 724.6799
498.8785, 724.2648
499.3606, 723.9003
499.8427, 723.6594
500.3249, 723.8817
500.8070, 724.8527
501.2891, 726.1856
501.7712, 727.8813
502.2533, 730.4775
502.7354, 731.8792
503.2176, 731.1494
503.6997, 729.5399
504.1818, 728.2393
504.6639, 727.0973
505.1460, 726.5375
505.6281, 726.7263
506.1103, 727.5119
506.5924, 728.4452
507.0745, 729.6702
507.5566, 730.5002
508.0387, 730.3159
508.5208, 729.1924
509.0030, 728.7589
509.4851, 729.0843
509.9672, 729.7227
510.4493, 730.4310
510.9314, 731.1047
511.4135, 731.3453
511.8957, 730.9594
512.3778, 730.2958
512.8599, 729.6132
513.3420, 728.9754
513.8242, 728.5498
514.3063, 728.5071
514.7884, 728.6595
515.2705, 729.0084
515.7526, 729.5556
516.2347, 729.7430
516.7169, 729.0023
517.1990, 728.0068
517.6811, 727.2418
518.1632, 726.2707
518.6453, 726.2133
519.1274, 728.0061
519.6096, 730.6220
520.0917, 732.1701
520.5738, 732.2399
521.0559, 731.8752
521.5380, 731.1168
522.0201, 730.0237
522.5023, 729.6404
522.9844, 730.0485
523.4665, 730.9610
523.9486, 732.4318
524.4307, 734.4193
524.9128, 735.8650
525.3950, 736.6818
525.8771, 736.9199
526.3592, 736.1893
526.8413, 734.8231
527.3234, 734.0477
527.8055, 734.6954
528.2877, 735.7802
528.7698, 736.1689
529.2519, 735.9852
529.7340, 735.7845
530.2161, 736.0394
530.6982, 736.2901
531.1804, 736.0306
531.6625, 735.0493
532.1446, 734.5685
532.6267, 735.5057
533.1088, 736.8947
533.5909, 737.8306
534.0731, 737.9341
534.5552, 737.9275
535.0373, 737.7553
535.5194, 737.5343
536.0015, 737.5516
536.4836, 737.8631
536.9658, 738.2888
537.4479, 738.7419
537.9300, 739.2209
538.4121, 740.0322
538.8942, 741.3004
539.3763, 742.3107
539.8585, 742.1237
540.3406, 741.0121
540.8227, 739.1055
541.3048, 741.6965
541.7869, 743.2338
542.2690, 743.7742
542.7512, 740.3312
543.2333, 742.0318
543.7154, 741.6711
544.1975, 741.2259
544.6796, 743.6505
545.1617, 740.7868
545.6439, 743.1659
546.1260, 743.4521
546.6081, 744.6963
547.0902, 743.8663
547.5723, 743.6769
548.0544, 745.5623
548.5366, 746.2990
549.0187, 745.2302
549.5008, 746.5352
549.9829, 743.5991
550.4650, 744.3846
550.9471, 746.7758
551.4293, 746.2274
551.9114, 747.2528
552.3935, 747.4919
552.8756, 747.3830
553.3577, 746.7936
553.8398, 745.9945
554.3220, 746.6439
554.8041, 748.8060
555.2862, 750.5807
555.7683, 750.1834
556.2504, 748.4024
556.7325, 746.6607
557.2147, 745.0613
557.6968, 743.9675
558.1789, 743.8312
558.6610, 744.3585
559.1431, 745.1160
559.6252, 746.2975
560.1074, 747.3079
560.5895, 748.0507
561.0716, 748.4548
561.5537, 748.2871
562.0358, 746.3422
562.5179, 744.9377
563.0001, 745.0982
563.4822, 747.0073
563.9643, 748.4764
564.4464, 749.5674
564.9285, 750.1375
565.4106, 749.8542
565.8928, 748.4800
566.3749, 747.9700
566.8570, 748.7097
567.3391, 749.8310
567.8212, 749.7871
568.3033, 748.7758
568.7855, 748.3199
569.2676, 749.3947
569.7497, 750.8316
570.2318, 750.6542
570.7139, 749.2004
571.1960, 747.9398
571.6782, 747.8583
572.1603, 748.2502
572.6424, 748.5947
573.1245, 748.8446
573.6066, 749.0903
574.0887, 749.3965
574.5709, 749.7002
575.0530, 749.9545
575.5351, 750.1210
576.0172, 750.2975
576.4993, 750.4973
576.9814, 750.7106
577.4636, 750.9335
577.9457, 751.2164
578.4278, 751.3504
578.9099, 751.1481
579.3920, 750.8000
579.8741, 751.1944
580.3563, 752.3897
580.8384, 753.4864
581.3205, 753.9717
581.8026, 753.9414
582.2847, 753.4568
582.7668, 752.5041
583.2490, 751.7984
583.7311, 752.2272
584.2131, 753.1497
584.6953, 753.6993
585.1774, 753.4817
585.6595, 753.3223
586.1416, 753.6510
586.6237, 754.3136
587.1058, 755.0792
587.5880, 756.5427
588.0701, 757.3983
588.5522, 756.8552
589.0343, 755.3251
589.5164, 754.7595
589.9985, 755.7265
590.4807, 756.6948
590.9628, 757.0065
591.4449, 756.6426
591.9270, 756.3563
592.4091, 756.1224
592.8912, 756.0435
593.3734, 756.2750
593.8555, 756.7566
594.3376, 757.2371
594.8197, 757.6992
595.3018, 758.0760
595.7839, 758.2768
596.2661, 758.3479
596.7482, 758.3806
597.2303, 758.6401
597.7124, 758.6580
598.1945, 757.8287
598.6766, 756.5141
599.1588, 755.7571
599.6409, 756.2467
600.1230, 757.0095
600.6051, 757.8672
601.0872, 758.8426
601.5693, 759.1324
602.0515, 758.1469
602.5336, 757.2601
603.0157, 757.3749
603.4978, 758.6624
603.9799, 759.8842
604.4620, 761.0193
604.9442, 762.0463
605.4263, 763.0174
605.9084, 763.8875
606.3905, 764.2375
606.8726, 763.6927
607.3547, 763.1550
607.8369, 764.0505
608.3190, 765.8633
608.8011, 767.3022
609.2832, 767.4482
609.7653, 767.2629
610.2474, 767.2771
610.7296, 767.4799
611.2117, 767.6802
611.6938, 767.4698
612.1759, 767.5350
612.6580, 768.4456
613.1401, 770.6655
613.6223, 771.5941
614.1044, 770.5302
614.5865, 769.1122
615.0686, 768.9122
615.5507, 770.1297
616.0328, 770.8077
616.5150, 770.6520
616.9971, 770.1869
617.4792, 770.1784
617.9613, 770.5618
618.4434, 771.0441
618.9255, 771.7988
619.4077, 772.2932
619.8898, 771.4859
620.3719, 769.8350
620.8540, 768.7610
621.3361, 769.4425
621.8182, 770.5109
622.3004, 771.2130
622.7825, 771.5114
623.2646, 771.9290
623.7467, 772.6713
624.2288, 773.4532
624.7109, 774.0730
625.1931, 774.3411
625.6752, 775.1579
626.1573, 776.8311
626.6394, 778.5217
627.1215, 779.2293
627.6036, 778.9304
628.0858, 778.7838
628.5679, 778.9354
629.0500, 779.3648
629.5321, 780.1423
630.0142, 781.1918
630.4963, 782.2628
630.9785, 783.6129
631.4606, 784.6152
631.9427, 784.2887
632.4248, 783.0950
632.9069, 782.4942
633.3890, 783.9930
633.8712, 785.4203
634.3533, 785.6166
634.8354, 784.4158
635.3175, 783.7698
635.7996, 783.9508
636.2817, 784.4442
636.7639, 785.0551
637.2460, 785.8610
637.7281, 786.1867
638.2102, 785.8199
638.6923, 785.5297
639.1744, 786.5578
639.6566, 788.5709
640.1387, 789.5602
640.6208, 788.9505
641.1029, 787.8038
641.5850, 787.0727
642.0671, 786.7396
642.5493, 786.7502
643.0314, 787.6805
643.5135, 788.3897
643.9956, 788.2119
644.4777, 787.3449
644.9598, 786.3932
645.4420, 784.9760
645.9241, 784.0838
646.4062, 784.3134
646.8883, 785.5886
647.3704, 785.8914
647.8525, 784.7601
648.3347, 783.6705
648.8168, 783.5555
649.2989, 784.3792
649.7810, 785.2248
650.2631, 786.0997
650.7452, 786.8306
651.2274, 787.1832
651.7095, 787.2599
652.1916, 787.2681
652.6737, 787.2313
653.1558, 787.1495
653.6379, 786.9249
654.1201, 786.6788
654.6022, 786.5727
655.0843, 786.9150
655.5664, 787.0942
656.0485, 786.8038
656.5306, 786.2714
657.0128, 786.0189
657.4949, 786.1829
657.9770, 786.3614
658.4591, 786.4119
658.9412, 786.4088
659.4233, 786.7798
659.9055, 787.5771
660.3876, 788.2148
660.8697, 788.3199
661.3518, 788.0508
661.8339, 787.7203
662.3160, 787.3441
662.7982, 787.0637
663.2803, 786.9905
663.7624, 787.0612
664.2445, 787.2425
664.7266, 787.5519
665.2087, 787.8445
665.6909, 788.0658
666.1730, 788.2537
666.6551, 788.4207
667.1372, 788.2673
667.6193, 788.6514
668.1014, 789.8627
668.5836, 791.2991
669.0657, 792.0591
669.5478, 792.0651
670.0299, 792.2321
670.5120, 792.8060
670.9941, 793.5267
671.4763, 793.8768
671.9584, 793.9583
672.4405, 794.1657
672.9226, 794.9551
673.4047, 795.7253
673.8868, 795.7415
674.3690, 795.2500
674.8511, 795.1201
675.3332, 795.9092
675.8153, 796.9247
676.2974, 797.9425
676.7795, 798.9556
677.2617, 799.8469
677.7438, 800.5815
678.2259, 801.2465
678.7080, 801.8193
679.1901, 802.2786
679.6722, 803.1599
680.1544, 804.5428
680.6365, 805.9379
681.1186, 806.6876
681.6007, 807.1191
682.0828, 808.2252
682.5649, 810.2545
683.0471, 812.2514
683.5292, 813.3469
684.0113, 813.9469
684.4934, 814.4833
684.9755, 814.8251
685.4576, 815.4902
685.9398, 816.8563
686.4219, 818.5569
686.9040, 819.9703
687.3861, 820.8304
687.8682, 821.9492
688.3503, 823.4960
688.8325, 825.3622
689.3146, 827.1576
689.7967, 828.8747
690.2788, 831.0003
690.7609, 834.0557
691.2430, 837.3842
691.7252, 839.7850
692.2073, 841.4169
692.6894, 842.8926
693.1715, 844.3842
693.6536, 845.9851
694.1357, 847.7462
694.6179, 849.6628
695.1000, 851.7291
695.5821, 854.1675
696.0642, 856.5361
696.5463, 858.7451
697.0284, 860.8990
697.5106, 861.9875
697.9927, 861.5276
698.4748, 861.1545
698.9569, 862.4666
699.4390, 865.2399
699.9211, 867.5580
700.4033, 869.2945
700.8854, 870.6172
701.3675, 871.8782
701.8496, 872.7957
702.3317, 872.7949
702.8138, 871.3942
703.2960, 870.0017
703.7781, 869.2682
704.2602, 868.9537
704.7423, 868.7629
705.2244, 869.0595
705.7065, 868.8712
706.1887, 867.8215
706.6708, 866.3998
707.1529, 865.7509
707.6350, 866.1849
708.1171, 865.3307
708.5992, 862.1588
709.0814, 857.8360
709.5635, 854.7173
710.0456, 852.5924
710.5277, 850.5245
711.0098, 847.9748
711.4919, 845.3487
711.9741, 843.0399
712.4562, 840.9968
712.9383, 838.9016
713.4204, 836.3548
713.9025, 834.0140
714.3846, 832.2347
714.8668, 830.9749
715.3489, 829.7979
715.8310, 828.8350
716.3131, 827.6696
716.7952, 825.9301
717.2773, 823.6954
717.7595, 821.8637
718.2416, 820.4446
718.7237, 819.4186
719.2058, 819.1439
719.6879, 819.1089
720.1700, 818.2704
720.6522, 816.4510
721.1343, 815.1265
721.6164, 816.1197
722.0985, 817.3504
722.5806, 816.9418
723.0627, 813.3065
723.5449, 811.1321
724.0270, 811.3535
724.5091, 812.3851
724.9912, 812.7971
725.4733, 812.4932
725.9554, 812.1408
726.4376, 811.7924
726.9197, 811.4241
727.4018, 810.8946
727.8839, 810.3139
728.3660, 810.0489
728.8481, 810.2560
729.3303, 810.6500
729.8124, 811.1379
730.2945, 811.6086
730.7766, 811.8877
731.2587, 811.9867
731.7408, 811.8152
732.2230, 810.9817
732.7051, 809.9470
733.1872, 809.6498
733.6693, 810.4146
734.1514, 810.9678
734.6335, 810.9377
735.1157, 810.5866
735.5978, 810.6268
736.0799, 811.0120
736.5620, 811.3136
737.0441, 811.1609
737.5262, 810.9701
738.0084, 811.2677
738.4905, 811.9460
738.9726, 812.6314
739.4547, 813.2105
739.9368, 813.7117
740.4189, 814.0594
740.9011, 814.2766
741.3832, 814.7480
741.8653, 815.6800
742.3474, 816.4671
742.8295, 816.7906
743.3116, 816.7130
743.7938, 816.7729
744.2759, 816.9678
744.7580, 817.2184
745.2401, 817.6104
745.7222, 817.9651
746.2043, 817.9051
746.6865, 817.4505
747.1686, 817.1348
747.6507, 817.1862
748.1328, 817.5483
748.6149, 818.3062
749.0970, 819.6096
749.5792, 820.5754
750.0613, 821.1523
750.5434, 821.4418
751.0255, 821.4039
751.5076, 820.9815
751.9897, 820.9341
752.4719, 821.3098
752.9540, 821.7980
753.4361, 822.1837
753.9182, 822.4441
754.4003, 822.4626
754.8824, 822.1682
755.3646, 822.0368
755.8467, 822.7294
756.3288, 823.5380
756.8109, 823.7390
757.2930, 822.7305
757.7751, 822.1635
758.2573, 822.5268
758.7394, 822.9886
759.2215, 822.5878
759.7036, 821.0944
760.1857, 820.4821
760.6678, 821.1026
761.1500, 822.0385
761.6321, 822.0647
762.1142, 821.2731
762.5963, 821.9744
763.0784, 822.2543
763.5605, 822.1353
764.0427, 820.4230
764.5248, 820.7681
765.0069, 820.2888
765.4890, 819.7756
765.9711, 820.4103
766.4532, 818.9298
766.9354, 819.5463
767.4175, 819.3257
767.8996, 819.4883
768.3817, 818.8212
768.8638, 818.4105
769.3459, 817.1709
769.8281, 816.8836
770.3102, 816.7905
770.7923, 816.4704
771.2744, 815.4616
771.7565, 814.6853
772.2386, 814.9694
772.7208, 815.8683
773.2029, 816.6071
773.6850, 816.7783
774.1671, 817.0686
774.6492, 817.7568
775.1313, 818.5186
775.6135, 818.6175
776.0956, 817.9688
776.5777, 817.1806
777.0598, 816.3082
777.5419, 815.5364
778.0240, 815.2227
778.5062, 815.2843
778.9883, 815.4649
779.4704, 815.5439
779.9525, 815.8143
780.4346, 816.7366
780.9167, 817.9826
781.3989, 818.7595
781.8810, 818.5953
782.3631, 818.3317
782.8452, 818.1995
783.3273, 818.0468
783.8094, 817.2322
784.2916, 815.6505
784.7737, 814.5399
785.2558, 814.5374
785.7379, 815.0352
786.2200, 814.9090
786.7021, 814.3096
787.1843, 813.7498
787.6664, 813.3984
788.1485, 813.2269
788.6306, 813.1887
789.1127, 813.3152
789.5948, 813.7443
790.0770, 814.7828
790.5591, 815.6937
791.0412, 816.3584
791.5233, 816.7435
792.0054, 816.5533
792.4875, 815.7619
792.9697, 815.3232
793.4518, 815.8262
793.9339, 816.7688
794.4160, 817.4914
794.8981, 817.9883
795.3802, 818.2492
795.8624, 818.2027
796.3445, 817.9835
796.8266, 817.4407
797.3087, 816.7288
797.7908, 816.5994
798.2729, 817.5233
798.7551, 818.1824
799.2372, 818.1843
799.7193, 817.6674
800.2014, 816.9504
800.6835, 816.0751
801.1656, 815.5155
801.6478, 815.7654
802.1299, 816.2745
802.6120, 816.3207
803.0941, 816.0622
803.5762, 816.0129
804.0583, 816.4196
804.5405, 817.0192
805.0226, 817.8677
805.5047, 818.8394
805.9868, 819.4244
806.4689, 819.4662
806.9510, 819.5701
807.4332, 820.0119
807.9153, 820.6028
808.3974, 820.7302
808.8795, 820.4739
809.3616, 820.2758
809.8438, 820.6424
810.3259, 820.9474
810.8080, 820.4081
811.2901, 819.3581
811.7722, 818.8607
812.2543, 820.0067
812.7365, 820.7930
813.2186, 820.5383
813.7007, 819.5873
814.1828, 819.1684
814.6649, 819.3019
815.1470, 819.7818
815.6292, 820.7888
816.1113, 821.7927
816.5934, 821.5144
817.0755, 820.3184
817.5576, 819.4396
818.0397, 819.5980
818.5219, 820.1005
819.0040, 820.6672
819.4861, 821.3099
819.9682, 822.1017
820.4503, 823.3760
820.9324, 824.2609
821.4146, 824.5612
821.8967, 824.3759
822.3788, 823.8198
822.8609, 822.9244
823.3430, 822.0500
823.8251, 821.3795
824.3073, 820.7252
824.7894, 819.5281
825.2715, 818.1980
825.7536, 817.5712
826.2357, 818.4456
826.7178, 819.5156
827.2000, 820.8311
827.6821, 821.9818
828.1642, 822.0206
828.6463, 820.5404
829.1284, 819.3757
829.6105, 818.8607
830.0927, 818.8922
830.5748, 819.5510
831.0569, 820.6298
831.5390, 821.3878
832.0211, 821.3748
832.5032, 821.3133
832.9854, 821.8232
833.4675, 822.5831
833.9496, 823.0959
834.4317, 822.7277
834.9138, 822.9066
835.3959, 824.1438
835.8781, 825.5580
836.3602, 825.5365
836.8423, 824.0834
837.3244, 823.3638
837.8065, 823.9047
838.2886, 824.8845
838.7708, 825.4838
839.2529, 825.8162
839.7350, 826.0300
840.2171, 825.9371
840.6992, 826.1904
841.1813, 827.4749
841.6635, 828.9334
842.1456, 829.6906
842.6277, 829.6132
843.1098, 829.1125
843.5919, 828.0292
844.0740, 827.0275
844.5562, 827.0690
845.0383, 827.8508
845.5204, 828.5406
846.0025, 829.0469
846.4846, 829.2305
846.9667, 828.5947
847.4489, 827.8275
847.9310, 827.6356
848.4131, 828.4482
848.8952, 828.9365
849.3773, 828.9554
849.8594, 828.8005
850.3416, 828.5570
850.8237, 828.2377
851.3058, 828.6420
851.7879, 829.8580
852.2700, 830.8713
852.7521, 830.8925
853.2343, 830.2206
853.7164, 828.7712
854.1985, 826.5019
854.6806, 825.4011
855.1627, 827.4366
855.6448, 829.6155
856.1270, 830.3904
856.6091, 829.7311
857.0912, 829.0829
857.5733, 828.3583
858.0554, 828.1239
858.5375, 829.0651
859.0197, 830.6511
859.5018, 831.8193
859.9839, 832.5662
860.4660, 832.9874
860.9481, 833.1404
861.4302, 832.9725
861.9124, 832.1878
862.3945, 830.9118
862.8766, 830.3507
863.3587, 830.8054
863.8408, 831.3362
864.3229, 831.6635
864.8051, 831.8262
865.2872, 831.8143
865.7693, 831.6838
866.2514, 831.7548
866.7335, 832.5939
867.2156, 833.2902
867.6978, 832.8702
868.1799, 831.7834
868.6620, 831.0523
869.1441, 831.2330
869.6262, 831.3553
870.1083, 831.1601
870.5905, 830.9415
871.0726, 831.4864
871.5547, 832.7697
872.0368, 833.4271
872.5189, 832.9324
873.0010, 832.2286
873.4832, 832.3016
873.9653, 832.9398
874.4474, 833.8499
874.9295, 835.5180
875.4116, 836.4581
875.8937, 835.6337
876.3759, 834.3702
876.8580, 833.8785
877.3401, 834.2547
877.8222, 834.9016
878.3043, 835.8508
878.7864, 836.7305
879.2686, 837.1900
879.7507, 837.2948
880.2328, 836.9949
880.7149, 836.2064
881.1970, 835.8640
881.6791, 837.2303
882.1613, 838.5985
882.6434, 838.6160
883.1255, 837.0349
883.6076, 836.0958
884.0897, 835.9446
884.5718, 835.9979
885.0540, 835.7617
885.5361, 835.4324
886.0182, 835.7255
886.5003, 836.5749
886.9824, 837.4386
887.4645, 838.1407
887.9467, 838.6025
888.4288, 838.4242
888.9109, 837.7556
889.3930, 838.2249
889.8751, 840.7455
890.3572, 842.4252
890.8394, 842.0828
891.3215, 840.4724
891.8036, 839.3720
892.2857, 838.8469
892.7678, 839.2429
893.2499, 841.5422
893.7321, 843.8227
894.2142, 844.6027
894.6963, 844.3802
895.1784, 844.0867
895.6605, 843.6304
896.1426, 843.5583
896.6248, 844.0732
897.1069, 844.8239
897.5890, 845.1418
898.0711, 845.1172
898.5532, 845.7150
899.0353, 847.2382
899.5175, 848.7769
899.9996, 849.6276
900.4817, 849.9348
900.9638, 849.7697
901.4459, 848.8320
901.9280, 848.3456
902.4102, 848.5883
902.8923, 849.0903
903.3744, 849.5480
903.8565, 849.9596
904.3386, 850.3907
904.8207, 850.8334
905.3029, 851.3700
905.7850, 852.2018
906.2671, 853.0660
906.7492, 853.8363
907.2313, 854.4571
907.7134, 854.4783
908.1956, 852.3097
908.6777, 851.2396
909.1598, 852.9286
909.6419, 856.5705
910.1240, 858.0048
910.6061, 857.2033
911.0883, 856.1296
911.5704, 855.4119
912.0525, 855.1218
912.5346, 855.9065
913.0167, 857.1252
913.4988, 857.3885
913.9810, 854.8505
914.4631, 853.0360
914.9452, 852.8931
915.4273, 853.6637
915.9094, 854.4153
916.3915, 855.1632
916.8737, 855.5844
917.3558, 855.5963
917.8379, 855.4310
918.3200, 855.0912
918.8021, 854.8449
919.2842, 855.2572
919.7664, 856.6826
920.2485, 857.5544
920.7306, 856.8547
921.2127, 855.8922
921.6948, 855.4512
922.1769, 855.5637
922.6591, 855.5777
923.1412, 855.4791
923.6233, 855.3747
924.1054, 855.2467
924.5875, 855.2115
925.0696, 855.5388
925.5518, 856.1567
926.0339, 856.6455
926.5160, 857.1006
926.9981, 857.0692
927.4802, 856.1260
927.9623, 854.6866
928.4445, 854.0548
928.9266, 854.2872
929.4087, 854.6914
929.8908, 855.1603
930.3729, 855.5121
930.8550, 855.2787
931.3372, 854.8052
931.8193, 854.7637
932.3014, 856.0566
932.7835, 856.6219
933.2656, 855.3383
933.7477, 853.6302
934.2299, 852.7396
934.7120, 852.7458
935.1941, 852.9299
935.6762, 853.2539
936.1583, 853.8027
936.6404, 855.0135
937.1226, 856.3019
937.6047, 856.7825
938.0868, 856.3733
938.5689, 855.9461
939.0510, 855.5673
939.5331, 855.4404
940.0153, 855.6948
940.4974, 856.2579
940.9795, 856.7266
941.4616, 857.0969
941.9437, 857.3263
942.4258, 857.3094
942.9080, 857.2389
943.3901, 857.4577
943.8722, 857.7957
944.3543, 857.8825
944.8364, 857.1428
945.3185, 856.7993
945.8007, 857.1639
946.2828, 857.8753
946.7649, 858.5343
947.2470, 859.1422
947.7291, 859.4549
948.2112, 859.4033
948.6934, 859.3375
949.1755, 859.6750
949.6576, 860.1213
950.1397, 860.3102
950.6218, 860.1191
951.1039, 860.0769
951.5861, 860.1359
952.0682, 860.5255
952.5503, 861.6804
953.0324, 863.3260
953.5145, 863.0859
953.9966, 861.1557
954.4788, 859.8763
954.9609, 861.4738
955.4430, 863.4479
955.9251, 863.5765
956.4072, 862.5146
956.8893, 862.0599
957.3715, 862.9838
957.8536, 863.6621
958.3357, 863.8829
958.8178, 863.7750
959.2999, 863.3883
959.7820, 862.8104
960.2642, 862.4903
960.7463, 862.5316
961.2284, 862.6609
961.7105, 862.8385
962.1926, 862.8997
962.6747, 862.5818
963.1569, 861.6703
963.6390, 861.4826
964.1211, 862.3069
964.6032, 863.0672
965.0853, 863.0807
965.5674, 862.5362
966.0496, 861.8724
966.5317, 861.1207
967.0138, 860.3762
967.4959, 859.0856
967.9780, 858.4781
968.4601, 859.8863
968.9423, 862.2928
969.4244, 863.3181
969.9065, 862.6722
970.3886, 861.8422
970.8707, 860.9513
971.3528, 860.3281
971.8350, 860.6423
972.3171, 861.4600
972.7992, 861.9835
973.2813, 862.0045
973.7634, 861.9785
974.2455, 862.2145
974.7277, 862.3009
975.2098, 861.7781
975.6919, 860.6226
976.1740, 860.7824
976.6561, 862.3059
977.1382, 864.0349
977.6204, 865.2597
978.1025, 866.3051
978.5846, 867.7496
979.0667, 869.3533
979.5488, 870.4324
980.0309, 870.5118
980.5131, 870.2822
980.9952, 869.6213
981.4773, 868.9406
981.9594, 869.1257
982.4415, 870.0263
982.9236, 870.3801
983.4058, 869.9061
983.8879, 869.1843
984.3700, 868.4929
984.8521, 867.9233
985.3342, 867.5101
985.8163, 867.2161
986.2985, 867.5890
986.7806, 869.2076
987.2627, 870.1452
987.7448, 868.8471
988.2269, 866.3534
988.7090, 866.2282
989.1912, 867.9130
989.6733, 869.0349
990.1554, 867.5106
990.6375, 866.1439
991.1196, 866.6446
991.6017, 868.0547
992.0839, 868.7342
992.5660, 868.5967
993.0481, 867.9033
993.5302, 866.4453
994.0123, 865.3596
994.4944, 866.2404
994.9766, 868.1836
995.4587, 870.0104
995.9408, 871.5598
996.4229, 872.4565
996.9050, 871.8874
997.3871, 871.3182
997.8693, 871.4402
998.3514, 872.0833
998.8335, 872.1042
999.3156, 871.5587
999.7977, 871.4072
1000.280, 872.4752
1000.762, 873.6064
1001.244, 873.6010
1001.726, 872.9750
1002.208, 872.5977
1002.690, 873.0706
1003.173, 873.0096
1003.655, 872.1276
1004.137, 871.2376
1004.619, 871.2744
1005.101, 871.9951
1005.583, 872.5746
1006.065, 872.9594
1006.547, 873.3047
1007.029, 873.6922
1007.512, 874.0471
1007.994, 874.1896
1008.476, 874.2169
1008.958, 874.7195
1009.440, 875.8188
1009.922, 876.5175
1010.404, 876.3707
1010.886, 876.0056
1011.369, 876.3148
1011.851, 877.0315
1012.333, 877.7573
1012.815, 878.6555
1013.297, 878.9464
1013.779, 877.9532
1014.261, 877.0538
1014.743, 877.5058
1015.225, 879.1962
1015.708, 879.2813
1016.190, 877.8784
1016.672, 876.8313
1017.154, 878.0851
1017.636, 879.4553
1018.118, 878.9394
1018.600, 877.2236
1019.082, 876.7122
1019.565, 877.9490
1020.047, 879.1592
1020.529, 880.0508
1021.011, 880.8072
1021.493, 882.0024
1021.975, 883.1829
1022.457, 883.1670
1022.939, 881.5843
1023.421, 880.3425
1023.904, 880.6366
1024.386, 881.1404
1024.868, 881.1544
1025.350, 880.7455
1025.832, 880.5502
1026.314, 880.5721
1026.796, 880.4454
1027.278, 879.6979
1027.760, 879.1512
1028.243, 880.1695
1028.725, 881.8058
1029.207, 882.4503
1029.689, 880.9730
1030.171, 879.8663
1030.653, 878.4584
1031.135, 879.6191
1031.617, 880.3583
1032.100, 880.6992
1032.582, 879.4462
1033.064, 880.2507
1033.546, 880.2307
1034.028, 880.1769
1034.510, 881.2710
1034.992, 880.2498
1035.474, 881.3257
1035.957, 881.5649
1036.439, 882.1869
1036.921, 881.9792
1037.403, 882.0277
1037.885, 882.9062
1038.367, 883.3251
1038.849, 883.0219
1039.331, 883.6683
1039.813, 882.6181
1040.296, 883.0571
1040.778, 881.6639
1041.260, 880.6960
1041.742, 881.4885
1042.224, 883.4216
1042.706, 884.4192
1043.188, 884.6413
1043.670, 884.7805
1044.152, 885.3763
1044.635, 885.6872
1045.117, 884.7991
1045.599, 883.7816
1046.081, 884.2343
1046.563, 886.4869
1047.045, 887.3876
1047.527, 886.6298
1048.009, 885.8694
1048.492, 887.0848
1048.974, 888.7297
1049.456, 889.0839
1049.938, 888.1680
1050.420, 887.3907
1050.902, 886.8253
1051.384, 886.6028
1051.866, 886.7809
1052.349, 887.2877
1052.831, 888.2734
1053.313, 889.4494
1053.795, 889.9205
1054.277, 889.2591
1054.759, 888.7019
1055.241, 888.8233
1055.723, 889.2323
1056.205, 889.7031
1056.688, 890.2265
1057.170, 890.6625
1057.652, 891.0115
1058.134, 891.2252
1058.616, 891.0950
1059.098, 891.0315
1059.580, 891.6924
1060.062, 892.6341
1060.544, 892.9616
1061.027, 891.8322
1061.509, 891.6951
1061.991, 892.9106
1062.473, 894.3557
1062.955, 894.9484
1063.437, 894.9572
1063.919, 894.9273
1064.401, 894.8807
1064.884, 894.7267
1065.366, 894.3584
1065.848, 893.9391
1066.330, 893.4498
1066.812, 893.0001
1067.294, 892.9030
1067.776, 893.1232
1068.258, 893.2098
1068.740, 893.0308
1069.223, 892.9557
1069.705, 893.7587
1070.187, 894.4461
1070.669, 893.5956
1071.151, 891.0133
1071.633, 890.6223
1072.115, 891.8541
1072.597, 892.6646
1073.079, 893.0760
1073.562, 891.8948
1074.044, 892.7705
1074.526, 892.8217
1075.008, 892.8390
1075.490, 893.8165
1075.972, 894.1992
1076.454, 894.3212
1076.936, 894.3707
1077.419, 894.5582
1077.901, 894.8088
1078.383, 894.5925
1078.865, 894.0115
1079.347, 893.8128
1079.829, 895.1671
1080.311, 896.1462
1080.793, 895.2318
1081.275, 893.6647
1081.758, 893.6068
1082.240, 895.1774
1082.722, 895.6929
1083.204, 894.7001
1083.686, 893.8407
1084.168, 895.1622
1084.650, 896.8521
1085.132, 897.1251
1085.615, 895.9086
1086.097, 895.0162
1086.579, 894.6526
1087.061, 894.1664
1087.543, 893.2548
1088.025, 892.4479
1088.507, 892.8967
1088.989, 893.9950
1089.471, 894.6978
1089.953, 894.8193
1090.436, 894.3152
1090.918, 892.2677
1091.400, 890.8453
1091.882, 891.4210
1092.364, 893.4720
1092.846, 894.6579
1093.328, 895.1208
1093.810, 895.6378
1094.293, 896.8076
1094.775, 897.7527
1095.257, 898.2197
1095.739, 898.1216
1096.221, 897.0323
1096.703, 894.6062
1097.185, 894.6357
1097.667, 896.2136
1098.150, 897.4013
1098.632, 898.1671
1099.114, 898.5341
1099.596, 897.3077
1100.078, 898.1389
1100.560, 898.1454
1101.042, 898.1182
1101.524, 899.2388
1102.006, 898.2442
1102.489, 899.3472
1102.971, 899.6125
1103.453, 900.2610
1103.935, 900.0798
1104.417, 900.1549
1104.899, 901.0599
1105.381, 901.5054
1105.863, 901.2288
1106.345, 901.9016
1106.828, 900.8784
1107.310, 901.3435
1107.792, 901.6455
1108.274, 901.5222
1108.756, 901.5150
1109.238, 901.7429
1109.720, 902.7078
1110.202, 903.4568
1110.685, 903.2744
1111.167, 902.3634
1111.649, 902.6739
1112.131, 903.1732
1112.613, 903.9974
1113.095, 904.4002
1113.577, 904.4042
1114.059, 902.8149
1114.542, 903.2827
1115.024, 902.9262
1115.506, 902.5360
1115.988, 903.2936
1116.470, 901.9360
1116.952, 902.6755
1117.434, 902.5779
1117.916, 902.8633
1118.398, 902.3192
1118.880, 902.8948
1119.363, 903.5663
1119.845, 904.3818
1120.327, 904.5883
1120.809, 904.0137
1121.291, 903.2133
1121.773, 902.4056
1122.255, 901.9120
1122.737, 902.6393
1123.220, 904.3913
1123.702, 905.6572
1124.184, 905.7353
1124.666, 905.4317
1125.148, 904.6522
1125.630, 903.8956
1126.112, 904.1778
1126.594, 905.1385
1127.077, 905.6303
1127.559, 905.4842
1128.041, 905.3099
1128.523, 905.6957
1129.005, 905.7707
1129.487, 904.9410
1129.969, 903.6505
1130.451, 903.3141
1130.933, 903.8282
1131.416, 904.4631
1131.898, 905.0664
1132.380, 905.5642
1132.862, 905.9080
1133.344, 906.1055
1133.826, 906.2327
1134.308, 906.2652
1134.790, 905.5130
1135.272, 903.9364
1135.755, 902.9138
1136.237, 903.1204
1136.719, 903.8781
1137.201, 905.0442
1137.683, 906.1478
1138.165, 906.5096
1138.647, 905.9937
1139.129, 905.2643
1139.612, 904.2785
1140.094, 903.4382
1140.576, 902.9177
1141.058, 902.7687
1141.540, 903.3871
1142.022, 904.3752
1142.504, 904.8700
1142.986, 904.2834
1143.469, 904.0557
1143.951, 904.3348
1144.433, 904.6190
1144.915, 904.3037
1145.397, 903.7815
1145.879, 903.9042
1146.361, 904.5079
1146.843, 904.8351
1147.325, 904.6270
1147.807, 904.0605
1148.290, 902.9264
1148.772, 901.8741
1149.254, 901.8276
1149.736, 902.4573
1150.218, 902.9556
1150.700, 903.2611
1151.182, 903.4711
1151.664, 903.3148
1152.147, 903.5069
1152.629, 904.4696
1153.111, 905.6108
1153.593, 905.5931
1154.075, 904.7549
1154.557, 904.5100
1155.039, 905.0934
1155.521, 905.8750
1156.004, 907.0665
1156.486, 907.7383
1156.968, 907.4146
1157.450, 906.3542
1157.932, 905.0009
1158.414, 903.5150
1158.896, 903.2299
1159.378, 904.7537
1159.860, 906.1343
1160.343, 905.7032
1160.825, 905.0010
1161.307, 905.1761
1161.789, 906.0984
1162.271, 906.6307
1162.753, 906.7957
1163.235, 907.2425
1163.717, 908.4704
1164.199, 909.3511
1164.682, 908.3022
1165.164, 906.8883
1165.646, 906.8286
1166.128, 908.2354
1166.610, 908.7874
1167.092, 908.4511
1167.574, 907.8753
1168.056, 907.2578
1168.539, 906.7152
1169.021, 906.4219
1169.503, 906.2421
1169.985, 905.9283
1170.467, 905.3157
1170.949, 905.4036
1171.431, 906.2666
1171.913, 907.2858
1172.396, 908.3630
1172.878, 909.1354
1173.360, 908.8359
1173.842, 908.0621
1174.324, 908.0389
1174.806, 909.2860
1175.288, 910.0460
1175.770, 910.2203
1176.252, 910.1456
1176.734, 909.7180
1177.217, 909.4416
1177.699, 910.1965
1178.181, 911.6088
1178.663, 912.5918
1179.145, 913.0828
1179.627, 912.7984
1180.109, 911.5190
1180.591, 910.2687
1181.074, 910.1348
1181.556, 910.5998
1182.038, 911.1865
1182.520, 911.7717
1183.002, 911.8776
1183.484, 911.2399
1183.966, 910.5687
1184.448, 909.8569
1184.931, 909.4698
1185.413, 910.2518
1185.895, 911.4153
1186.377, 911.4995
1186.859, 910.5701
1187.341, 910.0497
1187.823, 910.3662
1188.305, 910.7742
1188.787, 911.2178
1189.270, 911.4562
1189.752, 910.6847
1190.234, 909.6799
1190.716, 909.9642
1191.198, 911.6467
1191.680, 913.1241
1192.162, 914.1869
1192.644, 914.8128
1193.126, 914.9916
1193.609, 914.7638
1194.091, 914.1098
1194.573, 913.1407
1195.055, 911.7321
1195.537, 909.7986
1196.019, 909.2931
1196.501, 911.4818
1196.983, 913.5654
1197.466, 914.6676
1197.948, 915.3064
1198.430, 916.5824
1198.912, 918.0788
1199.394, 918.9211
1199.876, 918.8515
1200.358, 918.6860
1200.840, 918.4760
1201.323, 918.3924
1201.805, 918.5649
1202.287, 918.8053
1202.769, 918.8171
1203.251, 918.5822
1203.733, 917.9269
1204.215, 916.5872
1204.697, 916.0153
1205.179, 916.9379
1205.661, 917.7337
1206.144, 917.6839
1206.626, 917.0877
1207.108, 916.2304
1207.590, 915.4232
1208.072, 915.4841
1208.554, 917.0797
1209.036, 917.8983
1209.518, 916.9313
1210.001, 916.5081
1210.483, 918.2029
1210.965, 920.8314
1211.447, 921.2574
1211.929, 920.3865
1212.411, 920.3531
1212.893, 922.4586
1213.375, 923.3947
1213.858, 922.2520
1214.340, 921.1387
1214.822, 921.4288
1215.304, 922.4329
1215.786, 922.4897
1216.268, 921.9371
1216.750, 921.5244
1217.232, 921.6564
1217.714, 921.4844
1218.197, 920.6786
1218.679, 920.1703
1219.161, 920.8340
1219.643, 921.9960
1220.125, 921.9836
1220.607, 921.3433
1221.089, 921.3906
1221.571, 923.5501
1222.053, 924.2929
1222.536, 922.9791
1223.018, 921.5113
1223.500, 921.2260
1223.982, 921.6133
1224.464, 921.6610
1224.946, 921.5931
1225.428, 921.9170
1225.910, 923.4545
1226.393, 924.1973
1226.875, 923.9541
1227.357, 923.4182
1227.839, 922.7775
1228.321, 922.3669
1228.803, 923.2328
1229.285, 924.6896
1229.767, 925.1185
1230.250, 923.1547
1230.732, 922.1827
1231.214, 922.4537
1231.696, 922.8661
1232.178, 922.4543
1232.660, 921.7772
1233.142, 921.5099
1233.624, 921.6088
1234.106, 922.0010
1234.589, 922.9415
1235.071, 923.4880
1235.553, 923.6165
1236.035, 923.3821
1236.517, 922.4214
1236.999, 921.4487
1237.481, 921.3445
1237.963, 921.8563
1238.445, 922.4125
1238.928, 922.9449
1239.410, 923.5572
1239.892, 924.2747
1240.374, 924.8265
1240.856, 924.7814
1241.338, 924.6819
1241.820, 925.3140
1242.302, 926.1697
1242.785, 926.1053
1243.267, 924.8054
1243.749, 924.1088
1244.231, 924.0915
1244.713, 924.6775
1245.195, 926.7094
1245.677, 928.4283
1246.159, 927.8717
1246.641, 926.3352
1247.124, 926.4205
1247.606, 928.3919
1248.088, 928.3934
1248.570, 926.3022
1249.052, 924.9189
1249.534, 926.9849
1250.016, 929.3655
1250.498, 930.3533
1250.980, 930.3851
1251.463, 929.8595
1251.945, 928.7908
1252.427, 928.3302
1252.909, 928.4718
1253.391, 928.5934
1253.873, 928.1287
1254.355, 927.8057
1254.837, 928.1707
1255.320, 928.6503
1255.802, 928.6790
1256.284, 928.2666
1256.766, 926.8916
1257.248, 924.8400
1257.730, 924.1605
1258.212, 927.2520
1258.694, 930.1185
1259.177, 931.9530
1259.659, 932.8192
1260.141, 932.2058
1260.623, 930.7294
1261.105, 930.5741
1261.587, 931.5880
1262.069, 932.6927
1262.551, 934.1782
1263.033, 934.4208
1263.516, 932.7386
1263.998, 930.9049
1264.480, 931.0431
1264.962, 932.1072
1265.444, 931.6915
1265.926, 930.2118
1266.408, 929.4110
1266.890, 930.0788
1267.372, 930.9336
1267.855, 932.0070
1268.337, 932.9709
1268.819, 933.4968
1269.301, 933.7985
1269.783, 934.3199
1270.265, 934.8466
1270.747, 934.6357
1271.229, 933.0919
1271.712, 932.8223
1272.194, 934.1395
1272.676, 935.1594
1273.158, 933.5145
1273.640, 931.7244
1274.122, 932.5743
1274.604, 934.8243
1275.086, 935.9127
1275.568, 935.5257
1276.051, 935.8631
1276.533, 936.9938
1277.015, 937.6485
1277.497, 935.6818
1277.979, 934.4557
1278.461, 937.5797
1278.943, 941.6298
1279.425, 942.1208
1279.907, 939.1436
1280.390, 937.3004
1280.872, 936.6124
1281.354, 936.5476
1281.836, 937.2313
1282.318, 937.9719
1282.800, 938.7122
1283.282, 939.2081
1283.764, 938.9698
1284.247, 938.2716
1284.729, 938.7014
1285.211, 939.9592
1285.693, 940.9141
1286.175, 941.2859
1286.657, 940.8861
1287.139, 939.2952
1287.621, 937.8646
1288.104, 937.7488
1288.586, 938.4474
1289.068, 939.1348
1289.550, 939.7416
1290.032, 940.1096
1290.514, 940.0070
1290.996, 940.0163
1291.478, 940.1219
1291.960, 940.4617
1292.443, 941.3943
1292.925, 942.3397
1293.407, 942.5370
1293.889, 942.2657
1294.371, 941.9912
1294.853, 941.8147
1295.335, 941.1168
1295.817, 939.8582
1296.299, 939.2561
1296.782, 940.3531
1297.264, 941.6293
1297.746, 941.9921
1298.228, 941.9036
1298.710, 941.9045
1299.192, 942.0285
1299.674, 942.0551
1300.156, 942.0110
1300.639, 941.9689
1301.121, 941.9240
1301.603, 942.0363
1302.085, 942.7325
1302.567, 943.5400
1303.049, 944.2781
1303.531, 944.7793
##END=



