##NAMES=Triphylite
##RRUFFID=R050366
##IDEAL CHEMISTRY=LiFe^2+^PO_4_
##LOCALITY=Cornelia mine, Hagendorf, Bavaria, Germany
##OWNER=RRUFF
##SOURCE=Marcus Origlieri
##DESCRIPTION=Bluish gray massive associated with brown zwieselite R050279
##STATUS=The identification of this mineral has been confirmed by X-ray diffraction and chemical analysis
##URL=rruff.info/R050366
##MEASURED CHEMISTRY=Li_1.00_(Fe^2+^_0.80_Mn^2+^_0.20_)_Î£=1_P_1.00_O_4_ ; Li not measured but estimated by difference and charge balance.
91.87140, 0.0000000E+00
92.35352, 2.685334
92.83563, 2.641632
93.31775, 2.623088
93.79987, 2.628217
94.28198, 2.658329
94.76410, 2.723018
95.24622, 2.837450
95.72833, 2.973425
96.21045, 3.048524
96.69257, 3.057588
97.17468, 3.092025
97.65680, 3.275197
98.13892, 3.603578
98.62103, 3.849351
99.10315, 3.911060
99.58527, 3.827948
100.0674, 3.858379
100.5495, 4.007637
101.0316, 4.258742
101.5137, 4.606285
101.9958, 5.076913
102.4780, 5.555751
102.9601, 5.978881
103.4422, 6.315064
103.9243, 6.812867
104.4064, 7.545853
104.8885, 8.396081
105.3707, 9.194992
105.8528, 10.05894
106.3349, 10.69684
106.8170, 10.96362
107.2991, 10.60379
107.7813, 10.35558
108.2634, 10.24590
108.7455, 10.25110
109.2276, 10.29415
109.7097, 10.45126
110.1918, 10.59120
110.6740, 10.65971
111.1561, 10.48024
111.6382, 10.42606
112.1203, 10.50804
112.6024, 10.73033
113.0845, 11.11650
113.5667, 11.81744
114.0488, 12.59975
114.5309, 13.31421
115.0130, 13.89087
115.4951, 14.42387
115.9772, 14.90235
116.4594, 15.33490
116.9415, 15.84474
117.4236, 16.58701
117.9057, 17.39540
118.3878, 18.08899
118.8699, 18.40835
119.3521, 18.74657
119.8342, 19.36610
120.3163, 20.30377
120.7984, 21.29139
121.2805, 22.09091
121.7626, 22.83436
122.2448, 23.74742
122.7269, 25.13877
123.2090, 26.65282
123.6911, 27.89532
124.1732, 28.76525
124.6553, 29.61291
125.1375, 30.59228
125.6196, 31.77170
126.1017, 33.36731
126.5838, 35.54585
127.0659, 38.22555
127.5480, 41.27980
128.0302, 44.73466
128.5123, 48.50321
128.9944, 52.70860
129.4765, 57.28265
129.9586, 61.58846
130.4407, 65.14655
130.9229, 68.04532
131.4050, 70.61238
131.8871, 72.72464
132.3692, 74.64176
132.8513, 76.88633
133.3334, 79.34153
133.8156, 81.65292
134.2977, 83.74411
134.7798, 85.90116
135.2619, 88.31592
135.7440, 91.09305
136.2261, 94.13189
136.7083, 97.21489
137.1904, 100.3500
137.6725, 103.5446
138.1546, 106.8912
138.6367, 110.4502
139.1188, 113.9088
139.6010, 117.1693
140.0831, 120.2191
140.5652, 123.3702
141.0473, 126.3354
141.5294, 129.8161
142.0115, 134.6261
142.4937, 140.8349
142.9758, 148.2118
143.4579, 156.6497
143.9400, 165.9202
144.4221, 177.1491
144.9042, 190.8416
145.3864, 206.1775
145.8685, 221.8496
146.3506, 240.9118
146.8327, 256.4753
147.3148, 266.9911
147.7969, 274.0412
148.2791, 272.4512
148.7612, 259.5014
149.2433, 238.4060
149.7254, 216.0148
150.2075, 188.3764
150.6896, 163.0108
151.1718, 142.8160
151.6539, 128.9793
152.1360, 118.3377
152.6181, 111.3325
153.1002, 107.5021
153.5823, 105.5269
154.0645, 105.9956
154.5466, 107.7388
155.0287, 110.2626
155.5108, 115.8758
155.9929, 119.4692
156.4750, 120.5511
156.9572, 119.1235
157.4393, 115.0472
157.9214, 105.8890
158.4035, 95.50697
158.8856, 86.28496
159.3677, 78.60680
159.8499, 72.22881
160.3320, 67.47471
160.8141, 64.16983
161.2962, 61.31627
161.7783, 59.42012
162.2604, 57.45693
162.7426, 54.58199
163.2247, 49.62207
163.7068, 44.51145
164.1889, 39.87326
164.6710, 35.76646
165.1531, 32.33136
165.6353, 29.86098
166.1174, 28.02597
166.5995, 26.47215
167.0816, 25.09829
167.5637, 23.94256
168.0458, 23.05847
168.5280, 22.45236
169.0101, 21.98664
169.4922, 21.64037
169.9743, 21.37270
170.4564, 21.12931
170.9385, 20.93666
171.4207, 20.72986
171.9028, 20.43016
172.3849, 20.03187
172.8670, 19.63744
173.3491, 19.27251
173.8312, 18.96573
174.3134, 18.77171
174.7955, 18.83489
175.2776, 18.97334
175.7597, 18.94888
176.2418, 18.73323
176.7239, 18.49428
177.2061, 18.35955
177.6882, 18.31855
178.1703, 18.34413
178.6524, 18.50019
179.1345, 18.69534
179.6166, 18.75528
180.0988, 18.65382
180.5809, 18.50934
181.0630, 18.45499
181.5451, 18.47323
182.0272, 18.49631
182.5093, 18.48960
182.9915, 18.46183
183.4736, 18.42150
183.9557, 18.35805
184.4378, 18.32091
184.9199, 18.40217
185.4020, 18.58499
185.8842, 18.76168
186.3663, 18.88373
186.8484, 18.95322
187.3305, 18.95873
187.8126, 18.88344
188.2947, 18.78679
188.7769, 18.73560
189.2590, 18.73174
189.7411, 18.81800
190.2232, 19.08275
190.7053, 19.48813
191.1874, 19.78619
191.6696, 19.94032
192.1517, 20.01863
192.6338, 20.12426
193.1159, 20.25577
193.5980, 20.44939
194.0801, 20.75563
194.5623, 21.16368
195.0444, 21.53312
195.5265, 21.83065
196.0086, 22.10892
196.4907, 22.51056
196.9728, 23.05455
197.4550, 23.56164
197.9371, 23.88246
198.4192, 24.01268
198.9013, 24.27443
199.3834, 24.79045
199.8655, 25.35553
200.3477, 25.44036
200.8298, 24.98030
201.3119, 24.32207
201.7940, 23.60993
202.2761, 22.82859
202.7582, 22.17328
203.2404, 21.68392
203.7225, 21.31389
204.2046, 20.93313
204.6867, 20.53089
205.1688, 20.15341
205.6509, 19.82122
206.1331, 19.52511
206.6152, 19.32435
207.0973, 19.23755
207.5794, 19.24198
208.0615, 19.27905
208.5436, 19.36271
209.0258, 19.44243
209.5079, 19.47249
209.9900, 19.42986
210.4721, 19.45078
210.9542, 19.57119
211.4363, 19.75370
211.9185, 19.85128
212.4006, 19.80480
212.8827, 19.80189
213.3648, 19.98943
213.8469, 20.45164
214.3290, 20.78138
214.8112, 20.86395
215.2933, 20.80959
215.7754, 21.06249
216.2575, 21.78942
216.7396, 22.51023
217.2217, 22.86482
217.7039, 22.61552
218.1860, 22.74449
218.6681, 23.43134
219.1502, 24.52317
219.6323, 25.46009
220.1144, 26.18566
220.5966, 26.83988
221.0787, 27.50483
221.5608, 28.22446
222.0429, 28.82334
222.5250, 29.23416
223.0071, 29.52209
223.4893, 29.91651
223.9714, 30.47633
224.4535, 31.05572
224.9356, 31.57200
225.4177, 31.96162
225.8998, 32.43999
226.3820, 33.04699
226.8641, 33.74849
227.3462, 34.38367
227.8283, 34.83436
228.3104, 35.39641
228.7925, 36.22352
229.2747, 37.41907
229.7568, 38.67529
230.2389, 39.98635
230.7210, 41.36078
231.2031, 42.78202
231.6852, 44.23062
232.1674, 45.75066
232.6495, 47.32795
233.1316, 48.85126
233.6137, 50.69432
234.0958, 52.95567
234.5779, 55.50246
235.0601, 57.92564
235.5422, 60.18918
236.0243, 62.42193
236.5064, 64.72633
236.9885, 67.31412
237.4706, 69.52188
237.9528, 71.40559
238.4349, 72.86681
238.9170, 73.60292
239.3991, 73.40861
239.8812, 72.79549
240.3633, 71.92607
240.8455, 70.66212
241.3276, 69.44973
241.8097, 68.09776
242.2918, 66.88439
242.7739, 66.45835
243.2560, 67.04888
243.7382, 68.07490
244.2203, 69.38343
244.7024, 71.13177
245.1845, 72.70154
245.6666, 73.95364
246.1487, 75.09093
246.6309, 76.55969
247.1130, 78.58090
247.5951, 80.58256
248.0772, 82.37688
248.5593, 83.99709
249.0414, 85.33231
249.5236, 86.39537
250.0057, 87.16231
250.4878, 87.66537
250.9699, 88.14198
251.4520, 87.92154
251.9341, 86.71799
252.4163, 84.36963
252.8984, 81.83107
253.3805, 79.17848
253.8626, 76.24976
254.3447, 72.82266
254.8268, 68.53835
255.3090, 64.38286
255.7911, 60.66191
256.2732, 57.37953
256.7553, 54.34492
257.2374, 51.59114
257.7195, 49.04284
258.2017, 46.59382
258.6838, 44.17880
259.1659, 41.96167
259.6480, 39.94691
260.1301, 38.14906
260.6122, 36.64199
261.0944, 35.55278
261.5765, 34.59069
262.0586, 33.38575
262.5407, 31.75375
263.0228, 30.40567
263.5049, 29.57424
263.9871, 29.22998
264.4692, 28.79683
264.9513, 28.23443
265.4334, 27.64216
265.9155, 27.10034
266.3976, 26.63088
266.8798, 26.16268
267.3619, 25.65295
267.8440, 25.12288
268.3261, 24.79699
268.8082, 24.72300
269.2903, 24.75266
269.7725, 24.79345
270.2546, 24.86255
270.7367, 24.85449
271.2188, 24.72336
271.7009, 24.50944
272.1830, 24.38252
272.6652, 24.35795
273.1473, 24.38090
273.6294, 24.41096
274.1115, 24.44158
274.5936, 24.52323
275.0757, 24.66582
275.5579, 24.85922
276.0400, 25.08958
276.5221, 25.37526
277.0042, 25.62278
277.4863, 25.74038
277.9684, 25.71118
278.4506, 25.78189
278.9327, 25.97096
279.4148, 26.26542
279.8969, 26.69465
280.3790, 27.29101
280.8611, 27.79621
281.3433, 28.00251
281.8254, 27.91436
282.3075, 28.01493
282.7896, 28.34895
283.2717, 28.80823
283.7538, 29.25951
284.2360, 29.70586
284.7181, 30.07048
285.2002, 30.22172
285.6823, 30.20728
286.1644, 30.53778
286.6465, 31.28830
287.1287, 32.09862
287.6108, 32.46731
288.0929, 32.41571
288.5750, 32.33867
289.0571, 32.41453
289.5392, 32.58255
290.0214, 32.59900
290.5035, 32.45783
290.9856, 32.22215
291.4677, 31.96340
291.9498, 31.67097
292.4319, 31.28250
292.9141, 30.72713
293.3962, 30.08921
293.8783, 29.60127
294.3604, 29.26838
294.8425, 28.89976
295.3246, 28.28111
295.8068, 27.47846
296.2889, 26.72320
296.7710, 26.06160
297.2531, 25.47241
297.7352, 24.92961
298.2173, 24.43576
298.6995, 23.99273
299.1816, 23.61622
299.6637, 23.29319
300.1458, 23.00655
300.6279, 22.75123
301.1100, 22.52805
301.5922, 22.31614
302.0743, 22.13031
302.5564, 22.03151
303.0385, 22.12323
303.5206, 22.30092
304.0027, 22.41385
304.4849, 22.43369
304.9670, 22.42059
305.4491, 22.41627
305.9312, 22.42171
306.4133, 22.43932
306.8954, 22.44700
307.3776, 22.48035
307.8597, 22.57461
308.3418, 22.73407
308.8239, 22.94416
309.3060, 23.26958
309.7881, 23.62985
310.2703, 23.88758
310.7524, 23.82996
311.2345, 23.76948
311.7166, 23.97281
312.1987, 24.43411
312.6808, 24.87798
313.1630, 25.11191
313.6451, 25.26421
314.1272, 25.47571
314.6093, 25.89102
315.0914, 26.27944
315.5735, 26.47717
316.0557, 26.52380
316.5378, 26.63050
317.0199, 26.93284
317.5020, 27.30177
317.9841, 27.64544
318.4662, 27.89761
318.9484, 28.18070
319.4305, 28.67088
319.9126, 29.23658
320.3947, 29.53181
320.8768, 29.27274
321.3589, 28.85749
321.8411, 28.47207
322.3232, 28.15166
322.8053, 27.84366
323.2874, 27.60423
323.7695, 27.35953
324.2516, 26.99260
324.7338, 26.36711
325.2159, 25.72579
325.6980, 25.12781
326.1801, 24.56637
326.6622, 24.08631
327.1443, 23.78509
327.6265, 23.52243
328.1086, 23.15473
328.5907, 22.51613
329.0728, 21.96086
329.5549, 21.55170
330.0370, 21.28858
330.5192, 21.06824
331.0013, 20.91046
331.4834, 20.77709
331.9655, 20.63964
332.4476, 20.48332
332.9297, 20.35159
333.4119, 20.28233
333.8940, 20.24476
334.3761, 20.08008
334.8582, 19.67628
335.3403, 19.32796
335.8224, 19.21207
336.3046, 19.43964
336.7867, 19.56772
337.2688, 19.57507
337.7509, 19.48910
338.2330, 19.35559
338.7151, 19.16409
339.1973, 18.95789
339.6794, 18.70563
340.1615, 18.39706
340.6436, 18.36459
341.1257, 18.70509
341.6078, 19.11196
342.0900, 19.14470
342.5721, 18.77230
343.0542, 18.44768
343.5363, 18.31266
344.0184, 18.33239
344.5005, 18.36875
344.9827, 18.42475
345.4648, 18.47394
345.9469, 18.49104
346.4290, 18.47830
346.9111, 18.44828
347.3932, 18.39217
347.8754, 18.33450
348.3575, 18.31566
348.8396, 18.33556
349.3217, 18.39867
349.8038, 18.56025
350.2859, 18.76440
350.7681, 18.86815
351.2502, 18.84377
351.7323, 18.75937
352.2144, 18.63664
352.6965, 18.50668
353.1786, 18.46733
353.6608, 18.66452
354.1429, 18.93457
354.6250, 19.06669
355.1071, 19.04951
355.5892, 18.98891
356.0714, 18.92617
356.5535, 18.88157
357.0356, 18.88564
357.5177, 18.99352
357.9998, 19.11744
358.4819, 19.18119
358.9641, 19.19731
359.4462, 19.23444
359.9283, 19.40246
360.4104, 19.56713
360.8925, 19.59806
361.3746, 19.35131
361.8568, 19.16617
362.3389, 19.20481
362.8210, 19.40701
363.3031, 19.63626
363.7852, 19.94009
364.2673, 20.18863
364.7495, 20.29802
365.2316, 20.21161
365.7137, 20.16355
366.1958, 20.23565
366.6779, 20.35746
367.1600, 20.44680
367.6422, 20.40539
368.1243, 20.42303
368.6064, 20.55511
369.0885, 20.80870
369.5706, 21.05947
370.0527, 21.35567
370.5349, 21.61366
371.0170, 21.77551
371.4991, 21.75497
371.9812, 21.78213
372.4633, 21.87919
372.9454, 22.03495
373.4276, 22.21677
373.9097, 22.46458
374.3918, 22.67225
374.8739, 22.76067
375.3560, 22.67613
375.8381, 22.72379
376.3203, 22.92805
376.8024, 23.23127
377.2845, 23.57034
377.7666, 23.95797
378.2487, 24.29557
378.7308, 24.53349
379.2130, 24.68781
379.6951, 24.83488
380.1772, 24.97115
380.6593, 25.12398
381.1414, 25.28638
381.6235, 25.46897
382.1057, 25.81208
382.5878, 26.40462
383.0699, 27.08603
383.5520, 27.50915
384.0341, 27.70331
384.5162, 27.92729
384.9984, 28.39681
385.4805, 29.01103
385.9626, 29.55033
386.4447, 29.98387
386.9268, 30.39166
387.4089, 30.85159
387.8911, 31.34989
388.3732, 31.84513
388.8553, 32.32234
389.3374, 32.78719
389.8195, 33.21362
390.3016, 33.60214
390.7838, 34.04968
391.2659, 34.67259
391.7480, 35.35665
392.2301, 35.98142
392.7122, 36.47875
393.1943, 36.95962
393.6765, 37.42928
394.1586, 37.91652
394.6407, 38.49195
395.1228, 39.31556
395.6049, 40.12984
396.0870, 40.79525
396.5692, 41.23336
397.0513, 41.71379
397.5334, 42.27823
398.0155, 42.91829
398.4976, 43.61509
398.9797, 44.50518
399.4619, 45.30874
399.9440, 45.94741
400.4261, 46.42140
400.9082, 46.91621
401.3903, 47.48101
401.8724, 48.01851
402.3546, 48.44883
402.8367, 48.64829
403.3188, 49.00660
403.8009, 49.59474
404.2830, 50.33250
404.7651, 51.02038
405.2473, 51.63655
405.7294, 52.24616
406.2115, 52.87264
406.6936, 53.51069
407.1757, 54.18361
407.6578, 54.91266
408.1400, 55.62445
408.6221, 56.18388
409.1042, 56.59755
409.5863, 57.17037
410.0684, 58.02105
410.5505, 59.05103
411.0327, 60.07128
411.5148, 61.08793
411.9969, 62.14343
412.4790, 63.36462
412.9611, 64.65594
413.4432, 65.69020
413.9254, 66.34907
414.4075, 67.08859
414.8896, 68.48478
415.3717, 70.34802
415.8538, 72.22823
416.3359, 73.89767
416.8181, 75.48318
417.3002, 77.04001
417.7823, 78.59294
418.2644, 80.18315
418.7465, 81.86747
419.2286, 83.62442
419.7108, 85.39909
420.1929, 87.04019
420.6750, 88.91344
421.1571, 91.31125
421.6392, 94.06930
422.1213, 96.70142
422.6035, 98.90525
423.0856, 101.0968
423.5677, 103.4550
424.0498, 105.9866
424.5319, 108.6541
425.0140, 111.5517
425.4962, 114.5646
425.9783, 117.5894
426.4604, 120.6758
426.9425, 123.6973
427.4246, 126.5354
427.9067, 129.2760
428.3889, 132.3515
428.8710, 135.8749
429.3531, 139.5208
429.8352, 143.2043
430.3173, 146.9125
430.7994, 150.4367
431.2816, 153.7110
431.7637, 156.8844
432.2458, 160.1835
432.7279, 163.6235
433.2100, 166.8865
433.6921, 169.7585
434.1743, 172.3910
434.6564, 175.2271
435.1385, 178.2999
435.6206, 181.5968
436.1027, 185.3045
436.5848, 189.2421
437.0670, 192.9661
437.5491, 196.4780
438.0312, 199.5624
438.5133, 201.9180
438.9954, 203.6765
439.4775, 205.1985
439.9597, 206.5844
440.4418, 207.8767
440.9239, 209.2861
441.4060, 210.8270
441.8881, 211.7969
442.3702, 211.5910
442.8524, 210.7049
443.3345, 209.6155
443.8166, 208.6666
444.2987, 207.2737
444.7808, 205.1896
445.2629, 202.5126
445.7451, 199.5098
446.2272, 196.1299
446.7093, 192.5922
447.1914, 188.9866
447.6735, 185.3251
448.1556, 181.5295
448.6378, 177.6631
449.1199, 173.6573
449.6020, 169.4256
450.0841, 165.0422
450.5662, 160.4612
451.0483, 155.6564
451.5305, 150.6337
452.0126, 145.4324
452.4947, 139.8178
452.9768, 134.6148
453.4589, 130.4074
453.9410, 127.1915
454.4232, 123.7028
454.9053, 119.7961
455.3874, 115.8282
455.8695, 112.1779
456.3516, 108.8105
456.8337, 105.6210
457.3159, 102.6272
457.7980, 99.70021
458.2801, 96.46416
458.7622, 92.99841
459.2443, 89.74335
459.7264, 87.22166
460.2086, 85.03642
460.6907, 82.66765
461.1728, 79.98994
461.6549, 77.39250
462.1370, 75.26907
462.6191, 73.41826
463.1013, 71.59486
463.5834, 69.62541
464.0655, 67.73466
464.5476, 66.05961
465.0297, 64.59010
465.5118, 63.15307
465.9940, 61.75506
466.4761, 60.36842
466.9582, 58.98725
467.4403, 57.59867
467.9224, 56.20666
468.4045, 54.72538
468.8867, 53.28257
469.3688, 52.05646
469.8509, 51.21068
470.3330, 50.31552
470.8151, 49.21792
471.2972, 47.95851
471.7794, 47.00501
472.2615, 46.44444
472.7436, 45.92848
473.2257, 45.16998
473.7078, 44.15960
474.1899, 43.32938
474.6721, 42.74644
475.1542, 42.23970
475.6363, 41.54039
476.1184, 40.67685
476.6005, 39.82868
477.0826, 39.03111
477.5648, 38.31502
478.0469, 37.74739
478.5290, 37.31623
479.0111, 36.91320
479.4932, 36.49761
479.9753, 36.05198
480.4575, 35.52111
480.9396, 34.83899
481.4217, 34.25726
481.9038, 34.08500
482.3859, 34.08553
482.8680, 33.91302
483.3502, 33.22702
483.8323, 32.56856
484.3144, 32.19408
484.7965, 32.08419
485.2786, 31.83829
485.7607, 31.16617
486.2429, 30.53023
486.7250, 30.18667
487.2071, 30.39721
487.6892, 30.33411
488.1713, 29.84636
488.6534, 29.19149
489.1356, 28.74237
489.6177, 28.56000
490.0998, 28.40254
490.5819, 28.21094
491.0640, 27.99520
491.5461, 27.80249
492.0283, 27.62970
492.5104, 27.49691
492.9925, 27.47350
493.4746, 27.51950
493.9567, 27.40286
494.4388, 27.08109
494.9210, 26.72687
495.4031, 26.54859
495.8852, 26.49094
496.3673, 26.41054
496.8494, 26.25024
497.3315, 26.04812
497.8137, 25.78860
498.2958, 25.50006
498.7779, 25.31127
499.2600, 25.40021
499.7421, 25.53366
500.2242, 25.54901
500.7064, 25.41091
501.1885, 25.22509
501.6706, 24.94596
502.1527, 24.67051
502.6348, 24.50187
503.1169, 24.64000
503.5991, 24.66057
504.0812, 24.44320
504.5633, 24.06899
505.0454, 23.83224
505.5275, 23.76411
506.0096, 23.79000
506.4918, 23.92274
506.9739, 24.18546
507.4560, 24.27534
507.9381, 24.16934
508.4202, 23.95266
508.9023, 23.66709
509.3845, 23.32066
509.8666, 23.05017
510.3487, 22.87486
510.8308, 22.79786
511.3129, 22.89940
511.7950, 23.13311
512.2772, 23.28204
512.7593, 23.13503
513.2414, 22.89183
513.7235, 22.79250
514.2056, 22.83868
514.6877, 22.92954
515.1699, 23.09701
515.6520, 23.22934
516.1341, 23.20265
516.6162, 22.87626
517.0983, 22.61218
517.5804, 22.59024
518.0626, 22.69243
518.5447, 22.72529
519.0268, 22.56636
519.5089, 22.43250
519.9910, 22.36484
520.4731, 22.36191
520.9553, 22.41780
521.4374, 22.56996
521.9195, 22.72425
522.4016, 22.83009
522.8837, 22.88190
523.3658, 22.90509
523.8480, 22.88938
524.3301, 22.86837
524.8122, 22.90207
525.2943, 22.98541
525.7764, 23.03094
526.2585, 23.00473
526.7407, 22.93966
527.2228, 22.88672
527.7049, 22.84582
528.1870, 22.81732
528.6691, 22.77470
529.1512, 22.75784
529.6334, 22.84068
530.1155, 23.03265
530.5976, 23.19156
531.0797, 23.16358
531.5618, 23.09421
532.0439, 23.13334
532.5261, 23.43366
533.0082, 23.67905
533.4903, 23.75221
533.9724, 23.72077
534.4545, 23.73111
534.9366, 23.78681
535.4188, 23.89696
535.9009, 24.08162
536.3830, 24.33863
536.8651, 24.56775
537.3472, 24.77019
537.8293, 24.94291
538.3115, 25.06491
538.7936, 25.12871
539.2757, 25.24923
539.7578, 25.43951
540.2399, 25.66375
540.7220, 25.88062
541.2042, 26.09011
541.6863, 26.30330
542.1684, 26.50663
542.6505, 26.73857
543.1326, 27.09620
543.6147, 27.54229
544.0969, 27.94456
544.5790, 28.12900
545.0611, 28.29187
545.5432, 28.59251
546.0253, 29.04547
546.5074, 29.57067
546.9896, 30.15014
547.4717, 30.77486
547.9538, 31.43665
548.4359, 32.09752
548.9180, 32.84866
549.4001, 33.77954
549.8823, 34.78405
550.3644, 35.66590
550.8465, 36.32062
551.3286, 37.06134
551.8107, 37.93658
552.2928, 38.96221
552.7750, 40.28299
553.2571, 41.97570
553.7392, 43.61916
554.2213, 44.78070
554.7034, 45.59023
555.1855, 46.86795
555.6677, 48.66582
556.1498, 50.83810
556.6319, 53.40201
557.1140, 56.19071
557.5961, 58.81591
558.0782, 61.04173
558.5604, 63.29100
559.0425, 65.85188
559.5246, 68.67918
560.0067, 71.66476
560.4888, 74.97104
560.9709, 78.21069
561.4531, 81.02493
561.9352, 83.42190
562.4173, 86.20015
562.8994, 89.78968
563.3815, 93.52568
563.8636, 97.09616
564.3458, 100.3188
564.8279, 103.7999
565.3100, 107.5776
565.7921, 111.6131
566.2742, 115.8064
566.7563, 120.1734
567.2385, 124.7860
567.7206, 129.7298
568.2027, 134.8065
568.6848, 139.3702
569.1669, 143.5142
569.6490, 147.4659
570.1312, 151.3368
570.6133, 155.1544
571.0954, 159.2094
571.5775, 163.4804
572.0596, 166.8333
572.5417, 168.5961
573.0239, 169.1539
573.5060, 168.8494
573.9881, 167.8653
574.4702, 165.6960
574.9523, 161.9729
575.4344, 157.0270
575.9166, 151.3235
576.3987, 144.1917
576.8808, 137.1225
577.3629, 129.9716
577.8450, 122.9870
578.3271, 116.9375
578.8093, 112.0145
579.2914, 107.4883
579.7735, 103.0189
580.2556, 98.72846
580.7377, 95.10650
581.2198, 92.17298
581.7020, 89.90058
582.1841, 88.29050
582.6662, 87.32420
583.1483, 87.04398
583.6304, 87.53930
584.1125, 88.29527
584.5947, 88.85857
585.0768, 89.39204
585.5589, 90.13583
586.0410, 91.28826
586.5231, 92.53847
587.0052, 93.90507
587.4874, 95.28165
587.9695, 96.35615
588.4516, 97.20604
588.9337, 97.61121
589.4158, 97.47624
589.8979, 96.79985
590.3801, 95.93567
590.8622, 94.97031
591.3443, 93.65441
591.8264, 91.80611
592.3085, 89.39576
592.7906, 86.78941
593.2728, 83.98716
593.7549, 80.98841
594.2370, 77.58108
594.7191, 73.89120
595.2012, 70.49966
595.6833, 67.58636
596.1655, 64.89317
596.6476, 62.23169
597.1297, 59.58319
597.6118, 56.84245
598.0939, 53.61477
598.5760, 50.59899
599.0582, 48.17898
599.5403, 46.37130
600.0224, 44.81938
600.5045, 43.52887
600.9866, 42.41596
601.4688, 41.42529
601.9509, 40.54878
602.4330, 39.81630
602.9151, 39.20141
603.3972, 38.77558
603.8793, 38.62008
604.3615, 38.74598
604.8436, 39.01696
605.3257, 39.43577
605.8078, 39.94461
606.2899, 40.31490
606.7720, 40.64465
607.2542, 41.38858
607.7363, 42.80452
608.2184, 44.62089
608.7005, 46.58125
609.1826, 48.68059
609.6647, 50.83039
610.1469, 52.64097
610.6290, 54.81142
611.1111, 57.78962
611.5932, 61.64970
612.0753, 65.79313
612.5574, 70.14405
613.0396, 74.77186
613.5217, 79.73170
614.0038, 85.28588
614.4859, 90.61746
614.9680, 95.66593
615.4501, 100.5735
615.9323, 105.3132
616.4144, 109.8124
616.8965, 115.1356
617.3786, 121.5431
617.8607, 128.6678
618.3428, 135.8643
618.8250, 143.2112
619.3071, 151.0423
619.7892, 159.4158
620.2713, 168.4155
620.7534, 178.0500
621.2355, 188.4111
621.7177, 199.5258
622.1998, 211.8509
622.6819, 224.5917
623.1640, 237.5396
623.6461, 250.7468
624.1282, 263.6332
624.6104, 276.3197
625.0925, 288.5466
625.5746, 300.3257
626.0567, 312.5193
626.5388, 322.2882
627.0209, 329.7926
627.5031, 334.3316
627.9852, 335.0566
628.4673, 331.9530
628.9494, 324.6931
629.4315, 312.8656
629.9136, 297.3846
630.3958, 278.8277
630.8779, 257.7875
631.3600, 236.2408
631.8421, 213.7648
632.3242, 192.2759
632.8063, 173.0552
633.2885, 156.1779
633.7706, 140.9575
634.2527, 127.2158
634.7348, 115.0653
635.2169, 104.5603
635.6990, 95.91238
636.1812, 88.10650
636.6633, 81.16045
637.1454, 75.00749
637.6275, 69.72257
638.1096, 65.31701
638.5917, 61.45042
639.0739, 58.13484
639.5560, 55.16970
640.0381, 52.20255
640.5202, 49.29506
641.0023, 46.81304
641.4844, 44.89838
641.9666, 43.27858
642.4487, 41.62097
642.9308, 39.98598
643.4129, 38.53099
643.8950, 37.43868
644.3771, 36.41027
644.8593, 35.30776
645.3414, 34.14783
645.8235, 32.97458
646.3056, 31.68497
646.7877, 30.52580
647.2698, 29.60825
647.7520, 28.93182
648.2341, 28.30136
648.7162, 27.73762
649.1983, 27.16628
649.6804, 26.51323
650.1625, 25.79372
650.6447, 25.16530
651.1268, 24.64517
651.6089, 24.15705
652.0910, 23.60696
652.5731, 23.04617
653.0552, 22.55746
653.5374, 22.16673
654.0195, 21.84758
654.5016, 21.65292
654.9837, 21.49363
655.4658, 21.23778
655.9479, 20.68815
656.4301, 20.22946
656.9122, 19.98080
657.3943, 19.87244
657.8764, 19.72496
658.3585, 19.53873
658.8406, 19.30612
659.3228, 19.00307
659.8049, 18.65084
660.2870, 18.38098
660.7691, 18.19535
661.2512, 18.03226
661.7333, 17.80647
662.2155, 17.59054
662.6976, 17.56431
663.1797, 17.72785
663.6618, 17.88686
664.1439, 17.93750
664.6260, 17.90504
665.1082, 17.79949
665.5903, 17.60216
666.0724, 17.40831
666.5545, 17.22871
667.0366, 17.07138
667.5187, 16.94652
668.0009, 16.89251
668.4830, 16.78546
668.9651, 16.59025
669.4472, 16.37487
669.9293, 16.25428
670.4114, 16.22956
670.8936, 16.20725
671.3757, 16.16767
671.8578, 16.10954
672.3399, 15.98482
672.8220, 15.82924
673.3041, 15.76645
673.7863, 15.98921
674.2684, 16.21533
674.7505, 15.60444
675.2326, 16.15024
675.7147, 16.43382
676.1968, 16.46928
676.6790, 15.51344
677.1611, 15.83765
677.6432, 15.64888
678.1253, 15.43907
678.6074, 15.94345
679.0895, 15.73385
679.5717, 15.65793
680.0538, 15.43979
680.5359, 15.37991
681.0180, 15.50323
681.5001, 15.63719
681.9822, 15.58660
682.4644, 15.42580
682.9465, 15.29610
683.4286, 15.21350
683.9107, 15.19832
684.3928, 15.34531
684.8749, 15.53562
685.3571, 15.62765
685.8392, 15.48228
686.3213, 15.36461
686.8034, 15.36952
687.2855, 15.40806
687.7676, 15.31917
688.2498, 15.00474
688.7319, 14.81575
689.2140, 14.85230
689.6961, 15.03267
690.1782, 15.14794
690.6603, 15.20035
691.1425, 15.23188
691.6246, 15.28154
692.1067, 15.30942
692.5888, 15.21719
693.0709, 15.03572
693.5530, 14.89880
694.0352, 14.89936
694.5173, 14.95322
694.9994, 15.02077
695.4815, 15.09915
695.9636, 15.16594
696.4457, 15.24824
696.9279, 15.28664
697.4100, 15.22618
697.8921, 15.03163
698.3742, 15.00087
698.8563, 15.18224
699.3384, 15.37850
699.8206, 15.41248
700.3027, 15.30818
700.7848, 15.15027
701.2669, 14.93312
701.7490, 14.77192
702.2311, 14.82173
702.7133, 14.98020
703.1954, 15.10539
703.6775, 15.14818
704.1596, 15.18215
704.6417, 15.23713
705.1238, 15.30006
705.6060, 15.35387
706.0881, 15.43098
706.5702, 15.44045
707.0523, 15.33815
707.5344, 15.18913
708.0165, 15.14132
708.4987, 15.20236
708.9808, 15.24515
709.4629, 15.22612
709.9450, 15.17465
710.4271, 15.10825
710.9092, 15.04885
711.3914, 15.07592
711.8735, 15.33576
712.3556, 15.60721
712.8377, 15.72071
713.3198, 15.70282
713.8019, 15.69528
714.2841, 15.77152
714.7662, 15.83024
715.2483, 15.82528
715.7304, 15.75951
716.2125, 15.72646
716.6946, 15.74851
717.1768, 15.74138
717.6589, 15.61667
718.1410, 15.40178
718.6231, 15.32333
719.1052, 15.38272
719.5873, 15.50125
720.0695, 15.65641
720.5516, 15.81480
721.0337, 15.94819
721.5158, 16.05654
721.9979, 16.09272
722.4800, 15.95942
722.9622, 15.79296
723.4443, 15.70772
723.9264, 15.77420
724.4085, 15.78533
724.8906, 15.69184
725.3727, 15.60110
725.8549, 15.64982
726.3370, 15.85344
726.8191, 15.95213
727.3012, 15.89592
727.7833, 15.79828
728.2654, 15.79416
728.7476, 15.86387
729.2297, 15.97319
729.7118, 16.15375
730.1939, 16.28348
730.6760, 16.23109
731.1581, 16.08529
731.6403, 15.98215
732.1224, 15.98673
732.6045, 15.99568
733.0866, 15.98212
733.5687, 15.96765
734.0508, 16.00741
734.5330, 16.12143
735.0151, 16.20719
735.4972, 16.23655
735.9793, 16.22412
736.4614, 16.18285
736.9435, 16.12210
737.4257, 16.08997
737.9078, 16.14814
738.3899, 16.21639
738.8720, 16.19283
739.3541, 16.11072
739.8362, 16.08793
740.3184, 16.24235
740.8005, 16.38805
741.2826, 16.44529
741.7647, 16.42457
742.2468, 16.40551
742.7289, 16.37742
743.2111, 16.37889
743.6932, 16.44759
744.1753, 16.56361
744.6574, 16.60550
745.1395, 16.57461
745.6216, 16.52834
746.1038, 16.48995
746.5859, 16.46853
747.0680, 16.48281
747.5501, 16.53209
748.0322, 16.58246
748.5143, 16.68025
748.9965, 16.72543
749.4786, 16.60259
749.9607, 16.22474
750.4428, 16.14145
750.9249, 16.50570
751.4070, 16.90293
751.8892, 17.00775
752.3713, 16.82734
752.8534, 16.79287
753.3355, 16.93267
753.8176, 17.05336
754.2997, 16.91634
754.7819, 16.66288
755.2640, 16.51099
755.7461, 16.50470
756.2282, 16.53973
756.7103, 16.60265
757.1924, 16.65873
757.6746, 16.67511
758.1567, 16.62134
758.6388, 16.57984
759.1209, 16.55206
759.6030, 16.53407
760.0851, 16.52666
760.5673, 16.53041
761.0494, 16.51082
761.5315, 16.45575
762.0136, 16.41143
762.4957, 16.44441
762.9778, 16.52540
763.4600, 16.60780
763.9421, 16.69824
764.4242, 16.73932
764.9063, 16.63552
765.3884, 16.49037
765.8705, 16.43131
766.3527, 16.51683
766.8348, 16.64042
767.3169, 16.84719
767.7990, 17.04685
768.2811, 17.07886
768.7632, 16.93342
769.2454, 16.82409
769.7275, 16.79704
770.2096, 16.81572
770.6917, 16.85044
771.1738, 16.88987
771.6559, 16.90892
772.1381, 16.88986
772.6202, 16.85990
773.1023, 16.80941
773.5844, 16.76272
774.0665, 16.76631
774.5486, 16.90695
775.0308, 16.97297
775.5129, 16.89698
775.9950, 16.75964
776.4771, 16.75434
776.9592, 16.88632
777.4413, 17.00315
777.9235, 17.06799
778.4056, 17.08426
778.8877, 17.05081
779.3698, 16.97286
779.8519, 16.86322
780.3340, 16.60350
780.8162, 16.44357
781.2983, 16.58402
781.7804, 16.91230
782.2625, 17.11983
782.7446, 17.11535
783.2267, 17.10480
783.7089, 17.12976
784.1910, 17.17410
784.6731, 17.19337
785.1552, 17.18778
785.6373, 17.16320
786.1194, 17.09385
786.6016, 17.03870
787.0837, 17.14202
787.5658, 17.33644
788.0479, 17.43396
788.5300, 17.24546
789.0121, 17.04318
789.4943, 16.90060
789.9764, 16.83758
790.4585, 16.92289
790.9406, 17.26294
791.4227, 17.54458
791.9048, 17.69087
792.3870, 17.71282
792.8691, 17.60291
793.3512, 17.37061
793.8333, 17.17360
794.3154, 17.06190
794.7975, 17.04471
795.2797, 17.20603
795.7618, 17.48473
796.2439, 17.67743
796.7260, 17.63585
797.2081, 17.56478
797.6902, 17.55395
798.1724, 17.57998
798.6545, 17.53110
799.1366, 17.35852
799.6187, 17.24257
800.1008, 17.24754
800.5829, 17.34685
801.0651, 17.51510
801.5472, 17.72860
802.0293, 17.83704
802.5114, 17.60781
802.9935, 17.35537
803.4756, 17.42666
803.9578, 17.72732
804.4399, 17.93835
804.9220, 17.86783
805.4041, 17.80260
805.8862, 17.84918
806.3683, 17.96843
806.8505, 17.98062
807.3326, 17.85676
807.8147, 17.76682
808.2968, 17.77356
808.7789, 17.85543
809.2610, 18.00238
809.7432, 18.19195
810.2253, 18.33234
810.7074, 18.34910
811.1895, 18.32589
811.6716, 18.30256
812.1537, 18.28187
812.6359, 18.26971
813.1180, 18.27009
813.6001, 18.27320
814.0822, 18.26566
814.5643, 18.26271
815.0464, 18.34108
815.5286, 18.50274
816.0107, 18.61749
816.4928, 18.59038
816.9749, 18.52964
817.4570, 18.63164
817.9391, 18.83956
818.4213, 18.99273
818.9034, 18.94578
819.3855, 18.90326
819.8676, 18.98737
820.3497, 19.14444
820.8318, 19.18243
821.3140, 19.03133
821.7961, 18.92149
822.2782, 18.90233
822.7603, 18.96586
823.2424, 19.10662
823.7245, 19.31870
824.2067, 19.56405
824.6888, 19.88720
825.1709, 20.16554
825.6530, 20.25420
826.1351, 20.21812
826.6172, 20.19975
827.0994, 20.23743
827.5815, 20.30638
828.0636, 20.44808
828.5457, 20.59713
829.0278, 20.57466
829.5099, 20.33346
829.9921, 20.25570
830.4742, 20.47538
830.9563, 20.82156
831.4384, 21.04192
831.9205, 21.16908
832.4026, 21.28806
832.8848, 21.43274
833.3669, 21.57436
833.8490, 21.71522
834.3311, 21.83892
834.8132, 21.91348
835.2953, 21.91474
835.7775, 21.90538
836.2596, 21.86098
836.7417, 21.84804
837.2238, 22.01884
837.7059, 22.34924
838.1880, 22.58640
838.6702, 22.65219
839.1523, 22.68242
839.6344, 22.79607
840.1165, 22.96960
840.5986, 23.17191
841.0807, 23.43525
841.5629, 23.65894
842.0450, 23.78990
842.5271, 23.89348
843.0092, 24.05105
843.4913, 24.29216
843.9734, 24.40828
844.4556, 24.36390
844.9377, 24.25694
845.4198, 24.18255
845.9019, 24.13675
846.3840, 24.10237
846.8661, 24.06799
847.3483, 24.08638
847.8304, 24.23567
848.3125, 24.42222
848.7946, 24.56744
849.2767, 24.67915
849.7589, 24.70507
850.2410, 24.62589
850.7231, 24.49720
851.2052, 24.35390
851.6873, 24.20066
852.1694, 24.02716
852.6516, 23.82678
853.1337, 23.74655
853.6158, 24.04867
854.0979, 24.43794
854.5800, 24.60968
855.0621, 24.50067
855.5443, 24.41807
856.0264, 24.47669
856.5085, 24.51921
856.9906, 24.45057
857.4727, 24.27109
857.9548, 24.19008
858.4370, 24.21397
858.9191, 24.26868
859.4012, 24.32620
859.8833, 24.37053
860.3654, 24.36506
860.8475, 24.31522
861.3297, 24.27023
861.8118, 24.26189
862.2939, 24.25487
862.7760, 24.20856
863.2581, 24.13634
863.7402, 24.17219
864.2224, 24.36770
864.7045, 24.48831
865.1866, 24.39424
865.6687, 24.18658
866.1508, 24.12183
866.6329, 24.17876
867.1151, 24.26854
867.5972, 24.37013
868.0793, 24.46528
868.5614, 24.55723
869.0435, 24.63519
869.5256, 24.65920
870.0078, 24.59650
870.4899, 24.53385
870.9720, 24.46782
871.4541, 24.42921
871.9362, 24.54886
872.4183, 24.79198
872.9005, 24.85691
873.3826, 24.56183
873.8647, 24.24556
874.3468, 24.19103
874.8289, 24.34484
875.3110, 24.62912
875.7932, 25.31917
876.2753, 25.71385
876.7574, 25.60874
877.2395, 25.33508
877.7216, 25.30895
878.2037, 25.55054
878.6859, 25.65467
879.1680, 25.54351
879.6501, 25.44714
880.1322, 25.74220
880.6143, 26.16280
881.0964, 26.26411
881.5786, 25.86942
882.0607, 25.60928
882.5428, 25.83665
883.0249, 26.17680
883.5070, 26.37333
883.9891, 26.40665
884.4713, 26.40610
884.9534, 26.35811
885.4355, 26.34446
885.9176, 26.48803
886.3997, 26.69391
886.8818, 26.70341
887.3640, 26.53219
887.8461, 26.49201
888.3282, 26.97856
888.8103, 27.43917
889.2924, 27.48736
889.7745, 27.15467
890.2567, 27.03649
890.7388, 27.18955
891.2209, 27.39147
891.7030, 27.56247
892.1851, 27.71167
892.6672, 27.88215
893.1494, 28.06134
893.6315, 28.19108
894.1136, 28.18363
894.5957, 28.17944
895.0778, 28.22309
895.5599, 28.33348
896.0421, 28.57071
896.5242, 29.05921
897.0063, 29.41033
897.4884, 29.53330
897.9705, 29.52744
898.4526, 29.53362
898.9348, 29.56069
899.4169, 29.65855
899.8990, 29.86102
900.3811, 30.07431
900.8632, 30.19508
901.3453, 30.29999
901.8275, 30.48258
902.3096, 30.81114
902.7917, 31.11658
903.2738, 31.37078
903.7559, 31.64491
904.2380, 32.04716
904.7202, 32.55441
905.2023, 32.87492
905.6844, 32.98337
906.1665, 33.11695
906.6486, 33.56836
907.1307, 34.06078
907.6129, 34.29203
908.0950, 34.21311
908.5771, 34.28854
909.0592, 34.65293
909.5413, 35.07894
910.0234, 35.47028
910.5056, 35.84496
910.9877, 36.33651
911.4698, 36.93866
911.9519, 37.52892
912.4340, 37.98881
912.9161, 38.44601
913.3983, 38.99639
913.8804, 39.63913
914.3625, 40.36647
914.8446, 41.23594
915.3267, 42.11969
915.8088, 43.01360
916.2910, 43.89401
916.7731, 44.67241
917.2552, 45.35717
917.7373, 46.17064
918.2194, 47.17400
918.7015, 48.30384
919.1837, 49.59876
919.6658, 50.93467
920.1479, 52.13483
920.6300, 53.10603
921.1121, 54.05705
921.5942, 54.94688
922.0764, 55.92484
922.5585, 57.13216
923.0406, 58.57623
923.5227, 60.02319
924.0048, 61.45652
924.4869, 62.96831
924.9691, 64.54899
925.4512, 66.32397
925.9333, 68.45344
926.4154, 70.94183
926.8975, 73.53854
927.3796, 76.11781
927.8618, 78.85104
928.3439, 81.68618
928.8260, 84.73866
929.3081, 88.71005
929.7902, 93.60341
930.2723, 98.89451
930.7545, 103.9468
931.2366, 109.6992
931.7187, 116.9887
932.2008, 125.7669
932.6829, 135.8948
933.1650, 146.6779
933.6472, 159.8700
934.1293, 174.7529
934.6114, 192.6443
935.0935, 214.7542
935.5756, 241.2698
936.0577, 273.1682
936.5399, 310.3057
937.0220, 351.9443
937.5041, 398.7797
937.9862, 448.3667
938.4683, 497.5229
938.9504, 545.6633
939.4326, 593.1984
939.9147, 638.7119
940.3968, 684.1818
940.8789, 730.1879
941.3610, 776.8766
941.8431, 827.4603
942.3253, 882.4091
942.8074, 943.7650
943.2895, 1009.278
943.7716, 1083.666
944.2537, 1170.088
944.7358, 1269.214
945.2180, 1384.124
945.7001, 1518.592
946.1822, 1665.535
946.6643, 1828.008
947.1464, 2001.181
947.6285, 2178.218
948.1107, 2357.946
948.5928, 2531.206
949.0749, 2704.867
949.5570, 2841.210
950.0391, 2926.929
950.5212, 2946.573
951.0034, 2878.572
951.4855, 2690.680
951.9676, 2470.687
952.4497, 2205.993
952.9318, 1935.026
953.4139, 1680.375
953.8961, 1443.814
954.3782, 1235.705
954.8603, 1057.578
955.3424, 903.1309
955.8245, 773.3902
956.3066, 662.0048
956.7888, 566.3024
957.2709, 485.7942
957.7530, 417.5215
958.2351, 361.6665
958.7172, 315.1842
959.1993, 277.8332
959.6815, 247.7663
960.1636, 222.4076
960.6457, 201.3431
961.1278, 183.7945
961.6099, 170.1450
962.0920, 158.5348
962.5742, 148.3144
963.0563, 139.3378
963.5384, 131.6103
964.0205, 125.2937
964.5026, 119.4598
964.9847, 114.1496
965.4669, 109.3384
965.9490, 105.0498
966.4311, 101.2774
966.9132, 97.82091
967.3953, 94.70114
967.8774, 91.94100
968.3596, 89.70251
968.8417, 87.72624
969.3238, 85.93049
969.8059, 84.30136
970.2880, 82.86256
970.7701, 81.63033
971.2523, 80.33242
971.7344, 78.78178
972.2165, 77.25576
972.6986, 76.12987
973.1807, 75.30207
973.6628, 74.57807
974.1450, 73.77859
974.6271, 73.26276
975.1092, 73.31710
975.5913, 73.46690
976.0734, 73.22541
976.5555, 72.58213
977.0377, 72.12525
977.5198, 71.88467
978.0019, 71.92885
978.4840, 72.45186
978.9661, 73.19561
979.4482, 73.86101
979.9304, 74.44872
980.4125, 75.30612
980.8946, 76.48000
981.3767, 77.95722
981.8588, 79.81462
982.3409, 81.92870
982.8231, 83.82064
983.3052, 85.60479
983.7873, 87.90624
984.2694, 91.08273
984.7515, 94.57540
985.2336, 97.92441
985.7158, 101.3874
986.1979, 105.3398
986.6800, 110.0176
987.1621, 114.6359
987.6442, 119.1469
988.1263, 123.7450
988.6085, 128.4949
989.0906, 133.4669
989.5727, 138.6988
990.0548, 144.2132
990.5369, 149.9970
991.0190, 155.9986
991.5012, 162.3141
991.9833, 168.8787
992.4654, 175.7663
992.9475, 183.6775
993.4296, 192.6313
993.9117, 201.7872
994.3939, 210.8026
994.8760, 220.0998
995.3581, 230.8242
995.8402, 241.9797
996.3223, 252.4228
996.8044, 262.3986
997.2866, 270.4148
997.7687, 276.9113
998.2508, 280.9235
998.7329, 281.7196
999.2150, 279.3154
999.6971, 273.7201
1000.179, 265.0748
1000.661, 254.6824
1001.143, 242.8256
1001.626, 230.1461
1002.108, 216.6448
1002.590, 202.6304
1003.072, 188.7496
1003.554, 175.0432
1004.036, 161.9886
1004.518, 149.6866
1005.000, 138.3324
1005.483, 128.6019
1005.965, 120.2202
1006.447, 112.7575
1006.929, 106.1686
1007.411, 100.2478
1007.893, 94.69263
1008.375, 89.91094
1008.857, 86.19805
1009.339, 83.58613
1009.822, 81.12834
1010.304, 78.81210
1010.786, 76.85988
1011.268, 75.54527
1011.750, 74.63660
1012.232, 73.82504
1012.714, 73.17168
1013.196, 72.84243
1013.679, 73.30647
1014.161, 73.54613
1014.643, 73.46017
1015.125, 73.04006
1015.607, 72.26574
1016.089, 71.14764
1016.571, 69.71494
1017.053, 67.97934
1017.535, 65.91142
1018.018, 63.20623
1018.500, 60.38021
1018.982, 57.83717
1019.464, 55.60804
1019.946, 53.28972
1020.428, 50.84507
1020.910, 48.43122
1021.392, 46.01805
1021.875, 43.77523
1022.357, 42.18012
1022.839, 41.02797
1023.321, 39.85252
1023.803, 38.24813
1024.285, 36.94637
1024.767, 36.29184
1025.249, 35.86720
1025.731, 35.30462
1026.214, 34.60021
1026.696, 33.91712
1027.178, 33.25829
1027.660, 32.69979
1028.142, 32.33684
1028.624, 32.06304
1029.106, 31.76991
1029.588, 31.47087
1030.071, 31.30482
1030.553, 31.36461
1031.035, 31.34043
1031.517, 31.13573
1031.999, 30.84677
1032.481, 30.60471
1032.963, 30.41898
1033.445, 30.32072
1033.927, 30.33607
1034.410, 30.36475
1034.892, 30.36225
1035.374, 30.35818
1035.856, 30.39153
1036.338, 30.46578
1036.820, 30.38243
1037.302, 30.13903
1037.784, 29.93732
1038.266, 29.89593
1038.749, 29.96101
1039.231, 30.14048
1039.713, 30.38022
1040.195, 30.54542
1040.677, 30.57972
1041.159, 30.58131
1041.641, 30.51830
1042.123, 30.50509
1042.605, 30.71999
1043.088, 31.09387
1043.570, 31.40677
1044.052, 31.63584
1044.534, 31.93319
1045.016, 32.47364
1045.498, 33.00830
1045.980, 33.37346
1046.462, 33.62166
1046.945, 33.99686
1047.427, 34.50507
1047.909, 35.05009
1048.391, 35.55910
1048.873, 36.17418
1049.355, 37.08404
1049.837, 38.18487
1050.319, 39.33343
1050.802, 40.44381
1051.284, 41.76879
1051.766, 43.30873
1052.248, 45.02519
1052.730, 46.67236
1053.212, 48.49057
1053.694, 51.27964
1054.176, 54.95421
1054.658, 59.10679
1055.141, 63.63660
1055.623, 68.49805
1056.105, 73.55827
1056.587, 79.05263
1057.069, 85.55710
1057.551, 93.10731
1058.033, 100.3283
1058.515, 107.0420
1058.998, 113.7110
1059.480, 120.6946
1059.962, 127.9772
1060.444, 135.4336
1060.926, 143.0262
1061.408, 151.4924
1061.890, 160.6172
1062.372, 171.1736
1062.854, 183.2398
1063.337, 197.0100
1063.819, 212.4649
1064.301, 229.7288
1064.783, 249.0928
1065.265, 271.2678
1065.747, 294.1346
1066.229, 318.6276
1066.711, 342.3931
1067.193, 365.3714
1067.676, 387.0805
1068.158, 402.6100
1068.640, 411.7307
1069.122, 410.8617
1069.604, 395.0477
1070.086, 371.3517
1070.568, 341.2551
1071.050, 306.9383
1071.532, 273.1872
1072.015, 238.8159
1072.497, 208.6841
1072.979, 182.9881
1073.461, 161.5750
1073.943, 144.7300
1074.425, 131.7222
1074.907, 121.8360
1075.389, 114.9993
1075.872, 109.5331
1076.354, 105.2377
1076.836, 102.1010
1077.318, 100.2657
1077.800, 99.51616
1078.282, 99.52902
1078.764, 100.1822
1079.246, 101.0853
1079.729, 102.2576
1080.211, 103.2475
1080.693, 104.2561
1081.175, 104.5782
1081.657, 103.8695
1082.139, 102.1368
1082.621, 98.80270
1083.103, 93.82290
1083.585, 88.27251
1084.068, 82.36140
1084.550, 76.51090
1085.032, 71.14631
1085.514, 66.16317
1085.996, 61.53001
1086.478, 57.14658
1086.960, 53.24622
1087.442, 49.82390
1087.925, 46.92369
1088.407, 44.65307
1088.889, 42.91057
1089.371, 41.60962
1089.853, 40.67359
1090.335, 39.68253
1090.817, 38.37056
1091.299, 37.12012
1091.781, 35.97064
1092.264, 34.97721
1092.746, 34.35030
1093.228, 33.99943
1093.710, 33.46913
1094.192, 32.65774
1094.674, 31.89960
1095.156, 31.38381
1095.638, 31.02146
1096.120, 30.78314
1096.603, 30.64945
1097.085, 30.57067
1097.567, 30.55597
1098.049, 30.32456
1098.531, 29.68141
1099.013, 28.97431
1099.495, 28.49317
1099.977, 28.19770
1100.459, 28.05690
1100.942, 28.16220
1101.424, 28.10499
1101.906, 27.83545
1102.388, 27.56491
1102.870, 27.43150
1103.352, 27.38722
1103.834, 27.38959
1104.316, 27.40199
1104.799, 27.32126
1105.281, 26.97840
1105.763, 26.72715
1106.245, 26.62035
1106.727, 26.60575
1107.209, 26.67943
1107.691, 26.80103
1108.173, 26.79074
1108.656, 26.64257
1109.138, 26.43389
1109.620, 26.04320
1110.102, 25.78595
1110.584, 25.92680
1111.066, 26.24567
1111.548, 26.25124
1112.030, 25.95026
1112.512, 25.71398
1112.995, 25.61095
1113.477, 25.55390
1113.959, 25.44302
1114.441, 25.36195
1114.923, 25.41735
1115.405, 25.60423
1115.887, 25.68431
1116.369, 25.63980
1116.852, 25.60311
1117.334, 25.65886
1117.816, 25.66537
1118.298, 25.22386
1118.780, 24.69862
1119.262, 24.67495
1119.744, 25.54985
1120.226, 26.07505
1120.708, 26.12732
1121.191, 26.03227
1121.673, 25.97375
1122.155, 25.90852
1122.637, 25.65277
1123.119, 25.30073
1123.601, 25.11255
1124.083, 25.35752
1124.565, 25.54594
1125.047, 25.63301
1125.530, 25.60263
1126.012, 25.33268
1126.494, 24.91057
1126.976, 24.90034
1127.458, 25.26689
1127.940, 25.56751
1128.422, 25.46876
1128.904, 25.34067
1129.386, 25.38102
1129.869, 25.47240
1130.351, 25.40931
1130.833, 25.19541
1131.315, 25.06813
1131.797, 25.05976
1132.279, 25.04072
1132.761, 24.78327
1133.243, 24.58636
1133.726, 24.79869
1134.208, 25.29378
1134.690, 25.39425
1135.172, 25.03596
1135.654, 24.76255
1136.136, 24.70719
1136.618, 24.74862
1137.100, 24.85075
1137.583, 24.91493
1138.065, 24.80804
1138.547, 24.48512
1139.029, 24.21516
1139.511, 24.00153
1139.993, 23.83264
1140.475, 23.69252
1140.957, 23.61212
1141.439, 23.68631
1141.922, 23.83981
1142.404, 23.94682
1142.886, 23.97199
1143.368, 23.95451
1143.850, 23.90026
1144.332, 23.80359
1144.814, 23.62501
1145.296, 23.42152
1145.779, 23.37348
1146.261, 23.42730
1146.743, 23.42489
1147.225, 23.22519
1147.707, 23.07461
1148.189, 23.02062
1148.671, 23.00632
1149.153, 22.99421
1149.635, 22.97958
1150.118, 22.92354
1150.600, 22.83440
1151.082, 22.77340
1151.564, 22.85666
1152.046, 22.86583
1152.528, 22.62533
1153.010, 22.34778
1153.492, 22.37542
1153.974, 22.66951
1154.457, 22.75468
1154.939, 22.59162
1155.421, 22.45020
1155.903, 22.53131
1156.385, 22.66912
1156.867, 22.79922
1157.349, 22.90462
1157.831, 22.92518
1158.313, 22.85864
1158.796, 22.88232
1159.278, 23.04157
1159.760, 23.15993
1160.242, 22.99562
1160.724, 22.80401
1161.206, 22.81891
1161.688, 23.01553
1162.170, 23.13900
1162.653, 23.17885
1163.135, 23.27316
1163.617, 23.48049
1164.099, 23.68818
1164.581, 23.75229
1165.063, 23.77314
1165.545, 23.87849
1166.027, 24.09411
1166.510, 24.17406
1166.992, 24.08302
1167.474, 24.06258
1167.956, 24.24881
1168.438, 24.48358
1168.920, 24.56331
1169.402, 24.55901
1169.884, 24.56433
1170.366, 24.57543
1170.849, 24.68741
1171.331, 24.93246
1171.813, 25.16627
1172.295, 25.28485
1172.777, 25.36825
1173.259, 25.58825
1173.741, 25.86512
1174.223, 26.03574
1174.706, 26.00493
1175.188, 25.93338
1175.670, 25.77641
1176.152, 25.70118
1176.634, 25.88790
1177.116, 26.21567
1177.598, 26.49765
1178.080, 26.71911
1178.563, 26.84705
1179.045, 26.87915
1179.527, 26.77214
1180.009, 26.44491
1180.491, 26.14344
1180.973, 26.13531
1181.455, 26.31627
1181.937, 26.52215
1182.419, 26.70980
1182.901, 26.72166
1183.384, 26.26759
1183.866, 25.95982
1184.348, 25.93136
1184.830, 26.01814
1185.312, 26.07477
1185.794, 26.07049
1186.276, 25.86670
1186.758, 25.47731
1187.240, 25.17175
1187.723, 25.13075
1188.205, 25.11181
1188.687, 25.06955
1189.169, 25.00000
1189.651, 24.90721
1190.133, 24.78042
1190.615, 24.54627
1191.097, 24.19422
1191.580, 23.95983
1192.062, 24.11390
1192.544, 24.19118
1193.026, 24.01293
1193.508, 23.69656
1193.990, 23.48026
1194.472, 23.34610
1194.954, 23.23609
1195.437, 23.13881
1195.919, 23.06482
1196.401, 23.07671
1196.883, 23.03796
1197.365, 22.85304
1197.847, 22.60804
1198.329, 22.58598
1198.811, 22.72887
1199.293, 22.80221
1199.776, 22.72896
1200.258, 22.67271
1200.740, 22.77967
1201.222, 22.84098
1201.704, 22.72534
1202.186, 22.49322
1202.668, 22.36130
1203.150, 22.32878
1203.633, 22.41516
1204.115, 22.69485
1204.597, 22.89494
1205.079, 22.81542
1205.561, 22.68688
1206.043, 22.63459
1206.525, 22.64670
1207.007, 22.67432
1207.490, 22.71547
1207.972, 22.76558
1208.454, 22.84329
1208.936, 22.88712
1209.418, 22.88128
1209.900, 22.81532
1210.382, 22.64506
1210.864, 22.40028
1211.346, 22.31364
1211.828, 22.35862
1212.311, 22.41175
1212.793, 22.44546
1213.275, 22.43454
1213.757, 22.30383
1214.239, 22.18966
1214.721, 22.20016
1215.203, 22.32200
1215.685, 22.47460
1216.167, 22.64996
1216.650, 22.80853
1217.132, 22.96161
1217.614, 23.05157
1218.096, 23.01638
1218.578, 22.95835
1219.060, 22.97609
1219.542, 23.05414
1220.024, 23.09549
1220.507, 23.09824
1220.989, 23.06290
1221.471, 22.96916
1221.953, 22.85833
1222.435, 22.68207
1222.917, 22.56299
1223.399, 22.68422
1223.881, 22.98197
1224.364, 23.13417
1224.846, 23.14681
1225.328, 23.12262
1225.810, 23.03208
1226.292, 23.02590
1226.774, 23.18069
1227.256, 23.36945
1227.738, 23.44915
1228.220, 23.43625
1228.703, 23.37437
1229.185, 23.27398
1229.667, 23.18519
1230.149, 23.09082
1230.631, 23.07398
1231.113, 23.17566
1231.595, 23.31796
1232.077, 23.39316
1232.560, 23.43032
1233.042, 23.52828
1233.524, 23.68117
1234.006, 23.78761
1234.488, 23.77684
1234.970, 23.74689
1235.452, 23.70381
1235.934, 23.67317
1236.417, 23.69541
1236.899, 23.75478
1237.381, 23.82141
1237.863, 23.89147
1238.345, 23.96000
1238.827, 24.06002
1239.309, 24.08575
1239.791, 23.97113
1240.273, 23.88240
1240.755, 24.13373
1241.238, 24.53134
1241.720, 24.66549
1242.202, 24.53113
1242.684, 24.54201
1243.166, 24.90853
1243.648, 25.13806
1244.130, 25.10109
1244.612, 25.00177
1245.094, 25.15140
1245.577, 25.39145
1246.059, 25.44195
1246.541, 25.30020
1247.023, 25.31710
1247.505, 25.60603
1247.987, 25.79646
1248.469, 25.79118
1248.951, 25.73354
1249.434, 25.80133
1249.916, 25.91849
1250.398, 25.98848
1250.880, 26.00839
1251.362, 26.07448
1251.844, 26.19595
1252.326, 26.32586
1252.808, 26.44444
1253.291, 26.61010
1253.773, 27.02948
1254.255, 27.42156
1254.737, 27.44722
1255.219, 27.12969
1255.701, 26.94605
1256.183, 26.90236
1256.665, 26.94718
1257.147, 27.07562
1257.630, 27.25067
1258.112, 27.48549
1258.594, 27.71262
1259.076, 27.89627
1259.558, 28.02256
1260.040, 27.97305
1260.522, 27.75187
1261.004, 27.70580
1261.487, 27.93845
1261.969, 28.16328
1262.451, 28.09923
1262.933, 28.01603
1263.415, 28.10998
1263.897, 28.32181
1264.379, 28.47995
1264.861, 28.57813
1265.344, 28.53533
1265.826, 28.31443
1266.308, 28.11773
1266.790, 28.00722
1267.272, 28.03251
1267.754, 28.27365
1268.236, 28.60267
1268.718, 28.63162
1269.200, 28.45680
1269.682, 28.45214
1270.165, 28.71173
1270.647, 28.91228
1271.129, 28.94143
1271.611, 28.83199
1272.093, 28.51913
1272.575, 28.17354
1273.057, 28.17718
1273.539, 28.40023
1274.021, 28.57441
1274.504, 28.65841
1274.986, 28.63443
1275.468, 28.41829
1275.950, 28.29386
1276.432, 28.38701
1276.914, 28.51992
1277.396, 28.33330
1277.878, 28.04341
1278.361, 28.01534
1278.843, 28.31267
1279.325, 28.46892
1279.807, 28.40973
1280.289, 28.40920
1280.771, 28.56434
1281.253, 28.73689
1281.735, 28.74335
1282.218, 28.69041
1282.700, 28.72039
1283.182, 28.82887
1283.664, 28.78452
1284.146, 28.56828
1284.628, 28.41920
1285.110, 28.40125
1285.592, 28.43300
1286.074, 28.41987
1286.557, 28.44648
1287.039, 28.66169
1287.521, 28.96591
1288.003, 28.92154
1288.485, 28.56723
1288.967, 28.38597
1289.449, 28.50280
1289.931, 28.62597
1290.414, 28.57769
1290.896, 28.47831
1291.378, 28.34495
1291.860, 28.24311
1292.342, 28.41854
1292.824, 28.76647
1293.306, 28.90071
1293.788, 28.74141
1294.271, 28.59634
1294.753, 28.60077
1295.235, 28.62665
1295.717, 28.65793
1296.199, 28.66504
1296.681, 28.56846
1297.163, 28.42267
1297.645, 28.32938
1298.127, 28.30167
1298.609, 28.27318
1299.092, 28.23012
1299.574, 28.19366
1300.056, 28.17004
1300.538, 28.15198
1301.020, 28.11283
1301.502, 28.08745
1301.984, 28.13568
1302.466, 28.24927
1302.948, 28.32164
1303.431, 28.35980
1303.913, 28.30436
1304.395, 28.14855
##END=



