##NAMES=Triplite
##RRUFFID=R050186
##IDEAL CHEMISTRY=Mn^2+^_2_(PO_4_)F
##LOCALITY=Wuzhou, Guangxi Autonomous Region, China
##OWNER=RRUFF
##SOURCE=John Lucking
##DESCRIPTION=Orangish red fragments
##STATUS=The identification of this mineral has been confirmed by X-ray diffraction and chemical analysis
##URL=rruff.info/R050186
##MEASURED CHEMISTRY=(Mn^2+^_1.60_Fe^2+^_0.21_Mg_0.15_Ca_0.04_)_Σ=2_(P_1.00_O_4_)(F_0.80_(OH)_0.20_)_Σ=1_
125.0042, 157.6878
125.4863, 156.1600
125.9684, 157.5130
126.4506, 160.0915
126.9327, 167.6463
127.4148, 185.3082
127.8969, 208.5671
128.3790, 229.1174
128.8611, 240.1720
129.3432, 241.5665
129.8254, 249.4124
130.3075, 272.8637
130.7896, 293.2599
131.2717, 301.3139
131.7538, 299.9560
132.2359, 298.8828
132.7181, 306.7360
133.2002, 325.1673
133.6823, 338.2006
134.1644, 341.8167
134.6465, 344.5996
135.1286, 351.1573
135.6108, 361.4136
136.0929, 372.3215
136.5750, 380.4910
137.0571, 384.6924
137.5392, 393.6529
138.0213, 411.7939
138.5035, 431.1752
138.9856, 446.6979
139.4677, 457.5727
139.9498, 465.2351
140.4319, 469.9624
140.9140, 469.8984
141.3962, 476.8913
141.8783, 496.6144
142.3604, 520.5618
142.8425, 540.3864
143.3246, 554.4053
143.8067, 567.7325
144.2889, 587.2863
144.7710, 614.1231
145.2531, 639.3659
145.7352, 658.9484
146.2173, 668.3972
146.6994, 670.4366
147.1816, 673.3593
147.6637, 675.6654
148.1458, 674.3401
148.6279, 669.2949
149.1100, 666.8777
149.5921, 673.7903
150.0743, 683.1550
150.5564, 681.0677
151.0385, 661.4324
151.5206, 638.0117
152.0027, 629.9329
152.4848, 636.8693
152.9670, 641.8616
153.4491, 635.3126
153.9312, 621.9084
154.4133, 613.0704
154.8954, 612.0709
155.3775, 615.3133
155.8597, 620.0386
156.3418, 626.6967
156.8239, 628.7430
157.3060, 618.5283
157.7881, 600.0551
158.2702, 588.0443
158.7524, 587.3275
159.2345, 592.9449
159.7166, 600.2032
160.1987, 609.4705
160.6808, 615.9851
161.1629, 615.1065
161.6451, 608.2466
162.1272, 603.2250
162.6093, 601.4630
163.0914, 602.9167
163.5735, 608.6052
164.0556, 618.9542
164.5378, 627.0757
165.0199, 625.3548
165.5020, 614.9667
165.9841, 609.9495
166.4662, 617.5690
166.9483, 628.1005
167.4305, 633.0803
167.9126, 631.8510
168.3947, 629.4454
168.8768, 629.6081
169.3589, 632.3063
169.8410, 636.2729
170.3232, 641.0272
170.8053, 647.2648
171.2874, 656.8778
171.7695, 670.1509
172.2516, 681.7665
172.7337, 685.6425
173.2159, 681.2712
173.6980, 677.5644
174.1801, 674.8636
174.6622, 674.6605
175.1443, 679.2413
175.6264, 688.9059
176.1086, 698.9005
176.5907, 704.9135
177.0728, 706.8028
177.5549, 705.7996
178.0370, 700.2807
178.5191, 692.9254
179.0013, 684.7493
179.4834, 675.9376
179.9655, 667.4235
180.4476, 660.1896
180.9297, 654.3226
181.4118, 649.1182
181.8940, 644.1274
182.3761, 640.0423
182.8582, 638.5919
183.3403, 639.8339
183.8224, 639.8688
184.3046, 633.4757
184.7867, 619.4457
185.2688, 606.6534
185.7509, 596.8248
186.2330, 588.5602
186.7151, 582.1232
187.1973, 577.3020
187.6794, 571.7924
188.1615, 562.9299
188.6436, 550.4620
189.1257, 536.4216
189.6078, 515.7496
190.0900, 497.4524
190.5721, 487.5045
191.0542, 486.4019
191.5363, 488.3366
192.0184, 487.9432
192.5005, 485.4735
192.9827, 479.3449
193.4648, 465.5120
193.9469, 450.5933
194.4290, 436.9177
194.9111, 425.1213
195.3932, 415.9369
195.8754, 410.7662
196.3575, 410.2481
196.8396, 409.8165
197.3217, 410.8008
197.8038, 410.4583
198.2859, 406.6180
198.7681, 399.4624
199.2502, 391.7212
199.7323, 385.9624
200.2144, 382.3443
200.6965, 379.7168
201.1786, 379.7749
201.6608, 379.4896
202.1429, 377.2349
202.6250, 373.0959
203.1071, 368.4918
203.5892, 364.2740
204.0713, 360.2288
204.5535, 358.3392
205.0356, 361.9282
205.5177, 365.0601
205.9998, 364.5244
206.4819, 360.8000
206.9640, 356.8631
207.4462, 355.3650
207.9283, 356.4416
208.4104, 357.9680
208.8925, 360.2657
209.3746, 362.7540
209.8567, 365.5320
210.3388, 368.3596
210.8210, 370.5708
211.3031, 371.0920
211.7852, 369.9428
212.2673, 370.4895
212.7494, 374.8636
213.2315, 378.7462
213.7137, 379.4524
214.1958, 378.1053
214.6779, 377.7213
215.1600, 380.9907
215.6421, 387.5096
216.1242, 392.9295
216.6064, 397.6749
217.0885, 400.5385
217.5706, 400.3946
218.0527, 398.2099
218.5348, 396.0713
219.0169, 396.0276
219.4991, 397.1684
219.9812, 393.9297
220.4633, 380.9163
220.9454, 371.5534
221.4275, 373.6448
221.9096, 381.9982
222.3918, 387.8820
222.8739, 386.3297
223.3560, 379.0894
223.8381, 371.5546
224.3202, 362.2383
224.8023, 355.4554
225.2845, 355.4997
225.7666, 357.9355
226.2487, 356.1286
226.7308, 345.2920
227.2129, 330.7282
227.6950, 325.3478
228.1772, 333.8989
228.6593, 340.2296
229.1414, 336.5682
229.6235, 328.5211
230.1056, 321.8546
230.5877, 318.7025
231.0699, 317.5557
231.5520, 316.4792
232.0341, 315.9327
232.5162, 313.7773
232.9983, 306.8310
233.4804, 299.1047
233.9626, 293.8466
234.4447, 291.8946
234.9268, 292.6570
235.4089, 296.5209
235.8910, 304.1281
236.3731, 309.9281
236.8553, 311.5495
237.3374, 311.0330
237.8195, 309.5354
238.3016, 307.0871
238.7837, 304.8830
239.2658, 304.4987
239.7480, 305.9034
240.2301, 306.3203
240.7122, 304.1161
241.1943, 301.5446
241.6764, 300.8847
242.1585, 302.2926
242.6407, 303.5104
243.1228, 302.7468
243.6049, 300.2966
244.0870, 297.7934
244.5691, 295.0815
245.0512, 293.0445
245.5334, 292.0867
246.0155, 292.2136
246.4976, 293.8614
246.9797, 299.1534
247.4618, 306.1580
247.9439, 309.1498
248.4261, 305.9435
248.9082, 301.7456
249.3903, 301.2473
249.8724, 303.7043
250.3545, 306.4601
250.8366, 308.9382
251.3188, 311.0118
251.8009, 312.4407
252.2830, 313.1533
252.7651, 313.4709
253.2472, 314.0156
253.7293, 314.4273
254.2115, 313.3201
254.6936, 308.1346
255.1757, 302.6884
255.6578, 301.8586
256.1399, 305.7686
256.6220, 309.2034
257.1042, 308.7242
257.5863, 304.9677
258.0684, 301.3621
258.5505, 298.6848
259.0326, 295.6163
259.5147, 290.6447
259.9969, 284.2243
260.4790, 278.6487
260.9611, 274.9417
261.4432, 273.0057
261.9253, 272.2457
262.4074, 273.5117
262.8896, 274.6164
263.3717, 274.6544
263.8538, 273.9115
264.3359, 272.9114
264.8180, 271.7646
265.3001, 270.7114
265.7823, 270.3406
266.2644, 270.7006
266.7465, 271.4764
267.2286, 271.7235
267.7107, 272.6691
268.1928, 276.6313
268.6750, 284.2842
269.1571, 292.9105
269.6392, 298.5500
270.1213, 300.2617
270.6034, 300.5244
271.0855, 297.9370
271.5677, 294.7928
272.0498, 293.0212
272.5319, 292.8373
273.0140, 293.0617
273.4961, 292.2512
273.9782, 289.7480
274.4604, 289.9672
274.9425, 295.3796
275.4246, 300.8360
275.9067, 303.8980
276.3888, 304.6644
276.8709, 304.2494
277.3531, 303.4456
277.8352, 302.2576
278.3173, 300.7578
278.7994, 300.1193
279.2815, 297.9177
279.7636, 291.5754
280.2458, 283.5623
280.7279, 278.3040
281.2100, 278.5293
281.6921, 282.2213
282.1742, 281.7687
282.6563, 274.3857
283.1385, 266.4212
283.6206, 255.9918
284.1027, 246.7031
284.5848, 243.2988
285.0669, 247.3546
285.5490, 254.1776
286.0312, 254.8618
286.5133, 246.0703
286.9954, 239.9300
287.4775, 239.0402
287.9596, 240.0090
288.4417, 240.8548
288.9239, 241.2685
289.4060, 242.1249
289.8881, 245.6931
290.3702, 252.5749
290.8523, 254.1247
291.3344, 244.0219
291.8166, 234.0620
292.2987, 230.7778
292.7808, 233.0046
293.2629, 235.7789
293.7450, 235.4143
294.2271, 232.7797
294.7093, 231.8058
295.1914, 233.2123
295.6735, 234.9180
296.1556, 236.1007
296.6377, 236.7603
297.1198, 236.7635
297.6020, 235.5163
298.0841, 234.0617
298.5662, 233.9575
299.0483, 235.3082
299.5304, 237.1776
300.0125, 240.0172
300.4947, 242.6894
300.9768, 243.1189
301.4589, 239.7451
301.9410, 236.9246
302.4231, 238.2857
302.9052, 243.0578
303.3874, 248.1015
303.8695, 253.0820
304.3516, 256.9044
304.8337, 256.8150
305.3158, 251.5425
305.7979, 249.2166
306.2801, 254.7225
306.7622, 263.9881
307.2443, 270.7611
307.7264, 273.6453
308.2085, 275.5996
308.6906, 279.9032
309.1728, 287.1325
309.6549, 293.4893
310.1370, 298.2899
310.6191, 302.6631
311.1012, 307.4374
311.5833, 312.5951
312.0655, 317.9739
312.5476, 323.9555
313.0297, 330.2937
313.5118, 331.1774
313.9939, 319.9971
314.4760, 311.6101
314.9582, 311.3714
315.4403, 316.7696
315.9224, 324.3276
316.4045, 332.5900
316.8866, 339.9464
317.3687, 341.8731
317.8509, 333.6074
318.3330, 326.3847
318.8151, 320.0403
319.2972, 315.3196
319.7793, 313.0403
320.2614, 313.2962
320.7436, 315.2907
321.2257, 318.5609
321.7078, 324.0641
322.1899, 327.1762
322.6720, 327.0054
323.1541, 325.1516
323.6363, 322.0779
324.1184, 317.8498
324.6005, 312.2921
325.0826, 304.4577
325.5647, 295.0174
326.0468, 288.7555
326.5290, 287.3897
327.0111, 286.3642
327.4932, 284.4052
327.9753, 281.4375
328.4574, 277.1501
328.9395, 271.0489
329.4217, 264.2699
329.9038, 257.8755
330.3859, 251.7654
330.8680, 247.7480
331.3501, 248.2692
331.8322, 250.0587
332.3144, 249.3368
332.7965, 245.7324
333.2786, 240.5729
333.7607, 232.6894
334.2428, 223.7845
334.7249, 219.4897
335.2070, 222.0525
335.6891, 226.2648
336.1713, 225.7153
336.6534, 220.6020
337.1355, 216.6425
337.6176, 214.9009
338.0997, 214.6826
338.5818, 216.8264
339.0640, 220.7868
339.5461, 222.2066
340.0282, 217.3528
340.5103, 206.8839
340.9924, 198.9571
341.4745, 194.1039
341.9567, 190.7097
342.4388, 188.3296
342.9209, 187.0452
343.4030, 187.6253
343.8851, 190.4897
344.3672, 193.9084
344.8494, 193.8655
345.3315, 185.8548
345.8136, 181.3570
346.2957, 182.8499
346.7778, 185.8212
347.2599, 187.3607
347.7421, 186.8837
348.2242, 184.9799
348.7063, 181.9919
349.1884, 177.7418
349.6705, 174.2250
350.1526, 171.6535
350.6348, 169.6828
351.1169, 168.2096
351.5990, 167.2487
352.0811, 166.9612
352.5632, 167.6607
353.0453, 168.7826
353.5275, 168.9372
354.0096, 167.9292
354.4917, 166.5946
354.9738, 164.2904
355.4559, 162.2771
355.9380, 162.3432
356.4202, 165.2174
356.9023, 167.3348
357.3844, 165.0575
357.8665, 159.2243
358.3486, 153.7291
358.8307, 148.5907
359.3129, 145.3743
359.7950, 146.9579
360.2771, 152.7282
360.7592, 157.5792
361.2413, 160.0362
361.7234, 161.0142
362.2056, 161.3863
362.6877, 161.2096
363.1698, 160.2371
363.6519, 158.1287
364.1340, 155.0801
364.6161, 152.5065
365.0983, 148.7104
365.5804, 147.1975
366.0625, 151.3678
366.5446, 157.9021
367.0267, 161.5534
367.5089, 160.4281
367.9910, 156.6629
368.4731, 153.9402
368.9552, 152.9026
369.4373, 151.6270
369.9194, 149.0158
370.4016, 147.0926
370.8837, 147.8965
371.3658, 150.8280
371.8479, 153.1894
372.3300, 152.4473
372.8121, 148.9666
373.2943, 147.1400
373.7764, 148.2462
374.2585, 149.2481
374.7406, 147.7749
375.2227, 146.1881
375.7048, 148.2180
376.1870, 155.9392
376.6691, 164.5971
377.1512, 166.9062
377.6333, 162.4973
378.1154, 159.2712
378.5975, 159.9978
379.0797, 161.7286
379.5618, 161.3178
380.0439, 158.7851
380.5260, 156.7089
381.0081, 156.8591
381.4902, 158.0192
381.9724, 157.7733
382.4545, 155.7686
382.9366, 154.3973
383.4187, 155.9519
383.9008, 159.8906
384.3829, 161.6764
384.8651, 158.6996
385.3472, 156.3342
385.8293, 157.3790
386.3114, 160.7048
386.7935, 164.3109
387.2756, 167.4563
387.7578, 169.8680
388.2399, 170.9012
388.7220, 168.9302
389.2041, 168.7087
389.6862, 170.8630
390.1683, 174.1398
390.6505, 178.4413
391.1326, 183.2458
391.6147, 187.2542
392.0968, 189.1388
392.5789, 189.1496
393.0610, 190.5099
393.5432, 194.9392
394.0253, 198.1932
394.5074, 197.8624
394.9895, 196.3179
395.4716, 196.6660
395.9537, 200.1319
396.4359, 204.3482
396.9180, 206.0096
397.4001, 205.1063
397.8822, 205.2179
398.3643, 207.5917
398.8464, 210.5496
399.3286, 212.5317
399.8107, 213.6284
400.2928, 214.7142
400.7749, 215.5470
401.2570, 216.8516
401.7391, 219.4982
402.2213, 223.5368
402.7034, 228.7992
403.1855, 235.5095
403.6676, 243.2740
404.1497, 250.1518
404.6318, 257.0519
405.1140, 262.1513
405.5961, 262.8318
406.0782, 262.2460
406.5603, 264.7641
407.0424, 271.4522
407.5245, 279.9462
408.0067, 286.8451
408.4888, 291.0565
408.9709, 298.1751
409.4530, 309.1694
409.9351, 321.8478
410.4172, 336.1511
410.8994, 351.3516
411.3815, 366.0487
411.8636, 379.2481
412.3457, 391.9074
412.8278, 406.2611
413.3099, 421.6922
413.7921, 440.7130
414.2742, 466.4577
414.7563, 494.6795
415.2384, 523.1893
415.7205, 551.5286
416.2026, 579.3410
416.6848, 603.2982
417.1669, 626.6904
417.6490, 657.8833
418.1311, 698.3546
418.6132, 744.6304
419.0953, 793.9255
419.5775, 847.3372
420.0596, 907.8615
420.5417, 987.6794
421.0238, 1062.627
421.5059, 1115.211
421.9880, 1155.033
422.4702, 1201.153
422.9523, 1260.169
423.4344, 1327.752
423.9165, 1396.647
424.3986, 1467.041
424.8807, 1537.564
425.3629, 1607.985
425.8450, 1678.668
426.3271, 1753.333
426.8092, 1828.696
427.2913, 1897.584
427.7734, 1956.298
428.2556, 2003.984
428.7377, 2038.689
429.2198, 2060.860
429.7019, 2068.386
430.1840, 2062.809
430.6661, 2041.542
431.1483, 1999.534
431.6304, 1936.038
432.1125, 1860.238
432.5946, 1770.604
433.0767, 1673.815
433.5588, 1592.489
434.0410, 1531.177
434.5231, 1474.881
435.0052, 1412.012
435.4873, 1344.665
435.9694, 1283.534
436.4515, 1229.746
436.9337, 1181.661
437.4158, 1138.830
437.8979, 1101.139
438.3800, 1068.549
438.8621, 1040.696
439.3442, 1018.911
439.8264, 1005.720
440.3085, 1004.973
440.7906, 1002.199
441.2727, 990.7415
441.7548, 983.7507
442.2369, 989.8111
442.7191, 1005.786
443.2012, 1023.353
443.6833, 1037.508
444.1654, 1049.985
444.6475, 1065.251
445.1296, 1083.676
445.6118, 1103.773
446.0939, 1125.642
446.5760, 1148.852
447.0581, 1172.914
447.5402, 1197.883
448.0223, 1224.642
448.5045, 1256.572
448.9866, 1289.903
449.4687, 1317.857
449.9508, 1339.646
450.4329, 1358.195
450.9150, 1377.108
451.3972, 1393.568
451.8793, 1397.295
452.3614, 1383.314
452.8435, 1363.903
453.3256, 1339.553
453.8077, 1313.137
454.2899, 1290.447
454.7720, 1272.080
455.2541, 1249.581
455.7362, 1212.407
456.2183, 1158.684
456.7004, 1106.314
457.1826, 1054.007
457.6647, 1004.131
458.1468, 959.6797
458.6289, 917.5620
459.1110, 872.3768
459.5931, 821.3889
460.0753, 770.9846
460.5574, 731.7610
461.0395, 703.7622
461.5216, 674.6285
462.0037, 641.8166
462.4858, 607.7136
462.9680, 571.7251
463.4501, 535.2717
463.9322, 506.3396
464.4143, 492.8595
464.8964, 483.5092
465.3785, 468.7001
465.8607, 449.3059
466.3428, 429.3326
466.8249, 410.2503
467.3070, 392.6332
467.7891, 377.6156
468.2712, 366.6229
468.7534, 355.8900
469.2355, 346.1125
469.7176, 335.9965
470.1997, 323.4272
470.6818, 309.5657
471.1639, 298.0365
471.6461, 291.9232
472.1282, 289.2278
472.6103, 282.6339
473.0924, 269.8760
473.5745, 258.9303
474.0566, 253.3355
474.5388, 249.5046
475.0209, 245.1687
475.5030, 240.0589
475.9851, 234.4986
476.4672, 228.5236
476.9493, 222.2616
477.4315, 215.8473
477.9136, 209.2946
478.3957, 203.0891
478.8778, 197.6185
479.3599, 192.7569
479.8420, 188.0307
480.3242, 182.9030
480.8063, 178.6458
481.2884, 175.9241
481.7705, 173.9833
482.2526, 171.8480
482.7347, 169.5222
483.2169, 168.1422
483.6990, 169.2619
484.1811, 172.6197
484.6632, 172.4409
485.1453, 166.1266
485.6274, 160.1800
486.1096, 156.2591
486.5917, 153.6072
487.0738, 151.4263
487.5559, 149.5342
488.0380, 148.2486
488.5201, 148.5667
489.0023, 149.7851
489.4844, 149.0283
489.9665, 145.4845
490.4486, 142.5338
490.9307, 143.4781
491.4128, 147.2532
491.8950, 147.7460
492.3771, 142.5480
492.8592, 136.9328
493.3413, 131.5456
493.8234, 127.2330
494.3055, 125.6590
494.7877, 126.9967
495.2698, 129.0331
495.7519, 129.3120
496.2340, 127.7270
496.7161, 125.9129
497.1982, 123.9065
497.6804, 121.5979
498.1625, 118.5122
498.6446, 115.3064
499.1267, 112.6301
499.6088, 110.6229
500.0909, 109.7568
500.5730, 111.3068
501.0551, 114.6136
501.5373, 116.6626
502.0194, 117.0775
502.5015, 116.0385
502.9836, 112.9078
503.4657, 108.2056
503.9478, 105.1319
504.4300, 104.9736
504.9121, 105.1069
505.3942, 104.9384
505.8763, 104.2572
506.3584, 102.1471
506.8405, 98.59167
507.3227, 95.63721
507.8048, 95.84933
508.2869, 99.47653
508.7690, 103.1988
509.2511, 109.4110
509.7332, 112.6250
510.2154, 108.9337
510.6975, 102.4564
511.1796, 98.50832
511.6617, 98.72054
512.1439, 100.4076
512.6260, 101.6460
513.1081, 102.3016
513.5902, 101.5953
514.0723, 99.17718
514.5544, 96.47987
515.0366, 94.19859
515.5187, 92.57178
516.0008, 92.65849
516.4829, 96.95081
516.9650, 99.96555
517.4471, 98.52385
517.9293, 95.42010
518.4114, 94.77042
518.8935, 97.15713
519.3756, 99.16786
519.8577, 96.58203
520.3398, 89.45025
520.8220, 86.78378
521.3041, 92.22463
521.7862, 96.64476
522.2683, 96.23458
522.7504, 94.05341
523.2325, 93.63464
523.7147, 95.82378
524.1968, 98.16908
524.6789, 98.48679
525.1610, 97.70349
525.6431, 98.45548
526.1252, 101.1134
526.6074, 102.7308
527.0895, 100.9776
527.5716, 96.63033
528.0537, 93.61275
528.5358, 92.55190
529.0179, 91.79353
529.5001, 91.43834
529.9822, 91.07378
530.4643, 90.11075
530.9464, 88.64979
531.4285, 87.52244
531.9106, 87.58427
532.3928, 88.44926
532.8749, 87.99606
533.3570, 85.41060
533.8391, 83.77312
534.3212, 84.18301
534.8033, 85.91364
535.2855, 88.83237
535.7676, 92.94961
536.2497, 96.18327
536.7318, 97.83169
537.2139, 97.96317
537.6960, 95.91231
538.1782, 92.08601
538.6603, 88.53056
539.1424, 86.11752
539.6245, 85.12715
540.1066, 86.44359
540.5887, 93.13226
541.0709, 96.38994
541.5530, 93.51415
542.0351, 90.00179
542.5172, 88.64694
542.9993, 89.22263
543.4814, 90.33112
543.9636, 91.20748
544.4457, 92.29047
544.9278, 95.03735
545.4099, 99.43839
545.8920, 101.1791
546.3741, 98.10239
546.8563, 94.18233
547.3384, 93.73286
547.8205, 96.37675
548.3026, 98.56700
548.7847, 98.73862
549.2668, 99.55699
549.7490, 103.9671
550.2311, 109.5750
550.7132, 111.9054
551.1953, 109.6534
551.6774, 105.5686
552.1595, 102.9167
552.6417, 101.7131
553.1238, 101.7805
553.6059, 103.4145
554.0880, 105.9894
554.5701, 110.1875
555.0522, 114.6934
555.5344, 117.7550
556.0165, 118.8399
556.4986, 119.4446
556.9807, 120.5891
557.4628, 121.9856
557.9449, 123.1319
558.4271, 123.9741
558.9092, 124.4385
559.3913, 124.3437
559.8734, 123.9328
560.3555, 124.2321
560.8376, 125.1295
561.3198, 126.9630
561.8019, 130.2456
562.2840, 134.0746
562.7661, 138.2666
563.2482, 142.4592
563.7303, 145.5218
564.2125, 146.0643
564.6946, 145.9482
565.1767, 149.9328
565.6588, 158.3149
566.1409, 164.7829
566.6230, 166.2480
567.1052, 167.1062
567.5873, 172.5263
568.0694, 182.1948
568.5515, 193.3104
569.0336, 209.0249
569.5157, 222.4591
569.9979, 227.6234
570.4800, 228.3151
570.9621, 231.5653
571.4442, 239.6477
571.9263, 249.3723
572.4084, 256.8283
572.8906, 261.9196
573.3727, 265.6125
573.8548, 267.4445
574.3369, 268.5270
574.8190, 269.6288
575.3011, 270.1400
575.7833, 269.0418
576.2654, 265.9100
576.7475, 262.6271
577.2296, 260.9941
577.7117, 259.5092
578.1938, 255.4242
578.6760, 248.8652
579.1581, 242.6822
579.6402, 238.5619
580.1223, 236.1895
580.6044, 234.5248
581.0865, 232.4910
581.5686, 233.2222
582.0507, 237.9611
582.5328, 244.0465
583.0150, 249.3916
583.4971, 254.8297
583.9792, 262.9023
584.4613, 275.3687
584.9434, 289.9117
585.4255, 304.5569
585.9077, 318.9870
586.3898, 330.0851
586.8719, 335.9459
587.3540, 344.1793
587.8361, 362.9549
588.3182, 392.0707
588.8004, 417.8100
589.2825, 436.1116
589.7646, 456.3693
590.2467, 480.4641
590.7288, 507.7358
591.2109, 538.8030
591.6931, 572.9203
592.1752, 606.6396
592.6573, 635.9218
593.1394, 662.9103
593.6215, 696.3306
594.1036, 737.6400
594.5858, 775.8115
595.0679, 804.1699
595.5500, 830.8693
596.0321, 869.1771
596.5142, 919.7685
596.9963, 967.2897
597.4785, 1010.463
597.9606, 1048.730
598.4427, 1081.089
598.9248, 1108.651
599.4069, 1134.374
599.8890, 1159.116
600.3712, 1178.366
600.8533, 1183.953
601.3354, 1175.396
601.8175, 1170.236
602.2996, 1168.406
602.7817, 1170.192
603.2639, 1177.398
603.7460, 1187.705
604.2281, 1197.852
604.7102, 1207.099
605.1923, 1218.328
605.6744, 1232.929
606.1566, 1249.804
606.6387, 1267.102
607.1208, 1285.489
607.6029, 1307.937
608.0850, 1336.363
608.5671, 1368.287
609.0493, 1401.161
609.5314, 1440.481
610.0135, 1460.257
610.4956, 1451.413
610.9777, 1431.093
611.4598, 1408.218
611.9420, 1380.638
612.4241, 1344.082
612.9062, 1296.764
613.3883, 1242.276
613.8704, 1180.769
614.3525, 1114.236
614.8347, 1044.447
615.3168, 972.5422
615.7989, 904.5910
616.2810, 845.2856
616.7631, 793.2882
617.2452, 743.8020
617.7274, 698.3427
618.2095, 652.9314
618.6916, 604.1586
619.1737, 558.3488
619.6558, 519.3440
620.1379, 486.3259
620.6201, 456.0275
621.1022, 426.7553
621.5843, 400.6256
622.0664, 381.5295
622.5485, 367.0552
623.0306, 351.2348
623.5128, 332.9375
623.9949, 315.0254
624.4770, 299.7132
624.9591, 286.9762
625.4412, 275.9757
625.9233, 267.5304
626.4055, 259.5877
626.8876, 253.6618
627.3697, 246.7028
627.8518, 235.0866
628.3339, 220.0903
628.8160, 207.2636
629.2982, 199.9506
629.7803, 195.2858
630.2624, 190.6734
630.7445, 186.0698
631.2266, 181.3517
631.7087, 176.4789
632.1909, 171.4075
632.6730, 166.0276
633.1551, 160.3685
633.6372, 155.2739
634.1193, 150.7752
634.6014, 146.8463
635.0836, 143.1674
635.5657, 140.2842
636.0478, 139.2541
636.5299, 139.7011
637.0120, 139.4638
637.4941, 137.1857
637.9763, 133.7235
638.4584, 129.3578
638.9405, 124.6132
639.4226, 121.8652
639.9047, 121.8859
640.3868, 122.9913
640.8690, 123.6309
641.3511, 123.8122
641.8332, 122.3139
642.3153, 116.6435
642.7974, 112.5415
643.2795, 112.4546
643.7617, 113.1704
644.2438, 111.6222
644.7259, 107.8128
645.2080, 104.2758
645.6901, 102.8005
646.1722, 102.1100
646.6544, 99.76030
647.1365, 96.63731
647.6186, 96.98489
648.1007, 102.3291
648.5828, 108.0089
649.0649, 108.7517
649.5471, 104.4649
650.0292, 100.8641
650.5113, 98.78131
650.9934, 96.24543
651.4755, 90.66791
651.9576, 86.10722
652.4398, 87.12086
652.9219, 93.30814
653.4040, 98.88399
653.8861, 100.9022
654.3682, 100.6438
654.8503, 98.50101
655.3325, 95.22474
655.8146, 93.52583
656.2967, 94.19194
656.7788, 95.01611
657.2609, 93.32587
657.7430, 89.23172
658.2252, 88.13602
658.7073, 92.96914
659.1894, 96.12430
659.6715, 94.41452
660.1536, 91.91187
660.6357, 92.39883
661.1179, 95.57916
661.6000, 97.63303
662.0821, 96.24711
662.5642, 93.61800
663.0463, 91.23486
663.5284, 89.19711
664.0106, 87.72609
664.4927, 86.87557
664.9748, 86.53637
665.4569, 86.61897
665.9390, 87.12399
666.4211, 88.19566
666.9033, 90.53951
667.3854, 91.89533
667.8675, 91.08768
668.3496, 89.67098
668.8317, 88.49819
669.3138, 87.65062
669.7960, 87.27940
670.2781, 88.13063
670.7602, 88.73318
671.2423, 87.83919
671.7244, 86.22330
672.2065, 84.91856
672.6887, 84.19608
673.1708, 84.25097
673.6529, 85.45356
674.1350, 87.24255
674.6171, 87.19090
675.0992, 84.63982
675.5814, 83.12289
676.0635, 83.74524
676.5456, 85.00972
677.0277, 85.89309
677.5098, 86.43591
677.9919, 86.72009
678.4741, 86.75249
678.9562, 86.53305
679.4383, 86.02649
679.9204, 85.28808
680.4025, 84.08586
680.8846, 82.65112
681.3668, 81.92102
681.8489, 82.66270
682.3310, 83.88907
682.8131, 83.29405
683.2952, 80.86852
683.7773, 79.66525
684.2595, 80.49405
684.7416, 81.46399
685.2237, 81.06909
685.7058, 79.74122
686.1879, 79.33846
686.6700, 80.35176
687.1522, 81.37426
687.6343, 82.00877
688.1164, 82.81988
688.5985, 84.59044
689.0806, 86.81906
689.5627, 88.43452
690.0449, 89.01146
690.5270, 88.55070
691.0091, 86.47026
691.4912, 83.34776
691.9733, 81.11399
692.4554, 79.94279
692.9376, 79.57101
693.4197, 80.16882
693.9018, 80.89117
694.3839, 79.62309
694.8660, 74.65784
695.3481, 72.10762
695.8303, 73.28138
696.3124, 75.32493
696.7945, 77.04204
697.2766, 79.04659
697.7587, 82.90749
698.2408, 89.13126
698.7230, 93.90354
699.2051, 94.18829
699.6872, 92.07383
700.1693, 89.81712
700.6514, 87.56691
701.1335, 85.16955
701.6157, 82.56299
702.0978, 80.06937
702.5799, 78.06558
703.0620, 76.54683
703.5441, 75.69689
704.0262, 75.37872
704.5084, 76.03170
704.9905, 78.32748
705.4726, 81.31458
705.9547, 84.50529
706.4368, 87.83707
706.9189, 89.61909
707.4011, 88.68168
707.8832, 86.94339
708.3653, 84.55103
708.8474, 82.44418
709.3295, 82.19305
709.8116, 83.82762
710.2938, 85.66139
710.7759, 86.16782
711.2580, 86.13421
711.7401, 88.45840
712.2222, 93.18918
712.7043, 94.27586
713.1865, 89.48826
713.6686, 83.59224
714.1507, 80.15047
714.6328, 79.10946
715.1149, 80.24703
715.5970, 86.84447
716.0792, 90.86789
716.5613, 90.21788
717.0434, 88.08354
717.5255, 86.43346
718.0076, 85.10278
718.4897, 82.84485
718.9719, 78.72923
719.4540, 75.32715
719.9361, 75.27459
720.4182, 77.51428
720.9003, 80.47517
721.3824, 83.78638
721.8646, 86.43002
722.3467, 87.92096
722.8288, 88.09394
723.3109, 86.20932
723.7930, 81.42953
724.2751, 78.59361
724.7573, 77.74806
725.2394, 78.79013
725.7215, 84.92251
726.2036, 91.26402
726.6857, 90.62586
727.1678, 81.67847
727.6500, 76.01673
728.1321, 79.45747
728.6142, 84.55422
729.0963, 87.20430
729.5784, 87.95853
730.0605, 87.96189
730.5427, 87.54344
731.0248, 86.53069
731.5069, 84.41495
731.9890, 81.84354
732.4711, 80.79146
732.9532, 81.21703
733.4354, 81.08458
733.9175, 79.58865
734.3996, 78.73098
734.8817, 80.95306
735.3638, 85.69968
735.8459, 87.28078
736.3281, 81.66541
736.8102, 78.71477
737.2923, 81.15551
737.7744, 84.43222
738.2565, 85.91531
738.7386, 85.84426
739.2208, 85.22588
739.7029, 84.11012
740.1850, 83.35098
740.6671, 83.49441
741.1492, 84.38111
741.6313, 87.24406
742.1135, 90.91215
742.5956, 90.12537
743.0777, 82.15102
743.5598, 72.43403
744.0419, 70.38318
744.5240, 76.13336
745.0062, 79.27234
745.4883, 78.94555
745.9704, 78.93554
746.4525, 81.41219
746.9346, 84.31167
747.4167, 84.19844
747.8989, 80.47514
748.3810, 78.70077
748.8631, 81.27785
749.3452, 83.08622
749.8273, 81.04724
750.3094, 78.34496
750.7916, 79.03712
751.2737, 82.85123
751.7558, 85.49762
752.2379, 83.63623
752.7200, 80.79349
753.2021, 81.42014
753.6843, 84.17842
754.1664, 85.73081
754.6485, 85.58784
755.1306, 85.02740
755.6127, 84.85555
756.0948, 85.16340
756.5770, 86.42793
757.0591, 89.04324
757.5412, 90.70920
758.0233, 91.46354
758.5054, 90.88646
758.9875, 87.67886
759.4697, 83.41240
759.9518, 81.10205
760.4339, 81.11210
760.9160, 81.65616
761.3981, 83.86443
761.8802, 85.02082
762.3624, 82.22964
762.8445, 78.18249
763.3266, 77.44311
763.8087, 80.54679
764.2908, 82.76361
764.7729, 78.80681
765.2551, 73.16180
765.7372, 73.28841
766.2193, 77.75264
766.7014, 81.37811
767.1835, 82.94893
767.6656, 84.26247
768.1478, 87.04291
768.6299, 90.51942
769.1120, 91.30266
769.5941, 88.45322
770.0762, 86.24688
770.5583, 84.73373
771.0405, 84.56190
771.5226, 87.34158
772.0047, 91.48957
772.4868, 93.27203
772.9689, 91.45300
773.4510, 90.36466
773.9332, 91.92292
774.4153, 93.30441
774.8974, 92.71238
775.3795, 90.84778
775.8616, 88.58646
776.3438, 86.27828
776.8259, 84.91232
777.3080, 86.11800
777.7901, 88.18777
778.2722, 88.09834
778.7543, 86.52691
779.2365, 85.89969
779.7186, 86.83115
780.2007, 88.62214
780.6828, 90.90042
781.1649, 93.21719
781.6470, 93.44120
782.1292, 91.01904
782.6113, 88.90057
783.0934, 87.14546
783.5755, 86.35084
784.0576, 87.03609
784.5397, 88.96535
785.0219, 91.63194
785.5040, 96.02846
785.9861, 98.69018
786.4682, 97.92537
786.9503, 96.74776
787.4324, 96.47458
787.9146, 96.89679
788.3967, 97.43312
788.8788, 97.99478
789.3609, 99.28425
789.8430, 103.3512
790.3251, 107.1217
790.8073, 106.5724
791.2894, 103.0260
791.7715, 99.05744
792.2536, 95.50225
792.7357, 93.56463
793.2178, 94.45448
793.7000, 97.10814
794.1821, 98.80361
794.6642, 99.54686
795.1463, 99.07747
795.6284, 97.07647
796.1105, 94.76667
796.5927, 92.61059
797.0748, 90.90150
797.5569, 90.60725
798.0390, 93.39033
798.5211, 93.13744
799.0032, 85.89007
799.4854, 80.50529
799.9675, 81.43216
800.4496, 84.91597
800.9317, 86.51639
801.4138, 85.83966
801.8959, 85.72919
802.3781, 87.54845
802.8602, 90.07597
803.3423, 93.50759
803.8244, 96.59537
804.3065, 96.98236
804.7886, 95.05718
805.2708, 93.86676
805.7529, 95.33197
806.2350, 98.10374
806.7171, 100.5193
807.1992, 102.5053
807.6813, 103.6940
808.1635, 104.0580
808.6456, 103.6006
809.1277, 102.2540
809.6098, 100.3556
810.0919, 98.32780
810.5740, 96.08844
811.0562, 94.74195
811.5383, 94.75512
812.0204, 94.62241
812.5025, 93.12868
812.9846, 92.08219
813.4667, 94.13809
813.9489, 98.59408
814.4310, 100.7696
814.9131, 98.44130
815.3952, 96.32988
815.8773, 95.84389
816.3594, 95.61292
816.8416, 93.85995
817.3237, 91.68231
817.8058, 91.88738
818.2879, 95.62102
818.7700, 99.59833
819.2521, 101.1511
819.7343, 101.8046
820.2164, 104.3132
820.6985, 107.5383
821.1806, 107.6695
821.6627, 103.8558
822.1448, 99.39642
822.6270, 97.33327
823.1091, 97.11768
823.5912, 97.28611
824.0733, 97.82754
824.5554, 98.14992
825.0375, 98.12823
825.5197, 97.87028
826.0018, 97.16647
826.4839, 96.64131
826.9660, 98.34312
827.4481, 104.0478
827.9302, 106.8003
828.4124, 104.5803
828.8945, 102.1998
829.3766, 101.5320
829.8587, 101.6007
830.3408, 101.2581
830.8229, 100.4591
831.3051, 100.1082
831.7872, 101.6534
832.2693, 102.0608
832.7514, 98.28318
833.2335, 94.29080
833.7156, 94.55885
834.1978, 98.18108
834.6799, 100.8666
835.1620, 100.6336
835.6441, 99.65237
836.1262, 99.65416
836.6083, 100.1069
837.0905, 99.55514
837.5726, 98.70213
838.0547, 100.9004
838.5368, 107.1076
839.0189, 112.4155
839.5010, 110.4658
839.9832, 103.7935
840.4653, 102.0158
840.9474, 104.9867
841.4295, 107.2266
841.9116, 107.6010
842.3937, 106.3954
842.8759, 103.2118
843.3580, 99.38977
843.8401, 99.72733
844.3222, 106.3947
844.8043, 110.7884
845.2864, 112.5734
845.7686, 112.3522
846.2507, 108.9793
846.7328, 104.5607
847.2149, 102.0334
847.6970, 101.5119
848.1791, 101.0958
848.6613, 99.82402
849.1434, 99.66051
849.6255, 102.5116
850.1076, 105.6215
850.5897, 106.7381
851.0718, 105.9877
851.5540, 104.1392
852.0361, 100.6478
852.5182, 98.79358
853.0003, 102.1870
853.4824, 106.9842
853.9645, 109.4481
854.4467, 109.8600
854.9288, 109.6786
855.4109, 109.2994
855.8930, 107.7598
856.3751, 102.9289
856.8572, 97.57716
857.3394, 98.01525
857.8215, 102.7885
858.3036, 105.9541
858.7857, 106.5150
859.2678, 106.3796
859.7499, 106.6711
860.2321, 107.6647
860.7142, 110.7200
861.1963, 116.1721
861.6784, 117.5893
862.1605, 114.1671
862.6426, 109.3303
863.1248, 103.3880
863.6069, 98.41553
864.0890, 97.04243
864.5711, 99.20569
865.0532, 102.2411
865.5353, 107.9426
866.0175, 111.4297
866.4996, 111.1177
866.9817, 109.4129
867.4638, 106.4602
867.9459, 103.3435
868.4280, 102.3771
868.9102, 104.3475
869.3923, 106.1576
869.8744, 107.6410
870.3565, 108.2666
870.8386, 106.7449
871.3207, 104.8619
871.8029, 104.8228
872.2850, 106.6666
872.7671, 108.8555
873.2492, 111.4504
873.7313, 112.8248
874.2134, 109.6793
874.6956, 106.0404
875.1777, 108.5486
875.6598, 115.1161
876.1419, 118.1254
876.6240, 114.7341
877.1061, 110.0588
877.5883, 109.0718
878.0704, 110.5890
878.5525, 112.8889
879.0346, 115.5365
879.5167, 116.6973
879.9988, 116.0133
880.4810, 114.2074
880.9631, 111.5585
881.4452, 109.0876
881.9273, 109.9959
882.4094, 114.2053
882.8915, 114.4662
883.3737, 109.6463
883.8558, 106.5637
884.3379, 108.3585
884.8200, 112.1928
885.3021, 114.6537
885.7842, 115.7693
886.2664, 116.2145
886.7485, 115.5019
887.2306, 115.2687
887.7127, 115.2795
888.1948, 116.5465
888.6769, 121.2277
889.1591, 127.1946
889.6412, 128.8065
890.1233, 124.1637
890.6054, 121.5833
891.0875, 123.8933
891.5696, 125.1201
892.0518, 121.6752
892.5339, 117.5256
893.0160, 116.4184
893.4981, 118.2850
893.9802, 121.2963
894.4623, 127.2411
894.9445, 130.1611
895.4266, 123.7969
895.9087, 117.2259
896.3908, 118.4837
896.8729, 124.4596
897.3550, 129.1324
897.8372, 130.9738
898.3193, 131.8684
898.8014, 133.4733
899.2835, 134.1728
899.7656, 124.1496
900.2477, 116.4448
900.7299, 143.3615
901.2120, 195.3198
901.6941, 222.3478
902.1762, 198.3115
902.6583, 158.7798
903.1404, 142.7215
903.6226, 141.9727
904.1047, 140.3220
904.5868, 137.7927
905.0689, 137.7897
905.5510, 140.9887
906.0331, 143.2888
906.5153, 140.7798
906.9974, 136.4358
907.4795, 138.4816
907.9616, 146.0853
908.4437, 148.8695
908.9258, 145.7567
909.4080, 144.1518
909.8900, 147.7223
910.3721, 152.2023
910.8542, 151.7271
911.3364, 146.7432
911.8185, 142.7291
912.3006, 139.6644
912.7827, 137.5884
913.2648, 136.2861
913.7469, 136.6986
914.2291, 140.0824
914.7112, 144.9614
915.1933, 147.7937
915.6754, 147.7286
916.1575, 149.3750
916.6396, 154.3318
917.1218, 158.3108
917.6039, 161.1692
918.0860, 161.6503
918.5681, 155.7082
919.0502, 145.7250
919.5323, 143.8213
920.0145, 157.0851
920.4966, 166.0415
920.9787, 167.6747
921.4608, 166.8472
921.9429, 164.1393
922.4250, 161.0761
922.9072, 159.1436
923.3893, 158.5107
923.8714, 159.1682
924.3535, 161.6021
924.8356, 164.6810
925.3177, 169.4921
925.7999, 173.4703
926.2820, 174.5623
926.7641, 173.3454
927.2462, 170.4500
927.7283, 165.9640
928.2104, 163.6148
928.6926, 166.8263
929.1747, 171.0378
929.6568, 172.7889
930.1389, 173.8811
930.6210, 176.8707
931.1031, 181.4831
931.5853, 185.8224
932.0674, 189.1854
932.5495, 191.4979
933.0316, 191.6492
933.5137, 191.5554
933.9958, 195.0391
934.4780, 199.5999
934.9601, 198.5761
935.4422, 191.9493
935.9243, 187.0974
936.4064, 188.7485
936.8885, 194.5662
937.3707, 203.2957
937.8528, 213.2478
938.3349, 221.0212
938.8170, 226.6876
939.2991, 231.3242
939.7813, 235.3071
940.2634, 238.2789
940.7455, 239.3976
941.2276, 240.1413
941.7097, 244.1552
942.1918, 250.6624
942.6740, 256.4427
943.1561, 261.1314
943.6382, 264.6826
944.1203, 266.9714
944.6024, 270.7461
945.0845, 281.1550
945.5667, 295.3498
946.0488, 297.5336
946.5309, 288.3702
947.0130, 287.7444
947.4951, 299.4628
947.9772, 314.3701
948.4594, 327.5804
948.9415, 338.4294
949.4236, 345.2558
949.9057, 348.1076
950.3878, 349.7774
950.8699, 349.2512
951.3521, 355.7677
951.8342, 372.6284
952.3163, 392.5026
952.7984, 409.9236
953.2805, 426.0368
953.7626, 443.8828
954.2448, 464.0730
954.7269, 482.7997
955.2090, 499.4706
955.6911, 515.9174
956.1732, 531.3837
956.6553, 549.3633
957.1375, 574.3239
957.6196, 604.3514
958.1017, 630.0975
958.5838, 647.4077
959.0659, 672.0284
959.5480, 708.1443
960.0302, 743.7916
960.5123, 770.8418
960.9944, 799.0231
961.4765, 840.0947
961.9586, 893.1115
962.4407, 947.8358
962.9229, 997.8707
963.4050, 1061.677
963.8871, 1148.268
964.3692, 1237.529
964.8513, 1315.395
965.3334, 1394.026
965.8156, 1490.644
966.2977, 1605.435
966.7798, 1730.987
967.2619, 1863.207
967.7440, 2013.721
968.2261, 2183.747
968.7083, 2372.040
969.1904, 2571.857
969.6725, 2793.038
970.1546, 3050.778
970.6367, 3346.531
971.1188, 3671.533
971.6010, 4009.279
972.0831, 4398.066
972.5652, 4849.161
973.0473, 5351.148
973.5294, 5889.121
974.0115, 6472.730
974.4937, 7131.651
974.9758, 7872.203
975.4579, 8666.015
975.9400, 9509.375
976.4221, 10407.48
976.9042, 11399.50
977.3864, 12419.32
977.8685, 13418.81
978.3506, 14397.91
978.8327, 15383.37
979.3148, 16419.71
979.7969, 17309.31
980.2791, 18068.56
980.7612, 18590.09
981.2433, 18848.85
981.7254, 18831.38
982.2075, 18527.62
982.6896, 17937.94
983.1718, 17044.16
983.6539, 15789.34
984.1360, 14427.15
984.6181, 12952.32
985.1002, 11491.25
985.5823, 10035.35
986.0645, 8677.646
986.5466, 7491.063
987.0287, 6480.229
987.5108, 5611.329
987.9929, 4884.003
988.4750, 4259.115
988.9572, 3733.377
989.4393, 3288.075
989.9214, 2931.229
990.4035, 2634.644
990.8856, 2371.008
991.3677, 2136.112
991.8499, 1936.681
992.3320, 1778.308
992.8141, 1645.781
993.2962, 1543.300
993.7783, 1453.132
994.2604, 1364.758
994.7426, 1280.550
995.2247, 1204.153
995.7068, 1136.193
996.1889, 1077.251
996.6710, 1028.688
997.1531, 986.9740
997.6353, 953.1711
998.1174, 923.2628
998.5995, 895.1544
999.0816, 868.3758
999.5637, 841.2337
1000.046, 814.5380
1000.528, 793.4785
1001.010, 782.7072
1001.492, 771.6116
1001.974, 752.3861
1002.456, 733.7645
1002.939, 721.2928
1003.421, 714.1535
1003.903, 712.1497
1004.385, 714.1255
1004.867, 714.6841
1005.349, 709.1274
1005.831, 707.3427
1006.313, 720.6508
1006.795, 732.7418
1007.278, 729.4742
1007.760, 718.1229
1008.242, 708.4952
1008.724, 702.4532
1009.206, 699.3107
1009.688, 700.0015
1010.170, 701.1909
1010.652, 703.4908
1011.135, 703.5858
1011.617, 695.3263
1012.099, 685.4170
1012.581, 685.8794
1013.063, 695.8973
1013.545, 698.9920
1014.027, 683.7684
1014.509, 671.8434
1014.991, 676.0785
1015.474, 682.6306
1015.956, 682.0623
1016.438, 677.6152
1016.920, 674.8688
1017.402, 673.9279
1017.884, 670.0640
1018.366, 657.9008
1018.848, 650.2189
1019.331, 654.2866
1019.813, 661.4681
1020.295, 668.7145
1020.777, 674.2393
1021.259, 674.5558
1021.741, 670.7450
1022.223, 670.8004
1022.705, 679.9677
1023.187, 687.1260
1023.670, 683.4692
1024.152, 683.0671
1024.634, 696.1226
1025.116, 715.5179
1025.598, 733.5161
1026.080, 749.2618
1026.562, 762.8828
1027.044, 772.6027
1027.526, 784.1773
1028.009, 802.4828
1028.491, 818.7382
1028.973, 823.9500
1029.455, 828.3742
1029.937, 843.8156
1030.419, 869.3198
1030.901, 895.8567
1031.383, 921.9066
1031.866, 949.4871
1032.348, 980.5425
1032.830, 1010.870
1033.312, 1036.786
1033.794, 1062.773
1034.276, 1092.039
1034.758, 1125.211
1035.240, 1164.303
1035.723, 1214.039
1036.205, 1259.306
1036.687, 1298.132
1037.169, 1334.418
1037.651, 1373.931
1038.133, 1407.445
1038.615, 1421.561
1039.097, 1423.300
1039.579, 1438.880
1040.062, 1480.404
1040.544, 1501.225
1041.026, 1489.963
1041.508, 1476.089
1041.990, 1468.817
1042.472, 1458.714
1042.954, 1439.384
1043.436, 1411.415
1043.918, 1375.469
1044.401, 1328.799
1044.883, 1287.806
1045.365, 1255.776
1045.847, 1222.595
1046.329, 1187.298
1046.811, 1148.659
1047.293, 1105.563
1047.775, 1058.477
1048.258, 1006.171
1048.740, 947.3824
1049.222, 903.3231
1049.704, 878.4618
1050.186, 852.1661
1050.668, 820.3625
1051.150, 787.3514
1051.632, 754.9932
1052.115, 724.8053
1052.597, 699.9133
1053.079, 679.8214
1053.561, 657.5089
1054.043, 632.3318
1054.525, 611.1821
1055.007, 595.3682
1055.489, 581.3661
1055.971, 567.3751
1056.453, 555.5073
1056.936, 548.9329
1057.418, 546.3973
1057.900, 541.0643
1058.382, 533.3998
1058.864, 532.7070
1059.346, 539.7618
1059.828, 547.6116
1060.310, 553.4792
1060.793, 559.9444
1061.275, 569.3824
1061.757, 581.8555
1062.239, 596.8325
1062.721, 614.9340
1063.203, 636.8502
1063.685, 663.6657
1064.167, 701.9272
1064.650, 753.0878
1065.132, 810.4781
1065.614, 869.4367
1066.096, 930.3425
1066.578, 990.0277
1067.060, 1054.220
1067.542, 1139.362
1068.024, 1237.527
1068.506, 1327.331
1068.989, 1403.674
1069.471, 1470.781
1069.953, 1530.554
1070.435, 1583.017
1070.917, 1638.060
1071.399, 1677.236
1071.881, 1675.814
1072.363, 1643.770
1072.845, 1598.652
1073.328, 1541.616
1073.810, 1461.862
1074.292, 1353.349
1074.774, 1244.285
1075.256, 1150.367
1075.738, 1065.985
1076.220, 990.3334
1076.702, 920.1523
1077.184, 850.7472
1077.667, 784.4636
1078.149, 727.8396
1078.631, 682.5368
1079.113, 639.9500
1079.595, 594.7321
1080.077, 554.9329
1080.559, 526.8461
1081.041, 501.9698
1081.524, 470.9517
1082.006, 440.7289
1082.488, 425.1806
1082.970, 424.6902
1083.452, 417.4860
1083.934, 393.9535
1084.416, 374.2003
1084.898, 362.9240
1085.380, 352.5433
1085.863, 339.0713
1086.345, 325.6356
1086.827, 315.4966
1087.309, 308.2698
1087.791, 301.9965
1088.273, 296.8167
1088.755, 292.2294
1089.237, 289.0307
1089.719, 284.4902
1090.202, 277.6609
1090.684, 269.6208
1091.166, 261.0049
1091.648, 252.1760
1092.130, 243.7687
1092.612, 235.7098
1093.094, 230.6559
1093.576, 229.0558
1094.059, 225.4758
1094.541, 218.6225
1095.023, 212.8059
1095.505, 210.4283
1095.987, 209.9187
1096.469, 209.2421
1096.951, 208.4633
1097.433, 209.4161
1097.916, 210.7753
1098.398, 202.3991
1098.880, 185.3882
1099.362, 175.3366
1099.844, 177.5959
1100.326, 182.0883
1100.808, 180.2132
1101.290, 175.1983
1101.772, 171.7686
1102.255, 168.6884
1102.737, 161.5527
1103.219, 153.3698
1103.701, 153.0736
1104.183, 160.8972
1104.665, 168.2937
1105.147, 171.2168
1105.629, 170.7630
1106.111, 164.8926
1106.594, 159.0536
1107.076, 158.9198
1107.558, 161.0377
1108.040, 161.1628
1108.522, 159.3015
1109.004, 156.8908
1109.486, 154.1532
1109.968, 152.3838
1110.451, 152.2868
1110.933, 152.8916
1111.415, 155.8438
1111.897, 157.3186
1112.379, 151.8995
1112.861, 144.6719
1113.343, 144.5416
1113.825, 151.8549
1114.307, 157.2146
1114.790, 159.3400
1115.272, 161.4554
1115.754, 164.2647
1116.236, 165.9414
1116.718, 165.3194
1117.200, 163.9790
1117.682, 162.6026
1118.164, 162.3142
1118.646, 167.4183
1119.129, 178.9483
1119.611, 187.7708
1120.093, 193.8420
1120.575, 197.1341
1121.057, 197.4121
1121.539, 197.1666
1122.021, 197.8499
1122.503, 199.1410
1122.986, 200.5029
1123.468, 202.1454
1123.950, 205.0169
1124.432, 208.8244
1124.914, 212.6910
1125.396, 216.2552
1125.878, 218.3110
1126.360, 218.5425
1126.843, 218.8123
1127.325, 221.5347
1127.807, 222.5045
1128.289, 214.1101
1128.771, 203.1189
1129.253, 199.4901
1129.735, 199.5945
1130.217, 195.6011
1130.699, 187.4187
1131.182, 180.5363
1131.664, 176.9278
1132.146, 175.0091
1132.628, 175.9158
1133.110, 175.9078
1133.592, 171.6006
1134.074, 166.8249
1134.556, 165.5504
1135.038, 166.0706
1135.521, 164.3470
1136.003, 159.8502
1136.485, 157.0511
1136.967, 159.0569
1137.449, 157.9230
1137.931, 149.2170
1138.413, 144.1737
1138.895, 149.5125
1139.378, 156.5247
1139.860, 156.3628
1140.342, 151.1236
1140.824, 147.4629
1141.306, 145.0768
1141.788, 149.0948
1142.270, 160.5546
1142.752, 162.5710
1143.234, 151.1556
1143.717, 141.0700
1144.199, 140.9835
1144.681, 144.5323
1145.163, 143.1310
1145.645, 139.2197
1146.127, 139.2428
1146.609, 141.6242
1147.091, 142.0917
1147.573, 140.8049
1148.056, 140.4033
1148.538, 141.2569
1149.020, 139.9520
1149.502, 133.0883
1149.984, 127.4123
1150.466, 130.4242
1150.948, 135.0912
1151.430, 134.4135
1151.913, 132.1294
1152.395, 134.9110
1152.877, 140.5729
1153.359, 140.2628
1153.841, 131.0862
1154.323, 125.2668
1154.805, 129.2130
1155.287, 131.5314
1155.770, 127.5807
1156.252, 123.7105
1156.734, 122.8338
1157.216, 124.1422
1157.698, 127.3849
1158.180, 131.9372
1158.662, 133.9393
1159.144, 132.7611
1159.626, 132.2230
1160.109, 132.6680
1160.591, 131.7156
1161.073, 128.5307
1161.555, 126.3554
1162.037, 127.6140
1162.519, 128.8967
1163.001, 123.3072
1163.483, 114.8654
1163.965, 117.9005
1164.448, 127.8427
1164.930, 129.5845
1165.412, 124.2009
1165.894, 121.7404
1166.376, 125.1000
1166.858, 130.5861
1167.340, 137.2701
1167.822, 141.2904
1168.305, 136.7569
1168.787, 131.0555
1169.269, 130.3415
1169.751, 132.3784
1170.233, 135.2795
1170.715, 137.9581
1171.197, 138.3629
1171.679, 135.8788
1172.161, 133.4447
1172.644, 129.2413
1173.126, 128.8067
1173.608, 136.7808
1174.090, 143.0560
1174.572, 142.7061
1175.054, 139.5077
1175.536, 136.8132
1176.018, 135.0531
1176.500, 136.5381
1176.983, 141.8093
1177.465, 142.8381
1177.947, 139.4793
1178.429, 135.6414
1178.911, 132.1590
1179.393, 129.6296
1179.875, 128.3801
1180.357, 128.7104
1180.840, 131.5756
1181.322, 135.3588
1181.804, 137.1444
1182.286, 137.9900
1182.768, 139.7397
1183.250, 142.0931
1183.732, 144.0289
1184.214, 145.4339
1184.697, 147.2099
1185.179, 150.2733
1185.661, 151.1960
1186.143, 146.0418
1186.625, 141.4875
1187.107, 141.0273
1187.589, 142.0194
1188.071, 143.2157
1188.553, 143.9818
1189.036, 143.2944
1189.518, 141.2368
1190.000, 138.9871
1190.482, 136.2390
1190.964, 134.2052
1191.446, 132.6998
1191.928, 133.2375
1192.410, 136.5905
1192.892, 139.8407
1193.375, 140.8841
1193.857, 141.2384
1194.339, 143.4760
1194.821, 146.8409
1195.303, 149.5261
1195.785, 151.2946
1196.267, 151.0562
1196.749, 149.2452
1197.232, 147.2106
1197.714, 145.4835
1198.196, 144.8155
1198.678, 146.3071
1199.160, 146.5119
1199.642, 141.3192
1200.124, 136.3039
1200.606, 136.2516
1201.089, 137.2610
1201.571, 135.0107
1202.053, 131.0324
1202.535, 129.5261
1203.017, 130.9793
1203.499, 129.1464
1203.981, 120.8638
1204.463, 117.3007
1204.945, 120.6471
1205.427, 123.6960
1205.910, 124.2651
1206.392, 123.7403
1206.874, 123.0609
1207.356, 122.2845
1207.838, 121.5047
1208.320, 120.7197
1208.802, 120.3300
1209.284, 119.8615
1209.767, 116.8342
1210.249, 112.2094
1210.731, 109.6833
1211.213, 110.3701
1211.695, 114.1895
1212.177, 122.6316
1212.659, 128.6975
1213.141, 126.0470
1213.624, 121.4486
1214.106, 117.4682
1214.588, 115.3916
1215.070, 117.6278
1215.552, 121.9564
1216.034, 124.4097
1216.516, 124.7303
1216.998, 122.3587
1217.480, 115.0093
1217.963, 111.5814
1218.445, 113.3582
1218.927, 115.4291
1219.409, 116.4192
1219.891, 117.6128
1220.373, 120.0186
1220.855, 122.0834
1221.337, 121.1584
1221.819, 118.4039
1222.302, 116.3386
1222.784, 115.0550
1223.266, 115.6464
1223.748, 117.0359
1224.230, 115.8446
1224.712, 111.9753
1225.194, 108.9379
1225.676, 108.3057
1226.159, 108.3663
1226.641, 108.0077
1227.123, 108.5027
1227.605, 112.1504
1228.087, 115.0612
1228.569, 113.3093
1229.051, 109.8624
1229.533, 108.6195
1230.016, 109.3148
1230.498, 110.7502
1230.980, 113.3501
1231.462, 114.1227
1231.944, 113.0148
1232.426, 109.9358
1232.908, 104.9025
1233.390, 101.5955
1233.872, 101.8369
1234.354, 103.3720
1234.837, 104.2766
1235.319, 104.5451
1235.801, 103.4899
1236.283, 102.3752
1236.765, 103.3307
1237.247, 105.2080
1237.729, 106.1871
1238.211, 106.1680
1238.694, 105.5346
1239.176, 104.2254
1239.658, 104.0760
1240.140, 107.3298
1240.622, 108.6980
1241.104, 106.0463
1241.586, 104.3213
1242.068, 106.4459
1242.551, 107.3928
1243.033, 102.3011
1243.515, 94.68864
1243.997, 91.48659
1244.479, 92.26135
1244.961, 96.47662
1245.443, 102.3540
1245.925, 99.71896
1246.407, 90.65748
1246.890, 88.15720
1247.372, 94.70767
1247.854, 101.2467
1248.336, 103.0740
1248.818, 102.9019
1249.300, 100.8675
1249.782, 99.45937
1250.264, 101.6328
1250.746, 103.4956
1251.229, 99.83040
1251.711, 95.15358
1252.193, 97.89268
1252.675, 106.0288
1253.157, 107.4886
1253.639, 100.0949
1254.121, 98.08292
1254.603, 101.8481
1255.086, 107.5717
1255.568, 114.4629
1256.050, 116.1469
1256.532, 109.8383
1257.014, 101.6178
1257.496, 96.44785
1257.978, 93.50050
1258.460, 91.98009
1258.943, 91.88577
1259.425, 94.02990
1259.907, 97.00310
1260.389, 99.77167
1260.871, 101.4957
1261.353, 100.0802
1261.835, 95.20460
1262.317, 92.43767
1262.799, 93.55774
1263.281, 94.62919
1263.764, 95.76697
1264.246, 96.52180
1264.728, 97.07528
1265.210, 95.67761
1265.692, 90.92471
1266.174, 85.55238
1266.656, 82.81346
1267.138, 82.65109
1267.621, 86.47635
1268.103, 91.92736
1268.585, 94.44779
1269.067, 94.32019
1269.549, 91.57732
1270.031, 87.70861
1270.513, 86.48420
1270.995, 88.99372
1271.478, 95.22684
##END=



