##NAMES=Triplite
##RRUFFID=R050615
##IDEAL CHEMISTRY=Mn^2+^_2_(PO_4_)F
##LOCALITY=Vienna, Austria
##OWNER=RRUFF
##SOURCE=University of Arizona Mineral Museum
##DESCRIPTION=Brown massive
##STATUS=The identification of this mineral has been confirmed by X-ray diffraction and chemical analysis
##URL=rruff.info/R050615
##MEASURED CHEMISTRY=(Mn^2+^_1.09_Fe^2+^_0.88_Ca_0.02_Mg_0.01_)_Σ=2_(P_1.00_O_4_)(F_0.72_(OH)_0.28_)_Σ=1_ ; = light phase (triplite) while the dark phase is fluorapatite: (Ca_4.44_Mn^2+^_0.44_Fe^2+^_0.12_)_Σ=5_(P_1.00_O_4_)F_1.00_
92.06543, 279.7334
92.54755, 278.0937
93.02966, 279.0423
93.51178, 281.6017
93.99390, 282.5675
94.47601, 281.9696
94.95813, 280.3333
95.44025, 278.2749
95.92236, 276.2611
96.40448, 274.2131
96.88660, 272.1171
97.36871, 270.4839
97.85082, 268.6952
98.33294, 266.3480
98.81506, 263.2509
99.29717, 259.1958
99.77929, 254.7825
100.2614, 250.1096
100.7435, 246.1655
101.2256, 243.3620
101.7078, 241.3598
102.1899, 239.4152
102.6720, 237.0564
103.1541, 235.1729
103.6362, 234.5942
104.1183, 235.2755
104.6005, 236.1479
105.0826, 236.2896
105.5647, 235.5982
106.0468, 234.9442
106.5289, 234.7880
107.0110, 234.4610
107.4931, 233.3363
107.9753, 231.2484
108.4574, 228.8572
108.9395, 227.5104
109.4216, 228.0076
109.9037, 228.3555
110.3858, 228.1890
110.8680, 227.8198
111.3501, 227.6010
111.8322, 227.7310
112.3143, 228.1324
112.7964, 228.3193
113.2785, 228.2291
113.7607, 228.0154
114.2428, 227.8775
114.7249, 227.6753
115.2070, 226.9951
115.6891, 225.4271
116.1712, 222.9846
116.6534, 221.0494
117.1355, 219.9027
117.6176, 219.0239
118.0997, 217.9379
118.5818, 216.5808
119.0639, 215.4160
119.5461, 215.1568
120.0282, 215.5074
120.5103, 215.5834
120.9924, 215.0204
121.4745, 214.0057
121.9566, 212.9547
122.4388, 211.8975
122.9209, 210.8084
123.4030, 209.5895
123.8851, 208.3006
124.3672, 207.1392
124.8493, 206.4280
125.3315, 206.2253
125.8136, 205.5827
126.2957, 203.3622
126.7778, 201.4929
127.2599, 201.0309
127.7420, 201.9709
128.2242, 203.3915
128.7063, 204.0898
129.1884, 203.8371
129.6705, 203.2332
130.1526, 201.9482
130.6347, 200.5841
131.1169, 199.5506
131.5990, 198.9918
132.0811, 198.8326
132.5632, 198.9217
133.0453, 199.8962
133.5274, 200.3352
134.0096, 199.5061
134.4917, 198.2259
134.9738, 197.8049
135.4559, 198.9831
135.9380, 201.1302
136.4201, 202.0406
136.9023, 201.0714
137.3844, 200.0236
137.8665, 199.6971
138.3486, 199.9654
138.8307, 200.2843
139.3128, 200.4910
139.7950, 200.4629
140.2771, 199.9939
140.7592, 198.7412
141.2413, 197.3803
141.7234, 196.5799
142.2055, 196.3943
142.6877, 196.5107
143.1698, 196.8162
143.6519, 197.3046
144.1340, 198.0546
144.6161, 199.2693
145.0982, 200.6658
145.5803, 201.4859
146.0625, 201.4672
146.5446, 201.2258
147.0267, 200.7310
147.5088, 200.2273
147.9909, 200.1224
148.4730, 200.7949
148.9552, 202.1859
149.4373, 203.0642
149.9194, 203.1463
150.4015, 202.9229
150.8836, 202.4419
151.3657, 201.7398
151.8479, 200.7843
152.3300, 199.4529
152.8121, 197.4982
153.2942, 196.7497
153.7763, 198.0078
154.2584, 199.4857
154.7406, 200.5074
155.2227, 200.9198
155.7048, 200.7226
156.1869, 199.8119
156.6690, 197.8555
157.1511, 196.4043
157.6333, 195.6461
158.1154, 195.2696
158.5975, 195.0286
159.0796, 194.8719
159.5617, 194.8515
160.0438, 195.2070
160.5260, 196.0029
161.0081, 196.3026
161.4902, 195.4684
161.9723, 194.0577
162.4544, 193.1062
162.9365, 192.9402
163.4187, 193.1244
163.9008, 193.1351
164.3829, 192.9799
164.8650, 192.9193
165.3471, 193.2349
165.8292, 193.8439
166.3113, 194.1852
166.7935, 194.0383
167.2756, 193.6566
167.7577, 193.0923
168.2398, 192.3737
168.7219, 191.8854
169.2040, 192.1601
169.6862, 193.3527
170.1683, 194.2375
170.6504, 194.7407
171.1325, 194.7782
171.6146, 194.0440
172.0967, 192.5469
172.5789, 190.8543
173.0610, 189.7780
173.5431, 189.4989
174.0252, 189.4842
174.5073, 190.0602
174.9894, 190.6140
175.4716, 190.6345
175.9537, 189.9787
176.4358, 188.9494
176.9179, 188.1659
177.4000, 187.9558
177.8821, 187.5490
178.3643, 186.9639
178.8464, 186.1741
179.3285, 185.1075
179.8106, 183.7327
180.2927, 182.1641
180.7748, 180.7218
181.2570, 179.3727
181.7391, 178.1882
182.2212, 177.2365
182.7033, 176.4472
183.1854, 175.7075
183.6675, 174.9522
184.1497, 174.2427
184.6318, 173.8125
185.1139, 173.8517
185.5960, 173.8092
186.0781, 173.4635
186.5602, 172.8813
187.0423, 172.2496
187.5245, 171.6526
188.0066, 171.0617
188.4887, 170.3983
188.9708, 169.5989
189.4529, 168.8436
189.9350, 168.2316
190.4172, 167.7622
190.8993, 167.4188
191.3814, 167.3110
191.8635, 167.2624
192.3456, 166.9981
192.8277, 166.4046
193.3099, 165.7691
193.7920, 165.4392
194.2741, 165.4718
194.7562, 165.3813
195.2383, 164.8966
195.7204, 164.2169
196.2026, 163.4485
196.6847, 162.5824
197.1668, 161.7414
197.6489, 161.1038
198.1310, 160.6891
198.6131, 160.4414
199.0953, 160.6283
199.5774, 160.8298
200.0595, 160.6215
200.5416, 159.8192
201.0237, 158.6822
201.5058, 157.7845
201.9880, 157.2309
202.4701, 156.7461
202.9522, 156.3175
203.4343, 155.9052
203.9164, 155.3799
204.3985, 154.6707
204.8807, 153.9910
205.3628, 154.0310
205.8449, 155.6817
206.3270, 156.9151
206.8091, 157.6364
207.2912, 157.8039
207.7733, 157.2025
208.2555, 155.6998
208.7376, 153.6633
209.2197, 152.4652
209.7018, 152.8523
210.1839, 153.2988
210.6660, 153.9536
211.1482, 154.5168
211.6303, 154.5104
212.1124, 153.6502
212.5945, 152.1956
213.0766, 151.1891
213.5587, 150.9282
214.0409, 150.7182
214.5230, 150.4661
215.0051, 150.1691
215.4872, 149.7427
215.9693, 149.0716
216.4514, 148.3614
216.9336, 148.4748
217.4157, 150.1612
217.8978, 151.5105
218.3799, 151.7635
218.8620, 151.1946
219.3441, 150.4807
219.8263, 149.9316
220.3084, 149.4469
220.7905, 148.7305
221.2726, 147.5571
221.7547, 146.5498
222.2368, 146.0383
222.7190, 145.9590
223.2011, 146.0906
223.6832, 146.4651
224.1653, 146.8900
224.6474, 147.0235
225.1295, 146.8120
225.6117, 146.4509
226.0938, 145.9694
226.5759, 145.3952
227.0580, 144.9899
227.5401, 144.9518
228.0222, 145.0623
228.5043, 144.9942
228.9865, 144.6692
229.4686, 144.4203
229.9507, 144.6534
230.4328, 145.3625
230.9149, 145.8330
231.3970, 145.6378
231.8792, 145.2557
232.3613, 145.1113
232.8434, 145.2664
233.3255, 145.4768
233.8076, 145.5903
234.2897, 145.6277
234.7719, 145.3248
235.2540, 144.0645
235.7361, 142.8150
236.2182, 142.2118
236.7003, 142.3374
237.1824, 142.8008
237.6646, 143.2838
238.1467, 143.8390
238.6288, 144.1225
239.1109, 143.6921
239.5930, 143.2501
240.0751, 143.2977
240.5573, 143.8349
241.0394, 144.3401
241.5215, 144.1040
242.0036, 142.8632
242.4857, 141.9468
242.9678, 141.3494
243.4500, 141.1398
243.9321, 141.6747
244.4142, 142.8169
244.8963, 143.8651
245.3784, 143.8376
245.8605, 142.1928
246.3427, 141.4834
246.8248, 142.6283
247.3069, 143.8734
247.7890, 144.4666
248.2711, 144.3249
248.7532, 143.7167
249.2354, 142.8499
249.7175, 141.5945
250.1996, 140.6639
250.6817, 140.0731
251.1638, 139.7431
251.6459, 139.7490
252.1281, 140.0210
252.6102, 140.3781
253.0923, 140.6862
253.5744, 141.0056
254.0565, 140.8493
254.5386, 139.8603
255.0208, 138.8151
255.5029, 137.9323
255.9850, 137.2840
256.4671, 136.9529
256.9492, 137.0599
257.4313, 137.6698
257.9135, 137.9403
258.3956, 137.7152
258.8777, 137.3870
259.3598, 137.0596
259.8419, 136.7627
260.3240, 136.5294
260.8062, 136.3955
261.2883, 136.3602
261.7704, 136.2514
262.2525, 135.9339
262.7346, 135.6950
263.2167, 135.7118
263.6989, 135.9117
264.1810, 136.1111
264.6631, 136.2142
265.1452, 136.2083
265.6273, 135.9743
266.1094, 135.0354
266.5916, 134.4190
267.0737, 134.8125
267.5558, 135.8323
268.0379, 136.5347
268.5200, 136.3504
269.0021, 135.5243
269.4843, 135.0927
269.9664, 135.4406
270.4485, 135.6282
270.9306, 135.1788
271.4127, 134.3580
271.8948, 133.7451
272.3770, 133.6199
272.8591, 133.8045
273.3412, 133.8310
273.8233, 133.6041
274.3054, 133.4489
274.7875, 133.5349
275.2697, 133.7522
275.7518, 133.8996
276.2339, 133.9080
276.7160, 133.8154
277.1981, 133.6969
277.6802, 133.5881
278.1623, 133.3515
278.6444, 132.7727
279.1266, 132.0770
279.6087, 131.6815
280.0908, 131.7290
280.5729, 131.9574
281.0550, 131.9896
281.5371, 131.8202
282.0193, 131.7670
282.5014, 132.1881
282.9835, 132.6812
283.4656, 132.5655
283.9477, 131.6525
284.4298, 130.5571
284.9120, 129.9357
285.3941, 129.7244
285.8762, 129.5548
286.3583, 129.3179
286.8404, 129.0988
287.3225, 129.0487
287.8047, 129.2017
288.2868, 129.3249
288.7689, 129.2174
289.2510, 128.9208
289.7331, 128.5781
290.2152, 128.0981
290.6974, 127.6513
291.1795, 127.5215
291.6616, 127.7276
292.1437, 127.7586
292.6258, 127.1049
293.1079, 126.0859
293.5901, 125.4661
294.0722, 125.5122
294.5543, 125.7638
295.0364, 125.8589
295.5185, 125.8057
296.0006, 125.7526
296.4828, 125.8316
296.9649, 125.9033
297.4470, 125.6814
297.9291, 124.9633
298.4112, 124.4061
298.8933, 124.7690
299.3755, 125.8453
299.8576, 126.3170
300.3397, 125.4749
300.8218, 124.1065
301.3039, 123.2602
301.7860, 122.9629
302.2682, 122.9510
302.7503, 123.2709
303.2324, 123.7935
303.7145, 124.0624
304.1966, 123.9365
304.6787, 123.5964
305.1609, 123.1742
305.6430, 122.6825
306.1251, 122.2761
306.6072, 122.0081
307.0893, 121.8741
307.5714, 121.9398
308.0536, 122.3227
308.5357, 122.5950
309.0178, 122.2413
309.4999, 121.4672
309.9820, 120.8016
310.4641, 120.4151
310.9463, 120.2359
311.4284, 120.1942
311.9105, 120.3046
312.3926, 120.4707
312.8747, 120.8529
313.3568, 121.2049
313.8390, 121.0169
314.3211, 119.8216
314.8032, 118.4350
315.2853, 117.6648
315.7674, 117.5198
316.2495, 117.6892
316.7317, 118.3457
317.2138, 119.0630
317.6959, 119.1083
318.1780, 118.1381
318.6601, 117.2573
319.1422, 117.5198
319.6243, 118.7377
320.1064, 119.5688
320.5886, 119.4444
321.0707, 118.9225
321.5528, 118.7486
322.0349, 118.9475
322.5170, 119.1067
322.9991, 119.0408
323.4813, 118.7691
323.9634, 118.2850
324.4455, 117.4786
324.9276, 116.7021
325.4097, 116.3862
325.8918, 116.4410
326.3740, 116.4656
326.8561, 116.0886
327.3382, 115.6724
327.8203, 115.9290
328.3024, 117.0432
328.7845, 118.1557
329.2667, 118.6765
329.7488, 118.6962
330.2309, 118.3765
330.7130, 117.2808
331.1951, 116.1885
331.6772, 116.0211
332.1594, 116.7630
332.6415, 117.4703
333.1236, 117.6808
333.6057, 117.5019
334.0878, 117.2513
334.5699, 116.9800
335.0521, 116.5612
335.5342, 115.6084
336.0163, 114.3433
336.4984, 113.8393
336.9805, 114.8467
337.4626, 116.2484
337.9448, 116.1054
338.4269, 114.1828
338.9090, 112.6607
339.3911, 112.6968
339.8732, 113.6654
340.3553, 114.4275
340.8375, 114.7601
341.3196, 114.8550
341.8017, 114.8721
342.2838, 114.8177
342.7659, 114.7106
343.2480, 114.5045
343.7302, 114.2747
344.2123, 114.2021
344.6944, 114.2924
345.1765, 114.1044
345.6586, 113.0331
346.1407, 111.3658
346.6229, 110.7538
347.1050, 112.3281
347.5871, 113.9621
348.0692, 114.2899
348.5513, 113.5569
349.0334, 112.7026
349.5156, 112.1405
349.9977, 111.8093
350.4798, 111.5513
350.9619, 111.3554
351.4440, 111.2329
351.9261, 111.2573
352.4083, 111.3440
352.8904, 111.3559
353.3725, 111.2513
353.8546, 111.0649
354.3367, 110.8122
354.8188, 110.4415
355.3010, 110.2364
355.7831, 110.5528
356.2652, 110.8403
356.7473, 110.4059
357.2294, 109.2456
357.7115, 108.2014
358.1937, 108.0683
358.6758, 108.8994
359.1579, 109.3755
359.6400, 109.0509
360.1221, 108.8397
360.6042, 109.5383
361.0863, 110.7498
361.5685, 111.3105
362.0506, 110.4786
362.5327, 108.6675
363.0148, 107.5834
363.4969, 107.9118
363.9790, 108.0576
364.4612, 107.5511
364.9433, 106.8363
365.4254, 106.4685
365.9075, 106.6268
366.3896, 107.0965
366.8717, 107.5446
367.3539, 107.9571
367.8360, 108.3783
368.3181, 109.2259
368.8002, 109.7668
369.2823, 109.2064
369.7644, 107.7080
370.2466, 106.2769
370.7287, 105.8777
371.2108, 106.5943
371.6929, 106.8920
372.1750, 106.3800
372.6571, 105.8981
373.1393, 105.6132
373.6214, 105.5402
374.1035, 105.6576
374.5856, 105.9539
375.0677, 106.4322
375.5498, 107.1572
376.0320, 108.7860
376.5141, 109.6317
376.9962, 108.9337
377.4783, 107.8224
377.9604, 107.3273
378.4425, 107.6781
378.9247, 108.3189
379.4068, 108.4072
379.8889, 107.6200
380.3710, 107.4205
380.8531, 108.6072
381.3352, 109.6653
381.8174, 109.8725
382.2995, 109.3522
382.7816, 108.6072
383.2637, 107.9014
383.7458, 107.2961
384.2279, 107.2976
384.7101, 108.4584
385.1922, 109.3901
385.6743, 109.6482
386.1564, 109.4864
386.6385, 109.1117
387.1206, 108.5478
387.6028, 108.1050
388.0849, 108.3880
388.5670, 109.5784
389.0491, 110.6275
389.5312, 111.4386
390.0133, 111.9138
390.4955, 111.7767
390.9776, 111.0740
391.4597, 110.4730
391.9418, 110.5771
392.4239, 111.2687
392.9060, 111.8425
393.3882, 112.1761
393.8703, 112.5223
394.3524, 113.1906
394.8345, 113.9929
395.3166, 114.4843
395.7987, 114.2023
396.2809, 113.7635
396.7630, 114.1709
397.2451, 115.4964
397.7272, 116.5915
398.2093, 116.7991
398.6914, 116.5566
399.1736, 116.5342
399.6557, 116.7331
400.1378, 117.2229
400.6199, 118.2374
401.1020, 119.5794
401.5841, 120.6699
402.0662, 121.3078
402.5483, 121.8714
403.0305, 122.8309
403.5126, 124.1575
403.9947, 125.4753
404.4768, 126.7843
404.9589, 128.0128
405.4410, 129.0572
405.9232, 129.9234
406.4053, 130.7157
406.8874, 131.4307
407.3695, 132.1454
407.8516, 133.2673
408.3337, 134.7671
408.8159, 136.6325
409.2980, 139.1291
409.7801, 141.9326
410.2622, 144.5385
410.7443, 146.7970
411.2264, 148.8034
411.7086, 150.7116
412.1907, 152.4642
412.6728, 154.2436
413.1549, 155.5420
413.6370, 157.2634
414.1191, 160.5274
414.6013, 164.9700
415.0834, 168.9965
415.5655, 171.2797
416.0476, 171.9375
416.5297, 172.8757
417.0118, 174.2259
417.4940, 175.7148
417.9761, 177.2954
418.4582, 178.9972
418.9403, 180.9647
419.4224, 183.2451
419.9045, 185.4686
420.3867, 186.9619
420.8688, 187.4441
421.3509, 187.9139
421.8330, 188.4973
422.3151, 189.0053
422.7972, 189.3401
423.2794, 189.5017
423.7615, 189.5507
424.2436, 189.5866
424.7257, 189.5569
425.2078, 189.1325
425.6899, 188.3922
426.1721, 187.0730
426.6542, 184.5556
427.1363, 181.6862
427.6184, 179.6028
428.1005, 178.7870
428.5826, 178.1797
429.0648, 176.5828
429.5469, 173.9830
430.0290, 170.7840
430.5111, 166.6832
430.9932, 162.4429
431.4753, 158.5540
431.9575, 155.0475
432.4396, 152.1635
432.9217, 150.4817
433.4038, 149.3526
433.8859, 147.5268
434.3680, 144.8659
434.8502, 142.3691
435.3323, 140.7329
435.8144, 139.7287
436.2965, 138.5948
436.7786, 137.0478
437.2607, 135.7620
437.7429, 135.2035
438.2250, 135.1742
438.7071, 135.3060
439.1892, 135.5328
439.6713, 135.6394
440.1534, 135.2415
440.6356, 134.1518
441.1177, 133.4284
441.5998, 133.2713
442.0819, 133.3848
442.5640, 133.7183
443.0461, 134.1674
443.5282, 134.4114
444.0103, 134.1876
444.4925, 133.6293
444.9746, 133.4910
445.4567, 134.2132
445.9388, 134.8171
446.4209, 135.1205
446.9030, 135.2968
447.3852, 135.4792
447.8673, 135.7206
448.3494, 136.0836
448.8315, 136.7064
449.3136, 137.7091
449.7957, 138.3596
450.2779, 138.2517
450.7600, 138.1881
451.2421, 138.6153
451.7242, 139.2686
452.2063, 139.5952
452.6884, 139.2502
453.1706, 138.5212
453.6527, 138.1161
454.1348, 138.1763
454.6169, 138.1189
455.0990, 137.8173
455.5811, 137.3287
456.0633, 136.6495
456.5454, 135.7890
457.0275, 134.8283
457.5096, 133.5905
457.9917, 132.2745
458.4738, 131.7559
458.9560, 132.4383
459.4381, 132.9187
459.9202, 131.9407
460.4023, 130.1429
460.8844, 128.7076
461.3665, 128.1393
461.8487, 127.5456
462.3308, 126.0444
462.8129, 123.9205
463.2950, 122.2032
463.7771, 121.2553
464.2592, 120.7170
464.7414, 120.1318
465.2235, 119.5140
465.7056, 118.7511
466.1877, 117.6077
466.6698, 116.4750
467.1519, 115.7075
467.6341, 115.2626
468.1162, 114.8551
468.5983, 114.2948
469.0804, 113.6383
469.5625, 113.1678
470.0446, 113.1204
470.5268, 112.9620
471.0089, 112.7512
471.4910, 112.3564
471.9731, 111.6261
472.4552, 110.5499
472.9373, 109.2294
473.4195, 107.6199
473.9016, 105.6223
474.3837, 104.7153
474.8658, 106.1660
475.3479, 107.3511
475.8300, 107.5920
476.3122, 107.1026
476.7943, 106.1259
477.2764, 104.7052
477.7585, 103.2066
478.2406, 102.1789
478.7227, 101.6577
479.2049, 101.3296
479.6870, 101.2354
480.1691, 101.2355
480.6512, 101.3287
481.1333, 101.4570
481.6154, 101.3674
482.0976, 100.8160
482.5797, 100.0284
483.0618, 99.22045
483.5439, 98.38322
484.0260, 98.04350
484.5081, 98.82496
484.9902, 100.0066
485.4724, 99.98306
485.9545, 98.31647
486.4366, 96.83059
486.9187, 96.14146
487.4008, 95.98748
487.8829, 96.16438
488.3651, 96.60151
488.8472, 96.95589
489.3293, 96.88631
489.8114, 96.39719
490.2935, 96.16879
490.7756, 96.43420
491.2578, 96.63795
491.7399, 96.67188
492.2220, 96.53638
492.7041, 96.21389
493.1862, 95.70696
493.6683, 95.09081
494.1505, 94.43443
494.6326, 93.65964
495.1147, 93.16238
495.5968, 93.04079
496.0789, 93.11574
496.5610, 93.47868
497.0432, 93.97445
497.5253, 94.35471
498.0074, 94.50441
498.4895, 94.43210
498.9716, 94.09731
499.4537, 93.45238
499.9359, 92.84615
500.4180, 92.41264
500.9001, 91.98963
501.3822, 91.28670
501.8643, 90.36864
502.3464, 89.86584
502.8286, 90.44489
503.3107, 91.44646
503.7928, 91.86652
504.2749, 91.67075
504.7570, 91.28114
505.2391, 90.84789
505.7213, 90.41797
506.2034, 90.12915
506.6855, 90.03549
507.1676, 89.93565
507.6497, 89.82152
508.1318, 89.64930
508.6140, 89.28186
509.0961, 88.74344
509.5782, 88.34290
510.0603, 88.39349
510.5424, 88.85974
511.0245, 89.00323
511.5067, 88.63632
511.9888, 88.16969
512.4709, 87.57812
512.9530, 86.96486
513.4351, 86.33267
513.9172, 85.72444
514.3994, 85.39936
514.8815, 85.89947
515.3636, 87.35526
515.8457, 87.86563
516.3278, 86.80077
516.8099, 85.59490
517.2921, 84.65971
517.7742, 84.02729
518.2563, 83.75064
518.7384, 83.86839
519.2205, 84.26869
519.7026, 85.06989
520.1848, 86.16419
520.6669, 86.66208
521.1490, 86.24940
521.6311, 85.45617
522.1132, 84.62732
522.5953, 83.80626
523.0775, 83.36391
523.5596, 83.45991
524.0417, 83.86884
524.5238, 84.73898
525.0059, 85.81108
525.4880, 86.36579
525.9702, 86.08676
526.4523, 85.29878
526.9344, 84.52463
527.4165, 83.75416
527.8986, 83.04667
528.3807, 82.20924
528.8629, 81.60442
529.3450, 81.46925
529.8271, 81.73015
530.3092, 82.27519
530.7913, 83.08280
531.2734, 83.89839
531.7556, 84.03022
532.2377, 83.19657
532.7198, 82.47546
533.2019, 81.88469
533.6840, 81.56084
534.1661, 81.78798
534.6483, 82.41502
535.1304, 82.83513
535.6125, 82.54116
536.0946, 81.93005
536.5767, 81.77454
537.0588, 82.09949
537.5410, 82.31236
538.0231, 80.70994
538.5052, 82.37634
538.9873, 83.36169
539.4694, 83.70259
539.9515, 81.46885
540.4337, 82.55975
540.9158, 82.31827
541.3979, 82.02216
541.8800, 83.58097
542.3621, 81.72172
542.8442, 83.25109
543.3264, 83.42783
543.8085, 84.22360
544.2906, 83.67882
544.7726, 83.54807
545.2548, 84.75838
545.7369, 85.22613
546.2190, 84.52702
546.7011, 85.36217
547.1832, 83.45609
547.6653, 83.95546
548.1475, 85.49273
548.6296, 84.86102
549.1117, 85.72067
549.5938, 85.06332
550.0759, 85.50191
550.5580, 85.84389
551.0402, 86.11087
551.5223, 86.29220
552.0044, 86.25463
552.4865, 85.43056
552.9686, 84.51696
553.4507, 85.09849
553.9329, 87.24574
554.4150, 88.93443
554.8971, 88.92296
555.3792, 87.89998
555.8613, 87.65722
556.3434, 88.52340
556.8256, 89.17831
557.3077, 89.05122
557.7898, 88.82814
558.2719, 89.21922
558.7540, 90.17228
559.2361, 91.12505
559.7183, 91.69207
560.2004, 91.94655
560.6825, 92.19035
561.1646, 92.25928
561.6467, 92.61279
562.1288, 93.61697
562.6110, 94.63081
563.0931, 95.11289
563.5752, 95.12365
564.0573, 95.18699
564.5394, 95.67320
565.0215, 96.46853
565.5037, 97.37376
565.9858, 98.45471
566.4679, 99.19823
566.9500, 99.08878
567.4321, 98.82687
567.9142, 99.53213
568.3964, 101.3114
568.8785, 102.5191
569.3606, 102.1346
569.8427, 101.2374
570.3248, 100.7891
570.8069, 100.8454
571.2891, 101.3351
571.7712, 102.2820
572.2533, 103.4451
572.7354, 104.2188
573.2175, 104.4698
573.6996, 104.5314
574.1818, 104.0865
574.6639, 103.7439
575.1460, 104.0537
575.6281, 104.7863
576.1102, 105.2501
576.5923, 104.9893
577.0745, 104.3950
577.5566, 104.4083
578.0387, 105.1843
578.5208, 105.6917
579.0029, 105.3219
579.4850, 105.0664
579.9672, 105.8437
580.4493, 107.4162
580.9314, 108.7438
581.4135, 109.2599
581.8956, 109.5254
582.3777, 109.9544
582.8599, 110.5765
583.3420, 111.6214
583.8241, 113.2508
584.3062, 114.9262
584.7883, 115.8385
585.2704, 115.7137
585.7526, 116.2289
586.2347, 117.8624
586.7168, 119.5812
587.1989, 121.0050
587.6810, 122.2002
588.1631, 123.2370
588.6453, 124.1568
589.1274, 125.1797
589.6095, 126.6716
590.0916, 128.6966
590.5737, 130.6301
591.0558, 132.5261
591.5380, 134.2409
592.0201, 135.4892
592.5022, 136.5903
592.9843, 138.1463
593.4664, 140.4878
593.9485, 142.5644
594.4307, 143.2439
594.9128, 143.0891
595.3949, 143.4744
595.8770, 144.6300
596.3591, 145.8822
596.8412, 146.7248
597.3234, 147.2193
597.8055, 147.7942
598.2876, 148.9154
598.7697, 149.4961
599.2518, 149.2311
599.7339, 148.4326
600.2161, 147.3196
600.6982, 145.9621
601.1803, 144.4297
601.6624, 142.7954
602.1445, 141.0049
602.6266, 138.6744
603.1088, 135.2850
603.5909, 132.7355
604.0730, 132.4846
604.5551, 132.5611
605.0372, 131.4301
605.5193, 129.1372
606.0015, 126.9127
606.4836, 125.2494
606.9657, 124.0139
607.4478, 123.3775
607.9299, 123.1612
608.4120, 122.1498
608.8942, 119.6708
609.3763, 116.8425
609.8584, 115.4399
610.3405, 116.0086
610.8226, 116.0768
611.3047, 115.6676
611.7869, 114.7638
612.2690, 113.0277
612.7511, 110.8876
613.2332, 109.0299
613.7153, 107.7073
614.1974, 106.5881
614.6796, 105.0514
615.1617, 103.0307
615.6438, 101.9382
616.1259, 102.4616
616.6080, 102.7822
617.0901, 101.5424
617.5723, 99.66561
618.0544, 98.53972
618.5365, 98.58144
619.0186, 98.66233
619.5007, 98.10770
619.9828, 97.18605
620.4650, 96.29896
620.9471, 95.49442
621.4292, 94.62865
621.9113, 93.52087
622.3934, 92.37974
622.8755, 92.03183
623.3577, 93.23633
623.8398, 94.17427
624.3219, 94.96309
624.8040, 95.36311
625.2861, 95.02959
625.7682, 94.15347
626.2504, 93.27867
626.7325, 92.74443
627.2145, 92.32535
627.6967, 91.45609
628.1788, 90.09421
628.6609, 89.33550
629.1430, 89.62598
629.6251, 90.20237
630.1072, 90.49511
630.5894, 90.52660
631.0715, 90.30816
631.5536, 89.58273
632.0357, 88.88984
632.5178, 88.47384
632.9999, 88.27544
633.4821, 88.25027
633.9642, 88.36756
634.4463, 88.48856
634.9284, 88.45902
635.4105, 88.67259
635.8926, 88.38536
636.3748, 88.97385
636.8569, 89.37524
637.3390, 89.45878
637.8211, 89.34148
638.3032, 89.05179
638.7853, 88.63024
639.2675, 88.22362
639.7496, 87.91170
640.2317, 87.67981
640.7138, 87.47626
641.1959, 87.31092
641.6780, 87.35863
642.1602, 87.78239
642.6423, 88.16564
643.1244, 87.80423
643.6065, 86.45440
644.0886, 86.06010
644.5707, 87.65643
645.0529, 89.05388
645.5350, 89.11941
646.0171, 88.52576
646.4992, 88.27129
646.9813, 88.62390
647.4634, 89.14133
647.9456, 89.32804
648.4277, 89.21999
648.9098, 89.31606
649.3919, 89.82715
649.8740, 89.98119
650.3561, 89.08222
650.8383, 87.92088
651.3204, 87.32322
651.8025, 87.33768
652.2846, 87.77595
652.7667, 89.06974
653.2488, 90.37431
653.7310, 90.92728
654.2131, 90.76103
654.6952, 89.88016
655.1773, 88.23569
655.6594, 86.72670
656.1415, 86.92676
656.6237, 89.40916
657.1058, 90.92429
657.5879, 90.74213
658.0700, 90.34966
658.5521, 89.89420
659.0342, 89.55655
659.5164, 89.69430
659.9985, 90.37666
660.4806, 90.82718
660.9627, 90.06873
661.4448, 88.69444
661.9269, 88.21848
662.4091, 88.71929
662.8912, 89.07453
663.3733, 88.65306
663.8554, 87.90608
664.3375, 87.75089
664.8196, 88.46425
665.3018, 88.98135
665.7839, 89.28445
666.2660, 89.38452
666.7481, 89.11510
667.2302, 88.69526
667.7123, 88.46204
668.1945, 88.54224
668.6766, 88.85961
669.1587, 89.43316
669.6408, 90.23052
670.1229, 90.71910
670.6050, 90.80655
671.0872, 90.81074
671.5693, 90.84902
672.0514, 90.91660
672.5335, 90.98202
673.0156, 91.01845
673.4977, 91.17786
673.9799, 91.70028
674.4620, 92.20173
674.9441, 92.34786
675.4262, 92.19296
675.9083, 91.92341
676.3904, 91.62062
676.8726, 91.31618
677.3547, 91.02351
677.8368, 90.70171
678.3189, 90.69273
678.8010, 91.31796
679.2831, 91.78879
679.7653, 91.60353
680.2474, 91.19849
680.7295, 91.17205
681.2116, 91.65565
681.6937, 92.02679
682.1758, 91.95300
682.6580, 91.56837
683.1401, 90.75325
683.6222, 89.70064
684.1043, 89.34973
684.5864, 90.19184
685.0685, 91.60619
685.5507, 92.55825
686.0328, 93.02663
686.5149, 93.11129
686.9970, 92.54115
687.4791, 91.88205
687.9612, 91.02953
688.4434, 90.30627
688.9255, 90.18459
689.4076, 90.76031
689.8897, 91.43907
690.3718, 91.91631
690.8539, 92.12411
691.3361, 91.77940
691.8182, 90.91187
692.3003, 90.17799
692.7824, 89.85944
693.2645, 89.80466
693.7466, 89.76445
694.2288, 89.69180
694.7109, 89.85152
695.1930, 90.65249
695.6751, 91.19758
696.1572, 91.06161
696.6393, 90.54439
697.1215, 89.99178
697.6036, 89.50217
698.0857, 89.05354
698.5678, 88.66196
699.0499, 88.28928
699.5320, 87.83281
700.0142, 87.29652
700.4963, 86.58074
700.9784, 85.51253
701.4605, 84.49056
701.9426, 84.10712
702.4247, 84.46059
702.9069, 84.76196
703.3890, 85.04118
703.8711, 85.22215
704.3532, 85.18745
704.8353, 85.08397
705.3174, 85.12754
705.7996, 85.33344
706.2817, 85.51994
706.7638, 85.62654
707.2459, 85.53368
707.7280, 84.63236
708.2101, 82.78056
708.6923, 81.51571
709.1743, 81.46130
709.6564, 81.84919
710.1385, 81.91566
710.6207, 81.68077
711.1028, 81.38139
711.5849, 80.66412
712.0670, 80.32158
712.5491, 81.04858
713.0313, 82.08161
713.5134, 82.57128
713.9955, 82.41009
714.4776, 81.91234
714.9597, 81.23818
715.4418, 80.53712
715.9240, 80.29124
716.4061, 80.57735
716.8882, 80.64546
717.3703, 80.27988
717.8524, 79.78423
718.3345, 79.38308
718.8167, 79.05423
719.2988, 78.69608
719.7809, 77.96082
720.2630, 77.72045
720.7451, 78.92493
721.2272, 80.31675
721.7094, 80.52663
722.1915, 79.64707
722.6736, 78.62801
723.1557, 78.02959
723.6378, 77.64524
724.1199, 76.96407
724.6021, 75.91564
725.0842, 75.44862
725.5663, 75.86296
726.0484, 76.44687
726.5305, 76.86256
727.0126, 77.12305
727.4948, 77.25022
727.9769, 77.24333
728.4590, 77.10828
728.9411, 76.50539
729.4232, 76.05779
729.9053, 76.60239
730.3875, 77.72221
730.8696, 78.30157
731.3517, 77.87225
731.8338, 77.00363
732.3159, 76.45805
732.7980, 76.23652
733.2802, 76.05437
733.7623, 75.99684
734.2444, 75.70815
734.7265, 74.66176
735.2086, 73.58367
735.6907, 73.64317
736.1729, 74.94578
736.6550, 75.85215
737.1371, 75.49937
737.6192, 75.20802
738.1013, 76.14346
738.5834, 77.53426
739.0656, 77.98911
739.5477, 77.25777
740.0298, 76.32329
740.5119, 76.11181
740.9940, 76.47691
741.4761, 76.89980
741.9583, 77.45490
742.4404, 77.59511
742.9225, 76.99886
743.4046, 76.18597
743.8867, 75.48380
744.3688, 74.94836
744.8510, 74.98122
745.3331, 76.32104
745.8152, 77.34745
746.2973, 77.40110
746.7794, 76.97590
747.2615, 76.42434
747.7437, 75.88278
748.2258, 75.50351
748.7079, 75.38912
749.1900, 75.45290
749.6721, 75.56812
750.1542, 75.73399
750.6364, 75.85233
751.1185, 75.87381
751.6006, 75.98464
752.0827, 76.42810
752.5648, 76.99641
753.0469, 77.06355
753.5291, 76.31712
754.0112, 75.94202
754.4933, 76.36781
754.9754, 76.93169
755.4575, 77.25645
755.9396, 77.41345
756.4218, 77.60001
756.9039, 77.87791
757.3860, 78.12545
757.8681, 78.31435
758.3502, 78.36607
758.8323, 77.79738
759.3145, 76.56448
759.7966, 75.87557
760.2787, 76.33788
760.7608, 77.16393
761.2429, 77.32178
761.7250, 76.72785
762.2072, 76.45806
762.6893, 76.64684
763.1714, 76.96088
763.6535, 77.40620
764.1356, 77.88305
764.6177, 78.46329
765.0999, 79.02266
765.5820, 79.06436
766.0641, 77.96924
766.5462, 76.85734
767.0283, 77.68803
767.5104, 79.80887
767.9926, 80.54023
768.4747, 79.40940
768.9568, 78.15252
769.4389, 78.02205
769.9210, 78.64989
770.4031, 78.80527
770.8853, 78.00622
771.3674, 77.68130
771.8495, 78.28812
772.3316, 78.85560
772.8137, 78.98190
773.2958, 78.80358
773.7780, 78.46415
774.2601, 77.97825
774.7422, 77.72813
775.2243, 78.09213
775.7064, 78.73895
776.1885, 79.38534
776.6707, 79.94616
777.1528, 80.14332
777.6349, 79.88198
778.1170, 79.50715
778.5991, 79.45686
779.0812, 79.70409
779.5634, 79.67022
780.0455, 79.19126
780.5276, 78.79100
781.0097, 78.43505
781.4918, 78.34820
781.9739, 78.96419
782.4561, 80.04800
782.9382, 80.59805
783.4203, 80.07027
783.9024, 79.44422
784.3845, 79.06596
784.8666, 78.91577
785.3488, 79.11159
785.8309, 79.53465
786.3130, 79.79133
786.7951, 79.66043
787.2772, 79.31936
787.7593, 79.06116
788.2415, 78.88402
788.7236, 78.61303
789.2057, 78.16546
789.6878, 77.91424
790.1699, 78.10181
790.6520, 78.53442
791.1342, 78.86673
791.6162, 79.05481
792.0983, 79.41785
792.5804, 80.54814
793.0626, 81.18462
793.5447, 80.42736
794.0268, 79.15015
794.5089, 78.19321
794.9910, 77.76962
795.4731, 77.94253
795.9553, 79.10652
796.4374, 80.38744
796.9195, 80.26144
797.4016, 79.02885
797.8837, 77.89387
798.3658, 77.06066
798.8480, 76.92907
799.3301, 77.99348
799.8122, 79.70358
800.2943, 80.12350
800.7764, 78.23482
801.2585, 77.24831
801.7407, 77.95454
802.2228, 78.75285
802.7049, 79.12479
803.1870, 79.19235
803.6691, 79.14100
804.1512, 79.00380
804.6334, 78.74181
805.1155, 78.22820
805.5976, 77.67605
806.0797, 77.19207
806.5618, 76.84656
807.0439, 76.88535
807.5261, 77.31804
808.0082, 77.62405
808.4903, 77.24078
808.9724, 76.42706
809.4545, 76.18358
809.9366, 76.56770
810.4188, 77.20928
810.9009, 78.33184
811.3830, 79.10690
811.8651, 78.60946
812.3472, 77.29433
812.8293, 76.86933
813.3115, 78.07113
813.7936, 78.58543
814.2757, 77.38603
814.7578, 76.10384
815.2399, 75.81599
815.7220, 76.12732
816.2042, 76.24135
816.6863, 75.94276
817.1684, 75.67092
817.6505, 76.04308
818.1326, 76.57864
818.6147, 76.20914
819.0969, 75.11555
819.5790, 74.30418
820.0611, 74.06156
820.5432, 74.13589
821.0253, 74.33073
821.5074, 74.60832
821.9896, 74.70441
822.4717, 74.51244
822.9538, 74.38210
823.4359, 74.35623
823.9180, 74.39583
824.4001, 74.77864
824.8823, 75.13483
825.3644, 74.56873
825.8465, 72.57484
826.3286, 71.18977
826.8107, 71.69162
827.2928, 72.64555
827.7750, 72.96031
828.2571, 72.80279
828.7392, 72.66819
829.2213, 72.68812
829.7034, 72.59243
830.1855, 72.01965
830.6677, 71.21387
831.1498, 70.96333
831.6319, 71.24870
832.1140, 71.28355
832.5961, 70.80693
833.0782, 70.44669
833.5604, 70.79393
834.0425, 71.63670
834.5246, 72.07531
835.0067, 71.96575
835.4888, 71.67771
835.9709, 70.86762
836.4531, 70.26854
836.9352, 70.40292
837.4173, 70.85809
837.8994, 70.99691
838.3815, 70.69633
838.8636, 70.39224
839.3458, 70.12578
839.8279, 70.11240
840.3100, 70.96678
840.7921, 72.09850
841.2742, 72.12511
841.7563, 70.92172
842.2385, 69.84224
842.7206, 70.04771
843.2027, 70.96096
843.6848, 71.07418
844.1669, 70.37033
844.6490, 69.75436
845.1312, 69.30755
845.6133, 69.10352
846.0954, 69.32434
846.5775, 69.69565
847.0596, 69.59172
847.5417, 68.80137
848.0239, 68.18547
848.5060, 67.89079
848.9881, 67.58286
849.4702, 66.83237
849.9523, 66.22279
850.4344, 66.65205
850.9166, 67.97379
851.3987, 68.80816
851.8808, 68.19433
852.3629, 67.32043
852.8450, 67.19630
853.3271, 67.45807
853.8093, 67.49191
854.2914, 67.28612
854.7735, 67.26221
855.2556, 67.66878
855.7377, 68.11887
856.2198, 67.86596
856.7020, 66.94984
857.1841, 66.36835
857.6662, 66.15118
858.1483, 66.24541
858.6304, 66.81311
859.1125, 67.35755
859.5947, 67.20652
860.0768, 66.35438
860.5589, 65.84167
861.0410, 66.04782
861.5231, 66.04570
862.0052, 65.32030
862.4874, 64.73217
862.9695, 65.11827
863.4516, 66.04745
863.9337, 66.48545
864.4158, 66.09550
864.8979, 65.51006
865.3801, 64.96024
865.8622, 64.53399
866.3443, 64.41108
866.8264, 64.48003
867.3085, 64.49555
867.7906, 64.38000
868.2728, 64.14527
868.7549, 63.73126
869.2370, 63.29828
869.7191, 63.35678
870.2012, 63.90368
870.6833, 64.57526
871.1655, 65.41682
871.6476, 65.80271
872.1297, 65.09059
872.6118, 63.88067
873.0939, 63.76477
873.5760, 65.39949
874.0581, 66.18174
874.5402, 65.43023
875.0223, 64.62389
875.5045, 64.08385
875.9866, 63.73101
876.4687, 63.52299
876.9508, 63.43288
877.4329, 63.30803
877.9150, 62.91975
878.3972, 62.71891
878.8793, 63.32517
879.3614, 63.98340
879.8435, 63.63693
880.3256, 62.54675
880.8077, 61.68059
881.2899, 61.46938
881.7720, 61.77119
882.2541, 62.72680
882.7362, 64.00522
883.2183, 64.58963
883.7004, 64.51238
884.1826, 64.23344
884.6647, 63.87607
885.1468, 63.56645
885.6289, 63.44146
886.1110, 63.46203
886.5931, 63.42454
887.0753, 63.32444
887.5574, 63.19086
888.0395, 63.13413
888.5216, 62.87813
889.0037, 61.79692
889.4858, 60.62209
889.9680, 60.77367
890.4501, 62.58735
890.9322, 63.74752
891.4143, 63.68531
891.8964, 63.20668
892.3785, 62.27096
892.8607, 61.34251
893.3428, 60.83284
893.8249, 60.78414
894.3070, 61.17048
894.7891, 62.14718
895.2712, 63.04260
895.7534, 63.14059
896.2355, 62.82854
896.7176, 62.68060
897.1997, 62.70296
897.6818, 62.67873
898.1639, 62.53055
898.6461, 62.44517
899.1282, 62.72189
899.6103, 63.19587
900.0924, 63.04572
900.5745, 62.23335
901.0566, 61.62667
901.5388, 61.35752
902.0209, 61.53084
902.5030, 62.42291
902.9851, 63.61661
903.4672, 63.86868
903.9493, 62.64966
904.4315, 61.98433
904.9136, 62.10936
905.3957, 62.49460
905.8778, 63.54850
906.3599, 64.38075
906.8420, 63.78690
907.3242, 61.94550
907.8063, 60.66938
908.2884, 60.65888
908.7705, 60.91034
909.2526, 61.15516
909.7347, 61.41370
910.2169, 61.73648
910.6990, 62.08173
911.1811, 62.40950
911.6632, 62.70009
912.1453, 62.77929
912.6274, 62.24801
913.1096, 61.58537
913.5917, 61.63507
914.0738, 62.15522
914.5559, 62.39519
915.0380, 62.22465
915.5201, 62.04308
916.0023, 62.13239
916.4844, 62.41234
916.9665, 62.80981
917.4486, 63.32022
917.9307, 63.30243
918.4128, 62.58845
918.8950, 62.20882
919.3771, 62.68470
919.8592, 63.42254
920.3413, 63.61982
920.8234, 63.30286
921.3055, 63.59373
921.7877, 65.19494
922.2698, 66.16078
922.7519, 65.77322
923.2340, 65.22749
923.7161, 64.81750
924.1982, 64.77718
924.6804, 65.79033
925.1625, 68.23723
925.6446, 69.64281
926.1267, 68.33398
926.6088, 67.07617
927.0909, 67.58213
927.5731, 68.64857
928.0552, 68.86606
928.5373, 68.26009
929.0194, 67.67536
929.5015, 67.46305
929.9836, 67.51295
930.4658, 67.78335
930.9479, 68.22556
931.4300, 68.80698
931.9121, 69.49582
932.3942, 70.28279
932.8763, 71.13358
933.3585, 71.79773
933.8406, 71.99355
934.3227, 71.90746
934.8048, 71.84867
935.2869, 71.87135
935.7690, 72.62789
936.2512, 74.23685
936.7333, 75.79169
937.2154, 76.82225
937.6975, 77.44130
938.1796, 77.80484
938.6617, 77.90266
939.1439, 77.91353
939.6260, 77.60143
940.1081, 77.89269
940.5902, 79.40298
941.0723, 80.98535
941.5544, 81.56580
942.0366, 81.52538
942.5187, 82.27355
943.0008, 84.48528
943.4829, 85.82531
943.9650, 85.27640
944.4471, 84.95834
944.9293, 85.67368
945.4114, 87.00481
945.8935, 88.71120
946.3756, 90.63795
946.8577, 92.18247
947.3398, 92.74718
947.8220, 93.65077
948.3041, 95.88188
948.7862, 98.40266
949.2683, 100.3306
949.7504, 101.7919
950.2325, 103.1095
950.7147, 104.4180
951.1968, 105.9576
951.6789, 108.0695
952.1610, 110.3379
952.6431, 112.0303
953.1252, 113.5646
953.6074, 115.8294
954.0895, 118.8971
954.5716, 122.5634
955.0537, 126.7539
955.5358, 130.8195
956.0179, 133.6663
956.5000, 135.6360
956.9821, 138.0517
957.4642, 140.9595
957.9464, 145.3418
958.4285, 151.5503
958.9106, 157.9210
959.3927, 163.0682
959.8748, 167.6801
960.3569, 173.6608
960.8391, 179.2193
961.3212, 184.5742
961.8033, 191.7707
962.2854, 196.6664
962.7675, 204.0013
963.2496, 212.2100
963.7318, 219.6502
964.2139, 226.4925
964.6960, 234.1585
965.1781, 242.9849
965.6602, 252.0592
966.1423, 260.8571
966.6245, 270.4602
967.1066, 281.9165
967.5887, 294.1225
968.0708, 305.7342
968.5529, 316.6977
969.0350, 327.4984
969.5172, 338.0016
969.9993, 348.6857
970.4814, 359.2152
970.9635, 370.3861
971.4456, 382.9462
971.9277, 396.5049
972.4099, 410.4753
972.8920, 424.6562
973.3741, 438.3883
973.8562, 450.9501
974.3383, 463.2950
974.8204, 476.3320
975.3026, 489.4563
975.7847, 502.0011
976.2668, 513.7878
976.7489, 525.0739
977.2310, 535.9639
977.7131, 545.0674
978.1953, 551.7155
978.6774, 555.2052
979.1595, 554.2280
979.6416, 549.0998
980.1237, 540.7542
980.6058, 529.3993
981.0880, 515.0496
981.5701, 497.7326
982.0522, 477.6658
982.5343, 455.0427
983.0164, 430.2032
983.4985, 404.2474
983.9807, 377.3768
984.4628, 351.2120
984.9449, 326.2516
985.4270, 302.8231
985.9091, 281.1630
986.3912, 261.3786
986.8734, 243.6573
987.3555, 228.0477
987.8376, 214.2966
988.3197, 202.4447
988.8018, 192.2356
989.2839, 183.9355
989.7661, 176.4582
990.2482, 168.5278
990.7303, 160.3628
991.2124, 153.3226
991.6945, 147.2660
992.1766, 142.7234
992.6588, 140.5521
993.1409, 138.6021
993.6230, 136.0558
994.1051, 133.1564
994.5872, 130.0450
995.0693, 126.7344
995.5515, 124.0020
996.0336, 122.4357
996.5157, 120.5703
996.9978, 117.7090
997.4799, 115.0937
997.9620, 113.3556
998.4442, 112.2994
998.9263, 111.8978
999.4084, 112.1290
999.8905, 111.6234
1000.373, 109.1514
1000.855, 107.0857
1001.337, 106.4843
1001.819, 106.4266
1002.301, 106.3887
1002.783, 106.2571
1003.265, 105.8779
1003.747, 105.2233
1004.230, 104.7981
1004.712, 105.1210
1005.194, 105.4440
1005.676, 105.2551
1006.158, 104.8113
1006.640, 104.2674
1007.122, 103.7677
1007.604, 103.6225
1008.086, 103.9367
1008.569, 104.2338
1009.051, 104.2179
1009.533, 103.9336
1010.015, 103.2565
1010.497, 102.4264
1010.979, 101.8286
1011.461, 101.5028
1011.943, 101.2942
1012.426, 101.1317
1012.908, 101.1964
1013.390, 102.0231
1013.872, 103.0112
1014.354, 102.7590
1014.836, 101.7631
1015.318, 101.5960
1015.800, 102.3946
1016.282, 103.0415
1016.765, 102.8860
1017.247, 102.5935
1017.729, 103.3401
1018.211, 104.6944
1018.693, 105.0491
1019.175, 104.5208
1019.657, 103.7694
1020.139, 102.9713
1020.622, 102.6947
1021.104, 103.3428
1021.586, 104.5420
1022.068, 105.9111
1022.550, 107.3351
1023.032, 107.3032
1023.514, 105.7842
1023.996, 104.8825
1024.478, 105.1541
1024.961, 105.5286
1025.443, 105.1290
1025.925, 104.6409
1026.407, 105.9638
1026.889, 109.2733
1027.371, 110.2858
1027.853, 108.5039
1028.335, 107.3704
1028.818, 107.8980
1029.300, 108.8092
1029.782, 109.0936
1030.264, 109.0780
1030.746, 109.6962
1031.228, 111.1683
1031.710, 111.9215
1032.192, 111.8206
1032.674, 111.3601
1033.156, 110.4668
1033.639, 109.6345
1034.121, 109.2426
1034.603, 109.2227
1035.085, 109.4121
1035.567, 109.9362
1036.049, 110.2004
1036.531, 110.1765
1037.013, 109.9328
1037.496, 109.2960
1037.978, 108.6953
1038.460, 108.5423
1038.942, 108.6826
1039.424, 108.7033
1039.906, 108.8880
1040.388, 108.0625
1040.870, 105.0163
1041.353, 102.7188
1041.835, 102.4318
1042.317, 102.6486
1042.799, 102.4072
1043.281, 101.7326
1043.763, 100.6077
1044.245, 98.68794
1044.727, 97.36460
1045.209, 97.65184
1045.692, 97.27017
1046.174, 94.81995
1046.656, 92.18989
1047.138, 90.89320
1047.620, 90.61658
1048.102, 90.45894
1048.584, 90.51454
1049.066, 90.04748
1049.548, 88.06676
1050.031, 86.72039
1050.513, 87.64634
1050.995, 88.62144
1051.477, 87.34135
1051.959, 84.74405
1052.441, 83.48775
1052.923, 84.25883
1053.405, 84.72619
1053.888, 84.26292
1054.370, 83.59367
1054.852, 82.61714
1055.334, 81.87450
1055.816, 82.08497
1056.298, 82.81670
1056.780, 82.95019
1057.262, 82.17445
1057.745, 81.72590
1058.227, 82.34161
1058.709, 82.84921
1059.191, 82.88239
1059.673, 82.50362
1060.155, 81.40159
1060.637, 80.05132
1061.119, 79.42168
1061.601, 79.72835
1062.083, 80.30202
1062.566, 81.36625
1063.048, 82.06913
1063.530, 81.61616
1064.012, 81.02295
1064.494, 81.30428
1064.976, 82.08070
1065.458, 82.46994
1065.940, 82.29674
1066.423, 82.03645
1066.905, 81.93088
1067.387, 81.70264
1067.869, 80.92354
1068.351, 80.24574
1068.833, 80.48652
1069.315, 81.13976
1069.797, 81.20509
1070.280, 80.51875
1070.762, 79.77323
1071.244, 79.08739
1071.726, 78.62493
1072.208, 78.67245
1072.690, 78.76823
1073.172, 78.66708
1073.654, 78.28300
1074.136, 77.37990
1074.619, 76.01657
1075.101, 74.93264
1075.583, 74.75842
1076.065, 74.35793
1076.547, 72.68961
1077.029, 71.08099
1077.511, 70.76696
1077.993, 71.08755
1078.475, 71.09030
1078.958, 70.60620
1079.440, 69.72237
1079.922, 68.17786
1080.404, 66.89832
1080.886, 66.35740
1081.368, 66.19557
1081.850, 66.49046
1082.332, 66.79058
1082.814, 66.38333
1083.297, 65.39236
1083.779, 64.66984
1084.261, 64.46859
1084.743, 64.64808
1085.225, 65.87708
1085.707, 66.64713
1086.189, 65.56618
1086.671, 63.78601
1087.154, 62.36200
1087.636, 61.52642
1088.118, 61.54827
1088.600, 62.72985
1089.082, 63.50899
1089.564, 62.80088
1090.046, 62.04564
1090.528, 62.33157
1091.010, 62.73272
1091.493, 62.10907
1091.975, 60.84178
1092.457, 60.07042
1092.939, 60.07943
1093.421, 60.16331
1093.903, 60.07853
1094.385, 59.98940
1094.867, 60.21054
1095.349, 60.23524
1095.832, 59.31526
1096.314, 58.00955
1096.796, 57.47910
1097.278, 57.89930
1097.760, 58.08937
1098.242, 56.95808
1098.724, 56.55667
1099.206, 58.54029
1099.689, 60.45868
1100.171, 60.27581
1100.653, 59.15748
1101.135, 59.04723
1101.617, 59.99858
1102.099, 60.35086
1102.581, 59.28374
1103.063, 58.33350
1103.546, 57.93347
1104.028, 57.64833
1104.510, 57.10976
1104.992, 56.66801
1105.474, 56.93274
1105.956, 57.70464
1106.438, 57.86297
1106.920, 56.57787
1107.402, 56.36895
1107.885, 59.14510
1108.367, 61.10217
1108.849, 59.94654
1109.331, 58.20623
1109.813, 58.01931
1110.295, 59.05201
1110.777, 60.33093
1111.259, 62.11529
1111.741, 62.78660
1112.224, 61.01257
1112.706, 59.83048
1113.188, 60.43809
1113.670, 61.23340
1114.152, 61.23293
1114.634, 60.72413
1115.116, 60.09737
1115.598, 59.29850
1116.081, 59.07991
1116.563, 60.04496
1117.045, 60.54159
1117.527, 60.07442
1118.009, 59.59480
1118.491, 59.31483
1118.973, 59.48153
1119.455, 60.69255
1119.938, 62.73820
1120.420, 63.64081
1120.902, 62.84371
1121.384, 62.29845
1121.866, 62.30578
1122.348, 61.97517
1122.830, 60.73700
1123.312, 59.54535
1123.794, 59.40011
1124.276, 59.89692
1124.759, 59.70496
1125.241, 58.63478
1125.723, 58.01359
1126.205, 58.02510
1126.687, 57.75374
1127.169, 56.92771
1127.651, 55.98557
1128.133, 55.18848
1128.616, 54.52514
1129.098, 53.94239
1129.580, 53.46020
1130.062, 53.53175
1130.544, 54.24660
1131.026, 54.36086
1131.508, 53.64775
1131.990, 52.87196
1132.473, 52.38275
1132.955, 52.03484
1133.437, 51.66370
1133.919, 51.29188
1134.401, 51.03357
1134.883, 50.86700
1135.365, 50.56538
1135.847, 50.11449
1136.329, 49.45966
1136.812, 48.59665
1137.294, 48.07182
1137.776, 48.36998
1138.258, 47.96035
1138.740, 48.84705
1139.222, 48.29620
1139.704, 48.54200
1140.186, 49.35280
1140.668, 49.68758
1141.151, 49.37223
1141.633, 48.59996
1142.115, 47.45784
1142.597, 46.57639
1143.079, 44.51489
1143.561, 47.54116
1144.043, 49.20536
1144.525, 49.58064
1145.008, 44.80648
1145.490, 46.68174
1145.972, 45.89226
1146.454, 44.99355
1146.936, 47.80463
1147.418, 43.77961
1147.900, 46.53186
1148.382, 46.57877
1148.865, 47.86366
1149.347, 46.46756
1149.829, 45.89961
1150.311, 48.01366
1150.793, 48.64268
1151.275, 46.93794
1151.757, 48.30173
1152.239, 44.18304
1152.721, 45.21057
1153.203, 45.08075
1153.686, 45.28754
1154.168, 45.47028
1154.650, 44.96363
1155.132, 44.21471
1155.614, 44.41106
1156.096, 45.78241
1156.578, 46.70728
1157.060, 46.41799
1157.543, 46.06228
1158.025, 45.82483
1158.507, 45.75520
1158.989, 45.94221
1159.471, 46.26925
1159.953, 46.76717
1160.435, 47.33168
1160.917, 47.24473
1161.400, 45.87194
1161.882, 45.13955
1162.364, 45.79551
1162.846, 45.92763
1163.328, 44.34350
1163.810, 43.05852
1164.292, 43.86084
1164.774, 45.68912
1165.256, 46.28558
1165.739, 45.56730
1166.221, 45.07595
1166.703, 44.95674
1167.185, 44.39798
1167.667, 42.98687
1168.149, 42.39030
1168.631, 43.58742
1169.113, 45.15810
1169.595, 45.50893
1170.078, 44.97372
1170.560, 44.73645
1171.042, 44.78252
1171.524, 44.39421
1172.006, 43.56989
1172.488, 43.25392
1172.970, 43.67797
1173.452, 44.21504
1173.934, 44.46892
1174.417, 44.52386
1174.899, 44.45030
1175.381, 44.29973
1175.863, 44.13851
1176.345, 44.03226
1176.827, 44.29200
1177.309, 44.82136
1177.791, 45.05515
1178.274, 44.83413
1178.756, 44.65390
1179.238, 45.00250
1179.720, 45.25929
1180.202, 44.39216
1180.684, 43.34815
1181.166, 43.43644
1181.648, 44.15652
1182.130, 44.62619
1182.613, 44.73001
1183.095, 44.72939
1183.577, 44.72557
1184.059, 44.54395
1184.541, 43.80091
1185.023, 43.22956
1185.505, 43.41330
1185.987, 43.75651
1186.469, 43.58900
1186.952, 43.30504
1187.434, 43.84226
1187.916, 45.18521
1188.398, 45.75715
1188.880, 44.42693
1189.362, 43.83555
1189.844, 45.15218
1190.326, 46.03405
1190.809, 45.37164
1191.291, 44.37512
1191.773, 43.99274
1192.255, 43.99546
1192.737, 43.79409
1193.219, 43.32695
1193.701, 43.44009
1194.183, 43.18725
1194.666, 44.69339
1195.148, 45.51859
1195.630, 45.69933
1196.112, 43.30544
1196.594, 44.23617
1197.076, 43.83453
1197.558, 43.37827
1198.040, 44.77691
1198.522, 42.75751
1199.005, 44.12663
1199.487, 44.14317
1199.969, 44.77881
1200.451, 44.07386
1200.933, 43.78299
1201.415, 44.83311
1201.897, 45.14072
1202.379, 44.28144
1202.861, 44.95644
1203.344, 42.89009
1203.826, 43.22931
1204.308, 44.60639
1204.790, 43.81452
1205.272, 44.51403
1205.754, 44.64553
1206.236, 42.19575
1206.718, 44.23508
1207.201, 44.33292
1207.683, 42.43747
1208.165, 44.32299
1208.647, 42.70235
1209.129, 42.33319
1209.611, 42.90586
1210.093, 42.49670
1210.575, 42.69115
1211.057, 43.28305
1211.540, 42.79726
1212.022, 42.89303
1212.504, 42.75690
1212.986, 42.84598
1213.468, 42.68896
1213.950, 42.08444
1214.432, 41.50935
1214.914, 41.87101
1215.396, 42.66677
1215.879, 42.39488
1216.361, 40.89909
1216.843, 40.51361
1217.325, 41.45988
1217.807, 41.96840
1218.289, 41.73048
1218.771, 41.39875
1219.253, 41.24640
1219.736, 41.38438
1220.218, 42.03269
1220.700, 42.74965
1221.182, 42.40719
1221.664, 41.35992
1222.146, 40.54920
1222.628, 40.12978
1223.110, 40.76316
1223.593, 42.23193
1224.075, 43.02502
1224.557, 42.48621
1225.039, 41.70712
1225.521, 41.46797
1226.003, 41.50660
1226.485, 41.71534
1226.967, 41.96924
1227.449, 42.26649
1227.932, 42.44333
1228.414, 42.18355
1228.896, 41.56092
1229.378, 41.02896
1229.860, 40.68049
1230.342, 40.49651
1230.824, 40.36382
1231.306, 40.54917
1231.788, 41.76223
1232.271, 42.57861
1232.753, 41.82180
1233.235, 40.54962
1233.717, 40.17872
1234.199, 40.55912
1234.681, 40.68529
1235.163, 40.46474
1235.645, 40.50392
1236.128, 40.90792
1236.610, 40.87066
1237.092, 40.13568
1237.574, 39.67176
1238.056, 40.09681
1238.538, 39.64745
1239.020, 40.47851
1239.502, 39.85981
1239.984, 40.06526
1240.467, 40.76653
1240.949, 41.06838
1241.431, 40.97009
1241.913, 40.53127
1242.395, 39.93123
1242.877, 39.95927
1243.359, 41.08905
1243.841, 42.03396
1244.323, 41.81071
1244.806, 41.09223
1245.288, 39.79559
1245.770, 38.78754
1246.252, 39.21754
1246.734, 40.31221
1247.216, 40.74564
1247.698, 40.48369
1248.180, 40.46214
1248.662, 41.17138
1249.145, 41.21742
1249.627, 39.75504
1250.109, 38.94674
1250.591, 39.67354
1251.073, 40.30742
1251.555, 39.80902
1252.037, 38.89975
1252.519, 38.49474
1253.002, 38.58901
1253.484, 39.40497
1253.966, 40.90541
1254.448, 41.19158
1254.930, 40.28981
1255.412, 39.76360
1255.894, 39.92358
1256.376, 39.99060
1256.859, 39.55105
1257.341, 39.16158
1257.823, 39.64962
1258.305, 40.14157
1258.787, 38.99805
1259.269, 37.52926
1259.751, 37.71163
1260.233, 38.80153
1260.715, 39.28595
1261.198, 39.09994
1261.680, 39.00314
1262.162, 39.16673
1262.644, 39.74194
1263.126, 41.70938
1263.608, 42.74174
1264.090, 41.39118
1264.572, 39.83252
1265.054, 39.00572
1265.537, 38.77824
1266.019, 39.20528
1266.501, 40.03599
1266.983, 40.42886
1267.465, 40.36147
1267.947, 40.01729
1268.429, 39.35283
1268.911, 38.95285
1269.394, 38.90935
1269.876, 38.84099
1270.358, 38.58872
1270.840, 38.42921
1271.322, 38.65214
1271.804, 38.36988
1272.286, 38.67138
1272.768, 38.20589
1273.250, 38.03950
1273.733, 38.13961
1274.215, 38.53547
1274.697, 39.08281
1275.179, 39.41882
1275.661, 39.47590
1276.143, 39.62021
1276.625, 40.36291
1277.107, 40.48754
1277.589, 38.67970
1278.072, 37.36060
1278.554, 38.06858
1279.036, 39.21808
1279.518, 39.71501
1280.000, 39.71040
1280.482, 39.35607
1280.964, 38.71196
1281.446, 38.57063
1281.929, 39.03482
1282.411, 39.07385
1282.893, 38.61147
1283.375, 38.29656
1283.857, 38.29060
1284.339, 38.48341
1284.821, 38.81695
1285.303, 39.20125
1285.786, 39.55551
1286.268, 39.87337
##END=



