##NAMES=Triphylite
##RRUFFID=R050257
##IDEAL CHEMISTRY=LiFe^2+^PO_4_
##LOCALITY=Palermo mine, North Groton, Grafton County, New Hampshire, USA
##OWNER=RRUFF
##SOURCE=Marcus Origlieri
##DESCRIPTION=Dark gray massive
##STATUS=The identification of this mineral has been confirmed by X-ray diffraction and chemical analysis
##URL=rruff.info/R050257
##MEASURED CHEMISTRY=Li_1.00_(Fe^2+^_0.73_Mn^2+^_0.19_Mg_0.08_)_Î£=1_P_1.00_O_4_
103.8984, 7.884615
104.3806, 3.751063
104.8627, 1.497555
105.3448, 2.191635
105.8269, 3.618567
106.3090, 4.684218
106.7911, 5.553767
107.2733, 5.813404
107.7554, 5.264027
108.2375, 3.890932
108.7196, 2.518398
109.2017, -0.3222312
109.6838, -2.477658
110.1659, -2.171159
110.6481, 4.617051
111.1302, 10.20615
111.6123, 12.53522
112.0944, 10.71656
112.5765, 8.708500
113.0586, 5.968014
113.5408, 3.593810
114.0229, 3.348604
114.5050, 7.775042
114.9871, 13.03137
115.4692, 17.17328
115.9513, 19.47881
116.4335, 21.19562
116.9156, 23.00451
117.3977, 24.68840
117.8798, 25.37070
118.3619, 22.91678
118.8440, 19.93537
119.3262, 18.86194
119.8083, 21.58020
120.2904, 25.69893
120.7725, 30.03679
121.2546, 34.59185
121.7367, 38.63634
122.2189, 41.45659
122.7010, 43.38568
123.1831, 45.10649
123.6652, 46.64294
124.1473, 48.24635
124.6294, 49.93886
125.1115, 51.44951
125.5937, 54.01436
126.0758, 59.71713
126.5579, 68.07117
127.0400, 76.45953
127.5221, 82.31239
128.0043, 86.94976
128.4864, 94.08392
128.9685, 105.4892
129.4506, 118.5734
129.9327, 127.9900
130.4148, 133.6217
130.8969, 138.8432
131.3791, 146.9605
131.8612, 157.6221
132.3433, 167.9224
132.8254, 176.2195
133.3075, 183.2901
133.7896, 193.9945
134.2718, 209.0736
134.7539, 225.3374
135.2360, 238.3554
135.7181, 247.5511
136.2002, 256.2597
136.6823, 264.9872
137.1645, 273.4303
137.6466, 285.8320
138.1287, 304.0564
138.6108, 324.9759
139.0929, 339.9922
139.5750, 346.7730
140.0572, 353.1916
140.5393, 363.9954
141.0214, 380.9649
141.5035, 397.0079
141.9856, 410.2592
142.4677, 421.5148
142.9499, 438.6493
143.4320, 463.1727
143.9141, 491.4879
144.3962, 520.3281
144.8783, 550.0148
145.3604, 580.1257
145.8425, 611.1055
146.3247, 642.8658
146.8068, 674.5423
147.2889, 711.1291
147.7710, 745.0768
148.2531, 767.6968
148.7352, 770.1550
149.2174, 769.7752
149.6995, 770.8617
150.1816, 774.8210
150.6637, 777.2872
151.1458, 774.1002
151.6279, 769.4456
152.1101, 772.0090
152.5922, 787.3686
153.0743, 806.3341
153.5564, 825.1423
154.0385, 843.1102
154.5206, 861.5980
155.0028, 882.1580
155.4849, 903.9570
155.9670, 922.9026
156.4491, 942.2424
156.9312, 956.1880
157.4133, 960.8592
157.8955, 955.0537
158.3776, 940.2803
158.8597, 916.5687
159.3418, 883.8224
159.8239, 843.0469
160.3060, 787.5640
160.7882, 726.3001
161.2703, 668.7847
161.7524, 621.6319
162.2345, 576.2958
162.7166, 526.8506
163.1987, 471.0011
163.6808, 420.9895
164.1630, 384.1291
164.6451, 356.5091
165.1272, 331.5302
165.6093, 306.9226
166.0914, 283.4893
166.5735, 261.4197
167.0557, 239.9767
167.5378, 221.7502
168.0199, 209.8104
168.5020, 202.8529
168.9841, 197.3309
169.4662, 191.1592
169.9484, 185.4194
170.4305, 181.4346
170.9126, 180.7376
171.3947, 180.3083
171.8768, 176.6723
172.3589, 170.3199
172.8411, 164.8261
173.3232, 162.8268
173.8053, 163.2811
174.2874, 164.5835
174.7695, 167.7686
175.2516, 170.5778
175.7338, 168.8291
176.2159, 162.4406
176.6980, 157.1072
177.1801, 159.8525
177.6622, 167.8601
178.1443, 173.6797
178.6264, 170.9605
179.1086, 164.7289
179.5907, 164.9508
180.0728, 172.5812
180.5549, 182.1575
181.0370, 187.9616
181.5191, 190.4975
182.0013, 192.3115
182.4834, 193.9932
182.9655, 195.9056
183.4476, 199.1488
183.9297, 203.8934
184.4118, 209.7619
184.8940, 215.9746
185.3761, 222.6495
185.8582, 230.5651
186.3403, 241.6451
186.8224, 254.9158
187.3046, 265.8772
187.7867, 273.8384
188.2688, 279.4071
188.7509, 282.5661
189.2330, 283.1304
189.7151, 285.4445
190.1973, 292.3428
190.6794, 303.8126
191.1615, 320.2838
191.6436, 344.3055
192.1257, 372.7178
192.6078, 393.8165
193.0900, 407.0174
193.5721, 418.1273
194.0542, 432.0473
194.5363, 448.7017
195.0184, 468.1953
195.5005, 491.9865
195.9826, 519.0033
196.4648, 542.0247
196.9469, 560.6725
197.4290, 575.7388
197.9111, 587.9116
198.3932, 597.0146
198.8753, 604.1775
199.3575, 610.5463
199.8396, 616.0826
200.3217, 616.5480
200.8038, 612.2087
201.2859, 602.3588
201.7680, 583.9529
202.2502, 554.7641
202.7323, 526.4625
203.2144, 505.1879
203.6965, 492.3841
204.1786, 475.0205
204.6607, 451.6981
205.1429, 425.2827
205.6250, 401.5215
206.1071, 380.6362
206.5892, 362.4193
207.0713, 347.8972
207.5534, 338.3833
208.0356, 325.7195
208.5177, 308.1867
208.9998, 287.9005
209.4819, 270.5100
209.9640, 256.3429
210.4461, 244.2844
210.9282, 233.7797
211.4104, 224.6580
211.8925, 217.4771
212.3746, 212.3530
212.8567, 209.2319
213.3388, 208.4952
213.8209, 212.2979
214.3031, 214.6455
214.7852, 209.5366
215.2673, 192.2881
215.7494, 181.3339
216.2315, 181.0622
216.7136, 190.4665
217.1958, 197.0716
217.6779, 200.4494
218.1600, 201.7063
218.6421, 201.2774
219.1242, 197.5257
219.6063, 196.0255
220.0885, 198.7356
220.5706, 205.7328
221.0527, 209.8907
221.5348, 209.8888
222.0169, 208.5350
222.4990, 208.5542
222.9812, 209.6619
223.4633, 212.8451
223.9454, 219.2550
224.4275, 229.7118
224.9096, 236.3675
225.3917, 237.1840
225.8739, 236.0947
226.3560, 238.1585
226.8381, 244.5717
227.3202, 251.9841
227.8023, 259.3829
228.2844, 266.2768
228.7665, 275.5136
229.2487, 288.5458
229.7308, 302.7693
230.2129, 313.9164
230.6950, 319.4612
231.1771, 325.8894
231.6592, 335.3054
232.1414, 348.1008
232.6235, 362.6128
233.1056, 378.9850
233.5877, 396.9113
234.0698, 415.4370
234.5519, 434.9232
235.0341, 454.3720
235.5162, 473.5768
235.9983, 492.2164
236.4804, 511.1671
236.9625, 530.8061
237.4446, 550.5853
237.9268, 570.2501
238.4089, 593.4482
238.8910, 611.6389
239.3731, 620.7358
239.8552, 616.9334
240.3373, 611.9733
240.8195, 605.2695
241.3016, 597.5356
241.7837, 590.5507
242.2658, 584.0805
242.7479, 578.6866
243.2300, 574.6501
243.7122, 572.1077
244.1943, 570.6923
244.6764, 570.7833
245.1585, 571.9885
245.6406, 572.6172
246.1227, 571.0509
246.6048, 571.1123
247.0870, 575.2837
247.5691, 586.0490
248.0512, 595.6984
248.5333, 604.0495
249.0154, 610.9630
249.4975, 615.8375
249.9797, 618.0114
250.4618, 619.1249
250.9439, 620.7631
251.4260, 625.7316
251.9081, 624.8063
252.3902, 615.7341
252.8724, 599.7409
253.3545, 584.9547
253.8366, 573.6720
254.3187, 560.4183
254.8008, 540.9958
255.2829, 512.2212
255.7651, 484.3726
256.2472, 457.3910
256.7293, 431.6838
257.2114, 411.5978
257.6935, 400.1489
258.1756, 389.8825
258.6577, 374.9497
259.1399, 352.3122
259.6220, 332.6463
260.1041, 317.8147
260.5862, 307.2207
261.0683, 296.2477
261.5504, 284.5536
262.0326, 273.0732
262.5147, 262.4274
262.9968, 252.8872
263.4789, 243.5684
263.9610, 234.0442
264.4431, 224.4888
264.9253, 217.6307
265.4074, 214.8615
265.8895, 212.3131
266.3716, 206.0764
266.8537, 194.3922
267.3358, 185.4707
267.8180, 181.5183
268.3001, 181.7573
268.7822, 179.2489
269.2643, 172.6782
269.7464, 165.9846
270.2285, 162.6845
270.7107, 163.5738
271.1928, 164.4759
271.6749, 164.5507
272.1570, 163.9723
272.6391, 164.3820
273.1212, 166.5146
273.6034, 167.8350
274.0855, 165.2796
274.5676, 157.9992
275.0497, 152.3223
275.5318, 149.8062
276.0139, 149.9232
276.4961, 149.4330
276.9782, 147.9161
277.4603, 147.0792
277.9424, 149.0530
278.4245, 154.1374
278.9066, 158.4402
279.3888, 161.4767
279.8709, 163.0799
280.3530, 161.1890
280.8351, 154.7354
281.3172, 149.1347
281.7993, 150.6973
282.2815, 159.5100
282.7636, 166.8075
283.2457, 170.8145
283.7278, 171.8469
284.2099, 169.9188
284.6920, 164.4334
285.1741, 159.7310
285.6563, 160.9559
286.1384, 167.6550
286.6205, 172.6272
287.1026, 173.8161
287.5847, 172.4895
288.0668, 172.0817
288.5490, 172.6230
289.0311, 173.7172
289.5132, 175.4682
289.9953, 177.6511
290.4774, 179.1356
290.9595, 179.8498
291.4417, 179.5560
291.9238, 177.1068
292.4059, 172.5005
292.8880, 167.9361
293.3701, 165.4426
293.8522, 164.5938
294.3344, 163.7384
294.8165, 162.4723
295.2986, 161.0047
295.7807, 160.2392
296.2628, 160.0625
296.7449, 158.7335
297.2271, 152.7346
297.7092, 144.5150
298.1913, 140.2550
298.6734, 142.8397
299.1555, 148.2626
299.6376, 151.5383
300.1198, 152.7781
300.6019, 152.6043
301.0840, 150.1657
301.5661, 146.8123
302.0482, 145.0554
302.5303, 145.9666
303.0125, 147.8473
303.4946, 149.3102
303.9767, 150.2761
304.4588, 150.4338
304.9409, 148.5165
305.4230, 146.0131
305.9052, 144.7054
306.3873, 144.8493
306.8694, 146.5558
307.3515, 150.7046
307.8336, 156.6911
308.3157, 162.6161
308.7979, 167.4553
309.2800, 171.6007
309.7621, 175.2410
310.2442, 177.9078
310.7263, 181.1613
311.2084, 186.1815
311.6906, 192.6224
312.1727, 199.6055
312.6548, 207.6499
313.1369, 215.5560
313.6190, 221.4958
314.1011, 223.2722
314.5833, 227.9868
315.0654, 242.8562
315.5475, 263.1270
316.0296, 278.6915
316.5117, 279.6337
316.9938, 279.0426
317.4760, 285.1864
317.9580, 302.0516
318.4402, 317.0027
318.9223, 324.9862
319.4044, 328.6484
319.8865, 332.2027
320.3686, 336.1297
320.8507, 340.7528
321.3329, 347.4274
321.8150, 358.3380
322.2971, 363.8190
322.7792, 358.7772
323.2613, 348.1112
323.7434, 338.5529
324.2256, 330.4079
324.7077, 324.1341
325.1898, 321.5382
325.6719, 325.1275
326.1540, 321.8303
326.6361, 304.6526
327.1183, 282.6559
327.6004, 265.9084
328.0825, 259.0953
328.5646, 252.4599
329.0467, 243.6855
329.5288, 232.1172
330.0110, 223.6633
330.4931, 220.6833
330.9752, 219.0618
331.4573, 214.9364
331.9394, 207.0269
332.4215, 198.6357
332.9037, 189.8636
333.3858, 180.7844
333.8679, 172.9522
334.3500, 165.5609
334.8321, 160.3525
335.3142, 159.5458
335.7964, 165.7282
336.2785, 169.0166
336.7606, 167.1756
337.2427, 161.1436
337.7248, 156.7121
338.2069, 154.2850
338.6891, 152.4836
339.1712, 149.8356
339.6533, 145.9514
340.1354, 144.6735
340.6175, 147.6104
341.0996, 152.6887
341.5818, 153.3725
342.0639, 149.1002
342.5460, 144.1195
343.0281, 141.3621
343.5102, 140.6715
343.9923, 138.9068
344.4745, 135.5141
344.9566, 131.3593
345.4387, 127.5160
345.9208, 124.0800
346.4029, 122.2848
346.8850, 124.0589
347.3672, 128.2541
347.8493, 130.9079
348.3314, 131.6919
348.8135, 131.0490
349.2956, 128.5239
349.7777, 124.7120
350.2599, 122.0044
350.7419, 122.3690
351.2241, 124.3525
351.7062, 125.6456
352.1883, 126.1314
352.6704, 126.1277
353.1525, 125.6861
353.6346, 124.9696
354.1168, 124.3016
354.5989, 124.6298
355.0810, 124.5765
355.5631, 122.1558
356.0452, 117.3759
356.5273, 113.3155
357.0095, 112.9211
357.4916, 114.1526
357.9737, 114.5021
358.4558, 111.4423
358.9379, 108.7209
359.4200, 108.9024
359.9022, 111.5740
360.3843, 113.7776
360.8664, 113.6137
361.3485, 112.7896
361.8306, 112.6366
362.3127, 113.5917
362.7949, 115.0842
363.2770, 117.5995
363.7591, 120.6905
364.2412, 122.7334
364.7233, 122.5665
365.2054, 121.8348
365.6876, 121.2889
366.1697, 120.5558
366.6518, 120.7397
367.1339, 122.6327
367.6160, 125.4968
368.0981, 127.6718
368.5803, 129.1473
369.0624, 129.9165
369.5445, 129.7799
370.0266, 128.2215
370.5087, 127.3737
370.9908, 127.3474
371.4730, 127.9696
371.9551, 129.0504
372.4372, 130.7776
372.9193, 132.6269
373.4014, 134.4455
373.8835, 136.2179
374.3657, 138.2663
374.8478, 140.9141
375.3299, 143.2875
375.8120, 144.0256
376.2941, 142.5929
376.7762, 142.3605
377.2584, 144.2356
377.7405, 147.8990
378.2226, 151.9843
378.7047, 156.7670
379.1868, 160.7942
379.6689, 162.2863
380.1511, 161.5004
380.6332, 161.9064
381.1153, 164.3525
381.5974, 167.8480
382.0795, 170.1930
382.5616, 171.5217
383.0438, 173.1772
383.5259, 175.7812
384.0080, 179.3819
384.4901, 184.8619
384.9722, 193.1817
385.4543, 200.3852
385.9364, 199.8021
386.4185, 194.2307
386.9007, 191.8347
387.3828, 199.3102
387.8649, 210.7245
388.3470, 219.8140
388.8291, 226.1151
389.3112, 231.2767
389.7934, 235.4483
390.2755, 239.3286
390.7576, 243.8304
391.2397, 249.6250
391.7218, 255.9142
392.2039, 261.6729
392.6861, 267.0962
393.1682, 274.5087
393.6503, 289.2462
394.1324, 303.9363
394.6145, 312.8370
395.0966, 306.8492
395.5788, 303.9520
396.0609, 308.9495
396.5430, 320.2830
397.0251, 332.2123
397.5072, 346.3736
397.9893, 359.0209
398.4715, 368.2599
398.9536, 370.8531
399.4357, 376.1362
399.9178, 386.6800
400.3999, 399.1299
400.8820, 407.3390
401.3642, 408.3452
401.8463, 409.6329
402.3284, 413.4189
402.8105, 419.9611
403.2926, 426.8395
403.7747, 434.2158
404.2569, 441.7031
404.7390, 449.1729
405.2211, 457.0124
405.7032, 462.9630
406.1853, 465.4292
406.6674, 465.8134
407.1496, 471.7921
407.6317, 484.3942
408.1138, 496.8853
408.5959, 503.1747
409.0780, 504.0604
409.5602, 505.8786
410.0423, 509.1074
410.5244, 514.5280
411.0065, 523.4115
411.4886, 535.7370
411.9707, 550.8404
412.4529, 573.2932
412.9350, 597.3870
413.4171, 609.8846
413.8992, 608.2725
414.3813, 605.9770
414.8634, 615.6562
415.3456, 633.4962
415.8277, 651.8036
416.3098, 666.7739
416.7919, 681.4432
417.2740, 699.3199
417.7561, 720.0061
418.2382, 739.1058
418.7203, 750.0114
419.2025, 760.1721
419.6846, 776.1295
420.1667, 807.5644
420.6488, 836.4084
421.1309, 855.2010
421.6130, 866.4330
422.0952, 881.2631
422.5773, 903.7641
423.0594, 928.6500
423.5415, 954.3768
424.0236, 984.2433
424.5057, 1007.965
424.9879, 1021.454
425.4700, 1029.831
425.9521, 1041.274
426.4342, 1055.759
426.9163, 1073.313
427.3984, 1094.302
427.8806, 1119.077
428.3627, 1144.979
428.8448, 1173.532
429.3269, 1200.716
429.8090, 1220.616
430.2911, 1231.209
430.7733, 1248.591
431.2554, 1278.896
431.7375, 1315.947
432.2196, 1339.404
432.7017, 1348.025
433.1838, 1356.450
433.6660, 1376.813
434.1481, 1405.867
434.6302, 1429.499
435.1123, 1445.599
435.5944, 1458.345
436.0765, 1472.051
436.5587, 1486.647
437.0408, 1501.964
437.5229, 1521.928
438.0050, 1540.351
438.4871, 1545.919
438.9692, 1538.350
439.4514, 1535.673
439.9335, 1559.505
440.4156, 1592.049
440.8977, 1612.169
441.3798, 1601.108
441.8619, 1589.019
442.3441, 1591.809
442.8262, 1605.744
443.3083, 1616.139
443.7904, 1623.737
444.2725, 1622.256
444.7546, 1606.768
445.2368, 1568.581
445.7189, 1533.586
446.2010, 1505.865
446.6831, 1482.778
447.1652, 1460.719
447.6473, 1442.949
448.1295, 1421.936
448.6116, 1395.883
449.0937, 1364.412
449.5758, 1331.299
450.0579, 1297.035
450.5400, 1260.636
451.0221, 1220.100
451.5042, 1174.328
451.9864, 1131.859
452.4685, 1093.974
452.9506, 1059.975
453.4327, 1027.788
453.9148, 997.5505
454.3969, 968.7611
454.8791, 943.5524
455.3612, 920.2296
455.8433, 890.1177
456.3254, 851.6718
456.8075, 813.6987
457.2896, 790.1712
457.7718, 776.1737
458.2539, 759.3354
458.7360, 730.5065
459.2181, 698.9163
459.7002, 674.8198
460.1823, 657.3724
460.6645, 641.3476
461.1466, 624.8896
461.6287, 607.5585
462.1108, 588.4177
462.5929, 564.2153
463.0750, 543.5720
463.5572, 533.7380
464.0393, 529.5991
464.5214, 521.0000
465.0035, 498.7297
465.4856, 477.6993
465.9677, 464.4219
466.4499, 461.5081
466.9320, 455.3588
467.4141, 443.8454
467.8962, 430.1443
468.3783, 416.8344
468.8604, 403.5074
469.3426, 391.4029
469.8247, 380.7505
470.3068, 371.3014
470.7889, 361.5166
471.2710, 350.8277
471.7531, 341.5433
472.2353, 335.7293
472.7174, 333.4014
473.1995, 329.2353
473.6816, 322.7055
474.1637, 315.4297
474.6458, 310.1003
475.1280, 306.3280
475.6101, 301.4883
476.0922, 292.9665
476.5743, 283.7023
477.0564, 279.9948
477.5385, 281.3283
478.0207, 282.2711
478.5028, 279.0748
478.9849, 273.1908
479.4670, 266.0053
479.9491, 256.9193
480.4312, 248.6497
480.9134, 243.2366
481.3955, 239.8270
481.8776, 236.8678
482.3597, 234.9843
482.8418, 232.4348
483.3239, 227.7101
483.8060, 220.3033
484.2881, 215.0711
484.7703, 214.9627
485.2524, 216.0807
485.7345, 215.4198
486.2166, 210.3485
486.6987, 207.6724
487.1808, 209.2377
487.6630, 213.2865
488.1451, 214.2222
488.6272, 211.2143
489.1093, 207.0370
489.5914, 202.5961
490.0735, 197.9086
490.5557, 193.6547
491.0378, 190.0493
491.5199, 186.3105
492.0020, 180.6512
492.4841, 173.5428
492.9662, 168.8531
493.4484, 168.7427
493.9305, 170.3475
494.4126, 168.3881
494.8947, 163.4308
495.3768, 159.0032
495.8589, 157.9109
496.3411, 158.3231
496.8232, 157.9396
497.3053, 156.2856
497.7874, 154.8683
498.2695, 155.4381
498.7516, 156.5927
499.2338, 156.4694
499.7159, 154.0439
500.1980, 150.6273
500.6801, 146.0668
501.1622, 140.5930
501.6443, 136.1339
502.1265, 133.4369
502.6086, 131.5009
503.0907, 129.7853
503.5728, 127.7326
504.0549, 127.1160
504.5370, 128.5162
505.0192, 130.9238
505.5013, 133.0110
505.9834, 135.0082
506.4655, 135.7783
506.9476, 134.4698
507.4297, 131.6374
507.9119, 130.8283
508.3940, 132.3015
508.8761, 133.7186
509.3582, 132.8184
509.8403, 130.2904
510.3224, 128.6636
510.8046, 128.3494
511.2867, 128.7312
511.7688, 129.2152
512.2509, 129.8438
512.7330, 130.7364
513.2151, 132.5522
513.6973, 134.2104
514.1794, 134.5960
514.6615, 133.8060
515.1436, 133.2176
515.6257, 134.4977
516.1078, 135.6057
516.5900, 134.8344
517.0721, 130.0651
517.5542, 126.5558
518.0363, 125.4346
518.5184, 126.0394
519.0005, 127.2131
519.4827, 130.6743
519.9648, 132.2950
520.4469, 130.4798
520.9290, 125.3307
521.4111, 121.4444
521.8932, 118.9736
522.3754, 117.4256
522.8575, 116.3168
523.3396, 115.6141
523.8217, 116.5591
524.3038, 119.8741
524.7859, 123.5996
525.2681, 124.3181
525.7502, 122.5017
526.2323, 120.9710
526.7144, 121.2195
527.1965, 122.4160
527.6786, 123.7563
528.1608, 125.1564
528.6429, 125.6452
529.1250, 122.9981
529.6071, 119.8668
530.0892, 119.1198
530.5714, 122.4076
531.0535, 125.7723
531.5356, 127.6922
532.0176, 128.6206
532.4998, 129.3109
532.9819, 131.6376
533.4640, 131.9528
533.9461, 127.1982
534.4282, 117.5557
534.9103, 114.6163
535.3925, 122.8679
535.8746, 132.0341
536.3567, 135.4991
536.8388, 131.9162
537.3209, 128.3095
537.8030, 124.1244
538.2852, 121.5044
538.7673, 125.8961
539.2494, 137.0465
539.7315, 144.6062
540.2136, 143.4222
540.6957, 137.1896
541.1779, 132.5546
541.6600, 129.5986
542.1421, 129.0043
542.6242, 132.4113
543.1063, 138.0039
543.5884, 144.1534
544.0706, 151.2168
544.5527, 156.2686
545.0348, 155.0297
545.5169, 151.5094
545.9990, 151.0585
546.4811, 158.4968
546.9633, 165.7536
547.4454, 169.8104
547.9275, 171.1460
548.4096, 174.6992
548.8917, 183.1423
549.3738, 190.9572
549.8560, 195.4040
550.3381, 195.3131
550.8202, 196.5701
551.3023, 198.7411
551.7844, 202.9986
552.2665, 212.5722
552.7487, 227.7302
553.2308, 238.2924
553.7129, 240.3384
554.1950, 238.3893
554.6771, 241.3404
555.1592, 248.8189
555.6414, 257.8552
556.1235, 266.6778
556.6056, 276.0239
557.0877, 287.2951
557.5698, 300.6629
558.0519, 313.5819
558.5341, 322.3487
559.0162, 330.8530
559.4983, 342.9832
559.9804, 362.7229
560.4625, 382.3208
560.9446, 398.6612
561.4268, 413.4116
561.9089, 431.0939
562.3910, 451.5693
562.8731, 475.6775
563.3552, 505.2189
563.8373, 540.1599
564.3195, 569.3796
564.8016, 590.3755
565.2837, 610.5554
565.7658, 633.8589
566.2479, 660.3304
566.7300, 695.0917
567.2122, 740.8699
567.6943, 788.4451
568.1764, 821.5168
568.6585, 844.1917
569.1406, 871.4130
569.6227, 913.5341
570.1049, 960.4238
570.5870, 1001.262
571.0691, 1036.032
571.5512, 1067.674
572.0333, 1095.800
572.5154, 1122.263
572.9976, 1149.157
573.4797, 1179.014
573.9618, 1201.393
574.4439, 1211.094
574.9260, 1213.591
575.4081, 1214.863
575.8903, 1217.984
576.3724, 1215.570
576.8545, 1206.802
577.3366, 1192.009
577.8187, 1171.230
578.3008, 1142.678
578.7830, 1114.861
579.2651, 1091.534
579.7472, 1072.193
580.2293, 1051.951
580.7114, 1030.435
581.1935, 1014.123
581.6757, 1011.064
582.1578, 1017.482
582.6399, 1024.359
583.1220, 1027.869
583.6041, 1037.605
584.0862, 1065.446
584.5684, 1104.433
585.0505, 1142.462
585.5326, 1168.061
586.0147, 1198.474
586.4968, 1245.886
586.9789, 1307.459
587.4611, 1359.656
587.9432, 1399.693
588.4253, 1429.576
588.9074, 1450.616
589.3895, 1464.234
589.8716, 1463.087
590.3538, 1446.823
590.8359, 1416.230
591.3180, 1368.191
591.8001, 1302.095
592.2822, 1236.501
592.7643, 1174.197
593.2465, 1115.102
593.7286, 1059.698
594.2107, 1007.206
594.6928, 956.7009
595.1749, 906.6149
595.6570, 857.7599
596.1392, 809.3643
596.6213, 761.7043
597.1034, 720.5270
597.5854, 693.8040
598.0676, 670.8937
598.5497, 644.1577
599.0318, 610.3762
599.5139, 576.9579
599.9960, 543.3061
600.4781, 511.0040
600.9603, 482.4021
601.4424, 458.3986
601.9245, 435.6071
602.4066, 412.4035
602.8887, 390.7036
603.3708, 378.0927
603.8530, 375.8878
604.3351, 373.0405
604.8172, 362.6846
605.2993, 347.1372
605.7814, 334.6789
606.2635, 325.3468
606.7457, 318.5980
607.2278, 314.4091
607.7099, 312.4774
608.1920, 312.7721
608.6741, 315.9229
609.1563, 319.4237
609.6384, 318.8619
610.1205, 318.6345
610.6026, 324.9011
611.0847, 345.4701
611.5668, 365.7245
612.0490, 380.7093
612.5311, 392.4884
613.0132, 409.2456
613.4953, 432.1222
613.9774, 458.3639
614.4595, 485.5965
614.9417, 514.1493
615.4238, 551.3846
615.9059, 598.1296
616.3880, 649.1727
616.8701, 700.1212
617.3522, 751.9565
617.8344, 808.3843
618.3165, 870.9648
618.7986, 935.3089
619.2807, 991.4379
619.7628, 1046.182
620.2449, 1111.916
620.7271, 1202.424
621.2092, 1296.389
621.6913, 1382.332
622.1734, 1462.915
622.6555, 1549.790
623.1376, 1645.694
623.6198, 1748.038
624.1019, 1857.092
624.5840, 1973.766
625.0661, 2088.681
625.5482, 2202.160
626.0303, 2313.664
626.5125, 2428.581
626.9946, 2546.948
627.4767, 2647.148
627.9588, 2729.640
628.4409, 2785.204
628.9230, 2802.473
629.4052, 2782.607
629.8873, 2729.134
630.3694, 2638.294
630.8515, 2519.881
631.3336, 2371.859
631.8157, 2200.916
632.2979, 2027.320
632.7800, 1851.128
633.2621, 1680.063
633.7442, 1519.426
634.2263, 1367.713
634.7084, 1231.504
635.1906, 1110.766
635.6727, 1005.343
636.1548, 915.3161
636.6369, 842.9943
637.1190, 776.2950
637.6011, 716.2078
638.0833, 661.9327
638.5654, 612.8572
639.0475, 569.4560
639.5296, 532.3526
640.0117, 502.4664
640.4938, 477.6902
640.9760, 455.8256
641.4581, 436.7333
641.9402, 418.8533
642.4223, 402.6785
642.9044, 386.5389
643.3865, 367.8813
643.8687, 347.2812
644.3508, 330.3871
644.8329, 321.7711
645.3150, 314.7151
645.7971, 305.8362
646.2792, 294.1936
646.7614, 284.4375
647.2435, 277.3903
647.7256, 270.7595
648.2077, 262.3668
648.6898, 252.0772
649.1719, 240.9971
649.6541, 228.9200
650.1362, 216.5504
650.6183, 202.9692
651.1004, 189.5740
651.5825, 181.1158
652.0646, 183.7374
652.5468, 188.0858
653.0289, 186.6511
653.5110, 180.5893
653.9931, 173.9868
654.4752, 167.8672
654.9573, 161.8931
655.4395, 155.1546
655.9216, 147.1924
656.4037, 143.3775
656.8858, 147.2411
657.3679, 150.6496
657.8500, 147.2926
658.3322, 135.6994
658.8143, 129.2121
659.2964, 129.4694
659.7785, 130.8409
660.2606, 124.9852
660.7427, 114.0809
661.2249, 106.9800
661.7070, 107.1974
662.1891, 108.8975
662.6712, 105.7975
663.1533, 99.75167
663.6354, 94.66718
664.1175, 92.07540
664.5996, 90.84262
665.0817, 91.42792
665.5638, 93.40810
666.0460, 93.56675
666.5281, 89.53294
667.0102, 86.47811
667.4923, 86.82700
667.9744, 90.86810
668.4565, 92.95917
668.9387, 92.90118
669.4208, 91.68677
669.9029, 89.70556
670.3850, 87.17954
670.8671, 84.83250
671.3492, 82.57308
671.8314, 81.48055
672.3135, 84.45972
672.7956, 88.78849
673.2777, 90.15221
673.7598, 84.73317
674.2419, 79.71291
674.7241, 78.21036
675.2062, 79.18129
675.6883, 80.50288
676.1704, 83.46932
676.6525, 84.69115
677.1346, 82.72275
677.6168, 78.41415
678.0989, 76.67030
678.5810, 78.27126
679.0631, 79.08328
679.5452, 75.65502
680.0273, 69.48708
680.5095, 69.17592
680.9916, 74.61252
681.4737, 78.46989
681.9558, 70.82697
682.4379, 60.25609
682.9200, 58.73392
683.4022, 69.99788
683.8843, 79.66912
684.3664, 80.66565
684.8485, 77.34853
685.3306, 73.84674
685.8127, 70.04788
686.2949, 67.01815
686.7770, 64.43270
687.2591, 62.83291
687.7412, 63.92812
688.2233, 68.66717
688.7054, 70.19891
689.1876, 65.41430
689.6697, 58.04652
690.1518, 56.73693
690.6339, 60.74190
691.1160, 65.82073
691.5981, 71.71040
692.0803, 76.23038
692.5624, 76.00139
693.0445, 71.71405
693.5266, 68.55659
694.0087, 68.55326
694.4908, 70.37621
694.9730, 74.32582
695.4551, 81.66550
695.9372, 84.19681
696.4193, 79.20403
696.9014, 73.00898
697.3835, 70.31870
697.8657, 71.45050
698.3478, 72.69136
698.8299, 73.98820
699.3120, 74.81985
699.7941, 74.14668
700.2762, 72.48478
700.7584, 71.27071
701.2405, 71.01471
701.7226, 71.01572
702.2047, 70.72812
702.6868, 70.29847
703.1689, 69.98676
703.6511, 69.83759
704.1332, 69.85098
704.6153, 69.97655
705.0974, 70.26138
705.5795, 70.95770
706.0616, 72.42485
706.5438, 73.53719
707.0259, 73.91074
707.5080, 73.61797
707.9901, 72.51479
708.4722, 70.56863
708.9543, 69.76904
709.4365, 72.88610
709.9186, 77.43469
710.4007, 79.20895
710.8828, 78.01048
711.3649, 75.99498
711.8470, 73.63914
712.3292, 71.50561
712.8113, 70.25644
713.2934, 70.93156
713.7755, 69.84596
714.2576, 64.40748
714.7397, 59.04540
715.2219, 57.76874
715.7040, 61.39473
716.1861, 65.71436
716.6682, 70.81595
717.1503, 75.45376
717.6324, 77.91156
718.1146, 78.33305
718.5967, 77.15722
719.0788, 73.28287
719.5609, 69.91219
720.0430, 71.30737
720.5251, 75.54588
721.0073, 78.57534
721.4894, 76.39935
721.9715, 75.26298
722.4536, 79.24618
722.9357, 86.73502
723.4178, 89.29181
723.9000, 84.10963
724.3821, 79.24111
724.8642, 77.95347
725.3463, 79.64745
725.8284, 79.58995
726.3105, 77.70837
726.7927, 75.85123
727.2748, 74.60425
727.7569, 74.47662
728.2390, 77.18340
728.7211, 82.78590
729.2032, 87.54233
729.6853, 89.49395
730.1674, 89.46443
730.6495, 87.76486
731.1317, 83.48424
731.6138, 80.17256
732.0959, 77.10964
732.5780, 75.91161
733.0601, 78.85658
733.5422, 87.32570
734.0244, 92.44344
734.5065, 93.16269
734.9886, 91.53874
735.4707, 89.26580
735.9528, 86.89973
736.4349, 86.65692
736.9171, 90.23055
737.3992, 93.90224
737.8813, 94.11082
738.3634, 92.19865
738.8455, 90.52549
739.3276, 89.07621
739.8098, 88.78888
740.2919, 91.85219
740.7740, 96.11796
741.2561, 95.36929
741.7382, 87.12936
742.2203, 80.65352
742.7025, 78.80225
743.1846, 80.81056
743.6667, 85.56923
744.1488, 92.76494
744.6309, 98.49998
745.1130, 99.93180
745.5952, 98.89908
746.0773, 96.54005
746.5594, 93.15287
747.0415, 90.86879
747.5236, 91.75050
748.0057, 93.03121
748.4879, 93.17670
748.9700, 91.95104
749.4521, 90.44221
749.9342, 87.38146
750.4163, 86.18730
750.8984, 91.04527
751.3806, 101.7569
751.8627, 105.2303
752.3448, 100.5347
752.8269, 93.74381
753.3090, 89.97642
753.7911, 88.32130
754.2733, 87.76010
754.7554, 88.42545
755.2375, 88.67022
755.7196, 87.36639
756.2017, 85.34660
756.6838, 83.40957
757.1660, 81.54671
757.6481, 79.98405
758.1302, 78.57529
758.6123, 77.63000
759.0944, 77.87628
759.5765, 79.41821
760.0587, 79.88239
760.5408, 78.18660
761.0229, 76.75843
761.5050, 79.91396
761.9871, 86.06650
762.4692, 91.36559
762.9514, 94.90108
763.4335, 96.52109
763.9156, 94.18301
764.3977, 89.94804
764.8798, 88.51716
765.3619, 94.29767
765.8441, 98.25234
766.3262, 98.35305
766.8083, 95.69374
767.2904, 93.81980
767.7725, 92.79578
768.2546, 92.00132
768.7368, 91.48571
769.2189, 90.83964
769.7010, 88.49151
770.1831, 84.99343
770.6652, 82.91831
771.1473, 84.52036
771.6295, 87.35697
772.1116, 89.72997
772.5937, 91.67767
773.0758, 94.79703
773.5579, 103.0427
774.0400, 107.9979
774.5222, 105.0761
775.0043, 94.56648
775.4864, 89.44063
775.9685, 90.31831
776.4506, 92.65913
776.9327, 93.93574
777.4149, 94.21028
777.8970, 92.77423
778.3791, 89.71622
778.8612, 88.41414
779.3433, 92.84038
779.8254, 98.73051
780.3076, 103.4763
780.7897, 107.4929
781.2718, 106.6838
781.7539, 96.46897
782.2360, 86.22726
782.7181, 82.70822
783.2003, 86.90985
783.6824, 89.67414
784.1645, 90.55527
784.6466, 91.45993
785.1287, 95.66302
785.6108, 101.0462
786.0930, 102.5609
786.5751, 98.67088
787.0572, 94.92476
787.5393, 95.53838
788.0214, 97.72440
788.5035, 98.77393
788.9857, 97.23990
789.4678, 96.16570
789.9499, 95.59626
790.4320, 95.53487
790.9141, 96.37830
791.3962, 98.23994
791.8784, 98.38979
792.3605, 95.95399
792.8426, 93.43984
793.3247, 94.76122
793.8068, 98.23428
794.2889, 100.3847
794.7711, 99.59884
795.2531, 98.40846
795.7352, 97.51051
796.2173, 97.19206
796.6995, 98.12155
797.1816, 104.8738
797.6637, 104.7230
798.1458, 92.80402
798.6279, 77.02290
799.1100, 72.80663
799.5922, 79.69534
800.0743, 86.65259
800.5564, 91.01787
801.0385, 93.57275
801.5206, 95.34264
802.0027, 96.07169
802.4849, 95.22476
802.9670, 89.16227
803.4491, 85.27563
803.9312, 87.68260
804.4133, 94.03918
804.8954, 98.84234
805.3776, 102.7460
805.8597, 103.1172
806.3418, 97.69455
806.8239, 90.02753
807.3060, 89.04028
807.7881, 94.02641
808.2703, 99.38377
808.7524, 103.5865
809.2345, 106.2406
809.7166, 106.1624
810.1987, 104.1785
810.6808, 102.4338
811.1630, 101.6943
811.6451, 101.2992
812.1272, 101.3627
812.6093, 101.5934
813.0914, 100.6379
813.5735, 97.60503
814.0557, 97.04104
814.5378, 101.7239
815.0199, 108.7601
815.5020, 110.9561
815.9841, 109.0407
816.4662, 106.1931
816.9484, 102.2987
817.4305, 99.62093
817.9126, 100.0077
818.3947, 103.0671
818.8768, 107.3599
819.3589, 115.6080
819.8411, 121.2838
820.3232, 121.8739
820.8053, 118.7208
821.2874, 118.5881
821.7695, 121.8053
822.2516, 123.3748
822.7338, 119.8120
823.2159, 113.9959
823.6980, 109.5830
824.1801, 107.0418
824.6622, 108.3624
825.1443, 119.5322
825.6265, 130.0214
826.1086, 133.9676
826.5907, 131.9848
827.0728, 130.8097
827.5549, 130.4162
828.0370, 131.0976
828.5192, 133.4670
829.0013, 136.8444
829.4834, 138.1465
829.9655, 137.5626
830.4476, 136.9363
830.9297, 137.3103
831.4119, 138.1471
831.8940, 139.4475
832.3761, 140.8926
832.8582, 141.0626
833.3403, 135.4567
833.8224, 132.9624
834.3046, 137.3780
834.7867, 147.4694
835.2688, 156.7434
835.7509, 165.7336
836.2330, 171.4097
836.7151, 170.9608
837.1973, 167.1866
837.6794, 165.8398
838.1615, 166.6954
838.6436, 168.6323
839.1257, 171.8190
839.6078, 175.1859
840.0900, 177.7779
840.5721, 179.8031
841.0542, 183.3003
841.5363, 190.9214
842.0184, 195.5029
842.5005, 193.9530
842.9827, 187.9677
843.4648, 183.5120
843.9469, 180.6619
844.4290, 180.9038
844.9111, 188.2057
845.3932, 196.7403
845.8754, 199.3570
846.3575, 197.4819
846.8396, 196.0906
847.3217, 196.5858
847.8038, 198.3972
848.2859, 202.6392
848.7681, 208.0101
849.2502, 209.0188
849.7323, 204.5987
850.2144, 201.2847
850.6965, 202.1546
851.1786, 205.0351
851.6608, 205.4601
852.1429, 203.8511
852.6250, 201.7594
853.1071, 198.5243
853.5892, 196.4028
854.0714, 197.7844
854.5535, 201.4299
855.0356, 202.9304
855.5177, 200.6015
855.9998, 198.8624
856.4819, 198.9031
856.9641, 199.9500
857.4462, 199.9986
857.9283, 199.1004
858.4104, 197.6644
858.8925, 195.3124
859.3746, 193.1529
859.8568, 191.4972
860.3389, 190.9301
860.8210, 192.7513
861.3030, 202.3107
861.7852, 207.9755
862.2673, 205.3247
862.7494, 198.7465
863.2315, 198.1137
863.7136, 204.2473
864.1957, 208.4343
864.6779, 208.6913
865.1600, 205.5288
865.6421, 196.1087
866.1242, 184.1288
866.6063, 178.2231
867.0884, 187.0516
867.5706, 195.0370
868.0527, 195.0632
868.5348, 190.8441
869.0169, 188.2849
869.4990, 187.1617
869.9811, 188.8985
870.4633, 194.7845
870.9454, 201.4644
871.4275, 202.5446
871.9096, 199.8966
872.3917, 200.4605
872.8738, 207.6093
873.3560, 213.5107
873.8381, 210.7115
874.3202, 204.1204
874.8023, 199.5951
875.2844, 198.5466
875.7665, 199.3461
876.2487, 203.3521
876.7308, 207.4226
877.2129, 207.1148
877.6950, 202.9078
878.1771, 201.3943
878.6592, 203.5078
879.1414, 207.3951
879.6235, 212.3314
880.1056, 217.5371
880.5877, 222.4069
881.0698, 227.3943
881.5519, 229.9831
882.0341, 227.4393
882.5162, 224.3387
882.9983, 223.6412
883.4804, 225.5951
883.9625, 228.3154
884.4446, 232.0204
884.9268, 234.7433
885.4089, 231.8845
885.8910, 228.1875
886.3731, 233.0068
886.8552, 247.3030
887.3373, 257.1801
887.8195, 252.0491
888.3016, 244.7312
888.7837, 242.7099
889.2658, 246.3334
889.7479, 247.9433
890.2300, 246.7790
890.7122, 246.8406
891.1943, 251.8481
891.6764, 259.6245
892.1585, 265.2961
892.6406, 268.8499
893.1227, 270.2898
893.6049, 265.9872
894.0870, 262.8931
894.5691, 265.9448
895.0512, 274.4822
895.5333, 280.8389
896.0154, 284.6946
896.4976, 286.9472
896.9797, 287.3727
897.4618, 286.7715
897.9439, 286.8734
898.4260, 287.8037
898.9081, 290.1387
899.3903, 295.0070
899.8724, 300.5644
900.3545, 306.0368
900.8366, 311.3502
901.3187, 316.2530
901.8008, 320.8122
902.2830, 325.2328
902.7651, 330.4396
903.2472, 334.5410
903.7293, 332.4440
904.2114, 325.2451
904.6935, 319.6209
905.1757, 316.1517
905.6578, 317.7633
906.1399, 331.8676
906.6220, 350.8660
907.1041, 364.5223
907.5862, 367.2256
908.0684, 368.9752
908.5505, 368.1511
909.0326, 368.9920
909.5147, 377.8159
909.9968, 393.9798
910.4789, 405.9128
910.9611, 412.1232
911.4432, 416.5106
911.9253, 422.0999
912.4074, 428.1312
912.8895, 433.3880
913.3716, 436.9495
913.8538, 443.2971
914.3359, 454.0770
914.8180, 466.5710
915.3001, 479.7720
915.7822, 493.6655
916.2643, 505.5533
916.7465, 515.2846
917.2286, 525.5891
917.7107, 537.7094
918.1928, 551.9010
918.6749, 569.2367
919.1570, 589.3962
919.6392, 609.3096
920.1213, 626.2051
920.6034, 644.6559
921.0855, 667.1102
921.5676, 692.1058
922.0497, 712.4852
922.5319, 728.1213
923.0140, 746.8704
923.4961, 774.5100
923.9782, 804.1937
924.4603, 827.2028
924.9424, 845.8267
925.4246, 865.4423
925.9067, 888.6290
926.3888, 911.5037
926.8708, 929.2391
927.3530, 948.7840
927.8351, 983.9661
928.3172, 1035.957
928.7993, 1085.897
929.2814, 1130.498
929.7635, 1172.456
930.2457, 1209.338
930.7278, 1247.521
931.2099, 1295.440
931.6920, 1357.497
932.1741, 1424.859
932.6563, 1491.381
933.1384, 1567.123
933.6205, 1658.802
934.1026, 1767.582
934.5847, 1889.561
935.0668, 2025.026
935.5490, 2170.156
936.0311, 2304.627
936.5132, 2456.565
936.9953, 2655.520
937.4774, 2905.641
937.9595, 3204.086
938.4417, 3531.367
938.9238, 3931.246
939.4059, 4419.796
939.8880, 4991.621
940.3701, 5623.027
940.8522, 6310.852
941.3344, 7091.596
941.8165, 7982.771
942.2986, 8977.215
942.7807, 10069.09
943.2628, 11257.06
943.7449, 12532.57
944.2271, 13906.64
944.7092, 15376.03
945.1913, 16927.69
945.6734, 18571.86
946.1555, 20339.27
946.6376, 22215.86
947.1198, 24166.09
947.6019, 26197.21
948.0840, 28312.30
948.5661, 30652.73
949.0482, 33030.37
949.5303, 35273.70
950.0125, 37610.80
950.4946, 39047.70
950.9767, 39491.40
951.4588, 39039.47
951.9409, 37648.36
952.4230, 35322.23
952.9052, 32544.73
953.3873, 29301.56
953.8694, 26011.67
954.3515, 22778.68
954.8336, 19776.44
955.3157, 17142.70
955.7979, 14880.15
956.2800, 12875.08
956.7621, 11129.82
957.2442, 9588.698
957.7263, 8254.724
958.2084, 7121.264
958.6906, 6164.689
959.1727, 5377.626
959.6548, 4699.602
960.1369, 4126.101
960.6190, 3632.905
961.1011, 3215.531
961.5833, 2866.212
962.0654, 2582.975
962.5475, 2387.550
963.0296, 2214.541
963.5117, 2063.590
963.9938, 1929.785
964.4760, 1807.769
964.9581, 1698.441
965.4402, 1614.366
965.9223, 1559.660
966.4044, 1509.681
966.8865, 1441.879
967.3687, 1375.227
967.8508, 1328.452
968.3329, 1306.333
968.8150, 1280.548
969.2971, 1248.508
969.7792, 1218.964
970.2614, 1196.431
970.7435, 1180.246
971.2256, 1168.948
971.7077, 1162.060
972.1898, 1156.634
972.6719, 1157.027
973.1541, 1152.562
973.6362, 1134.966
974.1183, 1108.670
974.6004, 1085.991
975.0825, 1067.142
975.5646, 1049.829
976.0468, 1032.754
976.5289, 1018.961
977.0110, 1014.582
977.4931, 1016.443
977.9752, 1018.687
978.4573, 1020.189
978.9395, 1020.963
979.4216, 1018.795
979.9037, 1017.675
980.3858, 1020.916
980.8679, 1029.155
981.3500, 1035.144
981.8322, 1038.221
982.3143, 1045.985
982.7964, 1067.057
983.2785, 1094.617
983.7606, 1121.242
984.2427, 1146.578
984.7249, 1170.482
985.2070, 1188.901
985.6891, 1210.537
986.1712, 1236.065
986.6533, 1267.132
987.1354, 1310.933
987.6176, 1366.063
988.0997, 1422.537
988.5818, 1477.589
989.0639, 1531.525
989.5460, 1581.327
990.0281, 1631.468
990.5103, 1688.232
990.9924, 1751.065
991.4745, 1823.757
991.9566, 1908.600
992.4387, 1999.442
992.9208, 2093.083
993.4029, 2188.256
993.8850, 2274.229
994.3671, 2351.711
994.8492, 2438.841
995.3314, 2555.308
995.8135, 2678.423
996.2956, 2795.419
996.7777, 2907.491
997.2598, 3024.517
997.7419, 3150.107
998.2241, 3267.637
998.7062, 3368.702
999.1883, 3457.781
999.6704, 3540.739
1000.153, 3616.056
1000.635, 3683.220
1001.117, 3763.386
1001.599, 3802.611
1002.081, 3775.754
1002.563, 3710.396
1003.045, 3629.654
1003.527, 3532.968
1004.009, 3419.289
1004.492, 3287.850
1004.974, 3136.150
1005.456, 2945.094
1005.938, 2742.688
1006.420, 2549.895
1006.902, 2370.260
1007.384, 2196.015
1007.866, 2017.948
1008.349, 1861.272
1008.831, 1736.921
1009.313, 1636.565
1009.795, 1535.434
1010.277, 1434.841
1010.759, 1340.123
1011.241, 1249.634
1011.723, 1171.697
1012.205, 1117.161
1012.688, 1074.855
1013.170, 1027.157
1013.652, 968.6552
1014.134, 922.9904
1014.616, 892.0147
1015.098, 871.4132
1015.580, 862.9370
1016.062, 859.4802
1016.544, 848.6102
1017.027, 829.7467
1017.509, 809.5910
1017.991, 788.9371
1018.473, 769.8894
1018.955, 755.0991
1019.437, 742.0810
1019.919, 719.8116
1020.401, 688.6918
1020.884, 657.1254
1021.366, 627.8875
1021.848, 600.5369
1022.330, 576.0298
1022.812, 552.7508
1023.294, 528.2536
1023.776, 498.0549
1024.258, 474.3187
1024.740, 459.0916
1025.223, 446.6588
1025.705, 432.3002
1026.187, 416.7076
1026.669, 401.4566
1027.151, 386.6816
1027.633, 373.6497
1028.115, 363.6067
1028.597, 354.7446
1029.079, 345.7931
1029.562, 337.1831
1030.044, 331.1441
1030.526, 327.8825
1031.008, 324.3542
1031.490, 319.4421
1031.972, 314.5831
1032.454, 312.5462
1032.936, 311.2503
1033.419, 307.3730
1033.901, 298.0673
1034.383, 291.2440
1034.865, 288.1703
1035.347, 286.3951
1035.829, 284.4911
1036.311, 282.3991
1036.793, 279.9395
1037.276, 277.0909
1037.758, 273.8750
1038.240, 268.5623
1038.722, 264.5875
1039.204, 265.1039
1039.686, 268.3825
1040.168, 268.9691
1040.650, 265.9388
1041.132, 265.2363
1041.615, 268.6490
1042.097, 272.6161
1042.579, 273.1870
1043.061, 271.1344
1043.543, 266.8279
1044.025, 259.0824
1044.507, 255.0099
1044.989, 257.9930
1045.471, 261.8662
1045.954, 263.2686
1046.436, 262.8428
1046.918, 263.8554
1047.400, 266.3522
1047.882, 270.6411
1048.364, 280.2765
1048.846, 288.1775
1049.328, 287.6310
1049.811, 283.3613
1050.293, 284.6707
1050.775, 293.2371
1051.257, 300.8216
1051.739, 306.2948
1052.221, 312.3052
1052.703, 321.2860
1053.185, 332.7494
1053.667, 346.1430
1054.150, 361.2487
1054.632, 378.7456
1055.114, 397.3727
1055.596, 420.6238
1056.078, 450.8224
1056.560, 485.9459
1057.042, 516.7886
1057.524, 545.5373
1058.006, 584.1295
1058.489, 637.4447
1058.971, 700.9341
1059.453, 777.2768
1059.935, 859.3654
1060.417, 937.4567
1060.899, 1005.460
1061.381, 1093.195
1061.863, 1200.722
1062.346, 1317.609
1062.828, 1430.541
1063.310, 1551.151
1063.792, 1700.887
1064.274, 1873.809
1064.756, 2037.155
1065.238, 2170.127
1065.720, 2309.913
1066.203, 2465.986
1066.685, 2631.033
1067.167, 2803.495
1067.649, 2973.442
1068.131, 3106.514
1068.613, 3198.193
1069.095, 3232.187
1069.577, 3197.854
1070.059, 3100.942
1070.542, 2938.311
1071.024, 2714.269
1071.506, 2478.505
1071.988, 2231.642
1072.470, 1993.845
1072.952, 1773.086
1073.434, 1575.971
1073.916, 1416.863
1074.398, 1288.419
1074.881, 1181.110
1075.363, 1097.449
1075.845, 1025.970
1076.327, 967.0760
1076.809, 918.7344
1077.291, 878.8488
1077.773, 847.8351
1078.255, 829.6767
1078.738, 823.7985
1079.220, 821.5583
1079.702, 818.5519
1080.184, 819.4719
1080.666, 829.3090
1081.148, 842.1916
1081.630, 843.1911
1082.112, 832.5145
1082.594, 813.1682
1083.077, 785.5566
1083.559, 749.7871
1084.041, 698.9247
1084.523, 644.9282
1085.005, 600.7584
1085.487, 568.8224
1085.969, 530.7753
1086.451, 483.4419
1086.933, 443.4001
1087.416, 424.1308
1087.898, 413.7030
1088.380, 391.1676
1088.862, 362.1180
1089.344, 339.5144
1089.826, 334.0751
1090.308, 325.8986
1090.790, 312.0765
1091.272, 296.6978
1091.755, 282.4138
1092.237, 270.0205
1092.719, 264.0259
1093.201, 264.3254
1093.683, 264.4309
1094.165, 261.8996
1094.647, 256.7702
1095.129, 246.4445
1095.612, 234.3811
1096.094, 231.4062
1096.576, 237.6722
1097.058, 239.9754
1097.540, 234.7479
1098.022, 227.1626
1098.504, 220.4038
1098.986, 215.0505
1099.469, 212.3982
1099.951, 213.3256
1100.433, 210.4187
1100.915, 202.0772
1101.397, 196.1299
1101.879, 197.6302
1102.361, 202.7924
1102.843, 206.4150
1103.325, 208.4673
1103.807, 208.9651
1104.290, 207.2481
1104.772, 204.7425
1105.254, 201.1508
1105.736, 197.5211
1106.218, 194.3073
1106.700, 191.8707
1107.182, 192.9169
1107.664, 196.9323
1108.147, 198.6725
1108.629, 193.7947
1109.111, 187.4536
1109.593, 180.2737
1110.075, 174.0040
1110.557, 173.3582
1111.039, 178.1811
1111.521, 179.2467
1112.004, 174.1742
1112.486, 170.5520
1112.968, 179.6031
1113.450, 189.4412
1113.932, 187.5063
1114.414, 173.3841
1114.896, 167.4243
1115.378, 171.2131
1115.860, 174.7354
1116.343, 174.3444
1116.825, 171.6434
1117.307, 166.9913
1117.789, 162.2265
1118.271, 160.3413
1118.753, 163.1475
1119.235, 166.6357
1119.717, 171.1356
1120.199, 175.1254
1120.682, 178.6351
1121.164, 180.5085
1121.646, 175.6418
1122.128, 166.0158
1122.610, 159.0013
1123.092, 158.5558
1123.574, 160.3645
1124.056, 165.3288
1124.539, 169.7966
1125.021, 167.5249
1125.503, 160.1627
1125.985, 159.5482
1126.467, 166.4989
1126.949, 172.5844
1127.431, 172.5545
1127.913, 169.8782
1128.396, 164.6542
1128.878, 158.6786
1129.360, 157.2329
1129.842, 160.3946
1130.324, 163.7809
1130.806, 166.5193
1131.288, 168.7728
1131.770, 171.5114
1132.252, 173.2458
1132.734, 171.6480
1133.217, 166.2824
1133.699, 164.5393
1134.181, 167.2049
1134.663, 169.3651
1135.145, 169.2178
1135.627, 167.0190
1136.109, 160.8227
1136.591, 153.5586
1137.074, 150.3371
1137.556, 155.9829
1138.038, 157.6630
1138.520, 153.8749
1139.002, 149.5292
1139.484, 148.0417
1139.966, 148.7581
1140.448, 151.8768
1140.931, 156.1714
1141.413, 157.4380
1141.895, 150.0272
1142.377, 145.4874
1142.859, 147.5962
1143.341, 150.1253
1143.823, 142.9072
1144.305, 129.8691
1144.787, 127.8171
1145.270, 137.1729
1145.752, 144.7459
1146.234, 142.2534
1146.716, 137.6404
1147.198, 132.2481
1147.680, 128.1020
1148.162, 131.0827
1148.644, 140.1805
1149.126, 147.0409
1149.609, 150.2085
1150.091, 150.0272
1150.573, 144.1682
1151.055, 137.2571
1151.537, 131.6747
1152.019, 127.6955
1152.501, 128.8534
1152.983, 135.1750
1153.466, 139.5893
1153.948, 139.3172
1154.430, 136.9958
1154.912, 133.6727
1155.394, 130.3083
1155.876, 127.8031
1156.358, 125.9913
1156.840, 126.9723
1157.322, 131.3082
1157.805, 134.0303
1158.287, 131.4673
1158.769, 126.8215
1159.251, 122.4036
1159.733, 118.9191
1160.215, 117.9038
1160.697, 120.0896
1161.179, 123.4734
1161.661, 128.2848
1162.144, 133.2847
1162.626, 139.6079
1163.108, 144.1517
1163.590, 139.7251
1164.072, 128.8904
1164.554, 122.6067
1165.036, 127.7366
1165.518, 128.5306
1166.000, 121.2761
1166.483, 114.0379
1166.965, 118.2901
1167.447, 128.6799
1167.929, 135.4783
1168.411, 137.7894
1168.893, 138.0272
1169.375, 135.5225
1169.857, 132.5866
1170.340, 128.8187
1170.822, 126.1507
1171.304, 129.7558
1171.786, 137.0513
1172.268, 140.9211
1172.750, 139.6930
1173.232, 139.6004
1173.714, 144.6660
1174.197, 149.6779
1174.679, 153.6162
1175.161, 155.4676
1175.643, 149.1312
1176.125, 137.6257
1176.607, 132.3722
1177.089, 138.5371
1177.571, 145.4828
1178.053, 148.9538
1178.536, 151.3030
1179.018, 153.9633
1179.500, 156.6906
1179.982, 157.0011
1180.464, 155.5446
1180.946, 156.1608
1181.428, 164.2228
1181.910, 168.8872
1182.392, 161.6547
1182.875, 151.1807
1183.357, 144.2463
1183.839, 140.8549
1184.321, 143.8495
1184.803, 152.5348
1185.285, 158.2912
1185.767, 152.5438
1186.249, 146.2840
1186.732, 146.3467
1187.214, 148.9843
1187.696, 149.0781
1188.178, 146.4949
1188.660, 145.1348
1189.142, 145.1870
1189.624, 144.8674
1190.106, 134.8761
1190.589, 132.1070
1191.071, 161.5569
1191.553, 202.0155
1192.035, 202.8146
1192.517, 160.5688
1192.999, 136.2373
1193.481, 138.2164
1193.963, 145.8974
1194.445, 144.6101
1194.927, 140.1311
1195.410, 136.1247
1195.892, 132.7562
1196.374, 129.4641
1196.856, 126.1120
1197.338, 125.9406
1197.820, 130.6557
1198.302, 132.9658
1198.784, 120.6272
1199.267, 106.8735
1199.749, 106.0079
1200.231, 116.8731
1200.713, 120.9568
1201.195, 117.6168
1201.677, 114.1329
1202.159, 112.6686
1202.641, 111.6897
1203.124, 109.3137
1203.606, 106.8395
1204.088, 106.0773
1204.570, 107.2043
1205.052, 105.6685
1205.534, 100.8723
1206.016, 99.85954
1206.498, 107.5332
1206.980, 116.2619
1207.463, 118.7269
1207.945, 117.3051
1208.427, 114.2327
1208.909, 109.1496
1209.391, 108.5276
1209.873, 113.1384
1210.355, 114.2925
1210.837, 103.2629
1211.319, 91.43134
1211.802, 92.30416
1212.284, 99.61755
1212.766, 103.5604
1213.248, 102.6318
1213.730, 101.5823
1214.212, 100.3501
1214.694, 99.61199
1215.176, 100.5670
1215.659, 101.5551
1216.141, 100.1298
1216.623, 97.82689
1217.105, 97.92207
1217.587, 101.7321
1218.069, 103.0765
1218.551, 101.5845
1219.033, 99.31921
1219.516, 96.49606
1219.998, 94.94741
1220.480, 98.79693
1220.962, 104.8510
1221.444, 104.2047
1221.926, 94.16496
1222.408, 90.11567
1222.890, 93.94717
1223.372, 98.44444
1223.854, 96.41021
1224.337, 93.09009
1224.819, 93.50241
1225.301, 96.70484
1225.783, 98.39037
1226.265, 98.38015
1226.747, 97.34175
1227.229, 95.17149
1227.711, 93.56946
1228.193, 94.08925
1228.676, 95.86919
1229.158, 98.73312
1229.640, 102.2678
1230.122, 104.8974
1230.604, 106.5377
1231.086, 108.3057
1231.568, 110.7166
1232.050, 111.0692
1232.533, 102.5785
1233.015, 94.63786
1233.497, 98.27805
1233.979, 110.1146
1234.461, 111.7743
1234.943, 102.8046
1235.425, 96.03145
1235.907, 94.33534
1236.390, 95.54303
1236.872, 101.2374
1237.354, 106.2145
1237.836, 105.2590
1238.318, 99.69820
1238.800, 94.86036
1239.282, 90.78832
1239.764, 90.97993
1240.246, 97.37863
1240.729, 104.0380
1241.211, 106.0460
1241.693, 106.5584
1242.175, 107.6959
1242.657, 109.4736
1243.139, 112.4304
1243.621, 116.2796
1244.103, 116.8934
1244.585, 111.4444
1245.068, 107.5531
1245.550, 112.1145
1246.032, 118.2685
1246.514, 121.5293
1246.996, 122.0464
1247.478, 119.4523
1247.960, 114.5064
1248.442, 112.1700
1248.925, 114.7525
1249.407, 118.5526
1249.889, 123.4202
1250.371, 127.0674
1250.853, 126.9833
1251.335, 124.5145
1251.817, 128.6304
1252.299, 137.3851
1252.781, 142.4156
1253.264, 138.8911
1253.746, 135.0168
1254.228, 134.1040
1254.710, 132.9902
1255.192, 128.7065
1255.674, 122.9177
1256.156, 123.6973
1256.638, 129.1863
1257.120, 133.5002
1257.603, 133.9782
1258.085, 133.9243
1258.567, 133.3093
1259.049, 133.4560
1259.531, 135.5949
1260.013, 139.0036
1260.495, 141.9319
1260.977, 144.4447
1261.460, 146.7423
1261.942, 149.7666
1262.424, 150.5754
1262.906, 147.8725
1263.388, 145.9064
1263.870, 149.4178
1264.352, 154.7483
1264.834, 155.1702
1265.317, 151.7114
1265.799, 146.7036
1266.281, 136.1145
1266.763, 133.8180
1267.245, 142.0210
1267.727, 150.0541
1268.209, 147.4522
1268.691, 141.8267
1269.173, 143.9362
1269.656, 150.5838
1270.138, 154.4263
1270.620, 154.9122
1271.102, 151.3696
1271.584, 142.9929
1272.066, 137.3265
1272.548, 142.9163
1273.030, 151.0857
1273.512, 154.9526
1273.995, 155.0132
1274.477, 152.2720
1274.959, 145.9509
1275.441, 142.3366
1275.923, 141.6105
1276.405, 143.1020
1276.887, 149.8892
1277.369, 154.9417
1277.852, 150.5999
1278.334, 143.5954
1278.816, 144.3864
1279.298, 152.9239
1279.780, 155.9787
1280.262, 153.4665
1280.744, 150.7968
1281.226, 152.5483
1281.708, 153.0466
1282.191, 147.8842
1282.673, 142.3284
1283.155, 143.1731
1283.637, 148.9859
1284.119, 151.9640
1284.601, 151.9784
1285.083, 150.6709
1285.565, 146.6514
1286.047, 144.7368
1286.530, 147.2648
1287.012, 149.6215
1287.494, 144.8596
1287.976, 136.8038
1288.458, 135.5601
1288.940, 140.0538
1289.422, 143.8720
1289.904, 145.6034
1290.386, 145.0683
1290.869, 141.5214
1291.351, 137.8872
1291.833, 138.0279
1292.315, 139.2010
1292.797, 135.4001
1293.279, 129.0657
1293.761, 131.0381
1294.243, 148.2667
1294.726, 150.5882
1295.208, 133.4867
1295.690, 117.8790
1296.172, 125.8991
1296.654, 139.3540
1297.136, 141.1689
1297.618, 135.5717
1298.100, 134.5904
1298.583, 138.9181
1299.065, 141.4578
1299.547, 141.7713
1300.029, 141.2376
1300.511, 142.1996
1300.993, 141.0704
1301.475, 131.6239
1301.957, 121.5763
1302.439, 122.8332
1302.922, 133.5661
1303.404, 136.3999
1303.886, 131.2790
1304.368, 125.9285
1304.850, 124.1852
1305.332, 123.2414
1305.814, 122.2341
1306.296, 121.7545
1306.778, 122.8452
1307.261, 124.8600
1307.743, 126.1491
1308.225, 126.7517
1308.707, 127.2427
1309.189, 128.0910
1309.671, 128.4875
1310.153, 128.6430
1310.635, 127.4492
1311.118, 122.0382
1311.600, 115.9714
1312.082, 114.2853
1312.564, 116.0085
1313.046, 117.8172
1313.528, 119.4845
1314.010, 121.0920
1314.492, 122.8139
1314.974, 122.6147
1315.457, 115.3109
1315.939, 109.1085
1316.421, 113.0113
1316.903, 121.0659
1317.385, 123.9522
1317.867, 121.6889
1318.349, 0.0000000E+00
1318.831, 0.0000000E+00
##END=



