##NAMES=Triphylite
##RRUFFID=R050257
##IDEAL CHEMISTRY=LiFe^2+^PO_4_
##LOCALITY=Palermo mine, North Groton, Grafton County, New Hampshire, USA
##OWNER=RRUFF
##SOURCE=Marcus Origlieri
##DESCRIPTION=Dark gray massive
##STATUS=The identification of this mineral has been confirmed by X-ray diffraction and chemical analysis
##URL=rruff.info/R050257
##MEASURED CHEMISTRY=Li_1.00_(Fe^2+^_0.73_Mn^2+^_0.19_Mg_0.08_)_Î£=1_P_1.00_O_4_
54.29523, 0.0000000E+00
54.77734, -1.446067
55.25946, -2.528304
55.74158, -2.670571
56.22369, -1.318715
56.70581, 0.3660465
57.18793, 1.681589
57.67004, 2.622017
58.15216, 3.267237
58.63428, 4.075922
59.11639, 5.298519
59.59851, 4.684276
60.08063, -2.126065
60.56274, -8.088416
61.04486, -8.688756
61.52698, -3.224870
62.00909, 4.761070
62.49121, 9.951598
62.97333, 11.80736
63.45544, 11.23524
63.93756, 5.640143
64.41968, -0.6490373
64.90179, -3.724795
65.38391, -1.854473
65.86603, 3.686638
66.34814, 8.602220
66.83026, 13.56376
67.31238, 17.08890
67.79449, 19.13263
68.27661, 19.61502
68.75873, 18.11138
69.24084, 14.07005
69.72296, 7.839419
70.20508, 3.729214
70.68719, 0.7967265
71.16931, 0.2073574
71.65143, 4.125502
72.13354, 11.65006
72.61566, 18.53846
73.09778, 21.48119
73.57990, 20.23360
74.06201, 18.83057
74.54413, 18.36844
75.02625, 17.20560
75.50836, 12.14642
75.99048, 2.082251
76.47260, -6.136211
76.95471, -2.014305
77.43683, 10.80793
77.91895, 19.63472
78.40106, 16.92160
78.88318, 7.417943
79.36530, 2.711909
79.84741, 5.981682
80.32953, 11.51124
80.81165, 14.85382
81.29376, 16.26936
81.77588, 16.92435
82.25800, 17.74041
82.74011, 18.68258
83.22223, 18.51520
83.70435, 15.20763
84.18646, 12.28078
84.66858, 12.55543
85.15070, 15.97784
85.63281, 19.37092
86.11493, 18.30137
86.59705, 10.70044
87.07916, 5.960723
87.56128, 7.386572
88.04340, 10.26981
88.52551, 12.25375
89.00763, 12.53596
89.48975, 11.12340
89.97186, 7.393135
90.45398, -3.585233
90.93610, -8.435455
91.41821, -1.548925
91.90033, 9.023748
92.38245, 15.83823
92.86456, 15.50511
93.34668, 9.875265
93.82880, 5.005236
94.31091, -0.2304404
94.79303, -3.336455
95.27515, -3.074062
95.75726, -0.6515258
96.23938, 2.435977
96.72150, 5.524375
97.20361, 8.369173
97.68573, 9.072461
98.16785, 6.217010
98.64996, 3.211810
99.13208, 0.7474808
99.61420, -1.009591
100.0963, -1.649831
100.5784, -0.5943614
101.0605, 1.938449
101.5427, 3.305696
102.0248, 1.956605
102.5069, 0.7427168
102.9890, 1.577172
103.4711, 4.453286
103.9532, 8.239302
104.4354, 12.57675
104.9175, 17.18784
105.3996, 20.66599
105.8817, 23.52012
106.3638, 24.87169
106.8459, 22.56870
107.3281, 15.58034
107.8102, 9.280396
108.2923, 9.810174
108.7744, 14.72051
109.2565, 18.63480
109.7386, 18.48352
110.2208, 16.12893
110.7029, 15.95054
111.1850, 19.02679
111.6671, 22.79086
112.1492, 26.22466
112.6313, 29.03859
113.1135, 30.22310
113.5956, 26.70755
114.0777, 19.82152
114.5598, 19.21296
115.0419, 30.39222
115.5240, 42.66909
116.0062, 50.50079
116.4883, 54.30773
116.9704, 56.76863
117.4525, 60.42384
117.9346, 65.56676
118.4167, 68.40517
118.8989, 65.85718
119.3810, 63.14426
119.8631, 61.94710
120.3452, 62.54423
120.8273, 64.65330
121.3094, 68.54948
121.7916, 75.30220
122.2737, 80.03399
122.7558, 79.37002
123.2379, 79.34247
123.7200, 82.87103
124.2021, 90.52683
124.6843, 101.4106
125.1664, 114.9017
125.6485, 134.5107
126.1306, 149.3344
126.6127, 156.0823
127.0948, 161.2256
127.5770, 169.7635
128.0591, 182.6678
128.5412, 197.0468
129.0233, 207.1671
129.5054, 202.0461
129.9875, 211.2340
130.4697, 245.1555
130.9518, 287.0114
131.4339, 324.3155
131.9160, 352.6037
132.3981, 371.1617
132.8802, 378.0446
133.3624, 361.3187
133.8445, 349.1784
134.3266, 345.5934
134.8087, 346.1223
135.2908, 345.4725
135.7729, 341.5943
136.2551, 336.2374
136.7372, 333.6298
137.2193, 336.2222
137.7014, 337.2383
138.1835, 333.2615
138.6656, 327.3269
139.1478, 324.8018
139.6299, 328.3724
140.1120, 335.2498
140.5941, 337.7549
141.0762, 332.5147
141.5583, 330.3476
142.0405, 336.1801
142.5226, 347.8066
143.0047, 359.7682
143.4868, 369.4232
143.9689, 378.9023
144.4510, 392.8639
144.9332, 411.7179
145.4153, 433.1718
145.8974, 456.3366
146.3795, 481.2422
146.8616, 508.7824
147.3438, 541.9115
147.8259, 575.4237
148.3080, 600.2600
148.7901, 614.2897
149.2722, 624.6693
149.7543, 635.0767
150.2365, 645.6011
150.7186, 656.6317
151.2007, 669.6537
151.6828, 682.2886
152.1649, 691.7793
152.6470, 698.0551
153.1292, 700.9896
153.6113, 697.8746
154.0934, 688.7037
154.5755, 684.1425
155.0576, 692.5070
155.5397, 705.1880
156.0219, 712.1035
156.5040, 710.4431
156.9861, 707.3989
157.4682, 713.8477
157.9503, 731.7252
158.4324, 739.4146
158.9146, 722.6961
159.3967, 694.9015
159.8788, 666.5679
160.3609, 640.3595
160.8430, 612.2710
161.3251, 574.6696
161.8073, 524.3952
162.2894, 481.6348
162.7715, 459.8476
163.2536, 444.7133
163.7357, 425.2797
164.2178, 398.3726
164.7000, 369.9839
165.1821, 348.3506
165.6642, 334.3025
166.1463, 324.3223
166.6284, 319.1389
167.1105, 316.6464
167.5927, 316.8907
168.0748, 320.1129
168.5569, 322.3246
169.0390, 316.0377
169.5211, 296.9169
170.0032, 281.5983
170.4854, 274.8505
170.9675, 271.8972
171.4496, 269.5525
171.9317, 266.8436
172.4138, 264.5730
172.8959, 264.7321
173.3781, 269.6579
173.8602, 271.0597
174.3423, 264.4309
174.8244, 256.2436
175.3065, 251.7729
175.7886, 252.4915
176.2708, 255.2842
176.7529, 253.7749
177.2350, 242.2155
177.7171, 239.7661
178.1992, 256.4976
178.6813, 276.5462
179.1635, 287.7888
179.6456, 287.0682
180.1277, 280.1415
180.6098, 276.1788
181.0919, 275.2482
181.5740, 277.6032
182.0562, 284.2253
182.5383, 292.8043
183.0204, 301.9950
183.5025, 311.3387
183.9846, 320.7751
184.4667, 330.1893
184.9489, 339.3088
185.4310, 348.8884
185.9131, 357.8383
186.3952, 367.8223
186.8773, 380.9674
187.3594, 397.3811
187.8416, 414.3362
188.3237, 427.9061
188.8058, 436.0093
189.2879, 444.5820
189.7700, 452.8391
190.2521, 461.9273
190.7343, 472.2963
191.2164, 484.1766
191.6985, 498.0948
192.1806, 514.6659
192.6627, 533.8682
193.1448, 556.4525
193.6270, 584.8709
194.1091, 614.2426
194.5912, 643.3572
195.0733, 671.0923
195.5554, 694.7523
196.0375, 709.9643
196.5197, 712.0838
197.0018, 720.0399
197.4839, 737.0152
197.9660, 756.0408
198.4481, 775.4998
198.9302, 793.8636
199.4124, 807.7579
199.8945, 813.1357
200.3766, 808.0872
200.8587, 801.5320
201.3408, 798.5840
201.8229, 790.2943
202.3051, 769.9121
202.7872, 738.7515
203.2693, 704.2768
203.7514, 673.8719
204.2335, 648.9819
204.7156, 618.8991
205.1978, 575.7391
205.6799, 535.4448
206.1620, 506.6364
206.6441, 487.6536
207.1262, 471.4675
207.6083, 452.3840
208.0905, 430.4771
208.5726, 405.9540
209.0547, 371.9902
209.5368, 342.3833
210.0189, 324.3466
210.5010, 315.3341
210.9832, 307.8905
211.4653, 296.2968
211.9474, 280.8793
212.4295, 270.9879
212.9116, 271.3630
213.3937, 271.8235
213.8759, 270.1135
214.3580, 266.3315
214.8401, 260.7374
215.3222, 253.1940
215.8043, 244.2762
216.2864, 238.4236
216.7686, 238.8631
217.2507, 238.6721
217.7328, 234.9658
218.2149, 230.0512
218.6970, 227.6087
219.1791, 229.6431
219.6613, 235.2641
220.1434, 241.0190
220.6255, 249.2564
221.1076, 254.8145
221.5897, 254.6839
222.0718, 252.4101
222.5540, 252.1807
223.0361, 255.8004
223.5182, 262.3889
224.0003, 269.6795
224.4824, 280.1794
224.9645, 288.0692
225.4467, 291.1057
225.9288, 292.5633
226.4109, 295.6235
226.8930, 301.3236
227.3751, 308.4977
227.8572, 314.9230
228.3394, 318.4263
228.8215, 325.0623
229.3036, 337.2021
229.7857, 350.6601
230.2678, 362.0875
230.7499, 370.8455
231.2321, 378.6552
231.7142, 388.0461
232.1963, 400.3770
232.6784, 410.6172
233.1605, 415.5625
233.6426, 421.2476
234.1248, 431.0770
234.6069, 445.4328
235.0890, 463.1568
235.5711, 483.4124
236.0532, 507.2562
236.5353, 528.4932
237.0175, 546.2390
237.4996, 562.8018
237.9817, 579.0620
238.4638, 595.0792
238.9459, 610.6218
239.4280, 625.5001
239.9102, 639.7200
240.3923, 654.0758
240.8744, 675.7954
241.3565, 690.1818
241.8386, 688.3743
242.3207, 676.4230
242.8029, 665.4041
243.2850, 662.3499
243.7671, 666.5380
244.2492, 672.9406
244.7313, 680.8709
245.2134, 692.3619
245.6956, 711.9298
246.1777, 734.0200
246.6598, 750.7379
247.1419, 758.0822
247.6240, 759.7897
248.1061, 766.8589
248.5883, 784.4897
249.0704, 799.3951
249.5525, 812.2319
250.0346, 820.9515
250.5167, 822.3067
250.9988, 815.4705
251.4810, 804.7957
251.9631, 799.0422
252.4452, 804.3711
252.9273, 799.3068
253.4094, 776.2240
253.8915, 747.8227
254.3737, 722.3032
254.8558, 700.9041
255.3379, 679.4269
255.8200, 652.4409
256.3021, 618.7683
256.7842, 585.2888
257.2664, 549.5981
257.7485, 516.4066
258.2306, 489.0477
258.7127, 466.4193
259.1948, 443.9070
259.6769, 416.0411
260.1591, 383.0088
260.6412, 357.1650
261.1233, 343.4533
261.6054, 331.4581
262.0875, 316.8769
262.5696, 300.8449
263.0518, 285.8808
263.5339, 273.3684
264.0160, 262.9797
264.4981, 254.0554
264.9802, 248.1170
265.4623, 240.6710
265.9445, 227.2903
266.4266, 212.5115
266.9087, 202.6045
267.3908, 201.0480
267.8729, 202.8410
268.3550, 198.9348
268.8372, 187.4513
269.3193, 178.1302
269.8014, 176.7224
270.2835, 177.8108
270.7656, 177.6751
271.2477, 175.6831
271.7299, 171.7397
272.2120, 163.7950
272.6941, 151.8985
273.1762, 144.9991
273.6583, 148.2585
274.1404, 154.3445
274.6226, 157.7801
275.1047, 158.3794
275.5868, 155.5729
276.0689, 146.0536
276.5510, 132.4251
277.0331, 123.9274
277.5153, 122.8472
277.9974, 124.9982
278.4795, 127.2395
278.9616, 129.6730
279.4437, 132.9122
279.9258, 138.7235
280.4080, 144.8744
280.8901, 148.1362
281.3722, 148.3328
281.8543, 145.9048
282.3364, 138.8455
282.8185, 129.4200
283.3007, 123.9346
283.7828, 124.6490
284.2649, 128.2031
284.7470, 133.4687
285.2291, 139.9809
285.7112, 144.4224
286.1934, 144.7923
286.6755, 142.2325
287.1576, 139.5854
287.6397, 135.6090
288.1218, 133.7595
288.6039, 136.5802
289.0861, 142.4112
289.5682, 148.5533
290.0503, 154.5530
290.5324, 158.8871
291.0145, 158.3064
291.4966, 151.2726
291.9788, 145.2585
292.4609, 141.0196
292.9430, 138.3557
293.4251, 137.8490
293.9072, 139.3728
294.3893, 140.6401
294.8715, 139.0492
295.3536, 133.9483
295.8357, 131.0214
296.3178, 130.0804
296.7999, 131.2714
297.2820, 137.2894
297.7642, 145.9909
298.2463, 150.6618
298.7284, 146.0407
299.2105, 133.8447
299.6926, 128.8113
300.1747, 138.5879
300.6569, 146.3373
301.1390, 147.8783
301.6211, 145.9937
302.1032, 144.5990
302.5853, 145.3631
303.0674, 147.1105
303.5496, 147.2070
304.0317, 144.3185
304.5138, 141.9600
304.9959, 138.8511
305.4780, 137.1613
305.9601, 140.3437
306.4423, 147.9162
306.9244, 154.3346
307.4065, 151.4286
307.8886, 135.9628
308.3707, 129.5959
308.8528, 142.3269
309.3350, 155.4761
309.8171, 162.0630
310.2992, 163.5388
310.7813, 164.7619
311.2634, 169.1640
311.7455, 175.9048
312.2277, 180.9906
312.7098, 183.6781
313.1919, 185.8826
313.6740, 188.2061
314.1561, 190.4915
314.6382, 191.8315
315.1204, 191.2661
315.6025, 192.1507
316.0846, 201.4908
316.5667, 221.0113
317.0488, 235.1698
317.5309, 235.9666
318.0131, 232.2720
318.4952, 230.3965
318.9773, 230.8453
319.4594, 234.2757
319.9415, 243.7135
320.4236, 256.9712
320.9058, 265.6454
321.3879, 267.5994
321.8700, 266.8789
322.3521, 267.4341
322.8342, 268.5191
323.3163, 266.7616
323.7985, 259.2123
324.2806, 249.4861
324.7627, 241.7066
325.2448, 235.9398
325.7269, 230.2377
326.2090, 223.2032
326.6912, 215.4293
327.1733, 208.9118
327.6554, 202.7278
328.1375, 198.8375
328.6196, 201.0382
329.1017, 206.0141
329.5839, 206.0779
330.0660, 198.1109
330.5481, 185.9241
331.0302, 176.3172
331.5123, 170.2224
331.9944, 164.4037
332.4766, 157.4775
332.9587, 151.4847
333.4408, 149.0930
333.9229, 150.1224
334.4050, 151.1773
334.8871, 148.8262
335.3693, 142.6338
335.8514, 138.6015
336.3335, 138.1288
336.8156, 138.0406
337.2977, 137.4848
337.7798, 136.5286
338.2620, 135.4986
338.7441, 134.5930
339.2262, 133.6400
339.7083, 132.1582
340.1904, 130.4706
340.6725, 127.6028
341.1547, 120.7070
341.6368, 114.4458
342.1189, 114.6491
342.6010, 121.6255
343.0831, 127.9519
343.5652, 121.9339
344.0474, 100.9918
344.5295, 91.97804
345.0116, 108.6750
345.4937, 124.1060
345.9758, 123.6721
346.4579, 111.5803
346.9401, 99.81607
347.4222, 94.36715
347.9043, 94.04832
348.3864, 97.48223
348.8685, 106.3360
349.3506, 112.7291
349.8328, 110.4173
350.3149, 104.4974
350.7970, 100.9812
351.2791, 100.9339
351.7612, 102.8243
352.2433, 108.0888
352.7255, 114.9861
353.2076, 114.9322
353.6897, 103.0356
354.1718, 88.69206
354.6539, 85.69935
355.1360, 93.66713
355.6182, 99.82825
356.1003, 100.0817
356.5824, 97.96137
357.0645, 96.82447
357.5466, 96.92464
358.0287, 97.12996
358.5109, 96.44473
358.9930, 95.07406
359.4751, 95.27882
359.9572, 96.37156
360.4393, 99.50038
360.9214, 108.6239
361.4036, 119.0813
361.8857, 123.1947
362.3678, 118.0301
362.8499, 107.7040
363.3320, 99.61523
363.8141, 94.45061
364.2963, 90.38063
364.7784, 86.67957
365.2605, 84.48528
365.7426, 85.70923
366.2247, 89.46116
366.7068, 92.21661
367.1890, 90.14362
367.6711, 84.01550
368.1532, 84.35106
368.6353, 97.12814
369.1174, 108.0602
369.5995, 113.6035
370.0817, 115.0798
370.5638, 113.3363
371.0459, 108.2428
371.5280, 102.7924
372.0101, 101.8082
372.4922, 105.7011
372.9744, 108.2976
373.4565, 107.8292
373.9386, 106.0008
374.4207, 104.5345
374.9028, 103.3367
375.3849, 101.0434
375.8671, 92.83539
376.3492, 84.34669
376.8313, 88.23611
377.3134, 106.6423
377.7955, 124.2814
378.2776, 130.8068
378.7598, 128.0397
379.2419, 125.8167
379.7240, 125.0385
380.2061, 123.8927
380.6882, 119.7923
381.1703, 114.8478
381.6525, 114.1053
382.1346, 119.5434
382.6167, 127.6549
383.0988, 132.9529
383.5809, 133.2924
384.0630, 136.1382
384.5452, 146.1916
385.0273, 154.8601
385.5094, 154.8784
385.9915, 147.8250
386.4736, 140.8456
386.9557, 139.1537
387.4379, 142.2214
387.9200, 146.2295
388.4021, 152.8191
388.8842, 158.1700
389.3663, 159.7620
389.8484, 160.8522
390.3306, 165.3318
390.8127, 174.1970
391.2948, 183.9530
391.7769, 190.0356
392.2590, 192.0935
392.7411, 194.8298
393.2233, 199.9721
393.7054, 204.1794
394.1875, 204.7334
394.6696, 202.7941
395.1517, 201.5767
395.6339, 201.0920
396.1160, 203.1255
396.5981, 212.4473
397.0802, 229.4262
397.5623, 243.7509
398.0444, 250.7793
398.5266, 252.3124
399.0087, 251.9327
399.4908, 248.7639
399.9729, 246.4986
400.4550, 245.4753
400.9371, 246.6030
401.4193, 252.2747
401.9014, 262.8426
402.3835, 273.9242
402.8656, 281.3286
403.3477, 284.7474
403.8298, 288.9533
404.3120, 295.7890
404.7941, 301.3705
405.2762, 303.9986
405.7583, 304.4330
406.2404, 304.0367
406.7225, 303.4154
407.2047, 302.1408
407.6868, 298.2555
408.1689, 286.4242
408.6510, 284.6211
409.1331, 303.3471
409.6152, 323.0020
410.0974, 331.6300
410.5795, 330.6921
411.0616, 329.4892
411.5437, 334.3131
412.0258, 344.1310
412.5079, 356.1108
412.9901, 371.9447
413.4722, 385.0568
413.9543, 389.2626
414.4364, 390.6623
414.9185, 396.2741
415.4006, 408.3703
415.8828, 419.2683
416.3649, 421.1001
416.8470, 417.6355
417.3291, 419.4797
417.8112, 429.1532
418.2933, 441.7326
418.7755, 453.1046
419.2576, 463.1916
419.7397, 472.8654
420.2218, 482.8552
420.7039, 491.6769
421.1860, 497.4698
421.6682, 501.5437
422.1503, 506.5070
422.6324, 513.4861
423.1145, 522.6310
423.5966, 534.4321
424.0787, 551.6136
424.5609, 566.4099
425.0430, 577.7672
425.5251, 587.9255
426.0072, 598.5794
426.4893, 609.3899
426.9714, 618.3939
427.4536, 623.5859
427.9357, 626.2287
428.4178, 631.9144
428.8999, 641.9302
429.3820, 652.1422
429.8641, 661.7997
430.3463, 670.8431
430.8284, 680.3701
431.3105, 690.7654
431.7926, 696.7321
432.2747, 688.6755
432.7568, 672.6801
433.2390, 669.6403
433.7211, 684.4048
434.2032, 702.6841
434.6853, 715.3080
435.1674, 722.0770
435.6495, 723.9311
436.1317, 714.1923
436.6138, 706.3787
437.0959, 709.7502
437.5780, 719.5405
438.0601, 726.9507
438.5422, 728.9661
439.0244, 726.5344
439.5065, 720.6306
439.9886, 709.4152
440.4707, 700.5235
440.9528, 694.6498
441.4349, 689.9619
441.9171, 685.8319
442.3992, 682.1581
442.8813, 679.2165
443.3634, 677.3872
443.8455, 675.6110
444.3276, 671.7494
444.8098, 666.4796
445.2919, 656.9064
445.7740, 639.2855
446.2561, 619.2065
446.7382, 599.0861
447.2203, 579.4945
447.7025, 561.8312
448.1846, 548.2364
448.6667, 536.6942
449.1488, 522.8658
449.6309, 506.3520
450.1130, 491.4214
450.5952, 480.8418
451.0773, 473.1456
451.5594, 464.1364
452.0415, 452.7647
452.5236, 442.3559
453.0057, 435.1656
453.4879, 428.8405
453.9700, 420.1822
454.4521, 408.9401
454.9342, 398.0291
455.4163, 390.6597
455.8984, 386.7707
456.3806, 377.8189
456.8627, 356.5148
457.3448, 338.5010
457.8269, 327.4602
458.3090, 320.6072
458.7911, 315.6942
459.2733, 311.8199
459.7554, 307.1318
460.2375, 298.1712
460.7196, 285.0086
461.2017, 275.7767
461.6838, 272.7536
462.1660, 270.8406
462.6481, 267.6474
463.1302, 263.2368
463.6123, 257.5098
464.0944, 249.7629
464.5765, 241.6601
465.0587, 233.6574
465.5408, 226.3409
466.0229, 222.2953
466.5050, 222.7746
466.9871, 224.1530
467.4692, 221.8795
467.9514, 215.0899
468.4335, 208.7604
468.9156, 204.0124
469.3977, 198.6003
469.8798, 188.7657
470.3619, 177.8285
470.8441, 173.3621
471.3262, 178.9654
471.8083, 188.7007
472.2904, 190.2831
472.7725, 179.6741
473.2546, 173.1353
473.7368, 177.9970
474.2189, 181.5490
474.7010, 176.1761
475.1831, 164.4525
475.6652, 154.3456
476.1473, 150.1118
476.6295, 149.3264
477.1116, 148.7277
477.5937, 148.3147
478.0758, 148.0010
478.5579, 147.9682
479.0400, 147.7471
479.5222, 147.1669
480.0043, 146.5604
480.4864, 143.0857
480.9685, 129.7693
481.4506, 118.4518
481.9327, 123.1272
482.4149, 139.2312
482.8970, 148.6423
483.3791, 140.7186
483.8612, 122.7750
484.3433, 114.8426
484.8254, 124.9848
485.3076, 130.8686
485.7897, 130.4269
486.2718, 127.3649
486.7539, 122.5278
487.2360, 116.9286
487.7181, 112.7062
488.2003, 111.5022
488.6824, 112.3232
489.1645, 113.4101
489.6466, 115.0807
490.1287, 114.5354
490.6108, 108.6566
491.0930, 102.0582
491.5751, 100.9877
492.0572, 105.7550
492.5393, 109.7306
493.0214, 109.9861
493.5035, 108.8574
493.9857, 108.1012
494.4678, 108.0440
494.9499, 109.6090
495.4320, 113.6218
495.9141, 118.8514
496.3962, 121.9152
496.8784, 122.5823
497.3605, 121.1521
497.8426, 114.6066
498.3247, 108.5797
498.8068, 107.3325
499.2889, 110.1829
499.7711, 113.8897
500.2532, 116.9544
500.7353, 118.5517
501.2174, 115.7093
501.6995, 107.3719
502.1816, 99.46128
502.6638, 91.42512
503.1459, 86.63007
503.6280, 89.69833
504.1101, 100.5338
504.5922, 109.8548
505.0743, 114.7060
505.5565, 116.0577
506.0386, 112.9905
506.5207, 106.6592
507.0028, 102.4889
507.4849, 103.4035
507.9670, 107.2961
508.4492, 109.3329
508.9313, 108.1365
509.4134, 107.5901
509.8955, 110.0488
510.3776, 111.0258
510.8597, 106.1758
511.3419, 97.55572
511.8240, 90.31179
512.3061, 87.05727
512.7882, 87.91890
513.2703, 95.93021
513.7524, 113.2486
514.2346, 121.3483
514.7167, 110.5118
515.1988, 95.31850
515.6809, 88.43899
516.1630, 88.96927
516.6451, 91.13214
517.1273, 94.14152
517.6094, 97.30129
518.0915, 100.7429
518.5736, 103.9256
519.0557, 104.7230
519.5378, 102.0624
520.0200, 98.73092
520.5021, 99.75446
520.9842, 108.5566
521.4663, 110.1884
521.9484, 97.69448
522.4305, 86.30966
522.9127, 82.25570
523.3948, 83.70332
523.8769, 87.77835
524.3590, 93.56489
524.8411, 98.43736
525.3232, 97.78645
525.8054, 91.77654
526.2875, 87.21541
526.7696, 84.70233
527.2517, 84.25703
527.7338, 87.65489
528.2159, 93.25846
528.6981, 96.35036
529.1802, 94.26427
529.6623, 91.99290
530.1444, 94.14798
530.6265, 97.22856
531.1086, 93.78700
531.5908, 82.58195
532.0729, 71.45385
532.5550, 68.77357
533.0371, 74.66373
533.5192, 79.74061
534.0013, 83.37096
534.4835, 86.97522
534.9656, 91.16148
535.4477, 95.26109
535.9298, 98.45164
536.4119, 100.6352
536.8940, 102.7026
537.3762, 106.8140
537.8583, 111.3268
538.3404, 110.2864
538.8225, 102.8100
539.3046, 95.35505
539.7867, 90.66079
540.2689, 88.72052
540.7510, 89.48131
541.2331, 92.78816
541.7152, 98.64709
542.1973, 110.7590
542.6794, 122.6449
543.1616, 128.9588
543.6437, 129.8366
544.1258, 127.1017
544.6079, 121.2692
545.0900, 115.0837
545.5721, 117.3449
546.0543, 132.0225
546.5364, 143.3156
547.0185, 148.3598
547.5006, 149.8565
547.9827, 146.7028
548.4648, 140.9296
548.9470, 139.1534
549.4291, 146.9780
549.9112, 156.8635
550.3933, 159.4270
550.8754, 157.1828
551.3575, 160.3830
551.8397, 172.7843
552.3218, 186.4016
552.8039, 191.4626
553.2860, 186.6084
553.7681, 184.3667
554.2502, 184.8222
554.7324, 187.3457
555.2145, 190.5639
555.6966, 196.2859
556.1787, 208.0824
556.6608, 226.4058
557.1429, 245.5625
557.6251, 258.0272
558.1072, 265.2854
558.5893, 279.0948
559.0714, 301.8233
559.5535, 323.3268
560.0356, 336.7720
560.5178, 346.8057
560.9999, 362.2896
561.4820, 385.0189
561.9641, 407.2839
562.4462, 425.6794
562.9283, 443.2188
563.4105, 463.7199
563.8926, 486.4511
564.3747, 506.6773
564.8568, 521.2602
565.3389, 534.4174
565.8210, 558.0519
566.3032, 596.6681
566.7853, 633.4706
567.2674, 666.6281
567.7495, 698.4391
568.2316, 729.0515
568.7137, 759.1955
569.1959, 790.8461
569.6780, 826.9063
570.1601, 861.1351
570.6422, 884.8994
571.1243, 902.0403
571.6064, 925.1849
572.0886, 957.4308
572.5707, 991.5474
573.0528, 1021.441
573.5349, 1047.175
574.0170, 1067.232
574.4991, 1086.694
574.9813, 1094.577
575.4634, 1084.127
575.9455, 1064.451
576.4276, 1042.609
576.9097, 1020.168
577.3918, 996.7598
577.8740, 973.3267
578.3561, 948.0759
578.8382, 913.9159
579.3203, 869.7447
579.8024, 828.3073
580.2845, 792.0820
580.7667, 762.9658
581.2488, 746.5003
581.7309, 742.7879
582.2130, 737.7877
582.6951, 725.4609
583.1772, 715.5027
583.6594, 713.7699
584.1415, 718.4631
584.6236, 726.4625
585.1057, 736.4973
585.5878, 747.7852
586.0699, 758.4659
586.5521, 768.2332
587.0342, 785.7748
587.5163, 819.6129
587.9984, 846.1902
588.4805, 852.8587
588.9626, 847.7136
589.4448, 839.5932
589.9269, 829.8391
590.4090, 814.6343
590.8911, 790.8479
591.3732, 761.4212
591.8553, 728.5905
592.3375, 693.2772
592.8196, 657.7672
593.3017, 623.3558
593.7838, 589.5744
594.2659, 554.6818
594.7480, 517.1600
595.2302, 482.8279
595.7123, 450.4721
596.1944, 422.9807
596.6765, 406.1544
597.1586, 394.0977
597.6407, 375.1587
598.1229, 343.3596
598.6050, 313.4649
599.0871, 302.8581
599.5692, 302.9446
600.0513, 290.3901
600.5334, 262.1982
601.0156, 236.7002
601.4977, 227.0685
601.9798, 229.3611
602.4619, 228.1377
602.9440, 219.8851
603.4261, 213.0654
603.9083, 210.9168
604.3904, 207.4642
604.8725, 196.3277
605.3546, 180.5792
605.8367, 169.4569
606.3188, 168.7962
606.8010, 171.1684
607.2831, 164.8553
607.7652, 151.4659
608.2473, 142.3993
608.7294, 139.7845
609.2115, 141.3049
609.6937, 146.5154
610.1758, 154.5712
610.6579, 158.6112
611.1400, 153.4904
611.6221, 151.6142
612.1042, 155.8833
612.5864, 163.7205
613.0685, 174.0759
613.5506, 185.9249
614.0327, 196.9794
614.5148, 205.3488
614.9969, 212.7484
615.4791, 223.1522
615.9612, 236.6718
616.4433, 249.5260
616.9254, 260.3708
617.4075, 271.3231
617.8896, 284.2878
618.3718, 299.1771
618.8539, 314.6003
619.3360, 327.8838
619.8181, 344.8506
620.3002, 371.6037
620.7823, 400.6079
621.2645, 421.2339
621.7466, 434.0396
622.2287, 450.5802
622.7108, 481.4973
623.1929, 520.3551
623.6750, 544.4220
624.1572, 550.0967
624.6393, 564.5719
625.1214, 597.9030
625.6035, 636.9512
626.0856, 669.8261
626.5677, 697.4432
627.0499, 723.4672
627.5320, 752.6187
628.0141, 775.3102
628.4962, 791.6694
628.9783, 796.6851
629.4604, 779.8813
629.9426, 742.2615
630.4247, 698.4050
630.9068, 660.1147
631.3889, 625.8391
631.8710, 589.7239
632.3531, 552.1055
632.8353, 510.0557
633.3174, 457.0651
633.7995, 405.6099
634.2816, 367.2715
634.7637, 340.3936
635.2458, 316.1498
635.7280, 291.2362
636.2101, 270.6654
636.6922, 260.5990
637.1743, 254.8565
637.6564, 242.7421
638.1385, 223.7023
638.6207, 208.7955
639.1028, 209.4373
639.5849, 219.9433
640.0670, 213.9821
640.5491, 185.4792
641.0313, 163.5914
641.5134, 158.4239
641.9955, 157.9454
642.4776, 150.6876
642.9597, 138.5822
643.4418, 131.3187
643.9240, 135.9280
644.4061, 140.1387
644.8882, 136.3453
645.3703, 129.0847
645.8524, 124.8923
646.3345, 124.5342
646.8167, 124.2673
647.2988, 120.9274
647.7809, 115.5938
648.2630, 112.2749
648.7451, 111.5500
649.2272, 110.5496
649.7094, 109.2601
650.1915, 106.9039
650.6736, 101.9829
651.1557, 95.32179
651.6378, 90.02014
652.1199, 85.25623
652.6021, 83.60762
653.0842, 89.34892
653.5663, 97.09652
654.0484, 100.6451
654.5305, 99.17001
655.0126, 94.04121
655.4948, 85.52193
655.9769, 75.93438
656.4590, 72.87217
656.9411, 77.89082
657.4232, 78.69270
657.9053, 70.75048
658.3875, 62.32311
658.8696, 58.95758
659.3517, 60.08832
659.8338, 64.90107
660.3159, 78.16794
660.7980, 87.30360
661.2802, 85.62460
661.7623, 79.57809
662.2444, 74.36870
662.7265, 70.89597
663.2086, 68.99310
663.6907, 68.70682
664.1729, 69.19406
664.6550, 67.99250
665.1371, 64.97718
665.6192, 67.12693
666.1013, 78.42170
666.5834, 86.59367
667.0656, 80.30399
667.5477, 65.71370
668.0298, 61.80537
668.5119, 75.41817
668.9940, 84.70313
669.4761, 83.01218
669.9583, 77.70338
670.4404, 72.49847
670.9225, 68.35115
671.4046, 66.15172
671.8867, 66.31491
672.3688, 67.56190
672.8510, 68.46528
673.3331, 69.02547
673.8152, 69.26681
674.2973, 69.21350
674.7794, 68.47115
675.2615, 65.98593
675.7437, 63.54600
676.2258, 65.30671
676.7079, 73.78548
677.1900, 79.13060
677.6721, 79.38155
678.1542, 78.27935
678.6364, 76.64259
679.1185, 75.16435
679.6006, 75.16064
680.0827, 76.83154
680.5648, 77.67407
681.0469, 74.73432
681.5291, 69.53359
682.0112, 64.65366
682.4933, 60.34665
682.9754, 60.53111
683.4575, 68.07236
683.9396, 75.48830
684.4218, 71.54725
684.9039, 54.09158
685.3860, 44.21205
685.8681, 44.07776
686.3502, 48.90377
686.8323, 64.43999
687.3145, 80.06277
687.7966, 84.86605
688.2787, 78.84660
688.7608, 71.13863
689.2429, 66.24203
689.7250, 62.50107
690.2072, 56.94688
690.6893, 51.11325
691.1714, 49.98823
691.6535, 54.59961
692.1356, 60.52816
692.6177, 63.81276
693.0999, 64.91977
693.5820, 66.80819
694.0641, 70.80883
694.5462, 72.50769
695.0283, 68.80879
695.5104, 64.98752
695.9926, 64.46410
696.4747, 66.38906
696.9568, 68.30617
697.4389, 70.35760
697.9210, 70.92776
698.4031, 67.78056
698.8853, 63.51702
699.3674, 61.93806
699.8495, 62.52455
700.3316, 61.34465
700.8137, 55.99622
701.2958, 49.38441
701.7780, 47.13313
702.2601, 49.40628
702.7422, 52.08094
703.2243, 55.13481
703.7064, 58.03607
704.1885, 60.46638
704.6707, 62.57663
705.1528, 64.73262
705.6349, 67.03153
706.1170, 69.01401
706.5991, 70.37206
707.0812, 71.66285
707.5634, 74.12772
708.0455, 76.37621
708.5276, 75.57764
709.0097, 71.26888
709.4918, 67.10777
709.9739, 66.53941
710.4561, 68.57604
710.9382, 71.65873
711.4203, 75.59023
711.9024, 76.96938
712.3845, 74.31301
712.8666, 70.57397
713.3488, 69.21449
713.8309, 70.23460
714.3130, 69.74464
714.7951, 63.07814
715.2772, 61.57435
715.7593, 72.85686
716.2415, 84.58187
716.7236, 85.96258
717.2057, 79.10063
717.6878, 74.17914
718.1699, 75.38870
718.6520, 79.23627
719.1342, 85.88409
719.6163, 92.12512
720.0984, 90.85463
720.5805, 82.65607
721.0626, 75.54015
721.5447, 74.47318
722.0269, 77.76059
722.5090, 82.83205
722.9911, 90.58772
723.4732, 93.47791
723.9553, 89.88658
724.4374, 83.72427
724.9196, 73.99056
725.4017, 64.43171
725.8838, 62.09779
726.3659, 68.73144
726.8480, 75.00960
727.3301, 80.42961
727.8123, 83.85016
728.2944, 83.39862
728.7765, 81.04662
729.2586, 79.98705
729.7407, 80.83450
730.2228, 81.24040
730.7050, 78.48154
731.1871, 74.28746
731.6692, 72.46788
732.1513, 72.83425
732.6334, 73.62578
733.1155, 74.32914
733.5977, 75.80563
734.0798, 79.25852
734.5619, 84.26953
735.0440, 87.04569
735.5261, 86.27835
736.0082, 85.48737
736.4904, 85.26019
736.9725, 84.85083
737.4546, 83.28823
737.9367, 81.25372
738.4188, 80.96529
738.9009, 84.60094
739.3831, 85.39150
739.8652, 74.78907
740.3473, 62.62532
740.8294, 62.48899
741.3115, 71.26843
741.7936, 75.74480
742.2758, 70.06687
742.7579, 62.13714
743.2400, 64.51878
743.7221, 75.95242
744.2042, 78.40952
744.6863, 69.54518
745.1685, 65.38375
745.6506, 74.13602
746.1327, 86.43289
746.6148, 90.40457
747.0969, 85.35107
747.5790, 80.12966
748.0612, 70.32747
748.5433, 66.06426
749.0254, 75.39796
749.5075, 86.66740
749.9896, 89.16342
750.4717, 83.92636
750.9539, 78.72041
751.4360, 76.70770
751.9181, 76.76564
752.4002, 79.18819
752.8823, 82.47449
753.3644, 83.87960
753.8466, 83.16764
754.3287, 80.46476
754.8108, 75.48436
755.2929, 71.49959
755.7750, 77.18469
756.2571, 94.73495
756.7393, 99.33669
757.2214, 85.48179
757.7035, 71.95055
758.1856, 64.77946
758.6677, 63.37934
759.1498, 69.01424
759.6320, 82.47048
760.1141, 91.10886
760.5962, 90.14035
761.0783, 88.77663
761.5604, 90.49052
762.0425, 93.37896
762.5247, 96.33417
763.0068, 98.53119
763.4889, 98.00130
763.9710, 92.92381
764.4531, 86.03729
764.9352, 78.68420
765.4174, 72.27888
765.8995, 71.14466
766.3816, 75.38955
766.8637, 80.48549
767.3458, 83.76917
767.8279, 85.91080
768.3101, 88.73952
768.7922, 92.90151
769.2743, 93.50954
769.7564, 89.24755
770.2385, 84.01165
770.7206, 77.16759
771.2028, 71.82294
771.6849, 73.93542
772.1670, 84.21355
772.6491, 89.92361
773.1312, 87.41861
773.6133, 82.71979
774.0955, 74.89710
774.5776, 68.17019
775.0597, 67.99029
775.5418, 73.55918
776.0239, 78.92451
776.5060, 80.82076
776.9882, 81.26156
777.4703, 82.41505
777.9524, 83.85102
778.4345, 84.84348
778.9166, 85.18900
779.3987, 83.66731
779.8809, 79.27982
780.3630, 75.00288
780.8451, 77.76408
781.3272, 88.93697
781.8093, 92.57843
782.2914, 85.83981
782.7736, 79.13345
783.2557, 76.39317
783.7378, 75.56773
784.2199, 72.86865
784.7020, 68.08380
785.1841, 69.88860
785.6663, 85.92089
786.1484, 99.16705
786.6305, 105.3320
787.1126, 106.6329
787.5947, 104.3900
788.0768, 99.17838
788.5590, 90.94622
789.0411, 77.74831
789.5232, 67.66278
790.0053, 69.27723
790.4874, 77.45718
790.9695, 85.87993
791.4517, 93.13051
791.9338, 96.74738
792.4159, 95.68280
792.8980, 92.14952
793.3801, 88.12657
793.8622, 84.06461
794.3444, 85.82906
794.8265, 94.84141
795.3086, 100.5567
795.7907, 98.97859
796.2728, 95.11135
796.7549, 94.11715
797.2371, 95.56695
797.7192, 94.41007
798.2013, 88.75930
798.6834, 83.15279
799.1655, 74.71203
799.6476, 69.41656
800.1298, 72.18660
800.6119, 80.26495
801.0940, 89.05372
801.5761, 98.17376
802.0582, 103.4048
802.5403, 99.77118
803.0225, 93.78658
803.5046, 91.70788
803.9867, 91.74319
804.4688, 89.11916
804.9509, 83.05145
805.4330, 77.81507
805.9152, 77.14917
806.3973, 79.70308
806.8794, 83.50443
807.3615, 88.17876
807.8436, 90.75704
808.3257, 90.69951
808.8079, 88.33495
809.2900, 83.23401
809.7721, 77.24632
810.2542, 75.53146
810.7363, 79.18931
811.2184, 83.53933
811.7006, 89.85660
812.1827, 94.85905
812.6648, 97.89195
813.1469, 98.44597
813.6290, 94.38407
814.1111, 85.59704
814.5933, 80.87514
815.0754, 85.16059
815.5575, 89.11928
816.0396, 89.56933
816.5217, 88.14108
817.0038, 85.46129
817.4860, 82.39606
817.9681, 80.65566
818.4502, 80.95515
818.9323, 82.85625
819.4144, 87.75110
819.8965, 93.04521
820.3787, 93.33340
820.8608, 90.04649
821.3429, 90.36969
821.8250, 96.78621
822.3071, 102.3412
822.7892, 97.21696
823.2714, 85.13940
823.7535, 85.68630
824.2356, 99.82521
824.7177, 106.8577
825.1998, 100.4459
825.6819, 93.07993
826.1641, 95.24294
826.6462, 103.9581
827.1283, 107.9282
827.6104, 105.0822
828.0925, 101.8040
828.5746, 95.78430
829.0568, 92.17793
829.5389, 93.98888
830.0210, 98.69639
830.5031, 103.6749
830.9852, 108.7579
831.4673, 112.5432
831.9495, 116.2040
832.4316, 116.6833
832.9137, 107.6022
833.3958, 98.17863
833.8779, 100.0979
834.3600, 111.1875
834.8422, 119.6771
835.3243, 119.4865
835.8064, 117.5898
836.2885, 122.8550
836.7706, 129.6079
837.2527, 126.2380
837.7349, 115.0444
838.2170, 106.6928
838.6991, 105.1708
839.1812, 108.8247
839.6633, 117.3082
840.1454, 128.6272
840.6276, 134.0780
841.1097, 133.5096
841.5918, 133.8464
842.0739, 137.0060
842.5560, 138.4670
843.0381, 134.4298
843.5203, 126.8797
844.0024, 121.3270
844.4845, 117.3343
844.9666, 116.6789
845.4487, 120.6933
845.9308, 126.1043
846.4130, 134.4025
846.8951, 141.7895
847.3772, 143.5807
847.8593, 139.8607
848.3414, 136.0650
848.8235, 130.9362
849.3057, 128.4544
849.7878, 132.2027
850.2699, 136.9944
850.7520, 138.4335
851.2341, 137.3911
851.7162, 136.9637
852.1984, 138.2793
852.6805, 139.3925
853.1626, 138.8971
853.6447, 137.6250
854.1268, 136.2974
854.6089, 134.9697
855.0911, 133.6814
855.5732, 132.4155
856.0553, 130.9962
856.5374, 129.1906
857.0195, 127.3651
857.5016, 125.9707
857.9838, 125.1310
858.4659, 124.2968
858.9480, 123.6092
859.4301, 130.0679
859.9122, 148.6370
860.3943, 167.7133
860.8765, 166.9025
861.3586, 146.0836
861.8407, 136.2289
862.3228, 141.0015
862.8049, 142.5459
863.2870, 134.6725
863.7692, 125.3498
864.2513, 121.0701
864.7334, 121.1573
865.2155, 122.4285
865.6976, 125.5729
866.1797, 128.7124
866.6619, 132.5168
867.1440, 135.5681
867.6261, 136.2858
868.1082, 136.5130
868.5903, 139.4682
869.0724, 145.2755
869.5546, 147.9905
870.0367, 143.0920
870.5188, 138.5743
871.0009, 137.4490
871.4830, 138.4482
871.9651, 141.3354
872.4473, 145.1093
872.9294, 147.8924
873.4115, 149.0294
873.8936, 148.8272
874.3757, 145.7969
874.8578, 142.9048
875.3400, 145.6058
875.8221, 150.7569
876.3042, 148.8987
876.7863, 139.5501
877.2684, 135.0536
877.7505, 146.3585
878.2327, 163.1948
878.7148, 167.6895
879.1969, 162.1507
879.6790, 153.1696
880.1611, 142.1601
880.6432, 137.5292
881.1254, 143.4953
881.6075, 153.7786
882.0896, 160.3275
882.5717, 163.3921
883.0538, 164.8682
883.5359, 164.3345
884.0181, 165.2686
884.5002, 168.6906
884.9823, 172.9979
885.4644, 178.2781
885.9465, 182.3771
886.4286, 178.1635
886.9108, 159.5755
887.3929, 153.0137
887.8750, 168.5301
888.3571, 180.4561
888.8392, 177.5420
889.3214, 169.8884
889.8035, 167.2330
890.2856, 169.0242
890.7677, 170.6225
891.2498, 172.0577
891.7319, 172.7590
892.2141, 172.6778
892.6962, 171.8105
893.1783, 168.4319
893.6604, 165.0203
894.1425, 166.9428
894.6246, 174.9920
895.1068, 178.7643
895.5889, 166.3664
896.0710, 157.4524
896.5531, 168.6098
897.0352, 185.5926
897.5173, 193.1802
897.9995, 191.1924
898.4816, 184.3373
898.9637, 173.6709
899.4458, 166.9540
899.9279, 173.2341
900.4100, 185.3356
900.8922, 196.9140
901.3743, 206.0457
901.8564, 207.5982
902.3385, 201.8116
902.8206, 196.9924
903.3027, 199.3275
903.7849, 204.8654
904.2670, 205.6383
904.7491, 204.4820
905.2312, 213.7055
905.7133, 232.2266
906.1954, 244.1102
906.6776, 243.1780
907.1597, 234.8906
907.6418, 223.0249
908.1239, 210.8210
908.6060, 214.2104
909.0881, 233.5146
909.5703, 248.4090
910.0524, 255.5754
910.5345, 260.5167
911.0166, 266.6146
911.4987, 271.4209
911.9808, 269.1452
912.4630, 258.7173
912.9451, 260.3588
913.4272, 279.7288
913.9093, 293.6737
914.3914, 294.3137
914.8735, 292.7947
915.3557, 297.7978
915.8378, 307.3624
916.3199, 314.9966
916.8020, 318.7156
917.2841, 325.7278
917.7662, 340.5808
918.2484, 352.5949
918.7305, 352.7729
919.2126, 353.1229
919.6947, 368.3039
920.1768, 395.4009
920.6589, 413.9582
921.1411, 414.6023
921.6232, 419.0819
922.1053, 431.4325
922.5874, 447.3451
923.0695, 467.4803
923.5516, 488.2539
924.0338, 505.4139
924.5159, 518.3971
924.9980, 527.1530
925.4801, 522.4650
925.9622, 525.5184
926.4443, 553.0021
926.9265, 585.4852
927.4086, 603.6116
927.8907, 613.4556
928.3728, 631.4182
928.8549, 661.9808
929.3370, 693.5152
929.8192, 716.0284
930.3013, 740.1310
930.7834, 774.2936
931.2655, 815.5158
931.7476, 860.6034
932.2297, 908.6081
932.7119, 956.6663
933.1940, 1003.148
933.6761, 1058.640
934.1582, 1131.276
934.6403, 1219.675
935.1224, 1320.483
935.6046, 1435.628
936.0867, 1563.613
936.5688, 1706.989
937.0509, 1877.518
937.5330, 2080.338
938.0151, 2322.300
938.4973, 2616.994
938.9794, 2958.025
939.4615, 3337.059
939.9436, 3749.382
940.4257, 4171.200
940.9078, 4599.748
941.3900, 5069.292
941.8721, 5611.907
942.3542, 6207.948
942.8363, 6805.746
943.3184, 7416.401
943.8005, 8104.155
944.2827, 8870.789
944.7648, 9695.135
945.2469, 10567.46
945.7290, 11516.59
946.2111, 12573.90
946.6932, 13725.81
947.1754, 14942.84
947.6575, 16227.65
948.1396, 17556.23
948.6217, 18950.51
949.1038, 20156.57
949.5859, 21073.84
950.0681, 21651.23
950.5502, 21823.47
951.0323, 21585.03
951.5144, 20821.41
951.9965, 19467.88
952.4786, 17957.89
952.9608, 16329.27
953.4429, 14674.69
953.9250, 13017.84
954.4071, 11423.83
954.8892, 9982.162
955.3713, 8702.330
955.8535, 7549.586
956.3356, 6532.367
956.8177, 5630.240
957.2998, 4836.600
957.7819, 4148.774
958.2640, 3572.528
958.7462, 3092.144
959.2283, 2673.552
959.7104, 2316.556
960.1925, 2016.204
960.6746, 1782.335
961.1567, 1587.384
961.6389, 1434.449
962.1210, 1307.046
962.6031, 1194.621
963.0852, 1098.248
963.5673, 1021.485
964.0494, 973.1641
964.5316, 919.7827
965.0137, 852.3533
965.4958, 792.0854
965.9779, 746.3760
966.4600, 708.1091
966.9421, 669.3549
967.4243, 632.7073
967.9064, 609.5406
968.3885, 609.2452
968.8706, 602.0399
969.3527, 580.0934
969.8348, 558.9443
970.3170, 543.8397
970.7991, 531.9927
971.2812, 520.8868
971.7633, 510.5300
972.2454, 501.9627
972.7275, 497.3069
973.2097, 490.3295
973.6918, 477.0771
974.1739, 464.8994
974.6560, 456.4413
975.1381, 451.2382
975.6202, 450.7672
976.1024, 453.6122
976.5845, 451.8026
977.0666, 438.6118
977.5487, 430.4797
978.0308, 435.2032
978.5129, 441.3227
978.9951, 443.5320
979.4772, 443.0501
979.9593, 440.4850
980.4414, 436.6661
980.9235, 435.6749
981.4056, 438.3057
981.8878, 444.3026
982.3699, 450.6255
982.8520, 463.4430
983.3341, 495.1057
983.8162, 530.8762
984.2983, 548.5075
984.7805, 547.8702
985.2626, 549.7924
985.7447, 559.7541
986.2268, 574.7841
986.7089, 595.4566
987.1910, 619.2225
987.6732, 644.5035
988.1553, 671.6624
988.6374, 703.0991
989.1195, 737.9708
989.6016, 767.0505
990.0837, 774.2736
990.5659, 795.3185
991.0480, 858.9008
991.5301, 928.1124
992.0122, 974.9547
992.4943, 1008.447
992.9764, 1042.960
993.4586, 1081.817
993.9407, 1128.904
994.4228, 1196.044
994.9049, 1255.289
995.3870, 1276.181
995.8691, 1301.395
996.3513, 1375.536
996.8334, 1472.220
997.3155, 1548.143
997.7976, 1597.037
998.2797, 1638.893
998.7618, 1673.954
999.2440, 1716.084
999.7261, 1783.616
1000.208, 1849.936
1000.690, 1898.222
1001.172, 1927.229
1001.655, 1938.160
1002.137, 1931.105
1002.619, 1904.213
1003.101, 1850.704
1003.583, 1786.698
1004.065, 1716.215
1004.547, 1641.572
1005.029, 1564.991
1005.511, 1486.003
1005.994, 1403.807
1006.476, 1318.754
1006.958, 1231.664
1007.440, 1139.922
1007.922, 1052.306
1008.404, 968.2557
1008.886, 894.6446
1009.368, 843.4868
1009.851, 803.0721
1010.333, 753.6166
1010.815, 694.0433
1011.297, 641.7755
1011.779, 604.8065
1012.261, 573.0927
1012.743, 542.7022
1013.225, 515.1460
1013.707, 492.2306
1014.190, 472.5943
1014.672, 455.7080
1015.154, 440.7506
1015.636, 423.3246
1016.118, 398.3544
1016.600, 377.8270
1017.082, 368.7300
1017.564, 363.1591
1018.047, 359.6653
1018.529, 354.1119
1019.011, 338.3912
1019.493, 314.5930
1019.975, 298.6211
1020.457, 299.4186
1020.939, 299.0632
1021.421, 292.0654
1021.903, 281.7054
1022.386, 266.3703
1022.868, 251.1344
1023.350, 242.3665
1023.832, 239.4504
1024.314, 236.7043
1024.796, 233.6578
1025.278, 228.7386
1025.760, 219.6682
1026.242, 210.8701
1026.725, 202.4661
1027.207, 197.0410
1027.689, 200.2271
1028.171, 209.0335
1028.653, 210.8306
1029.135, 199.8739
1029.617, 192.1795
1030.099, 194.0355
1030.582, 195.4210
1031.064, 191.0074
1031.546, 185.6975
1032.028, 185.0923
1032.510, 187.3777
1032.992, 185.9355
1033.474, 178.6008
1033.956, 172.7232
1034.438, 169.1411
1034.921, 166.9983
1035.403, 165.4315
1035.885, 165.8049
1036.367, 171.1018
1036.849, 178.7955
1037.331, 182.2922
1037.813, 180.4276
1038.295, 178.5283
1038.778, 176.8783
1039.260, 174.8867
1039.742, 173.2895
1040.224, 170.3119
1040.706, 163.6210
1041.188, 155.4458
1041.670, 149.7854
1042.152, 146.5863
1042.635, 146.7673
1043.117, 154.6429
1043.599, 156.7786
1044.081, 147.4499
1044.563, 138.5919
1045.045, 136.1809
1045.527, 138.4404
1046.009, 143.4750
1046.491, 151.1742
1046.974, 155.9452
1047.456, 157.3282
1047.938, 157.0238
1048.420, 154.2725
1048.902, 152.3103
1049.384, 152.4733
1049.866, 154.3185
1050.348, 157.1227
1050.830, 161.1776
1051.313, 169.0606
1051.795, 181.8195
1052.277, 191.7686
1052.759, 198.6629
1053.241, 200.1064
1053.723, 194.0547
1054.205, 187.1341
1054.687, 184.9913
1055.169, 188.2523
1055.652, 199.6464
1056.134, 219.1127
1056.616, 241.4859
1057.098, 266.8524
1057.580, 286.1640
1058.062, 296.5614
1058.544, 308.5208
1059.026, 329.6841
1059.509, 358.4698
1059.991, 393.3011
1060.473, 433.0209
1060.955, 473.2147
1061.437, 513.0725
1061.919, 542.9722
1062.401, 562.8297
1062.883, 592.1355
1063.365, 642.2657
1063.848, 703.2438
1064.330, 765.1001
1064.812, 825.5794
1065.294, 875.2460
1065.776, 919.2580
1066.258, 974.7333
1066.740, 1040.303
1067.222, 1102.433
1067.705, 1155.074
1068.187, 1191.000
1068.669, 1205.827
1069.151, 1197.159
1069.633, 1152.941
1070.115, 1088.602
1070.597, 1028.453
1071.079, 970.2202
1071.562, 897.5783
1072.044, 808.7584
1072.526, 724.1779
1073.008, 656.0891
1073.490, 595.8062
1073.972, 532.8860
1074.454, 477.0432
1074.936, 441.3098
1075.418, 417.2504
1075.901, 389.5803
1076.383, 358.2497
1076.865, 336.4459
1077.347, 331.8654
1077.829, 327.7715
1078.311, 317.4188
1078.793, 304.3819
1079.275, 285.0114
1079.757, 268.6286
1080.240, 269.1563
1080.722, 280.3373
1081.204, 281.7138
1081.686, 267.8477
1082.168, 254.9681
1082.650, 247.5668
1083.132, 239.3470
1083.614, 227.9163
1084.096, 215.7860
1084.579, 202.7220
1085.061, 190.9746
1085.543, 186.6220
1086.025, 190.3964
1086.507, 185.6531
1086.989, 163.0073
1087.471, 150.9734
1087.953, 157.5585
1088.436, 164.7051
1088.918, 164.5465
1089.400, 161.8052
1089.882, 162.5754
1090.364, 165.1899
1090.846, 159.4153
1091.328, 142.0770
1091.810, 134.4126
1092.292, 138.2909
1092.775, 146.5400
1093.257, 158.4065
1093.739, 166.5546
1094.221, 165.0018
1094.703, 157.1629
1095.185, 149.2128
1095.667, 141.3394
1096.149, 135.7303
1096.632, 132.2482
1097.114, 129.5540
1097.596, 127.4382
1098.078, 126.1738
1098.560, 125.8767
1099.042, 127.9780
1099.524, 136.2043
1100.006, 145.6638
1100.489, 145.4754
1100.971, 139.0959
1101.453, 133.4531
1101.935, 129.5928
1102.417, 128.3429
1102.899, 129.5494
1103.381, 130.2950
1103.863, 128.2528
1104.345, 125.9715
1104.828, 126.0999
1105.310, 127.0276
1105.792, 127.4158
1106.274, 127.1333
1106.756, 126.7885
1107.238, 125.8202
1107.720, 121.1696
1108.202, 110.3022
1108.684, 103.7175
1109.167, 110.3149
1109.649, 116.9683
1110.131, 116.9055
1110.613, 114.2172
1111.095, 110.4913
1111.577, 107.6397
1112.059, 111.6183
1112.541, 123.9699
1113.023, 123.7276
1113.506, 90.35784
1113.988, 73.29963
1114.470, 88.78552
1114.952, 105.0665
1115.434, 109.1690
1115.916, 108.1424
1116.398, 109.0426
1116.880, 111.5151
1117.363, 114.6521
1117.845, 120.2840
1118.327, 116.9202
1118.809, 101.1841
1119.291, 93.07824
1119.773, 98.87112
1120.255, 106.4105
1120.737, 107.5032
1121.219, 105.5499
1121.702, 106.4520
1122.184, 109.3700
1122.666, 109.6407
1123.148, 107.7116
1123.630, 106.0140
1124.112, 105.1000
1124.594, 106.5564
1125.076, 110.8653
1125.559, 115.5619
1126.041, 119.0239
1126.523, 120.4685
1127.005, 116.7660
1127.487, 111.6202
1127.969, 112.0164
1128.451, 115.4105
1128.933, 114.9269
1129.416, 110.7189
1129.898, 109.7211
1130.380, 115.5156
1130.862, 120.4039
1131.344, 118.2904
1131.826, 115.6468
1132.308, 118.3590
1132.790, 120.8722
1133.272, 116.0921
1133.755, 107.7501
1134.237, 104.6340
1134.719, 107.8982
1135.201, 107.5710
1135.683, 94.37231
1136.165, 89.67112
1136.647, 104.5135
1137.129, 117.0473
1137.611, 118.8657
1138.094, 115.8161
1138.576, 111.9319
1139.058, 108.3119
1139.540, 109.8139
1140.022, 118.6682
1140.504, 113.2757
1140.986, 89.40484
1141.468, 78.93972
1141.950, 89.53550
1142.433, 100.5005
1142.915, 100.6302
1143.397, 95.03786
1143.879, 88.88912
1144.361, 83.78316
1144.843, 85.71688
1145.325, 92.41829
1145.807, 95.58390
1146.290, 95.48141
1146.772, 96.93593
1147.254, 100.6007
1147.736, 101.2584
1148.218, 95.04200
1148.700, 88.78625
1149.182, 88.98985
1149.664, 92.35080
1150.146, 98.35635
1150.629, 103.3305
1151.111, 101.6588
1151.593, 95.24083
1152.075, 89.10725
1152.557, 84.45858
1153.039, 81.95635
1153.521, 82.83630
1154.003, 84.39503
1154.486, 86.99730
1154.968, 88.87604
1155.450, 89.20282
1155.932, 88.26508
1156.414, 86.10835
1156.896, 83.03618
1157.378, 79.80079
1157.860, 75.53825
1158.343, 75.94107
1158.825, 82.39780
1159.307, 88.35926
1159.789, 92.87870
1160.271, 95.27950
1160.753, 95.12139
1161.235, 92.87588
1161.717, 88.40623
1162.199, 83.41124
1162.682, 83.78861
1163.164, 88.02285
1163.646, 90.26414
1164.128, 90.19045
1164.610, 86.77525
1165.092, 81.01109
1165.574, 80.31630
1166.056, 89.39849
1166.538, 98.15115
1167.021, 95.70982
1167.503, 90.40419
1167.985, 88.68105
1168.467, 89.77267
1168.949, 94.60451
1169.431, 100.5721
1169.913, 103.1204
1170.395, 101.6162
1170.877, 98.35511
1171.360, 89.84649
1171.842, 87.11175
1172.324, 100.7462
1172.806, 108.6785
1173.288, 95.45820
1173.770, 83.09048
1174.252, 90.34935
1174.734, 108.0381
1175.217, 117.4573
1175.699, 118.6368
1176.181, 117.5392
1176.663, 114.0086
1177.145, 108.9155
1177.627, 102.1160
1178.109, 98.93130
1178.591, 101.3992
1179.073, 104.6086
1179.556, 104.1862
1180.038, 103.2389
1180.520, 108.6596
1181.002, 116.2697
1181.484, 116.2348
1181.966, 111.9060
1182.448, 112.4970
1182.930, 116.4004
1183.413, 112.8072
1183.895, 98.99343
1184.377, 89.41503
1184.859, 95.04395
1185.341, 102.0182
1185.823, 103.4747
1186.305, 104.2118
1186.787, 108.9508
1187.270, 113.3611
1187.752, 110.8113
1188.234, 103.6969
1188.716, 101.6618
1189.198, 106.3225
1189.680, 107.0299
1190.162, 102.7772
1190.644, 96.55473
1191.126, 86.60228
1191.609, 84.19321
1192.091, 96.10722
1192.573, 107.9639
1193.055, 104.7009
1193.537, 92.31845
1194.019, 82.25052
1194.501, 75.37413
1194.983, 77.55103
1195.465, 85.49140
1195.948, 86.56451
1196.430, 80.89027
1196.912, 79.29565
1197.394, 85.62290
1197.876, 90.07391
1198.358, 83.76231
1198.840, 76.72044
1199.322, 74.91199
1199.804, 76.29552
1200.287, 80.21898
1200.769, 85.63686
1201.251, 94.54888
1201.733, 103.8198
1202.215, 101.2968
1202.697, 80.76029
1203.179, 73.73078
1203.661, 89.41055
1204.144, 97.99433
1204.626, 94.09464
1205.108, 87.50447
1205.590, 81.24990
1206.072, 77.55389
1206.554, 78.47171
1207.036, 83.79673
1207.518, 97.23782
1208.000, 114.5080
1208.483, 112.3960
1208.965, 96.19205
1209.447, 85.78082
1209.929, 83.14446
1210.411, 81.81960
1210.893, 79.61584
1211.375, 80.43579
1211.857, 89.77991
1212.340, 96.68494
1212.822, 90.36643
1213.304, 82.23039
1213.786, 81.16753
1214.268, 82.56491
1214.750, 79.81422
1215.232, 75.16631
1215.714, 76.83089
1216.197, 86.30279
1216.679, 89.71983
1217.161, 84.35242
1217.643, 79.58578
1218.125, 75.11038
1218.607, 75.73905
1219.089, 84.45658
1219.571, 90.76113
1220.053, 85.55493
1220.536, 77.51144
1221.018, 85.29381
1221.500, 100.3381
1221.982, 91.97500
1222.464, 71.49363
1222.946, 69.00200
1223.428, 81.60584
1223.910, 91.99436
1224.392, 95.69398
1224.875, 96.80753
1225.357, 96.81065
1225.839, 96.17279
1226.321, 95.05571
1226.803, 93.45883
1227.285, 93.20757
1227.767, 90.62223
1228.249, 78.82941
1228.731, 65.52890
1229.214, 62.86077
1229.696, 69.18652
1230.178, 72.61853
1230.660, 72.24169
1231.142, 75.29260
1231.624, 82.52745
1232.106, 84.34270
1232.588, 78.76173
1233.071, 71.81135
1233.553, 66.55000
1234.035, 66.01830
1234.517, 75.42921
1234.999, 87.19370
1235.481, 90.82160
1235.963, 89.71072
1236.445, 87.14236
1236.927, 84.07867
1237.410, 80.50922
1237.892, 77.51241
1238.374, 78.38593
1238.856, 84.19353
1239.338, 89.12039
1239.820, 92.88515
1240.302, 93.90388
1240.784, 89.37988
1241.267, 86.66675
1241.749, 88.27882
1242.231, 92.99842
1242.713, 101.1154
1243.195, 108.7819
1243.677, 109.1788
##END=



