##NAMES=Triphylite
##RRUFFID=R100156
##IDEAL CHEMISTRY=LiFe^2+^PO_4_
##LOCALITY=Conselheira Pena, Minas Gera√¨s, Brazil
##OWNER=RRUFF
##SOURCE=William W. Pinch
##DESCRIPTION=Brownish-orange cut stone
##STATUS=The identification of this mineral has been confirmed by single-crystal X-ray diffraction.
##URL=rruff.info/R100156
91.03516, 10.98553
91.51727, 11.15434
91.99939, 11.08863
92.48151, 10.82453
92.96362, 10.46307
93.44574, 9.906168
93.92786, 9.303462
94.40997, 9.008117
94.89210, 9.092579
95.37421, 9.339917
95.85633, 9.438559
96.33845, 9.395051
96.82056, 9.331420
97.30268, 9.333109
97.78480, 9.391866
98.26691, 9.432467
98.74903, 9.464200
99.23115, 9.457749
99.71326, 9.285396
100.1954, 8.903787
100.6775, 8.528986
101.1596, 8.349758
101.6417, 8.406480
102.1239, 8.472874
102.6060, 8.529096
103.0881, 8.571280
103.5702, 8.530032
104.0523, 8.407432
104.5344, 8.198851
105.0166, 7.862653
105.4987, 7.243469
105.9808, 6.780227
106.4629, 6.602207
106.9450, 6.775100
107.4271, 6.931102
107.9093, 7.082520
108.3914, 7.213356
108.8735, 7.303761
109.3556, 7.431926
109.8377, 7.444891
110.3198, 7.258474
110.8020, 6.624407
111.2841, 6.272702
111.7662, 6.528579
112.2483, 7.086884
112.7304, 7.274907
113.2125, 6.549966
113.6947, 5.762115
114.1768, 5.318061
114.6589, 5.452711
115.1410, 5.684707
115.6231, 5.972951
116.1052, 6.289614
116.5874, 6.535120
117.0695, 6.552136
117.5516, 6.543475
118.0337, 6.665751
118.5158, 7.438938
118.9980, 7.930474
119.4801, 7.443199
119.9622, 6.075509
120.4443, 4.957348
120.9264, 4.907579
121.4085, 5.420217
121.8907, 5.873998
122.3728, 6.046511
122.8549, 6.046916
123.3370, 5.891764
123.8191, 5.572737
124.3012, 5.306125
124.7834, 5.299368
125.2655, 5.476055
125.7476, 5.673287
126.2297, 5.835527
126.7118, 5.963699
127.1939, 6.042002
127.6761, 6.059102
128.1582, 6.078134
128.6403, 6.190667
129.1224, 6.378349
129.6045, 6.552635
130.0867, 6.637880
130.5688, 6.667143
131.0509, 6.740932
131.5330, 6.868455
132.0151, 7.045229
132.4972, 7.266677
132.9794, 7.532816
133.4615, 7.838219
133.9436, 8.178999
134.4257, 8.557430
134.9078, 8.943491
135.3899, 9.296021
135.8721, 9.684676
136.3542, 10.34121
136.8363, 11.29617
137.3184, 12.38822
137.8005, 13.51476
138.2826, 14.70011
138.7648, 15.78311
139.2469, 16.60773
139.7290, 17.27875
140.2111, 18.54335
140.6932, 20.52825
141.1753, 22.89146
141.6575, 25.31430
142.1396, 27.84089
142.6217, 30.36084
143.1038, 32.75473
143.5859, 35.01576
144.0681, 37.77700
144.5502, 41.31304
145.0323, 45.12523
145.5144, 48.78120
145.9965, 52.62524
146.4786, 55.73342
146.9608, 57.72618
147.4429, 58.40700
147.9250, 58.92256
148.4071, 58.99712
148.8892, 59.00969
149.3713, 59.50990
149.8535, 60.52080
150.3356, 62.00795
150.8177, 64.05118
151.2998, 67.02929
151.7819, 69.73965
152.2640, 72.08355
152.7462, 74.17961
153.2283, 76.19160
153.7104, 79.48560
154.1925, 81.59951
154.6746, 81.55012
155.1567, 78.36591
155.6389, 74.59435
156.1210, 70.00235
156.6031, 64.98167
157.0852, 60.44768
157.5673, 56.77804
158.0495, 53.51732
158.5316, 50.36861
159.0137, 46.89933
159.4958, 44.13369
159.9779, 42.76717
160.4600, 42.40110
160.9422, 41.73347
161.4243, 40.02929
161.9064, 38.04777
162.3885, 36.30537
162.8706, 35.02137
163.3527, 33.85632
163.8349, 32.60682
164.3170, 31.32091
164.7991, 30.22821
165.2812, 29.35081
165.7633, 28.75222
166.2454, 28.49875
166.7276, 28.91132
167.2097, 29.40105
167.6918, 29.65284
168.1739, 29.67847
168.6560, 29.59772
169.1381, 28.90962
169.6203, 28.30502
170.1024, 28.43045
170.5845, 31.21843
171.0666, 33.97746
171.5487, 34.07940
172.0309, 31.72259
172.5130, 29.21210
172.9951, 28.06860
173.4772, 27.81757
173.9593, 27.72693
174.4414, 27.61385
174.9236, 27.46572
175.4057, 27.24474
175.8878, 26.94786
176.3699, 26.67203
176.8520, 26.41434
177.3341, 26.22932
177.8163, 26.24056
178.2984, 26.65276
178.7805, 27.23530
179.2626, 27.67155
179.7447, 27.95040
180.2268, 28.08884
180.7090, 27.93810
181.1911, 27.61902
181.6732, 27.51281
182.1553, 27.86830
182.6374, 28.54386
183.1195, 29.27494
183.6017, 30.08006
184.0838, 30.84725
184.5659, 31.44844
185.0480, 31.90369
185.5301, 32.34278
186.0123, 32.83543
186.4944, 33.36000
186.9765, 33.77211
187.4586, 34.01813
187.9407, 34.34436
188.4228, 35.17740
188.9050, 36.46956
189.3871, 37.78497
189.8692, 38.77107
190.3513, 39.53465
190.8334, 40.68348
191.3155, 42.28399
191.7977, 44.15215
192.2798, 46.06441
192.7619, 48.02142
193.2440, 49.91556
193.7261, 51.56837
194.2082, 53.02565
194.6904, 54.99370
195.1725, 57.63681
195.6546, 60.55397
196.1367, 62.83542
196.6188, 64.44600
197.1009, 66.06497
197.5831, 68.10777
198.0652, 70.58941
198.5473, 73.02941
199.0294, 75.58399
199.5115, 77.83514
199.9937, 78.99909
200.4758, 79.07436
200.9579, 78.08272
201.4400, 75.75736
201.9221, 71.99905
202.4042, 68.32850
202.8864, 64.86514
203.3685, 61.49923
203.8506, 57.92082
204.3327, 54.10125
204.8148, 50.32326
205.2969, 46.58559
205.7791, 42.77562
206.2612, 39.87323
206.7433, 38.13554
207.2254, 37.17863
207.7075, 36.00011
208.1896, 34.46939
208.6718, 33.08759
209.1539, 32.16570
209.6360, 31.81296
210.1181, 31.40242
210.6002, 30.88659
211.0823, 30.30186
211.5645, 29.68729
212.0466, 28.91607
212.5287, 28.41125
213.0108, 28.50573
213.4929, 29.42688
213.9750, 30.03394
214.4572, 30.15764
214.9393, 29.97231
215.4214, 29.98478
215.9035, 30.21633
216.3856, 30.60386
216.8678, 31.14240
217.3499, 31.91672
217.8320, 32.55578
218.3141, 32.90838
218.7962, 33.14742
219.2783, 33.87831
219.7605, 35.35181
220.2426, 36.84674
220.7247, 37.91579
221.2068, 38.30708
221.6889, 39.00254
222.1710, 40.16058
222.6532, 41.62002
223.1353, 42.79061
223.6174, 43.43994
224.0995, 44.21111
224.5816, 45.43287
225.0637, 47.23870
225.5459, 49.21115
226.0280, 51.43254
226.5101, 53.79842
226.9922, 55.86198
227.4743, 57.35921
227.9564, 58.99651
228.4386, 61.18254
228.9207, 64.12095
229.4028, 66.99900
229.8849, 69.71241
230.3670, 72.38250
230.8492, 75.44005
231.3313, 78.90672
231.8134, 82.67712
232.2955, 86.87490
232.7776, 91.93244
233.2597, 96.23539
233.7419, 99.56131
234.2240, 102.2022
234.7061, 104.8888
235.1882, 108.0244
235.6703, 110.5956
236.1524, 112.1477
236.6346, 112.3197
237.1167, 112.2650
237.5988, 111.9482
238.0809, 111.4216
238.5630, 110.7467
239.0451, 109.6748
239.5273, 108.8322
240.0094, 108.4609
240.4915, 108.5977
240.9736, 109.0983
241.4557, 109.9169
241.9378, 111.1150
242.4200, 112.8733
242.9021, 115.5470
243.3842, 118.2604
243.8663, 120.7507
244.3484, 123.1164
244.8306, 124.9687
245.3127, 126.2705
245.7948, 127.0667
246.2769, 127.4353
246.7590, 127.4360
247.2411, 126.9142
247.7233, 125.8615
248.2054, 124.3647
248.6875, 121.9713
249.1696, 118.4486
249.6517, 114.2184
250.1338, 109.9715
250.6160, 105.7853
251.0981, 101.4234
251.5802, 96.81139
252.0623, 91.85334
252.5444, 87.00645
253.0265, 82.35731
253.5087, 77.78203
253.9908, 73.11405
254.4729, 67.98209
254.9550, 63.44794
255.4371, 59.88282
255.9192, 57.42344
256.4014, 55.06566
256.8835, 52.77718
257.3656, 50.62207
257.8477, 48.62842
258.3298, 46.84480
258.8120, 45.09803
259.2941, 43.29765
259.7762, 41.41987
260.2583, 39.78733
260.7404, 38.43165
261.2225, 37.26142
261.7047, 36.14357
262.1868, 35.05518
262.6689, 34.07136
263.1510, 33.20270
263.6331, 32.45491
264.1152, 31.79870
264.5974, 31.29694
265.0795, 30.79561
265.5616, 30.14189
266.0437, 29.26167
266.5258, 28.43366
267.0079, 27.67271
267.4901, 26.99043
267.9722, 26.59374
268.4543, 26.59153
268.9364, 26.65019
269.4185, 26.48267
269.9006, 26.03334
270.3828, 25.59143
270.8649, 25.15565
271.3470, 24.76157
271.8291, 24.58961
272.3112, 24.68624
272.7933, 24.87770
273.2755, 25.07825
273.7576, 25.31093
274.2397, 25.37177
274.7218, 25.15418
275.2039, 24.79531
275.6860, 24.73324
276.1682, 25.01726
276.6503, 25.41021
277.1324, 25.77209
277.6145, 26.09505
278.0966, 26.47914
278.5787, 26.98660
279.0609, 27.49575
279.5430, 27.68569
280.0251, 27.50250
280.5072, 27.33227
280.9893, 27.39264
281.4715, 27.68209
281.9536, 27.96384
282.4357, 28.17801
282.9178, 28.47824
283.3999, 29.29618
283.8820, 30.67550
284.3642, 31.78026
284.8463, 32.06752
285.3284, 31.61863
285.8105, 31.40683
286.2926, 31.47951
286.7747, 31.64883
287.2569, 31.69269
287.7390, 31.61109
288.2211, 31.41084
288.7032, 31.01392
289.1853, 30.48776
289.6674, 30.12415
290.1496, 29.92751
290.6317, 29.84884
291.1138, 30.01026
291.5959, 30.33392
292.0780, 30.25889
292.5602, 29.40353
293.0423, 28.10012
293.5244, 27.16570
294.0065, 26.61189
294.4886, 26.28255
294.9707, 26.17365
295.4529, 26.19959
295.9350, 26.04677
296.4171, 25.58357
296.8992, 24.94226
297.3813, 24.28734
297.8634, 23.63244
298.3456, 23.10584
298.8277, 22.94994
299.3098, 22.99301
299.7919, 22.83087
300.2740, 22.30320
300.7561, 21.67781
301.2383, 21.27222
301.7204, 21.06827
302.2025, 21.01481
302.6846, 21.22040
303.1667, 21.51381
303.6488, 21.60799
304.1310, 21.40488
304.6131, 21.16727
305.0952, 21.18959
305.5773, 21.39293
306.0594, 21.56338
306.5415, 21.53774
307.0237, 21.44760
307.5058, 21.45916
307.9879, 21.60790
308.4700, 21.71630
308.9521, 21.60878
309.4343, 21.37195
309.9164, 21.15714
310.3985, 20.95406
310.8806, 20.84737
311.3627, 20.97156
311.8448, 21.33606
312.3270, 21.62977
312.8091, 21.51328
313.2912, 21.27022
313.7733, 21.23566
314.2554, 21.81252
314.7375, 22.38233
315.2197, 22.62880
315.7018, 22.57334
316.1839, 22.39819
316.6660, 22.08334
317.1481, 21.73602
317.6302, 21.44797
318.1124, 21.27047
318.5945, 21.11575
319.0766, 20.97655
319.5587, 20.84123
320.0408, 20.66795
320.5229, 20.38520
321.0051, 20.10174
321.4872, 19.89602
321.9693, 19.89750
322.4514, 19.75943
322.9335, 19.26624
323.4156, 18.59787
323.8978, 18.10118
324.3799, 18.04081
324.8620, 17.98343
325.3441, 17.76212
325.8262, 17.30702
326.3083, 16.87938
326.7905, 16.47495
327.2726, 16.11476
327.7547, 15.82960
328.2368, 15.61450
328.7189, 15.47783
329.2010, 15.44631
329.6832, 15.53216
330.1653, 15.59030
330.6474, 15.63208
331.1295, 15.63798
331.6116, 15.58569
332.0938, 15.40214
332.5759, 15.28059
333.0580, 15.29118
333.5401, 15.40298
334.0222, 15.38517
334.5043, 15.21240
334.9865, 14.94537
335.4686, 14.58399
335.9507, 14.02314
336.4328, 13.65375
336.9149, 13.51425
337.3970, 13.56728
337.8792, 13.75853
338.3613, 14.17465
338.8434, 14.49289
339.3255, 14.50912
339.8076, 14.15817
340.2898, 14.04030
340.7719, 14.23243
341.2540, 14.52372
341.7361, 14.56865
342.2182, 14.33475
342.7003, 14.15968
343.1825, 14.18342
343.6646, 14.37404
344.1467, 14.54160
344.6288, 14.69907
345.1109, 14.77535
345.5930, 14.52733
346.0752, 14.02451
346.5573, 14.00155
347.0394, 14.90354
347.5215, 16.16057
348.0036, 16.39981
348.4857, 15.63926
348.9679, 14.74016
349.4500, 14.28105
349.9321, 14.17750
350.4142, 14.21133
350.8963, 14.38762
351.3784, 14.58730
351.8606, 14.65349
352.3427, 14.60781
352.8248, 14.53006
353.3069, 14.47964
353.7890, 14.41853
354.2711, 14.21710
354.7533, 13.83222
355.2354, 13.61382
355.7175, 14.05514
356.1996, 14.85067
356.6817, 15.46751
357.1638, 15.57757
357.6460, 15.49953
358.1281, 15.45756
358.6102, 15.45117
359.0923, 15.42111
359.5744, 15.30763
360.0565, 15.16605
360.5387, 15.04402
361.0208, 14.88220
361.5029, 14.83314
361.9850, 15.05693
362.4671, 15.46494
362.9492, 15.78201
363.4314, 15.86390
363.9135, 15.86472
364.3956, 15.86135
364.8777, 15.85505
365.3598, 15.86840
365.8419, 15.94805
366.3241, 16.04122
366.8062, 16.06792
367.2883, 15.81707
367.7704, 15.69137
368.2526, 15.83735
368.7347, 16.31291
369.2168, 16.74721
369.6989, 17.21401
370.1810, 17.59008
370.6631, 17.76043
371.1453, 17.43572
371.6274, 17.34013
372.1095, 17.62623
372.5916, 18.23670
373.0737, 18.78329
373.5558, 19.27261
374.0380, 19.69528
374.5201, 20.07944
375.0022, 20.48879
375.4843, 20.59286
375.9664, 20.22204
376.4485, 19.68008
376.9307, 19.60148
377.4128, 20.07857
377.8949, 20.62818
378.3770, 21.02652
378.8591, 21.28734
379.3412, 21.77919
379.8234, 22.54904
380.3055, 23.36959
380.7876, 23.98107
381.2697, 24.39569
381.7518, 24.72701
382.2339, 24.97256
382.7161, 25.17881
383.1982, 25.42284
383.6803, 25.70530
384.1624, 26.11072
384.6445, 26.72995
385.1266, 27.51660
385.6088, 28.37203
386.0909, 29.29520
386.5730, 30.23311
387.0551, 31.12723
387.5372, 31.97393
388.0193, 32.77961
388.5015, 33.52913
388.9836, 34.23967
389.4657, 34.88482
389.9478, 35.45833
390.4299, 36.13135
390.9120, 37.02173
391.3942, 38.08089
391.8763, 39.24007
392.3584, 40.71834
392.8405, 42.05960
393.3226, 42.86940
393.8047, 43.28107
394.2869, 43.90469
394.7690, 45.20015
395.2511, 46.62984
395.7332, 47.82802
396.2154, 48.51959
396.6975, 49.43182
397.1796, 50.98835
397.6617, 52.83062
398.1438, 54.33155
398.6259, 55.03304
399.1081, 55.76529
399.5902, 56.88313
400.0723, 58.52294
400.5544, 59.60487
401.0365, 59.71309
401.5186, 59.57215
402.0008, 59.78279
402.4829, 60.57684
402.9650, 61.28526
403.4471, 61.83422
403.9292, 62.24375
404.4113, 62.62494
404.8935, 63.07911
405.3756, 63.28164
405.8577, 62.93560
406.3398, 61.92207
406.8219, 61.34002
407.3040, 61.33907
407.7862, 61.50719
408.2683, 61.13691
408.7504, 60.20583
409.2325, 59.52238
409.7146, 59.49493
410.1967, 59.89528
410.6789, 59.85856
411.1610, 59.36475
411.6431, 58.97111
412.1252, 59.39323
412.6073, 60.31654
413.0894, 60.76243
413.5716, 60.35749
414.0537, 59.80256
414.5358, 60.02439
415.0179, 60.83366
415.5000, 61.62148
415.9821, 61.84893
416.4643, 61.98888
416.9464, 62.60322
417.4285, 63.75865
417.9106, 64.93064
418.3927, 65.73975
418.8748, 66.38735
419.3570, 67.09815
419.8391, 67.80837
420.3212, 68.73801
420.8033, 70.03135
421.2854, 71.64528
421.7675, 73.39426
422.2497, 75.59471
422.7318, 77.64083
423.2139, 79.14372
423.6960, 79.75961
424.1781, 80.49380
424.6602, 81.19712
425.1424, 82.14847
425.6245, 83.77103
426.1066, 86.67862
426.5887, 89.44888
427.0709, 91.78898
427.5530, 93.69894
428.0351, 95.33427
428.5172, 96.41830
428.9993, 97.63095
429.4814, 99.51669
429.9636, 102.2503
430.4457, 104.9704
430.9278, 107.5663
431.4099, 110.1505
431.8920, 113.1103
432.3741, 116.5701
432.8563, 119.6310
433.3384, 121.6680
433.8205, 122.8772
434.3026, 124.5679
434.7847, 126.7905
435.2668, 129.1454
435.7490, 131.2690
436.2311, 133.2033
436.7132, 135.0452
437.1953, 136.8990
437.6774, 138.5665
438.1595, 139.6900
438.6417, 140.3745
439.1238, 141.0527
439.6059, 142.0533
440.0880, 143.1474
440.5701, 144.2123
441.0522, 145.3013
441.5344, 145.8992
442.0165, 145.5492
442.4986, 144.5730
442.9807, 143.3619
443.4628, 142.3006
443.9449, 140.7790
444.4271, 138.2305
444.9092, 134.8673
445.3913, 131.8769
445.8734, 130.0210
446.3555, 128.3147
446.8376, 126.3278
447.3198, 124.1806
447.8019, 121.4081
448.2840, 117.4461
448.7661, 113.1202
449.2482, 109.6346
449.7303, 107.6415
450.2125, 105.4331
450.6946, 102.5868
451.1767, 99.13541
451.6588, 95.73672
452.1409, 92.32244
452.6230, 89.05808
453.1052, 86.12351
453.5873, 83.51216
454.0694, 80.99519
454.5515, 78.58141
455.0337, 76.20786
455.5158, 73.79294
455.9979, 71.32622
456.4800, 68.97673
456.9621, 66.86507
457.4442, 64.88282
457.9264, 62.68116
458.4085, 60.28141
458.8906, 57.99807
459.3727, 56.13497
459.8548, 54.56457
460.3369, 53.13309
460.8191, 51.80788
461.3012, 50.57146
461.7833, 49.54841
462.2654, 48.59686
462.7475, 47.42680
463.2296, 45.61020
463.7118, 43.77265
464.1939, 42.21119
464.6760, 40.93074
465.1581, 39.93579
465.6402, 39.64880
466.1223, 39.40008
466.6045, 38.72102
467.0866, 36.89311
467.5687, 35.44847
468.0508, 34.70547
468.5329, 34.36900
469.0150, 33.76435
469.4972, 32.69530
469.9793, 31.66717
470.4614, 30.84739
470.9435, 30.24533
471.4256, 29.69379
471.9077, 29.24947
472.3899, 28.74394
472.8720, 27.90225
473.3541, 26.65014
473.8362, 25.90803
474.3183, 25.93490
474.8004, 26.31091
475.2826, 26.22556
475.7647, 25.70152
476.2468, 25.06001
476.7289, 24.26746
477.2110, 23.50898
477.6931, 23.36191
478.1753, 23.82502
478.6574, 24.20923
479.1395, 23.89171
479.6216, 23.14810
480.1037, 22.35299
480.5858, 21.50802
481.0680, 20.80594
481.5501, 20.45174
482.0322, 20.33240
482.5143, 20.21665
482.9964, 19.93890
483.4786, 19.70918
483.9607, 19.68405
484.4428, 19.89423
484.9249, 19.97103
485.4070, 19.71040
485.8892, 19.37528
486.3713, 19.15622
486.8534, 19.27192
487.3355, 19.17676
487.8176, 18.67492
488.2997, 18.01652
488.7819, 17.76824
489.2640, 18.14344
489.7461, 18.44389
490.2282, 18.42445
490.7103, 18.10425
491.1924, 17.81283
491.6746, 17.54872
492.1567, 17.31091
492.6388, 17.10275
493.1209, 16.92108
493.6030, 16.76693
494.0851, 16.64373
494.5673, 16.53115
495.0494, 16.38707
495.5315, 16.22528
496.0136, 16.10094
496.4957, 16.08241
496.9778, 16.08845
497.4600, 15.99649
497.9421, 15.82103
498.4242, 15.70220
498.9063, 15.86238
499.3884, 16.03679
499.8705, 15.97669
500.3527, 15.54777
500.8348, 15.09755
501.3169, 14.69365
501.7990, 14.36319
502.2811, 14.14315
502.7632, 14.19857
503.2454, 14.19900
503.7275, 14.01210
504.2096, 13.66677
504.6917, 13.47891
505.1738, 13.51083
505.6559, 13.61739
506.1381, 13.72674
506.6202, 13.83268
507.1023, 13.98759
507.5844, 14.23586
508.0665, 14.45381
508.5486, 14.46467
509.0308, 14.26484
509.5129, 13.95515
509.9950, 13.46868
510.4771, 12.97914
510.9592, 12.94813
511.4413, 13.33043
511.9235, 13.68863
512.4056, 13.74255
512.8877, 13.59878
513.3698, 13.35544
513.8519, 13.00670
514.3340, 12.76883
514.8162, 12.91013
515.2983, 13.21282
515.7804, 13.41571
516.2625, 13.39587
516.7446, 13.32079
517.2267, 13.25471
517.7089, 13.18357
518.1910, 13.07271
518.6731, 12.82008
519.1552, 12.61535
519.6373, 12.54221
520.1194, 12.61179
520.6016, 12.68673
521.0837, 12.85168
521.5658, 12.92721
522.0479, 12.70063
522.5300, 11.97406
523.0121, 11.73142
523.4943, 12.20769
523.9764, 12.96788
524.4585, 13.18582
524.9406, 12.84566
525.4227, 12.54492
525.9048, 12.54669
526.3870, 12.71088
526.8691, 12.64763
527.3513, 12.37313
527.8334, 12.13585
528.3155, 12.15302
528.7976, 12.30330
529.2797, 12.40898
529.7618, 12.44226
530.2440, 12.47057
530.7261, 12.59223
531.2082, 12.72095
531.6903, 12.74424
532.1724, 12.44503
532.6545, 12.22635
533.1367, 12.29080
533.6188, 12.55297
534.1009, 12.70819
534.5830, 12.57019
535.0651, 12.45421
535.5472, 12.47283
536.0294, 12.64840
536.5115, 12.79995
536.9936, 12.91833
537.4757, 13.02563
537.9578, 13.14663
538.4399, 13.29094
538.9221, 13.36998
539.4042, 13.32648
539.8863, 13.29971
540.3684, 13.59475
540.8505, 14.18372
541.3326, 14.73973
541.8148, 15.19441
542.2969, 15.49451
542.7790, 15.42972
543.2611, 15.05134
543.7432, 14.76624
544.2253, 14.98811
544.7075, 15.36969
545.1896, 15.49622
545.6717, 15.24347
546.1538, 15.12543
546.6359, 15.50284
547.1180, 16.10068
547.6002, 16.62238
548.0823, 16.79395
548.5644, 17.12124
549.0465, 17.89866
549.5286, 18.90898
550.0107, 19.50806
550.4929, 19.44851
550.9750, 19.34077
551.4571, 19.31632
551.9392, 19.37539
552.4213, 19.78106
552.9034, 20.61714
553.3856, 21.54180
553.8677, 22.24548
554.3498, 22.75534
554.8319, 23.41264
555.3140, 24.26675
555.7961, 25.21877
556.2783, 26.12209
556.7604, 27.01036
557.2425, 27.97385
557.7246, 29.10787
558.2067, 30.27122
558.6888, 31.16441
559.1710, 31.92777
559.6531, 33.03454
560.1352, 34.97673
560.6173, 37.11645
561.0994, 39.10893
561.5815, 40.93835
562.0637, 42.58160
562.5458, 43.58742
563.0279, 44.69740
563.5100, 46.47996
563.9921, 49.47121
564.4742, 52.18330
564.9564, 54.38342
565.4385, 56.43739
565.9206, 58.94772
566.4027, 61.92602
566.8848, 65.20395
567.3669, 68.73914
567.8491, 72.51515
568.3312, 76.50395
568.8133, 80.67342
569.2954, 84.62687
569.7775, 87.61736
570.2596, 90.32716
570.7418, 94.10319
571.2239, 99.08692
571.7060, 104.1310
572.1881, 108.3502
572.6702, 112.1571
573.1523, 116.1448
573.6345, 120.9480
574.1166, 124.9808
574.5987, 127.5129
575.0808, 128.8817
575.5629, 129.6789
576.0450, 130.0933
576.5272, 129.7846
577.0093, 128.7681
577.4914, 127.0211
577.9735, 124.2165
578.4556, 120.0744
578.9377, 115.4958
579.4199, 110.6424
579.9020, 105.5589
580.3841, 101.2085
580.8662, 97.64698
581.3483, 94.57909
581.8304, 91.59367
582.3126, 88.87328
582.7947, 87.09193
583.2768, 86.44492
583.7589, 86.54816
584.2410, 86.95627
584.7231, 87.81648
585.2053, 89.42053
585.6874, 92.61839
586.1696, 95.91643
586.6517, 98.29676
587.1338, 100.0164
587.6159, 102.2511
588.0980, 105.8634
588.5801, 109.5522
589.0623, 112.9652
589.5444, 116.2372
590.0265, 118.3255
590.5086, 119.0340
590.9907, 118.8124
591.4728, 118.0209
591.9550, 116.7206
592.4371, 114.5364
592.9192, 111.4715
593.4013, 107.5188
593.8834, 102.4274
594.3655, 96.33475
594.8477, 90.02390
595.3298, 83.61214
595.8119, 77.38036
596.2940, 71.79032
596.7761, 66.77263
597.2582, 61.91983
597.7404, 56.89330
598.2225, 52.06028
598.7046, 47.52276
599.1867, 43.32019
599.6688, 39.88147
600.1509, 37.89805
600.6331, 36.26482
601.1152, 34.29229
601.5973, 31.61318
602.0794, 29.35727
602.5615, 27.64074
603.0436, 26.25539
603.5258, 25.02642
604.0079, 23.98256
604.4900, 22.93211
604.9721, 21.78575
605.4542, 20.72311
605.9363, 20.20185
606.4185, 20.17288
606.9006, 20.15966
607.3827, 19.96533
607.8648, 19.65292
608.3469, 19.22492
608.8290, 18.72095
609.3112, 18.38744
609.7933, 18.45521
610.2754, 18.68500
610.7575, 18.90450
611.2396, 19.08471
611.7217, 19.30214
612.2039, 19.55660
612.6860, 19.86619
613.1681, 20.25280
613.6502, 20.76775
614.1323, 21.25375
614.6144, 21.65724
615.0966, 22.07058
615.5787, 22.66104
616.0608, 23.45333
616.5429, 24.23743
617.0250, 24.92620
617.5071, 25.62170
617.9893, 26.53294
618.4714, 27.65578
618.9535, 28.90725
619.4356, 30.27740
619.9177, 31.75930
620.3998, 33.33884
620.8820, 35.02079
621.3641, 36.83721
621.8462, 38.77310
622.3283, 40.90438
622.8104, 43.32767
623.2925, 46.16782
623.7747, 48.88947
624.2568, 51.52168
624.7389, 53.91112
625.2210, 55.94514
625.7031, 57.64119
626.1852, 58.97684
626.6674, 60.04789
627.1495, 60.63177
627.6316, 60.34715
628.1137, 59.18677
628.5958, 57.30364
629.0779, 54.57541
629.5601, 51.34318
630.0422, 48.13795
630.5243, 45.00272
631.0064, 42.00244
631.4885, 39.14353
631.9706, 36.46502
632.4528, 34.01775
632.9349, 31.81352
633.4170, 29.73657
633.8991, 27.58250
634.3812, 25.66330
634.8633, 24.17037
635.3455, 23.25103
635.8276, 22.42012
636.3097, 21.68491
636.7918, 21.01045
637.2739, 20.35056
637.7560, 19.67833
638.2382, 19.18802
638.7203, 18.97764
639.2024, 18.80290
639.6845, 18.18168
640.1666, 17.18300
640.6487, 16.41744
641.1309, 16.16759
641.6130, 16.08490
642.0951, 15.62952
642.5772, 14.93853
643.0594, 14.41819
643.5415, 14.45702
644.0236, 14.55463
644.5057, 14.40299
644.9879, 14.01591
645.4700, 13.63003
645.9521, 13.33320
646.4342, 13.01285
646.9163, 12.56710
647.3984, 11.92936
647.8806, 11.62783
648.3627, 11.79114
648.8448, 12.04477
649.3269, 12.10584
649.8090, 11.97340
650.2911, 11.73436
650.7733, 11.37306
651.2554, 10.99425
651.7375, 10.72562
652.2196, 10.53292
652.7017, 10.31287
653.1838, 9.974021
653.6660, 9.723735
654.1481, 9.879853
654.6302, 10.21055
655.1123, 10.30744
655.5944, 9.830004
656.0765, 9.313567
656.5587, 8.830641
657.0408, 8.425238
657.5229, 8.283977
658.0050, 8.585828
658.4871, 8.847034
658.9692, 8.857407
659.4514, 8.653719
659.9335, 8.683218
660.4156, 8.973411
660.8977, 9.267469
661.3798, 9.380481
661.8619, 9.353662
662.3441, 9.287911
662.8262, 9.188406
663.3083, 9.076747
663.7904, 8.964869
664.2725, 8.852820
664.7546, 8.725858
665.2368, 8.540538
665.7189, 8.452586
666.2010, 8.635726
666.6831, 8.888484
667.1652, 8.974363
667.6473, 8.776792
668.1295, 8.585665
668.6116, 8.376048
669.0937, 8.214993
669.5758, 8.286683
670.0579, 8.625836
670.5400, 8.854135
671.0222, 8.815847
671.5043, 8.647309
671.9864, 8.664731
672.4685, 8.824751
672.9506, 8.913108
673.4327, 8.726782
673.9149, 8.475591
674.3970, 8.292794
674.8791, 8.195028
675.3612, 8.263597
675.8433, 8.830853
676.3254, 9.320192
676.8076, 9.357347
677.2897, 8.821839
677.7718, 8.508540
678.2539, 8.518486
678.7360, 8.614015
679.2181, 8.633819
679.7003, 8.564911
680.1824, 8.586371
680.6645, 8.734054
681.1466, 8.841436
681.6287, 8.643771
682.1108, 8.258929
682.5930, 8.021443
683.0751, 8.008596
683.5572, 8.108278
684.0393, 8.347811
684.5214, 8.603132
685.0035, 8.698727
685.4857, 8.433507
685.9678, 8.169826
686.4499, 7.927819
686.9320, 7.761137
687.4141, 7.789705
687.8962, 8.151433
688.3784, 8.448195
688.8605, 8.585032
689.3426, 8.598775
689.8247, 8.610965
690.3068, 8.622468
690.7889, 8.611567
691.2711, 8.518668
691.7532, 8.418664
692.2353, 8.533288
692.7174, 8.817742
693.1995, 8.996501
693.6816, 8.813977
694.1638, 8.526378
694.6459, 8.280566
695.1280, 8.086449
695.6101, 8.047908
696.0922, 8.372409
696.5743, 8.708566
697.0565, 8.873263
697.5386, 8.843353
698.0207, 8.723890
698.5028, 8.469257
698.9849, 8.221920
699.4670, 8.089012
699.9492, 8.073383
700.4313, 8.257244
700.9135, 8.686855
701.3956, 9.102717
701.8777, 9.223833
702.3598, 9.136204
702.8419, 8.957367
703.3240, 8.607759
703.8062, 8.401918
704.2883, 8.638636
704.7704, 9.082372
705.2525, 9.385008
705.7346, 9.401973
706.2167, 9.379645
706.6989, 9.288842
707.1810, 9.196076
707.6631, 9.313303
708.1452, 9.708490
708.6273, 9.874357
709.1094, 9.552003
709.5916, 9.010118
710.0737, 8.830809
710.5558, 8.986837
711.0379, 9.329000
711.5200, 10.08186
712.0021, 10.75549
712.4843, 10.78058
712.9664, 10.28528
713.4485, 9.966171
713.9306, 10.37428
714.4127, 10.75415
714.8948, 10.67695
715.3770, 10.13133
715.8591, 9.833200
716.3412, 9.880095
716.8233, 9.982774
717.3054, 9.995752
717.7875, 9.920435
718.2697, 9.727838
718.7518, 9.398021
719.2339, 9.200904
719.7160, 9.544194
720.1981, 10.10737
720.6802, 10.34778
721.1624, 10.17369
721.6445, 9.960648
722.1266, 9.893642
722.6087, 9.907327
723.0908, 9.941033
723.5729, 9.932393
724.0551, 10.06205
724.5372, 10.41004
725.0193, 10.82748
725.5014, 11.20539
725.9835, 11.58027
726.4656, 11.65394
726.9478, 11.33248
727.4299, 10.87231
727.9120, 10.59242
728.3941, 10.47334
728.8762, 10.48544
729.3583, 10.67054
729.8405, 10.87354
730.3226, 10.99666
730.8047, 11.04375
731.2868, 11.01776
731.7689, 10.77979
732.2510, 10.63307
732.7332, 10.72367
733.2153, 10.93315
733.6974, 11.02072
734.1795, 10.93204
734.6616, 10.86151
735.1437, 10.83557
735.6259, 10.87735
736.1080, 11.13303
736.5901, 11.56575
737.0722, 11.84664
737.5543, 11.69656
738.0364, 11.40560
738.5186, 11.25774
739.0007, 11.25040
739.4828, 11.36849
739.9649, 11.80870
740.4470, 12.17862
740.9291, 12.23315
741.4113, 11.99589
741.8934, 11.94723
742.3755, 12.24701
742.8576, 12.44369
743.3397, 12.31108
743.8218, 11.89983
744.3040, 11.58635
744.7861, 11.37112
745.2682, 11.32820
745.7503, 11.66156
746.2324, 12.13815
746.7145, 12.36257
747.1967, 12.33505
747.6788, 12.25939
748.1609, 12.17922
748.6430, 12.14191
749.1251, 12.21667
749.6072, 12.46040
750.0894, 12.52023
750.5715, 12.25579
751.0536, 11.97907
751.5357, 11.90569
752.0178, 12.05722
752.4999, 12.15626
752.9821, 12.20854
753.4642, 12.17341
753.9463, 11.88977
754.4284, 11.51954
754.9105, 11.41765
755.3926, 11.64772
755.8748, 11.94090
756.3569, 12.25993
756.8390, 12.48410
757.3211, 12.48947
757.8032, 12.12752
758.2853, 11.82400
758.7675, 11.55728
759.2496, 11.40214
759.7318, 11.46183
760.2139, 11.77250
760.6960, 12.03149
761.1781, 12.22535
761.6602, 12.32156
762.1423, 12.21809
762.6245, 11.99121
763.1066, 11.81396
763.5887, 11.71174
764.0708, 11.70906
764.5529, 11.93790
765.0350, 12.22976
765.5172, 12.38474
765.9993, 12.25723
766.4814, 12.12259
766.9635, 11.98703
767.4456, 11.86105
767.9277, 11.74865
768.4099, 11.64011
768.8920, 11.61293
769.3741, 11.69678
769.8562, 11.82241
770.3383, 11.91163
770.8204, 11.96096
771.3026, 11.96249
771.7847, 11.91998
772.2668, 11.81762
772.7489, 11.53034
773.2310, 11.20567
773.7131, 11.07795
774.1953, 11.33372
774.6774, 11.62053
775.1595, 11.93113
775.6416, 12.23221
776.1237, 12.47239
776.6058, 12.65604
777.0880, 12.73335
777.5701, 12.66201
778.0522, 12.53323
778.5343, 12.52360
779.0164, 12.58578
779.4985, 12.58101
779.9807, 12.41396
780.4628, 12.21118
780.9449, 12.00645
781.4270, 11.82715
781.9091, 11.72545
782.3912, 11.67944
782.8734, 11.77383
783.3555, 12.12236
783.8376, 12.57194
784.3197, 12.69382
784.8018, 12.45676
785.2839, 12.28626
785.7661, 12.34771
786.2482, 12.49792
786.7303, 12.49989
787.2124, 12.39132
787.6945, 12.27978
788.1766, 12.20221
788.6588, 12.14729
789.1409, 12.07279
789.6230, 12.01416
790.1051, 12.08282
790.5872, 12.47761
791.0693, 12.70390
791.5515, 12.65481
792.0336, 12.37751
792.5157, 11.87712
792.9978, 11.15098
793.4799, 10.79399
793.9620, 11.18086
794.4442, 11.86946
794.9263, 12.31708
795.4084, 12.53693
795.8905, 12.57436
796.3726, 12.22230
796.8547, 11.92979
797.3369, 11.97409
797.8190, 12.23741
798.3011, 12.28372
798.7832, 11.93271
799.2653, 11.72331
799.7474, 11.84225
800.2296, 12.14606
800.7117, 12.21103
801.1938, 12.05883
801.6759, 11.92300
802.1580, 11.88203
802.6401, 11.92729
803.1223, 12.11887
803.6044, 12.39247
804.0865, 12.57718
804.5686, 12.43067
805.0507, 12.38467
805.5328, 12.75409
806.0150, 13.31408
806.4971, 13.42844
806.9792, 12.92398
807.4613, 12.53732
807.9434, 12.50579
808.4255, 12.67620
808.9077, 12.71734
809.3898, 12.64807
809.8719, 12.54940
810.3540, 12.36601
810.8361, 12.26358
811.3182, 12.49790
811.8004, 12.90780
812.2825, 13.11696
812.7646, 12.80201
813.2467, 12.55583
813.7288, 12.53010
814.2109, 12.62712
814.6931, 12.56513
815.1752, 12.31302
815.6573, 12.19276
816.1394, 12.32431
816.6215, 12.58884
817.1037, 12.83000
817.5858, 13.04242
818.0679, 13.21801
818.5500, 13.36043
819.0322, 13.45734
819.5143, 13.43372
819.9964, 13.36825
820.4785, 13.43486
820.9606, 13.72011
821.4427, 13.98801
821.9249, 14.21818
822.4070, 14.39791
822.8891, 14.43672
823.3712, 14.35903
823.8533, 14.45808
824.3354, 14.89127
824.8176, 15.37766
825.2997, 15.57498
825.7818, 15.60550
826.2639, 15.67440
826.7460, 16.00541
827.2281, 16.19597
827.7103, 15.93260
828.1924, 15.58407
828.6745, 15.71093
829.1566, 16.50819
829.6387, 16.94004
830.1208, 16.74136
830.6030, 16.39188
831.0851, 16.71278
831.5672, 17.48000
832.0493, 18.08833
832.5314, 18.36474
833.0135, 18.46549
833.4957, 18.31079
833.9778, 18.11836
834.4599, 18.14309
834.9420, 18.72827
835.4241, 19.09196
835.9063, 19.07747
836.3884, 19.02770
836.8705, 19.44590
837.3526, 20.31178
837.8347, 20.79930
838.3168, 20.74665
838.7990, 20.67474
839.2811, 21.28661
839.7632, 22.16109
840.2453, 22.72104
840.7274, 22.82354
841.2095, 22.72214
841.6917, 22.17658
842.1738, 21.69773
842.6559, 21.71291
843.1380, 22.42739
843.6201, 22.89722
844.1022, 23.08651
844.5844, 23.15467
845.0665, 23.20218
845.5486, 23.25163
846.0307, 23.38370
846.5128, 23.60821
846.9949, 23.81296
847.4771, 23.93218
847.9592, 23.99531
848.4413, 24.03800
848.9234, 24.07979
849.4055, 23.97466
849.8876, 23.59187
850.3698, 23.27308
850.8519, 23.28884
851.3340, 23.59670
851.8161, 23.64488
852.2982, 23.43417
852.7803, 23.10819
853.2625, 22.64201
853.7446, 22.20123
854.2267, 21.97179
854.7088, 21.94813
855.1909, 21.96163
855.6730, 21.96982
856.1552, 21.99578
856.6373, 22.06421
857.1194, 22.16364
857.6015, 22.22513
858.0836, 22.26316
858.5657, 22.14672
859.0479, 21.64837
859.5300, 21.06957
860.0121, 21.06692
860.4942, 21.51107
860.9763, 21.95401
861.4584, 22.30286
861.9406, 22.45603
862.4227, 22.18990
862.9048, 21.67220
863.3869, 21.52197
863.8690, 21.99088
864.3511, 22.16571
864.8333, 21.71125
865.3154, 21.00094
865.7975, 20.84833
866.2796, 21.14514
866.7617, 21.41821
867.2438, 21.50861
867.7260, 21.51426
868.2081, 21.43023
868.6902, 21.33428
869.1723, 21.34552
869.6544, 21.61909
870.1365, 21.81876
870.6187, 21.91220
871.1008, 21.94250
871.5829, 21.99399
872.0650, 22.05886
872.5471, 21.91070
873.0292, 21.45763
873.5114, 21.09169
873.9935, 21.31411
874.4756, 21.81965
874.9577, 22.24393
875.4399, 22.54309
875.9220, 22.67846
876.4041, 22.39899
876.8862, 22.15401
877.3683, 22.28812
877.8505, 22.89645
878.3326, 23.20180
878.8147, 23.17161
879.2968, 23.07146
879.7789, 23.11063
880.2610, 23.23925
880.7432, 23.37554
881.2253, 23.51496
881.7074, 23.69516
882.1895, 24.00840
882.6716, 24.30012
883.1537, 24.51311
883.6359, 24.64452
884.1180, 24.53947
884.6001, 24.09184
885.0822, 23.85839
885.5643, 24.22083
886.0464, 24.91653
886.5286, 25.40420
887.0107, 25.67952
887.4928, 25.72369
887.9749, 25.09358
888.4570, 24.66676
888.9391, 25.17274
889.4213, 26.25187
889.9034, 26.69098
890.3855, 26.10838
890.8676, 25.72571
891.3497, 25.80617
891.8318, 26.18060
892.3140, 26.61510
892.7961, 27.07976
893.2782, 27.45709
893.7603, 27.70095
894.2424, 27.86581
894.7245, 27.90804
895.2067, 27.92741
895.6888, 28.04693
896.1709, 28.27883
896.6530, 28.65553
897.1351, 29.28491
897.6172, 29.88513
898.0994, 30.06156
898.5815, 29.89546
899.0636, 30.03491
899.5457, 30.55638
900.0278, 31.04105
900.5099, 31.02683
900.9921, 30.89726
901.4742, 31.01771
901.9563, 31.45867
902.4384, 31.92622
902.9205, 32.44543
903.4026, 32.87999
903.8848, 33.09990
904.3669, 33.15592
904.8490, 33.58821
905.3311, 34.37727
905.8132, 35.04601
906.2953, 35.16985
906.7775, 35.14342
907.2596, 35.26190
907.7417, 35.55555
908.2238, 36.11109
908.7059, 37.44434
909.1880, 38.40372
909.6702, 38.59430
910.1523, 38.37127
910.6344, 38.56852
911.1165, 39.17983
911.5986, 39.93118
912.0807, 40.80957
912.5629, 41.64508
913.0450, 42.11789
913.5271, 42.46037
914.0092, 43.03480
914.4913, 44.03724
914.9734, 45.08773
915.4556, 46.15302
915.9377, 47.21855
916.4198, 48.22799
916.9019, 49.16507
917.3840, 50.41362
917.8661, 52.03773
918.3483, 53.59408
918.8304, 54.48256
919.3125, 55.20284
919.7946, 56.40945
920.2767, 58.16239
920.7589, 59.96449
921.2410, 61.69828
921.7231, 63.41101
922.2052, 65.05522
922.6873, 66.67915
923.1694, 68.79782
923.6516, 71.40781
924.1337, 74.01861
924.6158, 76.30797
925.0979, 78.53262
925.5800, 80.91423
926.0621, 83.47511
926.5443, 86.30673
927.0264, 89.36404
927.5085, 92.80701
927.9906, 96.63750
928.4727, 100.8982
928.9548, 105.5809
929.4370, 110.6570
929.9191, 116.3127
930.4012, 122.4504
930.8833, 129.4921
931.3654, 137.9429
931.8475, 147.5397
932.3297, 157.9028
932.8118, 168.5342
933.2939, 181.3330
933.7761, 196.0984
934.2582, 213.8605
934.7403, 235.0557
935.2224, 259.8599
935.7045, 287.6738
936.1866, 318.6962
936.6688, 353.3305
937.1509, 392.1495
937.6330, 434.6133
938.1151, 479.9677
938.5972, 528.5797
939.0793, 580.2610
939.5615, 634.2157
940.0436, 693.4802
940.5257, 757.4062
941.0078, 827.2315
941.4899, 903.1985
941.9720, 985.4388
942.4542, 1076.486
942.9363, 1177.089
943.4184, 1289.206
943.9005, 1412.348
944.3826, 1548.893
944.8647, 1705.772
945.3469, 1884.792
945.8290, 2083.507
946.3111, 2303.797
946.7932, 2538.273
947.2753, 2787.044
947.7574, 3051.270
948.2396, 3302.590
948.7217, 3541.427
949.2038, 3729.558
949.6859, 3856.905
950.1680, 3905.530
950.6501, 3852.228
951.1323, 3698.390
951.6144, 3479.651
952.0965, 3177.197
952.5786, 2858.614
953.0607, 2535.217
953.5428, 2215.969
954.0250, 1924.553
954.5071, 1661.081
954.9892, 1425.838
955.4713, 1223.170
955.9534, 1046.275
956.4355, 894.2145
956.9177, 764.3829
957.3998, 651.4155
957.8819, 555.1415
958.3640, 474.0107
958.8461, 409.4352
959.3282, 356.7514
959.8104, 313.9966
960.2925, 279.7733
960.7746, 251.3491
961.2567, 228.3852
961.7388, 209.2504
962.2209, 193.8264
962.7031, 180.6955
963.1852, 169.4139
963.6673, 159.9023
964.1494, 151.0060
964.6315, 142.7320
965.1136, 135.3209
965.5958, 128.9021
966.0779, 123.3608
966.5600, 118.5848
967.0421, 114.4207
967.5242, 110.5886
968.0063, 106.8701
968.4885, 103.5491
968.9706, 100.8199
969.4527, 98.48746
969.9348, 96.28857
970.4169, 94.25975
970.8990, 92.15764
971.3812, 89.90608
971.8633, 87.96506
972.3454, 86.99987
972.8275, 86.57015
973.3096, 86.04478
973.7917, 85.36610
974.2739, 84.71814
974.7560, 84.08432
975.2381, 83.58499
975.7202, 83.21104
976.2023, 83.00412
976.6844, 83.22301
977.1666, 83.86547
977.6487, 84.58511
978.1308, 85.27785
978.6129, 85.91757
979.0950, 86.19547
979.5771, 86.48489
980.0593, 87.39708
980.5414, 89.63557
981.0235, 91.70158
981.5056, 93.40588
981.9877, 95.13479
982.4698, 97.27564
982.9520, 99.80946
983.4341, 102.6585
983.9162, 105.8147
984.3983, 109.1398
984.8804, 112.2079
985.3625, 115.6934
985.8447, 120.2758
986.3268, 125.9312
986.8089, 131.0613
987.2910, 135.1978
987.7731, 140.1064
988.2552, 146.3981
988.7374, 153.7657
989.2195, 161.5977
989.7016, 169.9101
990.1837, 178.6414
990.6658, 187.6026
991.1479, 197.3195
991.6301, 207.9123
992.1122, 219.4913
992.5944, 232.1207
993.0765, 245.5307
993.5586, 260.2722
994.0407, 276.3626
994.5228, 293.6760
995.0049, 312.1068
995.4871, 331.6740
995.9692, 352.4501
996.4513, 374.6334
996.9334, 398.8007
997.4155, 427.0967
997.8976, 454.9937
998.3798, 481.8760
998.8619, 507.2680
999.3440, 531.3813
999.8261, 553.9844
1000.308, 572.1837
1000.790, 585.3718
1001.272, 593.5390
1001.755, 596.8278
1002.237, 595.1188
1002.719, 588.2634
1003.201, 576.1606
1003.683, 558.2139
1004.165, 533.2789
1004.647, 504.8993
1005.129, 473.6279
1005.612, 440.6810
1006.094, 408.0322
1006.576, 376.1450
1007.058, 345.7269
1007.540, 316.5965
1008.022, 290.1392
1008.504, 266.9589
1008.986, 246.4625
1009.468, 227.4144
1009.951, 209.8250
1010.433, 194.4904
1010.915, 181.5196
1011.397, 170.1618
1011.879, 159.7663
1012.361, 150.4863
1012.843, 142.5728
1013.325, 136.1992
1013.807, 130.4794
1014.290, 125.3804
1014.772, 120.6942
1015.254, 116.4709
1015.736, 112.6135
1016.218, 108.4727
1016.700, 104.1376
1017.182, 100.1423
1017.664, 96.88950
1018.147, 93.77346
1018.629, 90.65679
1019.111, 87.32838
1019.593, 83.32837
1020.075, 78.19807
1020.557, 73.87578
1021.039, 70.57699
1021.521, 67.54841
1022.003, 63.94638
1022.486, 60.16112
1022.968, 56.98730
1023.450, 54.41313
1023.932, 51.91687
1024.414, 49.05342
1024.896, 46.53881
1025.378, 44.63426
1025.860, 43.20230
1026.343, 41.91012
1026.825, 40.76632
1027.307, 39.58161
1027.789, 38.26219
1028.271, 37.03466
1028.753, 36.13018
1029.235, 35.40967
1029.717, 34.73101
1030.199, 34.05373
1030.682, 33.49314
1031.164, 33.08652
1031.646, 32.67944
1032.128, 32.12793
1032.610, 31.51608
1033.092, 31.13363
1033.574, 30.90125
1034.056, 30.53971
1034.539, 29.71636
1035.021, 28.99841
1035.503, 28.63707
1035.985, 28.42779
1036.467, 28.06370
1036.949, 27.53902
1037.431, 27.27810
1037.913, 27.36644
1038.396, 27.33005
1038.878, 26.51108
1039.360, 25.53325
1039.842, 25.06266
1040.324, 25.15149
1040.806, 24.89747
1041.288, 24.03205
1041.770, 23.34699
1042.252, 23.12293
1042.734, 23.17142
1043.217, 23.19471
1043.699, 23.16139
1044.181, 22.96133
1044.663, 22.42924
1045.145, 22.03698
1045.627, 22.06255
1046.109, 22.22280
1046.591, 22.33845
1047.074, 22.41236
1047.556, 22.31560
1048.038, 22.04670
1048.520, 21.85280
1049.002, 21.99033
1049.484, 22.19359
1049.966, 22.21441
1050.448, 22.11466
1050.931, 22.07719
1051.413, 22.11064
1051.895, 22.23355
1052.377, 22.47117
1052.859, 22.74226
1053.341, 22.93192
1053.823, 23.08900
1054.305, 23.31677
1054.787, 23.62730
1055.270, 24.00840
1055.752, 24.46389
1056.234, 24.98333
1056.716, 25.52685
1057.198, 26.12791
1057.680, 26.93531
1058.162, 27.93892
1058.644, 28.97625
1059.126, 29.97505
1059.609, 31.05068
1060.091, 32.30618
1060.573, 33.66744
1061.055, 35.02547
1061.537, 36.31379
1062.019, 37.80516
1062.501, 39.48285
1062.983, 41.43328
1063.466, 43.59056
1063.948, 46.09766
1064.430, 49.42348
1064.912, 53.36504
1065.394, 57.32751
1065.876, 61.16673
1066.358, 64.85739
1066.840, 68.64790
1067.323, 72.03852
1067.805, 74.57129
1068.287, 76.21935
1068.769, 76.61626
1069.251, 75.74047
1069.733, 73.83801
1070.215, 70.59816
1070.697, 66.82177
1071.179, 62.91389
1071.661, 58.94440
1072.144, 55.16150
1072.626, 51.54323
1073.108, 48.46248
1073.590, 46.04564
1074.072, 44.20668
1074.554, 42.79387
1075.036, 41.95632
1075.518, 41.99341
1076.001, 43.15326
1076.483, 44.30376
1076.965, 45.25797
1077.447, 46.36024
1077.929, 47.82332
1078.411, 49.52905
1078.893, 51.35560
1079.375, 53.14681
1079.858, 54.38969
1080.340, 54.78386
1080.822, 54.74179
1081.304, 54.66505
1081.786, 53.98366
1082.268, 52.00008
1082.750, 48.70738
1083.232, 45.25741
1083.714, 41.65807
1084.197, 38.40197
1084.679, 35.87160
1085.161, 33.78000
1085.643, 32.10543
1086.125, 30.71080
1086.607, 29.04289
1087.089, 26.92437
1087.571, 25.15470
1088.054, 23.85981
1088.536, 22.90417
1089.018, 22.25450
1089.500, 21.77642
1089.982, 21.27066
1090.464, 20.71035
1090.946, 20.27013
1091.428, 19.98055
1091.911, 19.83552
1092.393, 19.92568
1092.875, 20.06258
1093.357, 19.63037
1093.839, 18.85880
1094.321, 18.49234
1094.803, 18.85144
1095.285, 19.26511
1095.767, 19.64541
1096.250, 19.74609
1096.732, 19.30859
1097.214, 18.37828
1097.696, 17.77478
1098.178, 17.49504
1098.660, 17.50428
1099.142, 18.03306
1099.624, 18.54438
1100.106, 18.57530
1100.589, 18.34031
1101.071, 18.18570
1101.553, 18.16991
1102.035, 18.09527
1102.517, 17.95165
1102.999, 17.78113
1103.481, 17.58533
1103.963, 17.40664
1104.446, 17.29816
1104.928, 17.25929
1105.410, 17.28389
1105.892, 17.48681
1106.374, 17.54313
1106.856, 17.37135
1107.338, 17.11227
1107.820, 16.93904
1108.302, 16.83087
1108.785, 16.71904
1109.267, 16.59692
1109.749, 16.53649
1110.231, 16.63892
1110.713, 16.72404
1111.195, 16.69789
1111.677, 16.62658
1112.159, 16.75200
1112.641, 17.02455
1113.124, 17.10950
1113.606, 16.88127
1114.088, 16.63804
1114.570, 16.52056
1115.052, 16.52320
1115.534, 16.70634
1116.016, 17.04826
1116.498, 17.07044
1116.981, 16.75802
1117.463, 16.60431
1117.945, 16.93904
1118.427, 17.34248
1118.909, 17.34784
1119.391, 17.17575
1119.873, 17.16769
1120.355, 17.51902
1120.838, 17.49789
1121.320, 17.01612
1121.802, 16.54096
1122.284, 16.38092
1122.766, 16.43970
1123.248, 16.65290
1123.730, 16.95811
1124.212, 17.19147
1124.694, 17.22623
1125.177, 17.32397
1125.659, 17.58228
1126.141, 17.75114
1126.623, 17.46615
1127.105, 16.90576
1127.587, 16.47949
1128.069, 16.22069
1128.551, 16.19014
1129.033, 16.79381
1129.516, 17.12874
1129.998, 16.82209
1130.480, 16.26252
1130.962, 16.12862
1131.444, 16.33913
1131.926, 16.49442
1132.408, 16.54189
1132.890, 16.45948
1133.373, 16.08893
1133.855, 15.72940
1134.337, 15.57999
1134.819, 15.33542
1135.301, 15.41860
1135.783, 15.13707
1136.265, 15.00484
1136.747, 15.11866
1137.229, 15.29968
1137.712, 15.48374
1138.194, 15.60100
1138.676, 15.56831
1139.158, 15.38978
1139.640, 15.15833
1140.122, 14.85476
1140.604, 14.67879
1141.086, 14.76787
1141.569, 14.91278
1142.051, 14.83306
1142.533, 14.68333
1143.015, 14.70231
1143.497, 15.03983
1143.979, 15.09257
1144.461, 14.77543
1144.943, 14.51173
1145.426, 14.67280
1145.908, 14.95246
1146.390, 14.77162
1146.872, 14.34398
1147.354, 14.11511
1147.836, 14.50603
1148.318, 14.63090
1148.800, 14.39540
1149.282, 14.06620
1149.765, 13.81690
1150.247, 13.65895
1150.729, 13.68942
1151.211, 13.84941
1151.693, 13.89545
1152.175, 13.62178
1152.657, 13.36759
1153.139, 13.13087
1153.621, 13.02009
1154.104, 13.27294
1154.586, 13.75112
1155.068, 13.99140
1155.550, 13.97569
1156.032, 13.85187
1156.514, 13.58482
1156.996, 13.34879
1157.478, 13.14603
1157.961, 13.04729
1158.443, 13.29942
1158.925, 13.80258
1159.407, 13.92895
1159.889, 13.57978
1160.371, 13.27155
1160.853, 13.28162
1161.335, 13.46863
1161.818, 13.89050
1162.300, 14.37419
1162.782, 14.29230
1163.264, 13.71169
1163.746, 13.46157
1164.228, 13.74891
1164.710, 14.21540
1165.192, 14.83600
1165.674, 15.32745
1166.156, 15.36845
1166.639, 15.07008
1167.121, 15.20956
1167.603, 15.78163
1168.085, 15.99399
1168.567, 15.44710
1169.049, 14.91277
1169.531, 15.21796
1170.013, 15.75293
1170.496, 15.85634
1170.978, 15.50474
1171.460, 15.33864
1171.942, 15.35449
1172.424, 15.61122
1172.906, 16.25786
1173.388, 16.93688
1173.870, 17.39501
1174.353, 17.60892
1174.835, 17.45296
1175.317, 16.80900
1175.799, 16.57772
1176.281, 16.80070
1176.763, 17.09065
1177.245, 17.21885
1177.727, 17.31528
1178.209, 17.62811
1178.692, 17.58369
1179.174, 18.03763
1179.656, 17.59403
1180.138, 17.34973
1180.620, 17.32478
1181.102, 17.38578
1181.584, 17.49908
1182.066, 17.59519
1182.548, 17.56884
1183.031, 17.45795
1183.513, 17.35608
1183.995, 17.34602
1184.477, 17.15657
1184.959, 16.71748
1185.441, 16.32310
1185.923, 16.33935
1186.405, 16.48803
1186.888, 16.39149
1187.370, 16.08630
1187.852, 15.73393
1188.334, 15.28182
1188.816, 14.96070
1189.298, 14.80143
1189.780, 14.74905
1190.262, 14.85528
1190.745, 14.97099
1191.227, 14.83033
1191.709, 14.46920
1192.191, 14.14916
1192.673, 13.98161
1193.155, 13.71495
1193.637, 13.24959
1194.119, 12.85260
1194.601, 12.95315
1195.084, 13.27357
1195.566, 13.36389
1196.048, 13.20821
1196.530, 13.04064
1197.012, 12.82225
1197.494, 12.80186
1197.976, 13.12046
1198.458, 13.42839
1198.941, 13.10283
1199.423, 12.48281
1199.905, 12.16463
1200.387, 12.20380
1200.869, 12.23151
1201.351, 12.18442
1201.833, 12.09096
1202.315, 11.92297
1202.797, 11.78365
1203.280, 11.94844
1203.762, 12.21600
1204.244, 12.18432
1204.726, 11.77644
1205.208, 11.50640
1205.690, 11.53154
1206.172, 11.54871
1206.654, 11.45190
1207.136, 11.32944
1207.619, 11.31688
1208.101, 11.39606
1208.583, 11.59600
1209.065, 11.96980
1209.547, 12.03483
1210.029, 11.56569
1210.511, 11.15310
1210.993, 10.99788
1211.476, 11.02363
1211.958, 11.16689
1212.440, 11.35609
1212.922, 11.45229
1213.404, 11.40996
1213.886, 11.38381
1214.368, 11.43950
1214.850, 11.39429
1215.333, 11.11749
1215.815, 10.77965
1216.297, 10.69860
1216.779, 10.78090
1217.261, 10.87078
1217.743, 10.95491
1218.225, 10.94078
1218.707, 10.74559
1219.189, 10.67495
1219.672, 10.96438
1220.154, 11.34189
1220.636, 11.20111
1221.118, 10.81830
1221.600, 10.70996
1222.082, 11.13626
1222.564, 11.39259
1223.046, 11.42375
1223.528, 11.35098
1224.011, 11.18646
1224.493, 11.01583
1224.975, 11.00128
1225.457, 11.08136
1225.939, 11.15654
1226.421, 11.23249
1226.903, 11.18214
1227.385, 10.93147
1227.868, 10.82979
1228.350, 11.22803
1228.832, 11.71185
1229.314, 11.51504
1229.796, 10.99485
1230.278, 10.77955
1230.760, 11.15784
1231.242, 11.32427
1231.724, 11.22254
1232.207, 11.18494
1232.689, 11.50499
1233.171, 11.89407
1233.653, 11.96115
1234.135, 11.84447
1234.617, 11.78524
1235.099, 11.86831
1235.581, 11.77698
1236.063, 11.46439
1236.546, 11.31349
1237.028, 11.77522
1237.510, 12.29507
1237.992, 12.17579
1238.474, 11.75804
1238.956, 11.64061
1239.438, 11.98329
1239.920, 12.01486
1240.403, 11.70497
1240.885, 11.49674
1241.367, 11.71746
1241.849, 12.11648
1242.331, 12.65484
1242.813, 13.13969
1243.295, 13.25018
1243.777, 12.88800
1244.260, 12.69588
1244.742, 12.67108
1245.224, 12.78166
1245.706, 13.16084
1246.188, 13.50281
1246.670, 13.56391
1247.152, 13.48225
1247.634, 13.43174
1248.116, 13.40358
1248.599, 13.58240
1249.081, 13.94962
1249.563, 14.23250
1250.045, 14.18674
1250.527, 14.10403
1251.009, 14.05952
1251.491, 14.11885
1251.973, 14.42393
1252.455, 14.95247
1252.938, 15.13766
1253.420, 15.00772
1253.902, 14.83945
1254.384, 14.73947
1254.866, 14.68390
1255.348, 14.59990
1255.830, 14.62101
1256.313, 14.96633
1256.795, 15.54933
1257.277, 15.80960
1257.759, 15.78547
1258.241, 15.69759
1258.723, 15.50283
1259.205, 15.48659
1259.687, 15.84532
1260.169, 16.16106
1260.651, 15.89724
1261.134, 15.32966
1261.616, 15.48422
1262.098, 16.14492
1262.580, 16.53454
1263.062, 16.08564
1263.544, 15.76624
1264.026, 15.69164
1264.508, 15.68655
1264.991, 15.55001
1265.473, 15.41288
1265.955, 15.63746
1266.437, 16.06527
1266.919, 16.27124
1267.401, 15.92851
1267.883, 15.80174
1268.365, 15.98718
1268.848, 16.05743
1269.330, 15.41900
1269.812, 14.68589
1270.294, 14.73855
1270.776, 15.28583
1271.258, 15.69082
1271.740, 15.89672
1272.222, 15.93666
1272.704, 15.79736
1273.187, 15.61151
1273.669, 15.45112
1274.151, 15.30420
1274.633, 15.10570
1275.115, 14.94441
1275.597, 14.99521
1276.079, 15.33348
1276.561, 15.23823
1277.043, 14.72721
1277.526, 14.44548
1278.008, 15.09547
1278.490, 15.73828
1278.972, 15.78691
1279.454, 15.56269
1279.936, 15.36077
1280.418, 15.18612
1280.900, 15.13584
1281.383, 15.18728
1281.865, 15.19012
1282.347, 14.77943
1282.829, 14.74164
1283.311, 15.79464
1283.793, 16.76427
1284.275, 16.63900
1284.757, 15.70343
1285.240, 15.02015
1285.722, 14.56917
1286.204, 14.31304
1286.686, 14.39952
1287.168, 14.38691
1287.650, 14.19255
1288.132, 13.97656
1288.614, 13.78768
1289.096, 13.69902
1289.578, 13.98946
1290.061, 14.46657
1290.543, 14.74011
1291.025, 14.69340
1291.507, 14.39196
1291.989, 13.74464
1292.471, 13.27489
1292.953, 13.38307
1293.435, 13.69463
1293.918, 13.84345
1294.400, 13.86462
1294.882, 13.75978
1295.364, 13.49590
1295.846, 13.57862
1296.328, 14.01787
1296.810, 14.23164
1297.292, 13.79044
1297.775, 13.31235
1298.257, 13.29167
1298.739, 13.45430
1299.221, 13.56459
1299.703, 13.61509
1300.185, 13.46752
1300.667, 13.16579
1301.149, 12.98704
1301.631, 13.11349
1302.114, 13.17031
1302.596, 13.05118
##END=



