##NAMES=Tripuhyite
##RRUFFID=R070383
##IDEAL CHEMISTRY=Fe^3+^Sb^5+^O_4_
##LOCALITY=Cetine mine, Chiusdino, Siena Province, Tuscany, Italy
##OWNER=RRUFF
##SOURCE=Michael Scott
##DESCRIPTION=Transparent grey greenish acicular crystals associated with valentinite, clinocervantite R070385, and rosiaite R070384
##STATUS=The identification of this mineral has been confirmed only by single crystal X-ray diffraction.
##URL=rruff.info/R070383
139.0553, 115.8224
139.5374, 116.9168
140.0195, 118.8555
140.5016, 121.2323
140.9837, 122.4417
141.4658, 122.4505
141.9480, 121.3633
142.4301, 118.7843
142.9122, 112.8059
143.3943, 109.5476
143.8764, 111.0354
144.3585, 117.1005
144.8407, 119.7303
145.3228, 116.6897
145.8049, 111.8892
146.2870, 109.0124
146.7691, 109.7560
147.2512, 110.2446
147.7334, 109.7510
148.2155, 108.0643
148.6976, 106.3092
149.1797, 104.2642
149.6618, 102.2105
150.1439, 100.5356
150.6261, 99.21419
151.1082, 98.31375
151.5903, 97.80569
152.0724, 97.48155
152.5545, 98.01920
153.0366, 100.2892
153.5188, 103.4268
154.0009, 105.7224
154.4830, 106.1902
154.9651, 106.3423
155.4472, 106.8478
155.9293, 107.9490
156.4115, 109.1734
156.8936, 111.3309
157.3757, 113.7744
157.8578, 114.3227
158.3399, 109.9229
158.8221, 104.8206
159.3042, 101.7488
159.7863, 103.5705
160.2684, 105.3558
160.7505, 104.9880
161.2326, 102.8076
161.7148, 101.4752
162.1969, 103.5158
162.6790, 106.4080
163.1611, 107.6973
163.6432, 105.8066
164.1253, 102.7442
164.6075, 98.54889
165.0896, 93.18597
165.5717, 89.83442
166.0538, 92.56040
166.5359, 98.02310
167.0180, 101.4504
167.5002, 97.90972
167.9823, 93.46595
168.4644, 93.26402
168.9465, 98.20937
169.4286, 103.7114
169.9107, 106.6162
170.3929, 107.5983
170.8750, 108.1525
171.3571, 109.4762
171.8392, 110.5592
172.3213, 109.8377
172.8034, 106.4992
173.2856, 103.4186
173.7677, 104.1861
174.2498, 107.7529
174.7319, 110.5051
175.2140, 108.8057
175.6961, 105.2463
176.1783, 103.9841
176.6604, 106.4060
177.1425, 110.2176
177.6246, 112.8418
178.1067, 114.3770
178.5888, 115.6354
179.0710, 117.4433
179.5531, 119.3840
180.0352, 120.2707
180.5173, 118.9561
180.9994, 117.3398
181.4815, 119.2345
181.9637, 124.5467
182.4458, 129.8224
182.9279, 130.4881
183.4100, 128.2284
183.8921, 129.7213
184.3742, 139.4055
184.8564, 152.9611
185.3385, 159.6138
185.8206, 159.0672
186.3027, 155.9107
186.7848, 153.7371
187.2669, 152.6372
187.7491, 153.1802
188.2312, 155.8603
188.7133, 160.3314
189.1954, 166.3943
189.6775, 174.6524
190.1596, 181.5948
190.6418, 182.5011
191.1239, 177.4558
191.6060, 170.7191
192.0881, 162.8706
192.5702, 154.2599
193.0524, 148.3653
193.5345, 145.7540
194.0166, 144.4117
194.4987, 140.6872
194.9808, 134.3206
195.4629, 129.4874
195.9451, 128.5419
196.4272, 131.4013
196.9093, 134.7893
197.3914, 138.6553
197.8735, 142.9679
198.3556, 148.4110
198.8378, 155.4370
199.3199, 160.6499
199.8020, 160.8817
200.2841, 155.5979
200.7662, 153.7436
201.2483, 157.0331
201.7305, 162.9296
202.2126, 164.8525
202.6947, 161.9410
203.1768, 158.2675
203.6589, 156.1883
204.1410, 155.8892
204.6232, 156.1132
205.1053, 157.0913
205.5874, 158.3754
206.0695, 158.3874
206.5516, 156.8637
207.0337, 154.7590
207.5159, 152.4753
207.9980, 149.8544
208.4801, 148.0070
208.9622, 147.1255
209.4443, 147.1219
209.9264, 147.4976
210.4086, 148.0744
210.8907, 149.3986
211.3728, 152.4984
211.8549, 158.6440
212.3370, 162.1394
212.8191, 161.3026
213.3013, 156.8016
213.7834, 154.3064
214.2655, 154.4692
214.7476, 155.5927
215.2297, 156.2711
215.7118, 156.3946
216.1940, 156.4182
216.6761, 156.5596
217.1582, 156.7820
217.6403, 156.0626
218.1224, 153.9060
218.6045, 151.4818
219.0867, 149.8488
219.5688, 149.0436
220.0509, 149.0795
220.5330, 150.6029
221.0151, 153.7201
221.4972, 153.7906
221.9794, 148.6509
222.4615, 142.8800
222.9436, 141.8408
223.4257, 148.5184
223.9078, 153.7755
224.3899, 155.1151
224.8721, 152.1928
225.3542, 150.1700
225.8363, 149.4844
226.3184, 149.2657
226.8005, 148.4463
227.2827, 146.7368
227.7648, 144.9808
228.2469, 143.3576
228.7290, 141.8729
229.2111, 140.4703
229.6932, 138.9277
230.1754, 137.6629
230.6575, 137.3552
231.1396, 138.7903
231.6217, 139.7896
232.1038, 139.6605
232.5859, 138.1657
233.0681, 136.7912
233.5502, 135.4689
234.0323, 134.3194
234.5144, 133.4121
234.9965, 132.3282
235.4786, 132.2341
235.9608, 133.7433
236.4429, 137.3090
236.9250, 140.4216
237.4071, 143.8133
237.8892, 146.2633
238.3713, 145.3127
238.8535, 137.9497
239.3356, 132.2363
239.8177, 131.0378
240.2998, 135.5909
240.7819, 140.0032
241.2640, 144.4879
241.7462, 148.7788
242.2283, 152.3242
242.7104, 154.4007
243.1925, 156.9215
243.6746, 160.5468
244.1567, 165.5274
244.6389, 170.8287
245.1210, 176.3588
245.6031, 182.2458
246.0852, 188.8228
246.5673, 196.7800
247.0494, 204.2178
247.5316, 209.8565
248.0137, 212.0226
248.4958, 218.5639
248.9779, 232.2332
249.4600, 248.7003
249.9421, 259.0006
250.4243, 259.2296
250.9064, 260.4104
251.3885, 266.7730
251.8706, 279.8600
252.3527, 293.3131
252.8348, 307.5156
253.3170, 321.8141
253.7991, 335.5196
254.2812, 350.5074
254.7633, 361.0797
255.2454, 365.3943
255.7275, 363.6231
256.2097, 354.2391
256.6918, 334.7349
257.1739, 309.4585
257.6560, 285.4223
258.1381, 261.2125
258.6202, 241.1118
259.1024, 227.0660
259.5845, 220.4663
260.0666, 214.6708
260.5487, 209.3993
261.0308, 205.1635
261.5129, 203.0900
261.9951, 204.2421
262.4772, 205.0356
262.9593, 203.3460
263.4414, 197.8293
263.9235, 196.5175
264.4056, 200.7955
264.8878, 207.9888
265.3699, 212.6677
265.8520, 212.8060
266.3341, 216.3538
266.8162, 227.5246
267.2983, 247.7028
267.7805, 266.0334
268.2626, 282.1081
268.7447, 296.6107
269.2268, 310.5104
269.7089, 323.6336
270.1910, 336.7062
270.6732, 349.8151
271.1553, 362.7344
271.6374, 377.3906
272.1195, 393.8220
272.6016, 411.9737
273.0837, 430.6070
273.5659, 449.2242
274.0480, 471.1438
274.5301, 497.8209
275.0122, 529.1931
275.4943, 564.9352
275.9764, 605.8582
276.4586, 649.6270
276.9407, 694.0491
277.4228, 738.9506
277.9049, 781.1411
278.3870, 815.9785
278.8691, 844.1779
279.3513, 883.5631
279.8334, 936.3007
280.3155, 994.6547
280.7976, 1048.873
281.2798, 1098.346
281.7619, 1147.705
282.2440, 1208.946
282.7261, 1275.918
283.2082, 1302.414
283.6903, 1287.536
284.1725, 1235.453
284.6546, 1137.222
285.1367, 995.5070
285.6188, 857.5586
286.1009, 735.8202
286.5830, 631.0672
287.0652, 548.4825
287.5473, 490.0406
288.0294, 446.3954
288.5115, 409.3968
288.9936, 378.9336
289.4757, 355.5137
289.9579, 341.6140
290.4400, 334.1518
290.9221, 324.1295
291.4042, 311.3547
291.8863, 298.4191
292.3684, 286.8127
292.8506, 276.9478
293.3327, 270.4753
293.8148, 268.9421
294.2969, 270.4733
294.7790, 272.4094
295.2611, 274.7533
295.7433, 275.2504
296.2254, 270.1374
296.7075, 261.3829
297.1896, 254.7276
297.6717, 252.1374
298.1538, 252.0449
298.6360, 252.4124
299.1181, 253.2475
299.6002, 254.5961
300.0823, 257.0718
300.5644, 260.0346
301.0465, 262.2523
301.5287, 263.1278
302.0108, 263.4726
302.4929, 263.9251
302.9750, 264.5356
303.4571, 265.5640
303.9392, 266.0783
304.4214, 267.4448
304.9035, 272.0359
305.3856, 282.2410
305.8677, 292.6992
306.3498, 297.5439
306.8319, 298.2315
307.3141, 300.0145
307.7962, 304.8333
308.2783, 312.7397
308.7604, 324.6405
309.2425, 342.4230
309.7246, 359.9427
310.2068, 371.4384
310.6889, 379.4209
311.1710, 390.5218
311.6531, 410.1036
312.1352, 432.7281
312.6173, 454.2590
313.0995, 473.3430
313.5816, 492.6296
314.0637, 514.0310
314.5458, 536.5532
315.0279, 558.4919
315.5100, 575.3002
315.9922, 594.2872
316.4743, 620.9089
316.9564, 658.2692
317.4385, 692.9573
317.9206, 731.0672
318.4027, 761.4805
318.8849, 768.6599
319.3670, 740.1962
319.8491, 695.0349
320.3312, 634.0670
320.8133, 552.8378
321.2954, 482.9338
321.7776, 432.2755
322.2597, 394.6604
322.7418, 363.4771
323.2239, 340.5833
323.7060, 321.2401
324.1881, 305.2178
324.6703, 292.7380
325.1524, 280.3385
325.6345, 266.8333
326.1166, 253.9727
326.5987, 243.0705
327.0808, 236.9536
327.5630, 229.4594
328.0451, 218.7736
328.5272, 205.1563
329.0093, 194.1965
329.4914, 186.6066
329.9735, 181.2547
330.4557, 177.6536
330.9378, 177.1004
331.4199, 176.0119
331.9020, 173.8224
332.3841, 170.8303
332.8662, 168.5730
333.3484, 167.6040
333.8305, 166.5635
334.3126, 164.5201
334.7947, 160.8955
335.2768, 158.2470
335.7589, 157.2674
336.2411, 157.0252
336.7232, 154.6159
337.2053, 148.9306
337.6874, 144.3740
338.1695, 143.7379
338.6516, 147.7014
339.1338, 149.4497
339.6159, 148.2268
340.0980, 145.7607
340.5801, 145.2428
341.0622, 146.9274
341.5443, 148.1287
342.0265, 146.9818
342.5086, 143.9534
342.9907, 143.6986
343.4728, 146.6270
343.9549, 150.7349
344.4370, 154.6186
344.9192, 158.0314
345.4013, 158.4324
345.8834, 152.7820
346.3655, 144.0547
346.8476, 140.7712
347.3297, 143.0619
347.8119, 147.0464
348.2940, 150.0333
348.7761, 151.9224
349.2582, 152.3067
349.7403, 150.6422
350.2225, 147.8860
350.7046, 144.8624
351.1867, 141.6782
351.6688, 139.3698
352.1509, 139.0240
352.6331, 139.9342
353.1152, 141.1549
353.5973, 142.7525
354.0794, 144.0895
354.5615, 144.3068
355.0436, 143.7330
355.5258, 143.3684
356.0079, 144.2800
356.4900, 145.3541
356.9721, 145.4619
357.4542, 144.1053
357.9363, 142.8852
358.4185, 142.5505
358.9006, 142.9752
359.3827, 143.9415
359.8648, 146.3677
360.3469, 148.5184
360.8290, 149.3517
361.3112, 148.6216
361.7933, 147.7423
362.2754, 147.1058
362.7575, 146.5710
363.2396, 145.9821
363.7217, 145.0302
364.2039, 144.3028
364.6860, 143.8632
365.1681, 143.7156
365.6502, 144.1160
366.1323, 146.3511
366.6144, 148.3868
367.0966, 148.8052
367.5787, 145.4241
368.0608, 143.0494
368.5429, 142.2756
369.0250, 142.8377
369.5071, 143.3816
369.9893, 143.7305
370.4714, 144.2619
370.9535, 145.0460
371.4356, 145.5640
371.9177, 147.7020
372.3998, 152.6284
372.8820, 158.6185
373.3641, 161.5330
373.8462, 160.3202
374.3283, 158.7630
374.8104, 158.5828
375.2925, 160.0064
375.7747, 159.9156
376.2568, 157.8866
376.7389, 155.1824
377.2210, 153.6642
377.7031, 153.4373
378.1852, 152.8255
378.6674, 150.8804
379.1495, 148.1598
379.6316, 147.5249
380.1137, 149.2433
380.5958, 150.6711
381.0779, 148.7659
381.5601, 144.1865
382.0422, 140.2888
382.5243, 137.6494
383.0064, 136.1702
383.4885, 136.0400
383.9706, 137.1153
384.4528, 138.3450
384.9349, 139.0203
385.4170, 139.3873
385.8991, 139.9522
386.3812, 140.9219
386.8633, 141.6806
387.3455, 141.4957
387.8276, 140.6560
388.3097, 139.8159
388.7918, 139.1899
389.2739, 138.7775
389.7560, 138.5787
390.2382, 138.5933
390.7203, 138.8212
391.2024, 139.2948
391.6845, 139.9680
392.1666, 140.7959
392.6487, 142.6365
393.1309, 143.8042
393.6130, 142.9126
394.0951, 140.2233
394.5772, 138.7906
395.0593, 139.8810
395.5414, 142.1601
396.0236, 144.7915
396.5057, 148.2002
396.9878, 151.3282
397.4699, 154.7873
397.9520, 157.9732
398.4341, 158.9727
398.9163, 156.4934
399.3984, 153.1524
399.8805, 149.6627
400.3626, 145.5851
400.8447, 142.5730
401.3268, 140.1318
401.8090, 139.1294
402.2911, 141.4502
402.7732, 149.0588
403.2553, 154.7334
403.7374, 156.0166
404.2195, 153.1916
404.7017, 151.4547
405.1838, 151.0476
405.6659, 151.0685
406.1480, 150.9380
406.6301, 150.6678
407.1122, 149.3772
407.5944, 146.2849
408.0765, 142.7207
408.5586, 142.2920
409.0407, 144.9403
409.5228, 147.9673
410.0049, 150.1916
410.4871, 151.4112
410.9692, 150.5212
411.4513, 146.8823
411.9334, 143.2551
412.4155, 142.8525
412.8976, 145.0238
413.3798, 147.8480
413.8619, 151.1405
414.3440, 154.2732
414.8261, 156.8239
415.3082, 158.7788
415.7903, 159.6943
416.2725, 158.3033
416.7546, 156.0961
417.2367, 154.7835
417.7188, 156.6055
418.2009, 157.5821
418.6830, 154.4729
419.1652, 148.6170
419.6473, 145.0493
420.1294, 147.1734
420.6115, 150.7231
421.0937, 153.3354
421.5758, 153.8097
422.0579, 155.1731
422.5400, 159.9595
423.0221, 165.4342
423.5042, 167.0974
423.9864, 158.2368
424.4685, 153.0023
424.9506, 156.6135
425.4327, 170.2166
425.9148, 176.6851
426.3969, 171.5575
426.8791, 164.3834
427.3612, 164.0615
427.8433, 173.4516
428.3254, 180.6314
428.8075, 183.5153
429.2896, 183.2201
429.7718, 183.2399
430.2539, 183.5285
430.7360, 184.3454
431.2181, 186.2033
431.7002, 188.9858
432.1823, 190.6162
432.6645, 190.5831
433.1466, 190.7704
433.6287, 194.4331
434.1108, 200.8790
434.5929, 206.7021
435.0750, 210.1966
435.5572, 212.2707
436.0393, 214.2779
436.5214, 216.2286
437.0035, 218.3556
437.4856, 221.5040
437.9677, 224.7277
438.4499, 226.5679
438.9320, 226.0310
439.4141, 225.0889
439.8962, 224.0780
440.3783, 223.6562
440.8604, 225.4924
441.3426, 234.0375
441.8247, 242.2166
442.3068, 244.9496
442.7889, 240.0507
443.2710, 237.6309
443.7531, 242.5284
444.2353, 250.4394
444.7174, 256.6903
445.1995, 258.9294
445.6816, 261.2474
446.1637, 265.1828
446.6458, 270.3420
447.1280, 272.4084
447.6101, 267.8842
448.0922, 264.1270
448.5743, 265.7602
449.0564, 276.0078
449.5385, 282.8389
450.0207, 284.6021
450.5028, 284.0257
450.9849, 287.2440
451.4670, 295.6082
451.9491, 300.6575
452.4312, 297.5131
452.9134, 287.5716
453.3955, 281.5151
453.8776, 279.4957
454.3597, 280.3028
454.8418, 284.3246
455.3239, 290.6241
455.8061, 294.7773
456.2882, 294.6455
456.7703, 293.7983
457.2524, 298.6007
457.7345, 307.6020
458.2166, 314.9880
458.6988, 314.2624
459.1809, 311.5732
459.6630, 314.5719
460.1451, 324.9406
460.6272, 334.4573
461.1093, 336.8765
461.5915, 335.7105
462.0736, 335.2585
462.5557, 337.4737
463.0378, 340.1283
463.5199, 341.5576
464.0020, 342.2066
464.4842, 345.5371
464.9663, 354.0916
465.4484, 364.1505
465.9305, 373.9144
466.4126, 384.1375
466.8947, 392.8094
467.3769, 399.7921
467.8590, 405.2642
468.3411, 409.2373
468.8232, 410.1760
469.3053, 412.7482
469.7874, 418.9087
470.2696, 428.3604
470.7517, 435.5544
471.2338, 440.1965
471.7159, 443.4502
472.1980, 446.0260
472.6801, 447.9411
473.1623, 449.4459
473.6444, 450.3401
474.1265, 451.3265
474.6086, 454.5519
475.0907, 459.4807
475.5728, 462.6493
476.0550, 460.1572
476.5371, 455.4515
477.0192, 454.3823
477.5013, 457.1652
477.9834, 460.9073
478.4655, 466.9864
478.9477, 471.5624
479.4298, 469.0620
479.9119, 450.6371
480.3940, 433.8397
480.8761, 428.9835
481.3582, 433.1736
481.8404, 438.2279
482.3225, 443.2234
482.8046, 447.0443
483.2867, 449.2267
483.7688, 449.6462
484.2509, 448.7135
484.7331, 444.7688
485.2152, 440.3642
485.6973, 437.8117
486.1794, 437.7924
486.6615, 438.4037
487.1436, 438.9380
487.6258, 439.8741
488.1079, 443.9189
488.5900, 452.0222
489.0721, 460.5583
489.5542, 467.4007
490.0363, 472.5628
490.5185, 478.3118
491.0006, 484.8123
491.4827, 491.3811
491.9648, 495.9953
492.4470, 499.3571
492.9291, 505.3642
493.4112, 515.7622
493.8933, 529.0244
494.3754, 544.0891
494.8575, 560.5202
495.3397, 574.6703
495.8218, 581.7161
496.3039, 586.6249
496.7860, 594.7222
497.2681, 607.3079
497.7502, 621.5201
498.2324, 637.7529
498.7145, 654.2267
499.1966, 668.8354
499.6787, 677.7965
500.1608, 687.8154
500.6429, 701.7438
501.1251, 719.3052
501.6072, 735.3912
502.0893, 749.0063
502.5714, 761.8461
503.0535, 774.2928
503.5356, 784.3373
504.0178, 799.1215
504.4999, 820.9774
504.9820, 845.3348
505.4641, 865.1589
505.9462, 879.3729
506.4283, 894.2119
506.9105, 910.8481
507.3926, 929.4922
507.8747, 952.2059
508.3568, 979.3470
508.8389, 1005.478
509.3210, 1024.531
509.8032, 1039.835
510.2853, 1061.165
510.7674, 1090.343
511.2495, 1122.979
511.7316, 1155.365
512.2137, 1187.983
512.6959, 1221.260
513.1780, 1252.489
513.6601, 1287.207
514.1422, 1328.234
514.6243, 1375.670
515.1064, 1429.818
515.5886, 1494.356
516.0707, 1563.423
516.5528, 1632.596
517.0349, 1699.980
517.5170, 1771.487
517.9991, 1842.629
518.4813, 1919.691
518.9634, 2010.260
519.4455, 2113.657
519.9276, 2231.706
520.4097, 2365.811
520.8918, 2513.760
521.3740, 2675.108
521.8561, 2847.046
522.3382, 3041.708
522.8203, 3267.854
523.3024, 3523.275
523.7845, 3804.518
524.2667, 4114.924
524.7488, 4445.058
525.2309, 4789.582
525.7130, 5152.854
526.1951, 5541.663
526.6772, 5962.965
527.1594, 6412.794
527.6415, 6890.496
528.1236, 7389.836
528.6057, 7896.247
529.0878, 8403.449
529.5699, 8908.113
530.0521, 9395.462
530.5342, 9861.461
531.0163, 10340.97
531.4984, 10869.51
531.9805, 11411.66
532.4626, 11932.05
532.9448, 12406.90
533.4269, 12882.40
533.9090, 13367.66
534.3911, 13857.66
534.8732, 14322.22
535.3553, 14796.96
535.8375, 15189.75
536.3196, 15464.01
536.8017, 15623.86
537.2838, 15667.35
537.7659, 15603.81
538.2480, 15393.19
538.7302, 14982.43
539.2123, 14378.14
539.6944, 13639.82
540.1765, 12748.74
540.6586, 11786.98
541.1407, 10805.32
541.6229, 9821.982
542.1050, 8887.176
542.5871, 8012.245
543.0692, 7206.686
543.5513, 6493.533
544.0334, 5879.528
544.5156, 5324.792
544.9977, 4818.748
545.4798, 4359.949
545.9619, 3953.665
546.4440, 3612.481
546.9261, 3305.943
547.4083, 3029.836
547.8904, 2785.565
548.3725, 2581.111
548.8546, 2433.042
549.3367, 2295.213
549.8188, 2156.115
550.3010, 2016.892
550.7831, 1891.235
551.2652, 1780.144
551.7473, 1678.904
552.2294, 1585.048
552.7115, 1498.448
553.1937, 1422.993
553.6758, 1359.778
554.1579, 1304.441
554.6400, 1253.508
555.1221, 1206.079
555.6042, 1160.634
556.0864, 1117.275
556.5685, 1074.232
557.0506, 1026.946
557.5327, 977.8879
558.0148, 937.1069
558.4969, 917.3367
558.9791, 901.3420
559.4612, 878.3871
559.9433, 845.9346
560.4254, 814.4116
560.9075, 781.4854
561.3896, 752.8853
561.8718, 733.5463
562.3539, 732.5776
562.8360, 724.9684
563.3181, 705.8301
563.8002, 680.5171
564.2823, 661.9990
564.7645, 651.7705
565.2466, 642.2895
565.7287, 630.4484
566.2108, 616.9774
566.6929, 605.6782
567.1750, 596.6810
567.6572, 588.9653
568.1393, 582.0806
568.6214, 575.9374
569.1035, 570.9272
569.5856, 567.4468
570.0677, 563.5038
570.5499, 556.5073
571.0320, 548.0969
571.5141, 540.8229
571.9962, 536.3049
572.4783, 532.4147
572.9604, 528.6145
573.4426, 524.8584
573.9247, 520.8766
574.4068, 515.9429
574.8889, 511.4700
575.3710, 508.6247
575.8531, 508.4296
576.3353, 504.3446
576.8174, 494.5547
577.2995, 483.6246
577.7816, 475.4412
578.2637, 470.0976
578.7458, 467.3974
579.2280, 467.9769
579.7101, 469.9706
580.1922, 471.5574
580.6743, 472.1951
581.1564, 468.8240
581.6385, 456.3350
582.1207, 441.0011
582.6028, 430.1936
583.0849, 423.9425
583.5670, 421.6743
584.0491, 426.2774
584.5313, 432.6979
585.0134, 436.9214
585.4955, 437.6693
585.9776, 438.3970
586.4597, 440.0086
586.9418, 442.0240
587.4240, 443.9879
587.9061, 447.6951
588.3882, 448.3597
588.8703, 443.5734
589.3524, 435.9314
589.8345, 433.4638
590.3167, 437.2731
590.7988, 442.0604
591.2809, 445.4789
591.7630, 447.9323
592.2451, 450.9588
592.7272, 454.5153
593.2094, 459.7051
593.6915, 470.7065
594.1736, 483.3347
594.6557, 487.5309
595.1378, 478.9966
595.6199, 473.1909
596.1021, 484.4763
596.5842, 505.0746
597.0663, 523.9690
597.5485, 537.3091
598.0306, 548.2778
598.5127, 554.9601
598.9948, 559.2808
599.4769, 569.6258
599.9590, 590.1543
600.4412, 612.3323
600.9233, 633.0900
601.4054, 652.2870
601.8875, 673.7945
602.3696, 697.6604
602.8517, 723.3981
603.3339, 750.4343
603.8160, 778.8497
604.2981, 807.1249
604.7802, 835.0222
605.2623, 862.1249
605.7444, 885.6005
606.2266, 907.5859
606.7087, 932.7134
607.1908, 965.7401
607.6729, 999.9955
608.1550, 1030.424
608.6371, 1057.812
609.1193, 1085.777
609.6014, 1119.217
610.0835, 1150.395
610.5656, 1173.941
611.0477, 1188.378
611.5298, 1204.976
612.0120, 1229.094
612.4941, 1250.405
612.9762, 1261.831
613.4583, 1261.946
613.9404, 1257.574
614.4225, 1249.533
614.9047, 1235.973
615.3868, 1213.879
615.8689, 1183.267
616.3510, 1146.658
616.8331, 1103.749
617.3152, 1056.723
617.7974, 1006.548
618.2795, 954.5283
618.7616, 903.1512
619.2437, 850.1208
619.7258, 801.2979
620.2079, 761.5146
620.6901, 731.1680
621.1722, 703.5586
621.6543, 675.6984
622.1364, 650.1904
622.6185, 629.0521
623.1006, 612.4810
623.5828, 599.7602
624.0649, 592.6011
624.5470, 587.7232
625.0291, 580.7399
625.5112, 570.7561
625.9933, 563.8823
626.4755, 562.4177
626.9576, 563.1251
627.4397, 557.9308
627.9218, 547.8268
628.4039, 540.3846
628.8860, 541.9228
629.3682, 546.9127
629.8503, 547.2687
630.3324, 543.6428
630.8145, 541.1563
631.2966, 544.4927
631.7787, 548.8736
632.2609, 550.8948
632.7430, 549.6787
633.2251, 547.8331
633.7072, 542.7686
634.1893, 539.2276
634.6714, 541.4507
635.1536, 552.6289
635.6357, 563.0666
636.1178, 573.4722
636.5999, 581.2491
637.0820, 578.2839
637.5641, 563.8926
638.0463, 556.7649
638.5284, 566.3669
639.0105, 583.9105
639.4926, 590.6700
639.9747, 588.5990
640.4568, 588.8077
640.9390, 599.4896
641.4211, 614.6603
641.9032, 630.2571
642.3853, 645.9090
642.8674, 658.2198
643.3495, 660.4720
643.8317, 662.4569
644.3138, 671.4243
644.7959, 693.5598
645.2780, 712.1134
645.7601, 724.3607
646.2422, 735.3489
646.7244, 750.9404
647.2065, 771.2294
647.6886, 795.2325
648.1707, 823.2914
648.6528, 853.8823
649.1349, 884.3145
649.6171, 914.7063
650.0992, 946.7011
650.5813, 977.5236
651.0634, 1012.567
651.5455, 1062.663
652.0276, 1125.144
652.5098, 1183.267
652.9919, 1222.611
653.4740, 1259.199
653.9561, 1300.635
654.4382, 1346.418
654.9203, 1405.337
655.4025, 1490.931
655.8846, 1579.902
656.3667, 1653.080
656.8488, 1697.449
657.3309, 1768.703
657.8130, 1876.605
658.2952, 1998.267
658.7773, 2098.165
659.2594, 2179.560
659.7415, 2271.847
660.2236, 2385.074
660.7057, 2509.427
661.1879, 2632.752
661.6700, 2755.039
662.1521, 2874.826
662.6342, 2989.874
663.1163, 3103.521
663.5984, 3217.689
664.0806, 3332.329
664.5627, 3447.007
665.0448, 3565.548
665.5269, 3678.799
666.0090, 3780.432
666.4911, 3866.502
666.9733, 3966.406
667.4554, 4088.863
667.9375, 4207.862
668.4196, 4304.372
668.9017, 4378.735
669.3839, 4431.689
669.8660, 4461.828
670.3481, 4477.261
670.8302, 4491.488
671.3123, 4497.578
671.7944, 4481.520
672.2766, 4444.135
672.7587, 4375.194
673.2408, 4255.584
673.7229, 4101.034
674.2050, 3940.116
674.6871, 3790.852
675.1693, 3624.955
675.6514, 3426.046
676.1335, 3200.300
676.6156, 2982.014
677.0977, 2770.749
677.5798, 2569.021
678.0620, 2381.130
678.5441, 2204.920
679.0262, 2032.289
679.5083, 1860.982
679.9904, 1706.806
680.4725, 1587.094
680.9547, 1491.588
681.4368, 1401.634
681.9189, 1315.985
682.4010, 1235.507
682.8831, 1162.196
683.3652, 1094.493
683.8474, 1031.675
684.3295, 972.2025
684.8116, 919.7590
685.2937, 876.0981
685.7758, 839.0784
686.2579, 807.4780
686.7401, 783.2285
687.2222, 759.1574
687.7043, 733.6308
688.1864, 708.1655
688.6685, 687.6130
689.1506, 671.5932
689.6328, 653.9676
690.1149, 629.0854
690.5970, 602.6711
691.0791, 582.9475
691.5612, 569.2556
692.0433, 558.7218
692.5255, 550.1246
693.0076, 543.5914
693.4897, 540.5934
693.9718, 541.7748
694.4539, 538.9785
694.9360, 525.2396
695.4182, 512.7358
695.9003, 508.9843
696.3824, 517.4750
696.8645, 519.4133
697.3466, 513.0622
697.8287, 504.7163
698.3109, 500.6672
698.7930, 500.4887
699.2751, 502.6236
699.7572, 507.6056
700.2393, 511.8143
700.7214, 509.7368
701.2036, 504.6394
701.6857, 501.9572
702.1678, 503.9130
702.6499, 508.2759
703.1320, 515.4972
703.6141, 524.5032
704.0963, 532.6956
704.5784, 540.7172
705.0605, 546.6038
705.5426, 548.1511
706.0247, 547.3935
706.5068, 554.2658
706.9890, 569.6390
707.4711, 585.5784
707.9532, 598.5664
708.4353, 608.9362
708.9174, 615.4414
709.3995, 618.6852
709.8817, 624.4282
710.3638, 638.6394
710.8459, 655.7531
711.3280, 669.7366
711.8101, 679.3112
712.2922, 692.9403
712.7744, 713.8284
713.2565, 739.2115
713.7386, 767.1569
714.2207, 797.4717
714.7028, 832.0443
715.1849, 874.2700
715.6671, 915.4313
716.1492, 943.1981
716.6313, 959.0872
717.1134, 984.5319
717.5955, 1023.538
718.0776, 1071.088
718.5598, 1123.434
719.0419, 1179.068
719.5240, 1234.720
720.0061, 1286.535
720.4882, 1342.037
720.9703, 1405.542
721.4525, 1475.619
721.9346, 1549.120
722.4167, 1618.189
722.8988, 1701.785
723.3809, 1804.902
723.8630, 1925.116
724.3452, 2052.260
724.8273, 2185.102
725.3094, 2330.297
725.7915, 2493.304
726.2736, 2668.783
726.7557, 2836.387
727.2379, 2999.464
727.7200, 3184.367
728.2021, 3425.009
728.6842, 3681.813
729.1663, 3919.706
729.6484, 4133.685
730.1306, 4368.862
730.6127, 4661.319
731.0948, 4959.313
731.5769, 5234.529
732.0590, 5482.811
732.5411, 5735.955
733.0233, 5994.932
733.5054, 6256.592
733.9875, 6519.040
734.4696, 6783.010
734.9517, 7048.329
735.4338, 7319.263
735.9160, 7574.739
736.3981, 7799.444
736.8802, 7992.944
737.3623, 8155.324
737.8444, 8290.839
738.3266, 8387.277
738.8087, 8456.121
739.2908, 8478.499
739.7729, 8425.977
740.2551, 8295.842
740.7372, 8101.025
741.2193, 7842.017
741.7014, 7519.883
742.1835, 7116.422
742.6656, 6632.262
743.1478, 6156.851
743.6299, 5716.385
744.1120, 5298.113
744.5941, 4875.861
745.0762, 4459.851
745.5583, 4067.978
746.0405, 3711.024
746.5226, 3383.929
747.0047, 3090.140
747.4868, 2827.226
747.9689, 2589.617
748.4510, 2379.887
748.9332, 2193.489
749.4153, 2030.740
749.8974, 1891.537
750.3795, 1767.467
750.8616, 1659.654
751.3438, 1561.521
751.8259, 1469.120
752.3080, 1383.921
752.7901, 1307.770
753.2722, 1240.882
753.7543, 1179.808
754.2365, 1120.067
754.7186, 1066.597
755.2007, 1026.877
755.6828, 1004.358
756.1649, 977.0057
756.6470, 934.4124
757.1292, 891.4984
757.6113, 856.9272
758.0934, 831.8790
758.5755, 810.1784
759.0576, 791.7839
759.5397, 776.2183
760.0219, 765.1551
760.5040, 756.4844
760.9861, 743.4793
761.4682, 724.7838
761.9503, 704.1648
762.4324, 681.5004
762.9146, 659.7816
763.3967, 642.4951
763.8788, 632.2142
764.3609, 623.6360
764.8430, 615.8413
765.3251, 609.4800
765.8073, 606.8132
766.2894, 611.0474
766.7715, 604.6820
767.2536, 581.3082
767.7357, 553.9674
768.2178, 547.2994
768.7000, 556.5724
769.1821, 561.9261
769.6642, 554.9083
770.1463, 545.0079
770.6284, 540.1220
771.1105, 538.2847
771.5927, 535.6955
772.0748, 531.5709
772.5569, 526.0392
773.0390, 517.9252
773.5211, 508.7073
774.0032, 502.3342
774.4854, 499.3820
774.9675, 497.3179
775.4496, 496.1627
775.9317, 494.7321
776.4138, 488.3405
776.8959, 478.2434
777.3781, 470.9497
777.8602, 472.9368
778.3423, 476.7271
778.8244, 476.1862
779.3065, 471.9832
779.7886, 467.3037
780.2708, 461.8707
780.7529, 457.4396
781.2350, 454.5028
781.7171, 452.9875
782.1992, 452.8061
782.6813, 454.7820
783.1635, 454.7813
783.6456, 449.0511
784.1277, 439.9745
784.6098, 436.0120
785.0919, 436.6612
785.5740, 436.7566
786.0562, 431.8959
786.5383, 425.8115
787.0204, 422.2159
787.5025, 421.2661
787.9846, 418.4861
788.4667, 408.9378
788.9489, 401.1762
789.4310, 399.7811
789.9131, 405.3273
790.3952, 405.9877
790.8773, 400.8338
791.3594, 395.0998
791.8416, 392.2853
792.3237, 391.9778
792.8058, 394.2897
793.2879, 399.1537
793.7700, 402.0074
794.2521, 398.1102
794.7343, 391.9355
795.2164, 386.9222
795.6985, 383.4556
796.1806, 381.2369
796.6627, 380.8365
797.1448, 380.8738
797.6270, 380.7834
798.1091, 380.7535
798.5912, 378.0868
799.0733, 371.9311
799.5554, 367.5584
800.0375, 373.0409
800.5197, 383.1741
801.0018, 387.0203
801.4839, 382.2859
801.9660, 378.1171
802.4481, 380.7174
802.9302, 385.9016
803.4124, 390.1962
803.8945, 392.7109
804.3766, 395.2515
804.8587, 397.9577
805.3408, 400.5022
805.8229, 402.7858
806.3051, 404.8028
806.7872, 405.2613
807.2693, 403.7708
807.7514, 402.4527
808.2335, 402.8570
808.7156, 405.0762
809.1978, 409.9646
809.6799, 419.1241
810.1620, 426.1136
810.6441, 426.8372
811.1262, 424.8974
811.6083, 423.9242
812.0905, 425.3287
812.5726, 424.3506
813.0547, 419.7452
813.5368, 414.9960
814.0189, 416.7816
814.5010, 423.0460
814.9832, 419.9268
815.4653, 403.3188
815.9474, 386.4814
816.4295, 383.5497
816.9116, 386.6991
817.3937, 386.2171
817.8759, 378.6799
818.3580, 369.5070
818.8401, 357.0602
819.3222, 345.3403
819.8043, 338.6054
820.2864, 338.1994
820.7686, 336.5927
821.2507, 333.0512
821.7328, 328.4620
822.2149, 324.0086
822.6970, 319.4745
823.1791, 314.1791
823.6613, 307.9214
824.1434, 301.2119
824.6255, 294.3947
825.1076, 287.3597
825.5897, 280.1000
826.0718, 272.3337
826.5540, 264.5049
827.0361, 255.8367
827.5182, 247.8665
828.0003, 242.9747
828.4824, 241.1490
828.9645, 237.7142
829.4467, 231.7695
829.9288, 225.0928
830.4109, 219.4827
830.8930, 214.5750
831.3751, 209.7719
831.8572, 205.0529
832.3394, 200.2283
832.8215, 193.8235
833.3036, 188.0529
833.7857, 185.7926
834.2678, 189.9337
834.7499, 188.3092
835.2321, 178.0919
835.7142, 166.8924
836.1963, 165.8307
836.6784, 172.0839
837.1605, 175.3772
837.6426, 173.5267
838.1248, 169.4816
838.6069, 163.7475
839.0890, 157.9104
839.5711, 153.7645
840.0532, 151.7135
840.5353, 151.5843
841.0175, 155.0954
841.4996, 158.6181
841.9817, 157.3489
842.4638, 150.9382
842.9459, 149.4269
843.4280, 154.6695
843.9102, 160.1099
844.3923, 157.7200
844.8744, 150.9574
845.3565, 145.0031
845.8386, 140.4578
846.3207, 138.2697
846.8029, 139.6411
847.2850, 143.0819
847.7671, 147.5626
848.2492, 154.5868
848.7313, 158.3040
849.2134, 158.1460
849.6956, 156.0508
850.1777, 153.6060
850.6598, 150.8122
851.1419, 147.4992
851.6240, 143.5602
852.1061, 139.8911
852.5883, 136.0110
853.0704, 133.3863
853.5525, 133.7663
854.0346, 138.9059
854.5167, 142.3545
854.9988, 143.2911
855.4810, 143.0954
855.9631, 142.8869
856.4452, 142.6808
856.9273, 140.2364
857.4094, 135.2742
857.8915, 131.2818
858.3737, 132.5334
858.8558, 135.9961
859.3379, 138.0780
859.8200, 138.3250
860.3021, 137.3763
860.7842, 133.3316
861.2664, 130.0681
861.7485, 130.1782
862.2306, 134.1810
862.7127, 136.0505
863.1948, 135.3727
863.6769, 134.4498
864.1591, 135.3762
864.6412, 137.1701
865.1233, 137.3115
865.6054, 135.8370
866.0875, 134.3071
866.5696, 134.0378
867.0518, 133.6759
867.5339, 131.7821
868.0160, 128.1663
868.4981, 127.3368
868.9802, 131.3926
869.4623, 133.6881
869.9445, 129.3615
870.4266, 120.8122
870.9087, 120.5535
871.3908, 127.7962
871.8729, 134.1687
872.3550, 135.1868
872.8372, 132.7412
873.3193, 126.1157
873.8014, 116.5862
874.2835, 111.0370
874.7656, 113.9797
875.2477, 117.7526
875.7299, 121.0862
876.2120, 123.6925
876.6941, 124.3101
877.1762, 122.9453
877.6583, 120.9630
878.1404, 118.3410
878.6226, 116.0719
879.1047, 115.3261
879.5869, 115.9988
880.0690, 117.7947
880.5511, 124.1418
881.0332, 127.4607
881.5153, 123.3089
881.9974, 115.4362
882.4796, 111.0200
882.9617, 110.2858
883.4438, 112.2824
883.9259, 117.9626
884.4080, 123.8395
884.8901, 123.5890
885.3723, 119.2262
885.8544, 115.3839
886.3365, 113.5035
886.8186, 112.7515
887.3007, 113.7315
887.7828, 115.2537
888.2650, 115.6267
888.7471, 114.3964
889.2292, 113.2380
889.7113, 112.4192
890.1934, 111.3963
890.6755, 108.4987
891.1577, 104.7837
891.6398, 103.9323
892.1219, 107.1633
892.6040, 110.5469
893.0861, 111.5342
893.5682, 111.2516
894.0504, 110.5615
894.5325, 108.8710
895.0146, 109.0046
895.4967, 112.4226
895.9788, 114.9708
896.4609, 111.8051
896.9431, 104.1989
897.4252, 100.0486
897.9073, 99.79562
898.3894, 101.8011
898.8715, 107.5417
899.3536, 113.0493
899.8358, 114.1878
900.3179, 110.0993
900.8000, 108.1389
901.2821, 110.4688
901.7642, 112.9403
902.2463, 113.9729
902.7285, 113.5684
903.2106, 111.0363
903.6927, 106.5077
904.1748, 103.1278
904.6569, 103.0712
905.1390, 104.8867
905.6212, 108.3641
906.1033, 112.7048
906.5854, 114.8743
907.0675, 112.3047
907.5496, 109.4110
908.0317, 107.2881
908.5139, 105.5573
908.9960, 102.4663
909.4781, 98.01879
909.9602, 95.46226
910.4423, 96.74437
910.9244, 99.17769
911.4066, 99.18322
911.8887, 98.04417
912.3708, 98.13011
912.8529, 102.4893
913.3350, 105.2182
913.8171, 104.5416
914.2993, 102.2945
914.7814, 100.6103
915.2635, 99.45983
915.7456, 99.33236
916.2277, 100.3767
916.7098, 102.1156
917.1920, 105.2129
917.6741, 108.1626
918.1562, 108.1122
918.6383, 103.1350
919.1204, 100.0984
919.6025, 103.9044
920.0847, 108.0340
920.5668, 107.6127
921.0489, 101.5736
921.5310, 98.89278
922.0131, 99.87599
922.4952, 101.6890
922.9774, 101.7708
923.4595, 101.3612
923.9416, 102.3111
924.4237, 104.6858
924.9058, 107.6170
925.3879, 112.7229
925.8701, 116.2221
926.3522, 115.9765
926.8343, 112.5990
927.3164, 111.0564
927.7985, 111.4538
928.2806, 112.7228
928.7628, 115.3451
929.2449, 117.6220
929.7270, 115.6003
930.2091, 110.9973
930.6912, 108.4104
931.1733, 111.6037
931.6555, 114.9234
932.1376, 116.4064
932.6197, 117.0917
933.1018, 119.0219
933.5839, 122.5922
934.0660, 124.2189
934.5482, 122.7343
935.0303, 120.7889
935.5124, 122.3753
935.9945, 125.7559
936.4766, 127.8743
936.9587, 127.8263
937.4409, 127.1068
937.9230, 125.4732
938.4051, 123.8939
938.8872, 123.0938
939.3693, 123.1404
939.8514, 123.8500
940.3336, 125.3945
940.8157, 126.2596
941.2978, 124.2985
941.7799, 121.3055
942.2620, 119.5003
942.7441, 119.0835
943.2263, 120.4057
943.7084, 126.2224
944.1905, 131.0386
944.6726, 132.7036
945.1547, 131.5265
945.6368, 128.4860
946.1190, 123.3031
946.6011, 120.7658
947.0832, 124.5961
947.5653, 130.4757
948.0474, 133.6934
948.5295, 134.3741
949.0117, 132.8085
949.4938, 125.3451
949.9759, 120.5113
950.4580, 120.5724
950.9401, 123.4207
951.4222, 126.4859
951.9044, 129.8138
952.3865, 131.3710
952.8686, 130.6017
953.3507, 129.1259
953.8328, 129.0051
954.3149, 129.0471
954.7971, 127.3353
955.2792, 122.6056
955.7613, 119.8107
956.2434, 120.8020
956.7255, 122.5428
957.2076, 123.3694
957.6898, 123.2968
958.1719, 122.2453
958.6540, 120.2452
959.1361, 119.8595
959.6182, 125.6131
960.1003, 131.6187
960.5825, 131.4509
961.0646, 126.1339
961.5467, 122.8082
962.0288, 124.2683
962.5109, 125.4901
962.9930, 124.9553
963.4752, 123.7557
963.9573, 125.0641
964.4394, 128.4171
964.9215, 131.1292
965.4036, 132.6467
965.8857, 132.5549
966.3679, 129.1737
966.8500, 124.5655
967.3321, 121.4245
967.8142, 120.8758
968.2963, 120.4704
968.7784, 120.0742
969.2606, 120.0810
969.7427, 121.3009
970.2248, 123.2731
970.7069, 124.0736
971.1890, 123.5725
971.6711, 123.4002
972.1533, 125.4180
972.6354, 127.4626
973.1175, 127.9764
973.5996, 126.9283
974.0817, 125.5487
974.5638, 123.3624
975.0460, 122.6588
975.5281, 125.2534
976.0102, 129.1268
976.4923, 129.9894
976.9744, 128.4973
977.4565, 126.5782
977.9387, 124.0455
978.4208, 122.4313
978.9029, 122.8531
979.3850, 124.2417
979.8671, 124.9783
980.3492, 124.6940
980.8314, 126.6684
981.3135, 132.0567
981.7956, 136.1298
982.2777, 130.6444
982.7598, 121.9507
983.2419, 120.0258
983.7241, 127.2591
984.2062, 133.2892
984.6883, 133.5152
985.1704, 133.4741
985.6525, 136.5950
986.1346, 142.1134
986.6168, 140.7643
987.0989, 132.7617
987.5810, 124.8166
988.0631, 119.8523
988.5452, 117.4820
989.0273, 119.0757
989.5095, 122.9418
989.9916, 124.6740
990.4737, 119.9123
990.9558, 119.0050
991.4379, 125.1749
991.9200, 132.7970
992.4022, 131.2630
992.8843, 123.1282
993.3664, 120.2003
993.8485, 125.5145
994.3306, 130.7654
994.8127, 129.7345
995.2949, 126.4485
995.7770, 124.3241
996.2591, 123.7610
996.7412, 122.7943
997.2233, 121.0759
997.7054, 120.2518
998.1876, 121.7788
998.6697, 124.7195
999.1518, 127.5028
999.6339, 129.9580
1000.116, 131.4592
1000.598, 130.2945
1001.080, 129.8405
1001.562, 132.9910
1002.044, 136.7966
1002.527, 134.4535
1003.009, 125.1996
1003.491, 122.0281
1003.973, 128.5801
1004.455, 136.4335
1004.937, 135.5097
1005.419, 130.6790
1005.901, 127.9772
1006.384, 128.8489
1006.866, 130.3905
1007.348, 133.2895
1007.830, 135.1204
1008.312, 133.9673
1008.794, 130.4981
1009.276, 128.9605
1009.758, 129.0857
1010.240, 128.5864
1010.723, 123.7234
1011.205, 120.1868
1011.687, 123.6609
1012.169, 131.0520
1012.651, 133.6197
1013.133, 128.9699
1013.615, 126.3326
1014.097, 127.6259
1014.580, 129.8882
1015.062, 127.7870
1015.544, 124.0107
1016.026, 124.4613
1016.508, 131.1564
1016.990, 136.4725
1017.472, 136.5778
1017.954, 135.0258
1018.436, 133.5439
1018.919, 132.1732
1019.401, 131.9718
1019.883, 132.9444
1020.365, 133.1939
1020.847, 130.6638
1021.329, 127.6889
1021.811, 125.9550
1022.293, 125.6524
1022.776, 127.3274
1023.258, 134.1374
1023.740, 137.6073
1024.222, 135.9314
1024.704, 132.2861
1025.186, 131.1527
1025.668, 131.7352
1026.150, 131.1123
1026.632, 128.7540
1027.115, 126.8594
1027.597, 126.6183
1028.079, 127.4427
1028.561, 129.3814
1029.043, 132.3079
1029.525, 134.0302
1030.007, 134.5349
1030.489, 133.6094
1030.972, 129.9226
1031.454, 126.1350
1031.936, 126.8461
1032.418, 130.1742
1032.900, 132.0741
1033.382, 130.4147
1033.864, 128.2658
1034.346, 125.1019
1034.828, 122.7246
1035.311, 124.0180
1035.793, 128.2600
1036.275, 130.3050
1036.757, 129.7449
1037.239, 129.1358
1037.721, 130.7069
1038.203, 132.5243
1038.685, 133.0217
1039.167, 132.3349
1039.650, 132.3334
1040.132, 133.0535
1040.614, 134.3762
1041.096, 136.4653
1041.578, 138.7425
1042.060, 140.6766
1042.542, 141.9853
1043.024, 142.1068
1043.507, 140.4369
1043.989, 138.3445
1044.471, 135.1860
1044.953, 132.6890
1045.435, 132.0642
1045.917, 133.2788
1046.399, 137.0701
1046.881, 143.2254
1047.364, 147.5417
1047.846, 146.0215
1048.328, 142.7574
1048.810, 140.0108
1049.292, 137.8785
1049.774, 136.0419
1050.256, 134.2687
1050.738, 133.7436
1051.220, 134.9829
1051.703, 136.7981
1052.185, 137.7395
1052.667, 137.9520
1053.149, 137.6662
1053.631, 136.9394
1054.113, 135.5952
1054.595, 131.0871
1055.077, 128.9775
1055.559, 133.8444
1056.042, 143.9083
1056.524, 146.0307
1057.006, 141.1254
1057.488, 136.6691
1057.970, 137.5190
1058.452, 139.2881
1058.934, 139.2635
1059.416, 138.2586
1059.899, 137.8707
1060.381, 138.3234
1060.863, 138.8379
1061.345, 139.4775
1061.827, 139.6343
1062.309, 137.7235
1062.791, 135.4023
1063.273, 135.9351
1063.755, 139.4672
1064.238, 140.9872
1064.720, 137.3354
1065.202, 133.7543
1065.684, 131.7782
1066.166, 130.9087
1066.648, 129.8865
1067.130, 128.7638
1067.612, 127.7492
1068.094, 127.0841
1068.577, 126.1174
1069.059, 123.4617
1069.541, 121.0068
1070.023, 120.9644
1070.505, 124.2469
1070.987, 123.7936
1071.469, 119.0815
1071.951, 115.6737
1072.434, 119.4616
1072.916, 125.1548
1073.398, 126.7694
1073.880, 124.9175
1074.362, 122.0998
1074.844, 117.5710
1075.326, 114.2540
1075.808, 112.7514
1076.291, 112.0971
1076.773, 110.6701
1077.255, 108.9910
1077.737, 108.4609
1078.219, 109.2641
1078.701, 111.4864
1079.183, 118.8649
1079.665, 123.7066
1080.147, 121.0735
1080.630, 112.7020
1081.112, 109.3821
1081.594, 110.9336
1082.076, 111.6160
1082.558, 108.1780
1083.040, 105.1629
1083.522, 108.4068
1084.004, 113.7524
1084.486, 115.2592
1084.969, 110.1120
1085.451, 107.8151
1085.933, 109.0374
1086.415, 110.6601
1086.897, 110.1096
1087.379, 108.4675
1087.861, 107.6817
1088.343, 107.5533
1088.826, 107.0577
1089.308, 103.7908
1089.790, 103.2962
1090.272, 108.3879
1090.754, 114.3739
1091.236, 112.7935
1091.718, 105.3945
1092.200, 100.3479
1092.682, 99.02649
1093.165, 98.14413
1093.647, 94.41444
1094.129, 91.65857
1094.611, 92.66744
1095.093, 96.87486
1095.575, 101.1280
1096.057, 105.5196
1096.539, 107.4114
1097.022, 104.8628
1097.504, 101.2829
1097.986, 99.63996
1098.468, 99.38203
1098.950, 99.81515
1099.432, 100.9080
1099.914, 102.6733
1100.396, 105.4081
1100.879, 107.7545
1101.361, 109.3687
1101.843, 109.6107
1102.325, 105.4573
1102.807, 98.51367
1103.289, 94.82616
1103.771, 99.86099
1104.253, 104.0617
1104.735, 105.7267
1105.218, 105.9681
1105.700, 106.3362
1106.182, 106.6477
1106.664, 105.8648
1107.146, 103.8499
1107.628, 101.6383
1108.110, 98.79689
1108.592, 97.03124
1109.074, 98.42357
1109.557, 101.6296
1110.039, 100.3583
1110.521, 94.51508
1111.003, 91.25732
1111.485, 93.50361
1111.967, 96.51167
1112.449, 94.84827
1112.931, 92.03127
1113.414, 92.63529
1113.896, 98.53949
1114.378, 99.18677
1114.860, 93.11193
1115.342, 88.22249
1115.824, 90.10978
1116.306, 94.90931
1116.788, 96.94407
1117.271, 96.99564
1117.753, 96.82838
1118.235, 97.43224
1118.717, 97.02710
1119.199, 95.22591
1119.681, 92.95730
1120.163, 90.57792
1120.645, 88.55277
1121.127, 88.55087
1121.609, 90.46974
1122.092, 92.69081
1122.574, 95.33769
1123.056, 96.96272
1123.538, 97.06251
1124.020, 96.01243
1124.502, 93.77859
1124.984, 90.72132
1125.466, 90.32816
1125.949, 93.51332
1126.431, 96.88377
1126.913, 98.53610
1127.395, 99.07055
1127.877, 98.18245
1128.359, 96.30376
1128.841, 97.43143
1129.323, 101.8252
1129.806, 104.6022
1130.288, 103.8520
1130.770, 101.0925
1131.252, 95.76965
1131.734, 90.34576
1132.216, 88.39246
1132.698, 91.29057
1133.180, 94.17807
1133.662, 97.42941
1134.145, 98.98530
1134.627, 95.77129
1135.109, 91.23536
1135.591, 91.15860
1136.073, 94.18795
1136.555, 96.89780
1137.037, 98.29337
1137.519, 99.29530
1138.001, 99.78590
1138.484, 100.2597
1138.966, 101.8658
1139.448, 103.6791
1139.930, 102.7661
1140.412, 99.34798
1140.894, 96.87538
1141.376, 97.45267
1141.858, 98.33129
1142.341, 99.00233
1142.823, 99.31340
1143.305, 98.61896
1143.787, 97.26145
1144.269, 97.03510
1144.751, 98.38543
1145.233, 99.20433
1145.715, 97.62309
1146.198, 95.80929
1146.680, 94.62325
1147.162, 94.22070
1147.644, 96.45526
1148.126, 100.9469
1148.608, 102.1447
1149.090, 97.03023
1149.572, 91.60345
1150.054, 88.97225
1150.536, 89.26428
1151.019, 93.89194
1151.501, 103.5116
1151.983, 105.6443
1152.465, 100.0117
1152.947, 94.18626
1153.429, 91.85063
1153.911, 91.60412
1154.393, 93.35738
1154.876, 95.92544
1155.358, 97.03429
1155.840, 95.49884
1156.322, 95.92370
1156.804, 98.69072
1157.286, 101.7785
1157.768, 104.5160
1158.250, 105.9676
1158.733, 104.3115
1159.215, 100.2494
1159.697, 96.32024
1160.179, 91.81815
1160.661, 89.98238
1161.143, 91.58620
1161.625, 94.81879
1162.107, 98.96647
1162.589, 102.7014
1163.072, 103.1191
1163.554, 100.2596
1164.036, 98.09582
1164.518, 97.10475
1165.000, 98.04610
1165.482, 102.1636
1165.964, 106.6411
1166.446, 104.8969
1166.928, 99.85676
1167.411, 98.85203
1167.893, 104.1069
1168.375, 106.8031
1168.857, 100.5884
1169.339, 95.81361
1169.821, 97.40300
1170.303, 102.4739
1170.785, 102.1822
1171.268, 98.08518
1171.750, 95.26196
1172.232, 95.46719
1172.714, 96.76334
1173.196, 101.0720
1173.678, 103.4528
1174.160, 99.45213
1174.642, 90.64262
1175.125, 88.18703
1175.607, 91.16737
1176.089, 94.67585
1176.571, 97.08767
1177.053, 98.62025
1177.535, 99.02528
1178.017, 98.81544
1178.499, 98.00928
1178.981, 96.63161
1179.464, 98.13663
1179.946, 102.2969
1180.428, 104.9962
1180.910, 101.2928
1181.392, 98.00951
1181.874, 99.73833
1182.356, 103.7383
1182.838, 105.9035
1183.320, 106.2031
1183.803, 106.0929
1184.285, 105.6937
1184.767, 104.5238
1185.249, 99.52786
1185.731, 96.18413
1186.213, 100.9801
1186.695, 110.0998
1187.177, 112.3145
1187.660, 107.1059
1188.142, 102.7212
1188.624, 100.4523
1189.106, 99.73057
1189.588, 101.3071
1190.070, 103.2078
1190.552, 103.7642
1191.034, 103.0721
1191.516, 102.3041
1191.999, 101.4061
1192.481, 101.0505
1192.963, 101.5979
1193.445, 101.9825
1193.927, 100.1329
1194.409, 98.26460
1194.891, 99.25493
1195.373, 103.3373
1195.855, 105.0088
1196.338, 104.0231
1196.820, 102.7749
1197.302, 101.9751
1197.784, 101.7671
1198.266, 103.3788
1198.748, 105.1182
1199.230, 104.4131
1199.712, 100.4165
1200.195, 98.21198
1200.677, 97.93602
1201.159, 98.52007
1201.641, 99.58305
1202.123, 100.9794
1202.605, 103.7384
1203.087, 106.2732
1203.569, 105.6012
1204.052, 99.34653
1204.534, 96.72523
1205.016, 98.22572
1205.498, 100.3159
1205.980, 100.4462
1206.462, 99.94484
1206.944, 100.3956
1207.426, 101.4049
1207.908, 102.0570
1208.391, 102.3435
1208.873, 101.9518
1209.355, 100.6962
1209.837, 99.67402
1210.319, 100.3188
1210.801, 101.3227
1211.283, 100.7308
1211.765, 99.17397
1212.247, 99.05199
1212.730, 100.7002
1213.212, 103.6783
1213.694, 108.6183
1214.176, 111.5467
1214.658, 106.2320
1215.140, 98.55193
1215.622, 95.15952
1216.104, 95.82291
1216.587, 96.93083
1217.069, 98.57060
1217.551, 99.12334
1218.033, 98.06126
1218.515, 97.00985
1218.997, 98.37369
1219.479, 100.3444
1219.961, 100.5101
1220.443, 98.89848
1220.926, 98.66094
1221.408, 100.1126
1221.890, 102.3120
1222.372, 105.4104
1222.854, 107.8840
1223.336, 106.4533
1223.818, 104.3000
1224.300, 106.1783
1224.782, 112.7307
1225.265, 113.7032
1225.747, 107.5692
1226.229, 103.3665
1226.711, 104.5945
1227.193, 106.8397
1227.675, 103.8668
1228.157, 99.37284
1228.639, 98.24848
1229.122, 101.4392
1229.604, 102.0725
1230.086, 99.57838
1230.568, 98.45042
1231.050, 100.9266
1231.532, 104.4340
1232.014, 106.8196
1232.496, 108.0443
1232.979, 107.7522
1233.461, 105.7140
1233.943, 104.5570
1234.425, 104.2626
1234.907, 105.2432
1235.389, 108.5974
1235.871, 111.8519
1236.353, 112.5334
1236.835, 111.7098
1237.318, 110.5213
1237.800, 108.8606
1238.282, 108.8670
1238.764, 110.6730
1239.246, 111.3640
1239.728, 108.1093
1240.210, 104.6173
1240.692, 103.1305
1241.175, 103.8922
1241.657, 107.8854
1242.139, 116.3657
1242.621, 118.7863
1243.103, 115.1164
1243.585, 110.9757
1244.067, 108.9388
1244.549, 108.5158
1245.031, 110.6612
1245.514, 113.5064
1245.996, 114.0938
1246.478, 112.0536
1246.960, 112.8883
1247.442, 116.5466
1247.924, 120.1815
1248.406, 122.5661
1248.888, 123.6941
1249.370, 122.6544
1249.853, 120.8802
1250.335, 120.4618
1250.817, 121.3244
1251.299, 120.6374
1251.781, 118.3938
1252.263, 116.3099
1252.745, 115.1197
1253.227, 114.7469
1253.710, 116.1472
1254.192, 117.5431
1254.674, 115.7011
1255.156, 111.4553
1255.638, 111.4610
1256.120, 115.7570
1256.602, 119.9028
1257.084, 121.3605
1257.567, 122.3169
1258.049, 123.1389
1258.531, 124.2718
1259.013, 127.2148
1259.495, 130.9680
1259.977, 131.4464
1260.459, 128.6003
1260.941, 125.5208
1261.423, 123.9460
1261.906, 121.6459
1262.388, 117.3277
1262.870, 113.3974
1263.352, 114.3373
1263.834, 118.0603
1264.316, 119.2186
1264.798, 117.6566
1265.280, 118.0443
1265.762, 126.3000
1266.245, 128.3507
1266.727, 119.5488
1267.209, 108.6579
1267.691, 107.7283
1268.173, 112.9017
1268.655, 119.2227
1269.137, 125.9439
1269.619, 128.8470
1270.102, 126.3431
1270.584, 123.7435
1271.066, 121.9671
1271.548, 121.0687
1272.030, 121.3744
1272.512, 122.4634
1272.994, 124.1880
1273.476, 126.3916
1273.958, 127.7388
1274.441, 128.1428
1274.923, 127.8543
1275.405, 126.7966
1275.887, 125.6557
1276.369, 124.6202
1276.851, 124.2545
1277.333, 125.6578
1277.815, 128.4053
1278.297, 129.4174
1278.780, 128.5176
1279.262, 130.4232
1279.744, 137.0710
1280.226, 141.1591
1280.708, 132.7085
1281.190, 123.2356
1281.672, 121.4450
1282.154, 125.4107
1282.637, 129.1814
1283.119, 132.5997
1283.601, 133.9226
1284.083, 132.6543
1284.565, 130.4315
1285.047, 126.5176
1285.529, 123.9532
1286.011, 124.5557
1286.494, 127.1276
1286.976, 128.0564
1287.458, 128.0272
1287.940, 129.9952
1288.422, 135.0930
1288.904, 137.6250
1289.386, 133.4421
1289.868, 128.8213
1290.350, 125.2679
1290.833, 123.1729
1291.315, 124.9728
1291.797, 128.3301
1292.279, 127.8211
1292.761, 121.6834
1293.243, 119.2094
1293.725, 122.9227
1294.207, 126.1616
1294.689, 126.9908
1295.172, 125.7984
1295.654, 121.0098
1296.136, 115.7371
1296.618, 114.2462
1297.100, 117.5559
1297.582, 122.2184
1298.064, 128.9419
1298.546, 132.4222
1299.029, 130.4860
1299.511, 126.4221
1299.993, 121.1629
1300.475, 117.3551
1300.957, 119.3254
1301.439, 125.7338
1301.921, 127.8791
1302.403, 125.8709
1302.885, 122.4815
1303.368, 117.7049
1303.850, 115.0486
1304.332, 119.8720
1304.814, 124.6201
1305.296, 123.9146
1305.778, 119.8743
1306.260, 120.6257
1306.742, 124.8496
1307.224, 127.1802
1307.707, 126.0365
1308.189, 124.4479
1308.671, 123.3266
1309.153, 122.4036
1309.635, 121.7017
##END=



