##NAMES=Triphylite
##RRUFFID=R050624
##IDEAL CHEMISTRY=LiFe^2+^PO_4_
##LOCALITY=Minas Gerais, Brazil
##OWNER=RRUFF
##SOURCE=Gemological Center
##DESCRIPTION=Brown fragment
##STATUS=The identification of this mineral has been confirmed by X-ray diffraction and chemical analysis
##URL=rruff.info/R050624
##MEASURED CHEMISTRY=Li_1.00_(Fe^2+^_0.55_Mn^2+^_0.45_)_Î£=1_P_1.00_O_4_ ; Li not measured, but estimated by difference
91.11523, 22.76855
91.59735, 23.39395
92.07947, 22.93369
92.56158, 21.68430
93.04370, 20.57661
93.52582, 20.15215
94.00793, 20.24054
94.49006, 20.55176
94.97218, 21.12513
95.45429, 21.75875
95.93641, 22.13716
96.41853, 22.26452
96.90064, 22.31317
97.38276, 22.35862
97.86488, 22.40692
98.34699, 22.54177
98.82911, 22.79983
99.31123, 23.13965
99.79334, 23.53258
100.2755, 24.07923
100.7576, 24.31726
101.2397, 23.47439
101.7218, 21.10154
102.2039, 19.84863
102.6861, 20.74318
103.1682, 23.75716
103.6503, 25.09207
104.1324, 24.00246
104.6145, 22.07247
105.0966, 21.17229
105.5788, 21.64456
106.0609, 22.60141
106.5430, 24.10486
107.0251, 26.75027
107.5072, 27.78192
107.9893, 25.88881
108.4715, 22.70930
108.9536, 21.19121
109.4357, 23.17874
109.9178, 25.17267
110.3999, 26.01111
110.8820, 24.50024
111.3642, 23.78814
111.8463, 24.30938
112.3284, 25.74493
112.8105, 27.20045
113.2926, 28.14102
113.7747, 29.38235
114.2569, 31.35658
114.7390, 35.47605
115.2211, 38.80570
115.7032, 39.67877
116.1853, 38.74329
116.6674, 39.28481
117.1496, 43.25236
117.6317, 48.79075
118.1138, 54.31822
118.5959, 58.56557
119.0780, 63.42110
119.5602, 69.92796
120.0423, 78.08829
120.5244, 86.72160
121.0065, 95.22095
121.4886, 103.7972
121.9707, 112.7676
122.4529, 121.4844
122.9350, 131.0099
123.4171, 142.7725
123.8992, 157.0087
124.3813, 171.1840
124.8634, 182.3039
125.3456, 191.7066
125.8277, 202.4797
126.3098, 216.9866
126.7919, 233.4615
127.2740, 249.4037
127.7561, 264.6539
128.2383, 279.2006
128.7204, 292.2285
129.2025, 304.1435
129.6846, 317.0766
130.1667, 332.3114
130.6488, 349.4268
131.1310, 368.1570
131.6131, 388.6027
132.0952, 410.3813
132.5773, 432.7018
133.0594, 455.6562
133.5415, 479.7068
134.0237, 505.0874
134.5058, 531.9813
134.9879, 561.3958
135.4700, 594.6414
135.9521, 630.0135
136.4343, 663.4279
136.9164, 694.9570
137.3985, 724.6296
137.8806, 752.3708
138.3627, 778.1042
138.8448, 803.8258
139.3270, 830.3498
139.8091, 857.6564
140.2912, 883.8185
140.7733, 907.9441
141.2554, 932.9193
141.7375, 960.8429
142.2197, 991.2496
142.7018, 1026.720
143.1839, 1068.268
143.6660, 1115.900
144.1481, 1167.472
144.6302, 1226.976
145.1124, 1286.662
145.5945, 1337.275
146.0766, 1385.991
146.5587, 1415.348
147.0408, 1419.656
147.5230, 1395.523
148.0051, 1358.724
148.4872, 1295.336
148.9693, 1215.634
149.4514, 1146.389
149.9335, 1085.044
150.4157, 1035.584
150.8978, 1000.452
151.3799, 983.1414
151.8620, 970.5197
152.3441, 966.6081
152.8262, 966.8556
153.3084, 962.7738
153.7905, 957.3317
154.2726, 945.0283
154.7547, 923.0806
155.2368, 885.5957
155.7189, 848.8882
156.2011, 813.0912
156.6832, 778.9756
157.1653, 749.5582
157.6474, 725.9152
158.1295, 706.4871
158.6116, 690.5147
159.0938, 678.3330
159.5759, 668.7530
160.0580, 663.1148
160.5401, 660.2135
161.0222, 655.9628
161.5044, 649.2894
161.9865, 640.6774
162.4686, 630.3864
162.9507, 616.9763
163.4328, 603.6017
163.9149, 590.5275
164.3971, 577.9809
164.8792, 567.8267
165.3613, 562.6774
165.8434, 559.5023
166.3255, 555.5007
166.8076, 548.0093
167.2898, 541.0818
167.7719, 537.5988
168.2540, 537.1823
168.7361, 536.5540
169.2182, 532.2977
169.7003, 527.1724
170.1825, 524.4748
170.6646, 528.1116
171.1467, 532.7869
171.6288, 534.4083
172.1109, 533.0221
172.5931, 530.3129
173.0752, 526.0354
173.5573, 521.3984
174.0394, 518.3580
174.5215, 518.4595
175.0036, 520.1666
175.4858, 522.3838
175.9679, 525.1475
176.4500, 527.0144
176.9321, 525.7260
177.4142, 522.5607
177.8963, 520.4605
178.3785, 521.3918
178.8606, 523.9079
179.3427, 526.0168
179.8248, 527.7440
180.3069, 528.7214
180.7890, 527.7934
181.2712, 525.6046
181.7533, 524.2278
182.2354, 525.4975
182.7175, 528.1501
183.1996, 529.1431
183.6818, 528.1427
184.1639, 526.9150
184.6460, 527.7727
185.1281, 530.3607
185.6102, 532.8685
186.0923, 533.8726
186.5745, 534.0416
187.0566, 535.7802
187.5387, 539.5464
188.0208, 543.6578
188.5029, 545.6154
188.9850, 545.5962
189.4672, 545.7854
189.9493, 547.5822
190.4314, 550.6340
190.9135, 553.0167
191.3956, 554.4102
191.8777, 555.6840
192.3599, 558.2511
192.8420, 562.1061
193.3241, 566.5413
193.8062, 570.9128
194.2883, 575.3648
194.7704, 581.4768
195.2526, 589.8107
195.7347, 598.8911
196.2168, 605.8170
196.6989, 610.4143
197.1810, 614.8406
197.6632, 620.7395
198.1453, 628.1458
198.6274, 633.6447
199.1095, 636.9190
199.5916, 638.4187
200.0737, 639.2644
200.5559, 639.6674
201.0380, 638.2460
201.5201, 633.7684
202.0022, 625.9814
202.4843, 618.4389
202.9664, 611.5472
203.4486, 604.8204
203.9307, 596.8649
204.4128, 587.4269
204.8949, 578.1273
205.3770, 569.6417
205.8591, 561.8799
206.3413, 555.5892
206.8234, 550.9816
207.3055, 547.7133
207.7876, 544.8924
208.2697, 542.4268
208.7519, 540.7020
209.2340, 540.2393
209.7161, 541.4646
210.1982, 541.5620
210.6803, 539.7186
211.1624, 537.0286
211.6446, 536.8242
212.1267, 540.0513
212.6088, 543.4628
213.0909, 545.1456
213.5730, 544.3996
214.0551, 544.7184
214.5373, 546.5424
215.0194, 549.4358
215.5015, 552.0984
215.9836, 554.1799
216.4657, 556.7946
216.9478, 560.6973
217.4300, 566.3439
217.9121, 571.8450
218.3942, 577.1172
218.8763, 582.1437
219.3584, 586.7769
219.8405, 590.7750
220.3227, 594.7289
220.8048, 598.9387
221.2869, 603.5610
221.7690, 608.0342
222.2511, 612.2386
222.7333, 616.2957
223.2154, 620.3634
223.6975, 624.2897
224.1796, 628.5802
224.6617, 633.3606
225.1438, 638.2352
225.6260, 644.6537
226.1081, 652.7635
226.5902, 662.4218
227.0723, 673.0618
227.5544, 685.3405
228.0365, 697.7829
228.5187, 709.5780
229.0008, 719.9484
229.4829, 731.5402
229.9650, 744.7488
230.4471, 759.1582
230.9292, 773.8446
231.4114, 789.2177
231.8935, 804.5059
232.3756, 819.0728
232.8577, 832.5496
233.3398, 846.9339
233.8220, 863.7111
234.3041, 880.9396
234.7862, 893.5179
235.2683, 900.9451
235.7504, 904.5201
236.2325, 904.7278
236.7147, 901.4680
237.1968, 894.9467
237.6789, 883.7999
238.1610, 869.9896
238.6431, 857.6864
239.1252, 846.6453
239.6074, 837.3108
240.0895, 829.4673
240.5716, 822.1305
241.0537, 819.6807
241.5358, 824.5508
242.0179, 833.1292
242.5001, 837.9302
242.9822, 835.6833
243.4643, 834.9569
243.9464, 839.3716
244.4285, 851.2948
244.9106, 860.6163
245.3928, 867.3426
245.8749, 871.4982
246.3570, 872.8979
246.8391, 870.3851
247.3212, 867.0982
247.8034, 864.5353
248.2855, 863.7761
248.7676, 858.9820
249.2497, 849.1080
249.7318, 835.9820
250.2139, 822.3635
250.6961, 808.6956
251.1782, 793.6781
251.6603, 776.4114
252.1424, 756.2334
252.6245, 737.3943
253.1066, 719.6649
253.5888, 703.3360
254.0709, 688.4843
254.5530, 675.0113
255.0351, 663.2051
255.5172, 653.6516
255.9993, 646.5668
256.4815, 638.7326
256.9636, 629.6579
257.4457, 620.4540
257.9278, 612.2010
258.4099, 604.7283
258.8921, 598.5941
259.3742, 594.1335
259.8563, 591.4090
260.3384, 588.5867
260.8205, 585.6869
261.3026, 582.7051
261.7848, 579.4713
262.2669, 575.6943
262.7490, 572.5658
263.2311, 570.4606
263.7132, 569.3117
264.1953, 568.3187
264.6775, 567.6922
265.1596, 566.8847
265.6417, 565.2250
266.1238, 562.2894
266.6059, 560.0201
267.0880, 558.9670
267.5702, 558.9088
268.0523, 558.3851
268.5344, 557.2629
269.0165, 555.9339
269.4986, 554.3948
269.9807, 552.2708
270.4629, 551.7708
270.9450, 553.9567
271.4271, 557.7934
271.9092, 558.5709
272.3913, 555.2180
272.8734, 551.8405
273.3556, 551.4174
273.8377, 554.4100
274.3198, 557.1896
274.8019, 559.4699
275.2840, 561.3162
275.7661, 563.0067
276.2483, 564.6154
276.7304, 565.7455
277.2125, 565.6702
277.6946, 564.2089
278.1768, 564.4033
278.6589, 566.8687
279.1410, 570.5090
279.6231, 573.1010
280.1052, 574.5607
280.5873, 575.7334
281.0695, 576.9689
281.5516, 578.2745
282.0337, 579.6086
282.5158, 580.9106
282.9979, 582.3715
283.4800, 584.3199
283.9622, 586.7631
284.4443, 589.4452
284.9264, 592.7868
285.4085, 596.5217
285.8906, 598.2442
286.3727, 597.5995
286.8549, 596.1882
287.3370, 596.3073
287.8191, 597.8562
288.3012, 598.7868
288.7833, 597.9983
289.2654, 596.0157
289.7476, 594.8961
290.2297, 594.7553
290.7118, 594.6102
291.1939, 593.4258
291.6760, 591.3196
292.1581, 588.8586
292.6403, 585.9828
293.1224, 583.0120
293.6045, 580.7014
294.0866, 579.0776
294.5687, 577.5830
295.0508, 575.5626
295.5330, 573.2364
296.0151, 571.4189
296.4972, 570.3563
296.9793, 569.7932
297.4614, 569.4018
297.9435, 569.1680
298.4257, 569.0201
298.9078, 568.9690
299.3899, 568.9609
299.8720, 568.8499
300.3541, 568.5428
300.8362, 568.2703
301.3184, 568.1260
301.8005, 568.1936
302.2826, 568.8190
302.7647, 570.6700
303.2469, 573.0607
303.7290, 575.0074
304.2111, 576.3171
304.6932, 577.3948
305.1753, 578.1588
305.6574, 578.9296
306.1396, 580.4451
306.6217, 583.7408
307.1038, 587.6341
307.5859, 590.7740
308.0680, 593.0213
308.5501, 595.3418
309.0323, 598.8484
309.5144, 602.8605
309.9965, 606.2829
310.4786, 607.9539
310.9607, 609.4187
311.4428, 611.8459
311.9250, 615.2288
312.4071, 618.9494
312.8892, 622.9377
313.3713, 626.8854
313.8534, 630.5010
314.3355, 633.9008
314.8177, 636.7056
315.2998, 638.3326
315.7819, 639.0093
316.2640, 640.0054
316.7461, 643.2396
317.2282, 646.2266
317.7104, 647.0980
318.1925, 644.9583
318.6746, 641.3638
319.1567, 636.0446
319.6388, 629.5517
320.1209, 623.5018
320.6031, 618.5090
321.0852, 614.0016
321.5673, 609.6580
322.0494, 605.4279
322.5315, 601.3971
323.0136, 597.7618
323.4958, 594.3171
323.9779, 590.7267
324.4600, 587.4562
324.9421, 583.5565
325.4242, 578.0686
325.9064, 569.9735
326.3885, 564.6129
326.8706, 564.4531
327.3527, 566.4094
327.8348, 567.2167
328.3170, 566.1835
328.7991, 564.6093
329.2812, 562.6074
329.7633, 560.1598
330.2454, 557.4280
330.7275, 553.1578
331.2097, 549.6172
331.6918, 548.6051
332.1739, 552.6736
332.6560, 555.0538
333.1381, 554.5557
333.6202, 551.7699
334.1024, 549.4501
334.5845, 547.5975
335.0666, 546.2347
335.5487, 545.4642
336.0308, 545.5541
336.5129, 545.5261
336.9951, 545.4584
337.4772, 545.2156
337.9593, 544.4398
338.4414, 542.9871
338.9235, 541.4538
339.4056, 539.8669
339.8878, 538.1707
340.3699, 537.6572
340.8520, 538.6801
341.3341, 540.2308
341.8162, 541.0549
342.2983, 541.0990
342.7805, 540.8604
343.2626, 540.3372
343.7447, 539.6287
344.2268, 539.4691
344.7089, 539.9581
345.1910, 540.3079
345.6732, 539.2029
346.1553, 536.9339
346.6374, 536.3043
347.1195, 538.5563
347.6016, 541.9359
348.0837, 542.4837
348.5659, 540.3730
349.0480, 538.3630
349.5301, 539.0263
350.0122, 541.2452
350.4944, 541.9550
350.9765, 540.5140
351.4586, 538.4625
351.9407, 537.4116
352.4228, 537.2845
352.9049, 537.8149
353.3871, 539.4476
353.8692, 541.4114
354.3513, 542.6436
354.8334, 543.0662
355.3155, 543.2405
355.7976, 543.7902
356.2798, 544.3489
356.7619, 544.3276
357.2440, 541.8967
357.7261, 540.0471
358.2082, 542.2737
358.6903, 547.8214
359.1725, 551.5108
359.6546, 547.9532
360.1367, 542.5513
360.6188, 540.2691
361.1009, 544.2629
361.5830, 548.4847
362.0652, 550.5530
362.5473, 550.9262
363.0294, 550.7303
363.5115, 549.5037
363.9936, 548.4637
364.4757, 548.3981
364.9579, 549.8243
365.4400, 550.8243
365.9221, 550.5593
366.4042, 549.8127
366.8863, 549.5768
367.3684, 549.7350
367.8506, 550.6799
368.3327, 553.2208
368.8148, 557.6239
369.2969, 559.9677
369.7790, 558.4498
370.2611, 556.1451
370.7433, 555.1146
371.2254, 555.3380
371.7075, 556.9541
372.1896, 560.9078
372.6717, 566.3641
373.1538, 569.6542
373.6360, 569.6951
374.1181, 569.3113
374.6002, 569.7601
375.0823, 571.1463
375.5645, 573.1334
376.0466, 576.1574
376.5287, 579.2707
377.0108, 580.3992
377.4929, 578.8630
377.9750, 578.5687
378.4572, 581.2283
378.9393, 586.5032
379.4214, 591.2689
379.9035, 595.5485
380.3856, 599.0786
380.8677, 601.1400
381.3499, 601.8663
381.8320, 602.9643
382.3141, 604.7274
382.7962, 607.1500
383.2783, 610.6959
383.7604, 615.2598
384.2426, 619.4317
384.7247, 621.5187
385.2068, 622.5814
385.6889, 625.4218
386.1710, 630.5968
386.6531, 636.4212
387.1353, 641.2594
387.6174, 645.3610
388.0995, 649.4153
388.5816, 653.5217
389.0637, 657.9202
389.5458, 663.0186
390.0280, 668.8568
390.5101, 674.8792
390.9922, 681.2426
391.4743, 687.3858
391.9564, 692.7225
392.4385, 696.4820
392.9207, 700.0773
393.4028, 704.3417
393.8849, 709.0085
394.3670, 713.3126
394.8491, 715.7249
395.3312, 718.5441
395.8134, 723.1650
396.2955, 730.2599
396.7776, 737.7809
397.2597, 746.1791
397.7418, 754.4122
398.2239, 761.1703
398.7061, 764.7978
399.1882, 768.3831
399.6703, 772.8482
400.1524, 778.2812
400.6346, 782.8558
401.1167, 786.4955
401.5988, 789.3044
402.0809, 791.1420
402.5630, 790.7192
403.0451, 791.9061
403.5273, 795.4269
404.0094, 800.5564
404.4915, 805.3728
404.9736, 810.0778
405.4557, 813.9559
405.9378, 816.4158
406.4200, 817.2641
406.9021, 819.0406
407.3842, 822.0090
407.8663, 825.2551
408.3484, 827.3500
408.8305, 828.2789
409.3127, 829.9008
409.7948, 832.7635
410.2769, 836.6674
410.7590, 841.3078
411.2411, 846.7230
411.7232, 852.0555
412.2054, 856.2012
412.6875, 859.8372
413.1696, 864.8602
413.6517, 871.8964
414.1338, 879.4090
414.6159, 885.2758
415.0981, 890.0703
415.5802, 895.3223
416.0623, 901.8251
416.5444, 909.1143
417.0265, 916.2379
417.5086, 923.2269
417.9908, 931.4335
418.4729, 943.4359
418.9550, 956.3510
419.4371, 966.8121
419.9192, 971.6064
420.4013, 976.7079
420.8835, 984.6210
421.3656, 994.7979
421.8477, 1005.778
422.3298, 1018.989
422.8119, 1031.272
423.2940, 1040.623
423.7762, 1044.942
424.2583, 1052.022
424.7404, 1065.184
425.2225, 1080.441
425.7047, 1093.520
426.1868, 1101.641
426.6689, 1111.095
427.1510, 1123.460
427.6331, 1138.394
428.1152, 1152.504
428.5974, 1165.948
429.0795, 1178.589
429.5616, 1190.051
430.0437, 1199.516
430.5258, 1211.471
431.0079, 1227.149
431.4901, 1243.940
431.9722, 1256.424
432.4543, 1264.009
432.9364, 1272.855
433.4185, 1285.818
433.9006, 1301.889
434.3828, 1316.398
434.8649, 1329.308
435.3470, 1341.168
435.8291, 1352.506
436.3112, 1363.264
436.7933, 1372.783
437.2755, 1380.482
437.7576, 1388.051
438.2397, 1398.622
438.7218, 1411.058
439.2039, 1421.514
439.6860, 1427.916
440.1682, 1431.315
440.6503, 1432.278
441.1324, 1430.832
441.6145, 1428.221
442.0966, 1425.199
442.5787, 1421.351
443.0609, 1416.236
443.5430, 1410.047
444.0251, 1402.152
444.5072, 1392.470
444.9893, 1380.910
445.4714, 1367.148
445.9536, 1349.951
446.4357, 1331.434
446.9178, 1312.387
447.3999, 1292.619
447.8820, 1272.969
448.3641, 1253.595
448.8463, 1234.253
449.3284, 1214.404
449.8105, 1194.588
450.2926, 1173.660
450.7747, 1150.944
451.2569, 1126.768
451.7390, 1103.711
452.2211, 1081.290
452.7032, 1060.565
453.1853, 1042.722
453.6674, 1027.794
454.1496, 1012.112
454.6317, 995.3035
455.1138, 977.9238
455.5959, 960.6326
456.0780, 943.3686
456.5602, 927.2368
457.0423, 913.1393
457.5244, 900.1321
458.0065, 885.5142
458.4886, 869.6461
458.9707, 854.9582
459.4529, 844.3598
459.9350, 835.8484
460.4171, 826.6526
460.8992, 815.9116
461.3813, 805.4518
461.8634, 796.9119
462.3456, 789.5212
462.8277, 782.1658
463.3098, 774.1130
463.7919, 766.1018
464.2740, 758.4450
464.7561, 751.1404
465.2383, 744.0944
465.7204, 737.1915
466.2025, 730.5627
466.6846, 724.3349
467.1667, 718.3526
467.6488, 713.0470
468.1310, 708.8134
468.6131, 705.1285
469.0952, 701.0065
469.5773, 695.8629
470.0594, 691.2487
470.5415, 687.6711
471.0237, 685.1023
471.5058, 682.2438
471.9879, 679.1979
472.4700, 675.6350
472.9521, 670.9567
473.4342, 665.0323
473.9164, 660.4136
474.3985, 657.5428
474.8806, 655.5352
475.3627, 652.8480
475.8448, 649.5646
476.3270, 646.5408
476.8091, 644.3887
477.2912, 642.6666
477.7733, 640.5137
478.2554, 637.9519
478.7375, 635.3116
479.2197, 632.6564
479.7018, 630.1287
480.1839, 628.0224
480.6660, 626.5577
481.1481, 625.0701
481.6302, 623.5261
482.1124, 621.6114
482.5945, 618.7938
483.0766, 612.3313
483.5587, 607.2457
484.0408, 606.9102
484.5229, 611.1852
485.0051, 613.5833
485.4872, 611.2602
485.9693, 607.8963
486.4514, 605.6927
486.9335, 605.7657
487.4156, 605.0795
487.8978, 603.0270
488.3799, 600.5508
488.8620, 599.1243
489.3441, 599.1047
489.8262, 599.3220
490.3083, 599.7958
490.7905, 600.3257
491.2726, 599.1022
491.7547, 595.7793
492.2368, 592.3752
492.7189, 590.5865
493.2010, 590.1611
493.6832, 589.5194
494.1653, 588.4502
494.6474, 587.3636
495.1295, 586.7286
495.6116, 586.4841
496.0938, 586.4508
496.5759, 586.7367
497.0580, 587.0447
497.5401, 587.1885
498.0222, 587.1224
498.5044, 586.6095
498.9865, 585.1415
499.4686, 583.4055
499.9507, 581.7795
500.4328, 580.1245
500.9149, 579.3707
501.3971, 581.1205
501.8792, 583.4467
502.3613, 584.1250
502.8434, 579.9307
503.3255, 577.3305
503.8076, 578.5820
504.2898, 582.5976
504.7719, 584.2927
505.2540, 582.6026
505.7361, 580.1276
506.2182, 577.6094
506.7003, 574.8275
507.1825, 573.8076
507.6646, 575.1661
508.1467, 576.9725
508.6288, 576.7952
509.1109, 574.6498
509.5930, 573.2264
510.0752, 573.1691
510.5573, 573.9700
511.0394, 575.1037
511.5215, 576.4297
512.0037, 577.0300
512.4858, 575.8719
512.9679, 573.9146
513.4500, 572.4590
513.9321, 571.5485
514.4142, 570.8705
514.8964, 570.2823
515.3785, 569.7695
515.8606, 569.3295
516.3427, 568.9875
516.8248, 568.6489
517.3069, 568.0463
517.7891, 567.4451
518.2712, 567.3404
518.7533, 568.7034
519.2354, 569.7025
519.7175, 569.6824
520.1996, 568.6701
520.6818, 567.7397
521.1639, 566.9694
521.6460, 566.1843
522.1281, 565.0671
522.6102, 563.1227
523.0923, 563.0034
523.5745, 565.4617
524.0566, 568.6084
524.5387, 569.4395
525.0208, 567.9630
525.5029, 566.8309
525.9850, 566.8320
526.4672, 567.6373
526.9493, 568.8366
527.4314, 570.3580
527.9135, 571.4880
528.3956, 571.6729
528.8777, 571.2748
529.3599, 570.4894
529.8420, 569.2587
530.3241, 568.7462
530.8062, 571.1906
531.2883, 574.1881
531.7704, 574.9133
532.2526, 570.1410
532.7347, 566.2853
533.2168, 565.9913
533.6989, 568.0075
534.1810, 569.3869
534.6631, 568.2531
535.1453, 567.9630
535.6274, 569.8420
536.1095, 574.0072
536.5916, 576.7754
537.0737, 577.7081
537.5558, 577.9667
538.0380, 578.1973
538.5201, 578.3414
539.0022, 578.8311
539.4843, 579.6395
539.9664, 580.8849
540.4485, 583.2184
540.9307, 586.4094
541.4128, 588.4953
541.8949, 588.0211
542.3770, 586.8385
542.8591, 588.4947
543.3412, 592.4288
543.8234, 595.8234
544.3055, 596.1362
544.7876, 595.5562
545.2697, 596.2148
545.7518, 598.3841
546.2339, 600.8032
546.7161, 603.1415
547.1982, 605.2910
547.6803, 607.1898
548.1624, 607.5030
548.6445, 609.2353
549.1266, 614.2095
549.6088, 620.6863
550.0909, 625.0963
550.5730, 626.2214
551.0551, 627.2428
551.5372, 628.6888
552.0193, 630.6403
552.5015, 633.8994
552.9836, 638.5911
553.4657, 644.1574
553.9478, 650.5638
554.4299, 657.6903
554.9120, 664.1854
555.3942, 669.7809
555.8763, 675.4122
556.3584, 681.9872
556.8405, 689.3994
557.3226, 697.4101
557.8047, 706.0469
558.2869, 715.1428
558.7690, 724.0948
559.2511, 733.3684
559.7332, 744.0709
560.2154, 757.9313
560.6975, 772.2979
561.1796, 785.8790
561.6617, 798.5903
562.1439, 811.5594
562.6260, 825.2288
563.1081, 839.0482
563.5902, 852.7867
564.0723, 865.3434
564.5544, 880.3894
565.0366, 898.9838
565.5187, 919.2175
566.0008, 937.9442
566.4829, 954.7745
566.9650, 973.1385
567.4471, 993.6733
567.9293, 1016.288
568.4114, 1040.537
568.8935, 1066.424
569.3756, 1092.942
569.8577, 1119.338
570.3398, 1146.011
570.8220, 1172.786
571.3041, 1199.968
571.7862, 1226.839
572.2683, 1254.040
572.7504, 1280.368
573.2325, 1305.309
573.7147, 1329.161
574.1968, 1350.026
574.6789, 1368.760
575.1610, 1383.562
575.6431, 1392.305
576.1252, 1394.261
576.6074, 1390.298
577.0895, 1380.606
577.5716, 1365.159
578.0537, 1343.021
578.5358, 1311.840
579.0179, 1279.337
579.5001, 1247.734
579.9822, 1216.948
580.4643, 1189.765
580.9464, 1166.063
581.4285, 1146.798
581.9106, 1133.190
582.3928, 1124.584
582.8749, 1118.893
583.3570, 1115.847
583.8391, 1115.322
584.3212, 1116.875
584.8033, 1120.920
585.2855, 1128.185
585.7676, 1140.659
586.2497, 1154.557
586.7318, 1169.237
587.2139, 1184.058
587.6960, 1197.186
588.1782, 1209.914
588.6603, 1219.157
589.1424, 1224.005
589.6245, 1224.580
590.1066, 1220.567
590.5887, 1212.257
591.0709, 1198.961
591.5530, 1179.197
592.0351, 1152.053
592.5172, 1125.290
592.9993, 1099.388
593.4814, 1073.196
593.9636, 1045.199
594.4457, 1015.765
594.9278, 985.2571
595.4099, 953.2917
595.8920, 921.1638
596.3741, 889.9268
596.8563, 860.0392
597.3384, 832.9424
597.8205, 810.5074
598.3026, 790.3915
598.7847, 771.4532
599.2668, 753.6348
599.7490, 737.6248
600.2311, 725.2845
600.7132, 713.4634
601.1953, 699.8367
601.6774, 682.5200
602.1595, 669.4527
602.6417, 661.5948
603.1238, 656.5439
603.6059, 652.5125
604.0880, 649.6627
604.5701, 646.6071
605.0522, 643.0166
605.5344, 639.5326
606.0165, 637.7948
606.4986, 637.4728
606.9807, 636.4080
607.4628, 632.7621
607.9449, 628.9849
608.4271, 628.8904
608.9092, 631.8121
609.3913, 635.1259
609.8735, 637.3469
610.3556, 639.4758
610.8377, 641.9335
611.3198, 644.7318
611.8019, 648.7402
612.2841, 654.0206
612.7662, 660.7249
613.2483, 669.3234
613.7304, 681.0398
614.2125, 691.2783
614.6946, 699.3702
615.1768, 706.8085
615.6589, 715.3622
616.1410, 725.2122
616.6231, 735.3438
617.1052, 745.4753
617.5873, 755.9813
618.0695, 766.7519
618.5516, 778.0519
619.0337, 791.1447
619.5158, 806.2972
619.9979, 823.7875
620.4800, 844.4044
620.9622, 867.8458
621.4443, 891.8806
621.9264, 916.1901
622.4085, 940.2185
622.8906, 963.2785
623.3727, 984.7466
623.8549, 1008.535
624.3370, 1039.410
624.8191, 1069.970
625.3012, 1095.414
625.7833, 1116.257
626.2654, 1131.414
626.7476, 1141.748
627.2297, 1145.187
627.7118, 1138.301
628.1939, 1120.993
628.6760, 1097.501
629.1581, 1068.057
629.6403, 1034.094
630.1224, 995.1148
630.6045, 952.6649
631.0866, 912.5145
631.5687, 877.5798
632.0508, 846.0544
632.5330, 816.2031
633.0151, 788.4820
633.4972, 764.6874
633.9793, 746.6262
634.4614, 731.8546
634.9435, 719.5938
635.4257, 710.4044
635.9078, 700.9526
636.3899, 689.3616
636.8720, 679.2282
637.3541, 673.5918
637.8362, 673.4177
638.3184, 673.2313
638.8005, 673.1680
639.2826, 672.2277
639.7647, 668.8456
640.2468, 663.2414
640.7289, 656.9495
641.2111, 649.9923
641.6932, 643.2374
642.1753, 637.9261
642.6574, 633.5887
643.1395, 629.1782
643.6216, 623.6073
644.1038, 618.3196
644.5859, 614.2543
645.0680, 611.2286
645.5501, 608.2367
646.0322, 604.3553
646.5143, 601.2333
646.9965, 599.9436
647.4786, 600.6758
647.9607, 599.3074
648.4428, 594.5958
648.9249, 590.2949
649.4070, 589.5377
649.8892, 592.2139
650.3713, 592.6111
650.8534, 590.2138
651.3355, 587.2980
651.8176, 586.7598
652.2997, 587.4670
652.7819, 586.8395
653.2640, 583.9661
653.7461, 580.5898
654.2282, 577.5479
654.7103, 574.9955
655.1924, 573.1719
655.6746, 572.2962
656.1567, 571.9653
656.6388, 572.8454
657.1209, 574.2022
657.6030, 573.8902
658.0851, 570.6658
658.5673, 568.0229
659.0494, 567.0849
659.5316, 567.5836
660.0137, 567.9158
660.4958, 568.0601
660.9779, 568.2560
661.4600, 568.4836
661.9421, 568.8949
662.4243, 570.3163
662.9064, 572.7189
663.3885, 574.3606
663.8706, 572.9025
664.3527, 570.5795
664.8348, 569.7712
665.3170, 571.2389
665.7991, 572.5399
666.2812, 572.8292
666.7633, 572.5932
667.2454, 572.2755
667.7275, 571.9361
668.2097, 571.3846
668.6918, 570.1679
669.1739, 569.1599
669.6560, 570.3417
670.1381, 574.0837
670.6202, 575.7455
671.1024, 573.4306
671.5845, 569.6504
672.0666, 569.6991
672.5487, 572.5781
673.0308, 574.4162
673.5129, 572.0750
673.9951, 568.8185
674.4772, 567.3582
674.9593, 567.4176
675.4414, 567.7465
675.9235, 568.3766
676.4056, 568.6953
676.8878, 568.3052
677.3699, 567.1464
677.8520, 566.0377
678.3341, 564.5652
678.8162, 563.7792
679.2983, 564.7804
679.7805, 567.8115
680.2626, 568.6103
680.7447, 566.8187
681.2268, 564.6902
681.7089, 564.6569
682.1910, 565.9946
682.6732, 566.7780
683.1553, 566.6133
683.6374, 566.4018
684.1195, 567.0967
684.6016, 568.0798
685.0837, 568.5745
685.5659, 567.8640
686.0480, 567.3508
686.5301, 567.8213
687.0122, 568.5676
687.4943, 568.2878
687.9764, 565.9589
688.4586, 564.7874
688.9407, 565.7468
689.4228, 567.8968
689.9049, 568.6378
690.3870, 567.9460
690.8691, 567.2079
691.3513, 566.9266
691.8334, 567.0051
692.3155, 567.5374
692.7976, 568.3730
693.2797, 568.8274
693.7618, 568.1053
694.2440, 567.1854
694.7261, 566.7844
695.2082, 566.9297
695.6903, 567.0013
696.1724, 566.3080
696.6545, 566.0554
697.1367, 567.1877
697.6188, 570.2138
698.1009, 570.6758
698.5830, 567.3566
699.0651, 564.2811
699.5472, 565.4578
700.0294, 570.2488
700.5115, 573.1173
700.9936, 573.5583
701.4757, 572.8829
701.9578, 571.5568
702.4399, 570.2381
702.9221, 570.2006
703.4042, 572.4598
703.8863, 573.9590
704.3684, 572.3356
704.8505, 569.3976
705.3326, 567.2830
705.8148, 567.1218
706.2969, 566.6992
706.7790, 565.2738
707.2611, 563.9227
707.7432, 565.2287
708.2253, 569.9083
708.7075, 572.3406
709.1896, 570.3409
709.6718, 566.3762
710.1539, 565.7131
710.6360, 567.6716
711.1181, 569.4192
711.6002, 569.2367
712.0823, 568.5575
712.5645, 568.4483
713.0466, 568.8523
713.5287, 569.5421
714.0108, 570.4525
714.4929, 571.6179
714.9750, 573.3049
715.4572, 575.4308
715.9393, 576.7584
716.4214, 576.9508
716.9035, 577.0754
717.3856, 578.0652
717.8677, 579.6760
718.3499, 578.5128
718.8320, 574.4648
719.3141, 570.8479
719.7962, 570.3019
720.2783, 571.7595
720.7604, 574.1217
721.2426, 577.3318
721.7247, 579.5653
722.2068, 578.8240
722.6889, 577.3414
723.1710, 576.7800
723.6531, 577.5498
724.1353, 578.8828
724.6174, 581.4250
725.0995, 583.7966
725.5816, 584.7564
726.0637, 584.0917
726.5458, 583.0947
727.0280, 581.5660
727.5101, 580.6385
727.9922, 582.8735
728.4743, 586.8795
728.9564, 588.3672
729.4385, 585.4969
729.9207, 582.1251
730.4028, 581.0755
730.8849, 581.5460
731.3670, 582.4459
731.8491, 583.8143
732.3312, 585.1516
732.8134, 586.0368
733.2955, 586.9584
733.7776, 588.9749
734.2597, 592.9296
734.7418, 595.2551
735.2239, 594.6939
735.7061, 592.6667
736.1882, 592.7322
736.6703, 594.5391
737.1524, 595.3405
737.6345, 593.1160
738.1166, 590.2783
738.5988, 589.6045
739.0809, 590.5417
739.5630, 591.5087
740.0451, 592.3978
740.5272, 592.6312
741.0093, 591.0325
741.4915, 588.1992
741.9736, 588.1413
742.4557, 593.3301
742.9378, 596.3524
743.4199, 593.3665
743.9020, 585.9123
744.3842, 583.6603
744.8663, 586.6010
745.3484, 589.7278
745.8305, 589.1755
746.3126, 587.2996
746.7947, 588.0313
747.2769, 591.1302
747.7590, 593.8165
748.2411, 594.9376
748.7232, 594.9158
749.2053, 593.6355
749.6874, 590.8611
750.1696, 589.0424
750.6517, 588.6082
751.1338, 588.6061
751.6159, 588.5557
752.0980, 588.4471
752.5801, 588.1625
753.0623, 587.5676
753.5444, 587.8397
754.0265, 591.3533
754.5086, 596.0641
754.9907, 597.4296
755.4728, 594.8484
755.9550, 592.4449
756.4371, 593.7988
756.9192, 595.8132
757.4013, 595.6757
757.8835, 591.5430
758.3656, 589.4363
758.8477, 590.9166
759.3298, 593.1105
759.8120, 593.5464
760.2941, 591.9219
760.7762, 591.1220
761.2583, 591.3023
761.7404, 592.2931
762.2225, 594.7862
762.7047, 597.8439
763.1868, 599.1691
763.6689, 598.1600
764.1510, 596.1971
764.6331, 592.6022
765.1152, 589.3243
765.5974, 588.5410
766.0795, 593.1475
766.5616, 596.3030
767.0437, 596.9063
767.5258, 596.5093
768.0079, 597.0958
768.4901, 598.9266
768.9722, 599.3499
769.4543, 597.7501
769.9364, 595.3798
770.4185, 593.3381
770.9006, 591.9050
771.3828, 592.1039
771.8649, 595.2015
772.3470, 597.7666
772.8291, 596.8684
773.3112, 594.2663
773.7933, 592.3923
774.2755, 592.0836
774.7576, 592.1798
775.2397, 592.7090
775.7218, 593.5143
776.2039, 594.5013
776.6860, 595.7654
777.1682, 596.3168
777.6503, 595.7239
778.1324, 594.8558
778.6145, 595.4965
779.0966, 596.9743
779.5787, 597.3988
780.0609, 594.9709
780.5430, 592.9475
781.0251, 594.1497
781.5072, 596.9313
781.9893, 598.2811
782.4714, 595.4997
782.9536, 594.1081
783.4357, 595.2142
783.9178, 597.7303
784.3999, 599.6680
784.8820, 601.0597
785.3641, 601.4465
785.8463, 600.5308
786.3284, 598.8528
786.8105, 596.5289
787.2926, 594.1544
787.7747, 593.2744
788.2568, 595.7316
788.7390, 598.6090
789.2211, 600.7543
789.7032, 602.2499
790.1853, 603.3283
790.6674, 603.7454
791.1495, 604.1476
791.6317, 604.5751
792.1138, 605.0953
792.5959, 605.9141
793.0780, 607.0422
793.5601, 608.1927
794.0422, 609.3705
794.5244, 610.4206
795.0065, 611.0340
795.4886, 611.3771
795.9707, 611.8199
796.4528, 612.1459
796.9349, 613.0243
797.4171, 615.6982
797.8992, 619.1044
798.3813, 620.1033
798.8634, 617.0939
799.3455, 615.0365
799.8276, 614.8848
800.3098, 616.4238
800.7919, 619.9675
801.2740, 625.2198
801.7561, 629.1629
802.2382, 630.3744
802.7203, 630.0268
803.2025, 627.8096
803.6846, 625.0751
804.1667, 624.8691
804.6488, 631.5166
805.1309, 637.2532
805.6130, 639.4606
806.0952, 639.2161
806.5773, 638.3127
807.0594, 636.0638
807.5416, 635.7379
808.0237, 638.8862
808.5058, 643.4760
808.9879, 644.5890
809.4700, 643.0914
809.9521, 642.8120
810.4343, 647.2717
810.9164, 651.0858
811.3985, 648.1390
811.8806, 641.6989
812.3627, 638.6279
812.8448, 644.1859
813.3270, 648.9166
813.8091, 651.0018
814.2912, 651.4128
814.7733, 652.0873
815.2554, 653.0420
815.7375, 654.0729
816.2197, 655.1265
816.7018, 656.2370
817.1839, 657.5012
817.6660, 658.8458
818.1481, 660.0447
818.6302, 660.3214
819.1124, 661.3082
819.5945, 664.4660
820.0766, 668.7278
820.5587, 672.1441
821.0408, 675.6066
821.5229, 676.0204
822.0051, 671.5809
822.4872, 665.5917
822.9693, 664.7218
823.4514, 668.4148
823.9335, 670.6142
824.4156, 669.1395
824.8978, 666.9128
825.3799, 666.8220
825.8620, 668.1697
826.3441, 669.8305
826.8262, 672.3827
827.3083, 673.9859
827.7905, 673.2789
828.2726, 671.8683
828.7547, 671.8837
829.2368, 673.8287
829.7189, 674.8701
830.2010, 674.2971
830.6832, 673.5945
831.1653, 675.5226
831.6474, 679.0053
832.1295, 680.9484
832.6116, 680.0276
833.0938, 679.0190
833.5759, 680.1558
834.0580, 682.0046
834.5401, 682.9350
835.0222, 680.9724
835.5043, 680.8826
835.9865, 683.5810
836.4686, 687.0101
836.9507, 688.9777
837.4328, 689.5240
837.9149, 689.4133
838.3970, 688.5824
838.8792, 688.0773
839.3613, 689.5053
839.8434, 691.6943
840.3255, 693.0175
840.8076, 693.0560
841.2897, 692.7143
841.7719, 691.8301
842.2540, 690.9904
842.7361, 690.6960
843.2182, 691.1957
843.7003, 691.2726
844.1824, 690.9661
844.6646, 690.0808
845.1467, 687.6105
845.6288, 684.5316
846.1109, 683.9202
846.5930, 686.0504
847.0751, 687.7098
847.5573, 685.8752
848.0394, 683.4006
848.5215, 682.7526
849.0036, 684.7302
849.4857, 684.7585
849.9678, 681.3179
850.4500, 678.2900
850.9321, 678.5042
851.4142, 681.4728
851.8963, 680.9619
852.3784, 677.0693
852.8605, 673.4349
853.3427, 673.8295
853.8248, 675.0374
854.3069, 672.7428
854.7890, 667.3671
855.2711, 664.3608
855.7532, 667.3405
856.2354, 671.2408
856.7175, 674.8541
857.1996, 677.9355
857.6818, 678.2833
858.1639, 675.3760
858.6460, 673.6277
859.1281, 676.2266
859.6102, 680.4258
860.0923, 680.5905
860.5745, 677.7852
861.0566, 675.6523
861.5387, 677.3406
862.0208, 678.6042
862.5029, 676.7000
862.9850, 672.8535
863.4672, 671.2332
863.9493, 672.6974
864.4314, 674.1945
864.9135, 675.0262
865.3956, 675.5673
865.8777, 677.1442
866.3599, 679.2733
866.8420, 679.6110
867.3241, 676.1042
867.8062, 672.8191
868.2883, 672.9896
868.7704, 675.2589
869.2526, 677.6250
869.7347, 681.3246
870.2168, 682.4758
870.6989, 679.6105
871.1810, 675.6175
871.6631, 674.4308
872.1453, 675.8938
872.6274, 676.9344
873.1095, 677.0201
873.5916, 677.0575
874.0737, 678.5266
874.5558, 680.2391
875.0380, 680.4597
875.5201, 678.0867
876.0022, 676.7955
876.4843, 678.4269
876.9664, 680.6335
877.4485, 682.0101
877.9307, 682.4969
878.4128, 682.6407
878.8949, 682.4525
879.3770, 681.8896
879.8591, 680.0508
880.3412, 678.1901
880.8234, 678.7060
881.3055, 681.6614
881.7876, 684.4717
882.2697, 686.2226
882.7518, 687.2823
883.2339, 687.7780
883.7161, 687.7376
884.1982, 687.0833
884.6803, 685.4609
885.1624, 684.6818
885.6445, 686.1110
886.1266, 688.7326
886.6088, 689.9871
887.0909, 690.2310
887.5730, 690.8992
888.0551, 693.2727
888.5372, 695.7200
889.0193, 697.8779
889.5015, 699.4279
889.9836, 699.3788
890.4657, 696.4462
890.9478, 695.1707
891.4299, 696.9167
891.9120, 700.1473
892.3942, 702.4394
892.8763, 703.7587
893.3584, 703.6812
893.8405, 701.2750
894.3226, 699.3356
894.8047, 700.5087
895.2869, 703.0842
895.7690, 704.9442
896.2511, 704.2869
896.7332, 705.4756
897.2153, 709.6456
897.6974, 713.8312
898.1796, 714.0393
898.6617, 711.0461
899.1438, 710.5868
899.6259, 713.3107
900.1080, 716.5189
900.5901, 717.8082
901.0723, 718.6279
901.5544, 720.3421
902.0365, 723.1972
902.5186, 726.3170
903.0007, 730.1127
903.4828, 733.3798
903.9650, 735.4183
904.4471, 736.3696
904.9292, 737.4263
905.4113, 738.6104
905.8935, 740.1461
906.3756, 742.3023
906.8577, 744.7787
907.3398, 747.3139
907.8220, 749.9044
908.3041, 752.5043
908.7862, 754.0941
909.2683, 757.1641
909.7504, 763.0648
910.2325, 770.2550
910.7147, 774.4334
911.1968, 775.6959
911.6789, 777.9659
912.1610, 782.6569
912.6431, 788.0464
913.1252, 791.5281
913.6074, 794.5965
914.0895, 799.6576
914.5716, 809.3434
915.0537, 817.6592
915.5358, 822.9810
916.0179, 827.4468
916.5001, 833.2421
916.9822, 840.4724
917.4643, 846.9587
917.9464, 852.5510
918.4285, 857.6707
918.9106, 861.8676
919.3928, 866.2250
919.8749, 872.1926
920.3570, 879.9530
920.8391, 888.3140
921.3212, 898.6506
921.8033, 907.6161
922.2855, 912.6929
922.7676, 914.6799
923.2497, 922.1880
923.7318, 935.2833
924.2139, 949.5129
924.6960, 962.3168
925.1782, 975.1800
925.6603, 989.9746
926.1424, 1006.289
926.6245, 1022.957
927.1066, 1037.543
927.5887, 1054.792
928.0709, 1075.746
928.5530, 1099.829
929.0351, 1125.503
929.5172, 1152.790
929.9993, 1182.981
930.4814, 1215.754
930.9636, 1253.095
931.4457, 1296.470
931.9278, 1346.059
932.4099, 1401.246
932.8920, 1459.164
933.3741, 1530.151
933.8563, 1613.330
934.3384, 1713.743
934.8205, 1831.109
935.3026, 1966.389
935.7847, 2128.404
936.2668, 2318.620
936.7490, 2532.811
937.2311, 2769.643
937.7132, 3029.387
938.1953, 3309.675
938.6774, 3611.032
939.1595, 3917.638
939.6417, 4220.263
940.1238, 4532.628
940.6059, 4849.812
941.0880, 5178.481
941.5701, 5541.777
942.0522, 5940.260
942.5344, 6375.239
943.0165, 6849.224
943.4986, 7373.295
943.9807, 7947.951
944.4628, 8586.245
944.9449, 9304.484
945.4271, 10117.25
945.9092, 11016.26
946.3913, 12012.58
946.8734, 13076.95
947.3555, 14200.69
947.8376, 15374.64
948.3198, 16579.23
948.8019, 17814.49
949.2840, 18871.05
949.7661, 19709.81
950.2482, 20181.92
950.7303, 20132.98
951.2125, 19554.15
951.6946, 18571.88
952.1767, 17053.84
952.6588, 15411.00
953.1409, 13716.91
953.6230, 12034.53
954.1052, 10506.11
954.5873, 9131.840
955.0695, 7914.601
955.5516, 6872.215
956.0337, 5960.142
956.5158, 5170.499
956.9979, 4491.953
957.4800, 3903.244
957.9622, 3406.881
958.4443, 2984.369
958.9264, 2638.762
959.4085, 2358.676
959.8906, 2137.385
960.3727, 1966.872
960.8549, 1824.638
961.3370, 1707.271
961.8191, 1609.187
962.3012, 1531.890
962.7833, 1466.453
963.2654, 1408.618
963.7476, 1357.726
964.2297, 1312.908
964.7118, 1275.535
965.1939, 1242.284
965.6760, 1211.880
966.1581, 1184.815
966.6403, 1162.375
967.1224, 1143.793
967.6045, 1126.093
968.0866, 1107.623
968.5687, 1090.532
969.0508, 1074.842
969.5330, 1061.346
970.0151, 1051.046
970.4972, 1044.576
970.9793, 1038.539
971.4614, 1032.617
971.9435, 1027.318
972.4257, 1022.992
972.9078, 1019.725
973.3899, 1017.690
973.8720, 1016.925
974.3541, 1016.954
974.8362, 1019.598
975.3184, 1020.845
975.8005, 1018.968
976.2826, 1014.199
976.7647, 1007.651
977.2468, 999.3784
977.7289, 991.8305
978.2111, 986.3543
978.6932, 982.0093
979.1753, 977.8998
979.6574, 974.1637
980.1395, 971.0496
980.6216, 968.7122
981.1038, 966.8272
981.5859, 964.6407
982.0680, 963.9062
982.5501, 967.0860
983.0322, 973.7851
983.5143, 980.8768
983.9965, 988.0689
984.4786, 996.7880
984.9607, 1007.762
985.4428, 1020.954
985.9249, 1036.955
986.4070, 1055.855
986.8892, 1074.030
987.3713, 1090.572
987.8534, 1108.151
988.3355, 1127.268
988.8176, 1148.533
989.2997, 1173.693
989.7819, 1202.191
990.2640, 1232.526
990.7461, 1263.818
991.2282, 1296.719
991.7103, 1331.921
992.1924, 1368.804
992.6746, 1405.432
993.1567, 1440.810
993.6388, 1482.125
994.1209, 1530.081
994.6030, 1582.737
995.0851, 1637.879
995.5673, 1699.170
996.0494, 1762.177
996.5315, 1833.762
997.0136, 1907.783
997.4957, 1986.236
997.9778, 2064.915
998.4600, 2142.760
998.9421, 2218.389
999.4242, 2289.597
999.9063, 2354.522
1000.388, 2400.139
1000.871, 2420.431
1001.353, 2424.329
1001.835, 2418.556
1002.317, 2401.700
1002.799, 2371.858
1003.281, 2328.716
1003.763, 2271.050
1004.245, 2196.611
1004.728, 2112.049
1005.210, 2017.527
1005.692, 1916.863
1006.174, 1818.779
1006.656, 1723.980
1007.138, 1635.792
1007.620, 1555.245
1008.102, 1481.482
1008.584, 1412.773
1009.067, 1353.930
1009.549, 1297.451
1010.031, 1255.043
1010.513, 1217.427
1010.995, 1183.739
1011.477, 1153.766
1011.959, 1127.143
1012.441, 1104.657
1012.924, 1088.158
1013.406, 1079.212
1013.888, 1070.454
1014.370, 1060.182
1014.852, 1050.470
1015.334, 1042.367
1015.816, 1035.701
1016.298, 1030.179
1016.780, 1025.421
1017.263, 1018.214
1017.745, 1005.682
1018.227, 991.3312
1018.709, 977.2701
1019.191, 963.0754
1019.673, 947.8871
1020.155, 931.5068
1020.637, 914.5172
1021.120, 896.7286
1021.602, 878.8420
1022.084, 860.8174
1022.566, 843.5392
1023.048, 828.7658
1023.530, 816.6651
1024.012, 805.8747
1024.494, 796.1721
1024.976, 787.5565
1025.458, 779.9507
1025.941, 773.3778
1026.423, 768.3459
1026.905, 764.7604
1027.387, 761.2704
1027.869, 757.2604
1028.351, 753.5544
1028.833, 750.8155
1029.316, 748.8986
1029.798, 747.7333
1030.280, 748.3373
1030.762, 746.8809
1031.244, 742.4332
1031.726, 738.2805
1032.208, 737.4217
1032.690, 738.6135
1033.172, 738.1526
1033.655, 736.4120
1034.137, 735.6949
1034.619, 738.2748
1035.101, 740.8705
1035.583, 742.9797
1036.065, 743.9284
1036.547, 741.4371
1037.029, 735.3333
1037.511, 731.8962
1037.994, 732.3880
1038.476, 734.4865
1038.958, 737.0135
1039.440, 739.2136
1039.922, 740.2982
1040.404, 740.1337
1040.886, 738.9455
1041.368, 736.6010
1041.851, 733.5788
1042.333, 729.5148
1042.815, 725.3288
1043.297, 723.9094
1043.779, 724.4337
1044.261, 724.4736
1044.743, 722.4783
1045.225, 720.8106
1045.708, 721.0090
1046.190, 721.5214
1046.672, 720.6049
1047.154, 717.9726
1047.636, 717.0402
1048.118, 717.9171
1048.600, 719.4010
1049.082, 720.8418
1049.564, 722.2178
1050.047, 723.6814
1050.529, 725.1027
1051.011, 725.6575
1051.493, 724.1990
1051.975, 724.3779
1052.457, 727.3378
1052.939, 731.1956
1053.421, 732.4227
1053.903, 732.3688
1054.386, 734.4652
1054.868, 739.5460
1055.350, 744.8741
1055.832, 748.6966
1056.314, 752.9945
1056.796, 758.8798
1057.278, 766.2117
1057.760, 773.5280
1058.243, 780.8768
1058.725, 788.6772
1059.207, 797.1089
1059.689, 806.0906
1060.171, 815.6212
1060.653, 825.7288
1061.135, 836.4963
1061.617, 847.5819
1062.099, 859.6566
1062.582, 872.4844
1063.064, 887.1511
1063.546, 903.8601
1064.028, 923.4637
1064.510, 949.3363
1064.992, 980.2875
1065.474, 1010.237
1065.956, 1035.140
1066.438, 1061.344
1066.921, 1092.345
1067.403, 1123.671
1067.885, 1151.122
1068.367, 1173.754
1068.849, 1181.389
1069.331, 1172.444
1069.813, 1151.692
1070.295, 1116.766
1070.778, 1075.990
1071.260, 1033.833
1071.742, 990.7746
1072.224, 954.0988
1072.706, 924.0182
1073.188, 899.0437
1073.670, 878.1130
1074.152, 862.5449
1074.635, 855.7683
1075.117, 854.7629
1075.599, 854.4590
1076.081, 852.5253
1076.563, 854.2808
1077.045, 860.6250
1077.527, 869.3743
1078.009, 879.6078
1078.491, 890.8839
1078.974, 902.5453
1079.456, 914.1271
1079.938, 923.2631
1080.420, 928.9675
1080.902, 932.0731
1081.384, 933.9877
1081.866, 932.7479
1082.348, 925.1270
1082.831, 910.9894
1083.313, 893.6389
1083.795, 873.4365
1084.277, 852.6214
1084.759, 831.8079
1085.241, 812.5790
1085.723, 796.4520
1086.205, 783.4310
1086.688, 771.7101
1087.170, 761.1816
1087.652, 751.9665
1088.134, 743.8972
1088.616, 737.6515
1089.098, 735.8846
1089.580, 735.9971
1090.062, 733.1035
1090.544, 725.3233
1091.026, 720.1476
1091.509, 720.3279
1091.991, 721.3393
1092.473, 721.4540
1092.955, 720.7560
1093.437, 719.3020
1093.919, 717.2504
1094.401, 715.2932
1094.883, 713.6258
1095.366, 712.2054
1095.848, 710.6917
1096.330, 709.6595
1096.812, 709.7182
1097.294, 710.9824
1097.776, 712.3638
1098.258, 713.8591
1098.740, 714.6880
1099.223, 713.3397
1099.705, 712.0023
1100.187, 712.9054
1100.669, 715.2022
1101.151, 716.5870
1101.633, 716.7072
1102.115, 716.5600
1102.597, 716.1406
1103.079, 715.8783
1103.562, 716.1535
1104.044, 716.9296
1104.526, 718.3785
1105.008, 720.4409
1105.490, 722.1264
1105.972, 722.7756
1106.454, 723.7003
1106.936, 725.2414
1107.418, 727.1747
1107.901, 728.8676
1108.383, 730.5905
1108.865, 733.2691
1109.347, 737.3223
1109.829, 740.8669
1110.311, 742.6579
1110.793, 744.1531
1111.275, 746.4022
1111.758, 749.0198
1112.240, 749.1765
1112.722, 747.2365
1113.204, 746.9445
1113.686, 751.2053
1114.168, 754.5383
1114.650, 751.7721
1115.132, 746.8766
1115.615, 744.2462
1116.097, 744.4641
1116.579, 743.6813
1117.061, 741.8129
1117.543, 740.2394
1118.025, 740.6457
1118.507, 741.1619
1118.989, 739.6405
1119.471, 736.7438
1119.953, 733.9280
1120.436, 731.3316
1120.918, 729.0126
1121.400, 726.9489
1121.882, 725.2396
1122.364, 724.1572
1122.846, 723.4045
1123.328, 722.9164
1123.810, 722.4371
1124.293, 720.6552
1124.775, 715.3386
1125.257, 711.0677
1125.739, 708.4698
1126.221, 707.5013
1126.703, 709.1199
1127.185, 712.2631
1127.667, 713.7294
1128.150, 713.0990
1128.632, 711.5182
1129.114, 708.2383
1129.596, 705.5979
1130.078, 704.5997
1130.560, 704.8558
1131.042, 705.6095
1131.524, 706.6697
1132.006, 706.6115
1132.489, 704.7825
1132.971, 703.0271
1133.453, 702.4325
1133.935, 702.5822
1134.417, 703.3290
1134.899, 704.6056
1135.381, 705.5286
1135.863, 706.1057
1136.346, 705.7138
1136.828, 703.5975
1137.310, 701.2960
1137.792, 699.9009
1138.274, 699.3125
1138.756, 699.6129
1139.238, 701.1272
1139.720, 701.5814
1140.203, 700.7692
1140.685, 700.2889
1141.167, 701.7618
1141.649, 703.6471
1142.131, 704.0238
1142.613, 703.3328
1143.095, 702.4975
1143.577, 701.5217
1144.059, 700.6968
1144.542, 699.9072
1145.024, 699.6658
1145.506, 701.0843
1145.988, 703.0308
1146.470, 703.4465
1146.952, 702.5367
1147.434, 701.5615
1147.916, 700.6103
1148.398, 700.1506
1148.881, 700.6179
1149.363, 700.8944
1149.845, 699.1082
1150.327, 696.1125
1150.809, 693.6339
1151.291, 691.9220
1151.773, 691.7988
1152.255, 696.0439
1152.738, 698.8368
1153.220, 698.0938
1153.702, 695.4483
1154.184, 693.5241
1154.666, 692.4482
1155.148, 693.1467
1155.630, 695.9352
1156.112, 698.1920
1156.594, 698.5432
1157.077, 697.8264
1157.559, 696.0510
1158.041, 693.8077
1158.523, 693.4446
1159.005, 694.7385
1159.487, 695.9661
1159.969, 696.5752
1160.451, 697.3933
1160.933, 699.8471
1161.416, 701.9418
1161.898, 701.9461
1162.380, 700.1293
1162.862, 699.1557
1163.344, 699.0350
1163.826, 699.9749
1164.308, 702.8635
1164.790, 705.1447
1165.273, 704.1166
1165.755, 701.8336
1166.237, 700.3409
1166.719, 699.6541
1167.201, 700.3348
1167.683, 702.4724
1168.165, 704.3162
1168.647, 704.1534
1169.130, 704.2661
1169.612, 707.6334
1170.094, 712.2985
1170.576, 715.2407
1171.058, 716.0812
1171.540, 715.8467
1172.022, 714.3902
1172.504, 713.0173
1172.986, 712.4257
1173.469, 712.5760
1173.951, 713.7949
1174.433, 715.6832
1174.915, 717.2516
1175.397, 718.2431
1175.879, 719.2947
1176.361, 720.3437
1176.843, 721.9530
1177.326, 725.3741
1177.808, 729.1220
1178.290, 731.2498
1178.772, 732.0232
1179.254, 732.7070
1179.736, 733.1406
1180.218, 734.4333
1180.700, 736.9171
1181.182, 739.5700
1181.665, 741.6418
1182.147, 743.0006
1182.629, 742.8958
1183.111, 741.6249
1183.593, 741.3489
1184.075, 742.7874
1184.557, 744.6660
1185.039, 747.1666
1185.521, 749.0101
1186.004, 747.4854
1186.486, 744.5573
1186.968, 743.9580
1187.450, 745.8984
1187.932, 745.9357
1188.414, 742.4510
1188.896, 738.3484
1189.378, 733.9818
1189.861, 729.9128
1190.343, 727.5414
1190.825, 725.9907
1191.307, 723.5025
1191.789, 719.7189
1192.271, 716.6692
1192.753, 714.9602
1193.235, 713.6785
1193.718, 712.6485
1194.200, 711.7683
1194.682, 710.9811
1195.164, 710.1697
1195.646, 708.9474
1196.128, 707.0665
1196.610, 705.9356
1197.092, 706.8474
1197.574, 706.7086
1198.057, 703.6890
1198.539, 699.5721
1199.021, 698.8759
1199.503, 700.0956
1199.985, 699.3403
1200.467, 694.2307
1200.949, 692.6190
1201.431, 698.4577
1201.913, 703.4764
1202.396, 703.1627
1202.878, 699.7555
1203.360, 698.8331
1203.842, 699.5975
1204.324, 699.9736
1204.806, 698.9836
1205.288, 698.6127
1205.770, 699.5287
1206.253, 700.5298
1206.735, 700.9935
1207.217, 701.0047
1207.699, 700.5618
1208.181, 699.8969
1208.663, 699.5988
1209.145, 699.7924
1209.627, 700.5331
1210.109, 701.6131
1210.592, 703.5057
1211.074, 707.2152
1211.556, 711.7353
1212.038, 713.9988
1212.520, 714.3201
1213.002, 713.4346
1213.484, 710.0687
1213.966, 708.0231
1214.448, 707.7805
1214.931, 708.6609
1215.413, 710.6862
1215.895, 713.2641
1216.377, 714.7237
1216.859, 715.3145
1217.341, 715.8649
1217.823, 716.9596
1218.305, 717.5514
1218.788, 717.3557
1219.270, 717.0145
1219.752, 716.7247
1220.234, 716.8215
1220.716, 719.1205
1221.198, 722.6707
1221.680, 724.1758
1222.162, 719.2909
1222.645, 717.2488
1223.127, 719.6051
1223.609, 723.1937
1224.091, 725.7314
1224.573, 727.0020
1225.055, 725.5005
1225.537, 722.1370
1226.019, 720.4154
1226.501, 722.6686
1226.984, 725.1050
1227.466, 727.6672
1227.948, 729.7838
1228.430, 730.8008
1228.912, 731.0060
1229.394, 730.6083
1229.876, 729.8234
1230.358, 729.4828
1230.841, 730.1689
1231.323, 730.5345
1231.805, 730.3809
1232.287, 730.1024
1232.769, 729.8713
1233.251, 729.9237
1233.733, 731.3864
1234.215, 733.6634
1234.698, 733.5947
1235.180, 728.9189
1235.662, 726.4384
1236.144, 727.2192
1236.626, 729.0159
1237.108, 729.9321
1237.590, 730.1462
1238.072, 729.4653
1238.554, 728.1887
1239.036, 727.9248
1239.519, 729.4772
1240.001, 729.4313
1240.483, 726.9591
1240.965, 724.8549
1241.447, 726.6315
1241.929, 729.7270
1242.411, 731.4052
1242.893, 731.8431
1243.376, 732.7355
1243.858, 734.3027
1244.340, 735.5566
1244.822, 736.3047
1245.304, 737.1775
1245.786, 739.4976
1246.268, 741.6220
1246.750, 741.4182
1247.233, 739.6417
1247.715, 739.7397
1248.197, 741.9073
1248.679, 744.6058
1249.161, 747.7574
1249.643, 749.7529
1250.125, 748.1934
1250.607, 745.8236
1251.089, 744.1843
1251.572, 743.5154
1252.054, 744.6866
1252.536, 747.6960
1253.018, 749.8215
1253.500, 750.6573
1253.982, 751.3800
1254.464, 754.0121
1254.946, 755.5737
1255.428, 753.4772
1255.911, 749.4630
1256.393, 746.6690
1256.875, 745.1058
1257.357, 745.0779
1257.839, 746.6481
1258.321, 747.9625
1258.803, 747.5817
1259.285, 747.0688
1259.768, 747.3231
1260.250, 747.6791
1260.732, 746.3513
1261.214, 743.9652
1261.696, 743.1351
1262.178, 744.1868
1262.660, 745.8109
1263.142, 748.1719
1263.625, 749.9968
1264.107, 750.9031
1264.589, 751.1371
1265.071, 750.7689
1265.553, 750.1312
1266.035, 750.2136
1266.517, 751.0625
1266.999, 751.5898
1267.481, 751.4492
1267.964, 750.8465
1268.446, 749.6042
1268.928, 748.3891
1269.410, 748.0187
1269.892, 748.4011
1270.374, 749.8090
1270.856, 752.1125
1271.338, 753.3051
1271.820, 752.7757
1272.303, 752.4965
1272.785, 752.9716
1273.267, 753.2842
1273.749, 751.7408
1274.231, 749.8683
1274.713, 749.5422
1275.195, 750.6934
1275.677, 751.8646
1276.160, 753.2797
1276.642, 752.9430
1277.124, 750.2723
1277.606, 747.7638
1278.088, 748.2442
1278.570, 749.4899
1279.052, 749.4510
1279.534, 750.2473
1280.016, 751.1365
1280.499, 751.2741
1280.981, 752.6891
1281.463, 753.2527
1281.945, 753.5236
1282.427, 753.8212
1282.909, 754.0496
1283.391, 754.2750
1283.873, 754.3129
1284.356, 753.6090
1284.838, 752.3304
1285.320, 751.2286
1285.802, 750.4365
1286.284, 751.0743
1286.766, 755.7128
1287.248, 759.1923
1287.730, 759.2317
1288.213, 758.4728
1288.695, 761.8344
1289.177, 767.2334
1289.659, 768.6878
1290.141, 766.1512
1290.623, 763.8151
1291.105, 763.7603
1291.587, 762.6931
1292.069, 759.7188
1292.552, 756.8177
1293.034, 756.8176
1293.516, 758.0346
1293.998, 757.8588
1294.480, 756.4855
1294.962, 755.7918
1295.444, 756.0538
1295.926, 756.5553
1296.408, 757.2299
1296.891, 758.0886
1297.373, 759.9095
1297.855, 761.2042
1298.337, 760.0397
1298.819, 757.3596
1299.301, 755.7089
1299.783, 755.1380
1300.265, 755.3828
1300.748, 756.4349
1301.230, 756.6490
1301.712, 753.4610
1302.194, 750.7354
1302.676, 750.4168
##END=



