##NAMES=Triplite
##RRUFFID=R050615
##IDEAL CHEMISTRY=Mn^2+^_2_(PO_4_)F
##LOCALITY=Vienna, Austria
##OWNER=RRUFF
##SOURCE=University of Arizona Mineral Museum
##DESCRIPTION=Brown massive
##STATUS=The identification of this mineral has been confirmed by X-ray diffraction and chemical analysis
##URL=rruff.info/R050615
##MEASURED CHEMISTRY=(Mn^2+^_1.09_Fe^2+^_0.88_Ca_0.02_Mg_0.01_)_Σ=2_(P_1.00_O_4_)(F_0.72_(OH)_0.28_)_Σ=1_ ; = light phase (triplite) while the dark phase is fluorapatite: (Ca_4.44_Mn^2+^_0.44_Fe^2+^_0.12_)_Σ=5_(P_1.00_O_4_)F_1.00_
91.11523, 20.17190
91.59735, 19.60651
92.07947, 20.19366
92.56158, 21.54236
93.04370, 22.41902
93.52582, 21.34224
94.00793, 19.34744
94.49006, 18.80386
94.97218, 20.16692
95.45429, 22.55243
95.93641, 25.22670
96.41853, 28.15602
96.90064, 29.96634
97.38276, 28.89832
97.86488, 25.27640
98.34699, 22.74413
98.82911, 22.18258
99.31123, 22.94747
99.79334, 22.75305
100.2755, 21.30297
100.7576, 19.92740
101.2397, 20.06210
101.7218, 22.11937
102.2039, 23.70952
102.6861, 24.22540
103.1682, 23.68278
103.6503, 23.37782
104.1324, 23.56867
104.6145, 23.71002
105.0966, 23.07844
105.5788, 21.22497
106.0609, 19.36207
106.5430, 17.63797
107.0251, 15.75362
107.5072, 15.08201
107.9893, 16.52589
108.4715, 18.95790
108.9536, 20.35443
109.4357, 19.82868
109.9178, 19.06635
110.3999, 18.55435
110.8820, 18.19791
111.3642, 18.25190
111.8463, 18.64754
112.3284, 19.45039
112.8105, 20.82863
113.2926, 23.65462
113.7747, 26.50993
114.2569, 28.65182
114.7390, 29.42680
115.2211, 30.12480
115.7032, 31.05891
116.1853, 32.16841
116.6674, 33.14101
117.1496, 32.94585
117.6317, 33.01021
118.1138, 34.50198
118.5959, 39.83644
119.0780, 44.93164
119.5602, 47.29075
120.0423, 47.07905
120.5244, 47.33913
121.0065, 49.79038
121.4886, 53.73699
121.9707, 58.28140
122.4529, 63.48866
122.9350, 68.83510
123.4171, 74.27095
123.8992, 79.88966
124.3813, 84.34254
124.8634, 85.13138
125.3456, 83.79039
125.8277, 83.80653
126.3098, 87.96886
126.7919, 94.23416
127.2740, 99.75630
127.7561, 104.3323
128.2383, 108.0585
128.7204, 110.2603
129.2025, 111.3244
129.6846, 113.2807
130.1667, 117.9046
130.6488, 124.4080
131.1310, 130.7811
131.6131, 136.9309
132.0952, 142.5918
132.5773, 146.5355
133.0594, 148.7330
133.5415, 151.9403
134.0237, 159.0955
134.5058, 169.9020
134.9879, 179.0717
135.4700, 185.5524
135.9521, 190.0591
136.4343, 194.7932
136.9164, 199.7056
137.3985, 205.1243
137.8806, 212.1742
138.3627, 221.4934
138.8448, 228.1568
139.3270, 230.7808
139.8091, 229.8107
140.2912, 229.4357
140.7733, 229.9134
141.2554, 230.5259
141.7375, 230.3714
142.2197, 228.9282
142.7018, 228.1103
143.1839, 228.3693
143.6660, 229.7386
144.1481, 231.5920
144.6302, 233.9380
145.1124, 236.7503
145.5945, 239.9469
146.0766, 243.5593
146.5587, 247.5824
147.0408, 252.2126
147.5230, 257.8086
148.0051, 262.4860
148.4872, 264.5320
148.9693, 264.2786
149.4514, 264.4604
149.9335, 265.4681
150.4157, 266.5083
150.8978, 267.3044
151.3799, 267.5555
151.8620, 268.2538
152.3441, 269.6375
152.8262, 271.4431
153.3084, 273.1472
153.7905, 275.3216
154.2726, 276.9098
154.7547, 277.6100
155.2368, 277.6204
155.7189, 276.3814
156.2011, 272.4064
156.6832, 267.0198
157.1653, 263.6172
157.6474, 264.7619
158.1295, 266.6424
158.6116, 267.2834
159.0938, 265.1975
159.5759, 263.4776
160.0580, 263.1163
160.5401, 263.7786
161.0222, 264.3391
161.5044, 264.2328
161.9865, 264.0059
162.4686, 264.0678
162.9507, 265.4327
163.4328, 266.0756
163.9149, 264.7289
164.3971, 261.7663
164.8792, 259.0826
165.3613, 257.5533
165.8434, 256.6996
166.3255, 256.0838
166.8076, 255.5570
167.2898, 255.2478
167.7719, 255.1172
168.2540, 255.1951
168.7361, 255.7658
169.2182, 258.0379
169.7003, 260.6007
170.1825, 261.7665
170.6646, 259.7776
171.1467, 256.9412
171.6288, 254.8509
172.1109, 253.5166
172.5931, 252.7813
173.0752, 252.8602
173.5573, 253.4212
174.0394, 253.9314
174.5215, 254.3009
175.0036, 254.4434
175.4858, 254.0897
175.9679, 253.2194
176.4500, 252.4628
176.9321, 252.9175
177.4142, 253.9252
177.8963, 253.9821
178.3785, 252.1476
178.8606, 249.0620
179.3427, 245.4172
179.8248, 241.1084
180.3069, 237.1875
180.7890, 234.7185
181.2712, 233.5381
181.7533, 233.1935
182.2354, 234.1803
182.7175, 235.7720
183.1996, 236.3673
183.6818, 235.8674
184.1639, 234.7047
184.6460, 232.8536
185.1281, 230.5475
185.6102, 228.9365
186.0923, 229.5098
186.5745, 231.3258
187.0566, 231.1064
187.5387, 228.4008
188.0208, 224.8277
188.5029, 222.3459
188.9850, 220.9190
189.4672, 219.9563
189.9493, 219.1418
190.4314, 218.5290
190.9135, 218.4431
191.3956, 219.0069
191.8777, 219.8363
192.3599, 220.5895
192.8420, 221.2651
193.3241, 221.2829
193.8062, 220.1293
194.2883, 217.8894
194.7704, 215.5439
195.2526, 212.9856
195.7347, 210.6188
196.2168, 209.2144
196.6989, 208.8034
197.1810, 208.9078
197.6632, 209.5252
198.1453, 210.6557
198.6274, 211.2726
199.1095, 211.2903
199.5916, 210.8164
200.0737, 209.8145
200.5559, 208.1220
201.0380, 206.9088
201.5201, 207.3867
202.0022, 209.8080
202.4843, 210.1381
202.9664, 207.3829
203.4486, 203.2218
203.9307, 201.8023
204.4128, 203.7312
204.8949, 205.9879
205.3770, 207.0634
205.8591, 206.8992
206.3413, 205.8406
206.8234, 203.5025
207.3055, 200.5758
207.7876, 198.7667
208.2697, 198.1336
208.7519, 198.4656
209.2340, 200.1775
209.7161, 203.8966
210.1982, 205.6793
210.6803, 204.8014
211.1624, 202.1555
211.6446, 200.0808
212.1267, 198.6062
212.6088, 197.6766
213.0909, 197.4255
213.5730, 198.1474
214.0551, 198.3501
214.5373, 197.6492
215.0194, 196.5219
215.5015, 196.4394
215.9836, 197.8833
216.4657, 199.3978
216.9478, 200.3487
217.4300, 200.7999
217.9121, 200.3975
218.3942, 198.7929
218.8763, 196.4392
219.3584, 194.6325
219.8405, 193.3957
220.3227, 192.6780
220.8048, 192.5795
221.2869, 193.4558
221.7690, 193.8380
222.2511, 193.2603
222.7333, 192.2767
223.2154, 192.8032
223.6975, 196.1611
224.1796, 198.8098
224.6617, 198.7000
225.1438, 194.2524
225.6260, 191.2978
226.1081, 190.4299
226.5902, 191.0308
227.0723, 191.3732
227.5544, 191.2845
228.0365, 191.2234
228.5187, 191.4644
229.0008, 192.3082
229.4829, 192.6618
229.9650, 192.1655
230.4471, 191.2650
230.9292, 191.2019
231.4114, 192.4632
231.8935, 193.8085
232.3756, 194.7467
232.8577, 195.4124
233.3398, 195.2695
233.8220, 193.6713
234.3041, 191.4681
234.7862, 190.9704
235.2683, 193.4525
235.7504, 195.6700
236.2325, 196.1869
236.7147, 194.1790
237.1968, 192.5416
237.6789, 191.1111
238.1610, 190.1231
238.6431, 190.2906
239.1252, 192.7760
239.6074, 194.6308
240.0895, 194.4228
240.5716, 190.8809
241.0537, 189.0210
241.5358, 189.4881
242.0179, 191.3235
242.5001, 192.7285
242.9822, 193.7807
243.4643, 194.2589
243.9464, 193.9197
244.4285, 192.3158
244.9106, 191.3577
245.3928, 191.2137
245.8749, 191.5961
246.3570, 192.0664
246.8391, 192.8155
247.3212, 193.3235
247.8034, 193.5076
248.2855, 193.4876
248.7676, 192.4608
249.2497, 189.5311
249.7318, 186.2455
250.2139, 185.0953
250.6961, 187.1937
251.1782, 189.4301
251.6603, 191.1218
252.1424, 192.3795
252.6245, 192.2678
253.1066, 189.8217
253.5888, 186.8768
254.0709, 186.0178
254.5530, 188.5163
255.0351, 190.4958
255.5172, 190.7543
255.9993, 189.0921
256.4815, 187.9164
256.9636, 187.4819
257.4457, 187.2721
257.9278, 186.6353
258.4099, 185.2746
258.8921, 184.1612
259.3742, 183.5381
259.8563, 183.4160
260.3384, 183.3860
260.8205, 183.4666
261.3026, 183.6156
261.7848, 183.8067
262.2669, 184.0661
262.7490, 184.2967
263.2311, 184.5013
263.7132, 184.6742
264.1953, 184.6439
264.6775, 184.2503
265.1596, 183.9132
265.6417, 184.0753
266.1238, 184.9310
266.6059, 185.6262
267.0880, 186.0835
267.5702, 186.2744
268.0523, 185.8230
268.5344, 184.3467
269.0165, 183.0067
269.4986, 182.8375
269.9807, 184.1841
270.4629, 185.1725
270.9450, 185.5608
271.4271, 185.4173
271.9092, 184.8615
272.3913, 183.6859
272.8734, 182.6842
273.3556, 182.4964
273.8377, 183.2631
274.3198, 183.9114
274.8019, 184.4521
275.2840, 184.7371
275.7661, 184.1863
276.2483, 182.5843
276.7304, 181.0483
277.2125, 180.3053
277.6946, 180.4019
278.1768, 180.5894
278.6589, 180.9356
279.1410, 181.2061
279.6231, 180.7479
280.1052, 179.4217
280.5873, 178.2881
281.0695, 178.0926
281.5516, 178.8164
282.0337, 179.0287
282.5158, 178.6207
282.9979, 177.8524
283.4800, 177.0343
283.9622, 176.1550
284.4443, 175.4402
284.9264, 175.0540
285.4085, 174.9570
285.8906, 174.7500
286.3727, 174.3928
286.8549, 174.0603
287.3370, 174.0530
287.8191, 174.3506
288.3012, 174.5508
288.7833, 174.5233
289.2654, 174.2840
289.7476, 173.8967
290.2297, 173.3696
290.7118, 172.6457
291.1939, 171.4689
291.6760, 169.9568
292.1581, 168.7498
292.6403, 168.0607
293.1224, 167.7976
293.6045, 167.7739
294.0866, 167.9909
294.5687, 168.3689
295.0508, 169.1465
295.5330, 170.0923
296.0151, 170.3376
296.4972, 169.4581
296.9793, 168.0455
297.4614, 167.0620
297.9435, 166.4691
298.4257, 166.0472
298.9078, 165.6888
299.3899, 165.3835
299.8720, 165.0974
300.3541, 164.7827
300.8362, 164.5708
301.3184, 164.7242
301.8005, 165.1599
302.2826, 165.5289
302.7647, 165.5933
303.2469, 165.4729
303.7290, 165.3896
304.2111, 165.4208
304.6932, 165.2788
305.1753, 164.4321
305.6574, 163.1708
306.1396, 162.2150
306.6217, 162.2263
307.1038, 162.5543
307.5859, 162.4775
308.0680, 161.9129
308.5501, 161.3077
309.0323, 160.9440
309.5144, 160.7707
309.9965, 160.7072
310.4786, 160.9452
310.9607, 161.1199
311.4428, 160.9953
311.9250, 160.5686
312.4071, 159.8594
312.8892, 158.6297
313.3713, 157.2342
313.8534, 156.0328
314.3355, 154.9492
314.8177, 154.2849
315.2998, 154.4880
315.7819, 155.3787
316.2640, 156.0027
316.7461, 155.2172
317.2282, 154.3967
317.7104, 154.6990
318.1925, 157.6075
318.6746, 159.8323
319.1567, 159.7165
319.6388, 158.0075
320.1209, 156.6987
320.6031, 156.7955
321.0852, 157.1621
321.5673, 157.2103
322.0494, 156.7287
322.5315, 156.2459
323.0136, 156.0991
323.4958, 155.9835
323.9779, 155.4033
324.4600, 153.4353
324.9421, 151.7505
325.4242, 150.9273
325.9064, 151.1026
326.3885, 151.6189
326.8706, 152.9429
327.3527, 154.3737
327.8348, 155.1900
328.3170, 154.8103
328.7991, 154.4075
329.2812, 154.0978
329.7633, 153.8748
330.2454, 153.8746
330.7275, 154.4236
331.2097, 154.9261
331.6918, 154.9462
332.1739, 154.1707
332.6560, 153.4227
333.1381, 152.9444
333.6202, 152.5838
334.1024, 151.4590
334.5845, 148.6823
335.0666, 146.4774
335.5487, 146.3831
336.0308, 149.7757
336.5129, 151.1283
336.9951, 149.4630
337.4772, 146.2900
337.9593, 144.7379
338.4414, 145.2849
338.9235, 146.0805
339.4056, 146.3916
339.8878, 146.1750
340.3699, 146.0976
340.8520, 146.2124
341.3341, 146.3697
341.8162, 146.3687
342.2983, 146.1965
342.7805, 146.0058
343.2626, 145.9115
343.7447, 145.8386
344.2268, 145.1972
344.7089, 143.8386
345.1910, 142.7436
345.6732, 143.3963
346.1553, 145.4827
346.6374, 146.2225
347.1195, 144.5876
347.6016, 141.8624
348.0837, 140.7139
348.5659, 141.0602
349.0480, 141.6768
349.5301, 141.8283
350.0122, 141.6116
350.4944, 141.2907
350.9765, 140.9435
351.4586, 140.3640
351.9407, 139.0056
352.4228, 137.1338
352.9049, 135.6260
353.3871, 135.0943
353.8692, 135.1128
354.3513, 135.2863
354.8334, 135.6139
355.3155, 135.6667
355.7976, 134.6986
356.2798, 133.2905
356.7619, 132.3682
357.2440, 132.5722
357.7261, 133.1734
358.2082, 133.6904
358.6903, 134.1418
359.1725, 134.6671
359.6546, 135.7883
360.1367, 136.7935
360.6188, 136.9951
361.1009, 135.8132
361.5830, 134.4585
362.0652, 133.2617
362.5473, 132.2688
363.0294, 131.5921
363.5115, 131.3843
363.9936, 131.4153
364.4757, 131.6162
364.9579, 132.0529
365.4400, 132.4238
365.9221, 132.6840
366.4042, 132.8456
366.8863, 132.9234
367.3684, 133.1620
367.8506, 133.0769
368.3327, 132.3040
368.8148, 130.7417
369.2969, 129.8670
369.7790, 130.4598
370.2611, 131.1926
370.7433, 131.1022
371.2254, 129.3218
371.7075, 128.0916
372.1896, 127.7421
372.6717, 128.0854
373.1538, 128.3068
373.6360, 128.1414
374.1181, 128.2789
374.6002, 129.2579
375.0823, 131.6389
375.5645, 132.7351
376.0466, 132.0334
376.5287, 130.6046
377.0108, 130.4438
377.4929, 131.9419
377.9750, 132.7779
378.4572, 131.5812
378.9393, 128.7483
379.4214, 128.5948
379.9035, 131.6543
380.3856, 135.1633
380.8677, 136.1387
381.3499, 134.7714
381.8320, 133.5392
382.3141, 132.9147
382.7962, 132.7736
383.2783, 133.0013
383.7604, 133.5707
384.2426, 134.0642
384.7247, 134.2141
385.2068, 134.0822
385.6889, 133.6776
386.1710, 132.8829
386.6531, 132.3430
387.1353, 132.8659
387.6174, 134.2062
388.0995, 135.7187
388.5816, 137.9982
389.0637, 139.7910
389.5458, 139.1881
390.0280, 136.2421
390.5101, 133.8977
390.9922, 134.6753
391.4743, 136.8882
391.9564, 138.6906
392.4385, 139.3718
392.9207, 139.7026
393.4028, 139.8126
393.8849, 139.8372
394.3670, 140.1933
394.8491, 141.4866
395.3312, 142.8242
395.8134, 143.6743
396.2955, 143.8040
396.7776, 143.9079
397.2597, 143.8358
397.7418, 143.9052
398.2239, 144.5381
398.7061, 146.2370
399.1882, 148.0470
399.6703, 149.8415
400.1524, 151.6304
400.6346, 153.1529
401.1167, 153.8594
401.5988, 154.7580
402.0809, 156.6167
402.5630, 160.2976
403.0451, 163.2230
403.5273, 164.8975
404.0094, 165.7825
404.4915, 167.2048
404.9736, 169.3911
405.4557, 171.5613
405.9378, 173.1979
406.4200, 174.1717
406.9021, 176.2693
407.3842, 179.7627
407.8663, 183.6931
408.3484, 186.7918
408.8305, 189.0569
409.3127, 191.3256
409.7948, 193.6362
410.2769, 196.2195
410.7590, 200.1142
411.2411, 205.3491
411.7232, 210.1639
412.2054, 212.5574
412.6875, 213.5367
413.1696, 216.0078
413.6517, 220.7377
414.1338, 225.9751
414.6159, 229.7355
415.0981, 232.3333
415.5802, 234.5819
416.0623, 236.6572
416.5444, 238.7013
417.0265, 240.6222
417.5086, 242.4401
417.9908, 244.7596
418.4729, 249.1567
418.9550, 253.7580
419.4371, 256.4425
419.9192, 255.2266
420.4013, 253.7197
420.8835, 253.7756
421.3656, 254.7967
421.8477, 254.9806
422.3298, 253.2139
422.8119, 250.9622
423.2940, 248.7871
423.7762, 246.6687
424.2583, 244.9272
424.7404, 244.3441
425.2225, 243.8794
425.7047, 242.2845
426.1868, 238.0766
426.6689, 234.7559
427.1510, 233.3861
427.6331, 233.7025
428.1152, 232.6006
428.5974, 229.8253
429.0795, 225.9768
429.5616, 221.2188
430.0437, 215.3460
430.5258, 209.3574
431.0079, 202.9757
431.4901, 196.9542
431.9722, 192.9778
432.4543, 191.2654
432.9364, 189.4572
433.4185, 186.5432
433.9006, 182.8113
434.3828, 179.5731
434.8649, 176.8357
435.3470, 174.5053
435.8291, 172.5360
436.3112, 170.9045
436.7933, 169.5526
437.2755, 168.4310
437.7576, 167.6425
438.2397, 167.7892
438.7218, 168.5083
439.2039, 168.5819
439.6860, 166.3506
440.1682, 163.6856
440.6503, 162.8291
441.1324, 163.9720
441.6145, 165.0533
442.0966, 164.7297
442.5787, 163.7309
443.0609, 162.8392
443.5430, 162.1906
444.0251, 161.7886
444.5072, 161.8457
444.9893, 162.1983
445.4714, 162.2610
445.9536, 161.4173
446.4357, 160.6627
446.9178, 160.4517
447.3999, 160.9927
447.8820, 161.6170
448.3641, 162.7019
448.8463, 163.6516
449.3284, 163.7107
449.8105, 161.8742
450.2926, 161.0450
450.7747, 162.1483
451.2569, 164.7591
451.7390, 166.2019
452.2211, 166.2850
452.7032, 165.7094
453.1853, 164.6499
453.6674, 163.0358
454.1496, 162.0491
454.6317, 161.8374
455.1138, 161.9665
455.5959, 162.0154
456.0780, 161.9463
456.5602, 161.2775
457.0423, 159.3229
457.5244, 156.9994
458.0065, 156.4953
458.4886, 157.6519
458.9707, 158.6289
459.4529, 157.7126
459.9350, 155.8616
460.4171, 154.6351
460.8992, 154.4421
461.3813, 154.2227
461.8634, 152.8150
462.3456, 150.8675
462.8277, 149.5038
463.3098, 149.7430
463.7919, 150.1634
464.2740, 150.1702
464.7561, 149.7355
465.2383, 148.8503
465.7204, 146.6360
466.2025, 144.5576
466.6846, 143.6016
467.1667, 144.9000
467.6488, 145.6630
468.1310, 145.3787
468.6131, 144.5701
469.0952, 144.0678
469.5773, 144.0635
470.0594, 144.0673
470.5415, 144.0134
471.0237, 143.8951
471.5058, 143.5091
471.9879, 142.8138
472.4700, 141.9435
472.9521, 140.7924
473.4342, 139.3006
473.9164, 138.7975
474.3985, 139.7126
474.8806, 141.0093
475.3627, 140.8899
475.8448, 139.4596
476.3270, 137.7774
476.8091, 135.9364
477.2912, 134.3047
477.7733, 134.0000
478.2554, 134.9243
478.7375, 135.5939
479.2197, 134.5037
479.7018, 132.5983
480.1839, 131.0859
480.6660, 130.0919
481.1481, 129.8505
481.6302, 131.4313
482.1124, 133.7398
482.5945, 134.9231
483.0766, 132.6664
483.5587, 130.6387
484.0408, 130.9289
484.5229, 133.4862
485.0051, 135.0569
485.4872, 134.2439
485.9693, 132.8432
486.4514, 131.9040
486.9335, 131.6996
487.4156, 131.5027
487.8978, 131.2122
488.3799, 130.9856
488.8620, 131.1433
489.3441, 131.9694
489.8262, 132.4548
490.3083, 132.2104
490.7905, 131.3718
491.2726, 131.0079
491.7547, 131.2005
492.2368, 131.4539
492.7189, 131.5150
493.2010, 131.3569
493.6832, 130.5336
494.1653, 128.7620
494.6474, 127.2472
495.1295, 128.0032
495.6116, 130.3446
496.0938, 132.1365
496.5759, 132.0712
497.0580, 131.4455
497.5401, 131.7878
498.0222, 132.8909
498.5044, 133.6837
498.9865, 133.5531
499.4686, 132.8733
499.9507, 131.8006
500.4328, 130.1718
500.9149, 128.8983
501.3971, 128.2871
501.8792, 128.1864
502.3613, 128.4120
502.8434, 129.6761
503.3255, 130.4221
503.8076, 130.0761
504.2898, 128.9213
504.7719, 128.2817
505.2540, 128.4439
505.7361, 128.6958
506.2182, 128.7122
506.7003, 128.4235
507.1825, 128.4107
507.6646, 128.8145
508.1467, 129.1952
508.6288, 128.9998
509.1109, 128.2317
509.5930, 127.4446
510.0752, 126.6358
510.5573, 126.0363
511.0394, 126.3938
511.5215, 127.5278
512.0037, 128.2917
512.4858, 127.5631
512.9679, 126.2957
513.4500, 125.9142
513.9321, 126.4573
514.4142, 127.1364
514.8964, 127.8206
515.3785, 128.1652
515.8606, 127.6606
516.3427, 125.3374
516.8248, 123.6588
517.3069, 124.2557
517.7891, 126.0641
518.2712, 127.1151
518.7533, 126.2960
519.2354, 125.3569
519.7175, 124.8638
520.1996, 124.8066
520.6818, 124.3452
521.1639, 122.9754
521.6460, 121.8219
522.1281, 121.7065
522.6102, 123.0846
523.0923, 123.6208
523.5745, 122.9605
524.0566, 118.9980
524.5387, 122.5573
525.0208, 124.5219
525.5029, 124.9775
525.9850, 119.4045
526.4672, 121.6162
526.9493, 120.7081
527.4314, 119.6721
527.9135, 122.9795
528.3956, 118.2833
528.8777, 121.5218
529.3599, 121.5929
529.8420, 123.1137
530.3241, 121.4954
530.8062, 120.8467
531.2883, 123.3380
531.7704, 124.0906
532.2526, 122.1109
532.7347, 123.7238
533.2168, 118.9180
533.6989, 119.7447
534.1810, 123.0016
534.6631, 121.1798
535.1453, 122.8500
535.6274, 123.1903
536.1095, 122.7307
536.5916, 122.2940
537.0737, 122.5557
537.5558, 119.8695
538.0380, 119.4311
538.5201, 118.1917
539.0022, 117.9021
539.4843, 118.8611
539.9664, 120.3243
540.4485, 121.2729
540.9307, 121.7340
541.4128, 121.9658
541.8949, 122.0704
542.3770, 121.9664
542.8591, 121.2972
543.3412, 120.2013
543.8234, 119.3656
544.3055, 119.2269
544.7876, 119.5378
545.2697, 120.1253
545.7518, 120.9845
546.2339, 121.9371
546.7161, 123.4618
547.1982, 124.7391
547.6803, 125.0541
548.1624, 122.7525
548.6445, 121.3823
549.1266, 121.8187
549.6088, 123.4479
550.0909, 125.1055
550.5730, 127.2514
551.0551, 128.6789
551.5372, 128.8761
552.0193, 127.9894
552.5015, 127.3412
552.9836, 126.8614
553.4657, 126.8650
553.9478, 127.9401
554.4299, 129.9158
554.9120, 130.7488
555.3942, 130.1045
555.8763, 129.4681
556.3584, 130.9274
556.8405, 133.7303
557.3226, 135.9135
557.8047, 136.5590
558.2869, 136.8667
558.7690, 138.0139
559.2511, 139.7146
559.7332, 141.2367
560.2154, 142.1699
560.6975, 142.9087
561.1796, 143.4534
561.6617, 143.8017
562.1439, 144.7948
562.6260, 147.6499
563.1081, 150.4033
563.5902, 151.8610
564.0723, 150.8496
564.5544, 151.1104
565.0366, 153.1867
565.5187, 156.0073
566.0008, 158.1277
566.4829, 159.4815
566.9650, 160.5397
567.4471, 161.2359
567.9293, 161.8587
568.4114, 163.4396
568.8935, 165.8814
569.3756, 167.7473
569.8577, 167.7661
570.3398, 166.8165
570.8220, 166.2993
571.3041, 166.2414
571.7862, 166.6259
572.2683, 167.6315
572.7504, 168.9738
573.2325, 170.5179
573.7147, 172.5461
574.1968, 173.9077
574.6789, 173.4323
575.1610, 172.3013
575.6431, 172.0367
576.1252, 174.0491
576.6074, 175.5322
577.0895, 175.8128
577.5716, 175.2762
578.0537, 175.4187
578.5358, 176.4435
579.0179, 177.6629
579.5001, 178.6634
579.9822, 179.5162
580.4643, 181.4980
580.9464, 184.7790
581.4285, 188.0008
581.9106, 189.5714
582.3928, 190.1228
582.8749, 191.8090
583.3570, 195.0317
583.8391, 198.8532
584.3212, 203.2057
584.8033, 207.3988
585.2855, 210.2449
585.7676, 209.3543
586.2497, 209.1334
586.7318, 212.4949
587.2139, 218.3255
587.6960, 223.4393
588.1782, 226.9600
588.6603, 229.7146
589.1424, 231.6906
589.6245, 232.8601
590.1066, 234.5522
590.5887, 236.7483
591.0709, 239.4620
591.5530, 242.9296
592.0351, 247.3394
592.5172, 251.0738
592.9993, 254.0325
593.4814, 256.4617
593.9636, 258.9797
594.4457, 261.3488
594.9278, 262.1403
595.4099, 260.2216
595.8920, 257.9972
596.3741, 259.4667
596.8563, 263.1997
597.3384, 265.4525
597.8205, 263.2652
598.3026, 259.9303
598.7847, 257.5477
599.2668, 256.0276
599.7490, 254.0733
600.2311, 251.1553
600.7132, 247.8159
601.1953, 244.2473
601.6774, 240.3312
602.1595, 236.5262
602.6417, 232.7707
603.1238, 229.1014
603.6059, 225.4944
604.0880, 221.8218
604.5701, 218.9185
605.0522, 217.1088
605.5344, 215.7010
606.0165, 213.4741
606.4986, 210.5610
606.9807, 207.9276
607.4628, 206.1868
607.9449, 204.7034
608.4271, 202.7048
608.9092, 200.2316
609.3913, 197.5033
609.8735, 193.8244
610.3556, 190.5750
610.8377, 189.0879
611.3198, 189.5249
611.8019, 189.2376
612.2841, 186.7411
612.7662, 183.8459
613.2483, 181.7074
613.7304, 180.8460
614.2125, 179.6522
614.6946, 177.9408
615.1768, 176.0737
615.6589, 174.4430
616.1410, 173.0337
616.6231, 171.8793
617.1052, 171.0348
617.5873, 170.3658
618.0695, 169.6766
618.5516, 168.9639
619.0337, 168.2172
619.5158, 167.3101
619.9979, 166.4481
620.4800, 166.0580
620.9622, 166.0209
621.4443, 165.7323
621.9264, 164.3540
622.4085, 163.0231
622.8906, 162.5969
623.3727, 163.3291
623.8549, 163.7129
624.3370, 162.7556
624.8191, 161.8782
625.3012, 162.1668
625.7833, 164.8283
626.2654, 165.6415
626.7476, 163.8429
627.2297, 161.1691
627.7118, 160.1777
628.1939, 160.9206
628.6760, 161.2024
629.1581, 160.3368
629.6403, 159.0884
630.1224, 158.7306
630.6045, 159.1181
631.0866, 159.6983
631.5687, 160.5406
632.0508, 161.2102
632.5330, 161.1361
633.0151, 160.4590
633.4972, 159.9224
633.9793, 159.7112
634.4614, 159.8251
634.9435, 160.4008
635.4257, 161.6037
635.9078, 162.3725
636.3899, 162.3462
636.8720, 162.2237
637.3541, 162.5545
637.8362, 163.5314
638.3184, 163.9879
638.8005, 163.6809
639.2826, 163.3055
639.7647, 164.0077
640.2468, 165.5895
640.7289, 166.6453
641.2111, 166.7617
641.6932, 166.3725
642.1753, 165.6438
642.6574, 164.8176
643.1395, 164.4874
643.6216, 165.2840
644.1038, 166.3118
644.5859, 167.0402
645.0680, 167.5484
645.5501, 168.2671
646.0322, 170.1318
646.5143, 171.3631
646.9965, 170.9425
647.4786, 168.6948
647.9607, 168.0425
648.4428, 169.5374
648.9249, 171.4946
649.4070, 172.9723
649.8892, 173.9622
650.3713, 174.3266
650.8534, 173.9883
651.3355, 173.4838
651.8176, 173.2416
652.2997, 173.2788
652.7819, 173.6742
653.2640, 174.5288
653.7461, 175.5021
654.2282, 176.4236
654.7103, 177.2683
655.1924, 177.9962
655.6746, 178.9835
656.1567, 179.4309
656.6388, 178.3880
657.1209, 176.6458
657.6030, 176.4768
658.0851, 178.8573
658.5673, 181.0748
659.0494, 182.4232
659.5316, 182.9643
660.0137, 182.7729
660.4958, 181.7409
660.9779, 181.1837
661.4600, 182.6014
661.9421, 184.9997
662.4243, 185.3319
662.9064, 183.5857
663.3885, 182.3901
663.8706, 184.7592
664.3527, 188.1013
664.8348, 189.8195
665.3170, 189.2774
665.7991, 188.0681
666.2812, 185.6102
666.7633, 183.3206
667.2454, 182.6410
667.7275, 184.9012
668.2097, 186.4607
668.6918, 187.0334
669.1739, 187.0489
669.6560, 187.0327
670.1381, 186.9430
670.6202, 187.3393
671.1024, 188.4952
671.5845, 189.9873
672.0666, 191.1530
672.5487, 191.9864
673.0308, 192.4394
673.5129, 192.3305
673.9951, 191.9484
674.4772, 191.2220
674.9593, 190.3380
675.4414, 190.1056
675.9235, 191.4831
676.4056, 192.9938
676.8878, 194.0001
677.3699, 194.4606
677.8520, 194.7319
678.3341, 194.8529
678.8162, 194.7218
679.2983, 194.2263
679.7805, 193.3428
680.2626, 192.3745
680.7447, 191.2559
681.2268, 190.4472
681.7089, 190.6277
682.1910, 191.4645
682.6732, 192.1671
683.1553, 192.6543
683.6374, 192.7758
684.1195, 192.3349
684.6016, 191.4912
685.0837, 190.3925
685.5659, 188.3247
686.0480, 187.0940
686.5301, 187.5610
687.0122, 189.0263
687.4943, 190.3327
687.9764, 191.7912
688.4586, 192.4560
688.9407, 192.1218
689.4228, 190.9298
689.9049, 188.8631
690.3870, 185.8721
690.8691, 183.7109
691.3513, 183.4601
691.8334, 184.2337
692.3155, 184.6177
692.7976, 184.6627
693.2797, 184.6246
693.7618, 184.8741
694.2440, 184.9145
694.7261, 184.3167
695.2082, 183.0867
695.6903, 181.7890
696.1724, 179.9526
696.6545, 178.6582
697.1367, 178.6456
697.6188, 180.2601
698.1009, 180.6274
698.5830, 179.3332
699.0651, 177.7349
699.5472, 176.9662
700.0294, 176.9192
700.5115, 176.7122
700.9936, 176.2898
701.4757, 175.6262
701.9578, 174.7498
702.4399, 173.5959
702.9221, 171.9122
703.4042, 169.2898
703.8863, 167.1025
704.3684, 166.2895
704.8505, 166.2149
705.3326, 166.1381
705.8148, 165.8658
706.2969, 165.6832
706.7790, 165.5467
707.2611, 165.5504
707.7432, 166.0988
708.2253, 167.4200
708.7075, 167.7506
709.1896, 166.4312
709.6718, 164.1701
710.1539, 162.2128
710.6360, 160.5671
711.1181, 159.2258
711.6002, 158.2109
712.0823, 157.4872
712.5645, 157.2387
713.0466, 157.2956
713.5287, 157.0375
714.0108, 155.4271
714.4929, 154.2445
714.9750, 154.4872
715.4572, 156.0080
715.9393, 157.1463
716.4214, 157.9756
716.9035, 158.2684
717.3856, 157.6873
717.8677, 156.3427
718.3499, 155.7052
718.8320, 155.7908
719.3141, 155.7648
719.7962, 154.7905
720.2783, 153.3703
720.7604, 152.2622
721.2426, 151.5491
721.7247, 150.9039
722.2068, 149.6798
722.6889, 148.7596
723.1710, 148.9817
723.6531, 151.2086
724.1353, 152.5674
724.6174, 152.8921
725.0995, 152.3711
725.5816, 150.8235
726.0637, 147.9543
726.5458, 146.2912
727.0280, 146.1690
727.5101, 146.7132
727.9922, 146.9268
728.4743, 146.9137
728.9564, 146.9743
729.4385, 147.1798
729.9207, 147.4670
730.4028, 148.0607
730.8849, 148.6185
731.3670, 148.6555
731.8491, 146.8534
732.3312, 145.9428
732.8134, 147.5052
733.2955, 149.9130
733.7776, 150.3758
734.2597, 148.1331
734.7418, 146.3705
735.2239, 145.8846
735.7061, 146.1124
736.1882, 145.7782
736.6703, 144.9576
737.1524, 144.2085
737.6345, 143.4836
738.1166, 143.2132
738.5988, 144.3051
739.0809, 146.2896
739.5630, 147.8250
740.0451, 147.9630
740.5272, 147.9294
741.0093, 148.3584
741.4915, 149.1137
741.9736, 149.2235
742.4557, 148.2316
742.9378, 147.4668
743.4199, 147.4230
743.9020, 148.0055
744.3842, 148.8381
744.8663, 149.9280
745.3484, 150.6470
745.8305, 150.1996
746.3126, 149.3488
746.7947, 149.4026
747.2769, 150.2688
747.7590, 150.9406
748.2411, 150.4546
748.7232, 149.9574
749.2053, 150.2485
749.6874, 151.5181
750.1696, 152.3952
750.6517, 152.5285
751.1338, 152.7115
751.6159, 153.5663
752.0980, 155.1619
752.5801, 155.5070
753.0623, 154.4192
753.5444, 153.5669
754.0265, 154.9372
754.5086, 157.3802
754.9907, 158.5071
755.4728, 158.0329
755.9550, 157.4944
756.4371, 157.7718
756.9192, 158.4585
757.4013, 159.3048
757.8835, 160.4715
758.3656, 161.1967
758.8477, 161.1866
759.3298, 161.0256
759.8120, 161.2232
760.2941, 161.8406
760.7762, 162.2681
761.2583, 162.4583
761.7404, 162.5541
762.2225, 162.7713
762.7047, 163.0127
763.1868, 163.0333
763.6689, 162.7622
764.1510, 162.3877
764.6331, 161.5734
765.1152, 160.9466
765.5974, 161.2134
766.0795, 163.4652
766.5616, 165.0844
767.0437, 165.5279
767.5258, 165.6214
768.0079, 166.5045
768.4901, 168.3881
768.9722, 169.1660
769.4543, 168.3155
769.9364, 166.9862
770.4185, 167.0510
770.9006, 167.8865
771.3828, 167.7097
771.8649, 165.3450
772.3470, 163.3911
772.8291, 164.2960
773.3112, 166.4343
773.7933, 167.5583
774.2755, 165.8917
774.7576, 164.9420
775.2397, 165.4581
775.7218, 166.5099
776.2039, 166.4982
776.6860, 165.2702
777.1682, 164.3685
777.6503, 164.1310
778.1324, 164.2879
778.6145, 164.6188
779.0966, 165.0032
779.5787, 165.1180
780.0609, 164.7617
780.5430, 164.2309
781.0251, 163.8018
781.5072, 163.2972
781.9893, 162.4055
782.4714, 160.0614
782.9536, 158.6948
783.4357, 159.0457
783.9178, 160.2328
784.3999, 160.1993
784.8820, 158.8047
785.3641, 158.3857
785.8463, 160.0815
786.3284, 162.2198
786.8105, 161.7310
787.2926, 159.4835
787.7747, 157.6069
788.2568, 157.2644
788.7390, 157.2883
789.2211, 157.4239
789.7032, 157.4949
790.1853, 157.0507
790.6674, 155.6351
791.1495, 154.3567
791.6317, 153.3230
792.1138, 152.5871
792.5959, 152.4970
793.0780, 153.0484
793.5601, 153.2390
794.0422, 152.5427
794.5244, 151.5787
795.0065, 151.2457
795.4886, 151.3310
795.9707, 151.3313
796.4528, 151.2506
796.9349, 150.8119
797.4171, 149.4706
797.8992, 147.6940
798.3813, 146.8315
798.8634, 147.3013
799.3455, 147.8368
799.8276, 148.3247
800.3098, 148.5656
800.7919, 147.7843
801.2740, 146.1128
801.7561, 144.8684
802.2382, 144.6586
802.7203, 144.9917
803.2025, 145.9128
803.6846, 146.9446
804.1667, 147.0139
804.6488, 144.5560
805.1309, 142.3957
805.6130, 141.3815
806.0952, 141.2477
806.5773, 141.6400
807.0594, 142.8937
807.5416, 143.4735
808.0237, 142.7781
808.5058, 141.4738
808.9879, 141.2811
809.4700, 141.8362
809.9521, 141.5201
810.4343, 138.6597
810.9164, 135.9405
811.3985, 135.8905
811.8806, 137.4531
812.3627, 138.4102
812.8448, 137.5958
813.3270, 136.8683
813.8091, 136.4984
814.2912, 136.4252
814.7733, 136.7387
815.2554, 137.5462
815.7375, 137.4983
816.2197, 135.8943
816.7018, 133.8603
817.1839, 133.5276
817.6660, 134.2416
818.1481, 134.4562
818.6302, 132.9020
819.1124, 131.5432
819.5945, 131.7258
820.0766, 132.6347
820.5587, 132.6174
821.0408, 130.8105
821.5229, 129.6414
822.0051, 129.6802
822.4872, 130.1796
822.9693, 129.6385
823.4514, 128.1700
823.9335, 127.0562
824.4156, 126.7654
824.8978, 126.6298
825.3799, 125.8176
825.8620, 124.6800
826.3441, 123.8083
826.8262, 123.8362
827.3083, 123.5494
827.7905, 121.8871
828.2726, 120.1588
828.7547, 120.3498
829.2368, 123.3050
829.7189, 124.3564
830.2010, 122.4474
830.6832, 119.6143
831.1653, 118.7957
831.6474, 119.3636
832.1295, 119.5342
832.6116, 118.7199
833.0938, 117.8656
833.5759, 117.8587
834.0580, 118.0186
834.5401, 117.5746
835.0222, 115.6223
835.5043, 114.2285
835.9865, 113.4201
836.4686, 113.1385
836.9507, 113.5229
837.4328, 114.5355
837.9149, 115.1760
838.3970, 115.3213
838.8792, 115.1970
839.3613, 114.9605
839.8434, 114.6293
840.3255, 114.2013
840.8076, 113.6286
841.2897, 113.1485
841.7719, 112.9230
842.2540, 112.7611
842.7361, 112.5077
843.2182, 112.1112
843.7003, 111.8372
844.1824, 111.7104
844.6646, 111.6229
845.1467, 111.5389
845.6288, 111.4116
846.1109, 110.9759
846.5930, 110.2057
847.0751, 109.7751
847.5573, 110.7037
848.0394, 111.7248
848.5215, 111.7834
849.0036, 110.5576
849.4857, 109.7188
849.9678, 109.4719
850.4500, 109.3527
850.9321, 109.2417
851.4142, 109.0891
851.8963, 107.9891
852.3784, 105.9758
852.8605, 104.5979
853.3427, 105.8440
853.8248, 107.6970
854.3069, 107.7249
854.7890, 106.0786
855.2711, 105.1472
855.7532, 107.1041
856.2354, 108.4001
856.7175, 107.2715
857.1996, 104.2449
857.6818, 103.3517
858.1639, 104.8968
858.6460, 106.2967
859.1281, 106.1373
859.6102, 105.2315
860.0923, 105.2202
860.5745, 105.8165
861.0566, 106.0427
861.5387, 104.9907
862.0208, 103.9308
862.5029, 103.2203
862.9850, 102.9642
863.4672, 103.4697
863.9493, 105.3794
864.4314, 106.3240
864.9135, 105.4636
865.3956, 103.7678
865.8777, 103.3913
866.3599, 104.0130
866.8420, 104.2554
867.3241, 103.3836
867.8062, 102.4666
868.2883, 102.3221
868.7704, 102.6378
869.2526, 102.9551
869.7347, 103.4298
870.2168, 103.4997
870.6989, 102.9244
871.1810, 102.1852
871.6631, 102.0884
872.1453, 102.5668
872.6274, 102.2335
873.1095, 100.7450
873.5916, 99.22588
874.0737, 98.63618
874.5558, 98.80478
875.0380, 99.66506
875.5201, 101.5527
876.0022, 102.9672
876.4843, 103.3370
876.9664, 103.2846
877.4485, 103.0589
877.9307, 102.5537
878.4128, 102.8943
878.8949, 104.2320
879.3770, 105.2356
879.8591, 104.2950
880.3412, 102.5098
880.8234, 101.6901
881.3055, 101.9260
881.7876, 102.1952
882.2697, 102.0341
882.7518, 101.7773
883.2339, 101.5084
883.7161, 101.2451
884.1982, 101.4960
884.6803, 102.4984
885.1624, 103.0115
885.6445, 101.9830
886.1266, 100.2917
886.6088, 100.1531
887.0909, 101.2690
887.5730, 102.4003
888.0551, 102.9617
888.5372, 103.3401
889.0193, 103.8505
889.5015, 104.3284
889.9836, 104.2464
890.4657, 103.3216
890.9478, 102.5245
891.4299, 102.0768
891.9120, 101.8201
892.3942, 101.3676
892.8763, 100.8122
893.3584, 100.6354
893.8405, 101.2529
894.3226, 101.6320
894.8047, 100.2253
895.2869, 98.47451
895.7690, 98.19772
896.2511, 101.1682
896.7332, 103.3308
897.2153, 104.6486
897.6974, 105.1397
898.1796, 104.3814
898.6617, 102.6228
899.1438, 101.6374
899.6259, 101.5891
900.1080, 102.1775
900.5901, 103.7407
901.0723, 105.4247
901.5544, 106.4313
902.0365, 106.5864
902.5186, 106.5832
903.0007, 106.5212
903.4828, 106.2929
903.9650, 105.7053
904.4471, 104.8511
904.9292, 104.7178
905.4113, 105.2692
905.8935, 105.7643
906.3756, 105.7637
906.8577, 105.4668
907.3398, 104.5058
907.8220, 103.3002
908.3041, 103.4515
908.7862, 107.3714
909.2683, 110.1873
909.7504, 110.5805
910.2325, 109.4200
910.7147, 108.6554
911.1968, 108.2834
911.6789, 108.5895
912.1610, 110.0149
912.6431, 111.2873
913.1252, 110.5946
913.6074, 108.8971
914.0895, 107.6598
914.5716, 107.4080
915.0537, 107.4382
915.5358, 107.5313
916.0179, 107.9543
916.5001, 109.2008
916.9822, 111.3550
917.4643, 112.5535
917.9464, 112.6177
918.4285, 112.3967
918.9106, 112.6201
919.3928, 113.0527
919.8749, 113.4360
920.3570, 113.7425
920.8391, 113.9989
921.3212, 113.9807
921.8033, 114.1686
922.2855, 114.8105
922.7676, 115.8650
923.2497, 116.9755
923.7318, 118.1515
924.2139, 118.8903
924.6960, 118.3298
925.1782, 117.6728
925.6603, 118.8551
926.1424, 121.2268
926.6245, 123.0549
927.1066, 122.9974
927.5887, 123.2107
928.0709, 124.2366
928.5530, 125.7239
929.0351, 127.0053
929.5172, 128.0698
929.9993, 129.2803
930.4814, 130.6532
930.9636, 132.3712
931.4457, 135.5907
931.9278, 138.8865
932.4099, 139.8804
932.8920, 136.8377
933.3741, 135.4475
933.8563, 138.6448
934.3384, 142.3678
934.8205, 143.8667
935.3026, 143.0285
935.7847, 143.0949
936.2668, 144.0853
936.7490, 145.5654
937.2311, 147.5795
937.7132, 149.6757
938.1953, 150.7850
938.6774, 151.2325
939.1595, 153.0040
939.6417, 158.7595
940.1238, 163.3957
940.6059, 165.1674
941.0880, 165.0591
941.5701, 165.7333
942.0522, 167.2042
942.5344, 169.7247
943.0165, 173.6738
943.4986, 178.1356
943.9807, 182.5559
944.4628, 186.6979
944.9449, 190.1818
945.4271, 192.5884
945.9092, 194.8819
946.3913, 196.8015
946.8734, 199.0910
947.3555, 202.7872
947.8376, 207.7446
948.3198, 211.2952
948.8019, 213.2027
949.2840, 216.1590
949.7661, 223.9001
950.2482, 232.5558
950.7303, 237.8962
951.2125, 239.7205
951.6946, 243.9411
952.1767, 252.2515
952.6588, 261.2534
953.1409, 270.0979
953.6230, 278.6325
954.1052, 286.2066
954.5873, 293.0688
955.0695, 300.7335
955.5516, 309.6001
956.0337, 319.8706
956.5158, 332.5967
956.9979, 346.4334
957.4800, 359.2362
957.9622, 369.3238
958.4443, 381.1107
958.9264, 394.9729
959.4085, 410.2735
959.8906, 426.6758
960.3727, 444.1483
960.8549, 462.1451
961.3370, 480.7594
961.8191, 500.1699
962.3012, 520.8781
962.7833, 542.4340
963.2654, 564.1074
963.7476, 585.9822
964.2297, 609.5460
964.7118, 634.2980
965.1939, 661.0730
965.6760, 690.8801
966.1581, 722.2356
966.6403, 752.1215
967.1224, 781.1873
967.6045, 812.2791
968.0866, 847.7075
968.5687, 883.6554
969.0508, 918.4729
969.5330, 953.3938
970.0151, 990.9089
970.4972, 1031.353
970.9793, 1071.133
971.4614, 1109.521
971.9435, 1148.107
972.4257, 1189.099
972.9078, 1230.993
973.3899, 1272.441
973.8720, 1313.086
974.3541, 1351.900
974.8362, 1389.482
975.3184, 1424.630
975.8005, 1456.695
976.2826, 1485.957
976.7647, 1512.555
977.2468, 1536.369
977.7289, 1553.615
978.2111, 1563.190
978.6932, 1564.264
979.1753, 1556.612
979.6574, 1539.708
980.1395, 1512.524
980.6216, 1474.090
981.1038, 1425.070
981.5859, 1363.711
982.0680, 1294.960
982.5501, 1224.252
983.0322, 1151.457
983.5143, 1076.890
983.9965, 1000.079
984.4786, 926.9832
984.9607, 861.9811
985.4428, 802.5266
985.9249, 746.7792
986.4070, 694.8776
986.8892, 647.2535
987.3713, 604.4494
987.8534, 565.6041
988.3355, 530.4033
988.8176, 499.0597
989.2997, 472.9214
989.7819, 451.0953
990.2640, 430.8423
990.7461, 410.6599
991.2282, 392.8821
991.7103, 379.2905
992.1924, 368.2504
992.6746, 358.0656
993.1567, 348.8150
993.6388, 339.6865
994.1209, 330.5439
994.6030, 321.9944
995.0851, 314.7301
995.5673, 308.2903
996.0494, 302.0503
996.5315, 295.9843
997.0136, 290.6379
997.4957, 286.5244
997.9778, 282.7056
998.4600, 279.1013
998.9421, 275.5690
999.4242, 271.2962
999.9063, 266.5158
1000.388, 263.3968
1000.871, 263.2270
1001.353, 263.4937
1001.835, 262.0800
1002.317, 259.7769
1002.799, 257.4452
1003.281, 254.8065
1003.763, 253.2396
1004.245, 253.0882
1004.728, 253.1669
1005.210, 252.7262
1005.692, 251.7596
1006.174, 249.6055
1006.656, 246.5976
1007.138, 244.9855
1007.620, 247.6240
1008.102, 250.1672
1008.584, 250.3280
1009.067, 248.9699
1009.549, 248.0210
1010.031, 247.5033
1010.513, 247.0691
1010.995, 246.6005
1011.477, 246.3534
1011.959, 246.5036
1012.441, 247.1364
1012.924, 248.5569
1013.406, 251.1110
1013.888, 253.0633
1014.370, 254.3059
1014.852, 254.6443
1015.334, 253.4442
1015.816, 251.1999
1016.298, 251.2055
1016.780, 253.1923
1017.263, 255.1526
1017.745, 255.9018
1018.227, 256.3715
1018.709, 257.1167
1019.191, 257.9949
1019.673, 258.7220
1020.155, 259.2506
1020.637, 259.6730
1021.120, 259.8964
1021.602, 260.3694
1022.084, 262.0293
1022.566, 264.1319
1023.048, 265.0565
1023.530, 264.6615
1024.012, 264.7269
1024.494, 266.5567
1024.976, 268.3466
1025.458, 269.1614
1025.941, 269.4114
1026.423, 271.1307
1026.905, 274.2053
1027.387, 276.3011
1027.869, 276.1683
1028.351, 275.6510
1028.833, 276.3236
1029.316, 277.6931
1029.798, 279.1768
1030.280, 280.8697
1030.762, 282.2644
1031.244, 283.4282
1031.726, 284.0882
1032.208, 283.6714
1032.690, 282.6788
1033.172, 282.8236
1033.655, 283.8225
1034.137, 284.0460
1034.619, 281.1309
1035.101, 279.1035
1035.583, 280.7823
1036.065, 283.7111
1036.547, 283.0223
1037.029, 278.5806
1037.511, 274.8907
1037.994, 272.7650
1038.476, 271.2353
1038.958, 270.1770
1039.440, 268.7417
1039.922, 265.7794
1040.404, 260.8952
1040.886, 256.8770
1041.368, 254.2066
1041.851, 251.6080
1042.333, 248.6579
1042.815, 245.2567
1043.297, 240.3972
1043.779, 234.8261
1044.261, 231.0881
1044.743, 231.7315
1045.225, 231.8668
1045.708, 229.2552
1046.190, 225.4853
1046.672, 221.6560
1047.154, 217.5691
1047.636, 216.2217
1048.118, 217.8230
1048.600, 218.7330
1049.082, 215.3471
1049.564, 210.5292
1050.047, 206.5650
1050.529, 203.5594
1051.011, 201.8421
1051.493, 202.0027
1051.975, 202.1058
1052.457, 201.9237
1052.939, 201.3224
1053.421, 199.6291
1053.903, 197.4504
1054.386, 196.3638
1054.868, 196.8398
1055.350, 196.8960
1055.832, 194.8288
1056.314, 192.9104
1056.796, 192.4872
1057.278, 193.3338
1057.760, 193.7509
1058.243, 193.7390
1058.725, 193.0721
1059.207, 190.8403
1059.689, 189.1969
1060.171, 191.0635
1060.653, 194.3312
1061.135, 195.8224
1061.617, 193.7271
1062.099, 193.4092
1062.582, 195.4301
1063.064, 197.4553
1063.546, 197.3025
1064.028, 195.9393
1064.510, 194.8964
1064.992, 194.3520
1065.474, 194.8579
1065.956, 198.2089
1066.438, 200.5912
1066.921, 200.7029
1067.403, 199.7446
1067.885, 200.2151
1068.367, 201.7761
1068.849, 201.0865
1069.331, 197.4959
1069.813, 193.3739
1070.295, 189.7291
1070.778, 186.8047
1071.260, 185.0375
1071.742, 184.3294
1072.224, 183.7854
1072.706, 183.5244
1073.188, 182.6475
1073.670, 180.5721
1074.152, 178.1915
1074.635, 176.8023
1075.117, 175.9162
1075.599, 174.6986
1076.081, 172.7592
1076.563, 171.0113
1077.045, 169.7560
1077.527, 168.3017
1078.009, 165.7246
1078.491, 162.6044
1078.974, 161.5639
1079.456, 162.2182
1079.938, 162.6036
1080.420, 161.6528
1080.902, 160.3523
1081.384, 158.4650
1081.866, 156.8121
1082.348, 156.8395
1082.831, 158.6704
1083.313, 158.8472
1083.795, 157.0342
1084.277, 154.7505
1084.759, 152.8958
1085.241, 151.4378
1085.723, 150.6968
1086.205, 150.4809
1086.688, 149.1196
1087.170, 145.8877
1087.652, 143.9628
1088.134, 144.4291
1088.616, 145.6622
1089.098, 145.5330
1089.580, 144.4504
1090.062, 142.8246
1090.544, 140.4507
1091.026, 139.2085
1091.509, 140.2247
1091.991, 141.2431
1092.473, 141.2864
1092.955, 140.5558
1093.437, 139.6255
1093.919, 138.5434
1094.401, 137.5006
1094.883, 136.2869
1095.366, 135.5962
1095.848, 136.5142
1096.330, 137.5305
1096.812, 137.1981
1097.294, 135.3801
1097.776, 133.2642
1098.258, 130.8487
1098.740, 129.4041
1099.223, 130.4812
1099.705, 132.2343
1100.187, 133.2793
1100.669, 133.7737
1101.151, 134.2663
1101.633, 135.0536
1102.115, 134.9139
1102.597, 133.5276
1103.079, 132.0641
1103.562, 131.7849
1104.044, 132.2330
1104.526, 132.9761
1105.008, 133.9213
1105.490, 134.4098
1105.972, 134.1066
1106.454, 133.5528
1106.936, 132.6749
1107.418, 131.8974
1107.901, 132.2171
1108.383, 133.3092
1108.865, 134.1796
1109.347, 134.5344
1109.829, 135.2444
1110.311, 137.3069
1110.793, 139.1896
1111.275, 139.9140
1111.758, 141.5119
1112.240, 140.9762
1112.722, 143.2816
1113.204, 144.9195
1113.686, 145.0449
1114.168, 144.6631
1114.650, 143.9530
1115.132, 143.4269
1115.615, 143.6594
1116.097, 144.7453
1116.579, 146.0858
1117.061, 147.7136
1117.543, 148.9797
1118.025, 148.6982
1118.507, 148.4608
1118.989, 150.8334
1119.471, 154.4012
1119.953, 155.8304
1120.436, 153.5295
1120.918, 151.8078
1121.400, 150.9909
1121.882, 150.3945
1122.364, 149.7973
1122.846, 148.7668
1123.328, 146.1768
1123.810, 142.2734
1124.293, 138.8459
1124.775, 136.5569
1125.257, 134.6312
1125.739, 133.1247
1126.221, 131.6775
1126.703, 129.7047
1127.185, 127.3420
1127.667, 125.1521
1128.150, 123.2102
1128.632, 120.7593
1129.114, 116.0821
1129.596, 112.4329
1130.078, 111.5411
1130.560, 112.3613
1131.042, 111.7547
1131.524, 109.8880
1132.006, 107.6427
1132.489, 105.0277
1132.971, 103.0215
1133.453, 103.0260
1133.935, 103.3155
1134.417, 102.4410
1134.899, 100.4628
1135.381, 99.17912
1135.863, 98.57626
1136.346, 98.04778
1136.828, 97.37711
1137.310, 96.62398
1137.792, 95.55271
1138.274, 94.57523
1138.756, 94.45310
1139.238, 95.68169
1139.720, 95.20438
1140.203, 92.68703
1140.685, 90.59326
1141.167, 90.87760
1141.649, 92.11276
1142.131, 92.83214
1142.613, 93.05459
1143.095, 92.82998
1143.577, 92.02795
1144.059, 90.97133
1144.542, 89.51759
1145.024, 88.29942
1145.506, 88.05497
1145.988, 88.36731
1146.470, 88.80392
1146.952, 89.17996
1147.434, 88.84160
1147.916, 86.74427
1148.398, 85.06969
1148.881, 84.07631
1149.363, 83.62154
1149.845, 83.89285
1150.327, 84.49400
1150.809, 84.14195
1151.291, 82.83080
1151.773, 82.20946
1152.255, 84.18871
1152.738, 85.39769
1153.220, 84.52962
1153.702, 82.71399
1154.184, 82.10682
1154.666, 82.48206
1155.148, 83.14487
1155.630, 84.04845
1156.112, 84.27384
1156.594, 82.37170
1157.077, 80.68502
1157.559, 80.48778
1158.041, 81.32963
1158.523, 82.11665
1159.005, 82.64701
1159.487, 80.67403
1159.969, 74.42506
1160.451, 70.24708
1160.933, 74.82618
1161.416, 81.19341
1161.898, 84.39999
1162.380, 84.57864
1162.862, 83.16706
1163.344, 80.26183
1163.826, 78.49142
1164.308, 79.47009
1164.790, 80.73676
1165.273, 80.20470
1165.755, 79.03951
1166.237, 78.49433
1166.719, 78.65697
1167.201, 78.84232
1167.683, 79.04979
1168.165, 79.30486
1168.647, 79.66467
1169.130, 80.03029
1169.612, 80.22837
1170.094, 80.40097
1170.576, 80.81768
1171.058, 81.67685
1171.540, 82.02965
1172.022, 81.81020
1172.504, 81.56974
1172.986, 81.91704
1173.469, 82.26304
1173.951, 81.75868
1174.433, 80.77303
1174.915, 80.27326
1175.397, 80.77546
1175.879, 80.35316
1176.361, 78.65601
1176.843, 77.25777
1177.326, 77.96139
1177.808, 79.44997
1178.290, 80.19899
1178.772, 80.24832
1179.254, 80.02124
1179.736, 79.71685
1180.218, 78.63421
1180.700, 76.30119
1181.182, 74.52110
1181.665, 76.29297
1182.147, 79.25272
1182.629, 79.36668
1183.111, 76.94675
1183.593, 75.91044
1184.075, 78.12933
1184.557, 79.02083
1185.039, 77.40572
1185.521, 75.31142
1186.004, 75.95724
1186.486, 77.76596
1186.968, 77.96207
1187.450, 76.35072
1187.932, 75.37017
1188.414, 75.90224
1188.896, 76.30807
1189.378, 76.12460
1189.861, 75.80108
1190.343, 76.23933
1190.825, 76.99802
1191.307, 77.16271
1191.789, 76.54316
1192.271, 76.29333
1192.753, 77.11852
1193.235, 77.40379
1193.718, 76.33664
1194.200, 74.94961
1194.682, 75.66283
1195.164, 77.40705
1195.646, 77.85429
1196.128, 76.27230
1196.610, 75.09251
1197.092, 75.21851
1197.574, 75.12249
1198.057, 74.02277
1198.539, 72.54160
1199.021, 72.02249
1199.503, 72.21586
1199.985, 72.51147
1200.467, 72.61448
1200.949, 73.48323
1201.431, 76.33714
1201.913, 78.09077
1202.396, 76.58040
1202.878, 73.51330
1203.360, 73.62278
1203.842, 75.75345
1204.324, 76.91428
1204.806, 75.91690
1205.288, 74.73482
1205.770, 73.48196
1206.253, 72.56646
1206.735, 72.27627
1207.217, 72.47000
1207.699, 73.18047
1208.181, 74.00039
1208.663, 73.76034
1209.145, 70.75309
1209.627, 69.38969
1210.109, 70.97908
1210.592, 72.95532
1211.074, 73.56120
1211.556, 73.23465
1212.038, 73.26116
1212.520, 73.48706
1213.002, 73.47894
1213.484, 73.07780
1213.966, 72.35471
1214.448, 71.04762
1214.931, 69.96596
1215.413, 70.04534
1215.895, 70.76247
1216.377, 70.29252
1216.859, 69.13014
1217.341, 68.84754
1217.823, 71.62210
1218.305, 72.76680
1218.788, 71.12782
1219.270, 69.21263
1219.752, 69.59455
1220.234, 71.16562
1220.716, 70.85376
1221.198, 69.20291
1221.680, 68.24257
1222.162, 69.35976
1222.645, 70.31910
1223.127, 71.13484
1223.609, 71.30730
1224.091, 69.61077
1224.573, 67.24287
1225.055, 67.11250
1225.537, 68.73463
1226.019, 69.93384
1226.501, 69.59586
1226.984, 69.38560
1227.466, 69.50457
1227.948, 69.58462
1228.430, 68.96558
1228.912, 68.19493
1229.394, 68.75202
1229.876, 67.79499
1230.358, 70.33897
1230.841, 67.25273
1231.323, 65.72438
1231.805, 66.52048
1232.287, 67.94734
1232.769, 68.44886
1233.251, 68.32462
1233.733, 67.69038
1234.215, 66.78722
1234.698, 66.72658
1235.180, 68.38500
1235.662, 69.07146
1236.144, 68.31883
1236.626, 67.24835
1237.108, 66.74193
1237.590, 66.82384
1238.072, 68.13260
1238.554, 70.20886
1239.036, 70.54247
1239.519, 68.19473
1240.001, 66.73650
1240.483, 66.67123
1240.965, 67.19003
1241.447, 67.75575
1241.929, 68.25117
1242.411, 68.60539
1242.893, 68.76608
1243.376, 68.50085
1243.858, 67.62383
1244.340, 67.28017
1244.822, 67.71020
1245.304, 68.06302
1245.786, 67.07343
1246.268, 66.03458
1246.750, 66.51736
1247.233, 68.03193
1247.715, 68.16313
1248.197, 66.68635
1248.679, 65.89310
1249.161, 66.14782
1249.643, 66.59061
1250.125, 66.20610
1250.607, 65.97601
1251.089, 67.19546
1251.572, 66.83091
1252.054, 66.79277
1252.536, 67.32571
1253.018, 66.39157
1253.500, 66.71849
1253.982, 66.99773
1254.464, 65.96490
1254.946, 64.87202
1255.428, 64.42106
1255.911, 64.47694
1256.393, 65.08012
1256.875, 66.09346
1257.357, 65.84923
1257.839, 64.09898
1258.321, 63.20390
1258.803, 65.95702
1259.285, 68.30986
1259.768, 68.64052
1260.250, 67.55782
1260.732, 65.61070
1261.214, 63.22712
1261.696, 62.43810
1262.178, 63.47385
1262.660, 64.30039
1263.142, 63.42522
1263.625, 62.98417
1264.107, 63.86727
1264.589, 65.06212
1265.071, 64.69024
1265.553, 63.38448
1266.035, 62.80133
1266.517, 63.07485
1266.999, 63.09997
1267.481, 62.06804
1267.964, 61.56606
1268.446, 61.98280
1268.928, 62.89627
1269.410, 64.17751
1269.892, 65.30177
1270.374, 65.09454
1270.856, 65.47243
1271.338, 65.48931
1271.820, 64.35818
1272.303, 64.54531
1272.785, 62.76041
1273.267, 60.91135
1273.749, 62.07188
1274.231, 63.86184
1274.713, 62.92910
1275.195, 59.71239
1275.677, 58.97631
1276.160, 61.46642
1276.642, 62.74645
1277.124, 61.92974
1277.606, 60.89772
1278.088, 61.00177
1278.570, 62.00437
1279.052, 64.66548
1279.534, 67.93937
1280.016, 68.60531
1280.499, 66.58671
1280.981, 64.36363
1281.463, 62.20560
1281.945, 60.85064
1282.427, 61.56554
1282.909, 62.43402
1283.391, 62.36907
1283.873, 61.72740
1284.356, 60.94083
1284.838, 60.10907
1285.320, 59.99503
1285.802, 60.64678
1286.284, 61.21265
1286.766, 61.33580
1287.248, 61.12592
1287.730, 60.56200
1288.213, 59.82643
1288.695, 58.91020
1289.177, 58.08280
1289.659, 58.21205
1290.141, 59.25902
1290.623, 60.25887
1291.105, 60.90709
1291.587, 61.46864
1292.069, 62.00975
1292.552, 62.40010
1293.034, 62.66742
1293.516, 62.57763
1293.998, 61.27804
1294.480, 59.15155
1294.962, 58.49221
1295.444, 59.99335
1295.926, 61.03217
1296.408, 61.29721
1296.891, 61.26340
1297.373, 61.30058
1297.855, 61.29785
1298.337, 61.08447
1298.819, 60.76661
1299.301, 60.61990
1299.783, 60.65779
1300.265, 60.71888
1300.748, 60.79191
1301.230, 60.89116
1301.712, 60.95330
1302.194, 61.13341
1302.676, 61.52930
##END=



