##NAMES=Triphylite
##RRUFFID=R050624
##IDEAL CHEMISTRY=LiFe^2+^PO_4_
##LOCALITY=Minas Gerais, Brazil
##OWNER=RRUFF
##SOURCE=Gemological Center
##DESCRIPTION=Brown fragment
##STATUS=The identification of this mineral has been confirmed by X-ray diffraction and chemical analysis
##URL=rruff.info/R050624
##MEASURED CHEMISTRY=Li_1.00_(Fe^2+^_0.55_Mn^2+^_0.45_)_Î£=1_P_1.00_O_4_ ; Li not measured, but estimated by difference
92.06543, 611.8967
92.54755, 607.4593
93.02966, 609.3273
93.51178, 615.3593
93.99390, 618.6026
94.47601, 620.0258
94.95813, 619.9092
95.44025, 617.9318
95.92236, 613.7481
96.40448, 607.0259
96.88660, 600.0873
97.36871, 592.9625
97.85082, 586.1443
98.33294, 580.2799
98.81506, 575.1116
99.29717, 568.6572
99.77929, 561.1267
100.2614, 552.8312
100.7435, 544.3706
101.2256, 535.4227
101.7078, 526.2592
102.1899, 517.3906
102.6720, 507.8502
103.1541, 500.1683
103.6362, 497.0725
104.1183, 498.4157
104.6005, 499.5898
105.0826, 496.4989
105.5647, 488.6358
106.0468, 480.4737
106.5289, 472.6175
107.0110, 464.7346
107.4931, 456.5343
107.9753, 447.8966
108.4574, 439.1578
108.9395, 430.8986
109.4216, 422.8391
109.9037, 415.8099
110.3858, 410.2614
110.8680, 405.4870
111.3501, 400.7575
111.8322, 395.6447
112.3143, 390.3115
112.7964, 385.7377
113.2785, 382.5659
113.7607, 379.3785
114.2428, 375.4992
114.7249, 371.2560
115.2070, 367.5905
115.6891, 365.4309
116.1712, 364.6700
116.6534, 362.6579
117.1355, 358.3369
117.6176, 353.5616
118.0997, 349.7380
118.5818, 346.9975
119.0639, 344.6508
119.5461, 341.7634
120.0282, 338.6752
120.5103, 336.7070
120.9924, 337.3028
121.4745, 339.2592
121.9566, 339.7322
122.4388, 338.0426
122.9209, 335.3613
123.4030, 332.0715
123.8851, 328.4626
124.3672, 325.5251
124.8493, 324.6663
125.3315, 326.1258
125.8136, 326.0923
126.2957, 321.9642
126.7778, 317.9917
127.2599, 316.2151
127.7420, 316.7122
128.2242, 317.9592
128.7063, 317.8452
129.1884, 315.3565
129.6705, 313.5518
130.1526, 312.3804
130.6347, 311.7907
131.1169, 311.9606
131.5990, 312.8968
132.0811, 314.1818
132.5632, 314.8888
133.0453, 313.7750
133.5274, 313.6125
134.0096, 315.2308
134.4917, 317.7548
134.9738, 319.8799
135.4559, 320.9415
135.9380, 321.3651
136.4201, 322.6006
136.9023, 324.9670
137.3844, 327.5218
137.8665, 329.7677
138.3486, 331.8119
138.8307, 334.1182
139.3128, 336.7502
139.7950, 339.9720
140.2771, 343.9312
140.7592, 347.8810
141.2413, 353.3558
141.7234, 362.4553
142.2055, 375.6965
142.6877, 389.7314
143.1698, 403.6989
143.6519, 417.0912
144.1340, 429.5963
144.6161, 442.4000
145.0982, 453.4785
145.5803, 457.3177
146.0625, 451.3335
146.5446, 441.2997
147.0267, 427.5281
147.5088, 412.0294
147.9909, 397.5107
148.4730, 385.3730
148.9552, 375.6685
149.4373, 369.7715
149.9194, 370.6381
150.4015, 372.9475
150.8836, 377.2578
151.3657, 382.1874
151.8479, 385.4323
152.3300, 385.0771
152.8121, 381.1419
153.2942, 372.6919
153.7763, 357.7709
154.2584, 341.1502
154.7406, 324.0037
155.2227, 307.0438
155.7048, 291.3456
156.1869, 278.0988
156.6690, 267.9169
157.1511, 259.3141
157.6333, 252.5995
158.1154, 247.2265
158.5975, 243.0804
159.0796, 240.1661
159.5617, 237.6959
160.0438, 234.6790
160.5260, 231.1178
161.0081, 227.4506
161.4902, 223.5597
161.9723, 219.6645
162.4544, 216.2153
162.9365, 213.4567
163.4187, 210.9394
163.9008, 208.1185
164.3829, 205.0210
164.8650, 202.0076
165.3471, 198.7993
165.8292, 195.6084
166.3113, 194.0793
166.7935, 196.0569
167.2756, 198.4368
167.7577, 198.8227
168.2398, 197.1406
168.7219, 194.7260
169.2040, 192.7450
169.6862, 191.2468
170.1683, 189.8622
170.6504, 188.5828
171.1325, 187.3773
171.6146, 186.3382
172.0967, 185.4518
172.5789, 184.4600
173.0610, 182.7947
173.5431, 179.6313
174.0252, 177.7620
174.5073, 178.2334
174.9894, 179.2742
175.4716, 179.5050
175.9537, 178.5151
176.4358, 176.9789
176.9179, 176.2712
177.4000, 177.0799
177.8821, 177.8662
178.3643, 178.6187
178.8464, 179.3169
179.3285, 179.9808
179.8106, 180.6217
180.2927, 181.1584
180.7748, 181.3502
181.2570, 181.1174
181.7391, 180.6455
182.2212, 179.8167
182.7033, 178.7800
183.1854, 177.7032
183.6675, 176.6189
184.1497, 175.6398
184.6318, 175.1997
185.1139, 175.6596
185.5960, 175.9705
186.0781, 175.3560
186.5602, 174.2334
187.0423, 173.9409
187.5245, 175.4730
188.0066, 177.8972
188.4887, 178.9014
188.9708, 177.6630
189.4529, 176.4627
189.9350, 177.0889
190.4172, 179.3501
190.8993, 181.1802
191.3814, 181.4754
191.8635, 180.8526
192.3456, 180.1104
192.8277, 179.0305
193.3099, 178.4381
193.7920, 179.3976
194.2741, 182.1133
194.7562, 184.8810
195.2383, 187.0149
195.7204, 188.8643
196.2026, 190.8169
196.6847, 193.1225
197.1668, 195.1357
197.6489, 195.6494
198.1310, 194.0206
198.6131, 192.7251
199.0953, 193.0646
199.5774, 193.7553
200.0595, 193.6143
200.5416, 192.1553
201.0237, 189.9053
201.5058, 188.1006
201.9880, 187.3205
202.4701, 185.8929
202.9522, 182.7838
203.4343, 179.3007
203.9164, 176.8128
204.3985, 175.9534
204.8807, 176.2353
205.3628, 176.2425
205.8449, 176.1201
206.3270, 175.4445
206.8091, 173.6938
207.2912, 171.5641
207.7733, 169.7522
208.2555, 168.6084
208.7376, 168.0923
209.2197, 168.0682
209.7018, 168.7427
210.1839, 169.7257
210.6660, 171.7190
211.1482, 173.8429
211.6303, 174.6433
212.1124, 173.2621
212.5945, 170.4632
213.0766, 169.4009
213.5587, 171.5919
214.0409, 173.5635
214.5230, 174.6635
215.0051, 175.0813
215.4872, 175.1230
215.9693, 174.8851
216.4514, 174.4642
216.9336, 174.2187
217.4157, 173.7337
217.8978, 173.8634
218.3799, 175.2229
218.8620, 177.4410
219.3441, 179.6380
219.8263, 181.4319
220.3084, 182.8756
220.7905, 184.0999
221.2726, 184.7852
221.7547, 185.8063
222.2368, 187.9750
222.7190, 190.9726
223.2011, 193.4333
223.6832, 194.5290
224.1653, 194.9428
224.6474, 196.0549
225.1295, 198.0667
225.6117, 200.2716
226.0938, 202.0324
226.5759, 203.4499
227.0580, 205.3667
227.5401, 208.2042
228.0222, 211.6744
228.5043, 215.4501
228.9865, 219.5894
229.4686, 223.6603
229.9507, 227.2984
230.4328, 230.4992
230.9149, 233.3750
231.3970, 235.6620
231.8792, 237.8143
232.3613, 240.2488
232.8434, 243.0213
233.3255, 245.8803
233.8076, 248.4683
234.2897, 250.7275
234.7719, 253.4095
235.2540, 257.5550
235.7361, 261.5987
236.2182, 264.4572
236.7003, 266.0031
237.1824, 267.0172
237.6646, 268.2611
238.1467, 269.7550
238.6288, 271.4121
239.1109, 272.9549
239.5930, 274.8712
240.0751, 277.6637
240.5573, 281.2992
241.0394, 285.1157
241.5215, 288.0499
242.0036, 289.5592
242.4857, 292.4868
242.9678, 298.8049
243.4500, 305.1162
243.9321, 309.7979
244.4142, 312.6691
244.8963, 314.5188
245.3784, 316.4909
245.8605, 319.2808
246.3427, 319.5090
246.8248, 315.9155
247.3069, 311.0442
247.7890, 305.7264
248.2711, 300.2021
248.7532, 294.6064
249.2354, 289.1182
249.7175, 284.0220
250.1996, 277.7782
250.6817, 269.4953
251.1638, 261.0403
251.6459, 253.2329
252.1281, 246.0802
252.6102, 239.1701
253.0923, 231.9879
253.5744, 224.3820
254.0565, 217.6868
254.5386, 212.0891
255.0208, 207.0246
255.5029, 202.1207
255.9850, 197.4704
256.4671, 193.4843
256.9492, 190.5825
257.4313, 188.8994
257.9135, 186.8175
258.3956, 183.9782
258.8777, 181.1828
259.3598, 178.7575
259.8419, 176.6687
260.3240, 174.6560
260.8062, 172.4603
261.2883, 170.0888
261.7704, 168.6529
262.2525, 169.2626
262.7346, 169.4592
263.2167, 167.7642
263.6989, 164.7735
264.1810, 162.2680
264.6631, 161.4958
265.1452, 162.1799
265.6273, 161.8046
266.1094, 159.5610
266.5916, 157.3697
267.0737, 155.7697
267.5558, 154.7433
268.0379, 154.2718
268.5200, 154.4531
269.0021, 155.0731
269.4843, 155.2169
269.9664, 154.5233
270.4485, 153.9030
270.9306, 153.7950
271.4127, 153.9647
271.8948, 153.8920
272.3770, 153.3138
272.8591, 152.4211
273.3412, 151.6920
273.8233, 151.1693
274.3054, 150.6725
274.7875, 150.0773
275.2697, 149.4783
275.7518, 149.0904
276.2339, 149.0235
276.7160, 149.1046
277.1981, 148.9470
277.6802, 148.4426
278.1623, 148.2061
278.6444, 148.6575
279.1266, 149.4368
279.6087, 149.9633
280.0908, 150.0986
280.5729, 149.9236
281.0550, 149.3232
281.5371, 148.2628
282.0193, 147.6611
282.5014, 148.1237
282.9835, 149.0573
283.4656, 149.5527
283.9477, 149.4018
284.4298, 149.1360
284.9120, 149.4112
285.3941, 150.1380
285.8762, 150.6244
286.3583, 150.6904
286.8404, 150.4587
287.3225, 150.0326
287.8047, 149.4066
288.2868, 148.7131
288.7689, 148.1363
289.2510, 147.5859
289.7331, 146.7107
290.2152, 144.6978
290.6974, 142.7961
291.1795, 142.7069
291.6616, 144.5213
292.1437, 146.0035
292.6258, 145.4083
293.1079, 143.5543
293.5901, 142.4646
294.0722, 142.8428
294.5543, 143.4700
295.0364, 143.2330
295.5185, 142.1814
296.0006, 141.2342
296.4828, 140.8348
296.9649, 140.8002
297.4470, 140.8313
297.9291, 141.0820
298.4112, 141.0140
298.8933, 139.7720
299.3755, 137.6480
299.8576, 136.5195
300.3397, 137.5059
300.8218, 139.2565
301.3039, 140.0092
301.7860, 139.7249
302.2682, 138.8310
302.7503, 136.8576
303.2324, 134.3343
303.7145, 133.2685
304.1966, 134.6516
304.6787, 136.6672
305.1609, 137.4701
305.6430, 137.1860
306.1251, 136.5220
306.6072, 135.2150
307.0893, 133.8128
307.5714, 133.7822
308.0536, 135.7593
308.5357, 137.7749
309.0178, 137.8499
309.4999, 136.5910
309.9820, 135.5182
310.4641, 135.1183
310.9463, 135.1880
311.4284, 135.6121
311.9105, 136.4983
312.3926, 137.1147
312.8747, 136.8877
313.3568, 136.0648
313.8390, 134.9856
314.3211, 133.2827
314.8032, 131.7970
315.2853, 131.7039
315.7674, 133.0363
316.2495, 134.0136
316.7317, 133.4850
317.2138, 132.3083
317.6959, 131.8558
318.1780, 132.4476
318.6601, 133.1764
319.1422, 133.3443
319.6243, 133.0260
320.1064, 132.7471
320.5886, 132.7236
321.0707, 132.7377
321.5528, 132.4823
322.0349, 131.9343
322.5170, 131.4412
322.9991, 131.2259
323.4813, 131.2099
323.9634, 131.1813
324.4455, 131.1213
324.9276, 131.0024
325.4097, 130.9221
325.8918, 130.8336
326.3740, 130.3457
326.8561, 128.8161
327.3382, 126.9720
327.8203, 126.0094
328.3024, 126.1051
328.7845, 126.6200
329.2667, 127.2965
329.7488, 128.0336
330.2309, 128.5687
330.7130, 128.8053
331.1951, 128.8497
331.6772, 128.7020
332.1594, 128.3672
332.6415, 128.2328
333.1236, 128.8181
333.6057, 129.5660
334.0878, 129.2493
334.5699, 127.1225
335.0521, 125.2333
335.5342, 125.0899
336.0163, 126.3638
336.4984, 127.6986
336.9805, 128.7601
337.4626, 129.4798
337.9448, 129.6951
338.4269, 129.3617
338.9090, 129.0020
339.3911, 128.9967
339.8732, 129.0759
340.3553, 128.5998
340.8375, 127.3230
341.3196, 125.9815
341.8017, 125.4908
342.2838, 125.7636
342.7659, 125.9846
343.2480, 126.0175
343.7302, 125.9155
344.2123, 125.6421
344.6944, 125.2022
345.1765, 124.9403
345.6586, 125.3617
346.1407, 126.2019
346.6229, 126.0240
347.1050, 123.1622
347.5871, 120.7652
348.0692, 121.4619
348.5513, 124.4575
349.0334, 126.6379
349.5156, 126.3044
349.9977, 124.3416
350.4798, 123.1501
350.9619, 122.9054
351.4440, 122.8894
351.9261, 123.0518
352.4083, 123.2631
352.8904, 123.2481
353.3725, 122.8967
353.8546, 122.5006
354.3367, 122.5192
354.8188, 123.0773
355.3010, 123.5175
355.7831, 123.8481
356.2652, 123.9955
356.7473, 123.7364
357.2294, 123.1017
357.7115, 122.6071
358.1937, 122.7739
358.6758, 123.6387
359.1579, 124.0710
359.6400, 124.2094
360.1221, 123.8392
360.6042, 122.1640
361.0863, 119.8262
361.5685, 118.5794
362.0506, 119.5252
362.5327, 122.0796
363.0148, 123.8523
363.4969, 124.5962
363.9790, 124.9323
364.4612, 124.9380
364.9433, 124.5847
365.4254, 123.5879
365.9075, 121.8903
366.3896, 120.1874
366.8717, 119.6168
367.3539, 120.7274
367.8360, 121.8429
368.3181, 123.3854
368.8002, 124.6122
369.2823, 124.9220
369.7644, 124.3557
370.2466, 123.3812
370.7287, 122.3360
371.2108, 121.1822
371.6929, 120.6914
372.1750, 120.9843
372.6571, 121.7523
373.1393, 123.6054
373.6214, 125.7724
374.1035, 126.8487
374.5856, 125.9831
375.0677, 123.9367
375.5498, 123.2152
376.0320, 124.9182
376.5141, 126.3933
376.9962, 127.5255
377.4783, 128.2855
377.9604, 128.4701
378.4425, 128.1046
378.9247, 127.6613
379.4068, 127.8452
379.8889, 128.9074
380.3710, 129.7182
380.8531, 130.0990
381.3352, 130.3890
381.8174, 130.7570
382.2995, 131.1658
382.7816, 131.4313
383.2637, 131.2887
383.7458, 130.8793
384.2279, 131.2807
384.7101, 133.3191
385.1922, 134.9040
385.6743, 134.9453
386.1564, 134.4134
386.6385, 134.5600
387.1206, 135.9353
387.6028, 137.8083
388.0849, 138.9633
388.5670, 139.2046
389.0491, 139.6490
389.5312, 140.7786
390.0133, 142.0408
390.4955, 143.0272
390.9776, 143.7288
391.4597, 144.5093
391.9418, 145.7142
392.4239, 147.2720
392.9060, 148.7686
393.3882, 150.2735
393.8703, 151.5268
394.3524, 152.5433
394.8345, 153.2154
395.3166, 153.2006
395.7987, 151.8755
396.2809, 150.1944
396.7630, 149.3814
397.2451, 149.4438
397.7272, 150.2683
398.2093, 152.5846
398.6914, 155.1694
399.1736, 156.0606
399.6557, 154.7939
400.1378, 153.1766
400.6199, 151.9585
401.1020, 151.2027
401.5841, 151.3200
402.0662, 152.6884
402.5483, 154.0716
403.0305, 153.5270
403.5126, 151.2015
403.9947, 150.0201
404.4768, 151.3210
404.9589, 153.4421
405.4410, 155.1030
405.9232, 156.1718
406.4053, 156.4916
406.8874, 155.7212
407.3695, 154.1703
407.8516, 153.4403
408.3337, 153.9001
408.8159, 154.6244
409.2980, 155.7301
409.7801, 156.8235
410.2622, 156.9903
410.7443, 155.8845
411.2264, 154.6338
411.7086, 155.1567
412.1907, 158.7159
412.6728, 160.9118
413.1549, 160.6542
413.6370, 159.9496
414.1191, 160.1615
414.6013, 161.2656
415.0834, 162.4285
415.5655, 162.9380
416.0476, 162.8677
416.5297, 163.4776
417.0118, 165.6659
417.4940, 167.5176
417.9761, 168.3814
418.4582, 168.8582
418.9403, 169.8097
419.4224, 171.5521
419.9045, 173.4798
420.3867, 174.3704
420.8688, 173.4318
421.3509, 173.5802
421.8330, 175.6395
422.3151, 178.1460
422.7972, 180.4817
423.2794, 182.5687
423.7615, 184.5072
424.2436, 186.2332
424.7257, 187.8567
425.2078, 190.2122
425.6899, 193.7517
426.1721, 197.2390
426.6542, 200.1798
427.1363, 202.8616
427.6184, 205.7132
428.1005, 208.9369
428.5826, 212.0103
429.0648, 213.9542
429.5469, 214.7532
430.0290, 216.4346
430.5111, 219.9839
430.9932, 223.9526
431.4753, 227.0206
431.9575, 229.2793
432.4396, 231.4905
432.9217, 234.0936
433.4038, 236.8400
433.8859, 239.1740
434.3680, 240.9859
434.8502, 243.1517
435.3323, 246.5784
435.8144, 250.6871
436.2965, 253.8555
436.7786, 255.5987
437.2607, 257.0506
437.7429, 258.8448
438.2250, 260.7892
438.7071, 262.3886
439.1892, 263.4525
439.6713, 264.3464
440.1534, 265.7349
440.6356, 267.9692
441.1177, 268.9369
441.5998, 267.6954
442.0819, 265.8071
442.5640, 264.4073
443.0461, 263.4367
443.5282, 262.1946
444.0103, 260.2028
444.4925, 257.5776
444.9746, 254.9746
445.4567, 253.2129
445.9388, 250.4474
446.4209, 245.2672
446.9030, 239.6390
447.3852, 235.8787
447.8673, 234.4270
448.3494, 233.3617
448.8315, 230.0755
449.3136, 223.9572
449.7957, 218.6945
450.2779, 214.8627
450.7600, 211.3083
451.2421, 207.7907
451.7242, 204.2477
452.2063, 200.6191
452.6884, 196.8796
453.1706, 193.0827
453.6527, 189.3265
454.1348, 185.4841
454.6169, 182.1396
455.0990, 180.0079
455.5811, 178.0599
456.0633, 175.4448
456.5454, 172.1390
457.0275, 169.0381
457.5096, 167.1743
457.9917, 166.0830
458.4738, 163.8105
458.9560, 159.7068
459.4381, 155.9233
459.9202, 154.1501
460.4023, 153.6819
460.8844, 153.3671
461.3665, 153.3895
461.8487, 152.9801
462.3308, 151.1323
462.8129, 148.2910
463.2950, 146.1138
463.7771, 145.2507
464.2592, 144.8857
464.7414, 143.8716
465.2235, 142.1532
465.7056, 140.2442
466.1877, 137.4101
466.6698, 134.9854
467.1519, 134.4452
467.6341, 135.4632
468.1162, 136.4025
468.5983, 136.2390
469.0804, 135.1388
469.5625, 133.8649
470.0446, 131.6689
470.5268, 130.2676
471.0089, 130.7155
471.4910, 131.4853
471.9731, 131.0269
472.4552, 129.1268
472.9373, 126.7627
473.4195, 124.9271
473.9016, 123.6278
474.3837, 122.7674
474.8658, 122.5289
475.3479, 122.5743
475.8300, 122.9314
476.3122, 123.4716
476.7943, 124.1806
477.2764, 125.1213
477.7585, 125.7396
478.2406, 124.8428
478.7227, 122.1765
479.2049, 120.3725
479.6870, 120.5802
480.1691, 121.1019
480.6512, 120.6000
481.1333, 119.2669
481.6154, 118.1099
482.0976, 117.7648
482.5797, 117.8151
483.0618, 117.6972
483.5439, 117.4102
484.0260, 116.7757
484.5081, 115.4671
484.9902, 113.9190
485.4724, 113.0972
485.9545, 113.2717
486.4366, 113.3214
486.9187, 112.4398
487.4008, 111.3975
487.8829, 111.3403
488.3651, 112.4059
488.8472, 113.8349
489.3293, 115.0937
489.8114, 116.1840
490.2935, 116.2623
490.7756, 114.7078
491.2578, 113.0672
491.7399, 111.5418
492.2220, 110.2717
492.7041, 109.3851
493.1862, 108.9348
493.6683, 108.9434
494.1505, 109.5899
494.6326, 111.2233
495.1147, 112.1052
495.5968, 111.5041
496.0789, 110.8444
496.5610, 110.4930
497.0432, 110.4833
497.5253, 110.9027
498.0074, 111.9307
498.4895, 113.0146
498.9716, 112.9805
499.4537, 111.6278
499.9359, 110.4165
500.4180, 109.6811
500.9001, 109.2122
501.3822, 108.9134
501.8643, 108.7514
502.3464, 108.4972
502.8286, 107.7804
503.3107, 107.0226
503.7928, 107.0058
504.2749, 107.7524
504.7570, 108.4011
505.2391, 108.5192
505.7213, 108.2153
506.2034, 107.7157
506.6855, 106.7266
507.1676, 106.2277
507.6497, 107.2615
508.1318, 108.5006
508.6140, 107.9911
509.0961, 105.7035
509.5782, 103.7892
510.0603, 104.3175
510.5424, 107.1005
511.0245, 108.2290
511.5067, 106.0440
511.9888, 104.1998
512.4709, 103.2018
512.9530, 102.8881
513.4351, 103.3161
513.9172, 104.3872
514.3994, 105.3956
514.8815, 105.3516
515.3636, 104.1412
515.8457, 103.4169
516.3278, 103.3935
516.8099, 103.5982
517.2921, 103.9305
517.7742, 104.3133
518.2563, 104.6951
518.7384, 105.1413
519.2205, 105.3093
519.7026, 104.5138
520.1848, 102.9347
520.6669, 102.0812
521.1490, 102.5327
521.6311, 103.2438
522.1132, 103.1362
522.5953, 102.3454
523.0775, 101.4861
523.5596, 100.1571
524.0417, 99.24561
524.5238, 99.66521
525.0059, 101.0362
525.4880, 102.3252
525.9702, 103.1219
526.4523, 103.5592
526.9344, 103.8730
527.4165, 104.1182
527.8986, 104.0458
528.3807, 103.2635
528.8629, 102.5548
529.3450, 102.4385
529.8271, 102.7457
530.3092, 103.0370
530.7913, 103.0720
531.2734, 102.9028
531.7556, 102.5852
532.2377, 101.9378
532.7198, 101.6619
533.2019, 102.5451
533.6840, 103.2619
534.1661, 102.5965
534.6483, 100.9485
535.1304, 100.1204
535.6125, 101.7806
536.0946, 104.4859
536.5767, 105.5004
537.0588, 104.7476
537.5410, 103.8916
538.0231, 103.5032
538.5052, 103.4238
538.9873, 103.4195
539.4694, 103.4929
539.9515, 103.5963
540.4337, 103.6769
540.9158, 103.8085
541.3979, 104.1364
541.8800, 104.6151
542.3621, 104.9825
542.8442, 105.0553
543.3264, 104.9402
543.8085, 104.9960
544.2906, 105.0362
544.7726, 105.5468
545.2548, 107.0671
545.7369, 108.6421
546.2190, 109.6924
546.7011, 110.1286
547.1832, 109.9082
547.6653, 108.7219
548.1475, 107.1063
548.6296, 107.5162
549.1117, 111.0062
549.5938, 113.7330
550.0759, 113.9037
550.5580, 113.3228
551.0402, 113.2210
551.5223, 113.7061
552.0044, 114.3672
552.4865, 114.8779
552.9686, 115.4444
553.4507, 116.4384
553.9329, 117.8757
554.4150, 119.6263
554.8971, 121.7264
555.3792, 124.0134
555.8613, 126.0320
556.3434, 127.6713
556.8256, 129.3799
557.3077, 131.1031
557.7898, 133.0397
558.2719, 135.4337
558.7540, 138.2380
559.2361, 141.2076
559.7183, 144.2537
560.2004, 147.2005
560.6825, 149.2700
561.1646, 149.2157
561.6467, 150.4337
562.1288, 154.3085
562.6110, 158.5663
563.0931, 161.5786
563.5752, 163.3606
564.0573, 164.9699
564.5394, 167.0021
565.0215, 169.4616
565.5037, 172.3582
565.9858, 175.7079
566.4679, 179.4460
566.9500, 183.3452
567.4321, 187.8474
567.9142, 193.7067
568.3964, 201.0398
568.8785, 207.9838
569.3606, 213.3535
569.8427, 218.4180
570.3248, 224.9365
570.8069, 232.5515
571.2891, 239.2815
571.7712, 243.8716
572.2533, 247.2337
572.7354, 251.6100
573.2175, 258.2720
573.6996, 263.7056
574.1818, 268.3127
574.6639, 271.4464
575.1460, 272.7782
575.6281, 272.3093
576.1102, 270.0855
576.5923, 266.0838
577.0745, 260.5255
577.5566, 253.9057
578.0387, 246.2876
578.5208, 237.1880
579.0029, 224.9683
579.4850, 212.9603
579.9672, 203.4252
580.4493, 196.1815
580.9314, 190.3501
581.4135, 186.1992
581.8956, 182.8385
582.3777, 179.4791
582.8599, 176.1709
583.3420, 172.9686
583.8241, 169.8292
584.3062, 167.0779
584.7883, 165.1060
585.2704, 163.9284
585.7526, 163.6783
586.2347, 164.6225
586.7168, 166.1353
587.1989, 168.4976
587.6810, 171.0843
588.1631, 173.0070
588.6453, 173.9353
589.1274, 174.1637
589.6095, 173.9868
590.0916, 173.3515
590.5737, 172.8365
591.0558, 172.7956
591.5380, 172.3465
592.0201, 171.3142
592.5022, 169.5963
592.9843, 166.9490
593.4664, 163.2265
593.9485, 158.9554
594.4307, 154.2479
594.9128, 149.3715
595.3949, 144.9256
595.8770, 141.0202
596.3591, 137.4191
596.8412, 133.9366
597.3234, 130.5840
597.8055, 127.5097
598.2876, 124.8880
598.7697, 122.2686
599.2518, 119.7383
599.7339, 117.0618
600.2161, 113.5548
600.6982, 109.4815
601.1803, 106.2864
601.6624, 105.2619
602.1445, 105.9140
602.6266, 106.0473
603.1088, 105.6264
603.5909, 104.7688
604.0730, 102.8996
604.5551, 101.0412
605.0372, 100.0942
605.5193, 99.99673
606.0015, 99.84977
606.4836, 98.80499
606.9657, 97.74587
607.4478, 98.20213
607.9299, 99.85188
608.4120, 100.5614
608.8942, 99.28918
609.3763, 97.36388
609.8584, 96.89609
610.3405, 98.50083
610.8226, 99.33289
611.3047, 98.67277
611.7869, 98.02769
612.2690, 97.86963
612.7511, 98.26701
613.2332, 99.46727
613.7153, 101.5288
614.1974, 103.6228
614.6796, 104.4624
615.1617, 103.9709
615.6438, 103.9404
616.1259, 104.7196
616.6080, 105.4375
617.0901, 105.5463
617.5723, 105.3543
618.0544, 105.1974
618.5365, 105.0020
619.0186, 105.3137
619.5007, 106.7241
619.9828, 108.7343
620.4650, 110.3876
620.9471, 111.6487
621.4292, 113.5180
621.9113, 116.8064
622.3934, 121.0498
622.8755, 124.4076
623.3577, 125.9394
623.8398, 127.9156
624.3219, 130.7895
624.8040, 133.7351
625.2861, 136.5863
625.7682, 139.0198
626.2504, 140.3805
626.7325, 140.1639
627.2145, 138.9829
627.6967, 138.0084
628.1788, 137.2710
628.6609, 135.9067
629.1430, 133.5308
629.6251, 130.8180
630.1072, 128.1768
630.5894, 125.6524
631.0715, 123.4692
631.5536, 121.8346
632.0357, 120.3457
632.5178, 118.4970
632.9999, 116.7566
633.4821, 116.0597
633.9642, 116.5223
634.4463, 117.1279
634.9284, 116.7790
635.4105, 115.6238
635.8926, 115.9113
636.3748, 118.4993
636.8569, 121.2079
637.3390, 123.9090
637.8211, 126.3865
638.3032, 128.5374
638.7853, 130.3114
639.2675, 131.6304
639.7496, 132.9819
640.2317, 133.5140
640.7138, 131.3744
641.1959, 126.7552
641.6780, 121.9764
642.1602, 117.6272
642.6423, 113.9640
643.1244, 111.4581
643.6065, 110.3696
644.0886, 108.9438
644.5707, 106.7038
645.0529, 104.6605
645.5350, 103.3384
646.0171, 102.4191
646.4992, 101.2556
646.9813, 99.75487
647.4634, 98.68678
647.9456, 99.14725
648.4277, 100.9574
648.9098, 101.9201
649.3919, 101.7550
649.8740, 101.4599
650.3561, 101.4935
650.8383, 101.5327
651.3204, 101.2072
651.8025, 100.4877
652.2846, 99.64843
652.7667, 98.64455
653.2488, 97.68365
653.7310, 96.98867
654.2131, 96.52328
654.6952, 96.18594
655.1773, 95.94418
655.6594, 95.64552
656.1415, 94.99242
656.6237, 93.82201
657.1058, 93.06749
657.5879, 93.33805
658.0700, 93.35899
658.5521, 92.22864
659.0342, 90.91555
659.5164, 90.72681
659.9985, 91.96074
660.4806, 93.60957
660.9627, 95.31078
661.4448, 96.72263
661.9269, 96.67952
662.4091, 95.11738
662.8912, 94.15114
663.3733, 95.07491
663.8554, 96.76572
664.3375, 96.81653
664.8196, 94.04549
665.3018, 93.11839
665.7839, 96.19814
666.2660, 99.07331
666.7481, 99.09256
667.2302, 97.43814
667.7123, 96.34003
668.1945, 96.62379
668.6766, 97.52198
669.1587, 98.28927
669.6408, 98.89632
670.1229, 98.82359
670.6050, 97.91728
671.0872, 96.71664
671.5693, 95.02110
672.0514, 93.46077
672.5335, 93.25908
673.0156, 94.80495
673.4977, 95.86321
673.9799, 95.42371
674.4620, 94.52034
674.9441, 94.02686
675.4262, 93.82343
675.9083, 93.34014
676.3904, 92.32045
676.8726, 91.15469
677.3547, 90.50761
677.8368, 90.47942
678.3189, 90.27711
678.8010, 89.53069
679.2831, 89.16064
679.7653, 89.78347
680.2474, 90.82598
680.7295, 91.68400
681.2116, 92.28191
681.6937, 92.45874
682.1758, 91.62807
682.6580, 90.62325
683.1401, 90.67801
683.6222, 91.65469
684.1043, 92.66760
684.5864, 93.37064
685.0685, 93.49404
685.5507, 92.40662
686.0328, 89.51785
686.5149, 87.79503
686.9970, 88.20271
687.4791, 88.72353
687.9612, 88.62749
688.4434, 88.38836
688.9255, 88.72170
689.4076, 89.77645
689.8897, 90.82264
690.3718, 91.34705
690.8539, 91.45402
691.3361, 91.35821
691.8182, 91.05830
692.3003, 90.33714
692.7824, 88.97591
693.2645, 87.46275
693.7466, 86.51574
694.2288, 86.12432
694.7109, 86.43432
695.1930, 88.46078
695.6751, 89.96397
696.1572, 90.00431
696.6393, 89.15028
697.1215, 87.86308
697.6036, 86.37885
698.0857, 85.37495
698.5678, 85.73614
699.0499, 86.99274
699.5320, 87.82214
700.0142, 88.21194
700.4963, 88.30488
700.9784, 88.08508
701.4605, 87.70946
701.9426, 87.40604
702.4247, 87.20313
702.9069, 86.81998
703.3890, 86.12529
703.8711, 85.39780
704.3532, 84.45741
704.8353, 83.69289
705.3174, 83.70890
705.7996, 84.51933
706.2817, 85.45374
706.7638, 85.98476
707.2459, 86.14841
707.7280, 85.95500
708.2101, 85.34673
708.6923, 84.97873
709.1743, 85.23847
709.6564, 85.48625
710.1385, 84.75206
710.6207, 83.16792
711.1028, 82.45855
711.5849, 83.41503
712.0670, 84.45602
712.5491, 84.94410
713.0313, 85.21938
713.5134, 85.71720
713.9955, 86.46043
714.4776, 87.20826
714.9597, 87.89552
715.4418, 88.25315
715.9240, 87.11832
716.4061, 84.16196
716.8882, 82.77015
717.3703, 84.30086
717.8524, 86.40688
718.3345, 87.19878
718.8167, 86.98417
719.2988, 86.81231
719.7809, 86.99173
720.2630, 86.87613
720.7451, 85.59580
721.2272, 84.36304
721.7094, 84.74815
722.1915, 86.45301
722.6736, 87.79448
723.1557, 87.72233
723.6378, 87.02451
724.1199, 87.42445
724.6021, 89.05740
725.0842, 90.08618
725.5663, 90.18535
726.0484, 89.97353
726.5305, 89.76997
727.0126, 89.51944
727.4948, 89.06451
727.9769, 88.23663
728.4590, 87.69204
728.9411, 87.72974
729.4232, 88.03785
729.9053, 88.38696
730.3875, 88.78368
730.8696, 89.34434
731.3517, 90.11468
731.8338, 90.92302
732.3159, 91.40195
732.7980, 91.55324
733.2802, 92.47624
733.7623, 94.63857
734.2444, 96.21087
734.7265, 95.89388
735.2086, 94.95742
735.6907, 95.44315
736.1729, 97.51203
736.6550, 98.67448
737.1371, 97.87801
737.6192, 96.60253
738.1013, 95.26769
738.5834, 94.22232
739.0656, 94.23020
739.5477, 95.30502
740.0298, 96.22600
740.5119, 95.75857
740.9940, 94.21822
741.4761, 92.83404
741.9583, 91.57142
742.4404, 90.70738
742.9225, 90.40927
743.4046, 90.40796
743.8867, 90.52082
744.3688, 90.72607
744.8510, 90.90028
745.3331, 91.21481
745.8152, 91.27016
746.2973, 90.61027
746.7794, 89.84825
747.2615, 89.68338
747.7437, 90.06253
748.2258, 90.51088
748.7079, 90.78819
749.1900, 90.75060
749.6721, 89.77760
750.1542, 87.90131
750.6364, 87.37561
751.1185, 88.91753
751.6006, 90.30978
752.0827, 89.87292
752.5648, 88.41335
753.0469, 88.23891
753.5291, 89.95682
754.0112, 91.21135
754.4933, 91.53181
754.9754, 91.47824
755.4575, 91.24786
755.9396, 90.93800
756.4218, 90.57153
756.9039, 90.17525
757.3860, 90.01551
757.8681, 90.66729
758.3502, 91.77892
758.8323, 91.98158
759.3145, 91.23327
759.7966, 90.49128
760.2787, 90.16068
760.7608, 89.83753
761.2429, 88.83051
761.7250, 86.98697
762.2072, 86.33969
762.6893, 88.00710
763.1714, 89.33806
763.6535, 89.62948
764.1356, 89.38110
764.6177, 88.74325
765.0999, 87.97508
765.5820, 87.83865
766.0641, 89.12952
766.5462, 90.57010
767.0283, 90.14682
767.5104, 88.40420
767.9926, 87.45670
768.4747, 87.66597
768.9568, 88.18633
769.4389, 88.47794
769.9210, 88.55891
770.4031, 88.46048
770.8853, 87.93154
771.3674, 87.71754
771.8495, 88.09214
772.3316, 88.47361
772.8137, 88.67346
773.2958, 88.70185
773.7780, 88.40839
774.2601, 87.71644
774.7422, 87.60041
775.2243, 89.65058
775.7064, 91.97726
776.1885, 91.67887
776.6707, 89.42580
777.1528, 88.05992
777.6349, 88.56959
778.1170, 89.35168
778.5991, 88.32239
779.0812, 85.62883
779.5634, 84.43137
780.0455, 85.26051
780.5276, 86.41689
781.0097, 88.06660
781.4918, 89.40147
781.9739, 89.63957
782.4561, 88.99967
782.9382, 88.38103
783.4203, 87.66364
783.9024, 87.48692
784.3845, 88.66505
784.8666, 90.22619
785.3488, 91.13746
785.8309, 91.31606
786.3130, 90.94539
786.7951, 90.08768
787.2772, 89.20415
787.7593, 89.16076
788.2415, 89.93724
788.7236, 90.64414
789.2057, 91.21477
789.6878, 91.83385
790.1699, 92.73801
790.6520, 93.60130
791.1342, 93.72404
791.6162, 92.90987
792.0983, 92.59801
792.5804, 93.15653
793.0626, 93.89046
793.5447, 94.63721
794.0268, 95.34669
794.5089, 96.13876
794.9910, 96.91637
795.4731, 97.13875
795.9553, 96.06570
796.4374, 94.78477
796.9195, 95.26609
797.4016, 97.07463
797.8837, 98.26612
798.3658, 98.48044
798.8480, 98.10149
799.3301, 97.16204
799.8122, 96.17883
800.2943, 97.02374
800.7764, 101.1814
801.2585, 103.9828
801.7407, 104.4651
802.2228, 104.5573
802.7049, 104.6996
803.1870, 104.9961
803.6691, 105.6177
804.1512, 106.6064
804.6334, 107.5490
805.1155, 107.9820
805.5976, 108.4965
806.0797, 109.8802
806.5618, 111.7241
807.0439, 113.1241
807.5261, 113.8479
808.0082, 114.3505
808.4903, 115.0664
808.9724, 115.8863
809.4545, 116.3372
809.9366, 116.3515
810.4188, 116.5404
810.9009, 117.2949
811.3830, 117.6583
811.8651, 116.5238
812.3472, 114.4605
812.8293, 113.5794
813.3115, 114.7143
813.7936, 115.2427
814.2757, 113.1516
814.7578, 111.9813
815.2399, 115.1376
815.7220, 120.3192
816.2042, 123.5760
816.6863, 123.8036
817.1684, 122.7869
817.6505, 121.0578
818.1326, 119.5657
818.6147, 120.6123
819.0969, 123.7087
819.5790, 126.1633
820.0611, 127.2075
820.5432, 127.6073
821.0253, 128.1072
821.5074, 128.6096
821.9896, 128.3634
822.4717, 126.6471
822.9538, 125.8410
823.4359, 127.0427
823.9180, 128.3057
824.4001, 128.4659
824.8823, 127.9708
825.3644, 127.7148
825.8465, 127.9163
826.3286, 128.0111
826.8107, 127.8270
827.2928, 127.4155
827.7750, 126.5916
828.2571, 125.6373
828.7392, 125.1789
829.2213, 125.3340
829.7034, 125.4356
830.1855, 124.6234
830.6677, 125.1710
831.1498, 123.7465
831.6319, 125.4716
832.1140, 126.5248
832.5961, 126.3241
833.0782, 125.8347
833.5604, 125.7788
834.0425, 126.0981
834.5246, 126.5636
835.0067, 127.4742
835.4888, 128.0060
835.9709, 128.1293
836.4531, 127.9304
836.9352, 126.9975
837.4173, 125.9621
837.8994, 125.8757
838.3815, 126.9472
838.8636, 127.8811
839.3458, 127.8800
839.8279, 127.5901
840.3100, 127.6319
840.7921, 127.8217
841.2742, 127.7037
841.7563, 127.2282
842.2385, 126.8107
842.7206, 126.8307
843.2027, 127.0346
843.6848, 126.8204
844.1669, 126.1901
844.6490, 125.0888
845.1312, 123.3638
845.6133, 121.7509
846.0954, 120.8202
846.5775, 120.1674
847.0596, 118.7569
847.5417, 115.8233
848.0239, 114.5923
848.5060, 117.5901
848.9881, 119.1576
849.4702, 116.0113
849.9523, 111.4756
850.4344, 108.9695
850.9166, 108.7374
851.3987, 109.1734
851.8808, 109.9529
852.3629, 110.5429
852.8450, 110.0261
853.3271, 109.2500
853.8093, 110.0500
854.2914, 112.1600
854.7735, 113.4009
855.2556, 112.5416
855.7377, 110.5767
856.2198, 108.9584
856.7020, 107.6861
857.1841, 106.8523
857.6662, 106.4866
858.1483, 106.4586
858.6304, 106.8391
859.1125, 107.3428
859.5947, 107.7282
860.0768, 107.9957
860.5589, 107.6852
861.0410, 106.0889
861.5231, 104.9314
862.0052, 104.5391
862.4874, 104.5177
862.9695, 104.9804
863.4516, 105.5292
863.9337, 105.2183
864.4158, 103.5917
864.8979, 102.2350
865.3801, 102.4877
865.8622, 103.2143
866.3443, 103.2291
866.8264, 102.6859
867.3085, 102.0678
867.7906, 101.5390
868.2728, 101.1040
868.7549, 100.8109
869.2370, 100.5653
869.7191, 99.87734
870.2012, 98.75916
870.6833, 98.58678
871.1655, 99.71492
871.6476, 101.2873
872.1297, 103.0240
872.6118, 104.4618
873.0939, 104.3326
873.5760, 101.9631
874.0581, 100.0206
874.5402, 98.26698
875.0223, 97.26798
875.5045, 97.74734
875.9866, 98.67371
876.4687, 98.95354
876.9508, 98.60212
877.4329, 98.50003
877.9150, 99.54868
878.3972, 100.1162
878.8793, 98.58939
879.3614, 96.63844
879.8435, 96.29678
880.3256, 97.29995
880.8077, 98.25520
881.2899, 98.54115
881.7720, 98.49734
882.2541, 98.42807
882.7362, 98.36320
883.2183, 98.58663
883.7004, 99.01344
884.1826, 98.52935
884.6647, 96.68864
885.1468, 95.05816
885.6289, 95.28284
886.1110, 96.95803
886.5931, 97.91874
887.0753, 97.97724
887.5574, 97.84607
888.0395, 97.25127
888.5216, 96.98002
889.0037, 98.03027
889.4858, 99.43582
889.9680, 99.36290
890.4501, 97.42126
890.9322, 96.28333
891.4143, 96.61359
891.8964, 97.46607
892.3785, 98.97590
892.8607, 100.4499
893.3428, 101.3498
893.8249, 101.5416
894.3070, 100.7103
894.7891, 98.20395
895.2712, 96.17980
895.7534, 97.34101
896.2355, 99.81923
896.7176, 100.7258
897.1997, 100.1197
897.6818, 98.99068
898.1639, 97.77144
898.6461, 97.07889
899.1282, 97.81583
899.6103, 99.57029
900.0924, 100.5790
900.5745, 100.8176
901.0566, 100.6728
901.5388, 100.0577
902.0209, 99.76911
902.5030, 100.5104
902.9851, 101.8783
903.4672, 102.7680
903.9493, 103.2442
904.4315, 103.0401
904.9136, 101.0227
905.3957, 99.79451
905.8778, 100.6313
906.3599, 102.2519
906.8420, 103.4425
907.3242, 104.1919
907.8063, 105.0749
908.2884, 106.5730
908.7705, 107.7469
909.2526, 107.9333
909.7347, 107.8931
910.2169, 108.3997
910.6990, 109.2133
911.1811, 109.4806
911.6632, 108.9380
912.1453, 108.8450
912.6274, 110.7579
913.1096, 111.2922
913.5917, 114.6803
914.0738, 115.1174
914.5559, 117.0804
915.0380, 120.7734
915.5201, 123.2393
916.0023, 122.1192
916.4844, 119.5046
916.9665, 120.4147
917.4486, 124.8061
917.9307, 127.0744
918.4128, 126.6061
918.8950, 126.0861
919.3771, 126.3875
919.8592, 127.6390
920.3413, 130.3171
920.8234, 134.3729
921.3055, 136.7779
921.7877, 136.3113
922.2698, 136.3530
922.7519, 136.9590
923.2340, 138.4820
923.7161, 141.7286
924.1982, 145.8084
924.6804, 149.0572
925.1625, 151.1377
925.6446, 153.5410
926.1267, 156.7374
926.6088, 160.2092
927.0909, 163.1367
927.5731, 166.5636
928.0552, 171.9338
928.5373, 178.9782
929.0194, 185.9543
929.5015, 191.6616
929.9836, 198.4915
930.4658, 208.9010
930.9479, 219.3171
931.4300, 233.9139
931.9121, 246.8191
932.3942, 262.4507
932.8763, 281.5229
933.3585, 303.7458
933.8406, 328.5904
934.3227, 356.5834
934.8048, 388.6886
935.2869, 424.9466
935.7690, 467.6978
936.2512, 517.2639
936.7333, 567.5348
937.2154, 615.3446
937.6975, 661.2702
938.1796, 705.8978
938.6617, 749.1556
939.1439, 794.0778
939.6260, 839.4788
940.1081, 889.9659
940.5902, 946.1804
941.0723, 1009.125
941.5544, 1079.950
942.0366, 1158.054
942.5187, 1241.960
943.0008, 1330.502
943.4829, 1427.753
943.9650, 1530.683
944.4471, 1646.172
944.9293, 1772.870
945.4114, 1916.136
945.8935, 2080.476
946.3756, 2266.420
946.8577, 2472.195
947.3398, 2705.052
947.8220, 2944.957
948.3041, 3213.604
948.7862, 3455.465
949.2683, 3642.495
949.7504, 3755.743
950.2325, 3768.843
950.7147, 3676.175
951.1968, 3501.416
951.6789, 3236.078
952.1610, 2925.692
952.6431, 2606.426
953.1252, 2290.368
953.6074, 1998.818
954.0895, 1735.827
954.5716, 1503.247
955.0537, 1301.102
955.5358, 1124.918
956.0179, 969.4678
956.5000, 834.2214
956.9821, 717.7995
957.4642, 619.5041
957.9464, 536.7647
958.4285, 468.9220
958.9106, 413.9614
959.3927, 371.5839
959.8748, 338.9432
960.3569, 309.5157
960.8391, 282.7506
961.3212, 262.1062
961.8033, 249.1582
962.2854, 237.9769
962.7675, 226.6803
963.2496, 216.4252
963.7318, 208.8143
964.2139, 203.4449
964.6960, 197.1143
965.1781, 187.9543
965.6602, 180.9494
966.1423, 177.3119
966.6245, 174.4308
967.1066, 171.4384
967.5887, 168.4825
968.0708, 165.7869
968.5529, 163.3548
969.0350, 161.0664
969.5172, 159.2495
969.9993, 157.0907
970.4814, 153.5138
970.9635, 150.2604
971.4456, 148.8554
971.9277, 148.7569
972.4099, 148.9499
972.8920, 149.1646
973.3741, 149.1123
973.8562, 148.1673
974.3383, 147.3840
974.8204, 147.8669
975.3026, 148.8778
975.7847, 149.4998
976.2668, 149.6386
976.7489, 149.3918
977.2310, 148.7880
977.7131, 148.4136
978.1953, 148.7430
978.6774, 149.7619
979.1595, 151.9278
979.6416, 154.7292
980.1237, 156.3856
980.6058, 156.7241
981.0880, 157.1998
981.5701, 158.7215
982.0522, 161.0762
982.5343, 164.1066
983.0164, 167.6619
983.4985, 170.5305
983.9807, 172.7674
984.4628, 177.1160
984.9449, 184.5312
985.4270, 192.0373
985.9091, 196.9025
986.3912, 200.2525
986.8734, 205.6880
987.3555, 213.5202
987.8376, 220.6411
988.3197, 226.5689
988.8018, 233.3774
989.2839, 241.9646
989.7661, 251.5081
990.2482, 261.3399
990.7303, 271.3139
991.2124, 280.4603
991.6945, 287.5647
992.1766, 296.7660
992.6588, 309.0570
993.1409, 322.2983
993.6230, 335.0180
994.1051, 348.5844
994.5872, 365.3439
995.0693, 385.2228
995.5515, 404.0134
996.0336, 419.8492
996.5157, 437.4249
996.9978, 457.6726
997.4799, 479.2440
997.9620, 502.2241
998.4442, 525.6725
998.9263, 548.7664
999.4084, 571.2974
999.8905, 590.9757
1000.373, 607.4359
1000.855, 620.5663
1001.337, 631.1505
1001.819, 637.4645
1002.301, 639.5178
1002.783, 635.7372
1003.265, 622.7026
1003.747, 599.6928
1004.230, 572.2396
1004.712, 541.2119
1005.194, 508.8708
1005.676, 474.4278
1006.158, 440.7743
1006.640, 411.0589
1007.122, 384.8077
1007.604, 359.8803
1008.086, 335.4245
1008.569, 312.3600
1009.051, 290.7222
1009.533, 271.5501
1010.015, 256.8197
1010.497, 245.0314
1010.979, 233.6178
1011.461, 222.4717
1011.943, 212.6919
1012.426, 204.8402
1012.908, 198.4077
1013.390, 193.2958
1013.872, 189.0005
1014.354, 184.5128
1014.836, 180.0396
1015.318, 176.2400
1015.800, 173.1688
1016.282, 170.5786
1016.765, 168.3589
1017.247, 165.9745
1017.729, 162.6888
1018.211, 158.6068
1018.693, 153.8988
1019.175, 148.7176
1019.657, 143.8733
1020.139, 139.5536
1020.622, 135.9264
1021.104, 133.1765
1021.586, 130.6788
1022.068, 127.1254
1022.550, 122.6716
1023.032, 118.8531
1023.514, 115.6687
1023.996, 112.7827
1024.478, 110.0394
1024.961, 108.5890
1025.443, 109.6042
1025.925, 111.4309
1026.407, 110.0124
1026.889, 105.1279
1027.371, 101.8512
1027.853, 100.3720
1028.335, 99.22991
1028.818, 97.83968
1029.300, 97.61157
1029.782, 100.1160
1030.264, 103.8845
1030.746, 104.8731
1031.228, 102.5354
1031.710, 100.7361
1032.192, 99.55186
1032.674, 98.64341
1033.156, 97.82164
1033.639, 97.48186
1034.121, 98.15379
1034.603, 99.40588
1035.085, 99.92435
1035.567, 99.36951
1036.049, 99.41403
1036.531, 100.5821
1037.013, 101.3011
1037.496, 100.6662
1037.978, 100.0919
1038.460, 100.9360
1038.942, 102.6770
1039.424, 103.7165
1039.906, 103.9810
1040.388, 103.7294
1040.870, 102.2906
1041.353, 101.3103
1041.835, 101.6575
1042.317, 102.1709
1042.799, 102.1830
1043.281, 101.6348
1043.763, 100.2181
1044.245, 97.40186
1044.727, 95.31988
1045.209, 93.99641
1045.692, 93.49818
1046.174, 95.01623
1046.656, 96.32546
1047.138, 95.21726
1047.620, 92.56190
1048.102, 90.81063
1048.584, 90.31139
1049.066, 90.14299
1049.548, 90.44309
1050.031, 90.72905
1050.513, 90.98691
1050.995, 91.04494
1051.477, 90.52487
1051.959, 89.74236
1052.441, 89.47082
1052.923, 89.85871
1053.405, 90.53847
1053.888, 91.52784
1054.370, 92.67623
1054.852, 94.28872
1055.334, 95.71702
1055.816, 96.36703
1056.298, 96.41906
1056.780, 96.10952
1057.262, 95.27933
1057.745, 95.65995
1058.227, 99.02724
1058.709, 102.0377
1059.191, 102.8507
1059.673, 103.1374
1060.155, 104.1400
1060.637, 105.8432
1061.119, 108.0958
1061.601, 110.9288
1062.083, 113.3415
1062.566, 114.6100
1063.048, 115.8952
1063.530, 117.0269
1064.012, 119.0150
1064.494, 123.2663
1064.976, 128.8414
1065.458, 133.7621
1065.940, 137.6528
1066.423, 141.8229
1066.905, 147.7138
1067.387, 152.7832
1067.869, 156.5276
1068.351, 158.3617
1068.833, 157.5020
1069.315, 154.4664
1069.797, 149.9420
1070.280, 144.1414
1070.762, 137.9287
1071.244, 131.1059
1071.726, 124.6785
1072.208, 118.7590
1072.690, 113.7267
1073.172, 109.9024
1073.654, 107.1203
1074.136, 105.1400
1074.619, 103.8784
1075.101, 103.1210
1075.583, 102.9080
1076.065, 102.9748
1076.547, 103.3119
1077.029, 103.7615
1077.511, 103.5511
1077.993, 103.7257
1078.475, 106.4656
1078.958, 111.4619
1079.440, 115.2726
1079.922, 116.3505
1080.404, 116.7074
1080.886, 117.3443
1081.368, 117.5735
1081.850, 117.0477
1082.332, 115.7225
1082.814, 113.2922
1083.297, 110.0036
1083.779, 106.8540
1084.261, 104.1752
1084.743, 101.6243
1085.225, 98.99986
1085.707, 96.51659
1086.189, 94.10535
1086.671, 92.06582
1087.154, 90.98721
1087.636, 90.57167
1088.118, 89.77103
1088.600, 88.22343
1089.082, 86.64893
1089.564, 84.93584
1090.046, 83.74989
1090.528, 84.01977
1091.010, 84.54642
1091.493, 83.99134
1091.975, 82.71116
1092.457, 81.75240
1092.939, 81.33183
1093.421, 81.45196
1093.903, 82.66395
1094.385, 83.70214
1094.867, 84.17284
1095.349, 84.06001
1095.832, 82.86991
1096.314, 81.29092
1096.796, 80.42873
1097.278, 80.47978
1097.760, 81.30601
1098.242, 84.11816
1098.724, 85.94699
1099.206, 85.04214
1099.689, 83.64982
1100.171, 83.09200
1100.653, 83.15320
1101.135, 83.26812
1101.617, 83.45026
1102.099, 84.43633
1102.581, 87.36652
1103.063, 89.43989
1103.546, 89.52007
1104.028, 89.15128
1104.510, 88.92806
1104.992, 88.83501
1105.474, 88.57796
1105.956, 88.34942
1106.438, 89.06752
1106.920, 91.17365
1107.402, 93.45139
1107.885, 95.99511
1108.367, 98.31911
1108.849, 100.0865
1109.331, 101.7161
1109.813, 103.7834
1110.295, 105.9766
1110.777, 107.3031
1111.259, 107.4090
1111.741, 107.8803
1112.224, 109.8113
1112.706, 110.7301
1113.188, 109.0982
1113.670, 107.3667
1114.152, 107.6186
1114.634, 108.5917
1115.116, 107.7861
1115.598, 104.9715
1116.081, 103.2559
1116.563, 104.2592
1117.045, 103.5157
1117.527, 98.98713
1118.009, 94.99656
1118.491, 93.90302
1118.973, 94.02258
1119.455, 93.30408
1119.938, 91.86237
1120.420, 90.77759
1120.902, 90.34298
1121.384, 89.48973
1121.866, 87.84003
1122.348, 86.53846
1122.830, 86.09962
1123.312, 85.91126
1123.794, 85.41897
1124.276, 84.73900
1124.759, 84.31930
1125.241, 84.34901
1125.723, 83.39047
1126.205, 81.01350
1126.687, 79.37062
1127.169, 79.10256
1127.651, 79.16436
1128.133, 78.89077
1128.616, 78.46495
1129.098, 78.19831
1129.580, 78.09084
1130.062, 78.26373
1130.544, 78.79837
1131.026, 78.40376
1131.508, 76.76408
1131.990, 75.66397
1132.473, 75.98203
1132.955, 76.94835
1133.437, 77.82110
1133.919, 78.36947
1134.401, 77.32291
1134.883, 74.93521
1135.365, 74.55428
1135.847, 76.27177
1136.329, 77.68605
1136.812, 78.03970
1137.294, 77.59586
1137.776, 76.43262
1138.258, 75.25223
1138.740, 75.56081
1139.222, 76.83233
1139.704, 77.23354
1140.186, 76.96664
1140.668, 77.23518
1141.151, 78.09372
1141.633, 78.21543
1142.115, 76.91293
1142.597, 75.54871
1143.079, 75.90010
1143.561, 76.91688
1144.043, 76.77737
1144.525, 76.01841
1145.008, 75.66000
1145.490, 75.73450
1145.972, 76.00864
1146.454, 76.35818
1146.936, 76.46053
1147.418, 75.93433
1147.900, 75.43395
1148.382, 75.94357
1148.865, 76.51754
1149.347, 75.85411
1149.829, 74.53892
1150.311, 73.53478
1150.793, 73.04899
1151.275, 73.12865
1151.757, 73.94756
1152.239, 74.49074
1152.721, 73.70895
1153.203, 73.02253
1153.686, 73.60590
1154.168, 74.54656
1154.650, 74.94743
1155.132, 74.89436
1155.614, 74.83897
1156.096, 74.86763
1156.578, 74.49831
1157.060, 72.66127
1157.543, 71.76144
1158.025, 73.58021
1158.507, 75.26495
1158.989, 75.06519
1159.471, 73.85518
1159.953, 72.50232
1160.435, 71.15006
1160.917, 70.40332
1161.400, 70.19553
1161.882, 70.84325
1162.364, 73.74023
1162.846, 75.28074
1163.328, 73.32919
1163.810, 71.37291
1164.292, 72.12577
1164.774, 74.43831
1165.256, 76.01910
1165.739, 76.86475
1166.221, 76.86337
1166.703, 75.73637
1167.185, 74.78349
1167.667, 74.13379
1168.149, 73.76938
1168.631, 73.67039
1169.113, 73.95647
1169.595, 74.92320
1170.078, 76.14299
1170.560, 75.79262
1171.042, 73.94686
1171.524, 73.45505
1172.006, 74.39677
1172.488, 75.59702
1172.970, 76.75244
1173.452, 77.98120
1173.934, 79.40794
1174.417, 80.44183
1174.899, 79.73394
1175.381, 80.76562
1175.863, 80.99426
1176.345, 80.95165
1176.827, 81.64759
1177.309, 81.08008
1177.791, 80.96580
1178.274, 81.86155
1178.756, 82.92046
1179.238, 83.49836
1179.720, 83.99252
1180.202, 84.79658
1180.684, 85.79534
1181.166, 86.94798
1181.648, 88.13810
1182.130, 89.02116
1182.613, 89.73540
1183.095, 91.05910
1183.577, 93.38926
1184.059, 95.20246
1184.541, 95.54736
1185.023, 95.35544
1185.505, 94.96943
1185.987, 94.41611
1186.469, 93.25332
1186.952, 92.14998
1187.434, 92.85115
1187.916, 95.23665
1188.398, 95.31371
1188.880, 90.35368
1189.362, 86.67231
1189.844, 85.46798
1190.326, 84.90374
1190.809, 84.76936
1191.291, 84.60702
1191.773, 84.04629
1192.255, 83.19681
1192.737, 82.31026
1193.219, 81.39564
1193.701, 80.32384
1194.183, 78.94230
1194.666, 78.07671
1195.148, 78.01052
1195.630, 77.64212
1196.112, 76.33361
1196.594, 75.18771
1197.076, 75.55059
1197.558, 76.70342
1198.040, 76.43080
1198.522, 74.92590
1199.005, 73.90627
1199.487, 73.35674
1199.969, 72.49395
1200.451, 71.21677
1200.933, 70.18100
1201.415, 69.74329
1201.897, 70.03332
1202.379, 71.63029
1202.861, 73.58808
1203.344, 74.53725
1203.826, 74.68910
1204.308, 74.12650
1204.790, 73.17179
1205.272, 72.23508
1205.754, 71.57366
1206.236, 72.05253
1206.718, 74.71249
1207.201, 76.24429
1207.683, 72.81198
1208.165, 69.65862
1208.647, 71.06602
1209.129, 73.88074
1209.611, 75.12169
1210.093, 75.00845
1210.575, 74.41532
1211.057, 73.43851
1211.540, 73.30090
1212.022, 74.96633
1212.504, 76.24428
1212.986, 76.63557
1213.468, 76.92779
1213.950, 77.20081
1214.432, 77.73801
1214.914, 78.99484
1215.396, 80.56257
1215.879, 81.25217
1216.361, 81.94476
1216.843, 82.36601
1217.325, 82.13551
1217.807, 82.24391
1218.289, 81.18221
1218.771, 80.35223
1219.253, 80.36026
1219.736, 81.22302
1220.218, 83.18914
1220.700, 85.35580
1221.182, 85.39658
1221.664, 84.06729
1222.146, 83.95222
1222.628, 84.73908
1223.110, 84.86829
1223.593, 84.26369
1224.075, 84.07287
1224.557, 84.79945
1225.039, 85.83104
1225.521, 86.83926
1226.003, 87.72054
1226.485, 88.25076
1226.967, 88.71423
1227.449, 89.72906
1227.932, 90.69241
1228.414, 90.43853
1228.896, 89.14617
1229.378, 88.18687
1229.860, 87.84600
1230.342, 88.03379
1230.824, 89.62209
1231.306, 90.47810
1231.788, 89.39580
1232.271, 88.06002
1232.753, 87.06264
1233.235, 86.73675
1233.717, 88.00123
1234.199, 86.85296
1234.681, 90.25229
1235.163, 86.75691
1235.645, 85.50063
1236.128, 87.06238
1236.610, 87.65542
1237.092, 86.28092
1237.574, 84.90714
1238.056, 84.71708
1238.538, 84.07056
1239.020, 84.73168
1239.502, 84.31259
1239.984, 84.93739
1240.467, 86.13651
1240.949, 86.76158
1241.431, 86.66811
1241.913, 85.22121
1242.395, 82.79244
1242.877, 81.86093
1243.359, 83.79823
1243.841, 85.88909
1244.323, 86.15193
1244.806, 85.79552
1245.288, 85.45718
1245.770, 85.16788
1246.252, 84.75913
1246.734, 84.50891
1247.216, 84.55294
1247.698, 84.87968
1248.180, 84.79112
1248.662, 85.41187
1249.145, 85.56834
1249.627, 85.66644
1250.109, 86.68089
1250.591, 87.72124
1251.073, 88.51025
1251.555, 88.87476
1252.037, 88.91368
1252.519, 88.68867
1253.002, 88.31691
1253.484, 88.36483
1253.966, 88.82451
1254.448, 89.54733
1254.930, 90.45981
1255.412, 90.49074
1255.894, 89.51671
1256.376, 88.98945
1256.859, 89.68545
1257.341, 90.14202
1257.823, 88.37221
1258.305, 86.22430
1258.787, 86.22270
1259.269, 87.30743
1259.751, 88.64468
1260.233, 89.66628
1260.715, 89.19761
1261.198, 87.63928
1261.680, 87.07452
1262.162, 88.26303
1262.644, 89.27368
1263.126, 89.47805
1263.608, 89.46440
1264.090, 89.60365
1264.572, 89.31343
1265.054, 87.75686
1265.537, 86.16042
1266.019, 85.96678
1266.501, 86.70616
1266.983, 86.79015
1267.465, 86.16020
1267.947, 85.44511
1268.429, 84.60901
1268.911, 84.06010
1269.394, 83.85814
1269.876, 84.35239
1270.358, 85.69028
1270.840, 86.57014
1271.322, 85.65929
1271.804, 86.70284
1272.286, 85.13573
1272.768, 86.65502
1273.250, 86.37874
1273.733, 85.14174
1274.215, 84.37663
1274.697, 84.20550
1275.179, 84.34890
1275.661, 84.71088
1276.143, 85.14296
1276.625, 85.61813
1277.107, 86.09863
1277.589, 87.02876
1278.072, 87.37321
1278.554, 85.64533
1279.036, 84.22440
1279.518, 85.34748
1280.000, 87.64809
1280.482, 88.90482
1280.964, 89.17392
1281.446, 88.95499
1281.929, 88.08773
1282.411, 88.20979
1282.893, 89.48575
1283.375, 89.74956
1283.857, 88.47980
1284.339, 87.01075
1284.821, 86.10027
1285.303, 86.11546
1285.786, 87.42003
1286.268, 90.00855
##END=



