##NAMES=Trolleite
##RRUFFID=R050425
##IDEAL CHEMISTRY=Al_4_(PO_4_)_3_(OH)_3_
##LOCALITY=Halsjoberg, Varmland, Sweden
##OWNER=RRUFF
##SOURCE=Marcus Origlieri
##DESCRIPTION=Pale green granular aggregate
##STATUS=The identification of this mineral has been confirmed by X-ray diffraction and chemical analysis
##URL=rruff.info/R050425
##MEASURED CHEMISTRY=(Al_3.95_Fe^3+^_0.05_)_Î£=4_(P_1.00_O_4_)_3_(OH)_3_
96.19379, 114.6495
96.67590, 114.5237
97.15802, 113.9940
97.64014, 112.6336
98.12225, 110.8276
98.60437, 109.2677
99.08649, 108.2796
99.56861, 107.5768
100.0507, 106.6312
100.5328, 105.1786
101.0150, 103.7997
101.4971, 102.9356
101.9792, 102.5881
102.4613, 102.4706
102.9434, 102.5792
103.4255, 102.8024
103.9077, 103.0958
104.3898, 103.4609
104.8719, 103.8450
105.3540, 104.1453
105.8361, 104.3422
106.3182, 104.4649
106.8004, 104.4914
107.2825, 104.4657
107.7646, 104.3855
108.2467, 104.2160
108.7288, 103.9895
109.2109, 104.2126
109.6931, 105.3460
110.1752, 106.4552
110.6573, 107.1683
111.1394, 107.6163
111.6215, 108.2159
112.1037, 109.3608
112.5858, 111.1657
113.0679, 112.6914
113.5500, 113.6867
114.0321, 114.5965
114.5142, 115.7551
114.9964, 117.2153
115.4785, 118.7705
115.9606, 120.1651
116.4427, 121.4071
116.9248, 122.6948
117.4069, 124.0517
117.8891, 125.4832
118.3712, 127.0859
118.8533, 129.0608
119.3354, 130.8896
119.8175, 131.9372
120.2996, 132.2856
120.7818, 132.7803
121.2639, 134.1260
121.7460, 136.3533
122.2281, 138.5656
122.7102, 139.8392
123.1923, 141.6181
123.6745, 144.6717
124.1566, 149.1472
124.6387, 154.6921
125.1208, 160.9691
125.6029, 168.4165
126.0850, 175.6965
126.5672, 184.4724
127.0493, 192.2004
127.5314, 197.0259
128.0135, 198.2112
128.4956, 195.9519
128.9778, 190.6784
129.4599, 179.6445
129.9420, 168.4087
130.4241, 156.2207
130.9062, 144.2118
131.3883, 134.0179
131.8705, 126.5672
132.3526, 121.5552
132.8347, 117.0960
133.3168, 112.5545
133.7989, 108.9888
134.2810, 107.3783
134.7632, 107.3932
135.2453, 107.2928
135.7274, 105.7759
136.2095, 103.2749
136.6916, 101.4760
137.1737, 100.7738
137.6559, 100.6124
138.1380, 100.4640
138.6201, 100.3216
139.1022, 100.2254
139.5843, 100.2441
140.0664, 100.3197
140.5486, 100.3701
141.0307, 100.3343
141.5128, 100.2533
141.9949, 100.2173
142.4770, 100.0898
142.9591, 100.2518
143.4413, 100.7707
143.9234, 101.6416
144.4055, 102.8963
144.8876, 104.7091
145.3697, 107.0842
145.8518, 108.8806
146.3340, 109.6530
146.8161, 110.1832
147.2982, 110.5347
147.7803, 110.8092
148.2624, 111.1702
148.7445, 111.8048
149.2267, 112.8063
149.7088, 113.6763
150.1909, 114.4056
150.6730, 115.0458
151.1551, 115.6456
151.6373, 116.2028
152.1194, 116.6461
152.6015, 116.8623
153.0836, 116.6799
153.5657, 116.7542
154.0478, 117.2409
154.5300, 117.9088
155.0121, 118.4972
155.4942, 118.9295
155.9763, 119.3839
156.4584, 120.1219
156.9405, 121.1057
157.4227, 122.3600
157.9048, 123.9378
158.3869, 125.7898
158.8690, 127.8203
159.3511, 130.0366
159.8332, 132.4088
160.3154, 134.8399
160.7975, 137.3125
161.2796, 140.0045
161.7617, 143.0765
162.2438, 146.5254
162.7259, 150.0300
163.2081, 153.3406
163.6902, 156.8859
164.1723, 160.9400
164.6544, 165.5649
165.1365, 170.5531
165.6186, 175.7869
166.1008, 181.2884
166.5829, 186.8486
167.0650, 191.8259
167.5471, 197.2260
168.0292, 203.6794
168.5113, 211.3450
168.9935, 219.9064
169.4756, 229.0685
169.9577, 240.0075
170.4398, 249.2148
170.9219, 258.0361
171.4040, 264.5351
171.8862, 267.1395
172.3683, 265.2654
172.8504, 259.4246
173.3325, 250.6821
173.8146, 235.5957
174.2968, 221.5630
174.7789, 208.3586
175.2610, 196.4128
175.7431, 186.3116
176.2252, 178.2360
176.7073, 172.0190
177.1895, 167.2924
177.6716, 164.5934
178.1537, 162.4801
178.6358, 160.8575
179.1179, 159.6259
179.6000, 158.5628
180.0822, 157.5543
180.5643, 156.6758
181.0464, 156.1092
181.5285, 155.6507
182.0106, 155.6906
182.4927, 156.5661
182.9749, 158.1586
183.4570, 159.9123
183.9391, 161.4664
184.4212, 163.1257
184.9033, 165.4154
185.3854, 168.5829
185.8676, 171.9859
186.3497, 174.8875
186.8318, 177.2551
187.3139, 180.2939
187.7960, 185.1634
188.2781, 190.7586
188.7603, 195.7900
189.2424, 199.8464
189.7245, 203.6943
190.2066, 208.2223
190.6887, 213.4309
191.1708, 219.4036
191.6530, 226.3136
192.1351, 233.8948
192.6172, 241.9172
193.0993, 250.2107
193.5814, 259.1150
194.0635, 269.2991
194.5457, 281.1567
195.0278, 293.6039
195.5099, 307.7028
195.9920, 321.5883
196.4741, 333.8643
196.9563, 343.9886
197.4384, 351.4654
197.9205, 354.8415
198.4026, 352.6295
198.8847, 347.5986
199.3668, 339.2615
199.8490, 328.8653
200.3311, 317.4179
200.8132, 305.3863
201.2953, 293.0894
201.7774, 281.9337
202.2595, 271.5811
202.7417, 262.8822
203.2238, 256.5559
203.7059, 251.7758
204.1880, 247.4855
204.6701, 243.1957
205.1522, 238.8186
205.6344, 233.9467
206.1165, 227.8635
206.5986, 222.0898
207.0807, 217.0388
207.5628, 212.5123
208.0449, 208.1501
208.5271, 203.7883
209.0092, 199.4294
209.4913, 195.1496
209.9734, 190.7821
210.4555, 186.6611
210.9376, 183.0776
211.4198, 179.8683
211.9019, 176.5229
212.3840, 172.7724
212.8661, 168.7797
213.3482, 164.9883
213.8303, 161.3269
214.3125, 157.9668
214.7946, 155.2347
215.2767, 153.0023
215.7588, 150.6177
216.2409, 147.6573
216.7231, 144.4651
217.2052, 141.5995
217.6873, 139.0995
218.1694, 136.8973
218.6515, 135.0665
219.1336, 133.5844
219.6158, 132.0364
220.0979, 130.1620
220.5800, 128.2018
221.0621, 126.3495
221.5442, 124.5816
222.0263, 123.1064
222.5085, 122.2691
222.9906, 122.1350
223.4727, 121.8848
223.9548, 121.1625
224.4369, 120.2832
224.9190, 119.4900
225.4012, 118.8280
225.8833, 118.1438
226.3654, 117.2836
226.8475, 116.2678
227.3296, 114.9868
227.8117, 112.9124
228.2939, 110.8882
228.7760, 109.5079
229.2581, 108.8756
229.7402, 108.6200
230.2223, 108.2252
230.7044, 107.5577
231.1866, 107.1863
231.6687, 107.2895
232.1508, 107.5969
232.6329, 107.9793
233.1150, 108.4026
233.5971, 108.8776
234.0793, 109.3567
234.5614, 109.6222
235.0435, 110.4800
235.5256, 112.3141
236.0077, 114.3781
236.4898, 116.1864
236.9720, 117.6643
237.4541, 119.1047
237.9362, 120.9524
238.4183, 123.5348
238.9004, 125.6855
239.3826, 126.8944
239.8647, 128.1165
240.3468, 130.0408
240.8289, 132.7172
241.3110, 135.6098
241.7931, 138.0816
242.2753, 139.9107
242.7574, 141.8930
243.2395, 144.2787
243.7216, 146.6039
244.2037, 148.6005
244.6858, 150.2210
245.1680, 151.5521
245.6501, 152.6696
246.1322, 153.5152
246.6143, 154.3391
247.0964, 154.9891
247.5785, 155.7349
248.0607, 156.8101
248.5428, 158.2032
249.0249, 159.6734
249.5070, 160.9401
249.9891, 161.9467
250.4712, 163.4172
250.9534, 165.2811
251.4355, 167.6260
251.9176, 170.5497
252.3997, 174.0428
252.8818, 178.0298
253.3639, 182.5385
253.8461, 187.5983
254.3282, 192.3880
254.8103, 197.4064
255.2924, 201.7862
255.7745, 204.9447
256.2567, 206.8665
256.7388, 207.7591
257.2209, 207.8464
257.7030, 206.8662
258.1851, 204.4342
258.6672, 199.8949
259.1494, 194.4526
259.6315, 188.4059
260.1136, 181.8953
260.5957, 176.0488
261.0778, 171.4778
261.5599, 168.1877
262.0421, 165.5788
262.5242, 164.1061
263.0063, 162.7715
263.4884, 160.8634
263.9705, 158.4337
264.4526, 155.9521
264.9348, 153.7589
265.4169, 151.5495
265.8990, 148.7807
266.3811, 145.1485
266.8632, 141.5481
267.3453, 138.4043
267.8275, 135.7531
268.3096, 133.8952
268.7917, 133.2290
269.2738, 133.2375
269.7559, 133.0983
270.2380, 132.7314
270.7202, 132.5953
271.2023, 133.1124
271.6844, 134.1966
272.1665, 135.2395
272.6486, 135.8980
273.1307, 136.7002
273.6129, 138.1742
274.0950, 140.3242
274.5771, 142.6161
275.0592, 144.7722
275.5413, 146.8047
276.0234, 148.6842
276.5056, 150.0827
276.9877, 151.8037
277.4698, 154.4016
277.9519, 157.7919
278.4340, 161.5664
278.9161, 165.5382
279.3983, 169.7032
279.8804, 174.1068
280.3625, 178.6480
280.8446, 183.6085
281.3267, 189.0802
281.8088, 194.9986
282.2910, 201.2811
282.7731, 207.8226
283.2552, 214.6749
283.7373, 221.9626
284.2194, 229.5545
284.7015, 237.8993
285.1837, 247.5888
285.6658, 258.0402
286.1479, 268.4808
286.6300, 278.5515
287.1121, 288.3343
287.5942, 298.2883
288.0764, 309.2849
288.5585, 318.2758
289.0406, 324.4926
289.5227, 328.2287
290.0048, 329.6818
290.4869, 329.0389
290.9691, 325.8099
291.4512, 318.8185
291.9333, 307.2912
292.4154, 294.4358
292.8975, 280.0885
293.3796, 265.3991
293.8618, 251.0383
294.3439, 237.1744
294.8260, 224.2216
295.3081, 212.7307
295.7903, 202.8024
296.2724, 193.9390
296.7545, 186.5164
297.2366, 179.8854
297.7187, 173.7300
298.2008, 168.0342
298.6830, 163.0464
299.1651, 159.2515
299.6472, 156.7567
300.1293, 154.3257
300.6114, 151.4778
301.0935, 149.1128
301.5757, 147.6470
302.0578, 147.0373
302.5399, 147.0185
303.0220, 147.5457
303.5041, 148.5853
303.9862, 149.3577
304.4684, 149.2197
304.9505, 149.6008
305.4326, 151.0275
305.9147, 153.3083
306.3968, 156.1098
306.8789, 159.3337
307.3611, 162.8654
307.8432, 166.0917
308.3253, 168.5522
308.8074, 171.4645
309.2895, 175.2413
309.7716, 179.5672
310.2538, 184.1339
310.7359, 188.8812
311.2180, 193.5523
311.7001, 197.6151
312.1822, 201.2728
312.6643, 203.8424
313.1465, 205.3189
313.6286, 205.7670
314.1107, 205.2344
314.5928, 203.7289
315.0749, 201.1842
315.5570, 197.4084
316.0392, 192.1941
316.5213, 186.4881
317.0034, 179.8470
317.4855, 173.1167
317.9676, 166.6292
318.4497, 160.4842
318.9319, 154.7745
319.4140, 149.5668
319.8961, 144.8616
320.3782, 140.7263
320.8603, 137.2151
321.3424, 134.3292
321.8246, 132.3866
322.3067, 131.0947
322.7888, 129.7398
323.2709, 127.6863
323.7530, 125.1085
324.2351, 123.4006
324.7173, 123.0777
325.1994, 122.9644
325.6815, 122.7122
326.1636, 122.4052
326.6457, 122.1186
327.1278, 121.8441
327.6100, 121.7316
328.0921, 122.2472
328.5742, 123.8199
329.0563, 125.0923
329.5384, 125.4716
330.0205, 125.6043
330.5027, 125.9660
330.9848, 126.6984
331.4669, 127.8034
331.9490, 129.4280
332.4311, 131.7677
332.9132, 133.7660
333.3954, 135.0140
333.8775, 136.0620
334.3596, 136.9277
334.8417, 137.7430
335.3238, 139.0085
335.8059, 141.5551
336.2881, 145.4200
336.7702, 148.2724
337.2523, 149.2039
337.7344, 150.0346
338.2165, 151.9109
338.6986, 154.3569
339.1808, 156.2442
339.6629, 156.8463
340.1450, 156.3671
340.6271, 155.5832
341.1093, 154.5779
341.5914, 153.0678
342.0735, 150.8096
342.5556, 148.1042
343.0377, 145.3212
343.5198, 142.6324
344.0020, 139.8060
344.4841, 136.2079
344.9662, 131.4229
345.4483, 127.5855
345.9304, 126.1273
346.4125, 125.4362
346.8947, 124.4479
347.3768, 122.9839
347.8589, 121.5831
348.3410, 120.7124
348.8231, 120.3645
349.3052, 120.3945
349.7874, 120.8403
350.2695, 121.6426
350.7516, 122.7762
351.2337, 124.2039
351.7158, 125.7600
352.1979, 127.3174
352.6801, 128.9323
353.1622, 130.7952
353.6443, 132.9680
354.1264, 135.2589
354.6085, 137.9922
355.0906, 140.7020
355.5728, 142.5079
356.0549, 142.7908
356.5370, 142.4493
357.0191, 142.7903
357.5012, 143.9071
357.9833, 144.6443
358.4655, 144.2040
358.9476, 143.3114
359.4297, 142.9001
359.9118, 143.1620
360.3939, 143.3661
360.8760, 143.0875
361.3582, 142.3255
361.8403, 141.0495
362.3224, 139.2043
362.8045, 136.8978
363.2866, 134.1301
363.7687, 130.9575
364.2509, 127.8361
364.7330, 124.9499
365.2151, 122.2145
365.6972, 119.4316
366.1793, 116.5341
366.6614, 113.8292
367.1436, 111.6302
367.6257, 109.8179
368.1078, 108.0270
368.5899, 106.1336
369.0720, 104.2988
369.5541, 102.5539
370.0363, 100.9341
370.5184, 99.70985
371.0005, 99.03886
371.4826, 98.83733
371.9647, 98.88667
372.4468, 99.23121
372.9290, 99.67177
373.4111, 99.91292
373.8932, 100.2376
374.3753, 101.3291
374.8574, 103.4554
375.3395, 105.7820
375.8217, 107.0750
376.3038, 107.1418
376.7859, 107.9447
377.2680, 110.1519
377.7501, 112.8413
378.2322, 115.4358
378.7144, 117.8256
379.1965, 119.7955
379.6786, 121.1293
380.1607, 121.8735
380.6428, 122.7081
381.1249, 124.1337
381.6071, 125.0893
382.0892, 125.2094
382.5713, 124.5943
383.0534, 123.3392
383.5355, 121.4397
384.0176, 119.2096
384.4998, 117.3039
384.9819, 115.8820
385.4640, 114.5552
385.9461, 113.1679
386.4283, 111.9693
386.9104, 111.1563
387.3925, 110.7685
387.8746, 110.7502
388.3567, 111.0312
388.8388, 111.5759
389.3210, 112.7268
389.8031, 114.5934
390.2852, 116.8501
390.7673, 119.5766
391.2494, 122.5873
391.7315, 125.5742
392.2137, 128.3520
392.6958, 130.9742
393.1779, 133.6090
393.6600, 136.4225
394.1421, 138.9943
394.6242, 141.1194
395.1064, 143.1131
395.5885, 145.2132
396.0706, 147.4972
396.5527, 149.8928
397.0348, 152.3887
397.5169, 155.0776
397.9991, 157.4386
398.4812, 159.2456
398.9633, 160.8972
399.4454, 162.6322
399.9275, 164.3465
400.4096, 165.7486
400.8918, 166.5396
401.3739, 166.9042
401.8560, 167.6276
402.3381, 168.7619
402.8202, 170.1828
403.3023, 172.3938
403.7845, 174.5907
404.2666, 175.8930
404.7487, 176.0182
405.2308, 175.5245
405.7129, 175.0916
406.1950, 174.7402
406.6772, 174.0087
407.1593, 172.5505
407.6414, 170.9518
408.1235, 169.8534
408.6056, 169.1035
409.0877, 167.8514
409.5699, 165.0808
410.0520, 161.5465
410.5341, 159.2107
411.0162, 158.4672
411.4983, 157.6010
411.9804, 155.2921
412.4626, 152.2373
412.9447, 149.5795
413.4268, 147.5198
413.9089, 145.8547
414.3910, 144.4906
414.8731, 143.4100
415.3553, 142.4692
415.8374, 141.4914
416.3195, 140.8613
416.8016, 141.1918
417.2837, 142.4273
417.7658, 144.2112
418.2480, 146.7535
418.7301, 149.6339
419.2122, 152.2248
419.6943, 154.4967
420.1764, 157.2061
420.6585, 160.9537
421.1407, 165.7218
421.6228, 170.7110
422.1049, 176.1402
422.5870, 181.5795
423.0691, 186.4244
423.5512, 191.2249
424.0334, 197.2027
424.5155, 204.8535
424.9976, 213.3360
425.4797, 221.0984
425.9618, 228.4149
426.4439, 234.1949
426.9261, 238.8102
427.4082, 241.7121
427.8903, 242.8821
428.3724, 242.0771
428.8545, 238.6045
429.3366, 231.8105
429.8188, 221.7266
430.3009, 210.1367
430.7830, 194.9163
431.2651, 180.3885
431.7473, 167.2737
432.2294, 155.2096
432.7115, 143.6816
433.1936, 132.5255
433.6757, 122.4115
434.1578, 114.7275
434.6400, 110.0739
435.1221, 105.7803
435.6042, 101.6163
436.0863, 97.86862
436.5684, 94.78766
437.0505, 92.28624
437.5327, 90.01130
438.0148, 87.59012
438.4969, 85.26295
438.9790, 83.97371
439.4611, 84.02782
439.9432, 84.35899
440.4254, 84.71440
440.9075, 85.03229
441.3896, 85.13568
441.8717, 84.90753
442.3538, 84.93110
442.8359, 85.78557
443.3181, 87.38216
443.8002, 89.13267
444.2823, 90.88618
444.7644, 92.86647
445.2465, 95.45880
445.7286, 98.53618
446.2108, 101.4533
446.6929, 103.7954
447.1750, 106.0635
447.6571, 108.6586
448.1392, 111.5971
448.6213, 115.0139
449.1035, 119.1313
449.5856, 123.6220
450.0677, 127.5313
450.5498, 130.5484
451.0319, 133.7435
451.5140, 137.1591
451.9962, 140.9961
452.4783, 145.4409
452.9604, 150.5475
453.4425, 156.3188
453.9246, 162.7592
454.4067, 169.8718
454.8889, 177.7279
455.3710, 186.0801
455.8531, 195.2316
456.3352, 205.1601
456.8173, 215.9726
457.2994, 227.8739
457.7816, 240.9192
458.2637, 255.1605
458.7458, 270.7676
459.2279, 287.6706
459.7100, 306.3161
460.1921, 327.2867
460.6743, 349.2849
461.1564, 372.2916
461.6385, 395.8362
462.1206, 418.7229
462.6027, 440.7305
463.0848, 461.2148
463.5670, 477.1259
464.0491, 489.1579
464.5312, 494.6747
465.0133, 492.7083
465.4954, 484.3437
465.9775, 469.6243
466.4597, 448.2529
466.9418, 423.3082
467.4239, 396.4513
467.9060, 368.0322
468.3881, 339.7949
468.8702, 311.1404
469.3524, 284.1921
469.8345, 261.1367
470.3166, 241.1977
470.7987, 223.0235
471.2808, 206.2284
471.7629, 191.0768
472.2451, 178.0132
472.7272, 166.9352
473.2093, 157.4250
473.6914, 149.4693
474.1735, 142.7137
474.6556, 136.5307
475.1378, 130.8722
475.6199, 125.7944
476.1020, 121.4011
476.5841, 117.5118
477.0663, 113.9793
477.5484, 110.7949
478.0305, 107.9257
478.5126, 105.3699
478.9947, 103.1144
479.4768, 101.1498
479.9590, 99.63289
480.4411, 98.19485
480.9232, 96.81154
481.4053, 95.47133
481.8874, 94.06715
482.3695, 92.61692
482.8517, 91.43423
483.3338, 90.98042
483.8159, 91.36262
484.2980, 91.56036
484.7801, 91.42030
485.2622, 91.25983
485.7444, 91.27161
486.2265, 91.31728
486.7086, 91.10336
487.1907, 90.43005
487.6728, 89.73392
488.1549, 89.71783
488.6371, 90.42622
489.1192, 91.10319
489.6013, 91.54849
490.0834, 91.95496
490.5655, 92.47849
491.0476, 93.11360
491.5298, 93.81714
492.0119, 94.62470
492.4940, 95.46328
492.9761, 96.26152
493.4582, 97.01642
493.9403, 97.64346
494.4225, 98.03667
494.9046, 98.33203
495.3867, 98.89156
495.8688, 99.81616
496.3509, 100.7018
496.8330, 101.3383
497.3152, 101.9580
497.7973, 102.8207
498.2794, 103.9429
498.7615, 105.1842
499.2436, 106.4565
499.7257, 107.7395
500.2079, 108.7472
500.6900, 109.1718
501.1721, 109.6929
501.6542, 110.6751
502.1363, 111.6790
502.6184, 112.1366
503.1006, 111.9430
503.5827, 111.5907
504.0648, 111.7517
504.5469, 112.5095
505.0290, 112.9410
505.5111, 112.9004
505.9933, 112.6940
506.4754, 112.3697
506.9575, 111.9918
507.4396, 111.6735
507.9217, 111.4831
508.4038, 111.2759
508.8860, 110.8821
509.3681, 110.3046
509.8502, 109.6693
510.3323, 109.1529
510.8144, 108.3388
511.2965, 106.5314
511.7787, 103.9479
512.2608, 101.7345
512.7429, 100.4917
513.2250, 99.48376
513.7072, 97.96379
514.1893, 96.07570
514.6714, 94.55522
515.1535, 93.82217
515.6356, 93.32732
516.1177, 91.92549
516.5999, 88.89085
517.0820, 86.55030
517.5641, 85.30461
518.0462, 84.49133
518.5283, 83.84545
519.0104, 83.23662
519.4926, 82.45231
519.9747, 81.32261
520.4568, 79.99335
520.9389, 79.04597
521.4210, 78.83754
521.9031, 78.33827
522.3853, 77.08928
522.8674, 75.79927
523.3495, 75.03477
523.8316, 74.77395
524.3137, 74.55627
524.7958, 74.01930
525.2780, 73.25211
525.7601, 72.55684
526.2422, 71.92616
526.7243, 71.39721
527.2064, 70.98907
527.6885, 70.69994
528.1707, 70.55547
528.6528, 70.59071
529.1349, 70.58943
529.6170, 70.38551
530.0991, 70.09402
530.5812, 69.93144
531.0634, 69.92160
531.5455, 69.87215
532.0276, 69.60822
532.5097, 69.18249
532.9918, 68.97026
533.4739, 69.22654
533.9561, 69.33604
534.4382, 68.95718
534.9203, 68.48401
535.4024, 68.44238
535.8845, 68.87175
536.3666, 69.28123
536.8488, 69.11806
537.3309, 68.38460
537.8130, 68.10204
538.2951, 68.75883
538.7772, 69.23537
539.2593, 68.94886
539.7415, 68.52987
540.2236, 68.80077
540.7057, 69.94638
541.1878, 71.10804
541.6699, 71.25863
542.1520, 70.57393
542.6342, 70.32732
543.1163, 70.74055
543.5984, 71.26293
544.0805, 71.53993
544.5626, 71.68059
545.0447, 71.88737
545.5269, 72.21754
546.0090, 72.55617
546.4911, 72.81932
546.9732, 73.04993
547.4553, 73.33920
547.9374, 73.70966
548.4196, 74.08495
548.9017, 74.37830
549.3838, 74.58672
549.8659, 74.91377
550.3480, 75.71741
550.8301, 76.19701
551.3123, 75.77065
551.7944, 75.05921
552.2765, 74.91368
552.7586, 75.51603
553.2407, 76.26886
553.7228, 76.43739
554.2050, 75.98708
554.6871, 75.57264
555.1692, 75.12331
555.6513, 74.82104
556.1334, 74.82127
556.6155, 74.95233
557.0977, 74.96656
557.5798, 74.77868
558.0619, 74.62479
558.5440, 74.75361
559.0261, 75.09785
559.5082, 75.41959
559.9904, 75.69014
560.4725, 75.92610
560.9546, 76.20704
561.4367, 76.46011
561.9188, 76.39241
562.4009, 75.49260
562.8831, 74.91148
563.3652, 75.40117
563.8473, 76.33101
564.3294, 76.74057
564.8115, 76.46965
565.2936, 76.16331
565.7758, 76.48412
566.2579, 77.43601
566.7400, 78.26958
567.2221, 78.97038
567.7042, 79.55848
568.1863, 79.98195
568.6685, 80.32298
569.1506, 80.68785
569.6327, 81.08584
570.1148, 81.39153
570.5969, 81.38911
571.0790, 81.15106
571.5612, 81.24954
572.0433, 81.94213
572.5254, 82.22987
573.0075, 81.24857
573.4896, 79.69714
573.9717, 78.65448
574.4539, 78.36640
574.9360, 78.00352
575.4181, 77.21420
575.9002, 76.09901
576.3823, 74.63609
576.8644, 72.88002
577.3466, 71.35426
577.8287, 70.47124
578.3108, 70.08824
578.7929, 69.50272
579.2750, 68.43279
579.7571, 67.52610
580.2393, 66.74266
580.7214, 66.19081
581.2035, 66.01155
581.6856, 66.16558
582.1677, 66.45298
582.6498, 66.72040
583.1320, 67.01021
583.6141, 67.45914
584.0962, 68.07038
584.5783, 68.84904
585.0604, 70.14861
585.5425, 71.33549
586.0247, 71.60652
586.5068, 71.06001
586.9889, 71.03267
587.4711, 72.30065
587.9532, 74.26009
588.4353, 76.61549
588.9174, 79.16471
589.3995, 80.76175
589.8817, 80.71176
590.3638, 80.03786
590.8459, 80.51922
591.3280, 82.59113
591.8101, 84.69252
592.2922, 86.78013
592.7744, 88.94001
593.2565, 91.10973
593.7386, 93.39686
594.2207, 96.01637
594.7028, 99.05595
595.1849, 102.3492
595.6671, 105.6985
596.1492, 109.1712
596.6313, 112.1541
597.1134, 114.2846
597.5955, 116.3724
598.0776, 119.3132
598.5598, 122.4536
599.0419, 124.5385
599.5240, 125.1709
600.0061, 124.8569
600.4882, 123.8880
600.9703, 122.2935
601.4525, 120.0811
601.9346, 117.2489
602.4167, 113.9440
602.8988, 110.1929
603.3809, 106.0432
603.8630, 102.4381
604.3452, 99.50596
604.8273, 96.85025
605.3094, 94.23994
605.7915, 91.97211
606.2736, 90.40953
606.7557, 89.53860
607.2379, 88.95435
607.7200, 88.27351
608.2021, 87.60435
608.6842, 87.53697
609.1663, 88.24348
609.6484, 89.05174
610.1306, 89.63051
610.6127, 90.34265
611.0948, 91.53526
611.5769, 93.20955
612.0590, 95.02876
612.5411, 97.11818
613.0233, 99.11313
613.5054, 100.2480
613.9875, 100.7995
614.4696, 102.1868
614.9517, 105.0839
615.4338, 108.7641
615.9160, 112.1167
616.3981, 115.0958
616.8802, 117.8252
617.3623, 120.1725
617.8444, 122.4678
618.3265, 125.1004
618.8087, 127.7020
619.2908, 129.7556
619.7729, 131.0750
620.2550, 131.6373
620.7371, 131.3696
621.2192, 130.2813
621.7014, 128.6178
622.1835, 126.3546
622.6656, 123.5974
623.1477, 120.1187
623.6298, 116.2689
624.1119, 112.7125
624.5941, 109.7174
625.0762, 106.3452
625.5583, 101.9987
626.0404, 97.15941
626.5225, 92.19722
627.0046, 87.27068
627.4868, 83.01483
627.9689, 79.86346
628.4510, 77.49135
628.9331, 74.72267
629.4152, 70.92551
629.8973, 67.92818
630.3795, 65.97679
630.8616, 64.53419
631.3437, 63.45374
631.8258, 62.61650
632.3079, 61.84150
632.7900, 61.05477
633.2722, 60.24273
633.7543, 59.31603
634.2364, 58.30662
634.7185, 57.56893
635.2006, 57.24720
635.6827, 56.96810
636.1649, 56.26509
636.6470, 55.27153
637.1291, 54.93284
637.6112, 55.80878
638.0933, 56.67018
638.5754, 57.02510
639.0576, 57.20814
639.5397, 57.63013
640.0218, 58.32545
640.5039, 59.02607
640.9860, 59.50002
641.4681, 59.81744
641.9503, 60.35937
642.4324, 61.25068
642.9145, 62.05097
643.3966, 62.61487
643.8787, 63.09868
644.3608, 63.52744
644.8430, 63.94615
645.3251, 64.53668
645.8072, 65.60315
646.2893, 66.67205
646.7714, 67.17229
647.2535, 67.26376
647.7357, 67.44017
648.2178, 67.83937
648.6999, 68.41974
649.1820, 69.20938
649.6641, 70.24825
650.1462, 70.71029
650.6284, 70.16173
651.1105, 69.61020
651.5926, 69.34788
652.0747, 69.12086
652.5568, 68.69718
653.0389, 68.02946
653.5211, 67.16289
654.0032, 65.99266
654.4853, 64.71266
654.9674, 63.89263
655.4495, 63.55992
655.9316, 63.43178
656.4138, 63.60947
656.8959, 63.70858
657.3780, 63.00333
657.8601, 61.52004
658.3422, 60.56428
658.8243, 60.38518
659.3065, 60.70202
659.7886, 61.80428
660.2707, 63.15240
660.7528, 63.83336
661.2349, 63.61420
661.7170, 63.10123
662.1992, 62.97762
662.6813, 63.22286
663.1634, 63.29070
663.6455, 62.88378
664.1276, 62.89119
664.6097, 63.91072
665.0919, 65.27026
665.5740, 66.39854
666.0561, 67.26566
666.5382, 68.17577
667.0203, 69.26354
667.5024, 70.46326
667.9846, 71.72263
668.4667, 73.02975
668.9488, 74.41331
669.4309, 75.88918
669.9130, 77.33614
670.3951, 78.60759
670.8773, 79.69863
671.3594, 80.65613
671.8415, 81.26414
672.3236, 81.99767
672.8057, 83.07245
673.2878, 84.25545
673.7700, 85.40659
674.2521, 86.45311
674.7342, 87.17006
675.2163, 87.16785
675.6984, 86.79244
676.1805, 86.78516
676.6627, 87.13314
677.1448, 87.43963
677.6270, 87.57464
678.1091, 87.55544
678.5912, 87.31651
679.0733, 86.73537
679.5554, 86.72370
680.0375, 87.86275
680.5197, 88.88750
681.0018, 89.17578
681.4839, 89.14803
681.9660, 89.35589
682.4481, 89.91589
682.9302, 90.54288
683.4124, 90.92271
683.8945, 91.15940
684.3766, 91.78085
684.8587, 92.89309
685.3408, 93.72702
685.8229, 93.93343
686.3051, 93.84480
686.7872, 93.98275
687.2693, 94.34248
687.7514, 94.16548
688.2335, 93.05585
688.7156, 91.68365
689.1978, 90.39146
689.6799, 89.08311
690.1620, 87.58219
690.6441, 85.84702
691.1262, 83.94444
691.6083, 81.92852
692.0905, 79.80627
692.5726, 77.57269
693.0547, 75.11044
693.5368, 72.91914
694.0189, 71.37213
694.5010, 69.95005
694.9832, 68.06963
695.4653, 65.82170
695.9474, 63.93868
696.4295, 63.14464
696.9116, 62.27227
697.3937, 60.29087
697.8759, 57.72655
698.3580, 55.52261
698.8401, 53.90569
699.3222, 52.60249
699.8043, 51.39917
700.2864, 50.27222
700.7686, 49.03185
701.2507, 47.59234
701.7328, 46.22112
702.2149, 44.78694
702.6970, 43.60353
703.1791, 43.00066
703.6613, 42.86383
704.1434, 42.70286
704.6255, 42.28480
705.1076, 41.85976
705.5897, 41.76939
706.0718, 41.79333
706.5540, 41.36259
707.0361, 40.40522
707.5182, 39.54110
708.0003, 39.31781
708.4824, 39.55982
708.9645, 39.34692
709.4467, 38.28260
709.9288, 37.52117
710.4109, 37.34344
710.8930, 37.31229
711.3751, 37.25545
711.8572, 37.14524
712.3394, 36.94595
712.8215, 36.60027
713.3036, 36.27824
713.7857, 36.08932
714.2678, 36.04107
714.7499, 36.25599
715.2321, 36.71876
715.7142, 37.00362
716.1963, 36.82127
716.6784, 36.27588
717.1605, 35.65329
717.6426, 34.79417
718.1248, 34.17924
718.6069, 33.70743
719.0890, 33.57091
719.5711, 34.16657
720.0532, 35.06732
720.5353, 35.54227
721.0175, 35.34615
721.4996, 34.94370
721.9817, 34.63215
722.4638, 34.40149
722.9459, 34.23166
723.4280, 34.12118
723.9102, 34.07825
724.3923, 34.11068
724.8744, 34.19901
725.3565, 34.30950
725.8386, 34.45057
726.3207, 34.58437
726.8029, 34.82803
727.2850, 34.92986
727.7671, 34.68861
728.2492, 34.32717
728.7313, 34.16214
729.2134, 34.23585
729.6956, 34.21554
730.1777, 33.57736
730.6598, 32.85866
731.1419, 33.15268
731.6240, 34.25144
732.1061, 34.84354
732.5883, 34.43175
733.0704, 33.67178
733.5525, 33.34162
734.0346, 33.45813
734.5167, 33.60048
734.9988, 33.76863
735.4810, 33.96533
735.9631, 34.20118
736.4452, 34.45636
736.9273, 34.76546
737.4094, 35.09124
737.8915, 35.29209
738.3737, 35.26175
738.8558, 35.11795
739.3379, 34.93266
739.8200, 34.74183
740.3021, 34.66311
740.7842, 34.71962
741.2664, 34.83190
741.7485, 34.93995
742.2306, 35.04846
742.7127, 35.17735
743.1948, 35.30738
743.6769, 35.49479
744.1591, 35.84969
744.6412, 36.15287
745.1233, 36.25131
745.6054, 36.21772
746.0875, 36.19792
746.5696, 36.22575
747.0518, 36.32433
747.5339, 36.59915
748.0160, 36.91872
748.4981, 37.00932
748.9802, 36.88932
749.4623, 36.83688
749.9445, 37.00191
750.4266, 37.26214
750.9087, 37.35904
751.3908, 37.19020
751.8729, 37.35274
752.3550, 38.13044
752.8372, 38.87260
753.3193, 39.41390
753.8014, 39.79435
754.2835, 40.03732
754.7656, 40.15059
755.2477, 40.20491
755.7299, 40.00359
756.2120, 39.95399
756.6941, 40.65930
757.1762, 41.79956
757.6583, 42.53928
758.1404, 42.67075
758.6226, 42.71726
759.1047, 43.23301
759.5868, 44.10960
760.0689, 44.58400
760.5510, 44.46125
761.0331, 44.44402
761.5153, 44.62323
761.9974, 44.99434
762.4795, 45.60508
762.9616, 46.39712
763.4437, 47.18460
763.9258, 47.91644
764.4080, 48.66180
764.8901, 49.39943
765.3722, 50.19923
765.8543, 51.18996
766.3364, 52.32968
766.8186, 53.47761
767.3007, 54.56652
767.7828, 55.49986
768.2650, 55.91973
768.7471, 55.77877
769.2292, 56.46506
769.7113, 58.33672
770.1934, 60.25401
770.6755, 61.70960
771.1577, 62.86513
771.6398, 63.91697
772.1219, 64.82269
772.6040, 65.97548
773.0861, 67.48119
773.5682, 69.20305
774.0504, 71.26067
774.5325, 73.40311
775.0146, 75.13831
775.4967, 76.46079
775.9788, 78.02016
776.4609, 80.41868
776.9431, 83.36632
777.4252, 86.27726
777.9073, 89.14769
778.3894, 91.75542
778.8715, 93.97803
779.3536, 96.20766
779.8358, 98.70698
780.3179, 101.5100
780.8000, 104.8032
781.2821, 109.2244
781.7642, 113.2268
782.2463, 116.6673
782.7285, 119.7524
783.2106, 122.3706
783.6927, 124.7716
784.1748, 127.3927
784.6569, 130.4140
785.1390, 133.6372
785.6212, 137.1638
786.1033, 140.6708
786.5854, 143.5280
787.0675, 145.7257
787.5496, 147.5450
788.0317, 149.0943
788.5139, 150.2816
788.9960, 150.9702
789.4781, 151.1537
789.9602, 150.9624
790.4423, 150.7518
790.9244, 149.5701
791.4066, 146.6081
791.8887, 143.0850
792.3708, 139.8952
792.8529, 137.0257
793.3350, 134.0113
793.8171, 130.6315
794.2993, 127.1461
794.7814, 123.7613
795.2635, 120.3252
795.7456, 116.5646
796.2277, 112.5041
796.7098, 108.3660
797.1920, 104.2407
797.6741, 100.2877
798.1562, 96.86593
798.6383, 93.99549
799.1204, 91.09595
799.6025, 88.07687
800.0847, 85.14917
800.5668, 82.40703
801.0489, 79.80159
801.5310, 77.20307
802.0131, 74.50826
802.4952, 72.29845
802.9774, 71.05070
803.4595, 69.79308
803.9416, 68.02037
804.4237, 66.05515
804.9058, 64.31003
805.3879, 62.84109
805.8701, 61.45480
806.3522, 59.99018
806.8343, 58.58423
807.3164, 57.44248
807.7985, 56.55072
808.2806, 55.95238
808.7628, 55.66326
809.2449, 55.16714
809.7270, 54.00941
810.2091, 52.50705
810.6912, 51.67202
811.1733, 51.87593
811.6555, 51.85863
812.1376, 51.65614
812.6197, 51.17291
813.1018, 50.10585
813.5839, 48.87162
814.0660, 48.03703
814.5482, 47.68404
815.0303, 47.44757
815.5124, 47.28827
815.9945, 47.07890
816.4766, 46.63372
816.9587, 46.09121
817.4409, 45.69506
817.9230, 45.50346
818.4051, 45.48215
818.8872, 45.65820
819.3693, 45.88181
819.8514, 45.68330
820.3336, 45.03992
820.8157, 44.55007
821.2978, 44.36160
821.7799, 44.15466
822.2620, 43.66745
822.7441, 43.02261
823.2263, 42.58546
823.7084, 42.43687
824.1905, 42.30411
824.6726, 42.13047
825.1547, 42.02478
825.6368, 42.10720
826.1190, 42.25180
826.6011, 42.31049
827.0832, 42.24998
827.5653, 42.09128
828.0474, 41.79148
828.5295, 41.44511
829.0117, 41.14935
829.4938, 40.90100
829.9759, 40.69393
830.4580, 40.52576
830.9401, 40.39567
831.4222, 40.31472
831.9044, 40.23807
832.3865, 39.96524
832.8686, 39.38734
833.3507, 39.19738
833.8328, 39.61558
834.3149, 40.12082
834.7971, 40.60748
835.2792, 40.91457
835.7613, 40.66717
836.2434, 39.70726
836.7255, 39.09293
837.2076, 39.18168
837.6898, 39.44149
838.1719, 39.77657
838.6540, 40.04451
839.1361, 40.08498
839.6182, 39.88740
840.1003, 39.51949
840.5825, 38.84226
841.0646, 38.33578
841.5467, 39.06818
842.0288, 40.51017
842.5109, 40.76878
842.9930, 39.63921
843.4752, 38.47558
843.9573, 38.09372
844.4394, 38.23542
844.9215, 38.38468
845.4036, 38.54307
845.8857, 38.72080
846.3679, 39.04341
846.8500, 39.16242
847.3321, 38.85436
847.8142, 38.34548
848.2963, 37.77803
848.7784, 37.17484
849.2606, 36.84019
849.7427, 37.16957
850.2248, 37.35915
850.7069, 36.88095
851.1890, 36.26412
851.6711, 36.09776
852.1533, 36.30442
852.6354, 36.41682
853.1175, 36.19525
853.5996, 35.91344
854.0817, 35.92831
854.5638, 36.11642
855.0460, 36.19744
855.5281, 36.14425
856.0102, 35.80396
856.4924, 35.07388
856.9745, 34.42243
857.4566, 34.53302
857.9387, 35.36041
858.4208, 35.54844
858.9030, 34.65555
859.3851, 34.21431
859.8672, 35.02107
860.3493, 35.81006
860.8314, 35.34858
861.3135, 34.16212
861.7957, 33.76643
862.2778, 34.85467
862.7599, 35.44055
863.2420, 34.35343
863.7241, 33.24855
864.2062, 33.43208
864.6884, 34.31811
865.1705, 34.82681
865.6526, 34.68770
866.1347, 34.37654
866.6168, 34.29454
867.0989, 34.24204
867.5811, 33.75677
868.0632, 33.02478
868.5453, 32.78709
869.0274, 33.16228
869.5095, 33.51589
869.9916, 33.37881
870.4738, 32.92337
870.9559, 32.57639
871.4380, 32.33846
871.9201, 32.20723
872.4022, 32.22088
872.8843, 32.25504
873.3665, 32.24198
873.8486, 32.23035
874.3307, 32.35243
874.8128, 32.62472
875.2949, 32.64126
875.7770, 32.11589
876.2592, 31.66916
876.7413, 31.49934
877.2234, 31.46625
877.7055, 31.45638
878.1876, 31.47037
878.6697, 31.60013
879.1519, 31.94201
879.6340, 32.12419
880.1161, 31.65274
880.5982, 30.96640
881.0803, 30.68201
881.5624, 30.74811
882.0446, 30.87229
882.5267, 30.94669
883.0088, 30.96478
883.4909, 30.88745
883.9730, 30.77378
884.4551, 30.94555
884.9373, 31.43594
885.4194, 31.54906
885.9015, 31.03306
886.3836, 30.60189
886.8657, 30.87308
887.3478, 31.48909
887.8300, 31.42009
888.3121, 30.22542
888.7942, 29.52805
889.2763, 29.73964
889.7584, 29.94244
890.2405, 29.81102
890.7227, 29.57670
891.2048, 29.47838
891.6869, 29.52279
892.1690, 29.57982
892.6511, 29.58578
893.1332, 29.62477
893.6154, 29.82511
894.0975, 30.01822
894.5796, 30.03696
895.0617, 29.88177
895.5438, 29.57546
896.0259, 29.12622
896.5081, 28.71156
896.9902, 28.52518
897.4723, 28.51322
897.9544, 28.66262
898.4365, 28.90485
898.9186, 28.73959
899.4008, 28.02386
899.8829, 27.51670
900.3650, 27.95485
900.8471, 29.00504
901.3292, 29.39414
901.8113, 28.92219
902.2935, 28.79898
902.7756, 29.25157
903.2577, 29.76102
903.7398, 30.19208
904.2219, 30.43367
904.7040, 30.21455
905.1862, 29.43821
905.6683, 28.94879
906.1504, 28.97728
906.6325, 29.00663
907.1146, 28.89231
907.5967, 28.74743
908.0789, 28.58887
908.5610, 28.48677
909.0431, 28.67382
909.5252, 29.36282
910.0073, 29.77706
910.4894, 29.11839
910.9716, 28.25819
911.4537, 28.12827
911.9358, 28.47282
912.4179, 28.64225
912.9000, 28.49226
913.3821, 28.37186
913.8643, 28.56616
914.3464, 28.96344
914.8285, 29.47093
915.3106, 30.01233
915.7927, 30.23446
916.2748, 30.09092
916.7570, 29.66091
917.2391, 28.93098
917.7212, 28.23473
918.2033, 28.18478
918.6854, 28.81534
919.1675, 29.15576
919.6497, 29.09906
920.1318, 29.08987
920.6139, 29.31664
921.0960, 29.51427
921.5781, 29.42491
922.0602, 29.10838
922.5424, 28.84570
923.0245, 28.46848
923.5066, 28.45142
923.9887, 29.21570
924.4708, 29.88687
924.9529, 30.01388
925.4351, 29.86723
925.9172, 29.78220
926.3993, 29.79791
926.8814, 29.78892
927.3635, 29.58536
927.8456, 29.48853
928.3278, 29.90856
928.8099, 30.35677
929.2920, 30.06250
929.7741, 29.31432
930.2562, 29.10290
930.7383, 29.83079
931.2205, 30.71040
931.7026, 30.95963
932.1847, 30.83777
932.6668, 30.73456
933.1489, 30.68426
933.6310, 30.85526
934.1132, 31.25955
934.5953, 31.53872
935.0774, 31.39259
935.5595, 31.07478
936.0416, 31.22967
936.5237, 31.86237
937.0059, 32.28913
937.4880, 32.42924
937.9701, 32.68566
938.4522, 33.28899
938.9343, 33.89289
939.4164, 34.01778
939.8986, 33.71415
940.3807, 33.88873
940.8628, 34.81133
941.3449, 35.68141
941.8270, 36.39185
942.3091, 37.07586
942.7913, 37.92461
943.2734, 38.73618
943.7555, 39.06230
944.2376, 38.77129
944.7197, 38.94585
945.2018, 40.27218
945.6840, 41.45274
946.1661, 41.60264
946.6483, 41.70691
947.1304, 42.93410
947.6125, 44.92059
948.0946, 46.32714
948.5767, 46.60702
949.0588, 46.78494
949.5410, 47.45377
950.0231, 48.37139
950.5052, 49.28744
950.9873, 50.27687
951.4694, 51.59180
951.9515, 53.22163
952.4337, 54.77675
952.9158, 56.00364
953.3979, 56.99311
953.8800, 57.75135
954.3621, 58.40184
954.8442, 59.31783
955.3264, 60.49142
955.8085, 61.62135
956.2906, 62.58797
956.7727, 63.69902
957.2548, 65.42184
957.7369, 67.49818
958.2191, 68.76463
958.7012, 69.18565
959.1833, 69.54623
959.6654, 69.95886
960.1475, 70.34694
960.6296, 70.65805
961.1118, 70.94721
961.5939, 71.37261
962.0760, 72.00679
962.5581, 72.04174
963.0402, 71.14647
963.5223, 70.33789
964.0045, 69.77053
964.4866, 69.42771
964.9687, 69.42293
965.4508, 69.62653
965.9329, 69.61903
966.4150, 69.29333
966.8972, 69.04715
967.3793, 68.84403
967.8614, 68.80139
968.3435, 69.03236
968.8256, 69.39125
969.3077, 69.75813
969.7899, 70.11940
970.2720, 70.45503
970.7541, 70.62296
971.2362, 71.06816
971.7183, 72.25813
972.2004, 73.52676
972.6826, 74.34854
973.1647, 74.88252
973.6468, 75.43479
974.1289, 76.06313
974.6110, 76.64189
975.0931, 77.06699
975.5753, 77.46425
976.0574, 77.97839
976.5395, 78.52589
977.0216, 79.17056
977.5037, 79.72717
977.9858, 79.56718
978.4680, 78.51161
978.9501, 77.34698
979.4322, 76.94547
979.9143, 76.84966
980.3964, 76.09095
980.8785, 74.84493
981.3607, 73.79604
981.8428, 73.01030
982.3249, 72.04778
982.8070, 70.66479
983.2891, 69.11201
983.7712, 67.76405
984.2534, 66.57276
984.7355, 65.07803
985.2176, 63.26495
985.6997, 61.66838
986.1818, 60.38881
986.6639, 59.44058
987.1461, 58.92144
987.6282, 58.55113
988.1103, 57.63755
988.5924, 56.05067
989.0745, 54.87450
989.5566, 54.21291
990.0388, 53.62741
990.5209, 52.90894
991.0030, 52.41757
991.4851, 52.70366
991.9672, 53.41989
992.4493, 53.16338
992.9315, 51.27603
993.4136, 50.00497
993.8957, 49.91182
994.3778, 49.68695
994.8599, 48.81602
995.3420, 47.71357
995.8242, 46.60588
996.3063, 45.56869
996.7884, 44.96654
997.2705, 45.15217
997.7526, 45.19430
998.2347, 45.00016
998.7169, 44.59731
999.1990, 43.83765
999.6811, 42.97530
1000.163, 42.31196
1000.645, 41.85930
1001.127, 41.46847
1001.610, 41.11897
1002.092, 40.77996
1002.574, 40.41719
1003.056, 40.08069
1003.538, 39.83452
1004.020, 39.63583
1004.502, 39.44298
1004.984, 39.23220
1005.466, 38.90865
1005.949, 38.39182
1006.431, 37.79052
1006.913, 37.03107
1007.395, 36.34367
1007.877, 36.04282
1008.359, 36.04602
1008.841, 36.13910
1009.323, 36.24021
1009.806, 36.28744
1010.288, 36.27777
1010.770, 36.13488
1011.252, 35.67754
1011.734, 35.06139
1012.216, 34.46301
1012.698, 33.98446
1013.180, 33.89242
1013.662, 34.28259
1014.145, 34.80488
1014.627, 35.19036
1015.109, 35.38982
1015.591, 35.15120
1016.073, 34.64917
1016.555, 34.48696
1017.037, 34.70797
1017.519, 34.98917
1018.002, 35.17048
1018.484, 35.21265
1018.966, 34.96619
1019.448, 34.58124
1019.930, 34.62361
1020.412, 35.06191
1020.894, 35.70449
1021.376, 36.50782
1021.858, 37.04945
1022.341, 37.07124
1022.823, 36.79642
1023.305, 36.50026
1023.787, 36.22049
1024.269, 36.41328
1024.751, 37.11430
1025.233, 37.52877
1025.715, 37.43348
1026.198, 37.58883
1026.680, 38.57592
1027.162, 39.80525
1027.644, 40.07715
1028.126, 39.36051
1028.608, 39.13993
1029.090, 39.49961
1029.572, 39.96702
1030.054, 40.46829
1030.537, 40.98518
1031.019, 41.51142
1031.501, 42.03944
1031.983, 42.55563
1032.465, 43.04754
1032.947, 43.64003
1033.429, 44.48657
1033.911, 44.99682
1034.394, 44.79369
1034.876, 44.68047
1035.358, 45.32079
1035.840, 46.39379
1036.322, 47.12484
1036.804, 47.42723
1037.286, 47.81603
1037.768, 48.33692
1038.250, 48.85518
1038.733, 49.22232
1039.215, 49.72492
1039.697, 50.63621
1040.179, 51.81739
1040.661, 52.90948
1041.143, 53.88041
1041.625, 54.89093
1042.107, 56.00762
1042.589, 57.07465
1043.072, 57.85247
1043.554, 58.76957
1044.036, 60.04669
1044.518, 61.69523
1045.000, 63.80952
1045.482, 66.56035
1045.964, 69.07854
1046.446, 70.90487
1046.929, 73.02559
1047.411, 75.92043
1047.893, 78.97726
1048.375, 81.48762
1048.857, 83.88020
1049.339, 87.32121
1049.821, 92.21660
1050.303, 96.64747
1050.786, 99.77687
1051.268, 103.1277
1051.750, 107.4292
1052.232, 111.8952
1052.714, 115.7739
1053.196, 119.3356
1053.678, 123.2549
1054.160, 127.6547
1054.642, 132.1671
1055.125, 136.6643
1055.607, 141.3108
1056.089, 146.1273
1056.571, 151.1307
1057.053, 156.3950
1057.535, 161.8291
1058.017, 167.2731
1058.499, 172.6762
1058.981, 178.2121
1059.464, 184.1523
1059.946, 189.9052
1060.428, 195.5010
1060.910, 200.5931
1061.392, 205.2706
1061.874, 209.1402
1062.356, 211.5352
1062.838, 212.3179
1063.321, 211.8525
1063.803, 210.2477
1064.285, 207.4556
1064.767, 203.5486
1065.249, 198.3669
1065.731, 190.9894
1066.213, 182.5314
1066.695, 175.1248
1067.177, 169.1873
1067.660, 163.1831
1068.142, 156.2693
1068.624, 149.4915
1069.106, 143.1592
1069.588, 137.3773
1070.070, 132.4319
1070.552, 128.0061
1071.034, 123.4012
1071.516, 118.5421
1071.999, 114.1284
1072.481, 110.5739
1072.963, 107.3676
1073.445, 104.3121
1073.927, 101.4457
1074.409, 98.70935
1074.891, 96.22245
1075.373, 94.31998
1075.856, 92.97322
1076.338, 91.42901
1076.820, 89.07860
1077.302, 86.96233
1077.784, 85.79136
1078.266, 84.85006
1078.748, 83.40485
1079.230, 81.90696
1079.713, 81.13852
1080.195, 81.13408
1080.677, 81.32366
1081.159, 81.57899
1081.641, 81.80913
1082.123, 81.88814
1082.605, 82.01046
1083.087, 82.23695
1083.569, 82.64231
1084.052, 83.31866
1084.534, 84.26327
1085.016, 85.38142
1085.498, 86.58656
1085.980, 88.12119
1086.462, 90.40030
1086.944, 92.71146
1087.426, 94.44183
1087.909, 96.05073
1088.391, 98.05632
1088.873, 100.4772
1089.355, 103.0930
1089.837, 105.8562
1090.319, 108.7685
1090.801, 111.7855
1091.283, 115.0230
1091.766, 118.5039
1092.248, 122.2719
1092.730, 126.4886
1093.212, 131.0218
1093.694, 135.6156
1094.176, 140.2125
1094.658, 144.7059
1095.140, 149.1333
1095.622, 153.3183
1096.104, 157.1300
1096.587, 160.7329
1097.069, 164.1944
1097.551, 167.5890
1098.033, 171.1000
1098.515, 174.7717
1098.997, 178.1217
1099.479, 181.1241
1099.961, 183.6278
1100.444, 185.5911
1100.926, 187.0485
1101.408, 188.1858
1101.890, 188.7371
1102.372, 188.2022
1102.854, 186.5633
1103.336, 184.4674
1103.818, 181.7562
1104.301, 179.0552
1104.783, 176.7116
1105.265, 174.1775
1105.747, 170.5618
1106.229, 166.9599
1106.711, 164.8170
1107.193, 164.0543
1107.675, 163.4377
1108.157, 162.8511
1108.640, 162.3198
1109.122, 161.7109
1109.604, 161.3251
1110.086, 160.8141
1110.568, 160.9528
1111.050, 162.8436
1111.532, 166.0338
1112.014, 168.7554
1112.496, 170.6601
1112.979, 172.8445
1113.461, 175.2902
1113.943, 178.0980
1114.425, 181.5702
1114.907, 185.1209
1115.389, 188.0766
1115.871, 190.9041
1116.353, 194.9002
1116.836, 200.5138
1117.318, 204.6436
1117.800, 207.1779
1118.282, 208.3910
1118.764, 207.7340
1119.246, 206.6728
1119.728, 206.2336
1120.210, 205.6449
1120.693, 203.7185
1121.175, 200.4640
1121.657, 196.7566
1122.139, 192.5509
1122.621, 187.8509
1123.103, 182.3053
1123.585, 177.1543
1124.067, 173.0770
1124.549, 169.3501
1125.031, 165.1738
1125.514, 160.6925
1125.996, 156.5980
1126.478, 152.9472
1126.960, 149.3620
1127.442, 145.7741
1127.924, 142.6044
1128.406, 140.0640
1128.888, 137.5997
1129.371, 134.6976
1129.853, 131.6506
1130.335, 129.0973
1130.817, 127.0303
1131.299, 125.6322
1131.781, 124.9306
1132.263, 124.0603
1132.745, 122.8227
1133.228, 121.8098
1133.710, 121.3767
1134.192, 121.2450
1134.674, 121.0403
1135.156, 120.7865
1135.638, 120.5407
1136.120, 120.3230
1136.602, 120.3329
1137.084, 120.5662
1137.567, 120.6786
1138.049, 120.5414
1138.531, 120.5394
1139.013, 121.1068
1139.495, 121.8737
1139.977, 122.0980
1140.459, 121.9353
1140.941, 121.9677
1141.423, 122.0447
1141.906, 121.3250
1142.388, 119.7279
1142.870, 118.2626
1143.352, 117.5968
1143.834, 116.9810
1144.316, 115.4184
1144.798, 113.4210
1145.280, 111.9179
1145.763, 110.5109
1146.245, 108.1490
1146.727, 105.0209
1147.209, 102.3670
1147.691, 100.6485
1148.173, 98.84164
1148.655, 95.84139
1149.137, 92.76506
1149.620, 90.40388
1150.102, 88.67091
1150.584, 87.83389
1151.066, 87.42881
1151.548, 86.50227
1152.030, 84.94941
1152.512, 83.64458
1152.994, 83.04023
1153.476, 82.61773
1153.958, 81.92717
1154.441, 81.55609
1154.923, 82.13945
1155.405, 83.09670
1155.887, 83.69926
1156.369, 84.01112
1156.851, 84.54457
1157.333, 85.44328
1157.815, 86.39050
1158.298, 87.05805
1158.780, 88.11286
1159.262, 90.12390
1159.744, 92.23891
1160.226, 93.94664
1160.708, 95.29324
1161.190, 96.35048
1161.672, 97.09587
1162.155, 97.92220
1162.637, 98.81975
1163.119, 99.84656
1163.601, 101.3215
1164.083, 102.3287
1164.565, 102.1202
1165.047, 101.8698
1165.529, 103.0201
1166.011, 105.0556
1166.494, 105.7996
1166.976, 104.9355
1167.458, 104.4206
1167.940, 104.3725
1168.422, 104.1412
1168.904, 103.6319
1169.386, 102.5533
1169.868, 100.6696
1170.350, 98.29897
1170.833, 95.90672
1171.315, 93.53337
1171.797, 91.54677
1172.279, 89.89088
1172.761, 87.84952
1173.243, 85.35998
1173.725, 82.76482
1174.208, 80.20338
1174.690, 78.11698
1175.172, 76.98850
1175.654, 76.30653
1176.136, 75.26192
1176.618, 73.95980
1177.100, 72.47921
1177.582, 71.00142
1178.064, 69.95201
1178.547, 69.38926
1179.029, 69.20278
1179.511, 69.37013
1179.993, 69.31584
1180.475, 68.38269
1180.957, 67.15878
1181.439, 66.33662
1181.921, 65.47736
1182.403, 63.91718
1182.886, 61.88369
1183.368, 59.94960
1183.850, 58.24190
1184.332, 56.54684
1184.814, 54.73930
1185.296, 52.99974
1185.778, 51.31722
1186.260, 49.82906
1186.743, 48.74885
1187.225, 47.81464
1187.707, 46.78515
1188.189, 45.64499
1188.671, 44.35802
1189.153, 42.74792
1189.635, 41.65446
1190.117, 41.64432
1190.599, 41.35151
1191.082, 40.22270
1191.564, 39.26764
1192.046, 39.09725
1192.528, 39.32188
1193.010, 39.47371
1193.492, 39.53489
1193.974, 39.29777
1194.456, 38.63851
1194.938, 38.41744
1195.421, 38.80238
1195.903, 38.79742
1196.385, 38.03047
1196.867, 37.38064
1197.349, 37.54219
1197.831, 38.03874
1198.313, 37.94419
1198.795, 37.42838
1199.278, 37.36012
1199.760, 37.64371
1200.242, 37.77611
1200.724, 37.71894
1201.206, 37.73363
1201.688, 37.90413
1202.170, 37.96639
1202.652, 37.66594
1203.135, 37.24553
1203.617, 36.95230
1204.099, 36.77727
1204.581, 36.67347
1205.063, 36.69730
1205.545, 37.04659
1206.027, 37.63123
1206.509, 38.14478
1206.991, 38.50336
1207.474, 38.42310
1207.956, 37.16932
1208.438, 36.20406
1208.920, 36.65241
1209.402, 37.31786
1209.884, 37.25162
1210.366, 36.76376
1210.848, 36.34879
1211.330, 36.05559
1211.813, 35.87580
1212.295, 35.91576
1212.777, 35.85611
1213.259, 35.70974
1213.741, 35.42152
1214.223, 34.87786
1214.705, 34.34376
1215.187, 33.99162
1215.670, 33.77708
1216.152, 33.62979
1216.634, 33.54798
1217.116, 33.49990
1217.598, 33.48086
1218.080, 33.56966
1218.562, 33.77909
1219.044, 34.02131
1219.526, 34.27055
1220.009, 34.36337
1220.491, 34.12207
1220.973, 33.88414
1221.455, 34.40123
1221.937, 35.30100
1222.419, 35.49854
1222.901, 35.30007
1223.383, 35.58121
1223.865, 36.35050
1224.348, 37.17392
1224.830, 37.88419
1225.312, 38.40861
1225.794, 38.47107
1226.276, 38.76313
1226.758, 40.07771
1227.240, 41.58984
1227.722, 42.56422
1228.205, 43.27354
1228.687, 44.09779
1229.169, 45.03940
1229.651, 45.92676
1230.133, 46.70394
1230.615, 47.55248
1231.097, 48.65569
1231.579, 49.60270
1232.062, 50.49213
1232.544, 50.97211
1233.026, 50.70741
1233.508, 50.15343
1233.990, 49.79853
1234.472, 49.59417
1234.954, 49.38382
1235.436, 49.21851
1235.918, 48.65273
1236.401, 47.65538
1236.883, 46.58659
1237.365, 45.52413
1237.847, 44.34742
1238.329, 42.97613
1238.811, 41.87899
1239.293, 41.66978
1239.775, 41.97555
1240.257, 42.06546
1240.740, 42.03864
1241.222, 42.10044
1241.704, 42.26054
1242.186, 42.57385
1242.668, 42.97464
1243.150, 43.11354
1243.632, 42.80559
1244.114, 42.69473
1244.597, 43.35112
1245.079, 44.16097
1245.561, 44.70892
1246.043, 45.27018
1246.525, 46.23516
1247.007, 47.28078
1247.489, 47.91836
1247.971, 48.14625
1248.453, 48.25610
1248.936, 48.17963
1249.418, 48.22726
1249.900, 48.50229
1250.382, 48.71557
1250.864, 48.85569
1251.346, 48.85171
1251.828, 48.74655
1252.310, 48.25505
1252.792, 46.87392
1253.275, 44.91188
1253.757, 43.77207
1254.239, 43.35226
1254.721, 42.21735
1255.203, 40.42939
1255.685, 39.11517
1256.167, 38.47173
1256.649, 37.90078
1257.132, 37.08424
1257.614, 36.06067
1258.096, 34.66912
1258.578, 33.32948
1259.060, 32.56958
1259.542, 32.11238
1260.024, 31.72318
1260.506, 31.33607
1260.989, 30.82468
1261.471, 30.25231
1261.953, 29.97426
1262.435, 30.21816
1262.917, 30.12275
1263.399, 29.12572
1263.881, 28.26455
1264.363, 27.78373
1264.845, 27.56052
1265.328, 27.73068
1265.810, 27.88395
1266.292, 27.44929
1266.774, 26.65923
1267.256, 26.53167
1267.738, 27.17344
1268.220, 27.31680
1268.702, 26.94456
1269.185, 26.56201
1269.667, 26.26896
1270.149, 26.31171
1270.631, 26.79673
1271.113, 27.09929
1271.595, 26.56838
1272.077, 25.66547
1272.559, 24.80190
1273.042, 24.22975
1273.524, 24.66175
1274.006, 25.48574
1274.488, 25.54406
1274.970, 24.95399
1275.452, 24.57597
1275.934, 24.64182
1276.416, 24.69031
1276.898, 24.41905
1277.380, 24.30704
1277.863, 24.70029
1278.345, 25.01101
1278.827, 24.88999
1279.309, 24.64145
1279.791, 24.53550
1280.273, 24.45400
1280.755, 24.08955
1281.237, 23.44922
1281.720, 23.19664
1282.202, 23.36652
1282.684, 23.38031
1283.166, 23.18415
1283.648, 23.13721
1284.130, 23.34249
1284.612, 23.43832
##END=



