##NAMES=Trolleite
##RRUFFID=R050425
##IDEAL CHEMISTRY=Al_4_(PO_4_)_3_(OH)_3_
##LOCALITY=Halsjoberg, Varmland, Sweden
##OWNER=RRUFF
##SOURCE=Marcus Origlieri
##DESCRIPTION=Pale green granular aggregate
##STATUS=The identification of this mineral has been confirmed by X-ray diffraction and chemical analysis
##URL=rruff.info/R050425
##MEASURED CHEMISTRY=(Al_3.95_Fe^3+^_0.05_)_Î£=4_(P_1.00_O_4_)_3_(OH)_3_
91.00781, 14.63645
91.48993, 14.56588
91.97205, 14.53811
92.45416, 14.52658
92.93628, 14.55835
93.41840, 14.71334
93.90051, 15.04176
94.38263, 15.43135
94.86475, 15.62132
95.34686, 15.61515
95.82898, 15.74673
96.31110, 16.29157
96.79321, 17.22914
97.27533, 18.36276
97.75745, 19.70704
98.23956, 21.19425
98.72168, 22.43458
99.20380, 23.33608
99.68591, 24.23963
100.1680, 25.52309
100.6501, 27.22072
101.1323, 29.08244
101.6144, 31.07266
102.0965, 33.21035
102.5786, 35.18998
103.0607, 36.86295
103.5428, 38.52277
104.0250, 40.69318
104.5071, 43.42304
104.9892, 46.55283
105.4713, 50.03399
105.9534, 53.99149
106.4355, 58.02941
106.9177, 62.39438
107.3998, 66.85041
107.8819, 70.78734
108.3640, 73.53925
108.8461, 76.26048
109.3282, 79.52812
109.8104, 83.96445
110.2925, 88.15733
110.7746, 91.92511
111.2567, 95.30291
111.7388, 98.72591
112.2209, 101.9083
112.7031, 105.2865
113.1852, 109.2018
113.6673, 113.7965
114.1494, 118.8269
114.6315, 124.3105
115.1136, 130.3005
115.5958, 136.4935
116.0779, 142.7398
116.5600, 149.1609
117.0421, 155.8641
117.5242, 163.7187
118.0063, 171.3225
118.4885, 178.0078
118.9706, 183.6514
119.4527, 188.7095
119.9348, 192.8168
120.4169, 196.5047
120.8990, 200.8204
121.3812, 206.7765
121.8633, 213.3538
122.3454, 219.4581
122.8275, 224.7894
123.3096, 230.0810
123.7917, 235.6912
124.2739, 241.7090
124.7560, 248.4613
125.2381, 257.3448
125.7202, 266.9602
126.2023, 274.9969
126.6844, 281.5071
127.1666, 285.6427
127.6487, 285.7124
128.1308, 281.8271
128.6129, 276.0340
129.0950, 268.8430
129.5771, 260.8047
130.0593, 253.7906
130.5414, 248.0069
131.0235, 243.7877
131.5056, 242.3372
131.9877, 243.0096
132.4698, 243.7744
132.9520, 243.8346
133.4341, 243.2443
133.9162, 242.8745
134.3983, 242.8953
134.8804, 243.3296
135.3625, 244.5538
135.8447, 246.7091
136.3268, 249.2885
136.8089, 251.7881
137.2910, 254.2988
137.7731, 256.3181
138.2552, 257.6751
138.7374, 258.3502
139.2195, 258.4449
139.7016, 257.7069
140.1837, 256.6245
140.6658, 256.1292
141.1479, 256.1056
141.6301, 256.8506
142.1122, 258.5407
142.5943, 261.3686
143.0764, 264.6020
143.5585, 268.2521
144.0406, 272.2857
144.5228, 276.8624
145.0049, 282.5710
145.4870, 288.0421
145.9691, 292.5034
146.4512, 296.0535
146.9333, 298.5048
147.4155, 299.1174
147.8976, 298.2310
148.3797, 298.9938
148.8618, 302.2258
149.3439, 306.5099
149.8260, 310.9134
150.3082, 314.0696
150.7903, 318.8969
151.2724, 326.1489
151.7545, 335.8470
152.2366, 345.6214
152.7188, 355.7320
153.2009, 365.7274
153.6830, 375.1288
154.1651, 383.8143
154.6472, 392.0169
155.1293, 399.4085
155.6115, 405.8893
156.0936, 412.7310
156.5757, 420.1562
157.0578, 428.0624
157.5399, 436.2403
158.0220, 444.5510
158.5042, 453.2592
158.9863, 462.2964
159.4684, 471.5887
159.9505, 481.6607
160.4326, 492.8375
160.9147, 504.8106
161.3969, 517.1188
161.8790, 529.6469
162.3611, 542.4479
162.8432, 555.4464
163.3253, 568.2450
163.8074, 582.0311
164.2896, 596.9202
164.7717, 613.1419
165.2538, 631.1662
165.7359, 650.9113
166.2180, 672.6707
166.7001, 696.6722
167.1823, 722.5162
167.6644, 750.9312
168.1465, 783.2023
168.6286, 818.5204
169.1107, 854.6348
169.5928, 895.1597
170.0750, 933.7615
170.5571, 965.6439
171.0392, 992.6919
171.5213, 1007.337
172.0034, 1001.246
172.4855, 976.2606
172.9677, 940.8761
173.4498, 892.8861
173.9319, 839.5197
174.4140, 790.6176
174.8961, 746.9035
175.3782, 710.7316
175.8604, 683.9704
176.3425, 666.2458
176.8246, 655.4339
177.3067, 651.3348
177.7888, 652.7424
178.2709, 657.4443
178.7531, 666.3268
179.2352, 677.0017
179.7173, 685.6666
180.1994, 692.4447
180.6815, 699.4962
181.1636, 708.5923
181.6458, 719.4717
182.1279, 731.0801
182.6100, 743.5225
183.0921, 756.3532
183.5742, 768.6150
184.0563, 780.0204
184.5385, 792.3302
185.0206, 807.2583
185.5027, 824.5917
185.9848, 842.5534
186.4669, 860.3181
186.9490, 878.3087
187.4312, 898.4537
187.9133, 920.4152
188.3954, 944.3200
188.8775, 969.8927
189.3596, 997.0192
189.8417, 1026.054
190.3239, 1056.178
190.8060, 1088.093
191.2881, 1123.844
191.7702, 1162.979
192.2523, 1206.089
192.7344, 1254.822
193.2166, 1308.988
193.6987, 1366.213
194.1808, 1427.611
194.6629, 1492.463
195.1450, 1557.366
195.6271, 1624.741
196.1093, 1686.137
196.5914, 1734.726
197.0735, 1771.892
197.5556, 1779.953
198.0377, 1749.356
198.5198, 1679.723
199.0020, 1585.665
199.4841, 1460.927
199.9662, 1322.418
200.4483, 1191.480
200.9304, 1067.067
201.4125, 956.3538
201.8947, 863.2554
202.3768, 788.2764
202.8589, 724.8231
203.3410, 674.1219
203.8231, 633.0640
204.3052, 597.3099
204.7874, 567.0596
205.2695, 540.3264
205.7516, 516.5302
206.2337, 495.8362
206.7158, 476.9962
207.1979, 460.1651
207.6801, 444.9484
208.1622, 430.8415
208.6443, 417.7857
209.1264, 405.7390
209.6085, 394.7422
210.0906, 384.8785
210.5728, 375.6180
211.0549, 366.9695
211.5370, 358.9666
212.0191, 352.0755
212.5012, 346.6366
212.9833, 341.3394
213.4655, 335.3781
213.9476, 328.1266
214.4297, 322.4823
214.9118, 318.8617
215.3939, 316.7007
215.8760, 314.6437
216.3581, 312.9346
216.8403, 310.8592
217.3224, 307.9286
217.8045, 303.6043
218.2866, 299.9662
218.7687, 296.9797
219.2508, 294.7393
219.7330, 293.7552
220.2151, 294.6429
220.6972, 295.6332
221.1793, 295.7773
221.6614, 294.5519
222.1435, 293.9190
222.6257, 294.1690
223.1078, 294.9485
223.5899, 295.3213
224.0720, 295.3130
224.5541, 294.8579
225.0362, 293.8629
225.5184, 292.1050
226.0005, 290.3912
226.4826, 288.7417
226.9647, 287.1488
227.4468, 285.5374
227.9289, 283.9389
228.4111, 282.3047
228.8932, 280.5066
229.3753, 278.0968
229.8574, 276.6456
230.3395, 276.5247
230.8216, 277.3047
231.3038, 277.7548
231.7859, 277.4298
232.2680, 277.4229
232.7501, 278.2319
233.2322, 280.0534
233.7143, 282.2129
234.1965, 284.5933
234.6786, 287.3447
235.1607, 291.0324
235.6428, 296.3857
236.1249, 301.6049
236.6070, 305.7964
237.0892, 308.1987
237.5713, 311.2208
238.0534, 314.8278
238.5355, 319.0582
239.0176, 324.0461
239.4997, 330.1668
239.9819, 336.6141
240.4640, 343.0659
240.9461, 349.7808
241.4282, 355.9627
241.9103, 361.4395
242.3924, 366.4403
242.8746, 371.5808
243.3567, 377.3139
243.8388, 382.5078
244.3209, 386.7015
244.8030, 389.6391
245.2851, 392.1642
245.7673, 394.2567
246.2494, 395.9533
246.7315, 397.1783
247.2136, 397.1818
247.6957, 397.9089
248.1778, 400.2139
248.6600, 404.5612
249.1421, 409.0020
249.6242, 413.2701
250.1063, 417.7970
250.5884, 423.4370
251.0705, 430.4004
251.5527, 438.1548
252.0348, 446.5616
252.5169, 455.9502
252.9990, 465.0929
253.4811, 474.2131
253.9632, 483.0384
254.4454, 491.1415
254.9275, 499.1811
255.4096, 505.3657
255.8917, 509.1664
256.3738, 510.5427
256.8560, 509.5422
257.3381, 505.9701
257.8202, 500.1959
258.3023, 492.3084
258.7844, 481.2938
259.2665, 470.5461
259.7487, 460.9539
260.2308, 452.5762
260.7129, 445.3499
261.1950, 439.4256
261.6771, 434.5025
262.1592, 430.2350
262.6414, 426.6937
263.1235, 423.7303
263.6056, 421.4310
264.0877, 419.8174
264.5698, 418.2078
265.0519, 416.4474
265.5341, 414.9072
266.0162, 413.9426
266.4983, 413.4928
266.9804, 413.7516
267.4625, 414.2718
267.9446, 415.0880
268.4268, 419.6866
268.9089, 429.0155
269.3910, 440.2789
269.8731, 450.4493
270.3552, 458.7716
270.8373, 468.8481
271.3195, 481.8908
271.8016, 497.5962
272.2837, 513.3934
272.7658, 529.6221
273.2479, 545.6179
273.7300, 560.7695
274.2122, 574.7561
274.6943, 589.5450
275.1764, 605.4203
275.6585, 622.3287
276.1406, 640.0534
276.6227, 658.6700
277.1049, 677.8729
277.5870, 697.2258
278.0691, 716.6372
278.5512, 737.2739
279.0333, 759.2560
279.5154, 782.6277
279.9976, 807.5504
280.4797, 834.1624
280.9618, 861.9829
281.4439, 890.8548
281.9260, 920.6452
282.4081, 953.5416
282.8903, 990.2868
283.3724, 1029.767
283.8545, 1069.156
284.3366, 1108.303
284.8187, 1149.109
285.3008, 1192.827
285.7830, 1239.594
286.2651, 1286.984
286.7472, 1336.106
287.2293, 1383.911
287.7114, 1426.760
288.1935, 1464.614
288.6757, 1493.127
289.1578, 1511.860
289.6399, 1519.767
290.1220, 1509.705
290.6041, 1480.141
291.0862, 1436.479
291.5684, 1383.697
292.0505, 1322.048
292.5326, 1256.767
293.0147, 1185.624
293.4968, 1112.506
293.9789, 1046.618
294.4611, 988.9274
294.9432, 937.7814
295.4253, 892.0957
295.9074, 851.5968
296.3895, 816.1432
296.8716, 785.3190
297.3538, 759.2350
297.8359, 738.3405
298.3180, 722.5236
298.8001, 710.2974
299.2822, 700.7628
299.7643, 693.5757
300.2465, 687.9634
300.7286, 683.5621
301.2107, 680.6349
301.6928, 679.4315
302.1749, 679.9680
302.6570, 682.3445
303.1392, 686.9415
303.6213, 693.3983
304.1034, 700.9713
304.5855, 709.4581
305.0676, 719.0663
305.5497, 730.4785
306.0319, 743.4557
306.5140, 757.3529
306.9961, 770.9462
307.4782, 785.3080
307.9603, 802.1213
308.4424, 822.4093
308.9246, 843.7609
309.4067, 865.1442
309.8888, 886.1345
310.3709, 905.9489
310.8530, 925.1306
311.3351, 942.1697
311.8173, 956.2554
312.2994, 968.1699
312.7815, 974.7654
313.2636, 975.2977
313.7457, 969.1984
314.2278, 955.2295
314.7100, 929.7164
315.1921, 898.5348
315.6742, 864.3097
316.1563, 827.0592
316.6384, 789.1547
317.1205, 750.7169
317.6027, 713.0576
318.0848, 678.0600
318.5669, 645.9508
319.0490, 616.9204
319.5311, 591.1336
320.0132, 568.6052
320.4954, 548.7712
320.9775, 532.0868
321.4596, 517.8636
321.9417, 505.7996
322.4238, 496.7866
322.9059, 488.9130
323.3881, 481.8236
323.8702, 475.5696
324.3523, 470.1061
324.8344, 465.3944
325.3165, 461.5107
325.7986, 458.4526
326.2808, 456.8355
326.7629, 455.3283
327.2450, 453.5822
327.7271, 451.8179
328.2092, 450.8959
328.6913, 451.2040
329.1735, 452.0216
329.6556, 453.1028
330.1377, 454.5879
330.6198, 456.0585
331.1019, 457.4225
331.5840, 458.7882
332.0662, 460.3436
332.5483, 461.7578
333.0304, 463.8538
333.5125, 466.9529
333.9946, 471.2780
334.4767, 475.5740
334.9589, 479.8123
335.4410, 483.9901
335.9231, 488.2083
336.4052, 492.7196
336.8873, 496.5041
337.3694, 499.1867
337.8516, 500.8143
338.3336, 502.4950
338.8158, 504.6892
339.2979, 505.9841
339.7800, 505.3181
340.2621, 502.7606
340.7442, 497.7162
341.2263, 489.7318
341.7085, 479.4410
342.1906, 469.1566
342.6727, 458.7722
343.1548, 448.5088
343.6369, 438.3755
344.1190, 428.4481
344.6012, 418.3301
345.0833, 407.6826
345.5654, 397.5407
346.0475, 389.7035
346.5296, 384.1427
347.0117, 380.0661
347.4939, 377.5426
347.9760, 376.2498
348.4581, 375.0179
348.9402, 373.7081
349.4223, 373.0021
349.9044, 373.9428
350.3866, 376.1876
350.8687, 378.5529
351.3508, 380.3243
351.8329, 382.0527
352.3150, 384.6068
352.7971, 387.9911
353.2793, 391.8461
353.7614, 396.5672
354.2435, 401.5075
354.7256, 405.6468
355.2077, 408.5742
355.6898, 410.7309
356.1720, 412.4174
356.6541, 413.6502
357.1362, 414.5113
357.6183, 414.8568
358.1004, 414.9670
358.5826, 415.2645
359.0647, 416.2480
359.5468, 416.3365
360.0289, 414.4605
360.5110, 411.1055
360.9931, 407.1783
361.4753, 403.2404
361.9574, 398.7050
362.4395, 393.1656
362.9216, 386.4735
363.4037, 379.5270
363.8858, 372.3179
364.3680, 365.1013
364.8501, 358.1169
365.3322, 351.5282
365.8143, 345.1638
366.2964, 338.9302
366.7785, 332.8113
367.2607, 327.1478
367.7428, 321.6992
368.2249, 316.8491
368.7070, 312.8229
369.1891, 309.6298
369.6712, 307.2799
370.1534, 305.8587
370.6355, 305.2661
371.1176, 305.1893
371.5997, 305.5231
372.0818, 306.5007
372.5639, 308.3015
373.0461, 311.2010
373.5282, 313.9503
374.0103, 316.1160
374.4924, 318.5750
374.9745, 322.7469
375.4566, 329.0803
375.9388, 335.8004
376.4209, 342.3411
376.9030, 348.8178
377.3851, 355.6915
377.8672, 363.1635
378.3493, 370.6922
378.8315, 377.7473
379.3136, 384.3952
379.7957, 390.7056
380.2778, 397.0558
380.7599, 402.8036
381.2420, 406.3933
381.7242, 407.7691
382.2063, 408.0826
382.6884, 407.7857
383.1705, 406.9693
383.6526, 405.8257
384.1347, 404.2520
384.6169, 402.8098
385.0990, 401.9151
385.5811, 401.6833
386.0632, 402.5648
386.5453, 404.9378
387.0274, 408.4642
387.5096, 412.5667
387.9917, 417.2227
388.4738, 423.0192
388.9559, 430.6617
389.4380, 439.5090
389.9201, 448.7748
390.4023, 457.8348
390.8844, 467.5856
391.3665, 478.8763
391.8486, 491.4955
392.3307, 504.2678
392.8128, 517.6857
393.2950, 530.3651
393.7771, 541.4030
394.2592, 550.2369
394.7413, 558.4448
395.2234, 566.5406
395.7055, 574.2400
396.1877, 581.1074
396.6698, 586.9358
397.1519, 592.0143
397.6340, 596.8732
398.1161, 601.7524
398.5982, 604.3027
399.0804, 602.3010
399.5625, 599.1827
400.0446, 597.4009
400.5267, 597.4637
401.0088, 598.1894
401.4909, 599.8254
401.9731, 602.0952
402.4552, 603.8434
402.9373, 604.9977
403.4194, 605.7635
403.9015, 606.3849
404.3836, 607.1665
404.8658, 606.4925
405.3479, 604.0942
405.8300, 600.5963
406.3121, 597.0873
406.7942, 593.7479
407.2763, 588.9694
407.7585, 581.6164
408.2406, 572.2782
408.7227, 564.6910
409.2048, 559.0491
409.6869, 553.7213
410.1690, 547.1984
410.6512, 539.7515
411.1333, 532.3074
411.6154, 524.8247
412.0975, 517.8177
412.5796, 512.4267
413.0617, 508.3255
413.5439, 503.7889
414.0260, 496.6834
414.5081, 488.9295
414.9902, 483.3564
415.4723, 480.2138
415.9544, 478.3954
416.4366, 477.1766
416.9187, 476.6948
417.4008, 477.1509
417.8829, 478.6072
418.3650, 481.0271
418.8471, 484.4201
419.3293, 488.7551
419.8114, 494.0482
420.2935, 499.8948
420.7756, 506.9604
421.2577, 515.6449
421.7398, 526.8356
422.2220, 538.2875
422.7041, 549.1578
423.1862, 560.1088
423.6683, 572.3514
424.1504, 588.2377
424.6325, 603.4533
425.1147, 617.0683
425.5968, 629.3649
426.0789, 639.3484
426.5610, 648.3196
427.0431, 653.8246
427.5252, 654.1859
428.0074, 650.6379
428.4895, 638.7887
428.9716, 616.8625
429.4537, 586.9077
429.9358, 554.6848
430.4179, 519.4809
430.9001, 484.8551
431.3822, 452.3683
431.8643, 422.0029
432.3464, 394.9835
432.8285, 371.3610
433.3106, 350.9250
433.7928, 333.8218
434.2749, 319.8966
434.7570, 307.8707
435.2391, 297.4023
435.7212, 288.5493
436.2033, 281.7204
436.6855, 276.8687
437.1676, 272.9153
437.6497, 269.2423
438.1318, 265.9505
438.6139, 263.2198
439.0960, 261.1180
439.5782, 259.4334
440.0603, 257.8044
440.5424, 256.4791
441.0245, 255.9384
441.5066, 256.5152
441.9887, 257.8122
442.4709, 259.7726
442.9530, 262.3642
443.4351, 265.0761
443.9172, 267.0977
444.3993, 269.5119
444.8814, 273.0742
445.3636, 278.2660
445.8457, 284.1529
446.3278, 290.4059
446.8099, 297.2369
447.2920, 305.3466
447.7741, 315.2146
448.2563, 325.9079
448.7384, 337.1410
449.2205, 349.1334
449.7026, 360.7787
450.1847, 371.7386
450.6668, 382.6174
451.1490, 393.7943
451.6311, 405.1565
452.1132, 417.4683
452.5953, 431.1762
453.0774, 445.7397
453.5595, 460.2921
454.0417, 474.8127
454.5238, 490.0598
455.0059, 506.7078
455.4880, 524.5054
455.9701, 542.7648
456.4522, 561.2423
456.9344, 581.0989
457.4165, 603.5936
457.8986, 628.5714
458.3807, 654.9194
458.8628, 682.7787
459.3449, 711.6212
459.8271, 741.3353
460.3092, 771.8490
460.7913, 803.3567
461.2734, 837.9348
461.7555, 872.2441
462.2376, 904.4010
462.7198, 934.2386
463.2019, 959.9518
463.6840, 982.8492
464.1661, 1000.143
464.6482, 1008.460
465.1303, 1008.379
465.6125, 997.6906
466.0946, 974.4510
466.5767, 939.1333
467.0588, 897.5714
467.5409, 845.9929
468.0230, 791.9026
468.5052, 737.9675
468.9873, 682.5149
469.4694, 631.3177
469.9515, 584.2262
470.4336, 541.6839
470.9157, 503.8334
471.3979, 471.0599
471.8800, 442.5358
472.3621, 418.3904
472.8442, 398.3928
473.3263, 380.5939
473.8084, 365.0263
474.2906, 351.3679
474.7727, 339.6342
475.2548, 329.6756
475.7369, 320.8520
476.2190, 313.1153
476.7011, 306.3367
477.1833, 300.2766
477.6654, 294.9540
478.1475, 290.4256
478.6296, 286.9074
479.1117, 284.0612
479.5938, 281.7022
480.0760, 279.7733
480.5581, 277.9675
481.0402, 275.7796
481.5223, 273.8142
482.0044, 272.5417
482.4865, 272.0791
482.9687, 272.2629
483.4508, 273.4577
483.9329, 275.1644
484.4150, 276.6526
484.8971, 277.4446
485.3792, 278.3852
485.8614, 279.5911
486.3435, 281.0685
486.8256, 283.0194
487.3077, 285.6565
487.7898, 288.4872
488.2719, 291.2145
488.7541, 293.5887
489.2362, 296.5508
489.7183, 300.3155
490.2004, 304.3962
490.6825, 308.0747
491.1646, 311.3103
491.6468, 314.6800
492.1289, 318.3882
492.6110, 322.3470
493.0931, 326.6423
493.5752, 331.2851
494.0573, 335.7872
494.5395, 339.7424
495.0216, 343.3424
495.5037, 347.1405
495.9858, 351.1708
496.4679, 355.1668
496.9500, 358.6564
497.4322, 361.9435
497.9143, 365.4697
498.3964, 369.8070
498.8785, 374.0873
499.3606, 377.7749
499.8427, 380.9804
500.3249, 383.9660
500.8070, 386.6776
501.2891, 389.3544
501.7712, 392.2216
502.2533, 395.6647
502.7354, 398.2380
503.2176, 399.3885
503.6997, 399.8285
504.1818, 400.2238
504.6639, 400.4465
505.1460, 400.8952
505.6281, 401.8763
506.1103, 403.0858
506.5924, 403.2909
507.0745, 402.3667
507.5566, 400.8610
508.0387, 398.8904
508.5208, 396.4818
509.0030, 394.3153
509.4851, 392.4788
509.9672, 390.3980
510.4493, 387.3086
510.9314, 383.4464
511.4135, 379.6020
511.8957, 376.0855
512.3778, 372.5695
512.8599, 368.7053
513.3420, 364.5487
513.8242, 360.2709
514.3063, 355.6140
514.7884, 351.0508
515.2705, 347.0363
515.7526, 343.6171
516.2347, 340.2457
516.7169, 336.4429
517.1990, 332.7553
517.6811, 329.6085
518.1632, 327.5377
518.6453, 325.3630
519.1274, 322.7006
519.6096, 319.8943
520.0917, 317.6551
520.5738, 316.4425
521.0559, 315.0480
521.5380, 313.1744
522.0201, 310.8382
522.5023, 308.1884
522.9844, 305.0045
523.4665, 302.1157
523.9486, 300.2846
524.4307, 299.4470
524.9128, 298.3728
525.3950, 296.9118
525.8771, 295.4323
526.3592, 294.3933
526.8413, 293.7535
527.3234, 293.3555
527.8055, 293.4033
528.2877, 293.4172
528.7698, 292.7209
529.2519, 291.4589
529.7340, 290.2237
530.2161, 289.2918
530.6982, 288.5574
531.1804, 287.8667
531.6625, 287.1605
532.1446, 286.8541
532.6267, 287.5127
533.1088, 288.4347
533.5909, 288.9633
534.0731, 288.3939
534.5552, 288.2260
535.0373, 288.9536
535.5194, 290.0977
536.0015, 290.3345
536.4836, 288.9387
536.9658, 288.1348
537.4479, 288.9849
537.9300, 291.3719
538.4121, 292.6132
538.8942, 292.4570
539.3763, 292.1624
539.8585, 292.8366
540.3406, 294.3291
540.8227, 295.7953
541.3048, 297.1404
541.7869, 298.4375
542.2690, 299.8742
542.7512, 301.3450
543.2333, 302.5839
543.7154, 303.3274
544.1975, 303.9236
544.6796, 304.6542
545.1617, 305.4907
545.6439, 306.2752
546.1260, 306.7743
546.6081, 307.3265
547.0902, 308.2146
547.5723, 309.6066
548.0544, 310.7115
548.5366, 311.4313
549.0187, 311.8150
549.5008, 311.8757
549.9829, 311.2386
550.4650, 310.9844
550.9471, 311.3545
551.4293, 312.0790
551.9114, 312.5042
552.3935, 312.5606
552.8756, 312.6826
553.3577, 313.2339
553.8398, 313.9858
554.3220, 313.5641
554.8041, 311.9195
555.2862, 310.5302
555.7683, 310.6524
556.2504, 311.8282
556.7325, 313.3072
557.2147, 315.0986
557.6968, 316.5832
558.1789, 316.9021
558.6610, 316.6619
559.1431, 316.7559
559.6252, 317.5295
560.1074, 318.6624
560.5895, 320.3501
561.0716, 322.3587
561.5537, 323.8789
562.0358, 324.0663
562.5179, 324.4190
563.0001, 325.5301
563.4822, 327.4760
563.9643, 329.2598
564.4464, 330.7585
564.9285, 332.2737
565.4106, 334.0385
565.8928, 336.0772
566.3749, 338.3190
566.8570, 340.8681
567.3391, 343.4347
567.8212, 345.6880
568.3033, 347.6267
568.7855, 349.0459
569.2676, 349.6312
569.7497, 349.9298
570.2318, 351.1161
570.7139, 352.8682
571.1960, 353.8768
571.6782, 353.4575
572.1603, 351.8981
572.6424, 349.2037
573.1245, 345.2999
573.6066, 341.2584
574.0887, 337.9250
574.5709, 334.3204
575.0530, 329.6437
575.5351, 322.9913
576.0172, 316.3236
576.4993, 309.6917
576.9814, 303.0715
577.4636, 296.4409
577.9457, 289.5334
578.4278, 283.3143
578.9099, 278.0222
579.3920, 273.6916
579.8741, 270.5881
580.3563, 268.7674
580.8384, 267.6461
581.3205, 266.9642
581.8026, 266.7032
582.2847, 266.6988
582.7668, 266.9328
583.2490, 267.9374
583.7311, 270.6342
584.2132, 274.1767
584.6953, 277.4493
585.1774, 279.9205
585.6595, 282.6900
586.1416, 286.2305
586.6237, 290.4471
587.1058, 295.2491
587.5880, 301.3826
588.0701, 307.2545
588.5522, 311.9214
589.0343, 315.8641
589.5164, 321.4360
589.9985, 329.2900
590.4807, 337.6973
590.9628, 346.0137
591.4449, 354.2266
591.9270, 362.7898
592.4091, 371.6058
592.8912, 381.1688
593.3734, 392.0890
593.8555, 404.2330
594.3376, 416.9555
594.8197, 430.3444
595.3018, 443.3559
595.7839, 454.4647
596.2661, 464.3620
596.7482, 474.4073
597.2303, 486.6808
597.7124, 497.7018
598.1945, 505.9480
598.6766, 511.4330
599.1588, 514.0255
599.6409, 513.8984
600.1230, 510.6535
600.6051, 504.0363
601.0872, 494.1375
601.5693, 480.6843
602.0515, 461.8430
602.5336, 442.1146
603.0157, 423.9346
603.4978, 407.3242
603.9799, 391.5956
604.4620, 376.4234
604.9442, 362.6440
605.4263, 351.5646
605.9084, 342.9058
606.3905, 335.9756
606.8726, 330.6023
607.3547, 326.5755
607.8369, 323.7579
608.3190, 322.0374
608.8011, 321.0503
609.2832, 320.4013
609.7653, 320.6455
610.2474, 322.3156
610.7296, 325.3090
611.2117, 328.6951
611.6938, 331.9571
612.1759, 335.8067
612.6580, 340.7954
613.1401, 347.3607
613.6223, 353.1696
614.1044, 357.4424
614.5865, 361.9085
615.0686, 368.2199
615.5507, 376.6008
616.0328, 384.6639
616.5150, 392.1492
616.9971, 399.2121
617.4792, 406.4282
617.9613, 413.5477
618.4434, 419.4128
618.9255, 423.7615
619.4077, 426.5255
619.8898, 427.6886
620.3719, 427.2286
620.8540, 425.0999
621.3361, 421.0222
621.8182, 415.5240
622.3004, 409.0058
622.7825, 401.5074
623.2646, 392.2946
623.7467, 379.9716
624.2288, 366.9738
624.7109, 354.6267
625.1931, 343.4088
625.6752, 330.9213
626.1573, 316.6212
626.6394, 301.8081
627.1215, 287.3698
627.6036, 273.2822
628.0858, 261.2719
628.5679, 251.8422
629.0500, 243.9345
629.5321, 236.1975
630.0142, 228.7141
630.4963, 221.9983
630.9785, 216.0973
631.4606, 211.1126
631.9427, 207.2265
632.4248, 204.3486
632.9069, 202.1781
633.3890, 201.0128
633.8712, 200.1810
634.3533, 199.3967
634.8354, 198.6390
635.3175, 198.0458
635.7996, 197.5645
636.2817, 197.3036
636.7639, 197.2907
637.2460, 197.4918
637.7281, 198.1424
638.2102, 199.3038
638.6923, 200.7345
639.1744, 202.0449
639.6566, 203.3270
640.1387, 205.4087
640.6208, 208.6737
641.1029, 211.9196
641.5850, 213.2236
642.0671, 213.5020
642.5493, 214.6266
643.0314, 218.1364
643.5135, 221.9214
643.9956, 224.9875
644.4777, 227.4707
644.9598, 229.8381
645.4420, 231.8061
645.9241, 234.1044
646.4062, 237.2386
646.8883, 241.1212
647.3704, 243.9075
647.8525, 245.3177
648.3347, 246.2046
648.8168, 247.0616
649.2989, 247.8845
649.7810, 248.2485
650.2631, 248.1810
650.7452, 247.4113
651.2274, 245.4162
651.7095, 242.5781
652.1916, 239.6524
652.6737, 236.8664
653.1558, 233.8378
653.6379, 230.1482
654.1201, 226.0683
654.6022, 221.9379
655.0843, 217.3852
655.5664, 213.3387
656.0485, 210.2036
656.5306, 207.7484
657.0128, 205.3355
657.4949, 202.7899
657.9770, 200.6331
658.4591, 199.0667
658.9412, 197.9915
659.4233, 196.9885
659.9055, 196.0521
660.3876, 195.2253
660.8697, 194.4765
661.3518, 193.8580
661.8339, 193.4358
662.3160, 193.2233
662.7982, 193.3992
663.2803, 194.2935
663.7624, 195.5238
664.2445, 196.6499
664.7266, 197.5472
665.2087, 198.8075
665.6909, 200.8645
666.1730, 203.2276
666.6551, 205.4806
667.1372, 207.3403
667.6193, 209.5655
668.1014, 212.2150
668.5836, 215.1408
669.0657, 218.1591
669.5478, 221.2447
670.0299, 224.4320
670.5120, 227.7699
670.9941, 231.1335
671.4763, 234.3331
671.9584, 237.3698
672.4405, 240.2840
672.9226, 242.8397
673.4047, 245.5206
673.8868, 249.2487
674.3690, 253.5520
674.8511, 256.8763
675.3332, 257.5597
675.8153, 258.1160
676.2974, 259.9199
676.7795, 263.0844
677.2617, 265.0578
677.7438, 264.8925
678.2259, 265.0031
678.7080, 266.9085
679.1901, 270.7908
679.6722, 273.5334
680.1544, 275.0116
680.6365, 276.3011
681.1186, 278.5719
681.6007, 281.4304
682.0828, 283.7945
682.5649, 285.3617
683.0471, 287.1993
683.5292, 290.6801
684.0113, 294.7021
684.4934, 297.8694
684.9755, 299.5849
685.4576, 300.8216
685.9398, 301.9052
686.4219, 302.6198
686.9040, 302.7346
687.3861, 302.5396
687.8682, 301.1371
688.3503, 298.2646
688.8325, 294.1937
689.3146, 289.6633
689.7967, 284.7009
690.2788, 279.0833
690.7609, 272.6746
691.2430, 265.6555
691.7252, 257.9793
692.2073, 249.7455
692.6894, 241.7192
693.1715, 234.3242
693.6536, 227.2833
694.1357, 220.4163
694.6179, 213.7121
695.1000, 207.2276
695.5821, 200.9700
696.0642, 194.9438
696.5463, 189.0785
697.0284, 183.2973
697.5106, 178.2910
697.9927, 174.3178
698.4748, 170.5040
698.9569, 166.0437
699.4390, 161.0469
699.9211, 156.5561
700.4033, 152.6573
700.8854, 149.1893
701.3675, 145.9903
701.8496, 143.1152
702.3317, 140.7040
702.8138, 138.9845
703.2960, 137.2750
703.7781, 135.1961
704.2602, 132.9503
704.7423, 130.7857
705.2244, 128.7004
705.7065, 126.7506
706.1887, 124.9067
706.6708, 123.2223
707.1529, 121.7663
707.6350, 120.5760
708.1171, 119.3584
708.5992, 117.9615
709.0814, 116.5849
709.5635, 115.7529
710.0456, 115.3402
710.5277, 114.7705
711.0098, 113.6423
711.4919, 112.3277
711.9741, 111.0357
712.4562, 109.8171
712.9383, 108.8151
713.4204, 108.2274
713.9025, 107.7313
714.3846, 107.1952
714.8668, 106.6156
715.3489, 106.1139
715.8310, 105.7436
716.3131, 105.3337
716.7952, 104.7303
717.2773, 103.9660
717.7595, 103.5064
718.2416, 103.3731
718.7237, 103.2069
719.2058, 102.5761
719.6879, 101.7757
720.1700, 101.3075
720.6522, 101.2295
721.1343, 101.2515
721.6164, 101.3646
722.0985, 101.4036
722.5806, 101.2007
723.0627, 100.5279
723.5449, 100.0873
724.0270, 99.90763
724.5091, 99.96336
724.9912, 100.3328
725.4733, 101.1429
725.9554, 101.4740
726.4376, 101.1434
726.9197, 100.6378
727.4018, 100.6832
727.8839, 101.1090
728.3660, 101.3843
728.8481, 101.3684
729.3303, 101.1760
729.8124, 100.7468
730.2945, 100.2482
730.7766, 99.94019
731.2587, 99.77946
731.7408, 99.95302
732.2230, 100.8666
732.7051, 102.0561
733.1872, 102.6304
733.6693, 102.3916
734.1514, 102.0613
734.6335, 101.7052
735.1157, 101.4567
735.5978, 101.7224
736.0799, 102.4585
736.5620, 103.2976
737.0441, 104.1692
737.5262, 104.9762
738.0084, 105.5870
738.4905, 106.0426
738.9726, 106.4813
739.4547, 106.8693
739.9368, 107.3427
740.4189, 108.0059
740.9011, 108.8499
741.3832, 109.6352
741.8653, 110.4632
742.3474, 111.0444
742.8295, 111.1364
743.3116, 110.8345
743.7938, 110.8799
744.2759, 111.2728
744.7580, 111.9885
745.2401, 113.2866
745.7222, 114.7661
746.2043, 115.7808
746.6865, 116.3265
747.1686, 116.8064
747.6507, 117.1724
748.1328, 117.7670
748.6149, 118.9247
749.0970, 120.8219
749.5792, 122.4662
750.0613, 123.7301
750.5434, 124.8628
751.0255, 125.9951
751.5076, 127.1045
751.9897, 128.3836
752.4719, 129.8597
752.9540, 131.4110
753.4361, 132.9568
753.9182, 134.5144
754.4003, 136.1544
754.8824, 137.8697
755.3646, 139.6729
755.8467, 141.5524
756.3288, 143.5254
756.8109, 145.5632
757.2930, 147.7383
757.7751, 149.8644
758.2573, 151.6526
758.7394, 153.6719
759.2215, 156.6437
759.7036, 160.8148
760.1857, 164.2967
760.6678, 166.7477
761.1500, 168.9466
761.6321, 171.8127
762.1142, 175.1475
762.5963, 178.5233
763.0784, 181.8108
763.5605, 185.1235
764.0427, 188.4233
764.5248, 191.8391
765.0069, 195.5326
765.4890, 199.6445
765.9711, 203.8766
766.4532, 208.0490
766.9354, 212.4646
767.4175, 217.6208
767.8996, 223.6123
768.3817, 229.9123
768.8638, 236.4803
769.3459, 243.2736
769.8281, 250.1041
770.3102, 257.0081
770.7923, 264.0107
771.2744, 270.6429
771.7565, 278.1579
772.2386, 287.9949
772.7208, 299.2528
773.2029, 310.3618
773.6850, 320.3417
774.1671, 330.9521
774.6492, 342.5626
775.1313, 354.8544
775.6135, 367.0990
776.0956, 379.0760
776.5777, 391.8105
777.0598, 405.6392
777.5419, 420.2729
778.0240, 435.6603
778.5062, 451.6630
778.9883, 467.9235
779.4704, 484.5260
779.9525, 500.8520
780.4346, 516.1123
780.9167, 530.7189
781.3989, 546.0592
781.8810, 563.3905
782.3631, 580.3281
782.8452, 596.3054
783.3273, 611.4865
783.8094, 626.6968
784.2916, 642.0704
784.7737, 656.7372
785.2558, 670.7629
785.7379, 683.7571
786.2200, 695.3449
786.7021, 705.3250
787.1843, 712.4266
787.6664, 715.6061
788.1485, 716.4336
788.6306, 716.0056
789.1127, 713.9775
789.5948, 708.8866
790.0770, 699.7405
790.5591, 688.8461
791.0412, 676.7605
791.5233, 663.3425
792.0054, 647.5973
792.4875, 629.6241
792.9697, 610.2634
793.4518, 589.6536
793.9339, 568.2789
794.4160, 547.0057
794.8981, 525.8907
795.3802, 505.1257
795.8624, 484.5207
796.3445, 464.5677
796.8266, 445.9771
797.3087, 428.5899
797.7908, 410.7861
798.2729, 391.6392
798.7551, 374.0440
799.2372, 358.6646
799.7193, 345.2425
800.2014, 332.8173
800.6835, 321.4007
801.1656, 310.3882
801.6478, 299.2637
802.1299, 288.6975
802.6120, 279.4775
803.0941, 271.4038
803.5762, 263.6634
804.0583, 255.8617
804.5405, 248.5005
805.0226, 241.7468
805.5047, 235.5769
805.9868, 230.0988
806.4689, 225.5774
806.9510, 221.0606
807.4332, 216.1684
807.9153, 211.1012
808.3974, 206.5753
808.8795, 202.5355
809.3616, 198.6457
809.8438, 194.7493
810.3259, 190.9707
810.8080, 187.2503
811.2901, 183.7378
811.7722, 180.7985
812.2543, 179.3192
812.7365, 177.4901
813.2186, 174.5580
813.7007, 170.9827
814.1828, 168.5851
814.6649, 167.4878
815.1470, 166.5037
815.6292, 165.2788
816.1113, 163.8275
816.5934, 162.0594
817.0755, 160.0655
817.5576, 158.1811
818.0397, 156.4701
818.5219, 155.0105
819.0040, 154.0796
819.4861, 153.4546
819.9682, 152.4057
820.4503, 150.5745
820.9324, 148.8697
821.4146, 147.5222
821.8967, 146.4243
822.3788, 145.3750
822.8609, 144.3766
823.3430, 143.3009
823.8251, 141.9899
824.3073, 140.7335
824.7894, 139.8578
825.2715, 139.2968
825.7536, 138.8662
826.2357, 138.8863
826.7178, 138.5917
827.2000, 137.5333
827.6821, 136.0719
828.1642, 134.8438
828.6463, 133.8169
829.1284, 133.1379
829.6105, 132.9279
830.0927, 132.8969
830.5748, 132.5107
831.0569, 131.8459
831.5390, 131.1330
832.0211, 130.2740
832.5032, 129.6755
832.9854, 130.0552
833.4675, 130.7598
833.9496, 130.7883
834.4317, 128.9065
834.9138, 127.8064
835.3959, 128.0516
835.8781, 128.7823
836.3602, 128.5874
836.8423, 127.4721
837.3244, 126.6575
837.8065, 126.4390
838.2886, 126.3726
838.7708, 125.8848
839.2529, 125.2007
839.7350, 124.7012
840.2171, 124.6005
840.6992, 124.4656
841.1813, 123.9638
841.6635, 123.4697
842.1456, 123.4361
842.6277, 124.1744
843.1098, 124.3991
843.5919, 123.9932
844.0740, 123.1984
844.5562, 122.0450
845.0383, 120.7471
845.5204, 120.1019
846.0025, 120.3424
846.4846, 120.4297
846.9667, 119.2706
847.4489, 117.8039
847.9310, 116.9848
848.4131, 117.3381
848.8952, 117.2282
849.3773, 116.3189
849.8594, 115.3537
850.3416, 114.9793
850.8237, 115.1746
851.3058, 115.0850
851.7879, 114.6744
852.2700, 114.0534
852.7521, 113.1957
853.2343, 112.2370
853.7164, 111.2673
854.1985, 110.2986
854.6806, 109.5767
855.1627, 109.3620
855.6448, 109.2601
856.1270, 109.1009
856.6091, 108.8849
857.0912, 108.5053
857.5733, 107.9280
858.0554, 107.3920
858.5375, 107.1943
859.0197, 107.1009
859.5018, 106.5155
859.9839, 105.5094
860.4660, 104.5232
860.9481, 103.5826
861.4302, 102.9305
861.9124, 103.0308
862.3945, 103.7301
862.8766, 103.3487
863.3587, 101.2336
863.8408, 99.61227
864.3229, 99.46925
864.8051, 100.2239
865.2872, 100.1362
865.7693, 99.32295
866.2514, 98.46806
866.7335, 97.93153
867.2156, 97.46846
867.6978, 96.85117
868.1799, 96.17587
868.6620, 95.65336
869.1441, 95.46280
869.6262, 95.27903
870.1083, 95.10670
870.5905, 94.87833
871.0726, 94.39424
871.5547, 93.65938
872.0368, 93.10392
872.5189, 92.87154
873.0010, 92.75145
873.4832, 92.53960
873.9653, 92.25935
874.4474, 91.93652
874.9295, 91.43629
875.4116, 91.13841
875.8937, 91.38001
876.3759, 91.69669
876.8580, 91.61508
877.3401, 91.03676
877.8222, 90.63609
878.3043, 90.49272
878.7864, 90.37261
879.2686, 89.97124
879.7507, 89.42989
880.2328, 88.99457
880.7149, 88.70157
881.1970, 88.50901
881.6791, 88.44611
882.1613, 88.44064
882.6434, 88.43304
883.1255, 88.40896
883.6076, 88.53033
884.0897, 88.89455
884.5718, 89.09369
885.0540, 88.63509
885.5361, 87.81207
886.0182, 87.62344
886.5003, 88.01222
886.9824, 88.49010
887.4645, 88.97134
887.9467, 89.26012
888.4288, 89.07602
888.9109, 88.48859
889.3930, 88.28978
889.8751, 88.73269
890.3572, 89.04137
890.8394, 88.87907
891.3215, 88.48534
891.8036, 88.70549
892.2857, 89.38537
892.7678, 89.67867
893.2499, 88.84529
893.7321, 87.93429
894.2142, 87.76184
894.6963, 88.05943
895.1784, 88.31620
895.6605, 88.52879
896.1426, 88.52601
896.6248, 88.11447
897.1069, 87.69234
897.5890, 87.98875
898.0711, 88.91643
898.5532, 89.62798
899.0353, 89.99646
899.5175, 90.01878
899.9996, 89.37504
900.4817, 88.54062
900.9638, 88.09620
901.4459, 88.25910
901.9280, 88.47360
902.4102, 88.77285
902.8923, 88.98540
903.3744, 88.95593
903.8565, 88.67764
904.3386, 88.37550
904.8207, 88.04074
905.3029, 88.07681
905.7850, 89.32861
906.2671, 90.77844
906.7492, 91.18527
907.2313, 90.56033
907.7134, 90.06643
908.1956, 90.12251
908.6777, 90.29369
909.1598, 90.49785
909.6419, 90.69965
910.1240, 90.66119
910.6061, 90.37743
911.0883, 90.20903
911.5704, 90.38116
912.0525, 90.66684
912.5346, 90.77251
913.0167, 90.76656
913.4988, 90.79732
913.9810, 90.79153
914.4631, 91.00317
914.9452, 91.75639
915.4273, 92.56686
915.9094, 92.58570
916.3915, 91.71717
916.8737, 91.39775
917.3558, 91.90596
917.8379, 92.64220
918.3200, 92.89796
918.8021, 92.95244
919.2842, 93.27694
919.7664, 94.06322
920.2485, 94.61409
920.7306, 94.46903
921.2127, 94.23111
921.6948, 94.29454
922.1769, 94.69389
922.6591, 94.74035
923.1412, 94.37413
923.6233, 94.25808
924.1054, 95.22874
924.5875, 96.51765
925.0696, 96.92710
925.5518, 96.59354
926.0339, 96.42415
926.5160, 96.83931
926.9981, 97.42735
927.4802, 98.16672
927.9623, 98.93725
928.4445, 99.24744
928.9266, 99.03049
929.4087, 99.26906
929.8908, 100.4447
930.3729, 101.8275
930.8550, 102.4102
931.3372, 102.4963
931.8193, 102.6065
932.3014, 102.8608
932.7835, 103.2224
933.2656, 103.6734
933.7477, 104.2410
934.2299, 105.0054
934.7120, 105.9961
935.1941, 106.8486
935.6762, 107.5246
936.1583, 108.2201
936.6404, 109.0618
937.1226, 110.0523
937.6047, 111.2287
938.0868, 112.5918
938.5689, 113.9265
939.0510, 115.0084
939.5331, 116.2143
940.0153, 117.7443
940.4974, 119.5351
940.9795, 121.0751
941.4616, 122.3655
941.9437, 124.1011
942.4258, 126.9362
942.9080, 129.9715
943.3901, 131.7960
943.8722, 132.9885
944.3543, 134.7892
944.8364, 138.1277
945.3185, 141.3830
945.8007, 144.1490
946.2828, 146.8520
946.7649, 150.1439
947.2470, 154.0125
947.7291, 157.9690
948.2112, 161.9687
948.6934, 165.9014
949.1755, 169.6616
949.6576, 173.3400
950.1397, 177.0126
950.6218, 180.6126
951.1039, 184.7337
951.5861, 189.6722
952.0682, 194.7945
952.5503, 199.8086
953.0324, 204.7406
953.5145, 209.7924
953.9966, 214.9402
954.4788, 220.1058
954.9609, 225.2428
955.4430, 230.4367
955.9251, 235.8998
956.4072, 241.4723
956.8893, 246.7238
957.3715, 251.2409
957.8536, 256.1032
958.3357, 261.8049
958.8178, 267.2885
959.2999, 270.4439
959.7820, 271.7868
960.2642, 273.7065
960.7463, 276.8104
961.2284, 279.7022
961.7105, 281.1375
962.1926, 282.0867
962.6747, 283.5140
963.1569, 285.7366
963.6390, 287.1102
964.1211, 287.2534
964.6032, 287.6144
965.0853, 289.2333
965.5674, 291.6948
966.0496, 293.8675
966.5317, 295.7676
967.0138, 297.5629
967.4959, 298.9574
967.9780, 300.6608
968.4601, 303.0746
968.9423, 306.0305
969.4244, 309.0975
969.9065, 312.3870
970.3886, 315.3892
970.8707, 317.9778
971.3528, 320.4573
971.8350, 323.2853
972.3171, 326.3220
972.7992, 329.4221
973.2813, 332.6390
973.7634, 335.6398
974.2455, 338.5321
974.7277, 340.9333
975.2098, 342.4974
975.6919, 343.2114
976.1740, 344.2026
976.6561, 345.5079
977.1382, 346.2592
977.6204, 345.7154
978.1025, 344.4709
978.5846, 343.5292
979.0667, 342.5129
979.5488, 340.2556
980.0309, 335.5605
980.5131, 330.6703
980.9952, 325.8438
981.4773, 321.1039
981.9594, 316.6486
982.4415, 312.4113
982.9236, 307.4402
983.4058, 301.4825
983.8879, 295.8100
984.3700, 291.6630
984.8521, 288.2239
985.3342, 284.9209
985.8163, 281.8547
986.2985, 277.7054
986.7806, 271.8450
987.2627, 266.3318
987.7448, 262.3758
988.2269, 259.4760
988.7090, 256.1682
989.1912, 252.5359
989.6733, 248.9162
990.1554, 245.3986
990.6375, 242.0005
991.1196, 238.9266
991.6017, 235.9704
992.0839, 232.8133
992.5660, 229.3979
993.0481, 225.9932
993.5302, 222.5748
994.0123, 219.3298
994.4944, 216.5367
994.9766, 214.0095
995.4587, 211.5540
995.9408, 209.1771
996.4229, 206.5576
996.9050, 203.3010
997.3871, 200.0694
997.8693, 197.2135
998.3514, 194.6278
998.8335, 191.7431
999.3156, 188.6010
999.7977, 185.6999
1000.280, 183.3941
1000.762, 181.3076
1001.244, 179.2009
1001.726, 177.0552
1002.208, 174.8215
1002.690, 172.4411
1003.173, 170.0516
1003.655, 167.6327
1004.137, 165.2943
1004.619, 163.2049
1005.101, 161.2965
1005.583, 159.5539
1006.065, 157.9297
1006.547, 156.0460
1007.029, 153.1640
1007.512, 150.3996
1007.994, 148.4002
1008.476, 147.0605
1008.958, 146.1250
1009.440, 145.6556
1009.922, 145.2160
1010.404, 144.7157
1010.886, 144.1016
1011.369, 143.2185
1011.851, 142.1887
1012.333, 141.1747
1012.815, 140.0211
1013.297, 139.3655
1013.779, 139.4479
1014.261, 139.8695
1014.743, 140.5006
1015.225, 141.3168
1015.708, 141.6233
1016.190, 141.4487
1016.672, 141.2483
1017.154, 141.0682
1017.636, 141.2051
1018.118, 142.0875
1018.600, 143.4686
1019.082, 144.5367
1019.565, 145.0880
1020.047, 145.7321
1020.529, 146.5578
1021.011, 147.5222
1021.493, 148.6544
1021.975, 149.8712
1022.457, 150.9513
1022.939, 151.8232
1023.421, 152.8652
1023.904, 154.5079
1024.386, 156.0957
1024.868, 157.2508
1025.350, 158.0444
1025.832, 159.1040
1026.314, 160.4305
1026.796, 162.0023
1027.278, 163.8294
1027.760, 165.8865
1028.243, 168.4063
1028.725, 171.0688
1029.207, 173.3089
1029.689, 174.5277
1030.171, 176.2039
1030.653, 178.5255
1031.135, 180.9784
1031.617, 182.9588
1032.100, 184.6657
1032.582, 186.8749
1033.064, 189.5899
1033.546, 192.2348
1034.028, 194.1943
1034.510, 196.3768
1034.992, 199.3451
1035.474, 202.8449
1035.957, 205.9858
1036.439, 208.7732
1036.921, 211.6886
1037.403, 214.7468
1037.885, 218.4044
1038.367, 223.6139
1038.849, 229.4963
1039.331, 234.6294
1039.813, 238.3932
1040.296, 243.4864
1040.778, 250.2921
1041.260, 257.8539
1041.742, 265.5786
1042.224, 273.6316
1042.706, 282.4049
1043.188, 291.7350
1043.670, 301.5025
1044.152, 311.1314
1044.635, 321.6263
1045.117, 333.1632
1045.599, 345.8845
1046.081, 359.9612
1046.563, 375.6580
1047.045, 391.9698
1047.527, 408.8342
1048.009, 426.4534
1048.492, 444.4131
1048.974, 463.3918
1049.456, 484.4252
1049.938, 507.4973
1050.420, 530.5784
1050.902, 553.7880
1051.384, 576.9650
1051.866, 599.7791
1052.349, 623.0481
1052.831, 648.8505
1053.313, 676.3629
1053.795, 703.4241
1054.277, 729.2043
1054.759, 754.6970
1055.241, 779.1429
1055.723, 804.5406
1056.205, 832.4872
1056.688, 862.8791
1057.170, 891.6896
1057.652, 919.0228
1058.134, 945.9220
1058.616, 973.7293
1059.098, 1000.884
1059.580, 1027.360
1060.062, 1051.808
1060.544, 1071.573
1061.027, 1087.041
1061.509, 1096.854
1061.991, 1101.152
1062.473, 1099.281
1062.955, 1090.472
1063.437, 1075.014
1063.919, 1052.735
1064.401, 1024.108
1064.884, 991.3477
1065.366, 952.8610
1065.848, 913.6463
1066.330, 875.3212
1066.812, 837.8203
1067.294, 800.8271
1067.776, 764.7789
1068.258, 731.0731
1068.740, 700.3179
1069.223, 671.5132
1069.705, 643.4045
1070.187, 616.9489
1070.669, 592.9726
1071.151, 571.4327
1071.633, 550.6351
1072.115, 530.2625
1072.597, 511.3568
1073.079, 494.5855
1073.562, 479.2473
1074.044, 463.9135
1074.526, 449.1852
1075.008, 435.8698
1075.490, 424.8331
1075.972, 414.3820
1076.454, 404.0984
1076.936, 394.7405
1077.419, 386.8911
1077.901, 380.4349
1078.383, 374.8464
1078.865, 370.0158
1079.347, 365.6017
1079.829, 360.7821
1080.311, 357.0134
1080.793, 355.3892
1081.275, 355.0642
1081.758, 354.7477
1082.240, 354.3788
1082.722, 355.0956
1083.204, 357.0676
1083.686, 359.8457
1084.168, 362.7745
1084.650, 366.5778
1085.132, 372.1691
1085.615, 379.5799
1086.097, 387.0856
1086.579, 394.4164
1087.061, 402.4925
1087.543, 411.4015
1088.025, 421.3336
1088.507, 432.5282
1088.989, 444.7821
1089.471, 457.7050
1089.953, 471.1461
1090.436, 485.5737
1090.918, 501.6715
1091.400, 518.0043
1091.882, 533.8618
1092.364, 549.4864
1092.846, 565.9951
1093.328, 583.2184
1093.810, 601.0453
1094.293, 619.6300
1094.775, 638.4971
1095.257, 658.2917
1095.739, 677.8635
1096.221, 696.0439
1096.703, 712.8520
1097.185, 728.5609
1097.667, 743.2441
1098.150, 756.8132
1098.632, 769.7717
1099.114, 780.8784
1099.596, 789.0488
1100.078, 794.4965
1100.560, 798.1456
1101.042, 800.2548
1101.524, 800.2736
1102.006, 798.0733
1102.489, 793.8793
1102.971, 787.0678
1103.453, 778.7729
1103.935, 770.5626
1104.417, 762.5577
1104.899, 755.2404
1105.381, 748.3643
1105.863, 742.6617
1106.345, 738.5007
1106.828, 735.4324
1107.310, 731.8929
1107.792, 728.7061
1108.274, 728.7649
1108.756, 733.2286
1109.238, 738.6394
1109.720, 742.7798
1110.202, 747.9745
1110.685, 755.5530
1111.167, 765.2975
1111.649, 774.9003
1112.131, 784.4634
1112.613, 795.6919
1113.095, 809.8796
1113.577, 824.5143
1114.059, 837.6677
1114.542, 850.1452
1115.024, 862.9176
1115.506, 876.2678
1115.988, 889.6071
1116.470, 903.1504
1116.952, 914.4860
1117.434, 921.6551
1117.916, 926.0446
1118.398, 930.1019
1118.880, 932.4779
1119.363, 929.5697
1119.845, 919.2720
1120.327, 907.3944
1120.809, 894.4071
1121.291, 879.8846
1121.773, 862.7347
1122.255, 844.1215
1122.737, 825.9291
1123.220, 808.2303
1123.702, 790.6071
1124.184, 772.3463
1124.666, 755.3187
1125.148, 740.0317
1125.630, 725.9117
1126.112, 711.7001
1126.594, 697.9170
1127.077, 686.4303
1127.559, 677.5237
1128.041, 669.2210
1128.523, 660.0988
1129.005, 651.8062
1129.487, 644.9570
1129.969, 639.4409
1130.451, 634.8148
1130.933, 631.0409
1131.416, 627.9325
1131.898, 625.3191
1132.380, 623.6993
1132.862, 623.5809
1133.344, 624.4412
1133.826, 625.9064
1134.308, 627.9153
1134.790, 630.5726
1135.272, 633.9172
1135.755, 636.8000
1136.237, 638.6200
1136.719, 640.1371
1137.201, 642.1725
1137.683, 644.2606
1138.165, 645.8026
1138.647, 646.8073
1139.129, 647.1578
1139.612, 646.8391
1140.094, 646.0381
1140.576, 645.4039
1141.058, 643.9277
1141.540, 640.2065
1142.022, 634.6724
1142.504, 628.1995
1142.986, 621.1727
1143.469, 612.7747
1143.951, 602.8146
1144.433, 591.8036
1144.915, 579.7231
1145.397, 566.9606
1145.879, 554.1812
1146.361, 541.3063
1146.843, 527.9864
1147.325, 513.2736
1147.807, 499.0287
1148.290, 485.3204
1148.772, 472.4857
1149.254, 460.6001
1149.736, 449.8984
1150.218, 440.9049
1150.700, 433.4685
1151.182, 426.3046
1151.664, 417.6707
1152.147, 410.8769
1152.629, 407.1800
1153.111, 405.3050
1153.593, 402.7516
1154.075, 400.0020
1154.557, 399.0665
1155.039, 400.3051
1155.521, 402.3358
1156.004, 404.3511
1156.486, 407.1009
1156.968, 410.9447
1157.450, 415.6646
1157.932, 420.6271
1158.414, 425.9040
1158.896, 432.1283
1159.378, 439.6242
1159.860, 447.2524
1160.343, 454.4443
1160.825, 461.3165
1161.307, 468.0361
1161.789, 474.6049
1162.271, 481.0532
1162.753, 487.3680
1163.235, 493.2572
1163.717, 498.6329
1164.199, 503.5359
1164.682, 508.6004
1165.164, 512.6218
1165.646, 514.2698
1166.128, 513.5297
1166.610, 511.9919
1167.092, 509.6983
1167.574, 505.6794
1168.056, 499.1378
1168.539, 491.2182
1169.021, 483.2197
1169.503, 474.3077
1169.985, 462.8581
1170.467, 448.1833
1170.949, 434.9267
1171.431, 423.3297
1171.913, 411.9435
1172.396, 399.8128
1172.878, 387.6754
1173.360, 375.6226
1173.842, 364.2323
1174.324, 354.5320
1174.806, 347.1400
1175.288, 339.8480
1175.770, 332.6037
1176.252, 325.6590
1176.734, 319.0225
1177.217, 312.9228
1177.699, 308.0658
1178.181, 304.0287
1178.663, 299.7169
1179.145, 294.7826
1179.627, 290.0966
1180.109, 285.8575
1180.591, 281.3805
1181.074, 276.2372
1181.556, 270.4046
1182.038, 263.4558
1182.520, 255.6335
1183.002, 248.1712
1183.484, 241.1792
1183.966, 234.4937
1184.448, 228.1383
1184.931, 221.9776
1185.413, 215.5072
1185.895, 209.2060
1186.377, 203.9570
1186.859, 199.7107
1187.341, 195.7771
1187.823, 191.8810
1188.305, 188.5597
1188.787, 186.0219
1189.270, 183.8876
1189.752, 181.6099
1190.234, 179.3856
1190.716, 177.5614
1191.198, 176.1629
1191.680, 174.8131
1192.162, 173.3858
1192.644, 172.0706
1193.126, 170.8841
1193.609, 169.8910
1194.091, 169.4261
1194.573, 169.1592
1195.055, 168.3166
1195.537, 166.7362
1196.019, 165.7875
1196.501, 166.1555
1196.983, 166.4565
1197.466, 166.2370
1197.948, 165.8015
1198.430, 165.6759
1198.912, 165.7590
1199.394, 165.8179
1199.876, 165.7725
1200.358, 166.0147
1200.840, 166.9972
1201.323, 167.5780
1201.805, 167.2482
1202.287, 166.4085
1202.769, 165.7102
1203.251, 165.1798
1203.733, 164.9480
1204.215, 165.1595
1204.697, 165.0997
1205.179, 164.4817
1205.661, 163.9222
1206.144, 163.7470
1206.626, 163.7479
1207.108, 163.4976
1207.590, 163.0490
1208.072, 162.5605
1208.554, 162.2328
1209.036, 161.2775
1209.518, 159.2962
1210.001, 157.3146
1210.483, 155.8601
1210.965, 154.7553
1211.447, 153.6980
1211.929, 152.6719
1212.411, 151.6230
1212.893, 150.6289
1213.375, 149.2624
1213.858, 146.8501
1214.340, 145.4690
1214.822, 147.1819
1215.304, 150.0408
1215.786, 148.8683
1216.268, 145.2012
1216.750, 142.4812
1217.232, 142.0467
1217.714, 141.9843
1218.197, 142.0867
1218.679, 142.5473
1219.161, 143.6522
1219.643, 145.0789
1220.125, 146.0961
1220.607, 146.9148
1221.089, 148.0226
1221.571, 149.4632
1222.053, 151.5193
1222.536, 154.4447
1223.018, 157.3181
1223.500, 159.1841
1223.982, 160.8350
1224.464, 164.0340
1224.946, 168.1958
1225.428, 171.9901
1225.910, 174.7562
1226.393, 177.5089
1226.875, 180.0640
1227.357, 183.1225
1227.839, 187.6563
1228.321, 192.7175
1228.803, 196.6210
1229.285, 199.8766
1229.767, 203.7048
1230.250, 209.1493
1230.732, 213.6667
1231.214, 217.3054
1231.696, 219.7407
1232.178, 220.4903
1232.660, 220.0363
1233.142, 218.9178
1233.624, 217.1228
1234.106, 214.5414
1234.589, 210.8506
1235.071, 207.3027
1235.553, 203.9437
1236.035, 200.6261
1236.517, 196.9555
1236.999, 193.5275
1237.481, 191.0983
1237.963, 189.4857
1238.445, 188.2252
1238.928, 187.0949
1239.410, 186.8146
1239.892, 187.4415
1240.374, 188.5899
1240.856, 189.8946
1241.338, 191.6431
1241.820, 194.3909
1242.302, 197.7258
1242.785, 200.7179
1243.267, 203.2574
1243.749, 205.9521
1244.231, 208.8206
1244.713, 211.9821
1245.195, 215.5307
1245.677, 219.3981
1246.159, 223.8650
1246.641, 228.4382
1247.124, 232.2204
1247.606, 235.1632
1248.088, 237.9357
1248.570, 240.5147
1249.052, 242.0445
1249.534, 241.9390
1250.016, 240.6274
1250.498, 238.0009
1250.980, 234.4978
1251.463, 230.7650
1251.945, 226.7781
1252.427, 221.1853
1252.909, 214.0628
1253.391, 206.7740
1253.873, 200.1646
1254.355, 193.6568
1254.837, 186.8673
1255.320, 180.1382
1255.802, 173.8316
1256.284, 167.9811
1256.766, 162.9297
1257.248, 158.6300
1257.730, 154.4957
1258.212, 149.9950
1258.694, 145.9395
1259.177, 142.5249
1259.659, 139.6322
1260.141, 137.3423
1260.623, 135.4650
1261.105, 133.3310
1261.587, 130.9843
1262.069, 128.7424
1262.551, 126.7412
1263.033, 124.8941
1263.516, 123.1641
1263.998, 121.5946
1264.480, 120.2305
1264.962, 119.0560
1265.444, 118.0672
1265.926, 117.2425
1266.408, 116.5025
1266.890, 115.9579
1267.372, 115.2058
1267.855, 114.1440
1268.337, 113.1491
1268.819, 112.8266
1269.301, 112.5561
1269.783, 111.1916
1270.265, 109.1975
1270.747, 107.9227
1271.229, 107.7319
1271.712, 107.4927
1272.194, 107.1759
1272.676, 106.6453
1273.158, 105.6102
1273.640, 104.4720
1274.122, 103.4858
1274.604, 102.7152
1275.086, 102.3470
1275.568, 102.5225
1276.051, 102.0182
1276.533, 100.7888
1277.015, 99.54993
1277.497, 98.91718
1277.979, 98.23627
1278.461, 97.07893
1278.943, 95.63562
1279.425, 93.97617
1279.907, 92.10758
1280.390, 91.33205
1280.872, 91.53886
1281.354, 91.66946
1281.836, 91.18130
1282.318, 90.45662
1282.800, 89.42449
1283.282, 88.43874
1283.764, 87.85671
1284.247, 87.58398
1284.729, 87.25941
1285.211, 86.85876
1285.693, 86.30890
1286.175, 85.32217
1286.657, 84.57860
1287.139, 84.21001
1287.621, 83.95256
1288.104, 83.60462
1288.586, 83.22731
1289.068, 82.93897
1289.550, 82.71823
1290.032, 82.51028
1290.514, 82.23231
1290.996, 82.16525
1291.478, 82.39854
1291.960, 82.46780
1292.443, 81.90260
1292.925, 81.20024
1293.407, 80.97565
1293.889, 81.03297
1294.371, 81.08100
1294.853, 81.11732
1295.335, 80.97954
1295.817, 80.66093
1296.299, 80.39028
1296.782, 80.28907
1297.264, 80.26839
1297.746, 80.40984
1298.228, 80.47243
1298.710, 80.18150
1299.192, 79.57533
1299.674, 79.19453
1300.156, 79.03001
1300.639, 79.01648
1301.121, 79.23045
1301.603, 79.36578
1302.085, 79.25568
1302.567, 79.07102
1303.049, 78.88672
1303.531, 78.69042
##END=



