##NAMES=Trona
##RRUFFID=R050499
##IDEAL CHEMISTRY=Na_3_(HCO_3_)(CO_3_)&#183;2H_2_O
##LOCALITY=Searles Lake, Trona, San Bernardino County, California, USA
##OWNER=RRUFF
##SOURCE=California Institute of Technology
##DESCRIPTION=Gray columnar massive
##STATUS=The identification of this mineral has been confirmed by X-ray diffraction and chemical analysis
##URL=rruff.info/R050499
##MEASURED CHEMISTRY=Na_3.00_(CO_3_)(HCO_3_)Â·2H_2_O ; CO_3_ and HCO_3_ were estimated by stoichiometry
93.56738, 3255.207
94.04950, 3009.657
94.53162, 2906.387
95.01373, 2925.924
95.49585, 3075.788
95.97797, 3294.398
96.46008, 3530.419
96.94220, 3792.248
97.42432, 4049.115
97.90643, 4338.737
98.38855, 4597.327
98.87067, 4806.766
99.35278, 4959.754
99.83490, 5037.737
100.3170, 4992.557
100.7991, 4747.271
101.2813, 4462.385
101.7634, 4111.600
102.2455, 3738.027
102.7276, 3383.170
103.2097, 3066.199
103.6918, 2788.139
104.1740, 2561.673
104.6561, 2385.639
105.1382, 2242.636
105.6203, 2130.699
106.1024, 2046.920
106.5845, 1981.446
107.0667, 1931.414
107.5488, 1894.961
108.0309, 1858.328
108.5130, 1821.086
108.9951, 1782.848
109.4772, 1743.010
109.9594, 1700.986
110.4415, 1658.284
110.9236, 1614.472
111.4057, 1570.531
111.8878, 1528.750
112.3699, 1489.889
112.8521, 1453.788
113.3342, 1421.236
113.8163, 1391.445
114.2984, 1366.623
114.7805, 1348.380
115.2626, 1335.876
115.7447, 1327.036
116.2269, 1319.744
116.7090, 1313.769
117.1911, 1310.507
117.6732, 1309.447
118.1553, 1310.927
118.6374, 1315.737
119.1196, 1323.781
119.6017, 1333.990
120.0838, 1344.707
120.5659, 1357.861
121.0480, 1368.198
121.5301, 1377.651
122.0123, 1383.649
122.4944, 1383.038
122.9765, 1374.434
123.4586, 1359.472
123.9407, 1341.316
124.4228, 1318.152
124.9050, 1296.078
125.3871, 1276.422
125.8692, 1259.392
126.3513, 1245.211
126.8334, 1234.052
127.3155, 1226.480
127.7977, 1221.990
128.2798, 1220.896
128.7619, 1222.401
129.2440, 1225.875
129.7261, 1231.298
130.2083, 1238.765
130.6904, 1248.427
131.1725, 1260.081
131.6546, 1274.151
132.1367, 1290.977
132.6188, 1309.949
133.1010, 1329.594
133.5831, 1349.590
134.0652, 1370.908
134.5473, 1393.886
135.0294, 1418.196
135.5115, 1443.535
135.9936, 1469.552
136.4758, 1496.323
136.9579, 1524.345
137.4400, 1555.944
137.9221, 1586.796
138.4042, 1617.611
138.8863, 1646.955
139.3685, 1672.831
139.8506, 1693.857
140.3327, 1710.328
140.8148, 1716.459
141.2969, 1708.823
141.7790, 1695.936
142.2612, 1680.506
142.7433, 1663.553
143.2254, 1647.380
143.7075, 1634.048
144.1896, 1623.777
144.6717, 1618.222
145.1539, 1617.547
145.6360, 1621.602
146.1181, 1630.092
146.6002, 1642.842
147.0823, 1660.615
147.5644, 1685.045
148.0466, 1715.085
148.5287, 1750.085
149.0108, 1788.338
149.4929, 1831.011
149.9750, 1882.000
150.4571, 1941.907
150.9393, 2011.436
151.4214, 2091.334
151.9035, 2181.017
152.3856, 2272.923
152.8677, 2367.907
153.3498, 2467.155
153.8320, 2545.372
154.3141, 2603.637
154.7962, 2633.216
155.2783, 2623.388
155.7604, 2573.997
156.2425, 2497.139
156.7247, 2405.092
157.2068, 2287.727
157.6889, 2177.707
158.1710, 2070.693
158.6531, 1973.875
159.1352, 1892.461
159.6174, 1828.091
160.0995, 1778.416
160.5816, 1739.578
161.0637, 1715.954
161.5458, 1699.414
162.0279, 1690.791
162.5101, 1688.282
162.9922, 1690.490
163.4743, 1696.851
163.9564, 1707.048
164.4385, 1720.649
164.9206, 1739.574
165.4028, 1759.109
165.8849, 1780.607
166.3670, 1802.049
166.8491, 1820.086
167.3312, 1833.068
167.8133, 1841.214
168.2955, 1845.584
168.7776, 1844.966
169.2597, 1843.066
169.7418, 1840.406
170.2239, 1837.435
170.7060, 1836.410
171.1882, 1838.077
171.6703, 1843.050
172.1524, 1851.720
172.6345, 1865.708
173.1166, 1881.044
173.5987, 1894.748
174.0809, 1906.946
174.5630, 1916.905
175.0451, 1924.740
175.5272, 1929.740
176.0093, 1930.663
176.4914, 1926.889
176.9736, 1919.303
177.4557, 1908.351
177.9378, 1891.869
178.4199, 1877.446
178.9020, 1866.387
179.3841, 1858.676
179.8663, 1854.069
180.3484, 1852.218
180.8305, 1854.007
181.3126, 1862.426
181.7947, 1880.997
182.2768, 1902.047
182.7590, 1926.808
183.2411, 1952.115
183.7232, 1975.483
184.2053, 1996.010
184.6874, 2012.426
185.1695, 2016.214
185.6517, 2003.505
186.1338, 1980.435
186.6159, 1944.508
187.0980, 1898.930
187.5801, 1848.047
188.0622, 1794.142
188.5444, 1737.707
189.0265, 1682.529
189.5086, 1625.413
189.9907, 1572.436
190.4728, 1525.522
190.9549, 1484.249
191.4371, 1447.705
191.9192, 1415.229
192.4013, 1387.088
192.8834, 1361.949
193.3655, 1339.567
193.8476, 1319.810
194.3298, 1303.468
194.8119, 1290.054
195.2940, 1277.452
195.7761, 1263.998
196.2582, 1250.115
196.7403, 1237.764
197.2225, 1228.301
197.7046, 1219.412
198.1867, 1208.902
198.6688, 1196.664
199.1509, 1185.105
199.6330, 1175.943
200.1152, 1168.684
200.5973, 1162.234
201.0794, 1156.526
201.5615, 1151.472
202.0436, 1147.027
202.5257, 1143.259
203.0079, 1139.851
203.4900, 1136.604
203.9721, 1133.595
204.4542, 1131.061
204.9363, 1129.434
205.4184, 1128.076
205.9006, 1125.561
206.3827, 1121.258
206.8648, 1117.296
207.3469, 1113.981
207.8290, 1111.622
208.3111, 1110.861
208.7933, 1112.363
209.2754, 1115.294
209.7575, 1117.150
210.2396, 1117.160
210.7217, 1117.276
211.2038, 1117.793
211.6860, 1118.798
212.1681, 1120.617
212.6502, 1123.619
213.1323, 1127.283
213.6144, 1129.173
214.0965, 1127.723
214.5787, 1126.301
215.0608, 1125.613
215.5429, 1125.322
216.0250, 1124.810
216.5071, 1123.654
216.9892, 1122.122
217.4713, 1121.744
217.9535, 1123.682
218.4356, 1125.640
218.9177, 1127.233
219.3998, 1128.636
219.8819, 1130.016
220.3640, 1131.418
220.8462, 1133.007
221.3283, 1135.928
221.8104, 1141.374
222.2925, 1146.728
222.7746, 1151.795
223.2567, 1156.385
223.7389, 1160.321
224.2210, 1163.589
224.7031, 1166.019
225.1852, 1166.414
225.6673, 1163.931
226.1494, 1160.857
226.6316, 1158.139
227.1137, 1155.325
227.5958, 1151.295
228.0779, 1145.391
228.5600, 1137.922
229.0421, 1130.317
229.5243, 1121.959
230.0064, 1114.198
230.4885, 1107.684
230.9706, 1102.193
231.4527, 1097.046
231.9348, 1092.020
232.4170, 1087.054
232.8991, 1082.002
233.3812, 1076.991
233.8633, 1071.703
234.3454, 1065.646
234.8275, 1059.071
235.3097, 1052.988
235.7918, 1047.665
236.2739, 1043.298
236.7560, 1040.140
237.2381, 1038.684
237.7202, 1036.970
238.2024, 1033.255
238.6845, 1027.887
239.1666, 1023.314
239.6487, 1020.497
240.1308, 1018.784
240.6129, 1017.463
241.0951, 1016.611
241.5772, 1015.452
242.0593, 1013.107
242.5414, 1009.673
243.0235, 1006.779
243.5056, 1005.659
243.9878, 1004.445
244.4699, 1000.876
244.9520, 994.8678
245.4341, 989.7900
245.9162, 989.4199
246.3983, 993.7224
246.8805, 996.2846
247.3626, 995.1236
247.8447, 992.6604
248.3268, 989.9824
248.8089, 987.2898
249.2910, 985.0360
249.7732, 983.7868
250.2553, 983.5820
250.7374, 983.3289
251.2195, 983.0492
251.7016, 982.6100
252.1837, 981.8348
252.6659, 980.8059
253.1480, 979.8058
253.6301, 979.0972
254.1122, 978.6910
254.5943, 978.3489
255.0764, 978.1888
255.5586, 977.9785
256.0407, 977.4734
256.5228, 976.8121
257.0049, 976.4010
257.4870, 976.7465
257.9691, 977.8823
258.4513, 978.1349
258.9334, 976.6876
259.4155, 975.0247
259.8976, 973.2714
260.3797, 971.6089
260.8618, 970.3210
261.3440, 969.6791
261.8261, 969.6493
262.3082, 969.3662
262.7903, 968.6901
263.2724, 967.8723
263.7545, 966.5372
264.2367, 965.1307
264.7188, 964.4816
265.2009, 965.2267
265.6830, 967.1222
266.1651, 968.1466
266.6472, 968.1130
267.1294, 967.3127
267.6115, 964.8032
268.0936, 961.7321
268.5757, 959.9323
269.0578, 960.4940
269.5399, 962.7076
270.0221, 963.4416
270.5042, 960.7268
270.9863, 958.6957
271.4684, 958.2095
271.9505, 958.5134
272.4326, 958.7100
272.9148, 958.3952
273.3969, 957.6335
273.8790, 956.6073
274.3611, 954.5308
274.8432, 953.1484
275.3253, 953.3127
275.8075, 953.8724
276.2896, 953.1331
276.7717, 950.5186
277.2538, 947.5558
277.7359, 947.1930
278.2180, 952.3850
278.7002, 955.7391
279.1823, 956.4644
279.6644, 955.7156
280.1465, 954.2211
280.6286, 952.2512
281.1107, 950.2945
281.5929, 949.0819
282.0750, 949.0231
282.5571, 948.7774
283.0392, 948.2044
283.5213, 947.5367
284.0034, 946.8676
284.4856, 946.2448
284.9677, 945.8542
285.4498, 945.9562
285.9319, 946.7077
286.4140, 947.1428
286.8961, 946.6141
287.3783, 946.2678
287.8604, 947.5237
288.3425, 950.1295
288.8246, 951.9130
289.3067, 950.7249
289.7888, 946.4681
290.2710, 943.8212
290.7531, 943.6325
291.2352, 944.1180
291.7173, 944.5061
292.1994, 944.7368
292.6815, 944.8970
293.1637, 945.1310
293.6458, 945.3034
294.1279, 944.6848
294.6100, 942.5507
295.0921, 940.4895
295.5742, 938.9711
296.0564, 938.0255
296.5385, 937.8113
297.0206, 938.5529
297.5027, 939.8931
297.9848, 940.7867
298.4669, 941.4997
298.9491, 941.4897
299.4312, 939.9538
299.9133, 937.6396
300.3954, 936.1129
300.8775, 936.0388
301.3596, 936.6137
301.8418, 936.2715
302.3239, 934.7990
302.8060, 933.4713
303.2881, 932.5258
303.7702, 931.9136
304.2523, 931.7262
304.7345, 932.0358
305.2166, 932.3152
305.6987, 931.7665
306.1808, 930.3083
306.6629, 929.1359
307.1451, 928.2990
307.6272, 927.8792
308.1093, 928.0729
308.5914, 928.9001
309.0735, 930.0300
309.5556, 931.5374
310.0378, 933.2670
310.5199, 933.4681
311.0020, 930.6285
311.4841, 927.3006
311.9662, 925.3379
312.4483, 924.7434
312.9305, 924.7659
313.4126, 925.1234
313.8947, 925.6896
314.3768, 925.8962
314.8589, 925.3040
315.3410, 924.8240
315.8232, 924.9666
316.3053, 925.6258
316.7874, 926.4650
317.2695, 927.3954
317.7516, 928.3264
318.2337, 929.1130
318.7159, 929.9711
319.1980, 930.2621
319.6801, 929.3868
320.1622, 927.8094
320.6443, 926.4296
321.1264, 925.5168
321.6086, 924.8926
322.0907, 924.3778
322.5728, 924.0031
323.0549, 923.4803
323.5370, 922.5150
324.0191, 921.4627
324.5013, 920.8320
324.9834, 920.7244
325.4655, 920.8156
325.9476, 920.8719
326.4297, 920.8898
326.9118, 920.6083
327.3940, 919.6954
327.8761, 918.7064
328.3582, 918.1278
328.8403, 917.9679
329.3224, 917.9232
329.8045, 917.7570
330.2867, 917.5374
330.7688, 917.6107
331.2509, 918.6025
331.7330, 919.2646
332.2151, 918.7392
332.6972, 917.3124
333.1794, 915.8546
333.6615, 914.7036
334.1436, 913.8787
334.6257, 913.4507
335.1078, 913.3801
335.5899, 913.6347
336.0721, 914.7031
336.5542, 915.9771
337.0363, 916.2927
337.5184, 915.2141
338.0005, 913.6297
338.4826, 912.8782
338.9648, 913.1492
339.4469, 913.3992
339.9290, 913.7977
340.4111, 913.9717
340.8932, 913.3109
341.3753, 911.7929
341.8574, 910.3499
342.3395, 909.8933
342.8217, 910.5311
343.3038, 911.0013
343.7859, 911.6239
344.2680, 911.8150
344.7501, 910.6684
345.2322, 908.6187
345.7144, 907.3788
346.1965, 908.2048
346.6786, 910.6318
347.1607, 911.8964
347.6428, 911.5504
348.1249, 910.8610
348.6071, 909.7573
349.0892, 908.6125
349.5713, 908.2169
350.0534, 908.9400
350.5355, 910.0733
351.0176, 910.1370
351.4998, 908.1804
351.9819, 906.9628
352.4640, 907.3356
352.9461, 908.1075
353.4282, 908.0592
353.9103, 907.0068
354.3925, 905.7521
354.8746, 905.1965
355.3567, 905.4870
355.8388, 905.8031
356.3209, 906.3295
356.8030, 906.7040
357.2852, 906.4332
357.7673, 905.7734
358.2494, 905.6135
358.7315, 906.6923
359.2136, 908.7991
359.6957, 909.7409
360.1779, 908.4875
360.6600, 907.3371
361.1421, 907.0072
361.6242, 906.9803
362.1063, 906.4598
362.5884, 905.1096
363.0706, 903.2933
363.5527, 901.8066
364.0348, 900.7079
364.5169, 899.9176
364.9990, 899.9293
365.4811, 899.9141
365.9633, 898.9659
366.4454, 897.1105
366.9275, 895.3491
367.4096, 894.8338
367.8917, 895.7928
368.3738, 896.8444
368.8560, 898.7490
369.3381, 900.0010
369.8202, 899.7666
370.3023, 898.3975
370.7844, 896.6486
371.2665, 894.9146
371.7487, 893.3332
372.2308, 892.7651
372.7129, 894.2867
373.1950, 895.4020
373.6771, 895.4162
374.1592, 894.9629
374.6414, 894.7374
375.1235, 894.9833
375.6056, 895.4054
376.0877, 895.4823
376.5698, 895.0651
377.0519, 894.7203
377.5341, 894.6273
378.0162, 894.5086
378.4983, 894.2494
378.9804, 893.8239
379.4625, 893.2311
379.9446, 892.5019
380.4268, 891.6357
380.9089, 890.3370
381.3910, 887.4298
381.8731, 885.6926
382.3552, 887.2017
382.8373, 890.2916
383.3195, 892.1877
383.8016, 891.2946
384.2837, 888.9082
384.7658, 887.9043
385.2479, 888.9182
385.7300, 889.2091
386.2122, 886.8203
386.6943, 883.9486
387.1764, 882.3754
387.6585, 882.4277
388.1406, 883.0470
388.6227, 883.3682
389.1049, 883.4069
389.5870, 883.3431
390.0691, 883.1228
390.5512, 882.9117
391.0333, 882.8387
391.5154, 882.8773
391.9976, 882.9285
392.4797, 882.7689
392.9618, 882.6455
393.4439, 883.2416
393.9260, 884.7770
394.4081, 885.8582
394.8903, 885.2690
395.3724, 883.8210
395.8545, 882.9635
396.3366, 883.2557
396.8187, 883.4149
397.3008, 881.9387
397.7830, 879.3302
398.2651, 877.8610
398.7472, 878.3845
399.2293, 880.1023
399.7114, 882.2343
400.1935, 884.8578
400.6757, 886.7225
401.1578, 887.3577
401.6399, 887.0792
402.1220, 885.9766
402.6041, 884.0770
403.0862, 882.2860
403.5684, 881.3577
404.0505, 881.2619
404.5326, 881.1072
405.0147, 880.9936
405.4968, 880.7300
405.9789, 880.1487
406.4611, 879.3463
406.9432, 878.4804
407.4253, 877.5677
407.9074, 876.8163
408.3895, 876.7635
408.8716, 878.1643
409.3538, 878.8215
409.8359, 878.3058
410.3180, 877.1559
410.8001, 875.3798
411.2822, 873.2242
411.7643, 871.8232
412.2465, 872.5309
412.7286, 875.6795
413.2107, 877.2094
413.6928, 875.8262
414.1749, 874.4579
414.6570, 873.9334
415.1392, 874.1369
415.6213, 875.0016
416.1034, 876.5417
416.5855, 878.1194
417.0676, 877.8737
417.5497, 873.9651
418.0319, 871.4255
418.5140, 871.3053
418.9961, 871.9388
419.4782, 872.0888
419.9603, 871.6316
420.4424, 871.2933
420.9246, 871.9720
421.4067, 873.7486
421.8888, 874.7787
422.3709, 874.3840
422.8530, 874.0228
423.3351, 874.4818
423.8173, 875.2458
424.2994, 875.4142
424.7815, 874.4864
425.2636, 873.0028
425.7457, 871.8845
426.2278, 871.1007
426.7100, 870.8122
427.1921, 871.6503
427.6742, 872.6038
428.1563, 872.9768
428.6384, 872.7103
429.1205, 872.0583
429.6027, 870.9137
430.0848, 869.4940
430.5669, 868.6160
431.0490, 868.4611
431.5311, 868.5375
432.0132, 868.6824
432.4954, 868.7924
432.9775, 868.6163
433.4596, 867.9262
433.9417, 867.1212
434.4238, 866.3480
434.9059, 865.6838
435.3881, 865.7343
435.8702, 866.9796
436.3523, 868.6849
436.8344, 869.5963
437.3165, 869.7020
437.7986, 869.4757
438.2808, 868.8536
438.7629, 868.0653
439.2450, 867.4033
439.7271, 866.8939
440.2092, 866.3116
440.6913, 865.4140
441.1735, 864.2392
441.6556, 863.4636
442.1377, 863.2282
442.6198, 863.1725
443.1019, 863.1588
443.5840, 863.2477
444.0662, 863.7971
444.5483, 864.9415
445.0304, 865.8679
445.5125, 864.9860
445.9946, 860.6545
446.4767, 858.3251
446.9589, 859.0139
447.4410, 860.4998
447.9231, 861.8735
448.4052, 862.9130
448.8873, 863.5235
449.3694, 863.6155
449.8516, 863.2419
450.3337, 862.6769
450.8158, 861.5658
451.2979, 860.8391
451.7800, 861.2277
452.2621, 861.7259
452.7443, 861.1899
453.2264, 859.3820
453.7085, 857.3826
454.1906, 856.3756
454.6727, 856.3796
455.1548, 856.7779
455.6370, 857.9460
456.1191, 858.9655
456.6012, 859.3192
457.0833, 859.1649
457.5654, 858.8242
458.0475, 858.2930
458.5297, 857.7947
459.0118, 857.5965
459.4939, 857.6943
459.9760, 858.2951
460.4581, 860.0897
460.9402, 861.8552
461.4224, 861.8299
461.9045, 859.8353
462.3866, 857.7719
462.8687, 856.0933
463.3508, 854.9438
463.8329, 854.8624
464.3151, 855.9178
464.7972, 856.6984
465.2793, 855.8456
465.7614, 853.6900
466.2435, 852.9516
466.7256, 854.9898
467.2078, 856.8021
467.6899, 857.4143
468.1720, 857.0646
468.6541, 855.8367
469.1362, 853.7764
469.6183, 851.7790
470.1005, 851.2158
470.5826, 852.6898
471.0647, 853.6661
471.5468, 854.1589
472.0289, 854.2233
472.5110, 853.5381
472.9932, 852.4604
473.4753, 851.7576
473.9574, 851.9122
474.4395, 852.6247
474.9216, 852.9826
475.4037, 852.9792
475.8859, 852.6026
476.3680, 851.7064
476.8501, 850.5844
477.3322, 849.1760
477.8143, 847.6260
478.2964, 846.5569
478.7786, 846.7946
479.2607, 848.0750
479.7428, 848.4884
480.2249, 847.2184
480.7070, 846.8651
481.1891, 850.3561
481.6713, 854.8851
482.1534, 856.6982
482.6355, 854.5281
483.1176, 851.1854
483.5997, 848.6578
484.0818, 846.8660
484.5640, 845.4905
485.0461, 844.4890
485.5282, 843.8568
486.0103, 843.7825
486.4924, 844.1875
486.9745, 844.3391
487.4567, 844.3292
487.9388, 843.8766
488.4209, 842.0772
488.9030, 839.5914
489.3851, 838.6055
489.8672, 840.3235
490.3494, 843.2663
490.8315, 844.4156
491.3136, 842.5750
491.7957, 841.0784
492.2778, 840.0436
492.7599, 839.2595
493.2421, 838.5453
493.7242, 837.9319
494.2063, 837.6596
494.6884, 837.9715
495.1705, 838.6717
495.6526, 838.6884
496.1348, 837.5395
496.6169, 836.4582
497.0990, 835.6178
497.5811, 834.9123
498.0632, 834.2607
498.5453, 833.6445
499.0275, 833.0812
499.5096, 832.4977
499.9917, 831.9263
500.4738, 831.8493
500.9559, 832.6611
501.4380, 833.1714
501.9202, 832.2516
502.4023, 830.8349
502.8844, 830.2744
503.3665, 831.0923
503.8486, 832.1412
504.3307, 832.5665
504.8129, 832.4592
505.2950, 832.0544
505.7771, 831.3181
506.2592, 830.5829
506.7413, 830.1639
507.2234, 830.0612
507.7055, 830.1268
508.1877, 830.8448
508.6698, 831.2552
509.1519, 830.3707
509.6340, 828.7745
510.1161, 827.9327
510.5982, 828.4766
511.0804, 829.5596
511.5625, 829.6390
512.0446, 827.9462
512.5267, 827.2443
513.0089, 828.6926
513.4910, 829.9349
513.9731, 829.5602
514.4552, 827.9589
514.9373, 826.1382
515.4194, 824.6189
515.9016, 823.5738
516.3837, 823.7517
516.8658, 826.0292
517.3479, 827.1122
517.8300, 824.9769
518.3121, 822.6371
518.7943, 822.2051
519.2764, 823.4490
519.7585, 824.4080
520.2406, 823.4091
520.7227, 821.4435
521.2048, 820.9075
521.6870, 822.0295
522.1691, 822.7076
522.6512, 821.7036
523.1333, 819.9322
523.6154, 818.8824
524.0975, 818.6273
524.5797, 818.7635
525.0618, 819.6290
525.5439, 820.5566
526.0260, 820.6476
526.5081, 819.8472
526.9902, 818.6428
527.4724, 817.2550
527.9545, 815.8069
528.4366, 815.1027
528.9187, 815.9669
529.4008, 816.4433
529.8829, 815.9229
530.3651, 815.1162
530.8472, 814.7076
531.3293, 814.7879
531.8114, 815.0283
532.2935, 815.1443
532.7756, 815.1324
533.2578, 814.9262
533.7399, 814.3487
534.2220, 813.8402
534.7041, 813.5486
535.1862, 813.3596
535.6683, 813.0401
536.1505, 812.5505
536.6326, 812.3890
537.1147, 813.4617
537.5968, 815.3666
538.0789, 816.0845
538.5610, 815.2004
539.0432, 813.9657
539.5253, 813.2045
540.0074, 812.6731
540.4895, 811.7488
540.9716, 809.9899
541.4537, 808.5344
541.9359, 808.1783
542.4180, 808.4806
542.9001, 808.7016
543.3822, 808.6827
543.8643, 808.6102
544.3464, 808.6556
544.8286, 808.8224
545.3107, 809.0629
545.7928, 809.7618
546.2749, 810.0667
546.7570, 809.0683
547.2391, 807.8682
547.7213, 808.1287
548.2034, 810.1494
548.6855, 812.3055
549.1676, 812.5525
549.6497, 810.7545
550.1318, 809.1155
550.6140, 807.1973
551.0961, 806.1033
551.5782, 806.8556
552.0603, 808.3283
552.5424, 808.9934
553.0245, 808.3658
553.5067, 807.3453
553.9888, 806.6893
554.4709, 806.3174
554.9530, 805.9103
555.4351, 805.4134
555.9172, 804.9150
556.3994, 804.3828
556.8815, 803.9043
557.3636, 803.8476
557.8457, 804.5255
558.3278, 805.2679
558.8099, 806.1046
559.2921, 806.7289
559.7742, 806.5381
560.2563, 805.4473
560.7384, 804.1308
561.2205, 803.2912
561.7026, 802.9382
562.1848, 802.7280
562.6669, 803.0197
563.1490, 803.0338
563.6311, 802.4567
564.1132, 801.6151
564.5953, 800.8492
565.0775, 800.2501
565.5596, 799.7374
566.0417, 799.1988
566.5238, 798.6549
567.0059, 798.3981
567.4880, 798.7430
567.9702, 798.6663
568.4523, 796.8846
568.9344, 794.5916
569.4165, 793.5340
569.8986, 794.1927
570.3807, 795.1583
570.8629, 795.6726
571.3450, 795.9521
571.8271, 796.3260
572.3092, 796.8436
572.7913, 797.5441
573.2734, 798.6174
573.7556, 799.8813
574.2377, 800.0701
574.7198, 798.1198
575.2019, 796.5627
575.6840, 795.4429
576.1661, 795.0195
576.6483, 796.2024
577.1304, 798.5948
577.6125, 800.1447
578.0946, 798.8717
578.5767, 795.3954
579.0588, 793.2050
579.5410, 792.5831
580.0231, 792.6195
580.5052, 794.1186
580.9873, 795.4752
581.4694, 795.0554
581.9515, 792.8627
582.4337, 790.9289
582.9158, 790.7577
583.3979, 791.4089
583.8800, 791.2631
584.3621, 790.3257
584.8442, 789.7931
585.3264, 790.4109
585.8085, 791.4963
586.2906, 791.5510
586.7727, 790.0530
587.2548, 789.1972
587.7369, 789.6722
588.2190, 790.4238
588.7011, 790.8868
589.1832, 791.0045
589.6653, 790.7454
590.1475, 790.0646
590.6296, 789.2865
591.1117, 789.2352
591.5938, 790.3094
592.0759, 790.8224
592.5580, 790.0108
593.0402, 789.2167
593.5223, 789.4023
594.0044, 790.0530
594.4865, 789.7946
594.9686, 787.5557
595.4507, 785.2781
595.9329, 785.5808
596.4150, 787.9547
596.8971, 789.7733
597.3792, 790.5465
597.8613, 790.2962
598.3434, 788.6159
598.8256, 785.5742
599.3077, 783.7521
599.7898, 783.9682
600.2719, 784.4750
600.7540, 785.0103
601.2361, 785.2900
601.7183, 784.6938
602.2004, 783.2123
602.6825, 781.8149
603.1646, 781.5851
603.6467, 782.4805
604.1288, 783.0466
604.6110, 783.0291
605.0931, 783.0709
605.5752, 783.3430
606.0573, 783.7245
606.5394, 784.1960
607.0215, 784.7224
607.5037, 785.0208
607.9858, 784.8575
608.4679, 784.3375
608.9500, 783.6497
609.4321, 782.7946
609.9142, 781.8022
610.3964, 780.6591
610.8785, 779.4192
611.3606, 778.0552
611.8427, 776.2110
612.3248, 775.4315
612.8069, 776.9372
613.2891, 778.6324
613.7712, 779.1491
614.2533, 778.6922
614.7354, 777.9000
615.2175, 777.0790
615.6996, 776.4320
616.1818, 776.4392
616.6639, 777.3122
617.1460, 777.8895
617.6281, 777.8773
618.1102, 777.8357
618.5923, 778.0758
619.0745, 778.4514
619.5566, 778.7862
620.0387, 779.1721
620.5208, 779.0419
621.0029, 777.4873
621.4850, 775.0862
621.9672, 773.1257
622.4493, 771.7697
622.9314, 771.5696
623.4135, 773.3568
623.8956, 776.6329
624.3777, 778.2652
624.8599, 777.1946
625.3420, 776.1163
625.8241, 775.1094
626.3062, 774.4061
626.7883, 774.3770
627.2704, 774.8898
627.7526, 775.3034
628.2347, 775.0381
628.7168, 774.6209
629.1989, 775.7869
629.6810, 778.9905
630.1631, 781.6256
630.6453, 783.2311
631.1274, 783.9352
631.6095, 784.0527
632.0916, 783.4930
632.5737, 781.8346
633.0558, 777.6239
633.5380, 773.5955
634.0201, 771.9998
634.5022, 772.1696
634.9843, 772.8157
635.4664, 773.5840
635.9485, 773.9260
636.4307, 773.0082
636.9128, 770.7901
637.3949, 770.5378
637.8770, 775.2301
638.3591, 778.2511
638.8412, 777.4703
639.3234, 775.3098
639.8055, 773.7654
640.2876, 773.2213
640.7697, 773.3071
641.2518, 774.1114
641.7339, 775.1727
642.2161, 775.1711
642.6982, 774.0352
643.1803, 772.8971
643.6624, 772.2439
644.1445, 771.6369
644.6266, 770.3949
645.1088, 768.5215
645.5909, 766.7783
646.0730, 765.1870
646.5551, 763.8333
647.0372, 762.7355
647.5193, 761.9158
648.0015, 761.5057
648.4836, 761.5151
648.9657, 761.6636
649.4478, 761.6464
649.9299, 761.4632
650.4120, 761.0220
650.8942, 760.3011
651.3763, 759.3363
651.8584, 757.4551
652.3405, 755.7521
652.8226, 755.5955
653.3047, 757.0948
653.7869, 758.3434
654.2690, 758.1784
654.7511, 757.2324
655.2332, 756.1625
655.7153, 755.0392
656.1974, 754.1396
656.6796, 753.6120
657.1617, 753.2028
657.6438, 752.4767
658.1259, 751.2553
658.6080, 750.4548
659.0901, 750.3242
659.5723, 750.2857
660.0544, 750.1375
660.5365, 749.9706
661.0186, 750.0416
661.5007, 750.3775
661.9828, 750.4805
662.4650, 749.6537
662.9471, 748.1601
663.4292, 747.1312
663.9113, 746.6519
664.3934, 746.2000
664.8755, 745.4867
665.3577, 744.7245
665.8398, 744.3317
666.3219, 744.3791
666.8040, 744.2471
667.2861, 743.4169
667.7682, 742.7772
668.2504, 743.1796
668.7325, 744.1451
669.2146, 744.5947
669.6967, 744.1558
670.1788, 743.5471
670.6609, 743.8324
671.1431, 745.0663
671.6252, 745.6920
672.1073, 745.4640
672.5894, 745.0889
673.0715, 744.7581
673.5536, 744.4667
674.0358, 744.1873
674.5179, 743.9097
675.0000, 743.7689
675.4821, 744.0338
675.9642, 744.3111
676.4464, 744.0800
676.9285, 743.4668
677.4106, 743.0758
677.8927, 743.1754
678.3748, 743.2177
678.8569, 742.2326
679.3391, 739.8495
679.8212, 738.7204
680.3033, 740.1923
680.7854, 741.3463
681.2675, 741.3459
681.7496, 740.7483
682.2318, 740.0973
682.7139, 739.5130
683.1960, 739.0315
683.6781, 738.6608
684.1602, 738.4135
684.6423, 738.3542
685.1245, 738.4654
685.6066, 738.6130
686.0887, 738.7776
686.5708, 738.8060
687.0529, 738.2704
687.5350, 736.7584
688.0172, 737.0715
688.4993, 741.6955
688.9814, 745.0181
689.4635, 744.1500
689.9456, 741.5961
690.4277, 740.2401
690.9099, 740.6673
691.3920, 741.7546
691.8741, 742.8137
692.3562, 743.7203
692.8383, 743.9785
693.3204, 743.5481
693.8026, 743.2850
694.2847, 743.4529
694.7668, 743.9509
695.2489, 744.7256
695.7310, 745.7961
696.2131, 746.7990
696.6953, 747.7563
697.1774, 748.6000
697.6595, 749.0931
698.1416, 749.5595
698.6237, 750.5778
699.1058, 752.1174
699.5880, 753.4425
700.0701, 753.9310
700.5522, 753.6890
701.0343, 752.9542
701.5164, 751.5944
701.9985, 750.5351
702.4807, 750.1348
702.9628, 749.9459
703.4449, 749.8152
703.9270, 749.6204
704.4091, 748.5762
704.8912, 745.3220
705.3734, 742.6703
705.8555, 742.3315
706.3376, 743.0469
706.8197, 743.4274
707.3018, 743.1872
707.7839, 742.4717
708.2661, 741.3311
708.7482, 739.9406
709.2303, 738.7564
709.7124, 737.6722
710.1945, 737.3206
710.6766, 738.2173
711.1588, 739.3422
711.6409, 740.3141
712.1230, 740.9445
712.6051, 740.6194
713.0872, 738.5300
713.5693, 736.7891
714.0515, 736.8040
714.5336, 737.4926
715.0157, 737.5718
715.4978, 736.9532
715.9799, 736.0703
716.4620, 735.1669
716.9442, 734.3424
717.4263, 733.9637
717.9084, 734.2853
718.3905, 733.9284
718.8726, 732.2424
719.3547, 730.6826
719.8369, 730.0115
720.3190, 729.9293
720.8011, 730.0443
721.2832, 730.3615
721.7653, 730.5725
722.2474, 730.1546
722.7296, 729.8079
723.2117, 730.6795
723.6938, 732.3890
724.1759, 733.4434
724.6580, 733.1591
725.1401, 732.0968
725.6223, 731.0283
726.1044, 729.8810
726.5865, 729.2888
727.0686, 729.3665
727.5507, 729.8085
728.0328, 731.0773
728.5150, 732.2987
728.9971, 732.4235
729.4792, 731.3801
729.9613, 730.4083
730.4434, 729.8868
730.9255, 729.7822
731.4077, 730.3065
731.8898, 731.1962
732.3719, 731.8188
732.8540, 731.9988
733.3361, 732.0401
733.8182, 732.2976
734.3004, 732.7198
734.7825, 732.6452
735.2646, 731.6363
735.7467, 731.0837
736.2288, 732.4161
736.7109, 733.3362
737.1931, 731.4987
737.6752, 727.6932
738.1573, 725.3324
738.6394, 726.3485
739.1215, 727.8396
739.6036, 727.8688
740.0858, 727.1215
740.5679, 726.6193
741.0500, 726.5102
741.5321, 726.4813
742.0142, 726.3142
742.4963, 726.0783
742.9785, 726.0428
743.4606, 726.3925
743.9427, 726.2032
744.4248, 724.7498
744.9069, 723.5964
745.3890, 723.5987
745.8712, 724.4043
746.3533, 725.7180
746.8354, 727.8887
747.3175, 728.9028
747.7996, 726.5390
748.2817, 723.5573
748.7639, 723.0706
749.2460, 724.4813
749.7281, 725.4484
750.2102, 725.0060
750.6923, 724.0584
751.1744, 723.8846
751.6566, 724.4964
752.1387, 724.9248
752.6208, 725.5110
753.1029, 725.0653
753.5850, 722.2308
754.0671, 718.8968
754.5493, 717.0490
755.0314, 716.6622
755.5135, 716.5421
755.9956, 716.6145
756.4777, 716.6459
756.9598, 716.3280
757.4420, 715.9651
757.9241, 716.1088
758.4062, 716.7621
758.8883, 717.3672
759.3704, 717.5087
759.8525, 717.2620
760.3347, 716.6403
760.8168, 715.5107
761.2989, 715.3065
761.7810, 716.7700
762.2631, 718.2042
762.7452, 718.3240
763.2274, 717.4445
763.7095, 716.5856
764.1916, 715.7286
764.6737, 714.9716
765.1558, 714.4655
765.6379, 713.9582
766.1201, 713.1328
766.6022, 712.1778
767.0843, 711.5956
767.5664, 711.5764
768.0485, 711.5764
768.5306, 710.8043
769.0128, 709.4532
769.4949, 708.5576
769.9770, 708.1809
770.4591, 707.7734
770.9412, 707.0250
771.4233, 706.3061
771.9055, 706.0785
772.3876, 706.3687
772.8697, 707.0728
773.3518, 708.9541
773.8339, 710.2758
774.3160, 710.6521
774.7982, 710.1934
775.2803, 708.5242
775.7624, 706.0367
776.2445, 704.1076
776.7266, 703.5850
777.2087, 703.8821
777.6909, 704.5588
778.1730, 705.4149
778.6551, 705.6425
779.1372, 705.1053
779.6193, 704.1900
780.1014, 703.0797
780.5836, 701.8689
781.0657, 700.7855
781.5478, 699.4564
782.0299, 699.1008
782.5120, 700.8527
782.9941, 702.2839
783.4763, 702.2814
783.9584, 701.5107
784.4405, 700.9163
784.9226, 700.6777
785.4047, 700.3322
785.8868, 699.5264
786.3690, 698.5466
786.8511, 697.6257
787.3332, 696.8065
787.8153, 696.0904
788.2974, 695.4974
788.7795, 695.3625
789.2617, 696.1799
789.7438, 697.6583
790.2259, 697.7903
790.7080, 695.9822
791.1901, 694.6193
791.6722, 694.2527
792.1544, 694.2596
792.6365, 694.2939
793.1186, 694.3401
793.6007, 694.4052
794.0828, 694.7181
794.5649, 694.5342
795.0471, 692.6735
795.5292, 690.9412
796.0113, 691.7154
796.4934, 693.8923
796.9755, 694.2906
797.4576, 691.6895
797.9398, 688.6036
798.4219, 688.5999
798.9040, 690.9642
799.3861, 691.5161
799.8682, 690.1134
800.3503, 688.2086
800.8325, 685.9025
801.3146, 684.1263
801.7967, 684.1768
802.2788, 686.1114
802.7609, 687.3571
803.2430, 687.8588
803.7252, 687.8146
804.2073, 686.8864
804.6894, 685.7289
805.1715, 684.5917
805.6536, 683.6847
806.1357, 683.3884
806.6179, 683.8757
807.1000, 684.9583
807.5821, 687.0331
808.0642, 689.3819
808.5463, 690.5546
809.0284, 690.4907
809.5106, 689.5626
809.9927, 687.8555
810.4748, 686.1520
810.9569, 685.8307
811.4390, 687.0723
811.9211, 687.3375
812.4033, 686.1060
812.8854, 684.8793
813.3675, 684.1584
813.8496, 683.5628
814.3317, 682.8225
814.8138, 681.9236
815.2960, 680.8815
815.7781, 679.6127
816.2602, 678.3002
816.7423, 676.5165
817.2244, 675.0724
817.7065, 675.3647
818.1887, 676.9099
818.6708, 677.7521
819.1529, 676.8416
819.6350, 675.3074
820.1171, 674.7637
820.5992, 675.0595
821.0814, 675.2076
821.5635, 675.1465
822.0456, 675.1686
822.5277, 675.5150
823.0098, 675.7623
823.4919, 675.3040
823.9741, 674.0896
824.4562, 672.6276
824.9383, 669.8558
825.4204, 668.2291
825.9025, 669.2451
826.3846, 670.6838
826.8668, 670.3596
827.3489, 668.8206
827.8310, 668.5089
828.3131, 671.0276
828.7952, 673.3326
829.2773, 672.7076
829.7595, 670.6657
830.2416, 669.2411
830.7237, 668.5841
831.2058, 668.2557
831.6879, 668.0513
832.1700, 668.0707
832.6522, 668.6132
833.1343, 669.6334
833.6164, 669.8156
834.0985, 668.8925
834.5806, 668.2148
835.0627, 668.4232
835.5449, 668.7169
836.0270, 667.9913
836.5091, 666.3839
836.9912, 665.8472
837.4733, 667.3778
837.9554, 668.6225
838.4376, 669.4188
838.9197, 669.5406
839.4018, 668.2505
839.8839, 666.2644
840.3660, 665.0886
840.8481, 665.2771
841.3303, 666.0620
841.8124, 667.2546
842.2945, 668.3804
842.7766, 668.2883
843.2587, 667.3000
843.7408, 667.0392
844.2230, 668.0391
844.7051, 669.4949
845.1872, 670.5419
845.6693, 671.2610
846.1514, 672.1051
846.6335, 672.9657
847.1157, 674.3854
847.5978, 676.8702
848.0799, 679.3537
848.5620, 681.7481
849.0441, 683.4575
849.5262, 682.7041
850.0084, 677.9451
850.4905, 674.8668
850.9726, 676.0947
851.4547, 677.6674
851.9368, 677.6429
852.4189, 676.3058
852.9011, 674.2286
853.3832, 671.5807
853.8653, 668.3010
854.3474, 663.7198
854.8295, 659.1232
855.3116, 656.4628
855.7938, 655.3719
856.2759, 654.9686
856.7580, 655.0289
857.2401, 654.8046
857.7222, 653.6750
858.2043, 652.3290
858.6865, 652.6588
859.1686, 655.2344
859.6507, 656.4772
860.1328, 655.8344
860.6149, 654.8914
861.0970, 654.2158
861.5792, 653.6010
862.0613, 652.7014
862.5434, 651.5191
863.0255, 650.6106
863.5076, 649.9300
863.9897, 649.6643
864.4719, 650.5469
864.9540, 651.3408
865.4361, 650.5043
865.9182, 648.5892
866.4003, 647.5220
866.8824, 648.2170
867.3646, 649.1721
867.8467, 648.9033
868.3288, 647.9647
868.8109, 647.2961
869.2930, 646.9102
869.7751, 646.6315
870.2573, 646.3959
870.7394, 646.0031
871.2215, 645.1390
871.7036, 643.9741
872.1857, 643.6722
872.6678, 644.5683
873.1500, 644.6691
873.6321, 643.1591
874.1142, 641.7308
874.5963, 641.5756
875.0784, 642.3533
875.5605, 643.1964
876.0427, 644.4147
876.5248, 644.8260
877.0069, 643.7315
877.4890, 642.5280
877.9711, 641.5290
878.4532, 640.9191
878.9354, 641.0908
879.4175, 641.9294
879.8996, 642.5677
880.3817, 642.5678
880.8638, 642.2026
881.3459, 641.5345
881.8281, 640.7410
882.3102, 640.3129
882.7923, 640.1114
883.2744, 639.1305
883.7565, 636.8439
884.2386, 634.6204
884.7208, 634.8098
885.2029, 637.0363
885.6850, 638.0107
886.1671, 637.6232
886.6492, 637.3548
887.1313, 637.7804
887.6135, 638.0628
888.0956, 637.3381
888.5777, 635.7570
889.0598, 634.2568
889.5419, 632.7133
890.0240, 631.4932
890.5062, 630.3946
890.9883, 629.8532
891.4704, 630.2682
891.9525, 631.2545
892.4346, 632.4073
892.9167, 633.6934
893.3989, 634.5496
893.8810, 634.7241
894.3631, 634.4824
894.8452, 633.8865
895.3273, 633.0271
895.8094, 631.7042
896.2916, 630.1795
896.7737, 629.4013
897.2558, 629.9512
897.7379, 630.9527
898.2200, 631.5207
898.7021, 631.6705
899.1843, 631.1431
899.6664, 630.0934
900.1485, 629.8229
900.6306, 630.8369
901.1127, 631.9324
901.5948, 631.6655
902.0770, 630.3193
902.5591, 629.8029
903.0412, 630.3391
903.5233, 630.7645
904.0054, 631.2333
904.4875, 630.8491
904.9697, 628.4080
905.4518, 625.0409
905.9339, 623.4031
906.4160, 623.9459
906.8981, 624.6141
907.3802, 625.9901
907.8624, 626.7174
908.3445, 625.8992
908.8266, 624.5896
909.3087, 623.6321
909.7908, 623.1270
910.2729, 623.0822
910.7551, 623.8682
911.2372, 624.2512
911.7193, 622.8565
912.2014, 621.1577
912.6835, 620.7971
913.1656, 621.4612
913.6478, 622.3210
914.1299, 623.0268
914.6120, 623.2314
915.0941, 622.4178
915.5762, 621.0753
916.0583, 620.0743
916.5404, 619.4351
917.0225, 619.4730
917.5046, 620.2200
917.9868, 620.7009
918.4689, 620.2589
918.9510, 619.4014
919.4331, 619.1132
919.9152, 619.4264
920.3973, 620.1347
920.8795, 621.6165
921.3616, 622.3138
921.8437, 621.2779
922.3258, 619.9682
922.8079, 620.0504
923.2900, 621.2072
923.7722, 621.1193
924.2543, 618.1980
924.7364, 616.6134
925.2185, 617.6202
925.7006, 618.7964
926.1827, 619.2838
926.6649, 619.0802
927.1470, 617.9999
927.6291, 616.1027
928.1112, 614.6182
928.5933, 613.7791
929.0754, 613.7723
929.5576, 615.6807
930.0397, 617.8105
930.5218, 617.9020
931.0039, 616.3739
931.4860, 615.1296
931.9681, 614.9799
932.4503, 615.1575
932.9324, 614.8401
933.4145, 614.3496
933.8966, 614.4330
934.3787, 614.9141
934.8608, 615.0756
935.3430, 614.7569
935.8251, 614.2060
936.3072, 613.5902
936.7893, 612.9528
937.2714, 612.2549
937.7535, 611.4834
938.2357, 611.8085
938.7178, 613.6388
939.1999, 614.3597
939.6820, 612.4197
940.1641, 610.2975
940.6462, 611.2950
941.1284, 615.0397
941.6105, 616.0984
942.0926, 612.5751
942.5747, 610.0978
943.0568, 609.7492
943.5389, 609.7991
944.0211, 609.6975
944.5032, 609.3083
944.9853, 608.1875
945.4674, 606.1909
945.9495, 605.0254
946.4316, 605.3311
946.9138, 606.0598
947.3959, 607.4100
947.8780, 608.5623
948.3601, 608.6850
948.8422, 608.0193
949.3243, 607.3113
949.8065, 606.7922
950.2886, 606.2848
950.7707, 605.5373
951.2528, 604.8841
951.7349, 604.5778
952.2170, 604.6257
952.6992, 605.1837
953.1813, 606.1362
953.6634, 606.9249
954.1455, 607.2133
954.6276, 607.1190
955.1097, 606.4923
955.5919, 605.6830
956.0740, 605.9319
956.5561, 607.0548
957.0382, 607.4120
957.5203, 606.4568
958.0024, 605.2009
958.4846, 604.5756
958.9667, 604.5876
959.4488, 605.4648
959.9309, 607.2653
960.4130, 608.5814
960.8951, 609.2966
961.3773, 609.3477
961.8594, 608.6142
962.3415, 607.3730
962.8236, 605.8850
963.3057, 604.1328
963.7878, 603.3124
964.2700, 603.8565
964.7521, 604.3955
965.2342, 605.0672
965.7163, 605.2501
966.1984, 604.1774
966.6805, 602.4828
967.1627, 601.3930
967.6448, 600.8988
968.1269, 601.0341
968.6090, 602.7297
969.0911, 603.8467
969.5732, 603.2702
970.0554, 602.3188
970.5375, 602.3832
971.0196, 602.9753
971.5017, 602.3217
971.9838, 599.5031
972.4659, 597.7602
972.9481, 599.8023
973.4302, 601.9478
973.9123, 601.2889
974.3944, 599.3984
974.8765, 598.3283
975.3586, 598.3343
975.8408, 598.8308
976.3229, 599.7258
976.8050, 600.2880
977.2871, 599.3138
977.7692, 598.0153
978.2513, 598.2171
978.7335, 599.4794
979.2156, 600.6652
979.6977, 601.3723
980.1798, 601.3421
980.6619, 600.1617
981.1440, 598.7286
981.6262, 598.8149
982.1083, 599.8679
982.5904, 599.7594
983.0725, 598.5535
983.5546, 598.2799
984.0367, 599.7054
984.5189, 601.4021
985.0010, 601.8045
985.4831, 601.2714
985.9652, 601.2450
986.4473, 601.7396
986.9294, 601.0643
987.4116, 598.8207
987.8937, 597.0882
988.3758, 596.9580
988.8579, 597.5745
989.3400, 597.7090
989.8221, 597.4138
990.3043, 597.9630
990.7864, 599.8939
991.2685, 600.8104
991.7506, 599.7897
992.2327, 598.9202
992.7148, 599.6859
993.1970, 601.0898
993.6791, 601.2064
994.1612, 599.7103
994.6433, 599.4216
995.1254, 601.0953
995.6075, 602.8287
996.0897, 604.8414
996.5718, 606.3337
997.0539, 606.7227
997.5360, 606.2740
998.0181, 605.2818
998.5002, 603.5000
998.9824, 602.7753
999.4645, 604.2559
999.9466, 605.6827
1000.429, 606.6570
1000.911, 606.9791
1001.393, 606.3918
1001.875, 605.0508
1002.357, 603.0615
1002.839, 600.1635
1003.321, 598.4680
1003.804, 599.8493
1004.286, 601.4524
1004.768, 601.5953
1005.250, 600.9990
1005.732, 600.5046
1006.214, 600.1277
1006.696, 599.3502
1007.178, 597.8494
1007.660, 596.9398
1008.143, 598.2423
1008.625, 599.8649
1009.107, 599.6567
1009.589, 598.6410
1010.071, 598.6994
1010.553, 599.8636
1011.035, 600.8210
1011.517, 600.8398
1012.000, 600.8337
1012.482, 602.3378
1012.964, 603.9933
1013.446, 602.8657
1013.928, 600.2780
1014.410, 600.0470
1014.892, 602.6044
1015.374, 605.2852
1015.856, 606.4505
1016.339, 606.6423
1016.821, 606.2658
1017.303, 605.6168
1017.785, 605.5311
1018.267, 605.9434
1018.749, 606.4217
1019.231, 606.8516
1019.713, 607.3292
1020.195, 607.9643
1020.678, 608.4833
1021.160, 607.9845
1021.642, 606.7957
1022.124, 607.3972
1022.606, 609.7487
1023.088, 611.2527
1023.570, 611.1283
1024.052, 610.7817
1024.535, 611.3568
1025.017, 612.5338
1025.499, 613.6154
1025.981, 614.5998
1026.463, 615.0750
1026.945, 614.8682
1027.427, 615.8747
1027.909, 618.9768
1028.391, 621.9268
1028.874, 622.5568
1029.356, 621.8409
1029.838, 622.8685
1030.320, 625.9424
1030.802, 629.1781
1031.284, 632.8284
1031.766, 635.6806
1032.248, 637.2557
1032.731, 638.1046
1033.213, 638.3983
1033.695, 638.5770
1034.177, 640.4023
1034.659, 644.6495
1035.141, 647.7753
1035.623, 648.9834
1036.105, 650.8140
1036.588, 654.1627
1037.070, 658.2540
1037.552, 662.5400
1038.034, 667.0007
1038.516, 671.5626
1038.998, 676.4418
1039.480, 680.8324
1039.962, 684.0329
1040.444, 687.8912
1040.927, 693.1785
1041.409, 699.0591
1041.891, 704.4609
1042.373, 709.8341
1042.855, 716.7750
1043.337, 725.6482
1043.819, 735.3063
1044.301, 745.5630
1044.783, 756.8936
1045.266, 769.6614
1045.748, 783.3093
1046.230, 797.3362
1046.712, 811.8594
1047.194, 827.1613
1047.676, 842.9541
1048.158, 860.3561
1048.640, 880.5071
1049.123, 900.7960
1049.605, 920.0872
1050.087, 939.5614
1050.569, 959.7916
1051.051, 981.0815
1051.533, 1004.266
1052.015, 1029.404
1052.497, 1056.623
1052.979, 1086.078
1053.462, 1117.330
1053.944, 1149.645
1054.426, 1184.070
1054.908, 1221.293
1055.390, 1261.081
1055.872, 1302.879
1056.354, 1346.664
1056.836, 1391.679
1057.318, 1439.830
1057.801, 1486.253
1058.283, 1528.886
1058.765, 1569.011
1059.247, 1611.365
1059.729, 1651.364
1060.211, 1679.488
1060.693, 1693.691
1061.175, 1697.577
1061.658, 1694.399
1062.140, 1678.411
1062.622, 1644.124
1063.104, 1598.760
1063.586, 1545.557
1064.068, 1486.816
1064.550, 1424.930
1065.032, 1360.081
1065.515, 1297.217
1065.997, 1237.652
1066.479, 1181.085
1066.961, 1126.615
1067.443, 1076.121
1067.925, 1031.510
1068.407, 991.9639
1068.889, 955.8256
1069.371, 922.8186
1069.854, 892.5217
1070.336, 864.9000
1070.818, 840.0245
1071.300, 817.7947
1071.782, 798.3326
1072.264, 782.5045
1072.746, 769.0062
1073.228, 755.7473
1073.710, 742.4579
1074.193, 729.6412
1074.675, 717.0964
1075.157, 705.8734
1075.639, 696.6666
1076.121, 688.7014
1076.603, 681.8470
1077.085, 675.6213
1077.567, 669.3958
1078.050, 663.1281
1078.532, 657.3106
1079.014, 652.2017
1079.496, 647.3649
1079.978, 642.1509
1080.460, 637.5706
1080.942, 635.0345
1081.424, 633.1619
1081.906, 629.7875
1082.389, 625.2267
1082.871, 621.7781
1083.353, 620.5663
1083.835, 619.2522
1084.317, 616.6396
1084.799, 613.7247
1085.281, 610.4634
1085.763, 607.7136
1086.245, 607.3485
1086.728, 608.2477
1087.210, 606.5500
1087.692, 600.6836
1088.174, 595.8536
1088.656, 594.9776
1089.138, 594.9392
1089.620, 594.8939
1090.102, 594.1304
1090.584, 591.2559
1091.067, 587.3391
1091.549, 584.9267
1092.031, 584.6051
1092.513, 584.4766
1092.995, 584.2041
1093.477, 583.4506
1093.959, 581.4544
1094.441, 579.4939
1094.924, 578.5789
1095.406, 578.4636
1095.888, 578.9266
1096.370, 579.8196
1096.852, 579.7612
1097.334, 577.7397
1097.816, 575.5133
1098.298, 573.4704
1098.781, 571.6515
1099.263, 569.9182
1099.745, 568.5291
1100.227, 568.0175
1100.709, 568.2688
1101.191, 568.2208
1101.673, 566.9853
1102.155, 566.7690
1102.637, 569.9848
1103.120, 572.2250
1103.602, 570.0803
1104.084, 566.6851
1104.566, 565.4427
1105.048, 565.9837
1105.530, 565.9742
1106.012, 564.9205
1106.494, 563.7327
1106.976, 562.0501
1107.459, 560.9397
1107.941, 561.4089
1108.423, 562.0217
1108.905, 561.6057
1109.387, 560.4577
1109.869, 559.2529
1110.351, 557.9819
1110.833, 557.1525
1111.316, 556.7825
1111.798, 556.9127
1112.280, 558.1319
1112.762, 559.2419
1113.244, 559.4141
1113.726, 559.1017
1114.208, 559.1049
1114.690, 559.4492
1115.172, 559.1290
1115.655, 557.5656
1116.137, 556.2276
1116.619, 554.8332
1117.101, 554.1343
1117.583, 555.2549
1118.065, 556.4476
1118.547, 555.4980
1119.029, 552.9327
1119.511, 551.6364
1119.994, 552.1725
1120.476, 552.5154
1120.958, 552.2405
1121.440, 552.6842
1121.922, 555.0804
1122.404, 556.9351
1122.886, 555.9924
1123.368, 553.3519
1123.851, 551.7758
1124.333, 551.4695
1124.815, 550.4274
1125.297, 548.1472
1125.779, 546.7565
1126.261, 546.7645
1126.743, 547.4281
1127.225, 548.5561
1127.708, 549.6396
1128.190, 549.8826
1128.672, 549.3692
1129.154, 548.8942
1129.636, 548.3853
1130.118, 548.6213
1130.600, 549.8971
1131.082, 550.4086
1131.564, 549.3055
1132.047, 547.8818
1132.529, 547.3780
1133.011, 547.6360
1133.493, 548.5070
1133.975, 549.9408
1134.457, 549.8303
1134.939, 548.1360
1135.421, 546.9774
1135.903, 546.8965
1136.386, 547.2009
1136.868, 547.4416
1137.350, 547.6877
1137.832, 548.2167
1138.314, 548.8078
1138.796, 548.2890
1139.278, 546.9611
1139.760, 546.5665
1140.243, 547.1980
1140.725, 547.4679
1141.207, 546.7820
1141.689, 545.8127
1142.171, 545.1395
1142.653, 544.7640
1143.135, 544.8347
1143.617, 545.1489
1144.099, 545.2574
1144.582, 545.1624
1145.064, 545.1111
1145.546, 545.0862
1146.028, 544.4659
1146.510, 542.6879
1146.992, 541.0901
1147.474, 541.4540
1147.956, 542.5081
1148.438, 542.6544
1148.921, 542.2831
1149.403, 542.1734
1149.885, 542.3279
1150.367, 542.2570
1150.849, 541.7820
1151.331, 541.4703
1151.813, 541.8052
1152.295, 542.2971
1152.778, 542.9014
1153.260, 543.2229
1153.742, 542.4614
1154.224, 541.3098
1154.706, 541.1616
1155.188, 542.0960
1155.670, 542.7452
1156.152, 542.5042
1156.635, 542.2032
1157.117, 542.1558
1157.599, 542.1085
1158.081, 541.7191
1158.563, 541.4205
1159.045, 542.0966
1159.527, 543.2063
1160.009, 542.9323
1160.491, 540.6868
1160.974, 538.8499
1161.456, 537.5522
1161.938, 536.8426
1162.420, 536.9597
1162.902, 537.4124
1163.384, 538.1356
1163.866, 538.8969
1164.348, 539.4099
1164.830, 539.6713
1165.313, 539.5414
1165.795, 538.5009
1166.277, 538.5638
1166.759, 540.5081
1167.241, 541.7342
1167.723, 541.1762
1168.205, 540.1730
1168.687, 539.9153
1169.170, 539.9302
1169.652, 538.8192
1170.134, 536.5448
1170.616, 536.3524
1171.098, 538.4601
1171.580, 539.2474
1172.062, 538.0255
1172.544, 536.7201
1173.026, 536.2653
1173.509, 536.4959
1173.991, 537.4003
1174.473, 538.5232
1174.955, 538.5201
1175.437, 537.6418
1175.919, 536.7333
1176.401, 535.9788
1176.883, 536.0823
1177.365, 537.0878
1177.848, 537.9133
1178.330, 537.8557
1178.812, 537.4869
1179.294, 537.4820
1179.776, 537.5828
1180.258, 537.4190
1180.740, 537.0714
1181.222, 536.4654
1181.705, 535.8566
1182.187, 535.9245
1182.669, 536.8371
1183.151, 538.0153
1183.633, 539.6163
1184.115, 540.4852
1184.597, 539.2695
1185.079, 537.5974
1185.562, 536.5915
1186.044, 536.1453
1186.526, 536.1600
1187.008, 536.4731
1187.490, 536.6364
1187.972, 536.4845
1188.454, 536.4827
1188.936, 536.9798
1189.418, 537.3105
1189.901, 537.5204
1190.383, 537.2371
1190.865, 535.5308
1191.347, 533.5793
1191.829, 533.3622
1192.311, 534.7491
1192.793, 535.5833
1193.275, 535.9595
1193.757, 535.4490
1194.240, 533.4349
1194.722, 532.0926
1195.204, 532.2323
1195.686, 532.8315
1196.168, 533.1854
1196.650, 533.3231
1197.132, 533.2205
1197.614, 532.9263
1198.097, 533.3320
1198.579, 534.4189
1199.061, 534.5041
1199.543, 533.4080
1200.025, 532.6282
1200.507, 532.7499
1200.989, 532.9507
1201.471, 532.4155
1201.953, 531.8093
1202.436, 532.6827
1202.918, 534.1754
1203.400, 534.2947
1203.882, 533.3652
1204.364, 532.1517
1204.846, 531.0164
1205.328, 530.7341
1205.810, 531.5887
1206.292, 532.2462
1206.775, 531.2719
1207.257, 530.2699
1207.739, 530.9560
1208.221, 531.8486
1208.703, 531.3180
1209.185, 530.0837
1209.667, 529.3747
1210.149, 529.2477
1210.632, 529.0825
1211.114, 528.7277
1211.596, 528.3269
1212.078, 527.7184
1212.560, 527.3485
1213.042, 527.4010
1213.524, 527.6996
1214.006, 528.2053
1214.489, 528.8343
1214.971, 529.5429
1215.453, 530.3010
1215.935, 530.8029
1216.417, 531.2599
1216.899, 530.5931
1217.381, 528.2643
1217.863, 526.6757
1218.345, 526.6153
1218.828, 526.8494
1219.310, 526.4609
1219.792, 526.1130
1220.274, 527.2415
1220.756, 529.2153
1221.238, 528.6633
1221.720, 526.1329
1222.202, 524.6870
1222.684, 524.4901
1223.167, 524.2865
1223.649, 523.7510
1224.131, 523.7886
1224.613, 525.1519
1225.095, 526.5306
1225.577, 526.1241
1226.059, 525.2243
1226.541, 525.4476
1227.024, 526.2176
1227.506, 527.1617
1227.988, 527.6756
1228.470, 526.0588
1228.952, 522.2388
1229.434, 519.9810
1229.916, 521.6837
1230.398, 523.4551
1230.880, 523.7117
1231.363, 523.9796
1231.845, 525.8319
1232.327, 527.3212
1232.809, 525.6312
1233.291, 522.4515
1233.773, 522.2112
1234.255, 525.2407
1234.737, 526.6745
1235.219, 526.0093
1235.702, 525.1456
1236.184, 524.0179
1236.666, 523.6024
1237.148, 524.4243
1237.630, 525.4095
1238.112, 525.6713
1238.594, 525.3909
1239.076, 524.7354
1239.559, 523.8749
1240.041, 523.8754
1240.523, 524.5353
1241.005, 524.8917
1241.487, 524.8774
1241.969, 525.1057
1242.451, 525.6760
1242.933, 525.3788
1243.416, 522.9938
1243.898, 520.6786
1244.380, 520.9783
1244.862, 522.0565
1245.344, 522.0787
1245.826, 521.6542
1246.308, 521.7729
1246.790, 522.2142
1247.272, 522.1320
1247.755, 521.3853
1248.237, 520.7997
1248.719, 520.7212
1249.201, 520.6397
1249.683, 520.3157
1250.165, 520.1814
1250.647, 520.7007
1251.129, 521.0993
1251.611, 520.6537
1252.094, 519.7791
1252.576, 519.2664
1253.058, 519.1161
1253.540, 519.5214
1254.022, 520.5797
1254.504, 521.1265
1254.986, 521.0461
1255.468, 520.5298
1255.951, 519.6410
1256.433, 518.9314
1256.915, 518.8148
1257.397, 518.9730
1257.879, 518.9776
1258.361, 518.9185
1258.843, 518.7625
1259.325, 518.7825
1259.807, 519.9756
1260.290, 521.6730
1260.772, 521.8618
1261.254, 520.4236
1261.736, 519.5731
1262.218, 520.4802
1262.700, 521.2523
1263.182, 520.9683
1263.664, 520.3893
1264.146, 519.6655
1264.629, 519.0047
1265.111, 518.4351
1265.593, 518.0992
1266.075, 518.2567
1266.557, 518.8558
1267.039, 519.5406
1267.521, 520.5167
1268.003, 520.7611
1268.486, 519.9666
1268.968, 519.9838
1269.450, 521.4000
1269.932, 522.1560
1270.414, 521.0374
1270.896, 519.7812
1271.378, 520.5504
1271.860, 522.3238
1272.343, 522.9205
1272.825, 522.6810
1273.307, 522.1824
1273.789, 521.6739
1274.271, 521.7482
1274.753, 522.3334
1275.235, 522.9404
1275.717, 523.3793
1276.199, 523.3088
1276.682, 522.1404
1277.164, 521.0165
1277.646, 520.2793
1278.128, 520.0143
1278.610, 520.7319
1279.092, 521.5660
1279.574, 521.4587
1280.056, 520.7914
1280.538, 520.6935
1281.021, 521.1979
1281.503, 521.5012
1281.985, 521.6083
1282.467, 521.5057
1282.949, 521.1389
1283.431, 520.6725
1283.913, 520.1160
1284.395, 519.7164
1284.878, 519.6285
1285.360, 519.8717
1285.842, 520.9494
1286.324, 521.9488
1286.806, 521.3970
1287.288, 519.4379
##END=



