##NAMES=Tsaregorodtsevite
##RRUFFID=R060033
##IDEAL CHEMISTRY=N(CH_3_)_4_Si_4_(SiAl)O_12_
##LOCALITY=Yaruta, Man-Hambo Mountain Range, North Urals, Russia
##OWNER=RRUFF
##SOURCE=University of Arizona Mineral Museum
##DESCRIPTION=Tan colored pseudo cubo-dodecahedra
##STATUS=The identification of this mineral has been confirmed by X-ray diffraction and chemical analysis
##URL=rruff.info/R060033
##MEASURED CHEMISTRY=N(CH_3_)_4_Si_4.00_(Si_1.00_Al_1.00_)_Î£=2_O_12_
139.2890, 236.0039
139.7711, 236.3011
140.2532, 235.9574
140.7353, 235.1190
141.2175, 234.5307
141.6996, 234.3101
142.1817, 234.3152
142.6638, 234.5029
143.1459, 234.9441
143.6280, 235.2245
144.1102, 234.8191
144.5923, 234.0579
145.0744, 233.4816
145.5565, 233.3589
146.0386, 233.5804
146.5207, 233.8376
147.0029, 234.1693
147.4850, 234.4754
147.9671, 234.6847
148.4492, 234.8326
148.9313, 235.0011
149.4134, 235.2968
149.8955, 235.7285
150.3777, 235.9518
150.8598, 235.9278
151.3419, 235.6982
151.8240, 235.0283
152.3061, 234.0784
152.7882, 233.3234
153.2704, 233.3479
153.7525, 234.5670
154.2346, 235.1024
154.7167, 234.4836
155.1988, 233.7079
155.6809, 233.4165
156.1631, 233.6760
156.6452, 234.0603
157.1273, 233.9830
157.6094, 233.1799
158.0915, 232.4008
158.5736, 231.4866
159.0558, 230.6721
159.5379, 230.2625
160.0200, 230.3581
160.5021, 230.6573
160.9842, 230.6387
161.4663, 230.2788
161.9485, 229.7750
162.4306, 229.0814
162.9127, 228.2780
163.3948, 227.5053
163.8769, 226.8091
164.3590, 226.1658
164.8412, 225.5095
165.3233, 224.8026
165.8054, 224.2184
166.2875, 224.0882
166.7696, 224.3025
167.2517, 224.0086
167.7339, 222.5557
168.2160, 220.7495
168.6981, 219.4643
169.1802, 218.8306
169.6623, 218.3672
170.1444, 217.6112
170.6266, 216.5288
171.1087, 215.3710
171.5908, 214.0920
172.0729, 212.8314
172.5550, 211.6738
173.0371, 210.6447
173.5193, 209.7337
174.0014, 208.9772
174.4835, 208.6210
174.9656, 207.8611
175.4477, 206.2908
175.9298, 204.4746
176.4120, 202.8850
176.8941, 201.7196
177.3762, 200.8601
177.8583, 199.9888
178.3404, 199.0353
178.8225, 198.1703
179.3047, 197.5697
179.7868, 197.0088
180.2689, 196.1779
180.7510, 194.9123
181.2331, 193.3377
181.7152, 192.0501
182.1974, 191.2360
182.6795, 190.4862
183.1616, 189.7373
183.6437, 189.0057
184.1258, 188.3376
184.6079, 187.7710
185.0900, 187.2769
185.5722, 186.6814
186.0543, 185.9330
186.5364, 185.1626
187.0185, 184.4821
187.5006, 183.8374
187.9827, 183.0069
188.4649, 181.7711
188.9470, 180.2725
189.4291, 179.1622
189.9112, 178.6370
190.3933, 178.2932
190.8754, 178.0512
191.3576, 177.8815
191.8397, 177.3616
192.3218, 175.9441
192.8039, 174.0631
193.2860, 172.7117
193.7681, 172.2354
194.2503, 172.1109
194.7324, 171.8579
195.2145, 171.4785
195.6966, 170.9534
196.1787, 169.9538
196.6608, 168.8770
197.1430, 168.2742
197.6251, 168.5606
198.1072, 169.1495
198.5893, 169.0174
199.0714, 167.9309
199.5535, 166.7036
200.0357, 165.3936
200.5178, 164.2302
200.9999, 163.5586
201.4820, 163.6515
201.9641, 164.1871
202.4462, 164.2544
202.9284, 163.6027
203.4105, 162.8619
203.8926, 162.1154
204.3747, 161.4278
204.8568, 160.9065
205.3389, 160.6431
205.8211, 160.5490
206.3032, 160.2147
206.7853, 159.2834
207.2674, 158.5457
207.7495, 158.2380
208.2316, 158.1913
208.7138, 158.2112
209.1959, 158.2059
209.6780, 158.1336
210.1601, 157.6818
210.6422, 156.2096
211.1243, 155.0193
211.6065, 154.4987
212.0886, 154.3951
212.5707, 154.2532
213.0528, 153.7644
213.5349, 152.9972
214.0170, 152.6514
214.4992, 153.1515
214.9813, 153.5708
215.4634, 153.7258
215.9455, 153.6177
216.4276, 153.2445
216.9097, 152.5627
217.3919, 151.6286
217.8740, 150.9988
218.3561, 150.8499
218.8382, 150.7469
219.3203, 150.4957
219.8024, 150.1525
220.2845, 149.9288
220.7667, 150.0173
221.2488, 150.3002
221.7309, 150.1596
222.2130, 149.0973
222.6951, 148.1420
223.1772, 148.0524
223.6594, 148.6204
224.1415, 148.7896
224.6236, 147.7380
225.1057, 145.9348
225.5878, 145.0082
226.0699, 145.5117
226.5521, 146.2373
227.0342, 146.3505
227.5163, 145.9070
227.9984, 145.5040
228.4805, 145.5183
228.9626, 145.7250
229.4448, 145.6800
229.9269, 145.2764
230.4090, 144.7408
230.8911, 144.1659
231.3732, 143.5521
231.8553, 143.1613
232.3375, 143.2751
232.8196, 143.6035
233.3017, 143.8014
233.7838, 143.8140
234.2659, 143.7136
234.7480, 143.5176
235.2302, 143.2054
235.7123, 143.0027
236.1944, 143.0741
236.6765, 143.2548
237.1586, 143.4523
237.6407, 143.6667
238.1229, 143.7926
238.6050, 143.6132
239.0871, 143.0314
239.5692, 142.6700
240.0513, 142.9274
240.5334, 143.3372
241.0156, 143.6022
241.4977, 143.6528
241.9798, 143.6086
242.4619, 143.6559
242.9440, 143.8668
243.4261, 143.8852
243.9083, 143.4368
244.3904, 142.9230
244.8725, 142.5613
245.3546, 142.4026
245.8367, 142.4102
246.3188, 142.6154
246.8010, 143.1876
247.2831, 143.4140
247.7652, 142.9541
248.2473, 142.3674
248.7294, 142.0161
249.2115, 141.9393
249.6937, 141.8979
250.1758, 141.5666
250.6579, 140.8218
251.1400, 140.1044
251.6221, 139.3472
252.1042, 138.6624
252.5864, 138.1696
253.0685, 137.8484
253.5506, 137.5571
254.0327, 137.1200
254.5148, 136.4962
254.9969, 135.8530
255.4790, 135.3117
255.9612, 134.6554
256.4433, 133.6268
256.9254, 132.3043
257.4075, 131.0579
257.8896, 130.3159
258.3718, 130.2178
258.8539, 130.0243
259.3360, 129.6151
259.8181, 129.2361
260.3002, 129.1557
260.7823, 129.2775
261.2645, 129.1885
261.7466, 128.4420
262.2287, 126.8848
262.7108, 125.8355
263.1929, 125.4889
263.6750, 125.3446
264.1572, 125.2630
264.6393, 125.1920
265.1214, 125.0690
265.6035, 124.8408
266.0856, 124.5051
266.5677, 124.1361
267.0499, 123.6753
267.5320, 123.2427
268.0141, 122.8129
268.4962, 122.4399
268.9783, 122.3039
269.4604, 122.5933
269.9426, 123.2382
270.4247, 123.3294
270.9068, 122.4535
271.3889, 121.5899
271.8710, 121.1897
272.3531, 121.0923
272.8352, 120.8103
273.3174, 119.9872
273.7995, 118.8433
274.2816, 118.4960
274.7637, 119.6638
275.2458, 120.6240
275.7279, 120.8242
276.2101, 120.4458
276.6922, 119.8064
277.1743, 118.9890
277.6564, 118.1154
278.1385, 117.5405
278.6206, 117.2955
279.1028, 117.1966
279.5849, 117.2891
280.0670, 117.4818
280.5491, 117.6198
281.0312, 117.6494
281.5133, 117.5951
281.9955, 117.4991
282.4776, 117.3811
282.9597, 117.1827
283.4418, 116.8254
283.9239, 116.3922
284.4060, 115.9959
284.8882, 115.6561
285.3703, 115.3975
285.8524, 115.2843
286.3345, 115.3206
286.8166, 115.3690
287.2987, 115.4252
287.7809, 115.4688
288.2630, 115.4666
288.7451, 115.4102
289.2272, 115.3331
289.7093, 115.2393
290.1914, 115.1344
290.6736, 115.1476
291.1557, 115.3856
291.6378, 115.7052
292.1199, 115.9932
292.6020, 116.2414
293.0841, 116.3730
293.5663, 116.2947
294.0484, 116.0304
294.5305, 115.7366
295.0126, 115.2553
295.4947, 114.8692
295.9768, 114.9330
296.4590, 115.4322
296.9411, 115.8515
297.4232, 115.7381
297.9053, 115.3379
298.3874, 115.4166
298.8695, 116.4560
299.3517, 117.4663
299.8338, 117.6300
300.3159, 117.0588
300.7980, 116.5049
301.2801, 116.3023
301.7622, 116.3386
302.2444, 116.3601
302.7265, 116.3836
303.2086, 116.3564
303.6907, 116.1243
304.1728, 115.7874
304.6549, 115.7383
305.1371, 116.1774
305.6192, 116.8605
306.1013, 117.4755
306.5834, 118.0476
307.0655, 118.4305
307.5476, 118.4841
308.0298, 118.3074
308.5119, 118.0924
308.9940, 117.8320
309.4761, 117.6564
309.9582, 117.7944
310.4403, 118.1973
310.9225, 118.5257
311.4046, 118.5141
311.8867, 118.4151
312.3688, 118.7181
312.8509, 119.5550
313.3330, 120.3411
313.8152, 120.5100
314.2973, 120.2050
314.7794, 119.8454
315.2615, 119.2320
315.7436, 118.7646
316.2257, 119.0813
316.7079, 120.2267
317.1900, 121.1655
317.6721, 120.9938
318.1542, 120.2317
318.6363, 120.1870
319.1184, 121.4452
319.6006, 122.8377
320.0827, 123.3824
320.5648, 123.1918
321.0469, 123.1134
321.5290, 123.5422
322.0111, 124.2644
322.4933, 124.8656
322.9754, 125.3332
323.4575, 125.7252
323.9396, 126.0338
324.4217, 126.2862
324.9038, 126.5851
325.3860, 127.0033
325.8681, 127.3939
326.3502, 127.4652
326.8323, 127.2079
327.3144, 127.1563
327.7965, 127.5315
328.2787, 128.2238
328.7608, 129.1888
329.2429, 130.5136
329.7250, 131.6288
330.2071, 131.6878
330.6892, 130.9072
331.1714, 130.5657
331.6535, 131.1523
332.1356, 132.1357
332.6177, 133.0830
333.0998, 133.9683
333.5819, 134.6179
334.0641, 134.9189
334.5462, 134.8535
335.0283, 134.5208
335.5104, 133.6118
335.9925, 132.7393
336.4746, 132.3444
336.9568, 132.3502
337.4389, 132.4437
337.9210, 132.5511
338.4031, 132.5874
338.8852, 132.3783
339.3673, 131.9235
339.8495, 131.2843
340.3316, 130.3372
340.8137, 129.2422
341.2958, 128.3107
341.7779, 127.6415
342.2600, 127.1456
342.7421, 126.7150
343.2242, 126.3456
343.7064, 126.0358
344.1885, 125.8601
344.6706, 125.7068
345.1527, 125.3112
345.6348, 124.6417
346.1169, 124.2438
346.5991, 124.7223
347.0812, 126.1374
347.5633, 127.2092
348.0454, 127.4717
348.5275, 127.7842
349.0096, 128.6653
349.4918, 130.1052
349.9739, 131.9787
350.4560, 134.3636
350.9381, 137.0550
351.4202, 139.0452
351.9023, 139.7016
352.3845, 140.4993
352.8666, 142.0100
353.3487, 143.9558
353.8308, 145.7979
354.3129, 147.3092
354.7950, 148.7244
355.2772, 150.5166
355.7593, 152.7528
356.2414, 155.2132
356.7235, 157.8293
357.2056, 160.6897
357.6877, 163.9836
358.1699, 167.7132
358.6520, 171.4964
359.1341, 174.9066
359.6162, 177.8209
360.0983, 181.0322
360.5804, 184.1705
361.0626, 187.8928
361.5447, 192.6983
362.0268, 198.4667
362.5089, 204.7262
362.9910, 211.1584
363.4731, 217.8012
363.9553, 224.7540
364.4374, 232.0384
364.9195, 239.6747
365.4016, 248.1048
365.8837, 256.7698
366.3658, 265.1702
366.8480, 273.1169
367.3301, 280.1631
367.8122, 285.3241
368.2943, 288.3589
368.7764, 289.5448
369.2585, 289.1758
369.7407, 286.9376
370.2228, 282.1931
370.7049, 275.0858
371.1870, 266.6595
371.6691, 257.9317
372.1512, 248.8747
372.6334, 239.9781
373.1155, 231.3721
373.5976, 222.8584
374.0797, 214.2568
374.5618, 205.7145
375.0439, 197.4293
375.5261, 189.5109
376.0082, 181.9873
376.4903, 174.9500
376.9724, 168.6416
377.4545, 162.4819
377.9366, 155.8365
378.4188, 149.5032
378.9009, 144.3906
379.3830, 140.7944
379.8651, 138.0660
380.3472, 135.1948
380.8293, 131.9332
381.3115, 129.2956
381.7936, 127.9687
382.2757, 126.7994
382.7578, 125.0444
383.2399, 122.7894
383.7220, 120.7476
384.2042, 119.6400
384.6863, 119.3867
385.1684, 118.7603
385.6505, 117.2898
386.1326, 116.1197
386.6147, 115.9096
387.0969, 116.2202
387.5790, 116.3575
388.0611, 116.0192
388.5432, 115.3595
389.0253, 114.5220
389.5074, 113.3625
389.9896, 112.6544
390.4717, 113.1947
390.9538, 113.9869
391.4359, 114.1320
391.9180, 113.4820
392.4001, 112.7796
392.8823, 112.6898
393.3644, 113.1099
393.8465, 113.4044
394.3286, 113.4451
394.8107, 113.3887
395.2928, 113.2696
395.7750, 113.1386
396.2571, 113.2115
396.7392, 113.7648
397.2213, 114.4806
397.7034, 114.8540
398.1855, 114.8474
398.6677, 114.8918
399.1498, 115.3357
399.6319, 115.9615
400.1140, 116.2291
400.5961, 115.8147
401.0782, 115.5623
401.5604, 116.1897
402.0425, 117.3902
402.5246, 118.1953
403.0067, 118.1984
403.4888, 117.9815
403.9709, 118.5023
404.4531, 119.8524
404.9352, 120.9886
405.4173, 121.4750
405.8994, 121.8178
406.3815, 122.5562
406.8636, 123.7136
407.3458, 124.9303
407.8279, 125.9064
408.3100, 126.6613
408.7921, 127.5296
409.2742, 128.7502
409.7563, 129.8048
410.2385, 130.2852
410.7206, 130.4985
411.2027, 130.9622
411.6848, 131.8909
412.1669, 133.2026
412.6490, 134.7298
413.1311, 136.4212
413.6133, 138.4656
414.0954, 140.8854
414.5775, 143.6181
415.0596, 146.7799
415.5417, 150.2720
416.0238, 153.7033
416.5060, 156.6508
416.9881, 159.0757
417.4702, 162.0756
417.9523, 165.8129
418.4344, 170.0083
418.9165, 174.8407
419.3987, 180.0293
419.8808, 185.2554
420.3629, 190.3365
420.8450, 195.3634
421.3271, 200.4189
421.8092, 205.3560
422.2914, 210.6639
422.7735, 216.5646
423.2556, 222.7209
423.7377, 228.9061
424.2198, 235.1218
424.7019, 241.5906
425.1841, 248.4488
425.6662, 255.7114
426.1483, 263.4525
426.6304, 271.7595
427.1125, 280.3965
427.5946, 288.7592
428.0768, 297.4878
428.5589, 307.4691
429.0410, 319.1280
429.5231, 331.9840
430.0052, 345.5397
430.4873, 359.8003
430.9695, 374.5897
431.4516, 389.8824
431.9337, 405.7550
432.4158, 422.2711
432.8979, 439.4715
433.3800, 456.4621
433.8622, 472.9455
434.3443, 488.8857
434.8264, 504.8596
435.3085, 521.0910
435.7906, 535.4789
436.2727, 546.6901
436.7549, 554.5621
437.2370, 559.6860
437.7191, 562.6937
438.2012, 562.3184
438.6833, 557.7305
439.1654, 549.2324
439.6476, 537.0597
440.1297, 520.9792
440.6118, 502.6766
441.0939, 484.8511
441.5760, 467.4162
442.0581, 450.7585
442.5403, 434.6646
443.0224, 419.5011
443.5045, 405.4920
443.9866, 392.6973
444.4687, 381.3064
444.9508, 371.4649
445.4330, 363.1796
445.9151, 356.1387
446.3972, 351.2211
446.8793, 346.5748
447.3614, 341.6617
447.8435, 337.0015
448.3257, 333.2910
448.8078, 330.7169
449.2899, 328.7476
449.7720, 326.6830
450.2541, 324.5604
450.7362, 322.2271
451.2184, 319.1532
451.7005, 316.3672
452.1826, 314.8403
452.6647, 313.9473
453.1468, 312.1401
453.6289, 308.3033
454.1111, 303.1537
454.5932, 298.6842
455.0753, 295.0749
455.5574, 291.5004
456.0395, 288.0686
456.5216, 284.3321
457.0038, 279.6677
457.4859, 273.9445
457.9680, 268.4343
458.4501, 264.1119
458.9322, 260.7768
459.4143, 257.8705
459.8965, 255.5010
460.3786, 253.0951
460.8607, 250.2154
461.3428, 246.9507
461.8249, 243.4595
462.3070, 239.6134
462.7892, 235.7037
463.2713, 232.1117
463.7534, 228.6876
464.2355, 224.9496
464.7176, 220.7481
465.1997, 216.0393
465.6819, 210.5447
466.1640, 204.0201
466.6461, 197.8263
467.1282, 192.7455
467.6103, 187.5991
468.0924, 181.0453
468.5746, 173.3232
469.0567, 165.9093
469.5388, 159.9631
470.0209, 155.2717
470.5030, 150.1817
470.9851, 143.6920
471.4673, 138.0780
471.9494, 133.8736
472.4315, 130.5223
472.9136, 127.5733
473.3957, 124.8761
473.8778, 122.3746
474.3600, 120.0182
474.8421, 117.8198
475.3242, 115.6654
475.8063, 113.1665
476.2884, 111.1467
476.7705, 110.1794
477.2527, 109.7999
477.7348, 109.2281
478.2169, 108.0878
478.6990, 106.6900
479.1811, 105.5266
479.6632, 104.6039
480.1454, 103.8324
480.6275, 103.2898
481.1096, 102.8006
481.5917, 102.2501
482.0738, 101.6319
482.5559, 100.9156
483.0380, 99.94125
483.5201, 98.91566
484.0023, 98.18726
484.4844, 97.77383
484.9665, 97.50280
485.4486, 97.33663
485.9307, 97.22066
486.4128, 97.00027
486.8950, 96.61565
487.3771, 96.26231
487.8592, 96.14916
488.3413, 96.04853
488.8234, 95.57680
489.3055, 94.67824
489.7877, 93.71817
490.2698, 93.04710
490.7519, 92.67194
491.2340, 92.42002
491.7161, 92.41499
492.1982, 92.36699
492.6804, 92.24372
493.1625, 92.00218
493.6446, 91.51791
494.1267, 90.75791
494.6088, 89.95882
495.0909, 89.54182
495.5731, 89.65376
496.0552, 89.68117
496.5373, 89.57170
497.0194, 89.42347
497.5015, 89.27842
497.9836, 89.12436
498.4658, 88.93855
498.9479, 88.72684
499.4300, 88.44395
499.9121, 87.86679
500.3942, 86.22034
500.8763, 86.35212
501.3585, 86.38367
501.8406, 86.32040
502.3227, 85.87827
502.8048, 85.92536
503.2869, 85.77640
503.7690, 85.61938
504.2512, 85.73531
504.7333, 85.34828
505.2154, 85.60643
505.6975, 85.29204
506.1796, 85.24752
506.6617, 85.41248
507.1439, 85.60530
507.6260, 85.93873
508.1081, 86.09447
508.5902, 85.84161
509.0723, 85.44216
509.5544, 85.20251
510.0366, 85.16884
510.5187, 85.19568
511.0008, 85.16729
511.4829, 85.08355
511.9650, 84.83025
512.4471, 84.09143
512.9293, 83.55893
513.4114, 83.44630
513.8935, 83.57191
514.3756, 83.74792
514.8577, 83.91120
515.3398, 84.07099
515.8220, 84.30086
516.3041, 84.63634
516.7862, 84.63407
517.2683, 84.00414
517.7504, 83.40247
518.2325, 83.08756
518.7147, 83.00494
519.1968, 83.10526
519.6789, 83.45286
520.1610, 83.76878
520.6431, 83.68166
521.1252, 83.24141
521.6074, 82.84719
522.0895, 82.58955
522.5716, 82.41321
523.0537, 82.22422
523.5358, 82.03703
524.0179, 82.04573
524.5001, 82.53622
524.9822, 83.00933
525.4643, 83.01223
525.9464, 82.69151
526.4285, 82.52846
526.9106, 82.74545
527.3928, 83.12025
527.8749, 83.22565
528.3570, 82.85152
528.8391, 82.69770
529.3212, 83.10023
529.8033, 83.39896
530.2855, 83.16549
530.7676, 82.51740
531.2497, 81.76894
531.7318, 81.07778
532.2139, 80.52140
532.6960, 80.35356
533.1782, 80.74092
533.6603, 81.04271
534.1424, 81.16847
534.6245, 81.16521
535.1066, 80.98415
535.5887, 80.67194
536.0709, 80.40849
536.5530, 80.35066
537.0351, 80.38371
537.5172, 80.26423
537.9993, 79.98275
538.4814, 79.75672
538.9636, 79.65552
539.4457, 79.68099
539.9278, 79.87561
540.4099, 80.28587
540.8920, 80.57000
541.3741, 80.59202
541.8563, 80.47366
542.3384, 80.27842
542.8205, 80.04138
543.3026, 79.87612
543.7847, 79.86111
544.2668, 79.95839
544.7490, 80.03006
545.2311, 79.97777
545.7132, 80.04111
546.1953, 80.40284
546.6774, 80.74375
547.1595, 80.71236
547.6417, 80.39271
548.1238, 80.24717
548.6059, 80.70835
549.0880, 81.55235
549.5701, 81.82250
550.0522, 81.24312
550.5344, 80.79764
551.0165, 80.91245
551.4986, 81.19621
551.9807, 81.40502
552.4628, 81.51051
552.9449, 81.49885
553.4271, 81.26915
553.9092, 80.95267
554.3913, 80.78288
554.8734, 80.77186
555.3555, 80.80277
555.8376, 80.80026
556.3198, 80.80996
556.8019, 80.98213
557.2840, 81.43595
557.7661, 81.72885
558.2482, 81.70170
558.7303, 81.53107
559.2125, 81.30362
559.6946, 81.07059
560.1767, 80.94411
560.6588, 81.00909
561.1409, 81.22820
561.6230, 81.43841
562.1052, 81.60318
562.5873, 81.82731
563.0694, 82.19599
563.5515, 82.56004
564.0336, 82.80864
564.5157, 82.94507
564.9979, 83.03996
565.4800, 83.13146
565.9621, 83.22262
566.4442, 83.34029
566.9263, 83.49926
567.4084, 83.58456
567.8906, 83.55729
568.3727, 83.42567
568.8548, 83.14904
569.3369, 82.70689
569.8190, 82.44798
570.3011, 82.56713
570.7833, 82.87441
571.2654, 83.28087
571.7475, 83.72578
572.2296, 83.95854
572.7117, 83.81420
573.1938, 83.48624
573.6760, 83.44749
574.1581, 83.91556
574.6402, 84.28370
575.1223, 84.56293
575.6044, 84.74075
576.0865, 84.75387
576.5687, 84.66080
577.0508, 84.59480
577.5329, 84.63285
578.0150, 84.73549
578.4971, 84.80086
578.9792, 84.80345
579.4614, 84.91882
579.9435, 85.29293
580.4256, 85.66395
580.9077, 85.86449
581.3898, 85.90514
581.8719, 85.83233
582.3541, 85.46746
582.8362, 85.17440
583.3183, 85.44827
583.8004, 86.12527
584.2825, 86.57552
584.7646, 86.58406
585.2468, 86.35951
585.7289, 86.11601
586.2110, 85.80825
586.6931, 85.81548
587.1752, 86.43391
587.6573, 87.02456
588.1394, 87.35804
588.6215, 87.48634
589.1036, 87.46794
589.5858, 87.33613
590.0679, 87.20521
590.5500, 87.27526
591.0321, 87.58269
591.5142, 87.68690
591.9963, 87.44946
592.4785, 87.20855
592.9606, 87.11689
593.4427, 87.10648
593.9248, 87.09138
594.4069, 87.05629
594.8890, 86.99219
595.3712, 86.87818
595.8533, 86.73156
596.3354, 86.60435
596.8175, 86.50513
597.2996, 86.36546
597.7817, 86.12553
598.2639, 85.80521
598.7460, 85.51615
599.2281, 85.18752
599.7102, 84.97993
600.1923, 85.00480
600.6744, 85.10326
601.1566, 85.11559
601.6387, 85.04819
602.1208, 85.04724
602.6029, 85.25648
603.0850, 85.57380
603.5671, 85.55074
604.0493, 85.01020
604.5314, 84.60262
605.0135, 84.54186
605.4956, 84.60825
605.9777, 84.75213
606.4598, 84.92368
606.9420, 84.91183
607.4241, 84.44662
607.9062, 83.86045
608.3883, 83.57008
608.8704, 83.53030
609.3525, 83.51510
609.8347, 83.45830
610.3168, 83.34731
610.7989, 83.16484
611.2810, 82.90346
611.7631, 82.58498
612.2452, 82.10303
612.7274, 81.68221
613.2095, 81.44045
613.6916, 81.31346
614.1737, 81.21928
614.6558, 81.12513
615.1379, 81.00745
615.6201, 80.79207
616.1022, 80.47191
616.5843, 80.34122
617.0664, 80.43445
617.5485, 80.66116
618.0306, 81.21971
618.5128, 81.77950
618.9949, 81.88398
619.4770, 81.40297
619.9591, 80.82947
620.4412, 80.37415
620.9233, 80.02909
621.4055, 79.73620
621.8876, 79.50954
622.3697, 79.61130
622.8518, 80.31234
623.3339, 81.26344
623.8160, 81.41322
624.2982, 79.88018
624.7803, 78.97857
625.2624, 79.27055
625.7445, 79.66585
626.2266, 79.44572
626.7087, 78.77715
627.1909, 78.16483
627.6730, 77.85695
628.1551, 77.82247
628.6372, 78.19695
629.1193, 79.00847
629.6014, 79.21862
630.0836, 78.46892
630.5657, 77.43874
631.0478, 76.40996
631.5299, 75.50969
632.0120, 75.14624
632.4941, 75.72684
632.9763, 76.35046
633.4584, 76.61955
633.9405, 76.63082
634.4226, 76.42309
634.9047, 76.04987
635.3868, 75.80057
635.8690, 75.95683
636.3511, 76.42999
636.8332, 76.58775
637.3153, 76.15227
637.7974, 75.85770
638.2795, 75.97501
638.7617, 76.10022
639.2438, 75.82845
639.7259, 75.26260
640.2080, 74.93325
640.6901, 75.28621
641.1722, 75.87591
641.6544, 75.92271
642.1365, 75.49812
642.6186, 75.37806
643.1007, 75.87718
643.5828, 76.46976
644.0649, 76.54825
644.5471, 76.07712
645.0292, 75.80325
645.5113, 75.94833
645.9934, 76.03135
646.4755, 75.72128
646.9576, 75.32764
647.4398, 75.33513
647.9219, 75.78369
648.4040, 76.21038
648.8861, 76.13851
649.3682, 75.65981
649.8503, 75.36955
650.3325, 75.36053
650.8146, 75.28711
651.2967, 74.94894
651.7788, 74.57850
652.2609, 74.38937
652.7430, 74.38005
653.2252, 74.39113
653.7073, 74.39973
654.1894, 74.37337
654.6715, 74.26350
655.1536, 74.09309
655.6357, 73.92783
656.1179, 73.79012
656.6000, 73.66841
657.0821, 73.56204
657.5642, 73.48483
658.0463, 73.27477
658.5284, 72.72682
659.0106, 72.28732
659.4927, 72.03146
659.9748, 71.93247
660.4569, 72.05935
660.9390, 72.37669
661.4211, 72.55774
661.9033, 72.24665
662.3854, 71.65588
662.8675, 71.20454
663.3496, 70.89394
663.8317, 70.79161
664.3138, 70.98637
664.7960, 71.28259
665.2781, 71.39948
665.7602, 71.30086
666.2423, 71.20509
666.7244, 71.11974
667.2065, 71.03508
667.6887, 70.87402
668.1708, 70.73912
668.6529, 70.80270
669.1350, 71.09846
669.6171, 71.47498
670.0992, 71.82911
670.5814, 72.13632
671.0635, 72.13565
671.5456, 71.73292
672.0277, 71.32397
672.5098, 71.05744
672.9919, 70.85320
673.4741, 70.54265
673.9562, 70.11451
674.4383, 69.96563
674.9204, 70.45142
675.4025, 71.03700
675.8846, 71.36111
676.3668, 71.45255
676.8489, 71.41245
677.3310, 71.27668
677.8131, 71.02280
678.2952, 70.57941
678.7773, 69.92982
679.2595, 69.56254
679.7416, 69.60630
680.2237, 69.73476
680.7058, 69.89114
681.1879, 70.06241
681.6700, 70.31051
682.1522, 70.61541
682.6343, 70.69674
683.1164, 70.17217
683.5985, 69.50222
684.0806, 69.24553
684.5627, 69.34492
685.0449, 69.55934
685.5270, 69.81633
686.0091, 70.06058
686.4912, 70.22672
686.9733, 70.31593
687.4554, 70.31286
687.9376, 70.11984
688.4197, 69.95275
688.9018, 69.95210
689.3839, 69.93214
689.8660, 69.61131
690.3481, 69.02026
690.8303, 68.58921
691.3124, 68.67641
691.7945, 69.07327
692.2766, 69.44815
692.7587, 69.79738
693.2408, 70.15415
693.7230, 70.59379
694.2051, 70.79824
694.6872, 70.27360
695.1693, 68.96020
695.6514, 68.25795
696.1335, 68.45988
696.6157, 68.84425
697.0978, 69.51585
697.5799, 70.09866
698.0620, 70.07444
698.5441, 69.50722
699.0262, 69.05598
699.5084, 69.25847
699.9905, 69.82753
700.4726, 70.12633
700.9547, 70.15121
701.4368, 70.13074
701.9189, 70.12149
702.4011, 70.07495
702.8832, 69.90725
703.3653, 69.63852
703.8474, 69.49777
704.3295, 69.48760
704.8116, 69.60773
705.2938, 69.99521
705.7759, 70.42382
706.2580, 70.63123
706.7401, 70.63441
707.2222, 70.66399
707.7043, 70.89006
708.1865, 71.19774
708.6686, 71.33495
709.1507, 71.29540
709.6328, 71.15314
710.1149, 70.89764
710.5970, 70.57555
711.0792, 70.04148
711.5613, 69.47285
712.0434, 69.43058
712.5255, 70.28767
713.0076, 71.06480
713.4897, 71.44521
713.9719, 71.60696
714.4540, 71.63815
714.9361, 71.60974
715.4182, 71.65520
715.9003, 71.84814
716.3824, 72.15476
716.8646, 72.54420
717.3467, 73.03642
717.8288, 73.37594
718.3109, 73.39663
718.7930, 73.54919
719.2751, 74.20399
719.7573, 75.11579
720.2394, 75.89307
720.7215, 76.49419
721.2036, 77.03493
721.6857, 77.41952
722.1678, 77.87009
722.6500, 78.58828
723.1321, 79.53960
723.6142, 80.60966
724.0963, 81.74435
724.5784, 82.92931
725.0605, 84.15136
725.5427, 85.41176
726.0248, 86.63415
726.5069, 87.73846
726.9890, 88.98582
727.4711, 90.47933
727.9532, 92.16788
728.4354, 93.93346
728.9175, 95.76026
729.3995, 97.95666
729.8817, 100.9419
730.3638, 103.9916
730.8459, 106.7165
731.3280, 109.1235
731.8101, 111.1565
732.2922, 112.8468
732.7744, 114.4924
733.2565, 116.3648
733.7386, 118.4636
734.2207, 120.8676
734.7028, 123.8923
735.1849, 126.2048
735.6671, 127.4410
736.1492, 127.9000
736.6313, 127.6509
737.1134, 126.8388
737.5955, 126.1026
738.0776, 125.7633
738.5598, 125.2832
739.0419, 124.1659
739.5240, 122.8927
740.0061, 122.0682
740.4882, 121.7416
740.9703, 121.6817
741.4525, 121.7662
741.9346, 121.8868
742.4167, 121.5952
742.8988, 120.6981
743.3809, 120.8313
743.8630, 122.4643
744.3452, 124.6221
744.8273, 126.7955
745.3094, 129.0676
745.7915, 131.4528
746.2736, 133.6136
746.7557, 136.9859
747.2379, 142.6570
747.7200, 149.1790
748.2021, 154.9409
748.6842, 160.5788
749.1663, 167.7310
749.6484, 177.0120
750.1306, 187.6550
750.6127, 198.7837
751.0948, 210.3333
751.5769, 222.0691
752.0590, 233.9642
752.5411, 245.9818
753.0233, 258.3373
753.5054, 270.5646
753.9875, 281.6330
754.4696, 291.5150
754.9517, 303.1418
755.4338, 316.7277
755.9160, 332.2778
756.3981, 349.5381
756.8802, 368.9786
757.3623, 391.0435
757.8444, 415.8005
758.3265, 443.7177
758.8087, 475.1871
759.2908, 509.6805
759.7729, 545.9623
760.2550, 583.8948
760.7371, 626.4265
761.2192, 674.6433
761.7014, 726.2473
762.1835, 781.0573
762.6656, 837.4628
763.1477, 889.0959
763.6298, 936.4843
764.1119, 978.8390
764.5941, 1025.831
765.0762, 1058.716
765.5583, 1067.003
766.0404, 1051.173
766.5225, 1012.412
767.0046, 951.1063
767.4868, 875.2440
767.9689, 788.7617
768.4510, 695.4082
768.9331, 604.2553
769.4152, 515.7131
769.8973, 435.9257
770.3795, 366.7346
770.8616, 308.4003
771.3437, 261.0007
771.8258, 225.5575
772.3079, 195.8923
772.7900, 173.4494
773.2722, 154.8117
773.7543, 139.9166
774.2364, 127.9648
774.7185, 118.8853
775.2006, 112.2559
775.6827, 106.7426
776.1649, 101.7157
776.6470, 97.35950
777.1291, 94.03017
777.6112, 91.50772
778.0933, 89.25246
778.5754, 87.16607
779.0576, 85.31004
779.5397, 83.74776
780.0218, 82.40153
780.5039, 81.03141
780.9860, 79.53032
781.4681, 78.28620
781.9503, 77.55307
782.4324, 76.79475
782.9145, 75.70358
783.3966, 74.49085
783.8787, 73.42443
784.3608, 72.55065
784.8430, 71.83831
785.3251, 71.26577
785.8072, 70.85538
786.2893, 70.79758
786.7714, 70.88899
787.2535, 70.61423
787.7357, 69.84892
788.2178, 69.01291
788.6999, 68.55080
789.1820, 68.38273
789.6641, 68.02083
790.1462, 67.34870
790.6284, 67.05425
791.1105, 67.51492
791.5926, 68.05927
792.0747, 68.09566
792.5568, 67.73137
793.0389, 67.38998
793.5211, 67.09370
794.0032, 66.82025
794.4853, 66.55208
794.9674, 66.31807
795.4495, 66.13533
795.9316, 66.00628
796.4138, 65.95519
796.8959, 65.99316
797.3780, 66.00129
797.8601, 65.80505
798.3422, 65.46948
798.8243, 65.21777
799.3065, 65.05820
799.7886, 64.91808
800.2707, 64.76549
800.7528, 64.62348
801.2349, 64.48080
801.7170, 64.31707
802.1992, 64.50447
802.6813, 65.69817
803.1634, 66.37962
803.6455, 66.02068
804.1276, 65.35485
804.6097, 64.81864
805.0919, 64.48325
805.5740, 64.39264
806.0561, 64.65232
806.5382, 64.94963
807.0203, 64.99865
807.5024, 64.93816
807.9846, 65.01999
808.4667, 65.23266
808.9488, 65.38168
809.4309, 65.36461
809.9130, 65.25567
810.3951, 65.20213
810.8773, 65.22121
811.3594, 64.98789
811.8415, 64.29162
812.3236, 63.86727
812.8057, 64.16856
813.2878, 64.70155
813.7700, 64.86459
814.2521, 64.68169
814.7342, 64.63482
815.2163, 65.02892
815.6984, 65.27370
816.1805, 65.03980
816.6627, 64.62599
817.1448, 64.27209
817.6269, 64.03820
818.1090, 63.97654
818.5911, 64.14288
819.0732, 64.34459
819.5554, 64.28548
820.0375, 64.03889
820.5196, 63.88497
821.0017, 63.84751
821.4838, 63.86819
821.9659, 63.93298
822.4481, 63.99651
822.9302, 63.96997
823.4123, 63.82134
823.8944, 63.80158
824.3765, 64.08451
824.8586, 64.25481
825.3408, 64.22196
825.8229, 64.05073
826.3050, 63.69545
826.7871, 63.22748
827.2692, 62.94892
827.7513, 63.02212
828.2335, 63.21284
828.7156, 63.47709
829.1977, 63.71669
829.6798, 63.76977
830.1619, 63.66642
830.6440, 63.57468
831.1262, 63.58075
831.6083, 63.62249
832.0904, 63.62378
832.5725, 63.58213
833.0546, 63.43332
833.5367, 63.14812
834.0189, 62.94662
834.5010, 62.95638
834.9831, 63.00679
835.4652, 62.85464
835.9473, 62.48799
836.4294, 62.32039
836.9116, 62.59037
837.3937, 62.71430
837.8758, 62.39164
838.3579, 62.07070
838.8400, 62.14156
839.3221, 62.49471
839.8043, 62.79033
840.2864, 62.91266
840.7685, 62.93701
841.2506, 62.86443
841.7327, 62.76126
842.2148, 62.73043
842.6970, 62.76002
843.1791, 62.81795
843.6612, 62.88733
844.1433, 62.82949
844.6254, 62.42377
845.1075, 61.74492
845.5897, 61.38314
846.0718, 61.39799
846.5539, 61.44606
847.0360, 61.44802
847.5181, 61.47572
848.0002, 61.66740
848.4824, 61.93971
848.9645, 61.89853
849.4466, 61.24190
849.9287, 60.84494
850.4108, 60.95454
850.8929, 61.18966
851.3751, 61.46630
851.8572, 61.66948
852.3393, 61.56998
852.8214, 61.14201
853.3035, 60.82513
853.7856, 61.06138
854.2678, 61.47424
854.7499, 61.58788
855.2320, 61.48732
855.7141, 61.36383
856.1962, 61.27268
856.6783, 61.30703
857.1605, 61.56429
857.6426, 61.91246
858.1247, 61.98364
858.6068, 61.74339
859.0889, 61.45984
859.5710, 61.04749
860.0532, 60.87233
860.5353, 61.26571
861.0174, 61.89004
861.4995, 62.17664
861.9816, 62.09246
862.4637, 61.93620
862.9459, 61.54630
863.4280, 61.30422
863.9101, 61.52674
864.3922, 61.80316
864.8743, 61.62591
865.3564, 61.12593
865.8386, 60.94207
866.3207, 61.47327
866.8028, 62.03153
867.2849, 61.89903
867.7670, 61.48546
868.2491, 61.52584
868.7313, 61.92961
869.2134, 62.00130
869.6955, 61.46459
870.1776, 60.92436
870.6597, 61.25570
871.1418, 62.25591
871.6239, 62.37096
872.1060, 61.42971
872.5881, 60.84317
873.0703, 61.07481
873.5524, 61.40636
874.0345, 61.16083
874.5166, 60.53645
874.9987, 60.40347
875.4808, 61.27126
875.9630, 61.74102
876.4451, 61.41392
876.9272, 61.12397
877.4093, 61.35476
877.8914, 61.78058
878.3735, 61.93605
878.8557, 61.76520
879.3378, 61.60023
879.8199, 61.52317
880.3020, 61.58979
880.7841, 62.03107
881.2662, 62.55314
881.7484, 62.61702
882.2305, 62.26619
882.7126, 62.04089
883.1947, 62.26637
883.6768, 62.60761
884.1589, 62.42097
884.6411, 61.86126
885.1232, 61.95161
885.6053, 62.75850
886.0874, 63.23598
886.5695, 62.93243
887.0516, 62.38652
887.5338, 62.21344
888.0159, 62.39194
888.4980, 62.54383
888.9801, 62.50499
889.4622, 62.77358
889.9443, 63.72854
890.4265, 64.65622
890.9086, 65.17042
891.3907, 65.39124
891.8728, 65.51121
892.3549, 65.51147
892.8370, 65.61137
893.3192, 65.97318
893.8013, 66.33784
894.2834, 66.44638
894.7655, 66.53062
895.2476, 66.97250
895.7297, 67.74216
896.2119, 68.40857
896.6940, 68.69727
897.1761, 68.85544
897.6582, 69.25113
898.1403, 69.70728
898.6224, 69.68098
899.1046, 69.24931
899.5867, 69.17641
900.0688, 69.80547
900.5509, 70.65123
901.0330, 71.09616
901.5151, 71.16785
901.9973, 71.02092
902.4794, 70.56626
902.9615, 70.46737
903.4436, 70.98704
903.9257, 71.62322
904.4078, 72.04629
904.8900, 72.26465
905.3721, 72.28905
905.8542, 71.95191
906.3363, 71.79341
906.8184, 71.83134
907.3005, 72.01784
907.7827, 72.54249
908.2648, 73.07322
908.7469, 73.20657
909.2290, 72.95568
909.7111, 72.70476
910.1932, 72.56905
910.6754, 72.47874
911.1575, 72.26431
911.6396, 72.17542
912.1217, 72.66605
912.6038, 73.49464
913.0859, 74.00700
913.5681, 73.95720
914.0502, 73.64318
914.5323, 73.16268
915.0144, 72.71600
915.4965, 72.75036
915.9786, 73.18433
916.4608, 73.72134
916.9429, 74.27908
917.4250, 74.73005
917.9071, 74.97523
918.3892, 75.05030
918.8713, 74.94633
919.3535, 74.60384
919.8356, 74.83112
920.3177, 75.84828
920.7998, 76.75720
921.2819, 77.19341
921.7640, 77.37255
922.2462, 77.48673
922.7283, 77.54139
923.2104, 77.82510
923.6925, 78.66145
924.1746, 79.25047
924.6567, 79.21775
925.1389, 79.26604
925.6210, 79.99672
926.1031, 80.98307
926.5852, 81.40653
927.0673, 81.09035
927.5494, 81.00293
928.0316, 81.69076
928.5137, 82.47047
928.9958, 82.94907
929.4779, 83.28248
929.9600, 83.65099
930.4421, 84.07177
930.9243, 84.48380
931.4064, 84.85873
931.8885, 85.20567
932.3706, 85.49499
932.8527, 85.77782
933.3348, 86.14937
933.8170, 86.59856
934.2991, 87.03045
934.7812, 87.43083
935.2633, 87.96617
935.7454, 88.81544
936.2275, 89.84559
936.7097, 90.61112
937.1918, 91.13068
937.6739, 92.13272
938.1560, 93.72202
938.6381, 95.59563
939.1202, 97.64693
939.6024, 99.81912
940.0845, 101.9962
940.5666, 104.1625
941.0487, 106.7581
941.5308, 109.7733
942.0129, 113.2085
942.4951, 116.9913
942.9772, 121.2520
943.4593, 126.2256
943.9414, 131.6853
944.4235, 137.2232
944.9056, 142.7410
945.3878, 148.5929
945.8699, 154.8389
946.3520, 161.4047
946.8341, 167.7305
947.3162, 174.7612
947.7983, 183.8067
948.2805, 194.4616
948.7626, 204.8650
949.2447, 214.2953
949.7268, 223.9576
950.2089, 234.1847
950.6910, 245.2675
951.1732, 257.8011
951.6553, 271.2614
952.1374, 284.3208
952.6195, 296.8163
953.1016, 309.8842
953.5837, 324.6267
954.0659, 339.8442
954.5480, 354.2072
955.0301, 367.5697
955.5122, 379.5859
955.9943, 390.2147
956.4764, 399.7902
956.9586, 408.4112
957.4407, 415.1760
957.9228, 419.1965
958.4049, 420.3553
958.8870, 418.0201
959.3691, 412.1576
959.8513, 403.9904
960.3334, 393.6673
960.8155, 381.0940
961.2976, 365.8963
961.7797, 348.7584
962.2618, 330.6419
962.7440, 311.4815
963.2261, 292.2833
963.7082, 272.7143
964.1903, 253.7053
964.6724, 235.2349
965.1545, 217.7749
965.6367, 201.6526
966.1188, 186.8110
966.6009, 173.2649
967.0830, 160.9796
967.5651, 149.9955
968.0472, 140.3155
968.5294, 132.0102
969.0115, 125.7034
969.4936, 120.3745
969.9757, 115.1538
970.4578, 110.0396
970.9399, 105.3786
971.4221, 101.1485
971.9042, 97.61886
972.3863, 95.22072
972.8684, 93.20239
973.3505, 90.89753
973.8326, 88.66165
974.3148, 87.20181
974.7969, 86.52076
975.2790, 85.84980
975.7611, 84.75520
976.2432, 83.56654
976.7253, 82.51277
977.2075, 81.56999
977.6896, 80.73736
978.1717, 79.98012
978.6538, 79.20818
979.1359, 78.40342
979.6180, 77.70085
980.1002, 77.21455
980.5823, 76.90799
981.0644, 76.83374
981.5465, 76.86956
982.0286, 76.56574
982.5107, 75.92159
982.9929, 75.34627
983.4750, 75.02584
983.9571, 74.80224
984.4392, 74.45353
984.9213, 74.03690
985.4034, 73.82065
985.8856, 73.80241
986.3677, 73.84301
986.8498, 73.91724
987.3319, 74.09801
987.8140, 74.47813
988.2961, 74.82487
988.7783, 74.67604
989.2604, 74.00845
989.7425, 73.52900
990.2246, 73.20027
990.7067, 73.26020
991.1888, 74.06839
991.6710, 74.59676
992.1531, 73.87642
992.6352, 72.52799
993.1173, 72.14317
993.5994, 73.08692
994.0815, 73.52082
994.5637, 73.09539
995.0458, 72.69020
995.5279, 72.37936
996.0100, 72.28074
996.4921, 72.66570
996.9742, 73.31716
997.4564, 73.57107
997.9385, 73.15124
998.4206, 73.04826
998.9027, 73.73518
999.3848, 74.30953
999.8669, 74.47881
1000.349, 74.34575
1000.831, 73.91483
1001.313, 73.27927
1001.795, 72.67284
1002.278, 72.05504
1002.760, 71.76125
1003.242, 72.23015
1003.724, 72.71436
1004.206, 72.71749
1004.688, 72.46628
1005.170, 72.22552
1005.652, 72.04797
1006.134, 71.93025
1006.617, 71.89669
1007.099, 71.83962
1007.581, 71.69387
1008.063, 71.48536
1008.545, 71.20966
1009.027, 70.90336
1009.509, 70.63158
1009.991, 70.39873
1010.474, 70.15932
1010.956, 69.90281
1011.438, 69.58182
1011.920, 69.04890
1012.402, 68.48062
1012.884, 68.23535
1013.366, 68.18707
1013.848, 67.93179
1014.330, 67.38909
1014.813, 66.81318
1015.295, 66.37823
1015.777, 66.06184
1016.259, 65.89110
1016.741, 65.79530
1017.223, 65.59382
1017.705, 65.28268
1018.187, 64.91939
1018.669, 64.52005
1019.152, 64.01669
1019.634, 63.30956
1020.116, 62.57399
1020.598, 62.32462
1021.080, 62.43355
1021.562, 62.03626
1022.044, 61.10183
1022.526, 60.28124
1023.008, 59.80680
1023.491, 59.51356
1023.973, 59.27139
1024.455, 59.03171
1024.937, 58.61843
1025.419, 58.03074
1025.901, 57.43494
1026.383, 56.81810
1026.865, 56.48763
1027.348, 56.60364
1027.830, 56.87217
1028.312, 57.02316
1028.794, 57.02671
1029.276, 56.69628
1029.758, 55.95721
1030.240, 55.34695
1030.722, 54.88476
1031.204, 54.61348
1031.687, 54.60485
1032.169, 54.66367
1032.651, 54.58134
1033.133, 54.37611
1033.615, 54.12977
1034.097, 53.76957
1034.579, 53.62075
1035.061, 53.80066
1035.544, 53.97730
1036.026, 54.12478
1036.508, 54.05817
1036.990, 53.41322
1037.472, 52.34253
1037.954, 51.97107
1038.436, 52.74980
1038.918, 53.25605
1039.401, 53.33093
1039.883, 53.34056
1040.365, 53.44020
1040.847, 53.51642
1041.329, 53.43156
1041.811, 53.20689
1042.293, 52.99842
1042.775, 52.77491
1043.257, 52.62357
1043.740, 52.49163
1044.222, 52.49643
1044.704, 53.01000
1045.186, 53.42543
1045.668, 52.90387
1046.150, 51.67459
1046.632, 51.06488
1047.114, 51.45588
1047.596, 51.84267
1048.079, 52.17144
1048.561, 52.45838
1049.043, 52.83158
1049.525, 53.07268
1050.007, 52.83241
1050.489, 52.24740
1050.971, 51.94144
1051.453, 52.13621
1051.936, 52.26019
1052.418, 52.06182
1052.900, 51.96948
1053.382, 52.34798
1053.864, 52.77230
1054.346, 52.80073
1054.828, 52.49900
1055.310, 52.14234
1055.792, 51.62760
1056.275, 51.55593
1056.757, 52.61200
1057.239, 53.48139
1057.721, 53.50197
1058.203, 53.12208
1058.685, 52.64046
1059.167, 52.17452
1059.649, 51.91743
1060.131, 51.92589
1060.614, 52.06415
1061.096, 52.48185
1061.578, 52.78378
1062.060, 52.67880
1062.542, 52.45950
1063.024, 52.39475
1063.506, 52.45805
1063.988, 52.51676
1064.471, 52.54175
1064.953, 52.55788
1065.435, 52.57621
1065.917, 52.58559
1066.399, 52.59397
1066.881, 52.57958
1067.363, 52.45169
1067.845, 52.30463
1068.328, 52.41579
1068.810, 52.86109
1069.292, 53.05299
1069.774, 52.45152
1070.256, 51.93243
1070.738, 51.94542
1071.220, 52.21175
1071.702, 52.72437
1072.184, 53.20482
1072.667, 53.07628
1073.149, 52.25944
1073.631, 51.59558
1074.113, 51.50395
1074.595, 51.56012
1075.077, 51.50311
1075.559, 51.56536
1076.041, 52.13115
1076.523, 52.86882
1077.006, 53.21702
1077.488, 53.09982
1077.970, 52.82214
1078.452, 52.32622
1078.934, 52.00164
1079.416, 52.25813
1079.898, 52.53658
1080.380, 52.23718
1080.863, 51.76692
1081.345, 51.85801
1081.827, 52.47422
1082.309, 52.80483
1082.791, 52.44633
1083.273, 52.03287
1083.755, 51.87183
1084.237, 51.74129
1084.719, 51.39374
1085.202, 51.04613
1085.684, 51.07429
1086.166, 51.38134
1086.648, 51.43715
1087.130, 50.96526
1087.612, 50.68549
1088.094, 51.20154
1088.576, 51.66986
1089.058, 51.43758
1089.541, 50.99804
1090.023, 50.91859
1090.505, 51.11445
1090.987, 51.15662
1091.469, 50.90336
1091.951, 50.80112
1092.433, 51.28860
1092.915, 51.64189
1093.397, 51.35331
1093.880, 50.90487
1094.362, 50.71935
1094.844, 50.72527
1095.326, 50.67020
1095.808, 50.50624
1096.290, 50.48394
1096.772, 50.91383
1097.254, 51.19210
1097.737, 50.80632
1098.219, 50.46898
1098.701, 50.94014
1099.183, 51.69217
1099.665, 51.82235
1100.147, 51.28148
1100.629, 50.82218
1101.111, 50.65494
1101.594, 50.57933
1102.076, 50.50140
1102.558, 50.54500
1103.040, 50.86263
1103.522, 51.28506
1104.004, 51.70344
1104.486, 52.04898
1104.968, 52.08300
1105.450, 51.64637
1105.932, 51.19386
1106.415, 50.65824
1106.897, 50.32285
1107.379, 50.42604
1107.861, 50.67139
1108.343, 50.73252
1108.825, 50.72433
1109.307, 51.05273
1109.789, 51.88593
1110.272, 52.46206
1110.754, 52.45491
1111.236, 52.51495
1111.718, 52.93643
1112.200, 53.33485
1112.682, 53.51020
1113.164, 53.46535
1113.646, 53.13645
1114.129, 52.48759
1114.611, 52.06829
1115.093, 52.00764
1115.575, 52.00936
1116.057, 52.11847
1116.539, 52.19770
1117.021, 52.09351
1117.503, 52.00511
1117.985, 52.26377
1118.468, 52.79693
1118.950, 52.95656
1119.432, 52.50990
1119.914, 52.15430
1120.396, 51.64400
1120.878, 51.73083
1121.360, 53.13107
1121.842, 54.52197
1122.324, 54.68345
1122.807, 53.98678
1123.289, 53.50622
1123.771, 53.24419
1124.253, 53.23878
1124.735, 53.66422
1125.217, 53.79028
1125.699, 53.28334
1126.181, 52.94337
1126.664, 53.35331
1127.146, 54.06694
1127.628, 54.30735
1128.110, 54.10819
1128.592, 54.15865
1129.074, 54.49297
1129.556, 54.93154
1130.038, 55.53068
1130.521, 55.73341
1131.003, 55.19576
1131.485, 54.64992
1131.967, 54.96031
1132.449, 55.81042
1132.931, 56.06623
1133.413, 55.73480
1133.895, 55.55600
1134.377, 55.56449
1134.859, 55.63405
1135.342, 55.72987
1135.824, 55.85700
1136.306, 56.01962
1136.788, 56.21796
1137.270, 56.47414
1137.752, 56.76676
1138.234, 56.99710
1138.716, 57.16725
1139.199, 57.27009
1139.681, 57.31229
1140.163, 57.36420
1140.645, 57.45834
1141.127, 57.50293
1141.609, 57.34764
1142.091, 57.14962
1142.573, 57.25677
1143.056, 57.55403
1143.538, 57.72727
1144.020, 57.81856
1144.502, 58.14647
1144.984, 58.74685
1145.466, 59.17797
1145.948, 59.07552
1146.430, 58.95412
1146.912, 59.42704
1147.395, 60.19447
1147.877, 60.97583
1148.359, 61.68526
1148.841, 62.16233
1149.323, 62.44699
1149.805, 62.77012
1150.287, 63.22724
1150.769, 63.55700
1151.251, 63.39380
1151.734, 63.25417
1152.216, 63.40907
1152.698, 63.89563
1153.180, 65.05943
1153.662, 66.45416
1154.144, 67.21870
1154.626, 67.25929
1155.108, 67.24248
1155.591, 67.22378
1156.073, 67.56730
1156.555, 68.80107
1157.037, 69.99238
1157.519, 70.36753
1158.001, 70.57180
1158.483, 71.34691
1158.965, 72.59821
1159.448, 73.85950
1159.930, 75.09581
1160.412, 76.21715
1160.894, 77.13258
1161.376, 78.04810
1161.858, 78.86111
1162.340, 79.86107
1162.822, 81.45396
1163.304, 83.19734
1163.786, 84.32233
1164.269, 84.87395
1164.751, 86.03139
1165.233, 88.05943
1165.715, 90.08598
1166.197, 92.25459
1166.679, 93.92501
1167.161, 94.56087
1167.643, 95.31667
1168.126, 97.30259
1168.608, 100.0124
1169.090, 102.1289
1169.572, 103.6250
1170.054, 105.1366
1170.536, 106.6501
1171.018, 108.3468
1171.500, 110.2975
1171.983, 111.9562
1172.465, 113.0405
1172.947, 113.6801
1173.429, 114.0095
1173.911, 114.0371
1174.393, 113.7970
1174.875, 113.2751
1175.357, 112.4447
1175.839, 111.2782
1176.322, 109.4661
1176.804, 107.0221
1177.286, 104.7784
1177.768, 103.3264
1178.250, 101.9172
1178.732, 99.39846
1179.214, 96.51151
1179.696, 94.36732
1180.178, 92.81364
1180.661, 91.71889
1181.143, 90.88000
1181.625, 89.84629
1182.107, 88.48523
1182.589, 86.98906
1183.071, 85.18759
1183.553, 83.78332
1184.035, 83.49820
1184.518, 83.60208
1185.000, 83.74751
1185.482, 83.68359
1185.964, 82.89027
1186.446, 81.62156
1186.928, 80.98336
1187.410, 81.42109
1187.892, 81.48477
1188.375, 80.25317
1188.857, 79.31306
1189.339, 79.51704
1189.821, 79.83218
1190.303, 79.52077
1190.785, 78.91516
1191.267, 78.56290
1191.749, 78.44624
1192.231, 78.25195
1192.714, 77.89742
1193.196, 77.65845
1193.678, 77.60440
1194.160, 77.52728
1194.642, 77.41287
1195.124, 77.13855
1195.606, 76.56498
1196.088, 75.86071
1196.570, 75.38041
1197.053, 75.09782
1197.535, 74.68797
1198.017, 74.15376
1198.499, 73.22038
1198.981, 71.86430
1199.463, 71.01659
1199.945, 71.04401
1200.427, 71.04108
1200.910, 70.15491
1201.392, 68.97745
1201.874, 68.66255
1202.356, 68.83131
1202.838, 68.53716
1203.320, 67.87833
1203.802, 67.16522
1204.284, 66.46808
1204.766, 65.80055
1205.249, 65.16625
1205.731, 64.53886
1206.213, 63.85938
1206.695, 63.23161
1207.177, 62.80370
1207.659, 62.41322
1208.141, 61.88632
1208.623, 61.28711
1209.105, 60.73106
1209.588, 60.21919
1210.070, 59.63643
1210.552, 58.85971
1211.034, 58.44793
1211.516, 59.00463
1211.998, 59.34003
1212.480, 58.85966
1212.962, 58.25203
1213.445, 58.10230
1213.927, 58.00791
1214.409, 57.22805
1214.891, 55.89228
1215.373, 55.16383
1215.855, 55.23112
1216.337, 55.41019
1216.819, 55.84305
1217.302, 55.89453
1217.784, 55.34151
1218.266, 54.57392
1218.748, 53.80636
1219.230, 53.12692
1219.712, 52.67200
1220.194, 52.43190
1220.676, 52.46790
1221.158, 52.71355
1221.641, 52.59909
1222.123, 52.14821
1222.605, 51.85181
1223.087, 51.83788
1223.569, 51.88983
1224.051, 51.87649
1224.533, 51.80077
1225.015, 51.73314
1225.497, 51.54490
1225.979, 50.78848
1226.462, 49.98146
1226.944, 50.12920
1227.426, 50.82969
1227.908, 50.92722
1228.390, 50.25573
1228.872, 49.70730
1229.354, 49.64977
1229.836, 49.73159
1230.319, 49.95745
1230.801, 50.10022
1231.283, 49.95603
1231.765, 49.76126
1232.247, 49.73102
1232.729, 49.80182
1233.211, 49.85664
1233.693, 49.89700
1234.176, 49.73845
1234.658, 49.30315
1235.140, 48.85984
1235.622, 48.39095
1236.104, 47.98726
1236.586, 47.63320
1237.068, 47.55481
1237.550, 48.00401
1238.032, 48.57453
1238.515, 48.43767
1238.997, 47.77995
1239.479, 47.71117
1239.961, 48.09208
1240.443, 48.05563
1240.925, 47.59161
1241.407, 47.13714
1241.889, 46.85128
1242.371, 46.79493
1242.854, 47.04566
1243.336, 47.30410
1243.818, 47.33735
1244.300, 47.13740
1244.782, 46.37461
1245.264, 45.61997
1245.746, 45.73492
1246.228, 46.40728
1246.711, 46.86428
1247.193, 46.97467
1247.675, 47.03145
1248.157, 47.23404
1248.639, 47.14087
1249.121, 46.18693
1249.603, 45.54192
1250.085, 45.89754
1250.568, 46.42250
1251.050, 46.58843
1251.532, 46.54805
1252.014, 46.53015
1252.496, 46.53671
1252.978, 46.63607
1253.460, 46.88731
1253.942, 46.74701
1254.424, 46.14727
1254.906, 45.65713
1255.389, 45.42432
1255.871, 45.42528
1256.353, 45.65669
1256.835, 45.93261
1257.317, 46.00015
1257.799, 45.96315
1258.281, 46.05146
1258.763, 46.17627
1259.246, 46.13359
1259.728, 45.98060
1260.210, 45.94521
1260.692, 45.99987
1261.174, 45.75658
1261.656, 44.98981
1262.138, 44.54647
1262.620, 45.09701
1263.103, 45.77096
1263.585, 46.34068
1264.067, 46.68557
1264.549, 46.56510
##END=



