##NAMES=Tschernichite
##RRUFFID=R060482
##IDEAL CHEMISTRY=CaAl_2_Si_6_O_16_&#183;8H_2_O
##LOCALITY=Neer Road Pit, Goble, Columbia County, Oregon, USA
##OWNER=RRUFF
##SOURCE=Michael Scott
##DESCRIPTION=Colorless steep dipyramidal tetragonal crystals
##STATUS=The identification of this mineral has been confirmed by single-crystal X-ray diffraction.
##URL=rruff.info/R060482
89.78320, 792.5900
90.26532, 790.4459
90.74744, 790.7090
91.22955, 793.8405
91.71167, 799.7843
92.19379, 810.2811
92.67590, 824.7157
93.15802, 835.3181
93.64014, 835.2462
94.12225, 826.9594
94.60437, 816.3098
95.08649, 803.1992
95.56860, 789.4267
96.05072, 780.9951
96.53284, 779.1252
97.01495, 777.3611
97.49707, 767.8739
97.97919, 750.8755
98.46130, 735.2933
98.94342, 723.2025
99.42554, 714.4390
99.90765, 709.5093
100.3898, 709.2365
100.8719, 710.7422
101.3540, 710.0622
101.8361, 707.0655
102.3182, 702.7443
102.8004, 696.9355
103.2825, 688.8542
103.7646, 682.9344
104.2467, 679.2097
104.7288, 677.5292
105.2109, 677.5085
105.6931, 678.4891
106.1752, 681.8640
106.6573, 688.2453
107.1394, 697.6655
107.6215, 709.8364
108.1036, 727.9825
108.5858, 750.0711
109.0679, 764.5772
109.5500, 767.5786
110.0321, 766.3592
110.5142, 764.8145
110.9963, 760.9218
111.4785, 759.0002
111.9606, 759.7570
112.4427, 763.1067
112.9248, 767.5456
113.4069, 773.5535
113.8890, 780.1769
114.3712, 786.7241
114.8533, 792.2521
115.3354, 798.3625
115.8175, 806.2135
116.2996, 816.2042
116.7817, 824.7379
117.2639, 830.1100
117.7460, 833.5295
118.2281, 836.5204
118.7102, 840.9011
119.1923, 844.1693
119.6744, 844.3704
120.1566, 840.7980
120.6387, 836.4908
121.1208, 832.4189
121.6029, 828.9299
122.0850, 826.8038
122.5671, 826.3383
123.0493, 827.4302
123.5314, 830.3279
124.0135, 835.6467
124.4956, 841.2758
124.9777, 846.7200
125.4598, 851.2712
125.9420, 852.1363
126.4241, 844.3477
126.9062, 831.9637
127.3883, 822.4476
127.8704, 817.7170
128.3525, 816.0071
128.8347, 814.9587
129.3168, 814.5840
129.7989, 815.1378
130.2810, 817.6999
130.7631, 821.6249
131.2452, 824.3002
131.7274, 824.7160
132.2095, 823.6337
132.6916, 823.4441
133.1737, 824.3796
133.6558, 824.5856
134.1379, 821.3474
134.6201, 814.7411
135.1022, 809.4017
135.5843, 806.9315
136.0664, 807.0079
136.5485, 807.4048
137.0306, 808.1588
137.5128, 809.1591
137.9949, 810.1278
138.4770, 810.9041
138.9591, 812.4540
139.4412, 815.0312
139.9233, 818.5909
140.4055, 823.8411
140.8876, 832.2345
141.3697, 840.8048
141.8518, 844.3414
142.3339, 841.0587
142.8160, 836.7325
143.2982, 833.2470
143.7803, 830.7010
144.2624, 828.8079
144.7445, 827.7703
145.2266, 827.3317
145.7087, 826.8455
146.1909, 825.5225
146.6730, 825.1545
147.1551, 826.6188
147.6372, 831.7800
148.1193, 835.6392
148.6014, 838.1275
149.0836, 839.3231
149.5657, 839.5149
150.0478, 837.5435
150.5299, 835.5042
151.0120, 834.2966
151.4941, 834.7006
151.9763, 835.0095
152.4584, 835.3301
152.9405, 835.5732
153.4226, 835.3348
153.9047, 834.6319
154.3868, 833.3988
154.8690, 831.5994
155.3511, 827.4138
155.8332, 824.5892
156.3153, 825.2231
156.7974, 828.6537
157.2795, 829.5098
157.7617, 824.9432
158.2438, 818.2972
158.7259, 811.9891
159.2080, 806.3090
159.6901, 801.2985
160.1722, 797.2775
160.6544, 794.1939
161.1365, 790.9665
161.6186, 786.9051
162.1007, 782.6757
162.5828, 778.7911
163.0649, 775.2571
163.5471, 772.2708
164.0292, 770.6116
164.5113, 770.2946
164.9934, 768.6332
165.4755, 763.2552
165.9576, 755.9940
166.4398, 749.2000
166.9219, 743.6386
167.4040, 738.8329
167.8861, 734.6725
168.3682, 731.1502
168.8503, 727.8364
169.3325, 724.4244
169.8146, 721.0348
170.2967, 717.9115
170.7788, 715.2223
171.2609, 712.7784
171.7430, 710.6581
172.2252, 708.9410
172.7073, 706.7987
173.1894, 703.3248
173.6715, 698.8767
174.1536, 694.3955
174.6357, 689.9907
175.1179, 685.8594
175.6000, 682.3640
176.0821, 679.6614
176.5642, 677.0634
177.0463, 673.8828
177.5284, 670.2425
178.0106, 666.5781
178.4927, 662.7807
178.9748, 659.1691
179.4569, 656.6129
179.9390, 655.4161
180.4211, 654.3438
180.9033, 651.6558
181.3854, 647.6498
181.8675, 643.8102
182.3496, 640.9689
182.8317, 638.9189
183.3138, 637.0311
183.7960, 635.2628
184.2781, 633.6349
184.7602, 632.3686
185.2423, 631.3918
185.7244, 630.2261
186.2065, 628.1684
186.6887, 625.5828
187.1708, 623.9626
187.6529, 623.7083
188.1350, 623.9542
188.6171, 623.3904
189.0992, 622.0132
189.5814, 619.9920
190.0635, 617.0012
190.5456, 613.2217
191.0277, 610.1746
191.5098, 608.0507
191.9919, 606.6652
192.4741, 606.0023
192.9562, 606.1121
193.4383, 605.9542
193.9204, 604.3482
194.4025, 601.4350
194.8846, 599.8231
195.3668, 600.1653
195.8489, 601.5784
196.3310, 601.9791
196.8131, 601.2886
197.2952, 600.1722
197.7773, 598.9033
198.2595, 597.4755
198.7416, 596.3558
199.2237, 595.6716
199.7058, 595.2877
200.1879, 594.8852
200.6700, 594.4819
201.1522, 593.9860
201.6343, 593.2884
202.1164, 592.3648
202.5985, 591.5386
203.0806, 590.9084
203.5627, 590.3766
204.0449, 589.6458
204.5270, 588.6995
205.0091, 587.5939
205.4912, 586.2943
205.9733, 584.7365
206.4554, 583.3665
206.9376, 582.2809
207.4197, 581.4092
207.9018, 580.4525
208.3839, 579.4044
208.8660, 578.2914
209.3481, 577.1675
209.8303, 576.0638
210.3124, 574.7932
210.7945, 573.2466
211.2766, 571.5470
211.7587, 570.1642
212.2408, 569.2203
212.7230, 568.3381
213.2051, 567.2344
213.6872, 565.8178
214.1693, 564.4960
214.6514, 563.4382
215.1335, 562.4910
215.6157, 560.9461
216.0978, 558.4892
216.5799, 555.9576
217.0620, 553.8327
217.5441, 552.1084
218.0262, 550.8359
218.5084, 550.2676
218.9905, 550.1552
219.4726, 549.2775
219.9547, 547.3864
220.4368, 545.1470
220.9189, 542.9636
221.4011, 540.7736
221.8832, 538.8131
222.3653, 537.2297
222.8474, 535.9044
223.3295, 534.1369
223.8116, 531.6871
224.2938, 529.2458
224.7759, 527.2197
225.2580, 525.6893
225.7401, 524.4236
226.2222, 523.4627
226.7043, 522.7466
227.1865, 522.0457
227.6686, 521.5790
228.1507, 520.8133
228.6328, 519.3502
229.1149, 516.7159
229.5970, 514.5253
230.0792, 513.0599
230.5613, 512.1141
231.0434, 510.8877
231.5255, 509.1312
232.0076, 507.5007
232.4897, 506.4234
232.9719, 506.2550
233.4540, 505.8740
233.9361, 505.2615
234.4182, 504.4098
234.9003, 503.2177
235.3824, 501.3758
235.8646, 499.6364
236.3467, 498.3693
236.8288, 497.6941
237.3109, 497.2461
237.7930, 497.2236
238.2751, 497.3769
238.7573, 496.8975
239.2394, 495.3150
239.7215, 493.7541
240.2036, 492.7451
240.6857, 492.6283
241.1678, 492.2650
241.6500, 491.5451
242.1321, 490.6051
242.6142, 489.7589
243.0963, 488.9344
243.5784, 488.3222
244.0605, 488.1224
244.5427, 488.7978
245.0248, 488.6458
245.5069, 487.2333
245.9890, 485.1694
246.4711, 483.8505
246.9532, 483.6833
247.4354, 483.5845
247.9175, 483.1532
248.3996, 482.3012
248.8817, 481.4107
249.3638, 480.4325
249.8459, 479.4555
250.3281, 478.6786
250.8102, 478.3028
251.2923, 477.7827
251.7744, 476.8197
252.2565, 475.1889
252.7386, 474.1690
253.2208, 474.0902
253.7029, 474.3802
254.1850, 474.0230
254.6671, 472.4234
255.1492, 471.3482
255.6313, 471.6181
256.1135, 473.5923
256.5956, 474.3292
257.0777, 473.2281
257.5598, 471.4440
258.0419, 470.5443
258.5240, 470.8400
259.0062, 471.3298
259.4883, 471.8524
259.9704, 472.4274
260.4525, 472.5431
260.9346, 472.0337
261.4167, 471.2728
261.8989, 470.7251
262.3810, 470.5591
262.8631, 470.1534
263.3452, 469.1494
263.8273, 467.5524
264.3094, 467.1090
264.7916, 468.2829
265.2737, 469.8736
265.7558, 470.6628
266.2379, 470.3480
266.7200, 470.2600
267.2021, 470.8443
267.6843, 471.9653
268.1664, 472.1444
268.6485, 470.9517
269.1306, 469.7007
269.6127, 469.6408
270.0948, 471.0787
270.5770, 472.2557
271.0591, 472.7113
271.5412, 472.6756
272.0233, 473.3947
272.5054, 475.0706
272.9875, 476.9008
273.4697, 478.2984
273.9518, 479.2167
274.4339, 480.0470
274.9160, 480.7617
275.3981, 481.4595
275.8802, 482.4424
276.3624, 483.6990
276.8445, 485.2495
277.3266, 487.2317
277.8087, 489.6920
278.2908, 491.9367
278.7729, 493.8975
279.2551, 495.6353
279.7372, 497.1834
280.2193, 498.5206
280.7014, 499.8596
281.1835, 501.2481
281.6656, 502.6910
282.1478, 504.5247
282.6299, 506.8524
283.1120, 509.3952
283.5941, 511.6238
284.0762, 513.5255
284.5583, 515.5616
285.0405, 517.8933
285.5226, 520.5309
286.0047, 523.6384
286.4868, 527.2867
286.9689, 531.1693
287.4510, 535.0157
287.9332, 538.8098
288.4153, 542.2739
288.8974, 545.0835
289.3795, 547.4279
289.8616, 549.8265
290.3438, 552.2452
290.8259, 554.9447
291.3080, 558.5280
291.7901, 562.7786
292.2722, 566.5875
292.7543, 569.3265
293.2365, 571.4706
293.7186, 574.0223
294.2007, 576.9600
294.6828, 580.2753
295.1649, 584.2571
295.6470, 588.6408
296.1292, 592.6881
296.6113, 596.1192
297.0934, 599.1536
297.5755, 602.1955
298.0576, 605.2385
298.5397, 608.0530
299.0219, 610.2054
299.5040, 612.0673
299.9861, 614.4474
300.4682, 617.6251
300.9503, 621.1224
301.4324, 624.7567
301.9146, 628.3558
302.3967, 631.3362
302.8788, 632.7372
303.3609, 633.4568
303.8430, 634.8302
304.3251, 637.1670
304.8073, 639.6712
305.2894, 641.8707
305.7715, 643.6864
306.2536, 644.9937
306.7357, 645.1062
307.2178, 644.9659
307.7000, 645.6907
308.1821, 647.4511
308.6642, 649.1337
309.1463, 650.1400
309.6284, 650.4846
310.1105, 650.2005
310.5927, 648.4078
311.0748, 646.6302
311.5569, 646.3632
312.0390, 647.6105
312.5211, 648.2128
313.0032, 646.2829
313.4854, 643.3357
313.9675, 641.0052
314.4496, 640.3759
314.9317, 640.0214
315.4138, 639.2557
315.8959, 638.1594
316.3781, 637.1759
316.8602, 636.9003
317.3423, 636.6003
317.8244, 635.6819
318.3065, 633.3133
318.7886, 631.3212
319.2708, 630.7051
319.7529, 630.9866
320.2350, 630.8199
320.7171, 629.0303
321.1992, 627.2708
321.6813, 626.4280
322.1635, 627.0491
322.6456, 627.5696
323.1277, 627.5464
323.6098, 627.2502
324.0919, 627.1370
324.5740, 627.4183
325.0562, 627.7578
325.5383, 628.0038
326.0204, 628.0597
326.5025, 628.4000
326.9846, 629.2662
327.4667, 630.3533
327.9489, 631.3524
328.4310, 632.5159
328.9131, 633.3302
329.3952, 633.8334
329.8773, 634.0416
330.3594, 633.4341
330.8416, 630.9749
331.3237, 628.5897
331.8058, 627.7471
332.2879, 629.8022
332.7700, 631.0720
333.2521, 631.0071
333.7343, 629.8815
334.2164, 629.0369
334.6985, 628.6400
335.1806, 628.2644
335.6627, 627.6337
336.1448, 626.5737
336.6270, 625.8602
337.1091, 625.7764
337.5912, 625.8562
338.0733, 625.1520
338.5554, 623.6122
339.0375, 621.4801
339.5197, 618.5848
340.0018, 614.8734
340.4839, 611.9466
340.9660, 610.0175
341.4481, 608.5253
341.9302, 606.8793
342.4124, 605.0635
342.8945, 603.1035
343.3766, 601.0950
343.8587, 598.9396
344.3408, 595.8256
344.8229, 591.6127
345.3051, 587.4966
345.7872, 584.8104
346.2693, 583.3368
346.7514, 581.5207
347.2335, 578.9998
347.7156, 576.0693
348.1978, 573.2283
348.6799, 570.4919
349.1620, 567.9958
349.6441, 566.0300
350.1262, 564.3672
350.6083, 562.3879
351.0905, 559.9034
351.5726, 557.4572
352.0547, 555.7306
352.5368, 554.5660
353.0189, 553.4874
353.5010, 552.2756
353.9832, 551.0042
354.4653, 549.7396
354.9474, 548.4689
355.4295, 547.2721
355.9116, 546.1361
356.3937, 545.1193
356.8759, 544.3247
357.3580, 543.8953
357.8401, 543.6002
358.3222, 543.3992
358.8043, 543.2484
359.2864, 542.8915
359.7686, 541.7837
360.2507, 540.6229
360.7328, 540.0514
361.2149, 540.5048
361.6970, 541.0485
362.1791, 541.3632
362.6613, 541.4892
363.1434, 541.5244
363.6255, 540.9467
364.1076, 540.7170
364.5897, 541.4763
365.0718, 543.6943
365.5540, 545.4395
366.0361, 546.0342
366.5182, 546.0909
367.0003, 546.3449
367.4824, 547.2151
367.9645, 547.9551
368.4467, 548.3686
368.9288, 548.4377
369.4109, 548.5625
369.8930, 548.7000
370.3751, 548.9431
370.8572, 549.3809
371.3394, 550.2645
371.8215, 550.9101
372.3036, 551.1074
372.7857, 551.0353
373.2678, 551.3687
373.7499, 552.3140
374.2321, 553.2888
374.7142, 553.9703
375.1963, 554.2336
375.6784, 554.8031
376.1605, 555.8904
376.6426, 556.9951
377.1248, 557.1589
377.6069, 556.1912
378.0890, 555.4361
378.5711, 555.3713
379.0532, 555.9150
379.5353, 556.5972
380.0175, 557.5036
380.4996, 558.1562
380.9817, 557.9120
381.4638, 556.8909
381.9459, 556.0960
382.4280, 555.8206
382.9102, 555.7625
383.3923, 555.2858
383.8744, 554.4266
384.3565, 553.6305
384.8386, 553.3552
385.3207, 553.3174
385.8029, 552.9973
386.2850, 552.3555
386.7671, 551.3392
387.2492, 549.6268
387.7313, 547.4818
388.2134, 545.5380
388.6956, 544.2067
389.1777, 543.1551
389.6598, 542.1686
390.1419, 541.2401
390.6240, 540.2024
391.1061, 538.8983
391.5883, 537.4558
392.0704, 536.0012
392.5525, 534.5621
393.0346, 533.1444
393.5167, 531.8220
393.9988, 530.5201
394.4810, 529.0110
394.9631, 526.9255
395.4452, 524.8377
395.9273, 522.9858
396.4094, 521.3395
396.8915, 520.1091
397.3737, 519.6584
397.8558, 519.5296
398.3379, 519.1576
398.8200, 518.5706
399.3021, 517.6262
399.7842, 516.0822
400.2664, 513.9384
400.7485, 512.2185
401.2306, 510.9084
401.7127, 510.0423
402.1948, 509.7323
402.6769, 510.4365
403.1591, 510.6756
403.6412, 510.2369
404.1233, 509.3408
404.6054, 508.4144
405.0875, 507.3057
405.5696, 506.6548
406.0518, 506.9146
406.5339, 508.1269
407.0160, 508.9141
407.4981, 509.2502
407.9802, 509.2438
408.4623, 508.7832
408.9445, 507.8913
409.4266, 507.5094
409.9087, 507.9319
410.3908, 508.9853
410.8729, 510.3606
411.3550, 512.0627
411.8372, 513.8703
412.3193, 515.8701
412.8014, 517.8563
413.2835, 519.1244
413.7656, 519.3424
414.2477, 519.8242
414.7299, 522.3017
415.2120, 526.1622
415.6941, 529.8694
416.1762, 532.5621
416.6583, 534.8973
417.1404, 537.5003
417.6226, 540.3823
418.1047, 543.0862
418.5868, 544.8785
419.0689, 546.5946
419.5510, 549.1058
420.0331, 553.2381
420.5153, 557.3705
420.9974, 560.6975
421.4795, 563.5293
421.9616, 566.5132
422.4437, 570.2408
422.9258, 573.8499
423.4080, 576.9182
423.8901, 579.2782
424.3722, 581.7670
424.8543, 584.5877
425.3364, 587.5212
425.8185, 590.3359
426.3007, 592.9734
426.7828, 595.6428
427.2649, 598.4549
427.7470, 601.3408
428.2291, 603.9530
428.7112, 606.3077
429.1934, 608.3126
429.6755, 609.9781
430.1576, 611.3171
430.6397, 612.0973
431.1218, 612.1729
431.6039, 611.9017
432.0861, 611.8059
432.5682, 611.8912
433.0503, 612.1041
433.5324, 612.5536
434.0145, 613.0989
434.4966, 613.3019
434.9788, 613.1713
435.4609, 612.6188
435.9430, 611.2440
436.4251, 609.3715
436.9072, 607.9552
437.3893, 607.2681
437.8715, 606.8009
438.3536, 605.8790
438.8357, 604.6877
439.3178, 603.7433
439.7999, 603.5002
440.2820, 603.4935
440.7642, 603.5062
441.2463, 603.5174
441.7284, 602.9066
442.2105, 600.6617
442.6926, 597.9247
443.1747, 595.7875
443.6569, 594.5908
444.1390, 593.9592
444.6211, 594.2558
445.1032, 595.0936
445.5853, 595.3466
446.0674, 594.5945
446.5496, 593.4265
447.0317, 591.9910
447.5138, 590.1718
447.9959, 588.5245
448.4780, 587.1191
448.9601, 585.8532
449.4423, 584.6642
449.9244, 583.8437
450.4065, 582.5076
450.8886, 580.2965
451.3707, 577.4964
451.8528, 575.2458
452.3350, 573.6135
452.8171, 572.2736
453.2992, 571.1674
453.7813, 570.2891
454.2634, 568.9180
454.7455, 566.9335
455.2277, 564.7136
455.7098, 562.6702
456.1919, 560.7977
456.6740, 558.9559
457.1561, 557.1619
457.6382, 555.3632
458.1204, 553.7771
458.6025, 552.2908
459.0846, 550.1811
459.5667, 546.4209
460.0488, 541.9421
460.5309, 538.0385
461.0131, 535.0591
461.4952, 531.9533
461.9773, 527.7947
462.4594, 523.1350
462.9415, 518.7196
463.4236, 515.5875
463.9058, 512.1136
464.3879, 507.4248
464.8700, 501.6522
465.3521, 495.6911
465.8342, 489.7263
466.3163, 483.5921
466.7985, 477.1368
467.2806, 469.9725
467.7627, 463.2133
468.2448, 457.1757
468.7269, 451.4832
469.2090, 445.5381
469.6912, 439.1953
470.1733, 432.7417
470.6554, 426.2149
471.1375, 419.6202
471.6196, 412.9795
472.1017, 406.2096
472.5839, 399.6031
473.0660, 393.2115
473.5481, 387.0640
474.0302, 381.1271
474.5123, 375.4221
474.9944, 369.8769
475.4766, 364.3709
475.9587, 358.9234
476.4408, 353.6068
476.9229, 348.3831
477.4050, 343.4132
477.8871, 339.0931
478.3693, 335.3800
478.8514, 331.8662
479.3335, 328.2559
479.8156, 324.6725
480.2977, 321.3251
480.7798, 318.3180
481.2620, 315.3398
481.7441, 311.9437
482.2262, 308.5209
482.7083, 305.6504
483.1904, 303.6092
483.6725, 302.0531
484.1547, 301.2415
484.6368, 301.0679
485.1189, 300.1935
485.6010, 298.4836
486.0831, 295.9542
486.5652, 292.5399
487.0474, 287.4257
487.5295, 283.1070
488.0116, 279.6695
488.4937, 277.0122
488.9758, 275.1017
489.4579, 274.2245
489.9401, 273.1889
490.4222, 271.5900
490.9043, 269.6232
491.3864, 268.2489
491.8685, 267.5596
492.3506, 266.7863
492.8328, 265.2280
493.3149, 263.0981
493.7970, 261.2748
494.2791, 259.7936
494.7612, 258.7722
495.2433, 258.6827
495.7255, 259.1636
496.2076, 259.2911
496.6897, 258.6985
497.1718, 257.6457
497.6539, 256.1105
498.1360, 254.2577
498.6182, 252.6879
499.1003, 251.6688
499.5824, 251.0924
500.0645, 251.0620
500.5466, 251.7685
501.0287, 252.1408
501.5109, 251.5438
501.9930, 250.6047
502.4751, 249.9565
502.9572, 250.1017
503.4393, 250.0283
503.9214, 249.5112
504.4036, 248.6911
504.8857, 248.0456
505.3678, 247.6260
505.8499, 247.2834
506.3320, 246.9669
506.8141, 246.6780
507.2963, 246.4075
507.7784, 246.1511
508.2605, 245.9195
508.7426, 245.7784
509.2247, 245.7110
509.7068, 245.4228
510.1890, 244.7703
510.6711, 244.0393
511.1532, 243.7683
511.6353, 243.8772
512.1174, 243.9908
512.5995, 243.6250
513.0817, 243.3084
513.5638, 244.0570
514.0459, 245.8066
514.5280, 246.9376
515.0101, 245.8301
515.4922, 243.9278
515.9744, 242.5735
516.4565, 242.1423
516.9386, 242.0802
517.4207, 242.4857
517.9028, 243.0947
518.3849, 243.4728
518.8671, 243.4383
519.3492, 243.2822
519.8313, 243.0078
520.3134, 242.6314
520.7955, 242.3946
521.2776, 242.4122
521.7598, 242.3937
522.2419, 242.1285
522.7240, 241.5272
523.2061, 241.1476
523.6882, 241.0264
524.1703, 241.0628
524.6525, 241.2061
525.1346, 241.4417
525.6167, 241.4959
526.0988, 241.2568
526.5809, 240.8446
527.0630, 240.4833
527.5452, 240.1554
528.0273, 239.7462
528.5094, 238.9617
528.9915, 238.1766
529.4736, 237.8870
529.9557, 238.1437
530.4379, 238.4103
530.9200, 238.4026
531.4021, 238.2253
531.8842, 237.9837
532.3663, 237.7368
532.8484, 237.3730
533.3306, 236.7049
533.8127, 235.9090
534.2948, 235.3813
534.7769, 235.4809
535.2590, 235.4604
535.7411, 235.0778
536.2233, 234.3534
536.7054, 233.9330
537.1875, 234.0168
537.6696, 234.0338
538.1517, 233.5238
538.6339, 232.4362
539.1160, 231.5932
539.5981, 231.0514
540.0802, 230.7395
540.5623, 230.6236
541.0444, 230.6714
541.5266, 230.7177
542.0087, 230.8107
542.4908, 230.7575
542.9729, 230.0695
543.4550, 228.9259
543.9371, 228.0255
544.4193, 228.0248
544.9014, 228.2506
545.3835, 228.1137
545.8656, 227.5456
546.3477, 226.9929
546.8298, 226.7282
547.3120, 226.4980
547.7941, 226.0859
548.2762, 224.9757
548.7583, 224.3452
549.2404, 224.7508
549.7225, 225.5441
550.2047, 225.5548
550.6868, 224.2186
551.1689, 223.2169
551.6510, 223.1647
552.1331, 223.8387
552.6152, 223.6578
553.0974, 222.4664
553.5795, 221.2079
554.0616, 220.5835
554.5437, 220.4692
555.0258, 220.0866
555.5079, 219.3595
555.9901, 218.6291
556.4722, 218.2110
556.9543, 218.0522
557.4364, 218.0668
557.9185, 218.3479
558.4006, 218.6004
558.8828, 218.5911
559.3649, 218.3708
559.8470, 218.0606
560.3291, 217.6302
560.8112, 217.1820
561.2933, 216.7627
561.7755, 216.3712
562.2576, 215.9386
562.7397, 215.2585
563.2218, 214.6988
563.7039, 214.4904
564.1860, 214.9219
564.6682, 214.9101
565.1503, 214.2424
565.6324, 213.4034
566.1145, 213.1067
566.5966, 213.4349
567.0787, 213.5159
567.5609, 213.0933
568.0430, 212.4155
568.5251, 212.0328
569.0072, 211.9118
569.4893, 211.7989
569.9714, 211.4901
570.4536, 211.1341
570.9357, 210.9647
571.4178, 210.9756
571.8999, 211.0029
572.3820, 211.0374
572.8641, 210.9832
573.3463, 210.7144
573.8284, 210.0846
574.3105, 209.5677
574.7926, 209.3684
575.2747, 209.3340
575.7568, 209.2751
576.2390, 209.1923
576.7211, 209.0581
577.2032, 208.8705
577.6853, 208.6280
578.1674, 208.2935
578.6495, 207.7854
579.1317, 207.4316
579.6138, 207.4243
580.0959, 207.7150
580.5780, 207.9137
581.0601, 208.0235
581.5422, 208.0368
582.0244, 207.9071
582.5065, 207.6801
582.9886, 207.4771
583.4707, 207.3188
583.9528, 207.1487
584.4349, 206.8821
584.9171, 206.5789
585.3992, 206.3276
585.8813, 206.1793
586.3634, 206.0642
586.8455, 205.8470
587.3276, 205.6289
587.8098, 205.7030
588.2919, 206.6096
588.7740, 207.3132
589.2561, 207.4197
589.7382, 206.9140
590.2203, 206.6681
590.7025, 206.8280
591.1846, 206.9886
591.6667, 206.8525
592.1488, 206.3918
592.6309, 206.0156
593.1130, 205.7250
593.5952, 205.5641
594.0773, 205.6930
594.5594, 206.0230
595.0415, 206.1856
595.5236, 206.0295
596.0057, 205.7905
596.4879, 205.7274
596.9700, 205.7868
597.4521, 205.8432
597.9342, 205.7161
598.4163, 205.6784
598.8984, 206.0239
599.3806, 206.6875
599.8627, 207.0446
600.3448, 206.5623
600.8269, 206.0731
601.3090, 206.0161
601.7911, 206.5738
602.2733, 206.8153
602.7554, 206.5677
603.2375, 206.2460
603.7196, 206.2890
604.2017, 206.7471
604.6838, 207.0566
605.1660, 207.1441
605.6481, 207.0838
606.1302, 206.9599
606.6123, 206.7828
607.0944, 206.5861
607.5765, 206.2442
608.0587, 206.0244
608.5408, 206.4587
609.0229, 207.3324
609.5050, 207.8949
609.9871, 207.2471
610.4692, 206.5712
610.9514, 206.7199
611.4335, 207.8030
611.9156, 208.5862
612.3977, 208.6215
612.8798, 208.4294
613.3619, 208.3009
613.8441, 208.2213
614.3262, 208.2594
614.8083, 208.4833
615.2904, 208.7360
615.7725, 208.7483
616.2546, 208.4949
616.7368, 208.5319
617.2189, 209.1028
617.7010, 209.7837
618.1831, 209.5944
618.6652, 208.7754
619.1473, 208.2943
619.6295, 208.8473
620.1116, 209.8171
620.5937, 210.8069
621.0758, 211.7356
621.5579, 212.2303
622.0400, 211.5520
622.5222, 210.8100
623.0043, 210.7187
623.4864, 211.4929
623.9685, 212.0441
624.4506, 212.0546
624.9327, 211.9847
625.4149, 212.1735
625.8970, 212.8083
626.3791, 213.0861
626.8612, 212.8525
627.3433, 212.4720
627.8254, 212.4949
628.3076, 212.9010
628.7897, 213.2431
629.2718, 213.3739
629.7539, 213.4480
630.2360, 213.6465
630.7181, 213.9831
631.2003, 214.5019
631.6824, 215.4890
632.1645, 216.4626
632.6466, 217.0360
633.1287, 217.2453
633.6108, 217.3347
634.0930, 217.1083
634.5751, 217.0219
635.0572, 217.3920
635.5393, 218.3717
636.0214, 219.0373
636.5035, 219.1507
636.9857, 219.2406
637.4678, 219.7354
637.9499, 220.6948
638.4320, 221.6009
638.9141, 222.4001
639.3962, 223.1772
639.8784, 224.0678
640.3605, 225.0345
640.8426, 225.9604
641.3247, 226.8286
641.8068, 227.5991
642.2889, 228.2277
642.7711, 228.7300
643.2532, 229.1560
643.7353, 229.1994
644.2174, 229.4790
644.6995, 230.5235
645.1816, 232.1825
645.6638, 233.4378
646.1459, 233.8020
646.6280, 234.0720
647.1101, 234.4933
647.5922, 235.0667
648.0743, 235.6916
648.5565, 236.3634
649.0386, 237.0806
649.5207, 237.8727
650.0028, 238.7159
650.4849, 239.3882
650.9670, 239.8453
651.4492, 240.2731
651.9313, 240.8641
652.4134, 241.5636
652.8955, 242.2832
653.3776, 243.0893
653.8597, 243.7430
654.3419, 243.8932
654.8240, 243.8490
655.3061, 244.0813
655.7882, 245.1421
656.2703, 246.0130
656.7524, 246.4421
657.2346, 246.5263
657.7167, 246.5178
658.1988, 246.4013
658.6809, 246.2319
659.1630, 246.0123
659.6451, 245.7534
660.1273, 245.4694
660.6094, 245.1453
661.0915, 244.9931
661.5736, 245.4178
662.0557, 246.0326
662.5378, 245.9330
663.0200, 245.0767
663.5021, 244.3015
663.9842, 244.3918
664.4663, 244.7298
664.9484, 244.6855
665.4305, 243.9508
665.9127, 243.4268
666.3948, 243.6241
666.8769, 243.9816
667.3590, 243.9231
667.8411, 243.2458
668.3232, 242.5891
668.8054, 242.0453
669.2875, 241.5036
669.7696, 240.6619
670.2517, 239.5080
670.7338, 238.7128
671.2159, 238.6405
671.6981, 238.8205
672.1802, 238.3956
672.6623, 237.5044
673.1444, 236.6298
673.6265, 235.9229
674.1086, 235.4198
674.5908, 235.3148
675.0729, 235.5208
675.5550, 235.4745
676.0371, 234.7517
676.5192, 233.9680
677.0013, 233.3954
677.4835, 233.0578
677.9656, 232.6741
678.4477, 232.1678
678.9298, 231.7486
679.4119, 231.6157
679.8940, 231.7696
680.3762, 231.8442
680.8583, 231.8414
681.3404, 231.6653
681.8225, 231.0374
682.3046, 230.1900
682.7867, 229.6406
683.2689, 229.5910
683.7510, 229.5369
684.2331, 229.0430
684.7152, 228.3585
685.1973, 227.8123
685.6794, 227.5169
686.1616, 227.3325
686.6437, 227.4199
687.1258, 227.5568
687.6079, 227.2729
688.0900, 226.2979
688.5721, 225.6314
689.0543, 225.5920
689.5364, 225.9708
690.0185, 226.1987
690.5006, 226.2740
690.9827, 226.2413
691.4648, 226.1121
691.9470, 225.8908
692.4291, 225.5421
692.9112, 225.0882
693.3933, 224.6562
693.8754, 224.3171
694.3575, 224.0199
694.8397, 223.6935
695.3218, 223.3196
695.8039, 223.1461
696.2860, 223.5649
696.7681, 223.8492
697.2502, 223.5462
697.7324, 222.4518
698.2145, 221.8223
698.6966, 221.7292
699.1787, 221.9039
699.6608, 222.1783
700.1429, 222.5137
700.6251, 222.7745
701.1072, 222.9702
701.5893, 222.9198
702.0714, 222.1129
702.5535, 221.0422
703.0356, 220.4658
703.5178, 220.9299
703.9999, 221.3430
704.4820, 221.1648
704.9641, 220.7129
705.4462, 220.4856
705.9283, 220.6255
706.4105, 220.8095
706.8926, 221.0241
707.3747, 221.2469
707.8568, 221.4600
708.3389, 221.6774
708.8210, 221.7238
709.3032, 221.4925
709.7853, 221.1001
710.2674, 220.7660
710.7495, 220.4779
711.2316, 220.1940
711.7137, 219.7266
712.1959, 219.3891
712.6780, 219.5191
713.1601, 220.0498
713.6422, 220.4642
714.1243, 220.4685
714.6064, 220.4744
715.0886, 220.6628
715.5707, 221.0420
716.0528, 221.3720
716.5349, 221.6654
717.0170, 221.8866
717.4991, 222.0224
717.9813, 222.0706
718.4634, 221.9291
718.9455, 221.5805
719.4276, 221.4008
719.9097, 222.0022
720.3918, 222.8443
720.8740, 223.0992
721.3561, 222.5383
721.8382, 222.0913
722.3203, 222.1811
722.8024, 222.5871
723.2845, 223.1411
723.7667, 224.1948
724.2488, 224.6945
724.7309, 224.3219
725.2130, 223.7363
725.6951, 223.7390
726.1772, 224.3681
726.6594, 225.0830
727.1415, 225.9192
727.6236, 226.4529
728.1057, 225.7794
728.5878, 224.3304
729.0699, 223.2016
729.5521, 222.7037
730.0342, 222.7122
730.5163, 223.6224
730.9984, 224.8975
731.4805, 225.5799
731.9626, 224.5693
732.4448, 223.9993
732.9269, 224.4487
733.4090, 225.5395
733.8911, 226.2486
734.3732, 226.5229
734.8553, 226.6021
735.3375, 226.5197
735.8196, 226.3235
736.3017, 226.0362
736.7838, 225.7031
737.2659, 225.5999
737.7480, 226.0952
738.2302, 226.7266
738.7123, 227.0188
739.1944, 227.0414
739.6765, 227.1697
740.1586, 227.4808
740.6407, 227.9857
741.1229, 228.8802
741.6050, 230.1296
742.0871, 230.7219
742.5692, 230.4594
743.0513, 230.0139
743.5334, 229.6537
744.0156, 229.3940
744.4977, 229.4288
744.9798, 229.7581
745.4619, 230.0936
745.9440, 230.2119
746.4261, 230.2040
746.9083, 230.1640
747.3904, 230.0993
747.8725, 230.0461
748.3546, 229.9319
748.8367, 229.8970
749.3188, 230.0271
749.8010, 230.3078
750.2831, 230.8678
750.7652, 232.0151
751.2473, 232.9621
751.7294, 232.8540
752.2115, 231.7133
752.6937, 231.3682
753.1758, 232.0220
753.6579, 232.8203
754.1400, 232.8540
754.6221, 232.4536
755.1042, 232.1005
755.5864, 231.8374
756.0685, 231.8604
756.5506, 232.2441
757.0327, 232.9905
757.5148, 234.1068
757.9969, 236.5145
758.4791, 237.7973
758.9612, 237.3172
759.4433, 236.4165
759.9254, 236.9990
760.4075, 239.1697
760.8896, 240.3240
761.3718, 239.8899
761.8539, 238.8847
762.3360, 238.4721
762.8181, 238.5159
763.3002, 238.7524
763.7823, 239.1902
764.2645, 239.6452
764.7466, 240.0372
765.2287, 240.3761
765.7108, 240.6846
766.1929, 240.7627
766.6750, 241.1207
767.1572, 241.9372
767.6393, 242.9540
768.1214, 243.7097
768.6035, 244.1926
769.0856, 244.5197
769.5677, 244.6245
770.0499, 244.7722
770.5320, 245.5343
771.0141, 246.6744
771.4962, 247.5872
771.9783, 247.6561
772.4604, 247.8071
772.9426, 248.7423
773.4247, 250.0976
773.9068, 251.0081
774.3889, 250.9907
774.8710, 251.0605
775.3531, 251.3586
775.8353, 251.8703
776.3174, 252.5274
776.7995, 253.3193
777.2816, 254.4377
777.7637, 256.1253
778.2458, 257.9923
778.7280, 259.3890
779.2101, 260.4118
779.6922, 261.3405
780.1743, 262.3702
780.6564, 263.2977
781.1385, 264.0206
781.6207, 264.5602
782.1028, 264.9700
782.5849, 264.9075
783.0670, 265.2814
783.5491, 266.4351
784.0313, 268.1771
784.5134, 269.8793
784.9955, 271.5570
785.4776, 272.8676
785.9597, 273.3312
786.4418, 273.5775
786.9240, 274.6504
787.4061, 276.3875
787.8882, 278.1974
788.3703, 279.7101
788.8524, 281.2539
789.3345, 283.1254
789.8167, 285.2420
790.2988, 286.8161
790.7809, 287.4994
791.2630, 288.3030
791.7451, 289.6626
792.2272, 291.3995
792.7094, 292.7690
793.1915, 293.7781
793.6736, 294.8712
794.1557, 296.3789
794.6378, 298.0536
795.1199, 299.6214
795.6021, 301.0577
796.0842, 302.3664
796.5663, 303.4782
797.0484, 304.5090
797.5305, 305.5441
798.0126, 306.5565
798.4948, 307.2817
798.9769, 307.5870
799.4590, 307.9305
799.9411, 308.5556
800.4232, 309.3565
800.9053, 309.9474
801.3875, 310.3219
801.8696, 310.4071
802.3517, 309.8765
802.8338, 309.2394
803.3159, 309.2790
803.7980, 309.7943
804.2802, 309.5707
804.7623, 307.4611
805.2444, 305.3232
805.7265, 303.9080
806.2086, 303.1063
806.6907, 301.9940
807.1729, 300.5591
807.6550, 298.8184
808.1371, 296.7265
808.6192, 294.3398
809.1013, 291.6513
809.5834, 288.7420
810.0656, 286.0679
810.5477, 284.4819
811.0298, 282.7329
811.5119, 279.5633
811.9940, 275.2110
812.4761, 271.6941
812.9583, 269.9016
813.4404, 268.2510
813.9225, 266.3048
814.4046, 264.1207
814.8867, 261.8554
815.3688, 259.5139
815.8510, 257.3658
816.3331, 255.7010
816.8152, 254.2234
817.2973, 252.3739
817.7794, 250.2598
818.2615, 248.3434
818.7437, 246.9643
819.2258, 245.7507
819.7079, 244.6059
820.1900, 243.4846
820.6721, 242.1883
821.1542, 240.5996
821.6364, 239.0613
822.1185, 237.6223
822.6006, 236.3543
823.0827, 235.5891
823.5648, 235.2486
824.0469, 234.6287
824.5291, 232.7577
825.0112, 230.9221
825.4933, 230.6864
825.9754, 231.5490
826.4575, 231.8995
826.9396, 230.8491
827.4218, 229.6394
827.9039, 228.4761
828.3860, 227.4249
828.8681, 226.8221
829.3502, 226.7595
829.8323, 226.5290
830.3145, 225.7044
830.7966, 224.7989
831.2787, 225.1033
831.7608, 226.2038
832.2429, 226.8116
832.7250, 225.9025
833.2072, 224.7770
833.6893, 224.0191
834.1714, 223.5717
834.6535, 223.2930
835.1356, 223.2568
835.6177, 223.2103
836.0999, 223.0883
836.5820, 222.9521
837.0641, 222.9993
837.5462, 223.2027
838.0283, 223.2341
838.5104, 222.9196
838.9926, 222.5159
839.4747, 222.3844
839.9568, 222.3485
840.4389, 222.0977
840.9210, 220.9932
841.4031, 220.3181
841.8853, 220.7295
842.3674, 221.5345
842.8495, 221.7129
843.3316, 221.0945
843.8137, 220.7190
844.2958, 220.8090
844.7780, 221.0457
845.2601, 221.0762
845.7422, 220.8748
846.2243, 220.3152
846.7064, 219.1688
847.1885, 218.1576
847.6707, 217.8594
848.1528, 217.8514
848.6349, 217.6246
849.1170, 216.8181
849.5991, 216.3996
850.0812, 216.5133
850.5634, 216.8222
851.0455, 216.9562
851.5276, 216.9403
852.0097, 217.0080
852.4918, 217.2264
852.9739, 217.2635
853.4561, 216.5935
853.9382, 215.6907
854.4203, 215.1452
854.9024, 215.2461
855.3845, 215.0571
855.8666, 213.9566
856.3488, 212.8946
856.8309, 212.4980
857.3130, 212.8101
857.7951, 213.5367
858.2772, 214.7665
858.7593, 215.7189
859.2415, 215.5159
859.7236, 214.6441
860.2057, 213.7900
860.6878, 213.0231
861.1699, 212.5779
861.6520, 213.2243
862.1342, 213.6776
862.6163, 212.8833
863.0984, 210.7874
863.5805, 209.5165
864.0626, 209.3314
864.5447, 209.2431
865.0269, 208.6355
865.5090, 207.6952
865.9911, 207.1395
866.4732, 206.9150
866.9553, 206.6191
867.4374, 205.9768
867.9196, 205.2010
868.4017, 204.3153
868.8838, 203.3807
869.3659, 202.8298
869.8480, 202.9789
870.3301, 203.0146
870.8123, 202.6655
871.2944, 202.0447
871.7765, 201.5730
872.2586, 201.2306
872.7407, 200.7451
873.2228, 199.8463
873.7050, 198.9271
874.1871, 198.4130
874.6692, 198.1891
875.1513, 197.9986
875.6334, 197.9206
876.1155, 197.6638
876.5977, 197.0652
877.0798, 196.3457
877.5619, 195.9617
878.0440, 195.9503
878.5261, 195.7582
879.0082, 195.2508
879.4904, 194.5759
879.9725, 193.8973
880.4546, 193.1874
880.9367, 192.3638
881.4188, 191.2433
881.9009, 190.3607
882.3831, 190.0812
882.8652, 190.0221
883.3473, 189.8324
883.8294, 189.5425
884.3115, 188.9847
884.7936, 188.1229
885.2758, 187.1143
885.7579, 185.7490
886.2400, 184.4336
886.7221, 184.4558
887.2042, 186.0664
887.6863, 187.0795
888.1685, 185.6376
888.6506, 183.6176
889.1327, 182.3627
889.6148, 182.0482
890.0969, 181.5260
890.5790, 180.5420
891.0612, 179.9922
891.5433, 180.8363
892.0254, 182.5181
892.5075, 182.9798
892.9896, 182.2871
893.4717, 181.0091
893.9539, 178.7325
894.4360, 176.6533
894.9181, 175.8161
895.4002, 176.0119
895.8823, 175.7493
896.3644, 174.6684
896.8466, 173.6482
897.3287, 172.9276
897.8108, 172.4161
898.2929, 171.8577
898.7750, 171.2685
899.2571, 170.7260
899.7393, 170.2732
900.2214, 169.8607
900.7035, 169.4841
901.1856, 169.1132
901.6677, 168.7054
902.1498, 168.1132
902.6320, 167.6876
903.1141, 167.5658
903.5962, 167.4694
904.0783, 166.9482
904.5604, 166.0400
905.0425, 165.3396
905.5247, 164.9515
906.0068, 164.6580
906.4889, 164.3848
906.9710, 164.0229
907.4531, 163.3967
907.9352, 162.3496
908.4174, 161.5269
908.8995, 161.0445
909.3816, 160.7735
909.8637, 160.7094
910.3458, 160.8503
910.8279, 160.8606
911.3101, 160.7422
911.7922, 160.3648
912.2743, 159.2417
912.7564, 158.0721
913.2385, 157.8411
913.7206, 158.4149
914.2028, 158.5987
914.6849, 157.4679
915.1670, 156.5676
915.6491, 156.5159
916.1312, 157.0088
916.6133, 156.7775
917.0955, 155.8087
917.5776, 154.9275
918.0597, 154.4211
918.5418, 154.1678
919.0239, 154.1441
919.5060, 154.2410
919.9882, 154.2469
920.4703, 154.1147
920.9524, 153.8393
921.4345, 153.2578
921.9166, 152.6662
922.3987, 152.5435
922.8809, 152.9407
923.3630, 152.8212
923.8451, 151.9800
924.3272, 151.1226
924.8093, 151.0963
925.2914, 151.4722
925.7736, 151.7160
926.2557, 151.7454
926.7378, 151.6583
927.2199, 151.5315
927.7020, 151.2383
928.1841, 150.6039
928.6663, 149.6338
929.1484, 149.2260
929.6305, 149.4023
930.1126, 149.5991
930.5947, 149.4246
931.0768, 149.0858
931.5590, 148.7952
932.0411, 148.5636
932.5232, 148.4309
933.0053, 148.4749
933.4874, 148.5440
933.9695, 148.6563
934.4517, 148.7396
934.9338, 148.5666
935.4159, 148.1327
935.8980, 147.7621
936.3801, 147.5186
936.8622, 147.4540
937.3444, 147.7619
937.8265, 148.2490
938.3086, 148.6340
938.7907, 148.8043
939.2728, 148.9373
939.7549, 149.0720
940.2371, 149.1677
940.7192, 149.1754
941.2013, 149.0906
941.6834, 149.0579
942.1655, 149.0862
942.6476, 149.0708
943.1298, 148.7924
943.6119, 148.5090
944.0940, 148.5417
944.5761, 148.8972
945.0582, 149.2137
945.5403, 149.5084
946.0225, 149.6095
946.5046, 149.3711
946.9867, 148.9183
947.4688, 148.8363
947.9509, 149.0950
948.4330, 149.1956
948.9152, 148.7805
949.3973, 148.3199
949.8794, 148.2772
950.3615, 148.5093
950.8436, 148.7633
951.3257, 149.0213
951.8079, 149.2425
952.2900, 149.4699
952.7721, 149.6007
953.2542, 149.4570
953.7363, 149.0793
954.2184, 148.7782
954.7006, 148.5939
955.1827, 148.4200
955.6648, 148.0741
956.1469, 147.7646
956.6290, 147.6669
957.1111, 147.8101
957.5933, 148.1725
958.0754, 148.9583
958.5575, 149.5435
959.0396, 149.5948
959.5217, 149.2293
960.0038, 148.6850
960.4860, 148.0398
960.9681, 147.6995
961.4502, 148.2038
961.9323, 148.7500
962.4144, 148.8092
962.8965, 148.5767
963.3787, 148.5021
963.8608, 148.7009
964.3429, 148.8049
964.8250, 148.7752
965.3071, 148.6266
965.7892, 148.3017
966.2714, 147.8861
966.7535, 147.5997
967.2356, 147.4962
967.7177, 147.4203
968.1998, 147.2003
968.6819, 147.0518
969.1641, 147.1875
969.6462, 147.6418
970.1283, 147.8135
970.6104, 147.6480
971.0925, 147.5171
971.5746, 147.6172
972.0568, 147.9037
972.5389, 148.4467
973.0210, 149.1279
973.5031, 149.5418
973.9852, 149.2945
974.4673, 149.0201
974.9495, 148.8797
975.4316, 148.8351
975.9137, 148.8410
976.3958, 148.9023
976.8779, 148.9554
977.3600, 148.9954
977.8422, 149.0046
978.3243, 148.9187
978.8064, 148.8144
979.2885, 148.8184
979.7706, 148.9987
980.2527, 149.0318
980.7349, 148.6501
981.2170, 148.4059
981.6991, 148.6432
982.1812, 149.2916
982.6633, 149.9211
983.1454, 150.5069
983.6276, 150.7884
984.1097, 150.1912
984.5918, 149.6134
985.0739, 149.8837
985.5560, 150.7036
986.0381, 151.2572
986.5203, 151.3524
987.0024, 151.4436
987.4845, 151.5733
987.9666, 151.7492
988.4487, 152.0797
988.9308, 152.4623
989.4130, 152.5650
989.8951, 152.3021
990.3772, 152.0082
990.8593, 151.5676
991.3414, 151.4242
991.8235, 152.1336
992.3057, 153.7657
992.7878, 154.4186
993.2699, 153.9678
993.7520, 153.3526
994.2341, 152.9263
994.7162, 152.7637
995.1984, 153.2083
995.6805, 154.0318
996.1626, 154.5987
996.6447, 154.4565
997.1268, 154.3037
997.6089, 154.2890
998.0911, 154.3459
998.5732, 154.3463
999.0553, 154.2919
999.5374, 154.4687
1000.020, 154.9278
1000.502, 155.4410
1000.984, 155.8300
1001.466, 156.1406
1001.948, 156.3782
1002.430, 156.5277
1002.912, 156.8468
1003.394, 157.5784
1003.876, 157.9975
1004.359, 157.5973
1004.841, 156.7984
1005.323, 157.0614
1005.805, 158.1313
1006.287, 158.9555
1006.769, 158.9061
1007.251, 158.7285
1007.733, 158.7672
1008.216, 158.9270
1008.698, 159.0812
1009.180, 159.2514
1009.662, 159.3000
1010.144, 159.1868
1010.626, 159.1127
1011.108, 159.3422
1011.590, 159.7057
1012.072, 159.9426
1012.555, 160.0412
1013.037, 160.1390
1013.519, 160.3759
1014.001, 160.4916
1014.483, 160.2919
1014.965, 159.9547
1015.447, 160.1827
1015.929, 160.9146
1016.411, 161.4971
1016.894, 161.7158
1017.376, 161.7196
1017.858, 161.4722
1018.340, 161.1602
1018.822, 161.0132
1019.304, 161.0464
1019.786, 161.3299
1020.268, 161.9809
1020.751, 162.5761
1021.233, 162.7882
1021.715, 162.6958
1022.197, 162.3742
1022.679, 161.8922
1023.161, 161.6256
1023.643, 161.9406
1024.125, 162.3070
1024.607, 162.4194
1025.090, 162.4708
1025.572, 162.9596
1026.054, 163.9349
1026.536, 164.6409
1027.018, 164.9292
1027.500, 164.9881
1027.982, 164.9203
1028.464, 164.7894
1028.947, 164.6264
1029.429, 164.3898
1029.911, 164.4259
1030.393, 164.8449
1030.875, 165.3667
1031.357, 165.9485
1031.839, 166.4889
1032.321, 166.4435
1032.803, 165.9791
1033.286, 165.7951
1033.768, 166.5922
1034.250, 167.3418
1034.732, 167.5844
1035.214, 167.5089
1035.696, 167.3484
1036.178, 167.0365
1036.660, 167.0305
1037.143, 167.3962
1037.625, 167.8227
1038.107, 168.0117
1038.589, 168.1048
1039.071, 168.3621
1039.553, 168.7713
1040.035, 168.8236
1040.517, 167.9083
1041.000, 167.4234
1041.482, 167.8782
1041.964, 168.8843
1042.446, 169.6595
1042.928, 170.1847
1043.410, 170.2978
1043.892, 169.8244
1044.374, 169.3206
1044.856, 168.9719
1045.339, 168.8725
1045.821, 169.1975
1046.303, 170.0672
1046.785, 170.3436
1047.267, 169.9671
1047.749, 169.5281
1048.231, 169.4892
1048.713, 169.5651
1049.195, 169.3438
1049.677, 168.9277
1050.160, 168.6239
1050.642, 168.4396
1051.124, 168.5398
1051.606, 169.1134
1052.088, 169.7188
1052.570, 169.7017
1053.052, 169.1987
1053.534, 168.5868
1054.017, 167.8928
1054.499, 167.7134
1054.981, 169.1966
1055.463, 170.6050
1055.945, 170.6850
1056.427, 169.6837
1056.909, 168.9305
1057.391, 168.4383
1057.874, 168.0466
1058.356, 167.6514
1058.838, 167.4427
1059.320, 167.9062
1059.802, 168.6049
1060.284, 168.8887
1060.766, 168.3036
1061.248, 168.0916
1061.730, 168.4985
1062.213, 168.8819
1062.695, 168.7157
1063.177, 168.1587
1063.659, 167.7258
1064.141, 167.4187
1064.623, 167.2556
1065.105, 167.3799
1065.587, 167.4923
1066.070, 167.5094
1066.552, 167.4221
1067.034, 167.1732
1067.516, 166.7556
1067.998, 166.3817
1068.480, 166.0677
1068.962, 165.9076
1069.444, 166.1700
1069.927, 166.4950
1070.409, 166.5691
1070.891, 166.3571
1071.373, 165.9355
1071.855, 165.0048
1072.337, 164.8271
1072.819, 166.1740
1073.301, 167.8653
1073.783, 167.4925
1074.266, 165.9068
1074.748, 164.9370
1075.230, 165.3212
1075.712, 165.6427
1076.194, 165.5745
1076.676, 165.2896
1077.158, 164.7921
1077.640, 164.1267
1078.122, 163.7569
1078.604, 163.6607
1079.087, 163.6553
1079.569, 163.7051
1080.051, 163.7418
1080.533, 163.8184
1081.015, 163.8126
1081.497, 163.4717
1081.979, 162.6602
1082.461, 162.1855
1082.944, 162.1333
1083.426, 162.2405
1083.908, 162.2695
1084.390, 162.3091
1084.872, 162.5591
1085.354, 162.9886
1085.836, 163.0962
1086.318, 162.4742
1086.801, 162.2016
1087.283, 162.6213
1087.765, 163.3811
1088.247, 163.8850
1088.729, 164.2002
1089.211, 164.4749
1089.693, 164.7249
1090.175, 165.0277
1090.657, 165.2777
1091.140, 165.7503
1091.622, 166.7287
1092.104, 168.0904
1092.586, 168.8159
1093.068, 168.9394
1093.550, 168.8347
1094.032, 168.4340
1094.514, 168.2151
1094.997, 168.6616
1095.479, 169.4386
1095.961, 170.1291
1096.443, 170.8006
1096.925, 170.9556
1097.407, 170.4731
1097.889, 170.2543
1098.371, 171.3308
1098.854, 172.8485
1099.336, 173.7211
1099.818, 174.0688
1100.300, 174.4627
1100.782, 175.2617
1101.264, 175.6631
1101.746, 175.4140
1102.228, 175.0391
1102.710, 175.3463
1103.193, 176.0586
1103.675, 176.4451
1104.157, 176.4201
1104.639, 176.5233
1105.121, 177.2464
1105.603, 177.8483
1106.085, 178.0048
1106.567, 177.8695
1107.049, 177.9329
1107.531, 178.1605
1108.014, 178.2398
1108.496, 178.0054
1108.978, 177.8931
1109.460, 178.2839
1109.942, 178.8801
1110.424, 179.5085
1110.906, 180.1846
1111.388, 180.2418
1111.871, 179.6277
1112.353, 179.1518
1112.835, 179.3399
1113.317, 179.7110
1113.799, 179.8322
1114.281, 179.7468
1114.763, 179.5116
1115.245, 179.0513
1115.728, 178.6308
1116.210, 178.2485
1116.692, 177.9250
1117.174, 177.6027
1117.656, 177.3936
1118.138, 177.6207
1118.620, 178.1722
1119.102, 178.5783
1119.584, 178.6295
1120.067, 178.5628
1120.549, 178.3871
1121.031, 178.1479
1121.513, 178.0476
1121.995, 177.9295
1122.477, 177.0585
1122.959, 175.3830
1123.441, 174.0822
1123.924, 174.1531
1124.406, 174.3184
1124.888, 173.9164
1125.370, 173.2517
1125.852, 173.3561
1126.334, 174.1264
1126.816, 174.3145
1127.298, 173.5586
1127.781, 172.5681
1128.263, 171.5721
1128.745, 170.8012
1129.227, 170.6622
1129.709, 171.0938
1130.191, 170.5509
1130.673, 168.9431
1131.155, 167.7440
1131.637, 167.7087
1132.120, 168.0295
1132.602, 167.9590
1133.084, 167.6546
1133.566, 167.3390
1134.048, 167.0667
1134.530, 166.6682
1135.012, 166.1175
1135.494, 165.5333
1135.976, 164.9635
1136.458, 164.4188
1136.941, 163.9593
1137.423, 163.5421
1137.905, 163.0635
1138.387, 162.3245
1138.869, 161.8056
1139.351, 161.6200
1139.833, 161.4707
1140.315, 160.9691
1140.798, 160.3142
1141.280, 160.0784
1141.762, 160.1956
1142.244, 160.1334
1142.726, 159.5471
1143.208, 158.8935
1143.690, 158.1678
1144.172, 157.5568
1144.655, 157.5271
1145.137, 157.8714
1145.619, 157.6489
1146.101, 156.7397
1146.583, 155.8979
1147.065, 155.6566
1147.547, 155.4500
1148.029, 155.0247
1148.511, 154.4370
1148.994, 153.8506
1149.476, 153.2568
1149.958, 152.4903
1150.440, 151.4065
1150.922, 150.6601
1151.404, 151.0759
1151.886, 151.7123
1152.368, 151.8080
1152.851, 151.4260
1153.333, 151.2663
1153.815, 151.3277
1154.297, 151.4953
1154.779, 151.7966
1155.261, 152.0257
1155.743, 152.0738
1156.225, 151.8938
1156.708, 151.3702
1157.190, 150.4720
1157.672, 149.5230
1158.154, 148.4824
1158.636, 147.7651
1159.118, 147.8572
1159.600, 148.1206
1160.082, 147.7549
1160.564, 147.0892
1161.047, 146.7124
1161.529, 146.8861
1162.011, 146.8919
1162.493, 146.6815
1162.975, 146.5034
1163.457, 146.7513
1163.939, 147.0100
1164.421, 146.6139
1164.903, 145.7281
1165.385, 144.8623
1165.868, 144.0452
1166.350, 143.4046
1166.832, 142.9344
1167.314, 142.6950
1167.796, 143.0291
1168.278, 143.5106
1168.760, 143.2700
1169.242, 142.3797
1169.725, 141.6234
1170.207, 141.5243
1170.689, 141.0725
1171.171, 139.9138
1171.653, 138.7385
1172.135, 138.8029
1172.617, 139.5314
1173.099, 139.5430
1173.582, 138.6988
1174.064, 137.9651
1174.546, 137.8336
1175.028, 137.6933
1175.510, 137.4307
1175.992, 137.0250
1176.474, 136.3298
1176.956, 135.4677
1177.438, 134.8288
1177.921, 134.5042
1178.403, 134.2281
1178.885, 133.9310
1179.367, 133.6174
1179.849, 133.3311
1180.331, 133.0031
1180.813, 132.3318
1181.295, 131.4272
1181.778, 130.7011
1182.260, 130.2812
1182.742, 130.0001
1183.224, 129.9585
1183.706, 129.8495
1184.188, 129.5014
1184.670, 128.9423
1185.152, 128.2814
1185.635, 127.5547
1186.117, 126.9255
1186.599, 126.4870
1187.081, 126.0933
1187.563, 125.6959
1188.045, 125.3060
1188.527, 124.9909
1189.009, 124.7241
1189.491, 124.0096
1189.974, 122.9143
1190.456, 121.9214
1190.938, 121.2562
1191.420, 120.7739
1191.902, 120.5304
1192.384, 120.3425
1192.866, 120.0266
1193.348, 119.5789
1193.830, 119.0677
1194.313, 118.5044
1194.795, 118.0455
1195.277, 117.9082
1195.759, 117.7602
1196.241, 117.4306
1196.723, 116.9796
1197.205, 116.4957
1197.687, 115.9823
1198.169, 115.2229
1198.652, 114.2329
1199.134, 113.5297
1199.616, 113.9426
1200.098, 114.2544
1200.580, 113.4373
1201.062, 112.1807
1201.544, 111.7185
1202.026, 112.0832
1202.509, 111.8984
1202.991, 111.0402
1203.473, 110.2942
1203.955, 110.6241
1204.437, 110.8576
1204.919, 109.8931
1205.401, 108.3643
1205.883, 107.8252
1206.365, 108.3010
1206.848, 108.1305
1207.330, 107.0549
1207.812, 106.0316
1208.294, 105.8136
1208.776, 105.8837
1209.258, 106.0584
1209.740, 106.2075
1210.222, 105.8941
1210.705, 105.1082
1211.187, 104.7142
1211.669, 104.9246
1212.151, 104.9913
1212.633, 103.9425
1213.115, 102.8620
1213.597, 102.7208
1214.079, 103.2252
1214.562, 103.3057
1215.044, 102.9727
1215.526, 102.6773
1216.008, 102.5243
1216.490, 102.4049
1216.972, 102.4104
1217.454, 102.2478
1217.936, 101.5256
1218.418, 100.4297
1218.901, 99.94827
1219.383, 100.0532
1219.865, 100.2698
1220.347, 100.5273
1220.829, 100.6014
1221.311, 100.0460
1221.793, 99.49050
1222.275, 99.43901
1222.757, 99.81862
1223.240, 100.1569
1223.722, 100.4394
1224.204, 100.4491
1224.686, 100.0589
1225.168, 99.54637
1225.650, 98.93724
1226.132, 98.42664
1226.614, 98.16667
1227.096, 98.13323
1227.579, 98.11105
1228.061, 98.10512
1228.543, 98.20470
1229.025, 98.63503
1229.507, 98.71970
1229.989, 97.54396
1230.471, 96.31986
1230.953, 96.05722
1231.436, 96.62615
1231.918, 96.87337
1232.400, 96.82333
1232.882, 96.63113
1233.364, 96.25061
1233.846, 95.95122
1234.328, 95.94153
1234.810, 95.99572
1235.292, 95.98882
1235.775, 95.90791
1236.257, 95.53658
1236.739, 94.95235
1237.221, 94.55577
1237.703, 94.53976
1238.185, 94.71165
1238.667, 95.23397
1239.149, 95.68394
1239.632, 95.76424
1240.114, 95.50306
1240.596, 94.91334
1241.078, 94.11061
1241.560, 93.56230
1242.042, 93.58932
1242.524, 93.76448
1243.006, 94.10235
1243.489, 94.38988
1243.971, 94.44274
1244.453, 94.30453
1244.935, 94.08314
1245.417, 93.82211
1245.899, 93.68941
1246.381, 93.91260
1246.863, 94.04534
1247.345, 94.06107
1247.828, 93.91958
1248.310, 93.49068
1248.792, 92.90970
1249.274, 92.49123
1249.756, 92.23740
1250.238, 92.12968
1250.720, 92.26499
1251.202, 92.41029
1251.684, 92.57936
1252.167, 92.67642
1252.649, 92.55692
1253.131, 92.33691
1253.613, 92.20316
1254.095, 92.16562
1254.577, 92.25131
1255.059, 92.69700
1255.541, 92.76406
1256.023, 92.28889
1256.506, 91.86380
1256.988, 92.23323
1257.470, 92.81621
1257.952, 92.78227
1258.434, 92.26614
1258.916, 91.68221
1259.398, 90.95045
1259.880, 90.55358
1260.363, 90.53459
1260.845, 90.76203
1261.327, 91.46589
1261.809, 92.07279
1262.291, 91.73772
1262.773, 90.86961
1263.255, 90.62923
1263.737, 91.25076
1264.219, 91.53896
1264.702, 91.40339
1265.184, 91.11128
1265.666, 90.64314
1266.148, 90.31989
1266.630, 90.57854
1267.112, 91.10348
1267.594, 91.18473
1268.076, 90.77921
1268.559, 90.67969
1269.041, 90.93454
1269.523, 91.12385
1270.005, 90.89194
1270.487, 90.58342
1270.969, 90.28115
1271.451, 90.09738
1271.933, 90.31123
1272.416, 90.86604
1272.898, 90.99309
1273.380, 90.67371
1273.862, 90.29923
1274.344, 89.90935
1274.826, 89.75703
1275.308, 90.02640
1275.790, 90.43856
1276.272, 90.66081
1276.755, 90.72908
1277.237, 90.83022
1277.719, 90.94030
1278.201, 90.82814
1278.683, 89.96232
1279.165, 89.51185
1279.647, 89.79317
1280.129, 90.32079
1280.611, 90.64783
1281.094, 90.78201
1281.576, 90.69057
1282.058, 90.41135
1282.540, 90.12566
1283.022, 89.88744
1283.504, 89.59579
1283.986, 89.18336
1284.468, 88.91566
1284.950, 89.14121
1285.433, 89.61181
1285.915, 90.14748
1286.397, 90.64364
1286.879, 90.74292
1287.361, 90.34846
1287.843, 89.88831
1288.325, 89.38017
1288.807, 88.98959
1289.290, 88.78258
1289.772, 88.82615
1290.254, 89.44205
1290.736, 90.27872
1291.218, 90.52288
1291.700, 90.12806
1292.182, 89.70391
1292.664, 89.29234
1293.146, 89.02819
1293.629, 89.15009
1294.111, 89.28713
1294.593, 89.20889
1295.075, 89.03384
1295.557, 88.85490
1296.039, 88.69289
1296.521, 88.79640
1297.003, 89.13457
1297.486, 89.34975
1297.968, 88.90524
1298.450, 88.86074
1298.932, 89.77000
1299.414, 90.68309
1299.896, 90.34158
1300.378, 89.22492
1300.860, 88.57650
1301.343, 88.41056
1301.825, 88.46400
##END=



