##NAMES=Tsepinite-K
##RRUFFID=R070215
##IDEAL CHEMISTRY=(K,Ba,Na)_2_(Ti^4+^,Nb^5+^)_2_Si_4_O_12_(OH,O)_2_&#183;3H_2_O
##LOCALITY=Karnasurt Mt, Lovozero Massif, Kola Peninsula, Murmanskaya Oblast'; Northern Region, Russia
##OWNER=RRUFF
##SOURCE=Michael Scott
##DESCRIPTION=Light orange acicular crystals
##STATUS=The identification of this mineral is not yet confirmed.
##URL=rruff.info/R070215
188.5157, 14944.62
188.9978, 14979.73
189.4800, 15008.66
189.9621, 15038.77
190.4442, 15076.73
190.9263, 15124.89
191.4084, 15184.61
191.8905, 15261.98
192.3727, 15375.09
192.8548, 15473.84
193.3369, 15540.73
193.8190, 15596.34
194.3011, 15658.80
194.7832, 15735.21
195.2654, 15823.82
195.7475, 15920.65
196.2296, 16029.22
196.7117, 16141.65
197.1938, 16262.24
197.6759, 16382.84
198.1581, 16494.94
198.6402, 16596.19
199.1223, 16691.37
199.6044, 16790.15
200.0865, 16898.63
200.5686, 16998.19
201.0508, 17075.75
201.5329, 17152.62
202.0150, 17247.15
202.4971, 17363.97
202.9792, 17488.75
203.4613, 17597.86
203.9435, 17681.72
204.4256, 17770.64
204.9077, 17867.61
205.3898, 17968.34
205.8719, 18080.21
206.3540, 18200.22
206.8362, 18305.91
207.3183, 18356.47
207.8004, 18308.07
208.2825, 18317.29
208.7646, 18425.60
209.2467, 18552.71
209.7289, 18661.49
210.2110, 18742.67
210.6931, 18800.64
211.1752, 18834.55
211.6573, 18831.59
212.1395, 18851.74
212.6216, 18910.45
213.1037, 18977.07
213.5858, 19039.18
214.0679, 19095.19
214.5500, 19148.61
215.0322, 19201.37
215.5143, 19251.69
215.9964, 19312.71
216.4785, 19410.89
216.9606, 19495.46
217.4427, 19543.27
217.9249, 19559.58
218.4070, 19563.38
218.8891, 19567.84
219.3712, 19572.64
219.8533, 19590.29
220.3354, 19635.37
220.8176, 19679.82
221.2997, 19724.09
221.7818, 19761.82
222.2639, 19780.63
222.7460, 19768.51
223.2281, 19729.59
223.7103, 19710.42
224.1924, 19760.69
224.6745, 19775.11
225.1566, 19705.52
225.6387, 19591.65
226.1208, 19494.48
226.6030, 19451.25
227.0851, 19446.71
227.5672, 19416.06
228.0493, 19334.29
228.5314, 19258.47
229.0135, 19204.36
229.4957, 19159.03
229.9778, 19108.27
230.4599, 19045.79
230.9420, 18973.71
231.4241, 18895.70
231.9062, 18806.43
232.3884, 18720.84
232.8705, 18637.60
233.3526, 18560.16
233.8347, 18492.06
234.3168, 18434.52
234.7989, 18382.67
235.2811, 18326.90
235.7632, 18259.21
236.2453, 18207.14
236.7274, 18192.75
237.2095, 18178.74
237.6916, 18130.13
238.1738, 18044.73
238.6559, 17959.40
239.1380, 17926.23
239.6201, 17964.98
240.1022, 17982.53
240.5843, 17953.51
241.0665, 17920.78
241.5486, 17910.46
242.0307, 17919.49
242.5128, 17922.45
242.9949, 17890.59
243.4770, 17819.95
243.9592, 17760.99
244.4413, 17714.77
244.9234, 17680.32
245.4055, 17671.20
245.8876, 17675.18
246.3697, 17662.73
246.8519, 17606.65
247.3340, 17512.81
247.8161, 17437.04
248.2982, 17383.63
248.7803, 17344.64
249.2624, 17328.08
249.7446, 17320.52
250.2267, 17298.95
250.7088, 17246.05
251.1909, 17176.43
251.6730, 17134.85
252.1551, 17137.51
252.6373, 17135.43
253.1194, 17104.86
253.6015, 17065.21
254.0836, 17039.22
254.5657, 17037.23
255.0478, 17043.54
255.5300, 17032.18
256.0121, 16998.86
256.4942, 16964.08
256.9763, 16926.30
257.4584, 16893.63
257.9406, 16872.99
258.4227, 16866.07
258.9048, 16867.03
259.3869, 16872.53
259.8690, 16882.94
260.3511, 16888.93
260.8333, 16887.58
261.3154, 16881.87
261.7975, 16875.03
262.2796, 16866.87
262.7617, 16853.79
263.2438, 16827.72
263.7260, 16792.20
264.2081, 16769.31
264.6902, 16766.91
265.1723, 16769.16
265.6544, 16760.77
266.1365, 16746.08
266.6187, 16740.27
267.1008, 16755.17
267.5829, 16782.92
268.0650, 16812.33
268.5471, 16849.26
269.0292, 16867.66
269.5114, 16827.30
269.9935, 16757.54
270.4756, 16707.46
270.9577, 16689.13
271.4398, 16696.10
271.9219, 16733.15
272.4041, 16801.61
272.8862, 16854.69
273.3683, 16857.66
273.8504, 16835.46
274.3325, 16840.34
274.8146, 16894.55
275.2968, 16939.72
275.7789, 16915.87
276.2610, 16843.71
276.7431, 16813.78
277.2252, 16872.17
277.7073, 16968.28
278.1895, 17015.46
278.6716, 17005.92
279.1537, 16997.06
279.6358, 17017.08
280.1179, 17049.40
280.6000, 17063.46
281.0822, 17051.03
281.5643, 17029.33
282.0464, 17014.88
282.5285, 17007.03
283.0106, 17015.52
283.4927, 17062.46
283.9749, 17112.97
284.4570, 17129.36
284.9391, 17111.10
285.4212, 17093.83
285.9033, 17109.93
286.3854, 17158.25
286.8676, 17180.81
287.3497, 17152.08
287.8318, 17124.82
288.3139, 17120.77
288.7960, 17138.59
289.2781, 17177.68
289.7603, 17243.11
290.2424, 17320.67
290.7245, 17347.60
291.2066, 17264.74
291.6887, 17207.94
292.1708, 17212.32
292.6530, 17248.46
293.1351, 17280.42
293.6172, 17295.51
294.0993, 17303.54
294.5814, 17321.53
295.0635, 17353.38
295.5457, 17389.25
296.0278, 17433.23
296.5099, 17477.76
296.9920, 17518.37
297.4741, 17554.12
297.9562, 17584.33
298.4384, 17606.22
298.9205, 17616.25
299.4026, 17643.75
299.8847, 17701.04
300.3668, 17762.84
300.8489, 17821.65
301.3311, 17878.49
301.8131, 17938.22
302.2953, 18005.56
302.7774, 18076.92
303.2595, 18133.16
303.7416, 18163.14
304.2237, 18193.57
304.7058, 18230.44
305.1880, 18270.32
305.6701, 18313.07
306.1522, 18359.12
306.6343, 18398.03
307.1164, 18405.27
307.5985, 18366.17
308.0807, 18350.26
308.5628, 18398.92
309.0449, 18454.52
309.5270, 18483.98
310.0091, 18484.20
310.4912, 18471.13
310.9734, 18454.35
311.4555, 18434.46
311.9376, 18420.64
312.4197, 18424.60
312.9018, 18417.84
313.3839, 18385.80
313.8661, 18331.11
314.3482, 18259.22
314.8303, 18154.50
315.3124, 18041.98
315.7945, 17975.07
316.2766, 17963.44
316.7588, 17940.92
317.2409, 17861.98
317.7230, 17752.72
318.2051, 17655.21
318.6872, 17573.07
319.1693, 17506.46
319.6515, 17468.96
320.1336, 17452.02
320.6157, 17412.48
321.0978, 17327.16
321.5799, 17227.10
322.0620, 17160.97
322.5442, 17130.00
323.0263, 17111.10
323.5084, 17112.18
323.9905, 17115.54
324.4726, 17093.12
324.9547, 17040.28
325.4369, 16984.46
325.9190, 16953.42
326.4011, 16950.35
326.8832, 16935.42
327.3653, 16894.37
327.8474, 16854.88
328.3296, 16835.78
328.8117, 16831.84
329.2938, 16826.46
329.7759, 16810.25
330.2580, 16784.35
330.7401, 16754.51
331.2223, 16717.46
331.7044, 16680.24
332.1865, 16641.21
332.6686, 16603.30
333.1507, 16572.67
333.6328, 16550.30
334.1150, 16526.83
334.5971, 16489.08
335.0792, 16438.41
335.5613, 16368.51
336.0434, 16261.29
336.5255, 16153.34
337.0077, 16067.64
337.4898, 15999.68
337.9719, 15928.90
338.4540, 15839.65
338.9361, 15733.43
339.4182, 15621.94
339.9004, 15494.90
340.3825, 15379.66
340.8646, 15288.26
341.3467, 15209.72
341.8288, 15130.44
342.3109, 15044.72
342.7931, 14957.85
343.2752, 14880.07
343.7573, 14813.55
344.2394, 14739.07
344.7215, 14639.23
345.2036, 14539.94
345.6858, 14462.27
346.1679, 14406.83
346.6500, 14358.24
347.1321, 14306.18
347.6142, 14253.60
348.0963, 14211.76
348.5785, 14186.84
349.0606, 14156.24
349.5427, 14084.35
350.0248, 13990.14
350.5069, 13933.34
350.9890, 13958.67
351.4712, 13997.83
351.9533, 13998.83
352.4354, 13965.05
352.9175, 13913.84
353.3996, 13849.51
353.8817, 13777.16
354.3639, 13709.70
354.8460, 13647.81
355.3281, 13588.43
355.8102, 13532.65
356.2923, 13478.31
356.7744, 13424.44
357.2566, 13370.38
357.7387, 13314.93
358.2208, 13256.81
358.7029, 13195.73
359.1850, 13132.44
359.6671, 13069.08
360.1493, 13002.12
360.6314, 12927.42
361.1135, 12847.95
361.5956, 12768.63
362.0777, 12691.24
362.5598, 12618.42
363.0420, 12559.70
363.5241, 12522.59
364.0062, 12488.53
364.4883, 12470.02
364.9704, 12444.35
365.4525, 12384.88
365.9347, 12289.37
366.4168, 12188.52
366.8989, 12120.03
367.3810, 12085.65
367.8631, 12044.90
368.3452, 11988.56
368.8274, 11934.84
369.3095, 11892.22
369.7916, 11858.83
370.2737, 11830.95
370.7558, 11812.89
371.2379, 11794.36
371.7201, 11751.41
372.2022, 11680.20
372.6843, 11623.17
373.1664, 11608.26
373.6485, 11612.35
374.1306, 11597.10
374.6128, 11554.27
375.0949, 11517.86
375.5770, 11515.60
376.0591, 11530.71
376.5412, 11527.56
377.0233, 11497.42
377.5055, 11460.64
377.9876, 11438.96
378.4697, 11434.55
378.9518, 11420.59
379.4339, 11387.38
379.9160, 11353.09
380.3982, 11328.05
380.8803, 11311.04
381.3624, 11297.69
381.8445, 11285.89
382.3266, 11275.09
382.8087, 11263.24
383.2909, 11247.09
383.7730, 11234.50
384.2551, 11230.79
384.7372, 11227.32
385.2193, 11212.47
385.7014, 11187.16
386.1836, 11167.28
386.6657, 11173.99
387.1478, 11209.79
387.6299, 11222.72
388.1120, 11188.63
388.5941, 11158.87
389.0763, 11149.93
389.5584, 11156.14
390.0405, 11168.90
390.5226, 11185.82
391.0047, 11204.08
391.4868, 11218.46
391.9690, 11228.19
392.4511, 11241.42
392.9332, 11265.21
393.4153, 11288.65
393.8974, 11300.22
394.3795, 11299.98
394.8617, 11299.64
395.3438, 11303.73
395.8259, 11311.77
396.3080, 11323.08
396.7901, 11337.59
397.2722, 11355.92
397.7544, 11381.24
398.2365, 11410.74
398.7186, 11430.84
399.2007, 11434.36
399.6828, 11436.57
400.1649, 11442.33
400.6471, 11450.87
401.1292, 11460.05
401.6113, 11469.23
402.0934, 11481.79
402.5755, 11504.53
403.0576, 11546.28
403.5398, 11570.05
404.0219, 11560.47
404.5040, 11550.04
404.9861, 11562.24
405.4682, 11587.92
405.9503, 11599.16
406.4325, 11575.29
406.9146, 11530.73
407.3967, 11520.33
407.8788, 11567.54
408.3609, 11600.75
408.8430, 11588.75
409.3252, 11570.06
409.8073, 11575.08
410.2894, 11608.24
410.7715, 11652.88
411.2536, 11703.11
411.7357, 11755.11
412.2179, 11784.66
412.7000, 11782.86
413.1821, 11776.00
413.6642, 11778.86
414.1463, 11789.83
414.6284, 11807.34
415.1106, 11833.68
415.5927, 11863.43
416.0748, 11894.27
416.5569, 11925.51
417.0390, 11952.53
417.5211, 11971.59
418.0033, 11993.86
418.4854, 12039.35
418.9675, 12120.46
419.4496, 12181.24
419.9317, 12203.79
420.4138, 12218.14
420.8960, 12239.62
421.3781, 12270.67
421.8602, 12312.08
422.3423, 12365.35
422.8244, 12427.92
423.3065, 12488.73
423.7887, 12549.29
424.2708, 12605.67
424.7529, 12662.90
425.2350, 12712.78
425.7171, 12744.25
426.1992, 12758.12
426.6814, 12769.78
427.1635, 12795.69
427.6456, 12834.41
428.1277, 12864.48
428.6098, 12878.63
429.0919, 12898.18
429.5741, 12934.20
430.0562, 12982.50
430.5383, 13040.14
431.0204, 13113.09
431.5025, 13180.87
431.9846, 13222.79
432.4668, 13244.82
432.9489, 13267.08
433.4310, 13293.67
433.9131, 13325.41
434.3952, 13365.44
434.8773, 13414.84
435.3595, 13458.41
435.8416, 13497.11
436.3237, 13527.98
436.8058, 13543.27
437.2879, 13549.21
437.7701, 13563.25
438.2522, 13595.25
438.7343, 13634.66
439.2164, 13653.00
439.6985, 13627.00
440.1806, 13621.61
440.6628, 13651.26
441.1449, 13688.40
441.6270, 13718.85
442.1091, 13740.42
442.5912, 13755.23
443.0733, 13764.20
443.5555, 13767.77
444.0376, 13769.13
444.5197, 13771.79
445.0018, 13762.27
445.4839, 13720.23
445.9660, 13670.99
446.4482, 13643.26
446.9303, 13644.05
447.4124, 13639.30
447.8945, 13603.46
448.3766, 13548.17
448.8587, 13498.12
449.3409, 13456.70
449.8230, 13415.72
450.3051, 13370.05
450.7872, 13318.95
451.2693, 13259.64
451.7514, 13178.00
452.2336, 13105.24
452.7157, 13052.48
453.1978, 13014.63
453.6799, 12990.14
454.1620, 12976.91
454.6441, 12961.58
455.1263, 12926.25
455.6084, 12867.88
456.0905, 12807.07
456.5726, 12724.49
457.0547, 12660.47
457.5368, 12639.74
458.0190, 12642.99
458.5011, 12638.64
458.9832, 12612.47
459.4653, 12578.52
459.9474, 12557.94
460.4295, 12551.08
460.9117, 12537.56
461.3938, 12502.43
461.8759, 12475.16
462.3580, 12490.15
462.8401, 12538.90
463.3222, 12577.27
463.8044, 12582.29
464.2865, 12580.75
464.7686, 12594.96
465.2507, 12623.21
465.7328, 12657.52
466.2149, 12695.16
466.6971, 12734.31
467.1792, 12769.32
467.6613, 12785.92
468.1434, 12831.29
468.6255, 12924.33
469.1076, 13029.15
469.5898, 13128.90
470.0719, 13220.64
470.5540, 13299.70
471.0361, 13360.07
471.5182, 13415.43
472.0003, 13513.06
472.4825, 13672.63
472.9646, 13819.11
473.4467, 13914.45
473.9288, 14007.11
474.4109, 14127.53
474.8930, 14276.58
475.3752, 14439.15
475.8573, 14604.33
476.3394, 14778.12
476.8215, 14977.71
477.3036, 15203.31
477.7857, 15425.52
478.2679, 15626.38
478.7500, 15816.87
479.2321, 16024.75
479.7142, 16244.49
480.1963, 16486.55
480.6784, 16770.71
481.1606, 17066.05
481.6427, 17341.44
482.1248, 17598.20
482.6069, 17859.75
483.0890, 18147.74
483.5711, 18453.16
484.0533, 18730.94
484.5354, 18961.77
485.0175, 19196.57
485.4996, 19464.41
485.9817, 19723.72
486.4638, 19936.85
486.9460, 20102.64
487.4281, 20248.52
487.9102, 20411.69
488.3923, 20570.99
488.8744, 20661.03
489.3565, 20678.01
489.8387, 20644.40
490.3208, 20567.36
490.8029, 20444.74
491.2850, 20283.98
491.7671, 20088.34
492.2492, 19846.74
492.7314, 19544.27
493.2135, 19201.94
493.6956, 18836.59
494.1777, 18454.60
494.6598, 18061.63
495.1419, 17659.11
495.6241, 17252.29
496.1062, 16863.25
496.5883, 16476.17
497.0704, 16135.51
497.5525, 15870.87
498.0346, 15632.88
498.5168, 15375.89
498.9989, 15098.96
499.4810, 14841.48
499.9631, 14640.84
500.4452, 14485.08
500.9273, 14331.75
501.4095, 14177.99
501.8916, 14037.42
502.3737, 13910.30
502.8558, 13803.97
503.3379, 13730.25
503.8200, 13695.77
504.3022, 13668.05
504.7843, 13630.66
505.2664, 13596.32
505.7485, 13582.32
506.2306, 13588.25
506.7127, 13600.57
507.1949, 13610.14
507.6770, 13619.06
508.1591, 13635.69
508.6412, 13645.09
509.1233, 13686.61
509.6054, 13779.60
510.0876, 13890.26
510.5697, 13999.42
511.0518, 14102.75
511.5339, 14198.81
512.0161, 14282.03
512.4982, 14359.97
512.9803, 14453.90
513.4624, 14564.00
513.9445, 14687.02
514.4266, 14832.24
514.9088, 14980.87
515.3909, 15100.70
515.8730, 15187.51
516.3551, 15301.35
516.8372, 15484.16
517.3193, 15684.53
517.8015, 15852.25
518.2836, 15992.89
518.7657, 16149.11
519.2478, 16345.50
519.7299, 16558.74
520.2120, 16731.82
520.6942, 16841.80
521.1763, 16955.43
521.6584, 17064.22
522.1405, 17183.70
522.6226, 17337.39
523.1047, 17509.09
523.5869, 17657.67
524.0690, 17762.41
524.5511, 17833.61
525.0332, 17881.64
525.5153, 17906.63
525.9974, 17932.15
526.4796, 17969.46
526.9617, 17999.76
527.4438, 18003.18
527.9259, 17981.89
528.4080, 17942.15
528.8901, 17872.77
529.3723, 17796.89
529.8544, 17735.93
530.3365, 17676.76
530.8186, 17594.42
531.3007, 17480.00
531.7828, 17342.04
532.2650, 17187.29
532.7471, 17008.00
533.2292, 16857.58
533.7113, 16779.21
534.1934, 16679.08
534.6755, 16512.67
535.1577, 16314.42
535.6398, 16128.28
536.1219, 15965.67
536.6040, 15819.67
537.0861, 15690.33
537.5682, 15572.82
538.0504, 15450.86
538.5325, 15322.28
539.0146, 15197.82
539.4967, 15092.22
539.9788, 14997.38
540.4609, 14875.80
540.9431, 14698.85
541.4252, 14535.96
541.9073, 14405.24
542.3894, 14292.25
542.8715, 14186.08
543.3536, 14083.39
543.8358, 13982.12
544.3179, 13879.83
544.8000, 13778.09
545.2821, 13683.36
545.7642, 13595.04
546.2463, 13515.77
546.7285, 13457.31
547.2106, 13400.38
547.6927, 13330.66
548.1748, 13248.09
548.6569, 13158.42
549.1390, 13057.87
549.6211, 12956.59
550.1032, 12863.59
550.5853, 12779.50
551.0674, 12709.79
551.5496, 12657.50
552.0317, 12612.38
552.5138, 12557.67
552.9959, 12490.39
553.4780, 12422.67
553.9601, 12346.85
554.4423, 12278.46
554.9244, 12225.30
555.4065, 12183.14
555.8886, 12147.43
556.3707, 12116.63
556.8528, 12083.43
557.3350, 12033.59
557.8171, 11970.57
558.2992, 11924.92
558.7813, 11904.18
559.2634, 11885.80
559.7455, 11855.80
560.2277, 11816.46
560.7098, 11776.99
561.1919, 11738.09
561.6740, 11697.75
562.1561, 11651.50
562.6382, 11605.86
563.1204, 11566.80
563.6025, 11535.24
564.0846, 11510.87
564.5667, 11494.61
565.0488, 11482.72
565.5309, 11458.72
566.0131, 11415.67
566.4952, 11378.19
566.9773, 11365.60
567.4594, 11347.16
567.9415, 11291.09
568.4236, 11207.74
568.9058, 11146.69
569.3879, 11139.29
569.8700, 11153.62
570.3521, 11165.09
570.8342, 11171.75
571.3163, 11165.91
571.7985, 11144.82
572.2806, 11114.22
572.7627, 11079.10
573.2448, 11037.60
573.7269, 11008.60
574.2090, 11010.55
574.6912, 11001.95
575.1733, 10958.90
575.6554, 10907.04
576.1375, 10876.02
576.6196, 10871.78
577.1017, 10876.70
577.5839, 10877.49
578.0660, 10874.61
578.5481, 10868.43
579.0302, 10858.32
579.5123, 10852.13
579.9944, 10859.74
580.4766, 10867.83
580.9587, 10844.55
581.4408, 10778.59
581.9229, 10733.84
582.4050, 10738.30
582.8871, 10749.47
583.3693, 10740.48
583.8514, 10715.57
584.3335, 10687.31
584.8156, 10661.54
585.2977, 10638.84
585.7798, 10619.57
586.2620, 10603.60
586.7441, 10593.73
587.2262, 10592.11
587.7083, 10593.16
588.1904, 10601.05
588.6725, 10607.59
589.1547, 10597.95
589.6368, 10567.04
590.1189, 10528.11
590.6010, 10480.42
591.0831, 10432.07
591.5652, 10392.63
592.0474, 10363.17
592.5295, 10341.79
593.0116, 10327.40
593.4937, 10320.23
593.9758, 10323.80
594.4579, 10352.16
594.9401, 10357.72
595.4222, 10311.03
595.9043, 10263.70
596.3864, 10249.33
596.8685, 10254.74
597.3506, 10242.79
597.8328, 10191.97
598.3149, 10135.09
598.7970, 10100.85
599.2791, 10083.65
599.7612, 10071.82
600.2433, 10063.08
600.7255, 10048.75
601.2076, 10018.78
601.6897, 9976.773
602.1718, 9952.232
602.6539, 9960.444
603.1360, 9965.899
603.6182, 9972.316
604.1003, 9970.110
604.5824, 9940.271
605.0645, 9892.520
605.5466, 9866.296
606.0287, 9896.478
606.5109, 9943.530
606.9930, 9941.777
607.4751, 9897.941
607.9572, 9867.762
608.4393, 9867.735
608.9214, 9873.205
609.4036, 9858.060
609.8857, 9822.162
610.3678, 9797.588
610.8499, 9794.676
611.3320, 9788.953
611.8141, 9769.882
612.2963, 9748.352
612.7784, 9736.636
613.2605, 9735.097
613.7426, 9734.639
614.2247, 9728.591
614.7068, 9718.602
615.1890, 9707.980
615.6711, 9696.624
616.1532, 9686.990
616.6353, 9679.925
617.1174, 9674.800
617.5995, 9673.539
618.0817, 9676.227
618.5638, 9667.897
619.0459, 9635.109
619.5280, 9606.112
620.0101, 9596.620
620.4922, 9594.657
620.9744, 9580.860
621.4565, 9554.177
621.9386, 9534.967
622.4207, 9544.342
622.9028, 9574.637
623.3849, 9596.986
623.8671, 9611.296
624.3492, 9617.834
624.8313, 9614.680
625.3134, 9606.004
625.7955, 9595.936
626.2776, 9584.547
626.7598, 9572.570
627.2419, 9556.045
627.7240, 9543.381
628.2061, 9538.027
628.6882, 9539.661
629.1703, 9552.654
629.6525, 9575.277
630.1346, 9591.036
630.6167, 9579.482
631.0988, 9547.818
631.5809, 9540.079
632.0630, 9564.939
632.5452, 9579.031
633.0273, 9561.522
633.5094, 9535.139
633.9915, 9525.099
634.4736, 9530.569
634.9557, 9537.671
635.4379, 9542.144
635.9200, 9549.198
636.4021, 9566.531
636.8842, 9586.601
637.3663, 9597.922
637.8484, 9597.766
638.3306, 9589.684
638.8127, 9573.651
639.2948, 9553.380
639.7769, 9555.296
640.2590, 9587.567
640.7411, 9612.810
641.2233, 9616.638
641.7054, 9612.512
642.1875, 9610.344
642.6696, 9610.781
643.1517, 9624.180
643.6339, 9667.803
644.1160, 9708.745
644.5981, 9730.419
645.0802, 9737.173
645.5623, 9728.649
646.0444, 9708.842
646.5266, 9698.416
647.0087, 9717.345
647.4908, 9761.106
647.9729, 9814.107
648.4550, 9883.778
648.9371, 9930.457
649.4193, 9934.242
649.9014, 9921.826
650.3835, 9913.634
650.8656, 9910.372
651.3477, 9918.583
651.8298, 9944.937
652.3120, 9976.653
652.7941, 10013.34
653.2762, 10049.25
653.7583, 10076.14
654.2404, 10093.27
654.7225, 10105.52
655.2047, 10115.46
655.6868, 10125.32
656.1689, 10144.00
656.6510, 10173.64
657.1331, 10198.18
657.6152, 10210.05
658.0974, 10221.83
658.5795, 10247.40
659.0616, 10283.31
659.5437, 10313.71
660.0258, 10336.09
660.5079, 10354.30
660.9901, 10366.96
661.4722, 10377.82
661.9543, 10392.67
662.4364, 10410.33
662.9185, 10421.02
663.4006, 10414.54
663.8828, 10407.94
664.3649, 10448.83
664.8470, 10539.56
665.3291, 10598.24
665.8112, 10607.08
666.2933, 10594.29
666.7755, 10571.45
667.2576, 10543.84
667.7397, 10533.42
668.2218, 10550.08
668.7039, 10567.61
669.1860, 10583.58
669.6682, 10596.43
670.1503, 10606.19
670.6324, 10611.80
671.1145, 10609.18
671.5966, 10595.21
672.0787, 10580.44
672.5609, 10583.61
673.0430, 10601.20
673.5251, 10608.72
674.0072, 10604.02
674.4893, 10586.84
674.9714, 10551.40
675.4536, 10507.63
675.9357, 10481.80
676.4178, 10479.24
676.8999, 10483.27
677.3820, 10497.08
677.8641, 10513.79
678.3463, 10543.69
678.8284, 10569.38
679.3105, 10556.63
679.7926, 10494.67
680.2747, 10429.08
680.7568, 10415.14
681.2390, 10426.67
681.7211, 10391.47
682.2032, 10310.14
682.6853, 10246.58
683.1674, 10230.18
683.6495, 10238.79
684.1317, 10238.79
684.6138, 10228.46
685.0959, 10218.68
685.5780, 10214.30
686.0601, 10204.46
686.5422, 10183.74
687.0244, 10157.97
687.5065, 10135.51
687.9886, 10116.25
688.4707, 10088.53
688.9528, 10033.78
689.4349, 9976.334
689.9171, 9941.011
690.3992, 9926.124
690.8813, 9933.905
691.3634, 9963.944
691.8455, 9985.461
692.3276, 9963.483
692.8098, 9905.315
693.2919, 9877.894
693.7740, 9897.535
694.2561, 9911.853
694.7382, 9910.031
695.2203, 9900.899
695.7025, 9886.539
696.1846, 9869.459
696.6667, 9858.893
697.1488, 9866.343
697.6309, 9866.911
698.1130, 9837.511
698.5952, 9799.362
699.0773, 9781.523
699.5594, 9783.299
700.0415, 9782.306
700.5236, 9763.382
701.0057, 9740.979
701.4879, 9751.175
701.9700, 9796.533
702.4521, 9819.682
702.9342, 9810.626
703.4163, 9791.435
703.8984, 9770.106
704.3806, 9749.437
704.8627, 9735.313
705.3448, 9726.792
705.8269, 9726.746
706.3090, 9743.162
706.7911, 9760.577
707.2733, 9769.667
707.7554, 9773.381
708.2375, 9775.100
708.7196, 9776.507
709.2017, 9784.776
709.6838, 9819.586
710.1660, 9863.329
710.6481, 9859.825
711.1302, 9812.183
711.6123, 9787.752
712.0944, 9813.367
712.5765, 9858.500
713.0587, 9885.797
713.5408, 9894.218
714.0229, 9907.094
714.5050, 9933.340
714.9871, 9951.585
715.4692, 9953.209
715.9514, 9949.918
716.4335, 9948.095
716.9156, 9949.622
717.3977, 9958.254
717.8798, 9977.702
718.3619, 10001.63
718.8441, 10025.52
719.3262, 10050.28
719.8083, 10080.90
720.2904, 10115.74
720.7725, 10140.05
721.2546, 10141.64
721.7368, 10135.61
722.2189, 10162.94
722.7010, 10230.54
723.1831, 10283.87
723.6652, 10317.62
724.1473, 10339.10
724.6295, 10343.90
725.1116, 10342.17
725.5937, 10357.37
726.0758, 10398.74
726.5579, 10424.35
727.0400, 10409.74
727.5222, 10394.53
728.0043, 10398.67
728.4864, 10419.66
728.9685, 10456.73
729.4506, 10507.08
729.9327, 10551.57
730.4149, 10569.43
730.8970, 10570.31
731.3791, 10572.92
731.8612, 10577.78
732.3433, 10593.67
732.8254, 10625.72
733.3076, 10651.49
733.7897, 10643.46
734.2718, 10606.07
734.7539, 10598.15
735.2360, 10634.72
735.7181, 10676.17
736.2003, 10731.98
736.6824, 10778.48
737.1645, 10791.07
737.6466, 10783.07
738.1287, 10793.66
738.6108, 10844.66
739.0930, 10887.71
739.5751, 10887.04
740.0572, 10869.64
740.5393, 10866.10
741.0214, 10875.42
741.5035, 10882.53
741.9857, 10880.27
742.4678, 10876.94
742.9499, 10887.57
743.4320, 10910.43
743.9141, 10919.27
744.3962, 10910.65
744.8784, 10907.30
745.3605, 10925.38
745.8426, 10941.12
746.3247, 10914.21
746.8068, 10835.47
747.2889, 10802.07
747.7711, 10859.29
748.2532, 10900.21
748.7353, 10886.67
749.2174, 10856.13
749.6995, 10844.10
750.1816, 10848.70
750.6638, 10844.02
751.1459, 10810.38
751.6280, 10777.60
752.1101, 10778.95
752.5922, 10798.67
753.0743, 10810.34
753.5565, 10809.79
754.0386, 10796.74
754.5207, 10770.24
755.0028, 10737.29
755.4849, 10715.92
755.9670, 10710.17
756.4492, 10670.85
756.9313, 10574.81
757.4134, 10502.29
757.8955, 10501.29
758.3776, 10532.55
758.8597, 10540.89
759.3419, 10527.31
759.8240, 10490.25
760.3061, 10400.98
760.7882, 10322.27
761.2703, 10282.61
761.7524, 10262.14
762.2346, 10241.27
762.7167, 10217.06
763.1988, 10193.46
763.6809, 10169.78
764.1630, 10152.92
764.6451, 10162.98
765.1273, 10183.87
765.6094, 10170.77
766.0915, 10120.45
766.5736, 10066.39
767.0557, 10029.45
767.5378, 10000.66
768.0200, 9958.258
768.5021, 9897.992
768.9842, 9852.135
769.4663, 9829.103
769.9484, 9803.401
770.4305, 9756.367
770.9127, 9705.943
771.3948, 9680.501
771.8769, 9682.175
772.3590, 9678.814
772.8411, 9669.193
773.3232, 9651.181
773.8054, 9619.913
774.2875, 9582.512
774.7696, 9540.615
775.2517, 9498.961
775.7338, 9473.130
776.2159, 9479.288
776.6981, 9488.459
777.1802, 9464.123
777.6623, 9418.970
778.1444, 9381.594
778.6265, 9355.018
779.1086, 9330.382
779.5908, 9303.234
780.0729, 9272.835
780.5550, 9232.790
781.0371, 9179.310
781.5192, 9160.590
782.0013, 9194.790
782.4835, 9214.895
782.9656, 9189.647
783.4477, 9143.630
783.9298, 9104.202
784.4119, 9071.223
784.8940, 9048.921
785.3762, 9045.313
785.8583, 9042.418
786.3404, 9033.356
786.8225, 9024.681
787.3046, 9029.849
787.7867, 9040.897
788.2689, 9030.934
788.7510, 8984.275
789.2331, 8928.257
789.7152, 8879.445
790.1973, 8839.181
790.6794, 8812.452
791.1616, 8796.521
791.6437, 8779.452
792.1258, 8755.933
792.6079, 8731.495
793.0900, 8715.179
793.5721, 8705.407
794.0543, 8686.338
794.5364, 8657.254
795.0185, 8620.989
795.5006, 8573.109
795.9827, 8529.941
796.4648, 8512.079
796.9470, 8515.687
797.4291, 8500.190
797.9112, 8445.769
798.3933, 8400.604
798.8754, 8373.142
799.3575, 8349.141
799.8397, 8320.155
800.3218, 8288.853
800.8039, 8260.576
801.2860, 8236.632
801.7681, 8215.989
802.2502, 8199.250
802.7324, 8184.627
803.2145, 8176.661
803.6966, 8167.697
804.1787, 8139.054
804.6608, 8089.121
805.1429, 8041.594
805.6251, 8019.379
806.1072, 8008.723
806.5893, 7975.078
807.0714, 7922.937
807.5535, 7890.571
808.0356, 7885.604
808.5178, 7879.848
808.9999, 7852.824
809.4820, 7815.931
809.9641, 7800.366
810.4462, 7815.916
810.9283, 7816.616
811.4105, 7797.569
811.8926, 7771.580
812.3747, 7741.436
812.8568, 7708.138
813.3389, 7668.437
813.8210, 7622.631
814.3032, 7593.783
814.7853, 7602.377
815.2674, 7606.802
815.7495, 7591.911
816.2316, 7567.513
816.7137, 7535.589
817.1959, 7502.747
817.6780, 7485.439
818.1601, 7493.959
818.6422, 7503.020
819.1243, 7490.830
819.6064, 7465.478
820.0886, 7436.220
820.5707, 7405.296
821.0528, 7379.650
821.5349, 7360.979
822.0170, 7336.989
822.4991, 7288.937
822.9813, 7226.724
823.4634, 7198.406
823.9455, 7206.114
824.4276, 7195.814
824.9097, 7150.971
825.3918, 7109.000
825.8740, 7101.874
826.3561, 7116.322
826.8382, 7106.545
827.3203, 7055.534
827.8024, 7019.637
828.2845, 7008.825
828.7667, 7001.111
829.2488, 6993.029
829.7309, 6981.129
830.2130, 6961.309
830.6951, 6933.313
831.1772, 6900.292
831.6594, 6851.890
832.1415, 6812.178
832.6236, 6798.774
833.1057, 6793.671
833.5878, 6783.010
834.0699, 6763.126
834.5521, 6728.647
835.0342, 6673.891
835.5163, 6622.679
835.9984, 6599.988
836.4805, 6593.438
836.9626, 6583.663
837.4448, 6570.967
837.9269, 6563.480
838.4090, 6563.440
838.8911, 6560.011
839.3732, 6538.803
839.8553, 6507.695
840.3375, 6501.596
840.8196, 6521.378
841.3017, 6517.239
841.7838, 6475.865
842.2659, 6432.525
842.7480, 6412.065
843.2302, 6404.519
843.7123, 6383.169
844.1944, 6339.628
844.6765, 6311.146
845.1586, 6314.380
845.6407, 6307.863
846.1229, 6262.151
846.6050, 6211.013
847.0871, 6191.876
847.5692, 6202.099
848.0513, 6202.287
848.5334, 6172.761
849.0156, 6151.962
849.4977, 6161.363
849.9798, 6173.451
850.4619, 6163.508
850.9440, 6139.885
851.4261, 6125.523
851.9083, 6128.118
852.3904, 6128.508
852.8725, 6109.218
853.3546, 6085.484
853.8367, 6073.138
854.3188, 6068.886
854.8010, 6065.462
855.2831, 6061.089
855.7652, 6056.829
856.2473, 6053.226
856.7294, 6050.897
857.2115, 6053.555
857.6937, 6058.769
858.1758, 6052.363
858.6579, 6033.681
859.1400, 6021.685
859.6221, 6025.349
860.1042, 6038.689
860.5864, 6055.839
861.0685, 6076.034
861.5506, 6076.624
862.0327, 6048.178
862.5148, 6037.609
862.9969, 6058.561
863.4791, 6093.854
863.9612, 6135.875
864.4433, 6180.142
864.9254, 6209.229
865.4075, 6212.971
865.8896, 6222.913
866.3718, 6231.660
866.8539, 6255.210
867.3360, 6313.340
867.8181, 6380.186
868.3002, 6421.295
868.7823, 6437.326
869.2645, 6468.699
869.7466, 6536.639
870.2287, 6607.183
870.7108, 6666.835
871.1929, 6723.873
871.6750, 6782.892
872.1572, 6845.859
872.6393, 6916.335
873.1214, 6995.965
873.6035, 7074.792
874.0856, 7151.365
874.5677, 7219.116
875.0499, 7258.211
875.5320, 7287.001
876.0141, 7348.959
876.4962, 7446.835
876.9783, 7543.609
877.4604, 7615.387
877.9426, 7668.100
878.4247, 7701.694
878.9068, 7723.949
879.3889, 7769.953
879.8710, 7839.070
880.3531, 7894.759
880.8353, 7921.432
881.3174, 7938.094
881.7995, 7969.596
882.2816, 8010.143
882.7637, 8020.802
883.2458, 7998.192
883.7280, 7971.170
884.2101, 7946.055
884.6922, 7910.514
885.1743, 7851.415
885.6564, 7783.462
886.1385, 7741.431
886.6207, 7736.862
887.1028, 7705.852
887.5849, 7630.472
888.0670, 7557.507
888.5491, 7491.644
889.0313, 7439.778
889.5134, 7420.268
889.9955, 7422.052
890.4776, 7393.262
890.9597, 7310.360
891.4418, 7233.654
891.9240, 7169.344
892.4061, 7114.898
892.8882, 7073.022
893.3703, 7037.534
893.8524, 7002.010
894.3345, 6965.117
894.8167, 6925.520
895.2988, 6879.215
895.7809, 6834.544
896.2630, 6792.249
896.7451, 6756.393
897.2272, 6731.172
897.7094, 6716.278
898.1915, 6712.726
898.6736, 6721.018
899.1557, 6726.165
899.6378, 6710.029
900.1199, 6689.040
900.6021, 6685.955
901.0842, 6693.108
901.5663, 6693.789
902.0484, 6685.486
902.5305, 6674.571
903.0126, 6664.816
903.4948, 6655.809
903.9769, 6644.973
904.4590, 6634.719
904.9411, 6633.838
905.4232, 6641.807
905.9053, 6653.568
906.3875, 6667.360
906.8696, 6677.145
907.3517, 6676.119
907.8338, 6668.246
908.3159, 6667.121
908.7980, 6672.815
909.2802, 6675.701
909.7623, 6674.835
910.2444, 6668.939
910.7265, 6654.412
911.2086, 6644.081
911.6907, 6658.875
912.1729, 6698.364
912.6550, 6725.624
913.1371, 6736.110
913.6192, 6750.189
914.1013, 6778.058
914.5834, 6796.176
915.0656, 6778.507
915.5477, 6747.125
916.0298, 6755.148
916.5119, 6815.973
916.9940, 6866.339
917.4761, 6907.150
917.9583, 6936.080
918.4404, 6942.095
918.9225, 6945.308
919.4046, 6959.970
919.8867, 6985.039
920.3688, 7016.108
920.8510, 7055.944
921.3331, 7095.126
921.8152, 7132.880
922.2973, 7169.073
922.7794, 7194.778
923.2615, 7224.884
923.7437, 7281.033
924.2258, 7360.836
924.7079, 7434.753
925.1900, 7496.095
925.6721, 7547.121
926.1542, 7582.167
926.6364, 7613.170
927.1185, 7639.953
927.6006, 7673.250
928.0827, 7731.553
928.5648, 7817.585
929.0469, 7913.228
929.5291, 8032.226
930.0112, 8129.457
930.4933, 8147.166
930.9754, 8140.368
931.4575, 8178.393
931.9396, 8255.597
932.4218, 8333.955
932.9039, 8399.979
933.3860, 8463.950
933.8681, 8537.802
934.3502, 8611.901
934.8323, 8671.934
935.3145, 8722.954
935.7966, 8773.543
936.2787, 8825.088
936.7608, 8878.086
937.2429, 8933.162
937.7250, 8980.621
938.2072, 9005.324
938.6893, 9015.143
939.1714, 9026.003
939.6535, 9038.569
940.1356, 9055.492
940.6177, 9076.540
941.0999, 9091.996
941.5820, 9093.544
942.0641, 9093.564
942.5462, 9120.408
943.0283, 9166.591
943.5104, 9188.491
943.9926, 9186.722
944.4747, 9197.186
944.9568, 9231.282
945.4389, 9266.854
945.9210, 9285.559
946.4031, 9287.099
946.8853, 9266.897
947.3674, 9225.013
947.8495, 9184.631
948.3316, 9147.109
948.8137, 9112.629
949.2958, 9081.517
949.7780, 9051.953
950.2601, 9020.883
950.7422, 8990.585
951.2243, 8979.746
951.7064, 8997.068
952.1885, 8971.965
952.6707, 8885.565
953.1528, 8805.218
953.6349, 8767.396
954.1170, 8739.712
954.5991, 8675.269
955.0812, 8576.658
955.5634, 8495.798
956.0455, 8443.309
956.5276, 8376.226
957.0097, 8285.047
957.4918, 8185.977
957.9739, 8085.460
958.4561, 7984.529
958.9382, 7886.611
959.4203, 7792.453
959.9024, 7684.804
960.3845, 7555.653
960.8666, 7428.583
961.3488, 7302.120
961.8309, 7185.892
962.3130, 7099.283
962.7951, 7020.556
963.2772, 6899.025
963.7593, 6718.793
964.2415, 6581.182
964.7236, 6524.013
965.2057, 6454.436
965.6878, 6340.123
966.1699, 6224.701
966.6520, 6140.505
967.1342, 6074.093
967.6163, 5994.530
968.0984, 5896.962
968.5805, 5803.076
969.0626, 5707.829
969.5447, 5623.951
970.0269, 5563.045
970.5090, 5506.968
970.9911, 5433.635
971.4732, 5355.158
971.9553, 5308.884
972.4374, 5311.820
972.9196, 5297.930
973.4017, 5238.446
973.8838, 5185.643
974.3659, 5169.703
974.8480, 5158.375
975.3301, 5116.896
975.8123, 5055.773
976.2944, 5013.115
976.7765, 4999.078
977.2586, 4989.632
977.7407, 4981.012
978.2228, 4974.139
978.7050, 4969.892
979.1871, 4967.268
979.6692, 4969.355
980.1513, 4972.249
980.6334, 4961.898
981.1155, 4929.157
981.5977, 4902.518
982.0798, 4895.646
982.5619, 4890.844
983.0440, 4876.933
983.5261, 4861.736
984.0082, 4856.008
984.4904, 4857.602
984.9725, 4854.206
985.4546, 4838.648
985.9367, 4829.746
986.4188, 4847.003
986.9009, 4858.426
987.3831, 4836.092
987.8652, 4803.831
988.3473, 4791.026
988.8294, 4796.463
989.3115, 4801.028
989.7936, 4800.995
990.2758, 4793.683
990.7579, 4765.049
991.2400, 4742.941
991.7221, 4750.259
992.2042, 4771.149
992.6863, 4790.881
993.1685, 4804.741
993.6506, 4805.007
994.1327, 4783.989
994.6148, 4764.276
995.0969, 4751.880
995.5790, 4748.500
996.0612, 4767.510
996.5433, 4788.382
997.0254, 4779.479
997.5075, 4745.927
997.9896, 4724.970
998.4717, 4731.955
998.9539, 4744.771
999.4360, 4763.666
999.9181, 4773.713
1000.400, 4753.578
1000.882, 4725.351
1001.364, 4720.251
1001.847, 4735.745
1002.329, 4744.797
1002.811, 4736.929
1003.293, 4725.433
1003.775, 4713.583
1004.257, 4703.412
1004.739, 4696.879
1005.221, 4692.595
1005.703, 4687.024
1006.186, 4681.778
1006.668, 4685.873
1007.150, 4708.238
1007.632, 4719.903
1008.114, 4695.626
1008.596, 4669.634
1009.078, 4666.650
1009.560, 4673.060
1010.043, 4674.038
1010.525, 4667.392
1011.007, 4652.408
1011.489, 4623.711
1011.971, 4605.761
1012.453, 4619.661
1012.935, 4635.250
1013.417, 4628.893
1013.899, 4618.056
1014.382, 4629.194
1014.864, 4654.759
1015.346, 4660.034
1015.828, 4628.172
1016.310, 4607.847
1016.792, 4633.298
1017.274, 4656.734
1017.756, 4645.546
1018.239, 4624.502
1018.721, 4619.077
1019.203, 4627.315
1019.685, 4636.274
1020.167, 4644.006
1020.649, 4647.060
1021.131, 4636.976
1021.613, 4631.094
1022.095, 4638.932
1022.578, 4653.302
1023.060, 4671.507
1023.542, 4689.747
1024.024, 4699.346
1024.506, 4696.917
1024.988, 4697.536
1025.470, 4708.686
1025.952, 4718.814
1026.435, 4717.165
1026.917, 4718.718
1027.399, 4742.296
1027.881, 4776.333
1028.363, 4791.845
1028.845, 4781.211
1029.327, 4786.301
1029.809, 4833.155
1030.292, 4870.966
1030.774, 4876.785
1031.256, 4878.761
1031.738, 4895.286
1032.220, 4921.716
1032.702, 4950.697
1033.184, 4982.413
1033.666, 5005.773
1034.148, 5008.693
1034.630, 5019.098
1035.113, 5045.366
1035.595, 5076.033
1036.077, 5110.437
1036.559, 5142.325
1037.041, 5156.961
1037.523, 5153.292
1038.005, 5170.900
1038.487, 5229.831
1038.970, 5277.817
1039.452, 5302.794
1039.934, 5328.780
1040.416, 5374.381
1040.898, 5418.940
1041.380, 5432.613
1041.862, 5419.284
1042.344, 5422.949
1042.826, 5451.104
1043.309, 5479.730
1043.791, 5506.979
1044.273, 5537.060
1044.755, 5574.919
1045.237, 5612.073
1045.719, 5641.155
1046.201, 5662.146
1046.683, 5675.145
1047.166, 5679.839
1047.648, 5676.879
1048.130, 5662.941
1048.612, 5651.594
1049.094, 5648.213
1049.576, 5645.162
1050.058, 5635.670
1050.540, 5622.266
1051.022, 5612.003
1051.505, 5605.376
1051.987, 5598.147
1052.469, 5591.486
1052.951, 5576.616
1053.433, 5550.831
1053.915, 5519.271
1054.397, 5484.062
1054.879, 5448.588
1055.361, 5420.805
1055.844, 5399.088
1056.326, 5359.250
1056.808, 5301.160
1057.290, 5259.147
1057.772, 5239.121
1058.254, 5229.311
1058.736, 5224.500
1059.218, 5216.489
1059.701, 5195.096
1060.183, 5161.362
1060.665, 5112.900
1061.147, 5054.147
1061.629, 5012.480
1062.111, 4988.959
1062.593, 4967.806
1063.075, 4942.422
1063.557, 4907.858
1064.040, 4854.922
1064.522, 4799.729
1065.004, 4778.837
1065.486, 4776.795
1065.968, 4753.828
1066.450, 4713.758
1066.932, 4680.370
1067.414, 4659.734
1067.896, 4644.207
1068.379, 4630.638
1068.861, 4612.537
1069.343, 4575.309
1069.825, 4534.556
1070.307, 4513.901
1070.789, 4505.960
1071.271, 4494.607
1071.753, 4477.918
1072.236, 4463.908
1072.718, 4457.437
1073.200, 4444.360
1073.682, 4402.641
1074.164, 4362.530
1074.646, 4357.315
1075.128, 4362.512
1075.610, 4344.554
1076.093, 4310.123
1076.575, 4286.789
1077.057, 4282.119
1077.539, 4276.898
1078.021, 4259.967
1078.503, 4244.482
1078.985, 4245.084
1079.467, 4240.877
1079.949, 4205.142
1080.432, 4158.445
1080.914, 4136.847
1081.396, 4143.378
1081.878, 4149.797
1082.360, 4160.426
1082.842, 4156.225
1083.324, 4116.125
1083.806, 4082.427
1084.288, 4080.831
1084.771, 4090.245
1085.253, 4088.659
1085.735, 4077.942
1086.217, 4068.195
1086.699, 4063.934
1087.181, 4047.812
1087.663, 4010.381
1088.145, 3980.400
1088.628, 3966.414
1089.110, 3959.981
1089.592, 3956.626
1090.074, 3954.469
1090.556, 3948.490
1091.038, 3938.278
1091.520, 3939.132
1092.002, 3955.168
1092.484, 3953.148
1092.967, 3924.785
1093.449, 3897.454
1093.931, 3884.562
1094.413, 3880.985
1094.895, 3881.200
1095.377, 3883.986
1095.859, 3888.154
1096.341, 3891.807
1096.823, 3872.718
1097.306, 3833.372
1097.788, 3815.161
1098.270, 3830.343
1098.752, 3852.282
1099.234, 3860.786
1099.716, 3860.565
1100.198, 3855.244
1100.680, 3848.385
1101.163, 3852.127
1101.645, 3859.287
1102.127, 3846.303
1102.609, 3815.345
1103.091, 3793.640
1103.573, 3794.328
1104.055, 3801.646
1104.537, 3810.407
1105.020, 3811.625
1105.502, 3789.817
1105.984, 3761.089
1106.466, 3743.034
1106.948, 3735.199
1107.430, 3732.146
1107.912, 3732.582
1108.394, 3737.771
1108.876, 3756.450
1109.359, 3767.514
1109.841, 3755.746
1110.323, 3742.233
1110.805, 3740.668
1111.287, 3744.101
1111.769, 3745.485
1112.251, 3743.650
1112.733, 3735.475
1113.215, 3716.178
1113.698, 3701.842
1114.180, 3696.023
1114.662, 3689.957
1115.144, 3675.864
1115.626, 3669.765
1116.108, 3686.909
1116.590, 3714.713
1117.072, 3731.250
1117.555, 3736.517
1118.037, 3723.489
1118.519, 3685.491
1119.001, 3669.113
1119.483, 3682.870
1119.965, 3698.053
1120.447, 3702.663
1120.929, 3704.133
1121.411, 3710.284
1121.894, 3718.449
1122.376, 3725.898
1122.858, 3729.369
1123.340, 3704.593
1123.822, 3657.685
1124.304, 3623.150
1124.786, 3609.481
1125.268, 3613.208
1125.750, 3633.152
1126.233, 3655.752
1126.715, 3665.710
1127.197, 3669.071
1127.679, 3674.121
1128.161, 3678.440
1128.643, 3675.287
1129.125, 3668.375
1129.607, 3671.740
1130.090, 3686.953
1130.572, 3690.651
1131.054, 3663.214
1131.536, 3635.565
1132.018, 3617.839
1132.500, 3611.820
1132.982, 3628.462
1133.464, 3650.331
1133.947, 3657.604
1134.429, 3651.198
1134.911, 3641.781
1135.393, 3630.445
1135.875, 3616.814
1136.357, 3591.179
1136.839, 3578.286
1137.321, 3589.733
1137.803, 3604.264
1138.286, 3611.771
1138.768, 3612.829
1139.250, 3605.766
1139.732, 3592.773
1140.214, 3598.083
1140.696, 3626.510
1141.178, 3633.330
1141.660, 3613.498
1142.142, 3595.920
1142.625, 3589.636
1143.107, 3592.521
1143.589, 3604.524
1144.071, 3616.568
1144.553, 3612.743
1145.035, 3596.227
1145.517, 3568.421
1145.999, 3537.742
1146.482, 3534.565
1146.964, 3555.707
1147.446, 3569.759
1147.928, 3565.603
1148.410, 3563.780
1148.892, 3584.901
1149.374, 3605.183
1149.856, 3600.517
1150.339, 3587.488
1150.821, 3581.412
1151.303, 3578.963
1151.785, 3572.022
1152.267, 3561.746
1152.749, 3557.864
1153.231, 3565.592
1153.713, 3568.282
1154.195, 3555.896
1154.677, 3546.656
1155.160, 3551.032
1155.642, 3554.520
1156.124, 3545.060
1156.606, 3531.866
1157.088, 3528.063
1157.570, 3533.162
1158.052, 3543.065
1158.534, 3561.675
1159.017, 3566.007
1159.499, 3552.872
1159.981, 3536.521
1160.463, 3520.362
1160.945, 3508.977
1161.427, 3506.054
1161.909, 3507.345
1162.391, 3506.668
1162.874, 3503.873
1163.356, 3495.165
1163.838, 3484.458
1164.320, 3486.069
1164.802, 3498.875
1165.284, 3514.602
1165.766, 3529.072
1166.248, 3531.998
1166.730, 3511.057
1167.213, 3490.582
1167.695, 3496.786
1168.177, 3505.995
1168.659, 3487.332
1169.141, 3466.162
1169.623, 3482.525
1170.105, 3524.392
1170.587, 3548.474
1171.069, 3545.585
1171.552, 3538.532
1172.034, 3525.258
1172.516, 3517.315
1172.998, 3524.926
1173.480, 3525.449
1173.962, 3503.687
1174.444, 3478.472
1174.926, 3469.765
1175.409, 3473.219
1175.891, 3474.780
1176.373, 3474.571
1176.855, 3468.270
1177.337, 3455.494
1177.819, 3455.545
1178.301, 3471.630
1178.783, 3486.778
1179.266, 3492.779
1179.748, 3488.142
1180.230, 3467.324
1180.712, 3442.369
1181.194, 3430.945
1181.676, 3430.365
1182.158, 3442.048
1182.640, 3458.552
1183.122, 3464.409
1183.604, 3459.949
1184.087, 3458.685
1184.569, 3466.484
1185.051, 3470.201
1185.533, 3463.332
1186.015, 3451.811
1186.497, 3433.721
1186.979, 3416.500
1187.461, 3404.408
1187.944, 3396.833
1188.426, 3391.771
1188.908, 3389.797
1189.390, 3395.626
1189.872, 3413.091
1190.354, 3424.923
1190.836, 3430.708
1191.318, 3432.622
1191.801, 3430.941
1192.283, 3426.058
1192.765, 3417.717
1193.247, 3410.336
1193.729, 3410.457
1194.211, 3414.004
1194.693, 3409.656
1195.175, 3401.112
1195.657, 3396.136
1196.140, 3396.374
1196.622, 3409.712
1197.104, 3432.091
1197.586, 3438.493
1198.068, 3416.114
1198.550, 3395.686
1199.032, 3397.402
1199.514, 3405.358
1199.996, 3421.224
1200.479, 3428.674
1200.961, 3403.615
1201.443, 3369.021
1201.925, 3362.780
1202.407, 3381.623
1202.889, 3384.690
1203.371, 3362.145
1203.853, 3356.557
1204.336, 3375.640
1204.818, 3385.649
1205.300, 3377.666
1205.782, 3369.781
1206.264, 3371.349
1206.746, 3380.259
1207.228, 3397.444
1207.710, 3413.363
1208.193, 3393.386
1208.675, 3356.135
1209.157, 3364.311
1209.639, 3402.003
1210.121, 3414.728
1210.603, 3397.747
1211.085, 3376.937
1211.567, 3362.266
1212.049, 3357.305
1212.531, 3371.659
1213.014, 3386.147
1213.496, 3391.502
1213.978, 3392.484
1214.460, 3387.657
1214.942, 3383.835
1215.424, 3394.023
1215.906, 3411.858
1216.388, 3412.379
1216.871, 3391.532
1217.353, 3378.163
1217.835, 3372.990
1218.317, 3373.876
1218.799, 3382.331
1219.281, 3382.620
1219.763, 3367.483
1220.245, 3351.354
1220.728, 3346.591
1221.210, 3351.796
1221.692, 3373.310
1222.174, 3397.579
1222.656, 3391.790
1223.138, 3369.037
1223.620, 3353.642
1224.102, 3348.578
1224.584, 3353.694
1225.067, 3367.198
1225.549, 3371.264
1226.031, 3345.168
1226.513, 3334.449
1226.995, 3372.105
1227.477, 3405.245
1227.959, 3411.757
##END=



