##NAMES=Tsepinite-Ca
##RRUFFID=R060833
##IDEAL CHEMISTRY=(Ca,K,Na)_2-x_(Ti^4+^,Nb^5+^)_2_Si_4_O_12_(OH,O)_2_&#183;4H_2_O
##LOCALITY=Hackmann Valley, Yukspor Mountain, Khibiny, Kola, Russia
##OWNER=RRUFF
##SOURCE=Michael Scott
##DESCRIPTION=Groups of tan colored parallel prismatic crystals associated with eudialyte and arfvedsonite
##STATUS=The identification of this mineral has been confirmed by single-crystal X-ray diffraction.
##URL=rruff.info/R060833
172.1497, 14217.43
172.6318, 14254.69
173.1139, 14265.37
173.5960, 14240.96
174.0781, 14213.28
174.5603, 14220.83
175.0424, 14261.83
175.5245, 14301.78
176.0066, 14333.63
176.4887, 14360.70
176.9708, 14386.02
177.4530, 14409.46
177.9351, 14434.43
178.4172, 14464.69
178.8993, 14499.80
179.3814, 14538.45
179.8635, 14580.70
180.3457, 14625.91
180.8278, 14671.72
181.3099, 14715.91
181.7920, 14766.49
182.2741, 14834.36
182.7562, 14916.81
183.2384, 15004.87
183.7205, 15100.58
184.2026, 15198.75
184.6847, 15295.61
185.1668, 15393.21
185.6489, 15477.69
186.1311, 15517.54
186.6132, 15522.50
187.0953, 15549.11
187.5774, 15629.02
188.0595, 15738.06
188.5416, 15839.50
189.0238, 15932.34
189.5059, 16007.37
189.9880, 16042.32
190.4701, 16046.78
190.9522, 16061.30
191.4343, 16099.45
191.9165, 16155.72
192.3986, 16223.95
192.8807, 16307.19
193.3628, 16392.03
193.8449, 16467.64
194.3270, 16535.78
194.8092, 16597.14
195.2913, 16644.95
195.7734, 16688.50
196.2555, 16746.45
196.7376, 16825.06
197.2197, 16903.06
197.7019, 16958.08
198.1840, 16996.71
198.6661, 17036.05
199.1482, 17074.41
199.6303, 17119.04
200.1124, 17184.72
200.5946, 17276.95
201.0767, 17373.61
201.5588, 17456.63
202.0409, 17529.42
202.5230, 17600.41
203.0051, 17679.39
203.4873, 17754.77
203.9694, 17806.01
204.4515, 17827.87
204.9336, 17842.86
205.4157, 17857.42
205.8978, 17876.91
206.3800, 17920.04
206.8621, 18019.71
207.3442, 18133.54
207.8263, 18194.10
208.3084, 18190.19
208.7905, 18191.78
209.2727, 18259.98
209.7548, 18372.21
210.2369, 18476.11
210.7190, 18555.14
211.2011, 18623.15
211.6832, 18696.19
212.1654, 18775.00
212.6475, 18849.82
213.1296, 18907.78
213.6117, 18957.39
214.0938, 19018.36
214.5759, 19098.65
215.0581, 19188.39
215.5402, 19281.67
216.0223, 19378.69
216.5044, 19471.97
216.9865, 19559.67
217.4686, 19639.89
217.9508, 19709.97
218.4329, 19764.59
218.9150, 19813.81
219.3971, 19861.55
219.8792, 19908.60
220.3613, 19968.30
220.8435, 20061.96
221.3256, 20167.33
221.8077, 20233.39
222.2898, 20236.16
222.7719, 20228.04
223.2540, 20251.10
223.7362, 20299.88
224.2183, 20335.46
224.7004, 20334.08
225.1825, 20310.96
225.6646, 20302.94
226.1467, 20314.04
226.6289, 20331.99
227.1110, 20352.76
227.5931, 20375.19
228.0752, 20392.64
228.5573, 20396.30
229.0394, 20400.46
229.5216, 20440.46
230.0037, 20543.79
230.4858, 20614.28
230.9679, 20578.53
231.4500, 20475.89
231.9321, 20410.98
232.4143, 20428.71
232.8964, 20480.50
233.3785, 20475.50
233.8606, 20402.00
234.3427, 20331.67
234.8248, 20286.62
235.3070, 20259.57
235.7891, 20241.91
236.2712, 20233.76
236.7533, 20224.25
237.2354, 20195.05
237.7175, 20144.15
238.1997, 20089.91
238.6818, 20029.78
239.1639, 19970.18
239.6460, 19923.44
240.1281, 19892.89
240.6102, 19861.04
241.0924, 19806.63
241.5745, 19726.22
242.0566, 19638.13
242.5387, 19527.79
243.0208, 19420.00
243.5029, 19341.57
243.9851, 19295.04
244.4672, 19258.72
244.9493, 19214.35
245.4314, 19161.31
245.9135, 19096.64
246.3956, 19011.79
246.8778, 18922.42
247.3599, 18834.52
247.8420, 18750.44
248.3241, 18678.98
248.8062, 18628.90
249.2883, 18601.00
249.7705, 18565.13
250.2526, 18511.25
250.7347, 18459.66
251.2168, 18421.40
251.6989, 18393.25
252.1810, 18365.86
252.6632, 18333.60
253.1453, 18296.42
253.6274, 18254.32
254.1095, 18207.57
254.5916, 18156.05
255.0737, 18085.10
255.5559, 18011.21
256.0380, 17964.83
256.5201, 17963.31
257.0022, 17993.75
257.4843, 18010.00
257.9665, 18024.91
258.4486, 18008.16
258.9307, 17929.30
259.4128, 17828.26
259.8949, 17754.29
260.3770, 17726.09
260.8592, 17719.02
261.3413, 17679.09
261.8234, 17558.87
262.3055, 17480.95
262.7876, 17474.27
263.2697, 17490.12
263.7519, 17494.68
264.2340, 17478.12
264.7161, 17444.91
265.1982, 17399.51
265.6803, 17335.46
266.1624, 17275.08
266.6446, 17209.78
267.1267, 17154.35
267.6088, 17121.04
268.0909, 17107.77
268.5730, 17101.77
269.0551, 17094.05
269.5373, 17086.84
270.0194, 17059.04
270.5015, 16969.33
270.9836, 16895.80
271.4657, 16879.82
271.9478, 16903.67
272.4300, 16918.35
272.9121, 16881.33
273.3942, 16803.16
273.8763, 16764.25
274.3584, 16797.99
274.8405, 16826.22
275.3227, 16820.60
275.8048, 16793.00
276.2869, 16759.79
276.7690, 16725.91
277.2511, 16695.53
277.7332, 16678.63
278.2154, 16676.67
278.6975, 16684.49
279.1796, 16713.42
279.6617, 16745.02
280.1438, 16758.97
280.6259, 16746.93
281.1081, 16725.07
281.5902, 16714.00
282.0723, 16714.97
282.5544, 16710.91
283.0365, 16691.35
283.5186, 16668.44
284.0008, 16654.46
284.4829, 16651.28
284.9650, 16648.79
285.4471, 16642.70
285.9292, 16632.11
286.4113, 16611.48
286.8935, 16577.28
287.3756, 16536.25
287.8577, 16497.99
288.3398, 16462.30
288.8219, 16416.68
289.3040, 16344.15
289.7862, 16262.23
290.2683, 16197.97
290.7504, 16154.97
291.2325, 16131.65
291.7146, 16139.67
292.1967, 16172.55
292.6789, 16183.42
293.1610, 16158.70
293.6431, 16114.47
294.1252, 16055.12
294.6073, 15983.68
295.0894, 15921.73
295.5716, 15883.63
296.0537, 15867.51
296.5358, 15856.13
297.0179, 15853.26
297.5000, 15850.12
297.9821, 15840.08
298.4643, 15826.75
298.9464, 15819.19
299.4285, 15822.25
299.9106, 15831.37
300.3927, 15834.63
300.8748, 15834.50
301.3570, 15824.75
301.8391, 15789.55
302.3212, 15751.21
302.8033, 15742.19
303.2854, 15769.64
303.7675, 15800.48
304.2497, 15783.17
304.7318, 15683.16
305.2139, 15621.81
305.6960, 15626.54
306.1781, 15642.34
306.6602, 15642.98
307.1424, 15623.13
307.6245, 15584.86
308.1066, 15529.24
308.5887, 15455.95
309.0708, 15371.44
309.5529, 15262.96
310.0351, 15155.77
310.5172, 15056.88
310.9993, 14964.40
311.4814, 14875.68
311.9635, 14791.06
312.4456, 14706.85
312.9278, 14606.86
313.4099, 14476.28
313.8920, 14358.77
314.3741, 14272.64
314.8562, 14199.43
315.3383, 14123.69
315.8205, 14041.18
316.3026, 13949.87
316.7847, 13839.76
317.2668, 13706.37
317.7489, 13591.48
318.2310, 13517.59
318.7132, 13454.14
319.1953, 13378.45
319.6774, 13289.77
320.1595, 13198.67
320.6416, 13112.05
321.1237, 13028.70
321.6059, 12943.94
322.0880, 12851.55
322.5701, 12768.05
323.0522, 12713.08
323.5343, 12678.80
324.0164, 12640.84
324.4986, 12599.52
324.9807, 12546.51
325.4628, 12461.89
325.9449, 12345.94
326.4270, 12242.80
326.9091, 12184.13
327.3913, 12158.76
327.8734, 12118.24
328.3555, 12053.07
328.8376, 11984.48
329.3197, 11921.80
329.8018, 11863.03
330.2840, 11802.90
330.7661, 11739.66
331.2482, 11674.10
331.7303, 11607.08
332.2124, 11538.98
332.6945, 11468.88
333.1767, 11391.07
333.6588, 11314.85
334.1409, 11247.84
334.6230, 11191.56
335.1051, 11143.78
335.5872, 11103.28
336.0694, 11073.49
336.5515, 11032.21
337.0336, 10976.04
337.5157, 10913.86
337.9978, 10840.24
338.4799, 10763.12
338.9621, 10698.65
339.4442, 10659.02
339.9263, 10637.20
340.4084, 10600.28
340.8905, 10529.87
341.3727, 10473.00
341.8548, 10441.31
342.3369, 10424.24
342.8190, 10414.02
343.3011, 10408.26
343.7832, 10401.42
344.2654, 10387.42
344.7475, 10366.48
345.2296, 10334.22
345.7117, 10270.46
346.1938, 10212.46
346.6759, 10190.04
347.1581, 10200.11
347.6402, 10212.18
348.1223, 10210.31
348.6044, 10196.19
349.0865, 10170.99
349.5686, 10129.73
350.0508, 10093.43
350.5329, 10085.17
351.0150, 10093.23
351.4971, 10089.49
351.9792, 10061.32
352.4613, 10026.33
352.9435, 10001.00
353.4256, 9982.412
353.9077, 9953.548
354.3898, 9903.278
354.8719, 9842.771
355.3540, 9801.254
355.8362, 9785.666
356.3183, 9769.765
356.8004, 9751.444
357.2825, 9728.284
357.7646, 9693.170
358.2467, 9645.496
358.7289, 9600.082
359.2110, 9575.637
359.6931, 9579.883
360.1752, 9570.283
360.6573, 9539.482
361.1394, 9504.425
361.6216, 9467.837
362.1037, 9433.384
362.5858, 9407.712
363.0679, 9396.058
363.5500, 9394.972
364.0321, 9388.723
364.5143, 9376.382
364.9964, 9359.570
365.4785, 9334.987
365.9606, 9308.474
366.4427, 9285.537
366.9248, 9267.697
367.4070, 9252.419
367.8891, 9232.094
368.3712, 9204.751
368.8533, 9199.885
369.3354, 9240.584
369.8175, 9283.750
370.2997, 9299.815
370.7818, 9292.991
371.2639, 9283.636
371.7460, 9279.352
372.2281, 9280.073
372.7102, 9289.221
373.1924, 9308.821
373.6745, 9321.924
374.1566, 9317.968
374.6387, 9299.869
375.1208, 9276.130
375.6029, 9232.168
376.0851, 9203.904
376.5672, 9226.123
377.0493, 9277.065
377.5314, 9305.697
378.0135, 9293.683
378.4956, 9264.051
378.9778, 9251.985
379.4599, 9268.254
379.9420, 9274.065
380.4241, 9262.219
380.9062, 9245.026
381.3883, 9229.955
381.8705, 9217.839
382.3526, 9206.642
382.8347, 9194.528
383.3168, 9181.954
383.7989, 9174.835
384.2810, 9183.486
384.7632, 9185.595
385.2453, 9165.163
385.7274, 9141.634
386.2095, 9141.060
386.6916, 9172.649
387.1737, 9215.327
387.6559, 9236.357
388.1380, 9231.809
388.6201, 9229.789
389.1022, 9233.726
389.5843, 9241.126
390.0664, 9252.660
390.5486, 9267.026
391.0307, 9278.528
391.5128, 9281.921
391.9949, 9280.701
392.4770, 9280.866
392.9591, 9281.815
393.4413, 9288.644
393.9234, 9307.890
394.4055, 9334.313
394.8876, 9354.771
395.3697, 9366.456
395.8518, 9375.657
396.3340, 9388.673
396.8161, 9400.998
397.2982, 9401.653
397.7803, 9386.730
398.2624, 9365.492
398.7445, 9350.481
399.2267, 9345.021
399.7088, 9334.965
400.1909, 9312.008
400.6730, 9291.768
401.1551, 9286.405
401.6372, 9292.343
402.1194, 9298.195
402.6015, 9297.169
403.0836, 9288.631
403.5657, 9268.455
404.0478, 9222.818
404.5299, 9186.950
405.0121, 9165.861
405.4942, 9155.739
405.9763, 9157.035
406.4584, 9168.776
406.9405, 9180.038
407.4226, 9177.433
407.9048, 9161.563
408.3869, 9148.340
408.8690, 9137.608
409.3511, 9132.060
409.8332, 9134.354
410.3153, 9142.753
410.7975, 9153.256
411.2796, 9165.773
411.7617, 9178.681
412.2438, 9188.141
412.7259, 9195.041
413.2080, 9208.964
413.6902, 9237.364
414.1723, 9270.370
414.6544, 9283.947
415.1365, 9268.759
415.6186, 9264.192
416.1007, 9290.769
416.5829, 9323.310
417.0650, 9332.536
417.5471, 9317.918
418.0292, 9304.229
418.5113, 9313.202
418.9934, 9344.670
419.4756, 9380.443
419.9577, 9426.177
420.4398, 9470.316
420.9219, 9515.015
421.4040, 9555.288
421.8861, 9583.599
422.3683, 9597.452
422.8504, 9604.802
423.3325, 9613.483
423.8146, 9621.314
424.2967, 9647.757
424.7788, 9710.479
425.2610, 9776.398
425.7431, 9826.018
426.2252, 9861.507
426.7073, 9892.288
427.1894, 9923.955
427.6715, 9952.910
428.1537, 9966.062
428.6358, 9963.718
429.1179, 9980.890
429.6000, 10043.24
430.0821, 10127.91
430.5642, 10180.64
431.0464, 10186.40
431.5285, 10201.42
432.0106, 10244.16
432.4927, 10302.18
432.9748, 10368.30
433.4569, 10438.18
433.9391, 10495.68
434.4212, 10521.46
434.9033, 10514.10
435.3854, 10537.07
435.8675, 10617.56
436.3496, 10697.44
436.8318, 10770.16
437.3139, 10832.50
437.7960, 10880.41
438.2781, 10911.98
438.7602, 10936.02
439.2423, 10963.13
439.7245, 10992.87
440.2066, 11029.89
440.6887, 11082.29
441.1708, 11133.59
441.6529, 11171.93
442.1350, 11200.37
442.6172, 11229.16
443.0993, 11266.54
443.5814, 11303.89
444.0635, 11325.54
444.5456, 11333.37
445.0277, 11353.81
445.5099, 11405.84
445.9920, 11467.51
446.4741, 11484.98
446.9562, 11436.17
447.4383, 11411.65
447.9204, 11444.30
448.4026, 11495.37
448.8847, 11527.27
449.3668, 11539.74
449.8489, 11557.94
450.3310, 11603.59
450.8131, 11673.08
451.2953, 11732.06
451.7774, 11772.48
452.2595, 11813.19
452.7416, 11854.55
453.2237, 11899.12
453.7059, 11949.36
454.1880, 12005.78
454.6701, 12068.50
455.1522, 12136.81
455.6343, 12211.03
456.1165, 12296.26
456.5986, 12398.76
457.0807, 12501.43
457.5628, 12588.58
458.0449, 12667.84
458.5270, 12756.38
459.0092, 12867.21
459.4913, 12976.25
459.9734, 13075.14
460.4555, 13158.95
460.9376, 13213.37
461.4197, 13232.19
461.9019, 13230.19
462.3840, 13227.14
462.8661, 13224.59
463.3482, 13214.31
463.8303, 13200.14
464.3124, 13175.56
464.7946, 13142.33
465.2767, 13095.92
465.7588, 13025.70
466.2409, 12924.45
466.7230, 12803.85
467.2051, 12688.53
467.6873, 12578.25
468.1694, 12474.22
468.6515, 12376.70
469.1336, 12286.14
469.6157, 12209.24
470.0978, 12142.53
470.5800, 12064.99
471.0621, 11947.75
471.5442, 11820.85
472.0263, 11738.81
472.5084, 11701.41
472.9905, 11655.75
473.4727, 11572.38
473.9548, 11468.13
474.4369, 11386.33
474.9190, 11335.51
475.4011, 11281.08
475.8832, 11212.60
476.3654, 11140.58
476.8475, 11068.56
477.3296, 11000.58
477.8117, 10947.87
478.2938, 10920.94
478.7759, 10916.30
479.2581, 10908.40
479.7402, 10895.91
480.2223, 10882.17
480.7044, 10871.08
481.1865, 10857.43
481.6686, 10835.24
482.1508, 10803.95
482.6329, 10770.74
483.1150, 10737.00
483.5971, 10705.92
484.0792, 10688.27
484.5613, 10685.24
485.0435, 10694.21
485.5256, 10722.08
486.0077, 10759.55
486.4898, 10778.14
486.9719, 10767.68
487.4540, 10753.58
487.9362, 10741.51
488.4183, 10733.03
488.9004, 10729.20
489.3825, 10730.57
489.8646, 10740.53
490.3467, 10765.31
490.8289, 10805.90
491.3110, 10827.26
491.7931, 10797.60
492.2752, 10785.25
492.7573, 10820.79
493.2394, 10873.06
493.7216, 10901.72
494.2037, 10895.50
494.6858, 10884.92
495.1679, 10899.03
495.6500, 10936.68
496.1321, 10993.90
496.6143, 11079.31
497.0964, 11160.41
497.5785, 11204.72
498.0606, 11226.35
498.5427, 11267.13
499.0248, 11346.81
499.5070, 11426.58
499.9891, 11482.11
500.4712, 11526.56
500.9533, 11578.26
501.4354, 11642.47
501.9175, 11722.63
502.3997, 11826.31
502.8818, 11958.36
503.3639, 12064.54
503.8460, 12110.77
504.3281, 12168.37
504.8102, 12249.71
505.2924, 12354.18
505.7745, 12488.28
506.2566, 12655.19
506.7387, 12819.53
507.2208, 12936.64
507.7029, 13012.07
508.1851, 13096.14
508.6672, 13195.63
509.1493, 13300.92
509.6314, 13404.95
510.1135, 13509.56
510.5956, 13619.02
511.0778, 13740.82
511.5599, 13859.84
512.0420, 13971.97
512.5241, 14075.84
513.0062, 14167.69
513.4883, 14246.88
513.9705, 14319.67
514.4526, 14392.08
514.9347, 14464.45
515.4168, 14533.23
515.8989, 14604.75
516.3810, 14663.88
516.8632, 14703.09
517.3453, 14729.41
517.8274, 14754.85
518.3095, 14782.93
518.7916, 14796.52
519.2737, 14772.18
519.7559, 14717.23
520.2380, 14663.95
520.7201, 14616.54
521.2022, 14567.21
521.6843, 14509.86
522.1664, 14446.08
522.6486, 14384.66
523.1307, 14340.71
523.6128, 14279.03
524.0949, 14173.57
524.5770, 14051.27
525.0591, 13949.82
525.5413, 13873.10
526.0234, 13790.62
526.5055, 13668.05
526.9876, 13509.68
527.4697, 13383.92
527.9518, 13315.30
528.4340, 13241.65
528.9161, 13150.45
529.3982, 13045.25
529.8803, 12922.31
530.3624, 12780.97
530.8445, 12650.12
531.3267, 12560.06
531.8088, 12490.95
532.2909, 12394.85
532.7730, 12268.05
533.2551, 12150.11
533.7372, 12068.32
534.2194, 12009.54
534.7015, 11930.44
535.1836, 11810.91
535.6657, 11704.58
536.1478, 11618.11
536.6299, 11545.44
537.1121, 11489.27
537.5942, 11443.92
538.0763, 11393.29
538.5584, 11324.48
539.0405, 11243.65
539.5226, 11172.34
540.0048, 11115.00
540.4869, 11049.41
540.9690, 10955.38
541.4511, 10863.60
541.9332, 10806.58
542.4153, 10782.18
542.8975, 10748.91
543.3796, 10683.42
543.8617, 10608.96
544.3438, 10543.31
544.8259, 10487.41
545.3080, 10441.38
545.7902, 10405.87
546.2723, 10376.96
546.7544, 10349.65
547.2365, 10332.71
547.7186, 10291.72
548.2007, 10192.60
548.6829, 10106.39
549.1650, 10070.30
549.6471, 10066.89
550.1292, 10063.53
550.6113, 10047.39
551.0934, 10023.28
551.5756, 9996.504
552.0577, 9967.001
552.5398, 9932.623
553.0219, 9892.233
553.5040, 9849.894
553.9861, 9809.184
554.4683, 9769.610
554.9504, 9726.248
555.4325, 9665.019
555.9146, 9616.858
556.3967, 9602.921
556.8788, 9602.647
557.3610, 9590.380
557.8431, 9561.640
558.3252, 9529.977
558.8073, 9510.442
559.2894, 9500.732
559.7715, 9472.162
560.2537, 9406.036
560.7358, 9360.356
561.2179, 9378.875
561.7000, 9413.017
562.1821, 9418.718
562.6642, 9390.988
563.1464, 9352.008
563.6285, 9303.292
564.1106, 9254.582
564.5927, 9218.396
565.0748, 9194.210
565.5569, 9178.078
566.0391, 9169.757
566.5212, 9161.519
567.0033, 9135.125
567.4854, 9080.257
567.9675, 9027.877
568.4496, 8965.738
568.9318, 8917.624
569.4139, 8905.211
569.8960, 8914.786
570.3781, 8916.720
570.8602, 8896.431
571.3423, 8868.090
571.8245, 8848.351
572.3066, 8836.366
572.7887, 8826.699
573.2708, 8819.106
573.7529, 8811.236
574.2350, 8801.324
574.7172, 8789.339
575.1993, 8775.101
575.6814, 8754.565
576.1635, 8736.876
576.6456, 8730.155
577.1277, 8724.346
577.6099, 8703.478
578.0920, 8668.286
578.5741, 8639.745
579.0562, 8641.289
579.5383, 8663.915
580.0204, 8663.229
580.5026, 8633.624
580.9847, 8600.366
581.4668, 8565.803
581.9489, 8536.705
582.4310, 8522.094
582.9131, 8522.639
583.3953, 8523.498
583.8774, 8527.375
584.3595, 8524.048
584.8416, 8499.113
585.3237, 8460.319
585.8058, 8426.441
586.2880, 8405.518
586.7701, 8395.749
587.2522, 8398.378
587.7343, 8419.888
588.2164, 8420.054
588.6985, 8375.528
589.1807, 8339.106
589.6628, 8338.710
590.1449, 8356.729
590.6270, 8367.204
591.1091, 8363.532
591.5912, 8354.792
592.0734, 8346.422
592.5555, 8337.265
593.0376, 8322.200
593.5197, 8301.812
594.0018, 8290.549
594.4839, 8301.462
594.9661, 8323.455
595.4482, 8314.825
595.9303, 8242.008
596.4124, 8195.377
596.8945, 8192.908
597.3766, 8201.449
597.8588, 8203.225
598.3409, 8198.939
598.8230, 8195.673
599.3051, 8196.185
599.7872, 8200.429
600.2693, 8211.813
600.7515, 8227.826
601.2336, 8236.715
601.7157, 8235.700
602.1978, 8227.705
602.6799, 8212.076
603.1620, 8189.585
603.6442, 8184.675
604.1263, 8211.673
604.6084, 8236.360
605.0905, 8257.984
605.5726, 8270.840
606.0547, 8266.212
606.5369, 8245.690
607.0190, 8222.064
607.5011, 8199.570
607.9832, 8184.142
608.4653, 8197.521
608.9474, 8240.577
609.4296, 8268.839
609.9117, 8263.981
610.3938, 8245.424
610.8759, 8237.369
611.3580, 8241.630
611.8401, 8241.169
612.3223, 8222.688
612.8044, 8213.613
613.2865, 8234.652
613.7686, 8268.322
614.2507, 8287.623
614.7328, 8286.619
615.2150, 8284.820
615.6971, 8306.707
616.1792, 8346.935
616.6613, 8374.021
617.1434, 8387.993
617.6255, 8387.098
618.1077, 8361.574
618.5898, 8328.039
619.0719, 8315.420
619.5540, 8326.341
620.0361, 8338.179
620.5182, 8345.297
621.0004, 8354.021
621.4825, 8370.364
621.9646, 8390.855
622.4467, 8408.914
622.9288, 8421.910
623.4109, 8430.880
623.8931, 8435.784
624.3752, 8436.692
624.8573, 8440.952
625.3394, 8449.269
625.8215, 8459.128
626.3036, 8463.959
626.7858, 8472.442
627.2679, 8504.499
627.7500, 8573.627
628.2321, 8620.130
628.7142, 8604.672
629.1964, 8580.227
629.6785, 8589.511
630.1606, 8627.728
630.6427, 8673.516
631.1248, 8717.044
631.6069, 8758.660
632.0891, 8801.269
632.5712, 8845.852
633.0533, 8874.255
633.5354, 8879.496
634.0175, 8880.353
634.4996, 8882.219
634.9818, 8888.427
635.4639, 8906.597
635.9460, 8941.808
636.4281, 8976.272
636.9102, 8995.996
637.3923, 9018.257
637.8745, 9066.714
638.3566, 9133.236
638.8387, 9186.582
639.3208, 9208.709
639.8029, 9220.011
640.2850, 9263.011
640.7672, 9342.218
641.2493, 9406.789
641.7314, 9448.783
642.2135, 9483.820
642.6956, 9519.285
643.1777, 9555.075
643.6599, 9590.890
644.1420, 9625.743
644.6241, 9663.102
645.1062, 9708.309
645.5883, 9753.754
646.0704, 9787.130
646.5526, 9813.398
647.0347, 9852.277
647.5168, 9916.029
647.9989, 9989.451
648.4810, 10039.31
648.9631, 10062.84
649.4453, 10102.36
649.9274, 10172.52
650.4095, 10238.67
650.8916, 10268.33
651.3737, 10278.81
651.8558, 10314.18
652.3380, 10391.21
652.8201, 10463.01
653.3022, 10505.04
653.7843, 10543.51
654.2664, 10611.09
654.7485, 10697.67
655.2307, 10763.16
655.7128, 10784.12
656.1949, 10783.40
656.6770, 10798.44
657.1591, 10829.28
657.6412, 10874.36
658.1234, 10941.42
658.6055, 11002.78
659.0876, 11036.06
659.5697, 11051.38
660.0518, 11082.86
660.5339, 11148.99
661.0161, 11194.19
661.4982, 11174.37
661.9803, 11156.71
662.4624, 11212.73
662.9445, 11316.20
663.4266, 11387.29
663.9088, 11385.78
664.3909, 11351.22
664.8730, 11339.07
665.3551, 11347.39
665.8372, 11354.58
666.3193, 11356.72
666.8015, 11367.56
667.2836, 11400.85
667.7657, 11446.26
668.2478, 11472.82
668.7299, 11470.93
669.2120, 11472.11
669.6942, 11465.81
670.1763, 11475.43
670.6584, 11528.68
671.1405, 11606.10
671.6226, 11669.02
672.1047, 11701.79
672.5869, 11721.49
673.0690, 11748.66
673.5511, 11778.56
674.0332, 11796.05
674.5153, 11800.25
674.9974, 11786.32
675.4796, 11750.02
675.9617, 11696.20
676.4438, 11632.46
676.9259, 11540.63
677.4080, 11484.70
677.8901, 11481.99
678.3723, 11493.40
678.8544, 11517.86
679.3365, 11540.22
679.8186, 11535.41
680.3007, 11495.97
680.7828, 11456.02
681.2650, 11442.26
681.7471, 11445.22
682.2292, 11456.84
682.7113, 11472.91
683.1934, 11466.96
683.6755, 11424.62
684.1577, 11373.02
684.6398, 11356.82
685.1219, 11383.59
685.6040, 11403.29
686.0861, 11429.74
686.5682, 11429.28
687.0504, 11363.86
687.5325, 11284.85
688.0146, 11249.13
688.4967, 11263.59
688.9788, 11291.51
689.4609, 11334.70
689.9431, 11368.81
690.4252, 11362.00
690.9073, 11328.71
691.3894, 11304.48
691.8715, 11300.01
692.3536, 11302.96
692.8358, 11296.70
693.3179, 11284.14
693.8000, 11302.92
694.2821, 11368.19
694.7642, 11419.55
695.2463, 11438.58
695.7285, 11437.38
696.2106, 11418.41
696.6927, 11384.59
697.1748, 11374.83
697.6569, 11426.89
698.1390, 11467.45
698.6212, 11450.24
699.1033, 11411.04
699.5854, 11394.72
700.0675, 11405.55
700.5496, 11418.07
701.0317, 11412.31
701.5139, 11398.50
701.9960, 11399.15
702.4781, 11413.96
702.9602, 11433.24
703.4423, 11458.40
703.9244, 11475.62
704.4066, 11469.64
704.8887, 11445.53
705.3708, 11435.99
705.8529, 11453.27
706.3350, 11467.62
706.8171, 11471.02
707.2993, 11476.53
707.7814, 11497.07
708.2635, 11526.57
708.7456, 11548.88
709.2277, 11556.89
709.7098, 11559.00
710.1920, 11559.68
710.6741, 11561.11
711.1562, 11567.46
711.6383, 11579.11
712.1204, 11597.73
712.6025, 11625.95
713.0847, 11654.11
713.5668, 11658.70
714.0489, 11629.37
714.5310, 11614.82
715.0131, 11617.04
715.4952, 11631.73
715.9774, 11676.92
716.4595, 11723.73
716.9416, 11726.51
717.4237, 11673.32
717.9058, 11636.91
718.3879, 11658.70
718.8701, 11691.89
719.3522, 11701.61
719.8343, 11695.49
720.3164, 11690.73
720.7985, 11692.98
721.2806, 11699.80
721.7628, 11709.92
722.2449, 11722.26
722.7270, 11732.53
723.2091, 11740.84
723.6912, 11746.38
724.1733, 11750.95
724.6555, 11747.81
725.1376, 11725.12
725.6197, 11682.53
726.1018, 11658.38
726.5839, 11665.49
727.0660, 11672.41
727.5482, 11674.29
728.0303, 11673.59
728.5124, 11668.16
728.9945, 11661.77
729.4766, 11667.91
729.9587, 11703.55
730.4409, 11732.53
730.9230, 11698.53
731.4051, 11636.97
731.8872, 11636.42
732.3693, 11700.38
732.8514, 11748.03
733.3336, 11725.81
733.8157, 11661.23
734.2978, 11618.40
734.7799, 11599.79
735.2620, 11593.93
735.7441, 11609.82
736.2263, 11622.77
736.7084, 11615.47
737.1905, 11599.14
737.6726, 11591.50
738.1547, 11594.54
738.6368, 11600.79
739.1190, 11616.20
739.6011, 11626.91
740.0832, 11621.36
740.5653, 11606.45
741.0474, 11592.41
741.5295, 11582.51
742.0117, 11576.82
742.4938, 11576.26
742.9759, 11579.58
743.4580, 11593.79
743.9401, 11614.75
744.4222, 11590.26
744.9044, 11497.31
745.3865, 11410.28
745.8686, 11411.05
746.3507, 11490.17
746.8328, 11533.22
747.3149, 11515.27
747.7971, 11504.19
748.2792, 11516.45
748.7613, 11530.62
749.2434, 11534.95
749.7255, 11530.60
750.2076, 11523.12
750.6898, 11516.74
751.1719, 11501.09
751.6540, 11456.18
752.1361, 11409.91
752.6182, 11396.60
753.1003, 11409.85
753.5825, 11425.09
754.0646, 11431.22
754.5467, 11424.71
755.0288, 11392.90
755.5109, 11341.82
755.9930, 11313.52
756.4752, 11312.12
756.9573, 11298.49
757.4394, 11250.20
757.9215, 11196.44
758.4036, 11183.76
758.8857, 11221.27
759.3679, 11228.95
759.8500, 11177.23
760.3321, 11132.69
760.8142, 11112.35
761.2963, 11100.46
761.7784, 11085.28
762.2606, 11065.53
762.7427, 11041.76
763.2248, 11005.33
763.7069, 10976.56
764.1890, 10982.75
764.6711, 10997.82
765.1533, 10977.38
765.6354, 10924.67
766.1175, 10883.45
766.5996, 10882.46
767.0817, 10891.90
767.5638, 10848.71
768.0460, 10758.52
768.5281, 10706.64
769.0102, 10705.13
769.4923, 10707.45
769.9744, 10690.10
770.4565, 10663.22
770.9387, 10647.90
771.4208, 10653.80
771.9029, 10632.53
772.3850, 10549.73
772.8671, 10482.99
773.3492, 10468.34
773.8314, 10469.21
774.3135, 10446.10
774.7956, 10397.91
775.2777, 10355.15
775.7598, 10347.03
776.2419, 10331.28
776.7241, 10259.65
777.2062, 10170.26
777.6883, 10126.80
778.1704, 10129.90
778.6525, 10129.44
779.1346, 10091.91
779.6168, 10037.95
780.0989, 10005.93
780.5810, 9993.755
781.0631, 9982.172
781.5452, 9969.701
782.0273, 9954.930
782.5095, 9938.955
782.9916, 9916.747
783.4737, 9876.178
783.9558, 9808.256
784.4379, 9755.688
784.9200, 9724.768
785.4022, 9701.533
785.8843, 9696.551
786.3664, 9687.744
786.8485, 9640.189
787.3306, 9557.215
787.8127, 9505.196
788.2949, 9534.930
788.7770, 9568.083
789.2591, 9569.831
789.7412, 9543.899
790.2233, 9482.020
790.7054, 9395.451
791.1876, 9323.803
791.6697, 9292.993
792.1518, 9275.822
792.6339, 9228.992
793.1160, 9161.591
793.5981, 9110.942
794.0803, 9080.054
794.5624, 9052.262
795.0445, 9019.102
795.5266, 8985.379
796.0087, 8960.518
796.4908, 8946.642
796.9730, 8922.700
797.4551, 8885.052
797.9372, 8844.089
798.4193, 8803.491
798.9014, 8760.322
799.3835, 8706.749
799.8657, 8645.162
800.3478, 8599.830
800.8299, 8591.831
801.3120, 8577.165
801.7941, 8535.401
802.2762, 8487.389
802.7584, 8449.714
803.2405, 8422.495
803.7226, 8399.873
804.2047, 8379.975
804.6868, 8362.203
805.1689, 8352.850
805.6511, 8341.866
806.1332, 8304.455
806.6153, 8247.688
807.0974, 8208.140
807.5795, 8199.740
808.0616, 8199.900
808.5438, 8181.525
809.0259, 8146.952
809.5080, 8111.117
809.9901, 8072.822
810.4722, 8041.807
810.9543, 8022.437
811.4365, 8006.209
811.9186, 7988.306
812.4007, 7967.317
812.8828, 7934.319
813.3649, 7876.833
813.8470, 7827.131
814.3292, 7782.642
814.8113, 7749.180
815.2934, 7741.160
815.7755, 7741.836
816.2576, 7724.313
816.7397, 7683.169
817.2219, 7630.766
817.7040, 7555.150
818.1861, 7487.063
818.6682, 7454.484
819.1503, 7443.061
819.6324, 7433.747
820.1146, 7420.137
820.5967, 7396.861
821.0788, 7356.887
821.5609, 7310.832
822.0430, 7278.780
822.5251, 7255.365
823.0073, 7216.925
823.4894, 7161.383
823.9716, 7120.622
824.4537, 7116.322
824.9358, 7125.563
825.4179, 7097.740
825.9000, 7025.230
826.3821, 6981.347
826.8643, 6978.306
827.3464, 6968.600
827.8285, 6932.085
828.3106, 6884.124
828.7927, 6842.849
829.2748, 6808.684
829.7570, 6773.925
830.2391, 6736.702
830.7212, 6701.477
831.2033, 6667.185
831.6854, 6636.988
832.1675, 6618.763
832.6497, 6605.932
833.1318, 6580.960
833.6139, 6534.969
834.0960, 6491.697
834.5781, 6467.688
835.0602, 6447.903
835.5424, 6416.526
836.0245, 6379.314
836.5066, 6348.293
836.9887, 6327.147
837.4708, 6314.276
837.9529, 6314.924
838.4351, 6316.857
838.9172, 6294.437
839.3993, 6253.136
839.8814, 6212.168
840.3635, 6175.794
840.8456, 6145.747
841.3278, 6122.919
841.8099, 6109.271
842.2920, 6114.101
842.7741, 6140.896
843.2562, 6147.250
843.7383, 6127.535
844.2205, 6100.085
844.7026, 6067.091
845.1847, 6037.841
845.6668, 6026.825
846.1489, 6035.856
846.6310, 6038.161
847.1132, 6030.835
847.5953, 6020.402
848.0774, 6002.775
848.5595, 5986.548
849.0416, 5982.552
849.5237, 5984.339
850.0059, 5971.518
850.4880, 5930.007
850.9701, 5902.481
851.4522, 5923.560
851.9343, 5945.415
852.4164, 5920.167
852.8986, 5876.228
853.3807, 5870.718
853.8628, 5912.019
854.3449, 5945.107
854.8270, 5921.363
855.3091, 5880.259
855.7913, 5869.286
856.2734, 5877.277
856.7555, 5880.591
857.2376, 5876.566
857.7197, 5873.673
858.2018, 5876.394
858.6840, 5887.420
859.1661, 5917.547
859.6482, 5962.120
860.1303, 5987.580
860.6124, 5992.151
861.0945, 5991.065
861.5767, 5987.882
862.0588, 5990.338
862.5409, 6008.252
863.0230, 6040.174
863.5051, 6071.590
863.9872, 6102.134
864.4694, 6132.721
864.9515, 6161.996
865.4336, 6193.806
865.9157, 6231.822
866.3978, 6273.685
866.8799, 6312.867
867.3621, 6346.592
867.8442, 6386.862
868.3263, 6435.819
868.8084, 6489.272
869.2905, 6550.230
869.7726, 6612.081
870.2548, 6662.230
870.7369, 6704.203
871.2190, 6762.394
871.7011, 6859.440
872.1832, 6951.166
872.6653, 7015.975
873.1475, 7066.439
873.6296, 7101.567
874.1117, 7134.771
874.5938, 7198.704
875.0759, 7303.723
875.5580, 7399.814
876.0402, 7437.331
876.5223, 7448.649
877.0044, 7473.898
877.4865, 7508.858
877.9686, 7541.278
878.4507, 7569.096
878.9329, 7600.875
879.4150, 7645.385
879.8971, 7684.604
880.3792, 7676.577
880.8613, 7631.103
881.3434, 7609.063
881.8256, 7614.108
882.3077, 7606.946
882.7898, 7570.178
883.2719, 7522.132
883.7540, 7485.523
884.2361, 7459.032
884.7183, 7426.671
885.2004, 7388.337
885.6825, 7344.341
886.1646, 7290.294
886.6467, 7242.098
887.1288, 7215.043
887.6110, 7198.150
888.0931, 7162.152
888.5752, 7098.688
889.0573, 7041.673
889.5394, 6985.748
890.0215, 6943.109
890.5037, 6918.665
890.9858, 6907.281
891.4679, 6914.673
891.9500, 6934.867
892.4321, 6929.124
892.9142, 6856.281
893.3964, 6810.014
893.8785, 6834.879
894.3606, 6867.494
894.8427, 6871.063
895.3248, 6851.367
895.8069, 6814.066
896.2891, 6760.937
896.7712, 6733.679
897.2533, 6772.566
897.7354, 6822.305
898.2175, 6847.159
898.6996, 6858.310
899.1818, 6871.239
899.6639, 6885.922
900.1460, 6889.983
900.6281, 6874.422
901.1102, 6867.801
901.5923, 6910.683
902.0745, 6972.267
902.5566, 7002.892
903.0387, 7010.578
903.5208, 7025.635
904.0029, 7055.792
904.4850, 7087.565
904.9672, 7108.507
905.4493, 7126.258
905.9314, 7158.160
906.4135, 7200.524
906.8956, 7236.618
907.3777, 7264.700
907.8599, 7287.737
908.3420, 7306.514
908.8241, 7327.408
909.3062, 7361.069
909.7883, 7405.077
910.2704, 7436.565
910.7526, 7453.382
911.2347, 7485.149
911.7168, 7543.655
912.1989, 7591.784
912.6810, 7601.131
913.1631, 7584.404
913.6453, 7572.908
914.1274, 7567.669
914.6095, 7562.315
915.0916, 7551.782
915.5737, 7553.453
916.0558, 7578.163
916.5380, 7610.899
917.0201, 7638.545
917.5022, 7661.224
917.9843, 7678.990
918.4664, 7701.195
918.9485, 7703.230
919.4307, 7660.914
919.9128, 7625.252
920.3949, 7624.235
920.8770, 7638.848
921.3591, 7645.904
921.8412, 7644.197
922.3234, 7633.614
922.8055, 7605.159
923.2876, 7579.996
923.7697, 7562.150
924.2518, 7551.130
924.7339, 7550.413
925.2161, 7555.088
925.6982, 7554.159
926.1803, 7543.981
926.6624, 7537.794
927.1445, 7548.819
927.6266, 7556.240
928.1088, 7547.767
928.5909, 7528.585
929.0730, 7502.724
929.5551, 7472.608
930.0372, 7440.993
930.5193, 7405.346
931.0015, 7381.077
931.4836, 7389.206
931.9657, 7405.268
932.4478, 7413.323
932.9299, 7406.236
933.4120, 7364.713
933.8942, 7291.634
934.3763, 7229.307
934.8584, 7210.236
935.3405, 7204.445
935.8226, 7182.198
936.3047, 7147.372
936.7869, 7100.865
937.2690, 7048.067
937.7511, 7005.738
938.2332, 6979.126
938.7153, 6950.706
939.1974, 6899.343
939.6796, 6838.632
940.1617, 6801.746
940.6438, 6777.928
941.1259, 6726.004
941.6080, 6644.863
942.0901, 6572.643
942.5723, 6529.119
943.0544, 6500.254
943.5365, 6469.020
944.0186, 6434.825
944.5007, 6395.517
944.9828, 6351.008
945.4650, 6302.501
945.9471, 6250.326
946.4292, 6195.683
946.9113, 6139.798
947.3934, 6079.487
947.8755, 5998.970
948.3577, 5899.348
948.8398, 5856.900
949.3219, 5878.924
949.8040, 5870.501
950.2861, 5798.262
950.7682, 5712.541
951.2504, 5658.852
951.7325, 5627.862
952.2146, 5587.035
952.6967, 5535.406
953.1788, 5479.090
953.6609, 5416.233
954.1431, 5357.126
954.6252, 5307.213
955.1073, 5259.244
955.5894, 5204.002
956.0715, 5142.981
956.5536, 5088.977
957.0358, 5045.127
957.5179, 4996.139
958.0000, 4935.610
958.4821, 4881.874
958.9642, 4848.188
959.4464, 4821.244
959.9285, 4781.068
960.4106, 4727.189
960.8927, 4678.701
961.3748, 4634.122
961.8569, 4598.605
962.3391, 4581.259
962.8212, 4561.545
963.3033, 4529.301
963.7854, 4486.137
964.2675, 4430.354
964.7496, 4356.033
965.2318, 4306.373
965.7139, 4306.936
966.1960, 4294.585
966.6781, 4248.939
967.1602, 4196.833
967.6423, 4152.607
968.1245, 4115.535
968.6066, 4082.588
969.0887, 4051.065
969.5708, 4033.439
970.0529, 4053.145
970.5350, 4056.691
971.0172, 4012.204
971.4993, 3962.000
971.9814, 3938.793
972.4635, 3938.120
972.9456, 3944.928
973.4277, 3966.238
973.9099, 3970.514
974.3920, 3936.345
974.8741, 3905.506
975.3562, 3895.374
975.8383, 3894.532
976.3204, 3895.435
976.8026, 3895.582
977.2847, 3888.252
977.7668, 3868.244
978.2489, 3850.365
978.7310, 3834.787
979.2131, 3825.344
979.6953, 3824.631
980.1774, 3830.542
980.6595, 3846.458
981.1416, 3868.239
981.6237, 3874.955
982.1058, 3851.272
982.5880, 3832.966
983.0701, 3836.476
983.5522, 3841.838
984.0343, 3832.446
984.5164, 3820.655
984.9985, 3824.870
985.4807, 3844.915
985.9628, 3864.004
986.4449, 3879.319
986.9270, 3889.208
987.4091, 3895.471
987.8912, 3893.712
988.3734, 3873.812
988.8555, 3847.679
989.3376, 3832.240
989.8197, 3829.271
990.3018, 3828.545
990.7839, 3790.551
991.2661, 3803.780
991.7482, 3811.385
992.2303, 3813.669
992.7124, 3794.697
993.1945, 3803.173
993.6766, 3800.649
994.1588, 3797.674
994.6409, 3810.013
995.1230, 3794.133
995.6051, 3806.229
996.0872, 3807.157
996.5693, 3847.455
997.0515, 3866.022
997.5336, 3883.274
998.0157, 3892.203
998.4978, 3891.807
998.9799, 3889.648
999.4620, 3891.065
999.9442, 3888.629
1000.426, 3867.057
1000.908, 3850.643
1001.391, 3868.213
1001.873, 3903.594
1002.355, 3927.250
1002.837, 3932.828
1003.319, 3927.985
1003.801, 3907.028
1004.283, 3888.148
1004.765, 3877.702
1005.247, 3875.611
1005.730, 3887.789
1006.212, 3905.923
1006.694, 3915.275
1007.176, 3912.893
1007.658, 3907.123
1008.140, 3900.601
1008.622, 3892.890
1009.104, 3886.212
1009.586, 3876.118
1010.069, 3849.081
1010.551, 3819.096
1011.033, 3817.509
1011.515, 3849.805
1011.997, 3873.737
1012.479, 3856.929
1012.961, 3846.741
1013.443, 3875.021
1013.926, 3910.341
1014.408, 3931.493
1014.890, 3937.226
1015.372, 3925.242
1015.854, 3895.736
1016.336, 3873.781
1016.818, 3877.771
1017.300, 3879.352
1017.782, 3859.731
1018.265, 3839.203
1018.747, 3834.854
1019.229, 3841.423
1019.711, 3849.418
1020.193, 3857.022
1020.675, 3859.560
1021.157, 3844.439
1021.639, 3839.012
1022.122, 3871.618
1022.604, 3899.842
1023.086, 3878.437
1023.568, 3836.796
1024.050, 3831.064
1024.532, 3868.697
1025.014, 3897.452
1025.496, 3898.134
1025.978, 3895.414
1026.461, 3892.669
1026.943, 3892.838
1027.425, 3898.156
1027.907, 3907.440
1028.389, 3919.184
1028.871, 3933.132
1029.353, 3948.374
1029.835, 3971.916
1030.318, 3986.181
1030.800, 3977.925
1031.282, 3969.665
1031.764, 3978.542
1032.246, 3993.094
1032.728, 3995.989
1033.210, 3986.471
1033.692, 3977.532
1034.174, 3954.704
1034.656, 3956.724
1035.139, 4018.602
1035.621, 4071.990
1036.103, 4074.635
1036.585, 4055.820
1037.067, 4052.206
1037.549, 4063.782
1038.031, 4072.269
1038.513, 4074.457
1038.996, 4077.791
1039.478, 4083.130
1039.960, 4088.702
1040.442, 4090.813
1040.924, 4095.359
1041.406, 4110.977
1041.888, 4135.786
1042.370, 4155.137
1042.853, 4173.604
1043.335, 4175.734
1043.817, 4144.980
1044.299, 4127.255
1044.781, 4145.795
1045.263, 4174.562
1045.745, 4189.982
1046.227, 4193.336
1046.709, 4189.219
1047.192, 4171.617
1047.674, 4166.495
1048.156, 4178.838
1048.638, 4191.371
1049.120, 4201.124
1049.602, 4203.674
1050.084, 4192.167
1050.566, 4173.685
1051.048, 4171.521
1051.531, 4190.064
1052.013, 4192.882
1052.495, 4175.289
1052.977, 4166.652
1053.459, 4176.468
1053.941, 4188.113
1054.423, 4190.959
1054.905, 4183.156
1055.388, 4154.684
1055.870, 4106.632
1056.352, 4093.127
1056.834, 4115.460
1057.316, 4133.618
1057.798, 4139.613
1058.280, 4135.276
1058.762, 4120.896
1059.245, 4102.307
1059.727, 4087.804
1060.209, 4077.135
1060.691, 4067.559
1061.173, 4059.976
1061.655, 4064.684
1062.137, 4081.518
1062.619, 4091.118
1063.101, 4084.100
1063.583, 4065.101
1064.066, 4032.641
1064.548, 3998.979
1065.030, 3996.143
1065.512, 4014.597
1065.994, 4025.250
1066.476, 4027.529
1066.958, 4038.733
1067.440, 4063.691
1067.923, 4079.491
1068.405, 4060.883
1068.887, 4033.156
1069.369, 4034.434
1069.851, 4048.466
1070.333, 4046.364
1070.815, 4033.012
1071.297, 4025.764
1071.780, 4029.191
1072.262, 4039.534
1072.744, 4057.058
1073.226, 4073.967
1073.708, 4085.177
1074.190, 4090.888
1074.672, 4085.948
1075.154, 4078.602
1075.636, 4084.129
1076.119, 4101.180
1076.601, 4112.239
1077.083, 4107.288
1077.565, 4107.554
1078.047, 4129.026
1078.529, 4153.034
1079.011, 4168.441
1079.493, 4179.438
1079.976, 4190.372
1080.458, 4201.514
1080.940, 4211.846
1081.422, 4221.069
1081.904, 4230.082
1082.386, 4238.526
1082.868, 4247.557
1083.350, 4258.523
1083.833, 4269.284
1084.315, 4280.402
1084.797, 4289.532
1085.279, 4288.587
1085.761, 4274.389
1086.243, 4280.552
1086.725, 4328.292
1087.207, 4359.708
1087.689, 4359.669
1088.172, 4357.777
1088.654, 4369.716
1089.136, 4384.123
1089.618, 4384.258
1090.100, 4373.202
1090.582, 4378.500
1091.064, 4404.630
1091.546, 4429.612
1092.028, 4453.328
1092.511, 4471.319
1092.993, 4481.022
1093.475, 4488.111
1093.957, 4497.121
1094.439, 4508.371
1094.921, 4524.966
1095.403, 4546.437
1095.885, 4555.202
1096.368, 4551.481
1096.850, 4551.271
1097.332, 4558.070
1097.814, 4561.679
1098.296, 4555.311
1098.778, 4547.408
1099.260, 4550.081
1099.742, 4560.766
1100.224, 4574.261
1100.707, 4589.433
1101.189, 4601.633
1101.671, 4611.566
1102.153, 4626.622
1102.635, 4649.152
1103.117, 4666.500
1103.599, 4667.435
1104.081, 4659.001
1104.563, 4636.976
1105.046, 4619.742
1105.528, 4643.571
1106.010, 4688.751
1106.492, 4710.303
1106.974, 4701.575
1107.456, 4690.268
1107.938, 4686.279
1108.420, 4689.444
1108.903, 4700.008
1109.385, 4717.308
1109.867, 4748.309
1110.349, 4780.142
1110.831, 4795.848
1111.313, 4799.275
1111.795, 4808.020
1112.277, 4825.534
1112.760, 4846.342
1113.242, 4879.005
1113.724, 4901.854
1114.206, 4896.204
1114.688, 4892.633
1115.170, 4918.693
1115.652, 4954.057
1116.134, 4960.136
1116.616, 4936.045
1117.099, 4940.864
1117.581, 4992.924
1118.063, 5015.081
1118.545, 4985.916
1119.027, 4974.067
1119.509, 5013.773
1119.991, 5062.189
1120.473, 5074.852
1120.955, 5063.244
1121.438, 5063.271
1121.920, 5074.521
1122.402, 5085.804
1122.884, 5096.929
1123.366, 5111.035
1123.848, 5128.758
1124.330, 5149.134
1124.812, 5171.731
1125.295, 5193.314
1125.777, 5208.504
1126.259, 5219.973
1126.741, 5230.411
1127.223, 5242.824
1127.705, 5269.878
1128.187, 5305.611
1128.669, 5323.739
1129.151, 5317.242
1129.634, 5314.283
1130.116, 5336.538
1130.598, 5365.375
1131.080, 5388.491
1131.562, 5409.271
1132.044, 5432.593
1132.526, 5454.860
1133.008, 5468.586
1133.490, 5475.085
1133.973, 5485.671
1134.455, 5506.726
1134.937, 5521.561
1135.419, 5517.804
1135.901, 5518.278
1136.383, 5527.288
1136.865, 5547.334
1137.347, 5585.880
1137.830, 5634.335
1138.312, 5680.389
1138.794, 5725.322
1139.276, 5741.610
1139.758, 5714.200
1140.240, 5704.183
1140.722, 5723.390
1141.204, 5740.654
1141.687, 5741.679
1142.169, 5739.190
1142.651, 5744.793
1143.133, 5760.008
1143.615, 5790.658
1144.097, 5835.725
1144.579, 5903.502
1145.061, 5984.113
1145.543, 5981.491
1146.026, 5886.762
1146.508, 5821.031
1146.990, 5853.251
1147.472, 5916.136
1147.954, 5936.926
1148.436, 5939.438
1148.918, 5959.323
1149.400, 5984.164
1149.882, 5989.423
1150.365, 5983.377
1150.847, 5995.194
1151.329, 6028.296
1151.811, 6047.355
1152.293, 6027.152
1152.775, 6008.793
1153.257, 6010.326
1153.739, 6021.225
1154.222, 6040.899
1154.704, 6062.083
1155.186, 6082.075
1155.668, 6097.113
1156.150, 6093.900
1156.632, 6063.759
1157.114, 6050.175
1157.596, 6056.147
1158.078, 6073.136
1158.561, 6104.245
1159.043, 6137.964
1159.525, 6172.941
1160.007, 6197.376
1160.489, 6194.844
1160.971, 6171.886
1161.453, 6153.508
1161.935, 6139.833
1162.417, 6129.279
1162.900, 6122.747
1163.382, 6139.185
1163.864, 6180.066
1164.346, 6201.169
1164.828, 6174.468
1165.310, 6137.486
1165.792, 6135.951
1166.274, 6152.254
1166.757, 6162.746
1167.239, 6170.778
1167.721, 6183.761
1168.203, 6198.908
1168.685, 6206.592
1169.167, 6205.775
1169.649, 6208.530
1170.131, 6226.105
1170.614, 6235.638
1171.096, 6219.594
1171.578, 6202.611
1172.060, 6199.585
1172.542, 6200.833
1173.024, 6190.880
1173.506, 6178.347
1173.988, 6191.170
1174.470, 6234.864
1174.953, 6259.045
1175.435, 6256.504
1175.917, 6253.525
1176.399, 6250.217
1176.881, 6259.973
1177.363, 6293.187
1177.845, 6320.102
1178.327, 6307.229
1178.809, 6273.758
1179.292, 6270.838
1179.774, 6291.530
1180.256, 6299.732
1180.738, 6299.671
1181.220, 6322.034
1181.702, 6364.663
1182.184, 6385.349
1182.666, 6365.461
1183.149, 6337.130
1183.631, 6316.637
1184.113, 6313.527
1184.595, 6349.042
1185.077, 6394.455
1185.559, 6418.682
1186.041, 6433.109
1186.523, 6463.233
1187.005, 6505.921
1187.488, 6529.077
1187.970, 6515.068
1188.452, 6514.729
1188.934, 6554.544
1189.416, 6578.348
1189.898, 6562.060
1190.380, 6547.005
1190.862, 6556.386
1191.344, 6580.051
1191.827, 6604.417
1192.309, 6630.300
1192.791, 6665.450
1193.273, 6709.984
1193.755, 6733.746
1194.237, 6736.630
1194.719, 6742.028
1195.201, 6756.340
1195.684, 6781.752
1196.166, 6820.463
1196.648, 6854.659
1197.130, 6855.545
1197.612, 6847.658
1198.094, 6862.960
1198.576, 6890.510
1199.058, 6916.020
1199.541, 6940.812
1200.023, 6973.740
1200.505, 7013.662
1200.987, 7044.346
1201.469, 7061.011
1201.951, 7067.370
1202.433, 7043.166
1202.915, 7037.605
1203.397, 7094.143
1203.880, 7144.097
1204.362, 7135.244
1204.844, 7105.200
1205.326, 7115.998
1205.808, 7161.643
1206.290, 7184.330
1206.772, 7181.971
1207.254, 7191.574
1207.736, 7215.354
1208.219, 7243.408
1208.701, 7272.706
1209.183, 7298.182
1209.665, 7316.308
1210.147, 7333.747
1210.629, 7359.485
1211.111, 7388.800
1211.593, 7416.553
1212.076, 7442.393
1212.558, 7469.757
1213.040, 7492.915
1213.522, 7490.296
1214.004, 7467.228
1214.486, 7476.470
1214.968, 7548.295
1215.450, 7612.928
1215.932, 7658.360
1216.415, 7686.884
1216.897, 7691.294
1217.379, 7688.568
1217.861, 7682.230
1218.343, 7682.576
1218.825, 7707.819
1219.307, 7751.280
1219.789, 7771.815
1220.271, 7769.372
1220.754, 7786.203
1221.236, 7822.233
1221.718, 7846.390
1222.200, 7853.163
1222.682, 7863.669
1223.164, 7889.415
1223.646, 7912.979
1224.128, 7916.608
1224.611, 7910.047
1225.093, 7900.551
1225.575, 7889.683
1226.057, 7875.277
1226.539, 7863.045
1227.021, 7861.604
1227.503, 7871.032
1227.985, 7888.089
1228.468, 7917.214
1228.950, 7934.699
1229.432, 7924.845
1229.914, 7928.590
1230.396, 7961.839
1230.878, 7986.514
1231.360, 7982.078
1231.842, 7970.898
1232.324, 7978.149
1232.807, 7993.543
1233.289, 7983.919
1233.771, 7957.994
1234.253, 7964.477
1234.735, 7994.979
1235.217, 8014.553
1235.699, 8020.644
1236.181, 8029.962
1236.663, 8047.652
1237.146, 8059.038
1237.628, 8047.952
1238.110, 8042.205
1238.592, 8056.089
1239.074, 8084.258
1239.556, 8136.813
##END=



