##NAMES=Tsepinite-Ca
##RRUFFID=R060833
##IDEAL CHEMISTRY=(Ca,K,Na)_2-x_(Ti^4+^,Nb^5+^)_2_Si_4_O_12_(OH,O)_2_&#183;4H_2_O
##LOCALITY=Hackmann Valley, Yukspor Mountain, Khibiny, Kola, Russia
##OWNER=RRUFF
##SOURCE=Michael Scott
##DESCRIPTION=Groups of tan colored parallel prismatic crystals associated with eudialyte and arfvedsonite
##STATUS=The identification of this mineral has been confirmed by single-crystal X-ray diffraction.
##URL=rruff.info/R060833
178.4128, 39575.13
178.8949, 39768.52
179.3770, 39899.11
179.8591, 39998.93
180.3412, 40113.73
180.8233, 40244.43
181.3055, 40391.52
181.7876, 40564.78
182.2697, 40757.20
182.7518, 40952.39
183.2339, 41156.81
183.7160, 41356.51
184.1982, 41500.21
184.6803, 41580.51
185.1624, 41654.95
185.6445, 41809.32
186.1266, 42026.97
186.6087, 42216.19
187.0908, 42305.50
187.5730, 42326.30
188.0551, 42404.22
188.5372, 42552.36
189.0193, 42722.95
189.5014, 42855.88
189.9835, 42953.39
190.4657, 43035.79
190.9478, 43098.04
191.4299, 43147.58
191.9120, 43241.73
192.3941, 43396.96
192.8762, 43569.76
193.3584, 43681.99
193.8405, 43731.87
194.3226, 43765.48
194.8047, 43786.22
195.2868, 43797.38
195.7689, 43885.40
196.2511, 44080.04
196.7332, 44331.33
197.2153, 44520.34
197.6974, 44642.62
198.1795, 44745.52
198.6616, 44853.76
199.1438, 44968.50
199.6259, 45096.29
200.1080, 45246.37
200.5901, 45406.22
201.0722, 45526.76
201.5543, 45599.82
202.0364, 45666.13
202.5186, 45747.49
203.0007, 45840.50
203.4828, 45967.86
203.9649, 46134.80
204.4470, 46337.08
204.9291, 46562.25
205.4113, 46822.70
205.8934, 47070.72
206.3755, 47259.79
206.8576, 47376.36
207.3397, 47495.75
207.8218, 47636.06
208.3040, 47792.78
208.7861, 47924.63
209.2682, 48028.10
209.7503, 48114.59
210.2324, 48187.67
210.7145, 48237.74
211.1967, 48316.34
211.6788, 48446.39
212.1609, 48626.73
212.6430, 48776.12
213.1251, 48882.70
213.6072, 48977.23
214.0894, 49091.66
214.5715, 49229.96
215.0536, 49378.59
215.5357, 49538.70
216.0178, 49711.59
216.4999, 49853.57
216.9820, 49946.30
217.4642, 50023.04
217.9463, 50121.14
218.4284, 50235.23
218.9105, 50377.65
219.3926, 50574.57
219.8747, 50840.36
220.3569, 50993.55
220.8390, 50983.76
221.3211, 50908.35
221.8032, 50895.94
222.2853, 50970.61
222.7674, 51063.46
223.2496, 51161.39
223.7317, 51271.72
224.2138, 51359.32
224.6959, 51419.53
225.1780, 51463.79
225.6601, 51511.61
226.1423, 51570.52
226.6244, 51618.55
227.1065, 51642.31
227.5886, 51629.00
228.0707, 51644.79
228.5528, 51709.63
229.0350, 51789.81
229.5171, 51824.43
229.9992, 51785.71
230.4813, 51746.40
230.9634, 51729.14
231.4455, 51735.83
231.9276, 51761.34
232.4098, 51831.14
232.8919, 51907.42
233.3740, 51910.42
233.8561, 51794.13
234.3382, 51680.78
234.8203, 51617.75
235.3025, 51632.54
235.7846, 51621.75
236.2667, 51576.73
236.7488, 51510.73
237.2309, 51452.09
237.7130, 51409.78
238.1952, 51363.42
238.6773, 51303.77
239.1594, 51222.39
239.6415, 51152.32
240.1236, 51095.56
240.6057, 51049.70
241.0879, 51008.84
241.5700, 50977.16
242.0521, 50945.27
242.5342, 50908.74
243.0163, 50863.59
243.4984, 50820.63
243.9806, 50772.44
244.4627, 50726.72
244.9448, 50707.20
245.4269, 50738.53
245.9090, 50754.79
246.3911, 50725.20
246.8732, 50627.24
247.3554, 50531.20
247.8375, 50431.64
248.3196, 50333.75
248.8017, 50254.84
249.2838, 50213.68
249.7659, 50163.97
250.2481, 50083.70
250.7302, 49956.23
251.2123, 49844.30
251.6944, 49753.32
252.1765, 49680.14
252.6586, 49614.04
253.1408, 49561.83
253.6229, 49511.33
254.1050, 49459.37
254.5871, 49413.02
255.0692, 49351.20
255.5513, 49262.08
256.0334, 49163.42
256.5156, 49097.64
256.9977, 49077.20
257.4798, 49066.74
257.9619, 49046.25
258.4440, 48999.14
258.9261, 48986.87
259.4083, 49023.21
259.8904, 49085.32
260.3725, 49114.27
260.8546, 49086.18
261.3367, 49068.14
261.8188, 49095.61
262.3010, 49190.10
262.7831, 49256.92
263.2652, 49290.23
263.7473, 49297.68
264.2294, 49298.13
264.7115, 49293.40
265.1937, 49276.55
265.6758, 49240.86
266.1579, 49180.51
266.6400, 49130.32
267.1221, 49096.86
267.6042, 49070.55
268.0864, 49027.04
268.5685, 48955.20
269.0506, 48898.28
269.5327, 48884.33
270.0148, 48927.53
270.4969, 48940.26
270.9791, 48909.39
271.4612, 48863.35
271.9433, 48868.24
272.4254, 48943.97
272.9075, 49001.98
273.3896, 48984.63
273.8718, 48875.78
274.3539, 48838.41
274.8360, 48893.52
275.3181, 48991.45
275.8002, 49042.89
276.2823, 49039.59
276.7645, 49027.23
277.2466, 49019.86
277.7287, 49016.45
278.2108, 49029.14
278.6929, 49060.65
279.1750, 49101.04
279.6572, 49137.59
280.1393, 49170.27
280.6214, 49193.05
281.1035, 49194.71
281.5856, 49176.07
282.0677, 49188.90
282.5499, 49245.63
283.0320, 49302.44
283.5141, 49283.71
283.9962, 49186.30
284.4783, 49098.58
284.9604, 49064.89
285.4425, 49077.98
285.9247, 49069.60
286.4068, 49036.38
286.8889, 48997.52
287.3710, 48975.23
287.8531, 48969.52
288.3352, 48975.51
288.8174, 49006.57
289.2995, 49049.88
289.7816, 49044.28
290.2637, 48984.82
290.7458, 48905.81
291.2279, 48832.85
291.7101, 48768.14
292.1922, 48730.36
292.6743, 48745.04
293.1564, 48786.97
293.6385, 48786.79
294.1206, 48742.53
294.6028, 48684.39
295.0849, 48637.00
295.5670, 48600.20
296.0491, 48572.22
296.5312, 48562.83
297.0133, 48559.02
297.4955, 48516.63
297.9776, 48438.19
298.4597, 48394.20
298.9418, 48494.61
299.4239, 48679.76
299.9060, 48799.45
300.3882, 48763.45
300.8703, 48675.84
301.3524, 48695.41
301.8345, 48811.32
302.3166, 48922.97
302.7987, 48929.43
303.2809, 48882.34
303.7630, 48876.68
304.2451, 48969.07
304.7272, 49068.95
305.2093, 49059.17
305.6914, 48957.29
306.1736, 48865.88
306.6557, 48876.85
307.1378, 48926.88
307.6199, 48936.54
308.1020, 48881.85
308.5841, 48796.50
309.0663, 48709.46
309.5484, 48615.94
310.0305, 48501.60
310.5126, 48339.13
310.9947, 48162.22
311.4768, 48003.55
311.9590, 47873.60
312.4411, 47753.59
312.9232, 47640.30
313.4053, 47529.48
313.8874, 47413.64
314.3695, 47289.64
314.8517, 47156.95
315.3337, 47012.29
315.8159, 46850.46
316.2980, 46692.78
316.7801, 46554.38
317.2622, 46424.98
317.7443, 46284.99
318.2264, 46111.80
318.7086, 45941.83
319.1907, 45789.93
319.6728, 45656.78
320.1549, 45548.36
320.6370, 45481.81
321.1191, 45436.76
321.6013, 45386.88
322.0834, 45335.36
322.5655, 45268.60
323.0476, 45172.61
323.5297, 45040.31
324.0118, 44925.79
324.4940, 44835.79
324.9761, 44766.74
325.4582, 44715.30
325.9403, 44712.77
326.4224, 44693.98
326.9045, 44643.68
327.3867, 44560.38
327.8688, 44470.06
328.3509, 44353.83
328.8330, 44242.51
329.3151, 44155.88
329.7972, 44083.11
330.2794, 44051.36
330.7615, 44084.43
331.2436, 44172.29
331.7257, 44227.66
332.2078, 44264.05
332.6899, 44255.45
333.1721, 44177.81
333.6542, 43980.80
334.1363, 43820.77
334.6184, 43710.46
335.1005, 43643.01
335.5826, 43596.84
336.0648, 43587.62
336.5469, 43571.09
337.0290, 43518.33
337.5111, 43412.12
337.9932, 43330.74
338.4753, 43277.04
338.9575, 43246.04
339.4396, 43231.48
339.9217, 43235.99
340.4038, 43243.14
340.8859, 43254.13
341.3680, 43270.32
341.8502, 43240.37
342.3323, 43150.17
342.8144, 43049.13
343.2965, 43016.63
343.7786, 43055.29
344.2607, 43094.00
344.7429, 43111.99
345.2250, 43111.13
345.7071, 43090.82
346.1892, 43048.25
346.6713, 43008.74
347.1534, 42993.03
347.6355, 43000.95
348.1176, 43032.15
348.5998, 43095.44
349.0819, 43174.51
349.5640, 43236.02
350.0461, 43279.73
350.5282, 43317.28
351.0103, 43363.82
351.4925, 43409.81
351.9746, 43434.07
352.4567, 43421.14
352.9388, 43397.66
353.4209, 43398.21
353.9030, 43418.01
354.3852, 43435.02
354.8673, 43437.78
355.3494, 43430.59
355.8315, 43419.22
356.3136, 43407.13
356.7957, 43389.32
357.2779, 43361.71
357.7600, 43326.80
358.2421, 43289.40
358.7242, 43232.51
359.2063, 43187.05
359.6884, 43183.32
360.1706, 43232.37
360.6527, 43273.64
361.1348, 43259.18
361.6169, 43223.92
362.0990, 43215.19
362.5811, 43286.79
363.0633, 43351.04
363.5454, 43358.96
364.0275, 43305.72
364.5096, 43280.03
364.9917, 43339.06
365.4738, 43416.73
365.9560, 43459.36
366.4381, 43426.16
366.9202, 43392.92
367.4023, 43365.42
367.8844, 43345.95
368.3665, 43348.74
368.8487, 43408.71
369.3308, 43466.93
369.8129, 43492.27
370.2950, 43439.01
370.7771, 43423.64
371.2592, 43461.30
371.7414, 43535.84
372.2235, 43607.51
372.7056, 43680.73
373.1877, 43742.53
373.6698, 43779.38
374.1519, 43775.00
374.6341, 43812.74
375.1162, 43911.82
375.5983, 44029.35
376.0804, 44095.23
376.5625, 44094.22
377.0446, 44098.00
377.5267, 44139.02
378.0089, 44212.63
378.4910, 44232.18
378.9731, 44186.41
379.4552, 44130.33
379.9373, 44125.95
380.4194, 44172.49
380.9016, 44213.92
381.3837, 44236.73
381.8658, 44249.51
382.3479, 44272.14
382.8300, 44305.13
383.3121, 44344.09
383.7943, 44387.35
384.2764, 44433.50
384.7585, 44475.65
385.2406, 44505.57
385.7227, 44544.91
386.2048, 44644.59
386.6870, 44781.84
387.1691, 44881.47
387.6512, 44849.27
388.1333, 44775.48
388.6154, 44774.87
389.0975, 44863.52
389.5797, 44970.08
390.0618, 45050.06
390.5439, 45110.11
391.0260, 45158.77
391.5081, 45207.78
391.9902, 45241.64
392.4724, 45241.36
392.9545, 45210.30
393.4366, 45194.47
393.9187, 45243.28
394.4008, 45302.59
394.8829, 45329.50
395.3651, 45268.18
395.8472, 45225.29
396.3293, 45233.69
396.8114, 45282.86
397.2935, 45334.14
397.7756, 45386.76
398.2578, 45433.90
398.7399, 45471.88
399.2220, 45494.54
399.7041, 45516.30
400.1862, 45533.98
400.6683, 45550.73
401.1505, 45572.36
401.6326, 45605.18
402.1147, 45633.93
402.5968, 45652.61
403.0789, 45660.01
403.5610, 45681.74
404.0432, 45730.62
404.5253, 45777.38
405.0074, 45785.53
405.4895, 45739.48
405.9716, 45721.15
406.4537, 45750.23
406.9359, 45815.43
407.4180, 45873.73
407.9001, 45922.82
408.3822, 45978.36
408.8643, 46063.77
409.3464, 46173.11
409.8285, 46243.54
410.3106, 46259.35
410.7928, 46257.80
411.2749, 46295.20
411.7570, 46367.48
412.2391, 46445.68
412.7212, 46513.22
413.2033, 46578.57
413.6855, 46657.73
414.1676, 46750.80
414.6497, 46849.55
415.1318, 46948.70
415.6139, 47046.97
416.0960, 47141.18
416.5782, 47247.07
417.0603, 47332.41
417.5424, 47339.52
418.0245, 47288.57
418.5066, 47282.44
418.9887, 47417.79
419.4709, 47591.72
419.9530, 47730.22
420.4351, 47816.27
420.9172, 47870.20
421.3993, 47870.41
421.8814, 47846.93
422.3636, 47854.50
422.8457, 47928.91
423.3278, 48016.47
423.8099, 48104.17
424.2920, 48195.75
424.7741, 48271.64
425.2563, 48316.43
425.7384, 48355.27
426.2205, 48407.28
426.7026, 48465.71
427.1847, 48549.18
427.6668, 48667.96
428.1490, 48814.62
428.6311, 48948.02
429.1132, 49066.01
429.5953, 49175.60
430.0774, 49276.05
430.5595, 49363.76
431.0417, 49465.18
431.5238, 49586.60
432.0059, 49712.17
432.4880, 49807.78
432.9701, 49872.10
433.4522, 49949.72
433.9344, 50079.47
434.4165, 50237.95
434.8986, 50325.25
435.3807, 50337.03
435.8628, 50353.29
436.3449, 50463.23
436.8271, 50637.40
437.3092, 50801.28
437.7913, 50939.01
438.2734, 51050.89
438.7555, 51123.82
439.2376, 51166.20
439.7197, 51210.31
440.2018, 51263.24
440.6840, 51332.17
441.1661, 51432.96
441.6482, 51576.28
442.1303, 51702.99
442.6124, 51767.59
443.0945, 51800.25
443.5767, 51841.89
444.0588, 51919.11
444.5409, 51994.15
445.0230, 52051.38
445.5051, 52091.47
445.9872, 52137.40
446.4694, 52208.87
446.9515, 52277.65
447.4336, 52326.64
447.9157, 52335.18
448.3978, 52354.42
448.8799, 52378.93
449.3621, 52416.55
449.8442, 52487.39
450.3263, 52604.96
450.8084, 52728.40
451.2905, 52845.97
451.7726, 52956.46
452.2548, 53052.92
452.7369, 53129.46
453.2190, 53203.31
453.7011, 53294.45
454.1832, 53402.43
454.6653, 53516.11
455.1475, 53635.40
455.6296, 53757.40
456.1117, 53885.21
456.5938, 54016.92
457.0759, 54133.99
457.5580, 54211.09
458.0402, 54266.27
458.5223, 54342.23
459.0044, 54449.95
459.4865, 54549.94
459.9686, 54598.15
460.4507, 54613.21
460.9329, 54631.84
461.4150, 54676.02
461.8971, 54724.08
462.3792, 54778.42
462.8613, 54833.02
463.3434, 54841.37
463.8256, 54712.16
464.3077, 54571.74
464.7898, 54516.11
465.2719, 54643.14
465.7540, 54726.73
466.2361, 54699.07
466.7183, 54601.14
467.2004, 54516.21
467.6825, 54462.79
468.1646, 54408.89
468.6467, 54341.63
469.1288, 54256.96
469.6110, 54192.41
470.0930, 54153.36
470.5752, 54124.80
471.0573, 54096.65
471.5394, 54072.28
472.0215, 54029.32
472.5036, 53956.91
472.9857, 53869.39
473.4679, 53808.64
473.9500, 53777.48
474.4321, 53744.64
474.9142, 53689.43
475.3963, 53618.96
475.8784, 53562.23
476.3606, 53522.09
476.8427, 53490.32
477.3248, 53473.93
477.8069, 53461.46
478.2890, 53420.36
478.7711, 53310.56
479.2533, 53204.54
479.7354, 53180.72
480.2175, 53225.53
480.6996, 53282.99
481.1817, 53325.46
481.6638, 53364.62
482.1460, 53405.96
482.6281, 53445.54
483.1102, 53496.02
483.5923, 53574.76
484.0744, 53658.50
484.5565, 53719.73
485.0387, 53719.36
485.5208, 53726.81
486.0029, 53760.84
486.4850, 53817.47
486.9671, 53863.87
487.4492, 53905.60
487.9314, 53931.16
488.4135, 53932.63
488.8956, 53902.48
489.3777, 53877.74
489.8598, 53859.68
490.3419, 53850.70
490.8241, 53849.98
491.3062, 53857.18
491.7883, 53891.93
492.2704, 53972.30
492.7525, 54082.86
493.2346, 54173.35
493.7168, 54242.07
494.1989, 54300.34
494.6810, 54344.01
495.1631, 54383.03
495.6452, 54444.16
496.1273, 54534.71
496.6095, 54631.90
497.0916, 54706.53
497.5737, 54769.71
498.0558, 54844.49
498.5379, 54930.09
499.0201, 55039.73
499.5022, 55194.22
499.9843, 55392.07
500.4664, 55578.40
500.9485, 55711.01
501.4306, 55839.71
501.9127, 55996.84
502.3948, 56212.74
502.8770, 56417.57
503.3591, 56588.77
503.8412, 56748.20
504.3233, 56936.07
504.8054, 57162.07
505.2875, 57397.16
505.7697, 57638.52
506.2518, 57886.46
506.7339, 58117.41
507.2160, 58332.54
507.6981, 58524.56
508.1802, 58669.50
508.6624, 58769.10
509.1445, 58923.32
509.6266, 59156.73
510.1087, 59418.58
510.5908, 59633.60
511.0729, 59808.00
511.5551, 59970.02
512.0372, 60125.58
512.5193, 60281.96
513.0014, 60454.70
513.4835, 60642.34
513.9656, 60815.54
514.4478, 60948.16
514.9299, 61059.58
515.4120, 61167.87
515.8941, 61276.35
516.3762, 61380.19
516.8583, 61483.74
517.3405, 61577.88
517.8226, 61647.61
518.3047, 61662.18
518.7868, 61678.51
519.2689, 61724.71
519.7510, 61800.40
520.2332, 61827.15
520.7153, 61781.68
521.1974, 61714.96
521.6795, 61658.90
522.1616, 61622.35
522.6437, 61566.06
523.1259, 61487.54
523.6080, 61393.20
524.0901, 61289.63
524.5722, 61175.79
525.0543, 61067.03
525.5364, 60967.87
526.0186, 60875.35
526.5007, 60791.51
526.9828, 60714.90
527.4649, 60614.54
527.9470, 60453.81
528.4291, 60259.79
528.9113, 60061.00
529.3934, 59858.52
529.8755, 59674.40
530.3576, 59526.73
530.8397, 59407.59
531.3218, 59302.57
531.8040, 59244.34
532.2861, 59163.68
532.7682, 59024.83
533.2503, 58835.84
533.7324, 58659.68
534.2145, 58497.35
534.6967, 58357.94
535.1788, 58248.62
535.6609, 58187.23
536.1430, 58105.74
536.6251, 57995.10
537.1072, 57877.54
537.5894, 57776.50
538.0715, 57689.73
538.5536, 57638.66
539.0357, 57643.26
539.5178, 57674.17
539.9999, 57643.02
540.4821, 57550.43
540.9642, 57458.73
541.4463, 57405.09
541.9284, 57376.48
542.4105, 57339.04
542.8926, 57289.34
543.3748, 57257.65
543.8569, 57298.02
544.3390, 57362.34
544.8211, 57385.88
545.3032, 57337.25
545.7853, 57263.37
546.2675, 57175.82
546.7495, 57080.66
547.2316, 56991.75
547.7137, 56893.70
548.1959, 56822.36
548.6780, 56803.14
549.1601, 56845.72
549.6422, 56855.31
550.1243, 56821.49
550.6064, 56766.85
551.0886, 56700.60
551.5707, 56611.37
552.0528, 56553.13
552.5349, 56535.05
553.0170, 56541.56
553.4991, 56556.85
553.9813, 56580.70
554.4634, 56577.15
554.9455, 56514.26
555.4276, 56425.64
555.9097, 56402.18
556.3918, 56436.48
556.8740, 56457.07
557.3561, 56386.21
557.8382, 56287.25
558.3203, 56242.51
558.8024, 56273.06
559.2845, 56308.16
559.7667, 56299.82
560.2488, 56276.45
560.7309, 56271.55
561.2130, 56326.73
561.6951, 56364.52
562.1772, 56347.05
562.6594, 56292.58
563.1415, 56280.97
563.6236, 56366.89
564.1057, 56421.16
564.5878, 56375.73
565.0699, 56215.18
565.5521, 56161.93
566.0342, 56247.66
566.5163, 56364.58
566.9984, 56414.51
567.4805, 56399.70
567.9626, 56377.91
568.4448, 56358.00
568.9269, 56333.20
569.4090, 56286.02
569.8911, 56223.95
570.3732, 56170.46
570.8553, 56131.06
571.3375, 56109.75
571.8196, 56118.46
572.3017, 56153.38
572.7838, 56188.93
573.2659, 56231.26
573.7480, 56256.52
574.2302, 56245.77
574.7123, 56184.89
575.1944, 56120.40
575.6765, 56037.23
576.1586, 55966.38
576.6407, 55943.81
577.1229, 56011.59
577.6050, 56052.72
578.0871, 56051.53
578.5692, 56016.13
579.0513, 55963.88
579.5334, 55891.36
580.0156, 55823.92
580.4977, 55753.77
580.9798, 55695.84
581.4619, 55751.86
581.9440, 55924.88
582.4261, 56075.33
582.9083, 56031.65
583.3904, 55892.92
583.8725, 55840.41
584.3546, 55933.38
584.8367, 56027.55
585.3188, 55998.97
585.8010, 55910.05
586.2831, 55857.79
586.7652, 55907.73
587.2473, 55963.99
587.7294, 56008.75
588.2115, 56038.45
588.6937, 56032.37
589.1758, 55943.86
589.6579, 55875.59
590.1400, 55872.62
590.6221, 55945.86
591.1042, 56005.61
591.5864, 56052.11
592.0685, 56084.30
592.5506, 56093.30
593.0327, 56081.21
593.5148, 56084.28
593.9969, 56109.49
594.4791, 56149.51
594.9612, 56207.57
595.4433, 56273.91
595.9254, 56318.16
596.4075, 56306.81
596.8896, 56282.68
597.3718, 56295.53
597.8539, 56334.70
598.3360, 56343.41
598.8181, 56221.44
599.3002, 56119.38
599.7823, 56146.39
600.2645, 56368.25
600.7466, 56506.14
601.2287, 56468.13
601.7108, 56390.92
602.1929, 56384.64
602.6750, 56464.05
603.1572, 56583.27
603.6393, 56764.96
604.1214, 56955.79
604.6035, 57037.03
605.0856, 57005.92
605.5677, 56985.88
606.0499, 57036.56
606.5320, 57121.77
607.0141, 57155.33
607.4962, 57144.18
607.9783, 57142.57
608.4604, 57210.48
608.9425, 57292.71
609.4246, 57324.95
609.9067, 57293.16
610.3889, 57265.92
610.8710, 57263.07
611.3531, 57284.82
611.8352, 57331.31
612.3173, 57466.36
612.7994, 57544.10
613.2816, 57528.98
613.7637, 57465.04
614.2458, 57433.89
614.7279, 57442.20
615.2100, 57470.61
615.6921, 57524.34
616.1743, 57593.49
616.6564, 57624.05
617.1385, 57614.93
617.6206, 57606.14
618.1027, 57615.05
618.5848, 57644.56
619.0670, 57715.89
619.5491, 57831.89
620.0312, 57927.87
620.5133, 57923.02
620.9954, 57883.14
621.4775, 57888.54
621.9597, 57990.41
622.4418, 58077.40
622.9239, 58083.42
623.4060, 58056.76
623.8881, 58075.59
624.3702, 58171.32
624.8524, 58284.80
625.3345, 58429.30
625.8166, 58586.87
626.2987, 58658.17
626.7808, 58622.83
627.2629, 58575.96
627.7451, 58564.40
628.2272, 58583.32
628.7093, 58596.01
629.1914, 58602.45
629.6735, 58612.61
630.1556, 58651.39
630.6378, 58696.09
631.1199, 58697.54
631.6020, 58632.81
632.0841, 58585.67
632.5662, 58619.36
633.0483, 58702.85
633.5305, 58796.36
634.0126, 58903.25
634.4947, 59000.26
634.9768, 59085.34
635.4589, 59156.53
635.9410, 59205.57
636.4232, 59217.39
636.9053, 59232.19
637.3874, 59259.65
637.8695, 59299.21
638.3516, 59347.78
638.8337, 59402.62
639.3159, 59481.96
639.7980, 59623.99
640.2801, 59802.64
640.7622, 59926.62
641.2443, 59988.00
641.7264, 60032.25
642.2086, 60094.40
642.6907, 60167.78
643.1728, 60240.65
643.6549, 60301.32
644.1370, 60381.91
644.6191, 60507.93
645.1013, 60661.93
645.5834, 60814.44
646.0655, 60961.21
646.5476, 61105.98
647.0297, 61245.30
647.5118, 61381.19
647.9940, 61515.61
648.4761, 61642.16
648.9582, 61784.30
649.4403, 61971.93
649.9224, 62186.15
650.4045, 62327.16
650.8867, 62393.47
651.3688, 62444.08
651.8509, 62521.53
652.3330, 62617.21
652.8151, 62721.59
653.2972, 62835.88
653.7794, 62941.88
654.2615, 63037.43
654.7436, 63115.63
655.2257, 63168.71
655.7078, 63142.54
656.1899, 63158.62
656.6721, 63266.29
657.1542, 63418.67
657.6363, 63530.96
658.1184, 63588.24
658.6005, 63642.85
659.0826, 63710.53
659.5648, 63782.66
660.0469, 63828.26
660.5290, 63846.84
661.0111, 63847.10
661.4932, 63794.59
661.9753, 63741.27
662.4575, 63813.15
662.9396, 64007.33
663.4217, 64187.05
663.9038, 64248.15
664.3859, 64263.13
664.8680, 64296.82
665.3502, 64369.93
665.8323, 64430.86
666.3144, 64445.38
666.7965, 64452.80
667.2786, 64491.81
667.7607, 64576.83
668.2429, 64656.89
668.7250, 64722.29
669.2071, 64779.77
669.6892, 64847.43
670.1713, 64923.68
670.6534, 64984.31
671.1355, 65023.91
671.6176, 65038.39
672.0997, 65005.00
672.5818, 64936.28
673.0640, 64882.61
673.5461, 64893.48
674.0282, 64919.68
674.5103, 64939.04
674.9924, 64950.46
675.4745, 64920.05
675.9567, 64758.81
676.4388, 64621.24
676.9209, 64618.93
677.4030, 64817.94
677.8851, 64891.70
678.3672, 64782.75
678.8494, 64634.64
679.3315, 64575.10
679.8136, 64604.68
680.2957, 64661.52
680.7778, 64740.76
681.2599, 64824.96
681.7421, 64890.47
682.2242, 64939.74
682.7063, 64979.90
683.1884, 65007.14
683.6705, 65032.70
684.1526, 65064.41
684.6348, 65100.73
685.1169, 65139.27
685.5990, 65215.27
686.0811, 65257.81
686.5632, 65209.50
687.0453, 65096.70
687.5275, 65081.64
688.0096, 65220.09
688.4917, 65350.61
688.9738, 65401.92
689.4559, 65380.07
689.9380, 65351.36
690.4202, 65313.56
690.9023, 65296.15
691.3844, 65342.44
691.8665, 65419.47
692.3486, 65461.76
692.8307, 65456.89
693.3129, 65455.64
693.7950, 65502.38
694.2771, 65563.39
694.7592, 65603.47
695.2413, 65593.15
695.7234, 65597.14
696.2056, 65651.59
696.6877, 65712.36
697.1698, 65723.06
697.6519, 65672.18
698.1340, 65605.05
698.6161, 65517.52
699.0983, 65435.23
699.5804, 65427.63
700.0625, 65488.49
700.5446, 65541.72
701.0267, 65545.14
701.5089, 65532.42
701.9910, 65539.64
702.4731, 65567.33
702.9552, 65617.72
703.4373, 65748.38
703.9194, 65852.42
704.4016, 65842.72
704.8837, 65707.87
705.3658, 65645.03
705.8479, 65697.11
706.3300, 65789.91
706.8121, 65903.64
707.2943, 66049.74
707.7764, 66115.45
708.2585, 66086.67
708.7406, 66034.46
709.2227, 66027.23
709.7048, 66054.22
710.1870, 66072.85
710.6691, 66073.45
711.1512, 66091.20
711.6333, 66192.44
712.1154, 66318.16
712.5975, 66384.27
713.0797, 66296.94
713.5618, 66255.66
714.0439, 66354.46
714.5260, 66524.30
715.0081, 66648.99
715.4902, 66704.64
715.9724, 66756.01
716.4545, 66822.88
716.9366, 66883.21
717.4187, 66853.98
717.9008, 66734.52
718.3829, 66661.14
718.8651, 66717.06
719.3472, 66833.09
719.8293, 66907.53
720.3114, 66944.02
720.7935, 66960.61
721.2756, 66926.01
721.7578, 66909.08
722.2399, 66980.35
722.7220, 67142.88
723.2041, 67238.52
723.6862, 67184.65
724.1683, 67120.12
724.6505, 67104.46
725.1326, 67142.13
725.6147, 67188.48
726.0968, 67248.90
726.5789, 67296.15
727.0610, 67291.95
727.5432, 67253.43
728.0253, 67250.65
728.5074, 67295.19
728.9895, 67338.23
729.4716, 67322.23
729.9537, 67286.34
730.4359, 67284.05
730.9180, 67361.12
731.4001, 67404.86
731.8822, 67364.30
732.3643, 67282.49
732.8464, 67210.94
733.3285, 67126.78
733.8106, 67108.95
734.2927, 67190.76
734.7748, 67312.38
735.2570, 67352.90
735.7391, 67317.95
736.2212, 67298.65
736.7033, 67328.27
737.1854, 67382.43
737.6675, 67445.59
738.1497, 67508.13
738.6318, 67545.33
739.1139, 67530.94
739.5960, 67506.01
740.0781, 67487.72
740.5602, 67477.30
741.0424, 67471.06
741.5245, 67462.41
742.0066, 67469.68
742.4887, 67501.88
742.9708, 67555.75
743.4529, 67605.87
743.9351, 67649.39
744.4172, 67696.99
744.8993, 67760.47
745.3814, 67827.78
745.8635, 67868.21
746.3456, 67881.24
746.8278, 67902.15
747.3099, 67988.04
747.7920, 68065.02
748.2741, 68067.70
748.7562, 67970.59
749.2383, 67889.16
749.7205, 67878.07
750.2026, 67856.88
750.6847, 67764.84
751.1668, 67578.23
751.6489, 67450.91
752.1310, 67392.40
752.6132, 67377.88
753.0953, 67400.61
753.5774, 67446.29
754.0595, 67461.13
754.5416, 67427.44
755.0237, 67391.95
755.5059, 67396.99
755.9880, 67417.58
756.4701, 67423.27
756.9522, 67406.81
757.4343, 67367.02
757.9164, 67292.56
758.3986, 67197.54
758.8807, 67091.69
759.3628, 66961.23
759.8449, 66880.55
760.3270, 66880.24
760.8091, 66915.41
761.2913, 66899.67
761.7734, 66844.54
762.2555, 66797.45
762.7376, 66792.29
763.2197, 66786.88
763.7018, 66718.34
764.1840, 66620.00
764.6661, 66567.34
765.1482, 66637.90
765.6303, 66702.73
766.1124, 66713.20
766.5945, 66683.70
767.0767, 66670.88
767.5588, 66681.73
768.0409, 66676.03
768.5230, 66622.59
769.0051, 66545.13
769.4872, 66536.64
769.9694, 66588.20
770.4515, 66630.61
770.9336, 66613.36
771.4157, 66572.30
771.8978, 66549.50
772.3799, 66541.57
772.8621, 66510.59
773.3442, 66426.55
773.8263, 66334.34
774.3084, 66261.91
774.7905, 66212.14
775.2726, 66120.17
775.7548, 65960.85
776.2369, 65830.32
776.7190, 65825.25
777.2011, 65913.78
777.6832, 65879.26
778.1653, 65721.95
778.6475, 65574.18
779.1296, 65558.36
779.6117, 65593.36
780.0938, 65589.06
780.5759, 65529.00
781.0580, 65478.81
781.5402, 65482.07
782.0223, 65481.44
782.5044, 65435.79
782.9865, 65327.13
783.4686, 65237.77
783.9507, 65164.46
784.4329, 65116.36
784.9150, 65131.54
785.3971, 65185.82
785.8792, 65148.34
786.3613, 64999.28
786.8434, 64836.55
787.3256, 64743.52
787.8077, 64690.05
788.2898, 64640.89
788.7719, 64586.47
789.2540, 64544.85
789.7361, 64526.11
790.2183, 64518.41
790.7004, 64513.02
791.1825, 64511.72
791.6646, 64501.20
792.1467, 64477.95
792.6288, 64447.01
793.1110, 64422.98
793.5930, 64396.61
794.0751, 64328.57
794.5573, 64196.60
795.0394, 64068.16
795.5215, 64010.22
796.0036, 63989.49
796.4857, 63964.91
796.9678, 63952.31
797.4500, 63900.59
797.9321, 63771.14
798.4142, 63624.64
798.8963, 63546.55
799.3784, 63552.94
799.8605, 63541.56
800.3427, 63494.30
800.8248, 63430.44
801.3069, 63382.32
801.7890, 63340.80
802.2711, 63276.67
802.7532, 63162.53
803.2354, 63052.58
803.7175, 62979.86
804.1996, 62932.17
804.6817, 62888.95
805.1638, 62858.04
805.6459, 62815.30
806.1281, 62757.45
806.6102, 62686.89
807.0923, 62602.32
807.5744, 62502.21
808.0565, 62424.02
808.5386, 62380.47
809.0208, 62358.76
809.5029, 62358.10
809.9850, 62364.44
810.4671, 62343.95
810.9492, 62245.92
811.4313, 62157.83
811.9135, 62138.63
812.3956, 62152.32
812.8777, 62112.18
813.3598, 61973.84
813.8419, 61864.38
814.3240, 61820.14
814.8062, 61806.63
815.2883, 61727.45
815.7704, 61591.45
816.2525, 61490.82
816.7346, 61484.46
817.2167, 61496.73
817.6989, 61432.27
818.1810, 61320.09
818.6631, 61227.10
819.1452, 61191.60
819.6273, 61163.70
820.1094, 61149.53
820.5916, 61131.41
821.0737, 61050.99
821.5558, 60877.56
822.0379, 60756.59
822.5200, 60737.26
823.0021, 60783.94
823.4843, 60848.31
823.9664, 60917.22
824.4485, 60939.94
824.9306, 60855.38
825.4127, 60750.96
825.8948, 60691.59
826.3770, 60658.99
826.8591, 60607.82
827.3412, 60483.20
827.8233, 60395.03
828.3054, 60378.70
828.7875, 60403.92
829.2697, 60382.09
829.7518, 60310.00
830.2339, 60244.25
830.7160, 60207.73
831.1981, 60183.46
831.6802, 60153.99
832.1624, 60116.07
832.6445, 60060.59
833.1266, 59959.57
833.6087, 59867.20
834.0908, 59820.39
834.5729, 59800.22
835.0551, 59743.08
835.5372, 59618.77
836.0193, 59529.57
836.5014, 59502.43
836.9835, 59519.39
837.4656, 59555.62
837.9478, 59603.55
838.4299, 59621.13
838.9120, 59576.97
839.3941, 59513.27
839.8762, 59468.13
840.3583, 59432.19
840.8405, 59384.94
841.3226, 59271.87
841.8047, 59212.02
842.2868, 59253.61
842.7689, 59346.89
843.2510, 59370.59
843.7332, 59314.91
844.2153, 59278.07
844.6974, 59298.41
845.1795, 59330.57
845.6616, 59287.48
846.1437, 59197.98
846.6259, 59131.52
847.1080, 59129.22
847.5901, 59140.03
848.0722, 59155.75
848.5543, 59167.06
849.0364, 59154.43
849.5186, 59101.18
850.0007, 59064.72
850.4828, 59057.14
850.9649, 59068.02
851.4470, 59092.62
851.9291, 59123.77
852.4113, 59117.34
852.8934, 59049.28
853.3755, 58965.71
853.8576, 58873.36
854.3397, 58802.70
854.8218, 58798.64
855.3040, 58959.26
855.7860, 59072.62
856.2681, 59094.42
856.7502, 59076.96
857.2324, 59088.80
857.7145, 59129.62
858.1966, 59191.77
858.6787, 59275.68
859.1608, 59371.64
859.6429, 59488.94
860.1251, 59603.73
860.6072, 59672.59
861.0893, 59647.88
861.5714, 59647.46
862.0535, 59746.42
862.5356, 59875.02
863.0178, 59953.36
863.4999, 59957.65
863.9820, 59974.72
864.4641, 60002.82
864.9462, 60061.35
865.4283, 60212.10
865.9105, 60411.60
866.3926, 60516.24
866.8747, 60484.69
867.3568, 60456.34
867.8389, 60544.77
868.3210, 60677.41
868.8032, 60788.92
869.2853, 60862.32
869.7674, 60927.36
870.2495, 60967.88
870.7316, 61028.00
871.2137, 61160.65
871.6959, 61358.79
872.1780, 61523.66
872.6601, 61648.43
873.1422, 61764.16
873.6243, 61909.09
874.1064, 62052.79
874.5886, 62154.63
875.0707, 62201.16
875.5528, 62261.63
876.0349, 62346.10
876.5170, 62453.71
876.9991, 62596.79
877.4813, 62779.21
877.9634, 62895.65
878.4455, 62941.50
878.9276, 62963.59
879.4097, 62987.25
879.8918, 63014.59
880.3740, 63061.27
880.8561, 63123.89
881.3382, 63154.48
881.8203, 63101.32
882.3024, 63039.61
882.7845, 63008.68
883.2667, 63006.39
883.7488, 62999.64
884.2309, 62989.47
884.7130, 62968.78
885.1951, 62933.63
885.6772, 62885.14
886.1594, 62817.15
886.6415, 62735.69
887.1236, 62665.27
887.6057, 62606.86
888.0878, 62575.76
888.5699, 62612.69
889.0521, 62690.82
889.5342, 62692.26
890.0163, 62560.80
890.4984, 62471.56
890.9805, 62468.98
891.4626, 62531.26
891.9448, 62630.96
892.4269, 62754.33
892.9090, 62838.36
893.3911, 62821.80
893.8732, 62803.88
894.3553, 62882.54
894.8375, 63005.07
895.3196, 63076.85
895.8017, 63000.18
896.2838, 62993.50
896.7659, 63108.06
897.2480, 63261.04
897.7302, 63320.43
898.2123, 63295.56
898.6944, 63278.07
899.1765, 63286.55
899.6586, 63311.83
900.1407, 63363.86
900.6229, 63422.05
901.1050, 63457.53
901.5871, 63450.38
902.0692, 63457.08
902.5513, 63489.33
903.0334, 63532.74
903.5156, 63571.21
903.9977, 63603.50
904.4798, 63663.91
904.9619, 63755.00
905.4440, 63850.93
905.9261, 63916.89
906.4083, 63979.02
906.8904, 64078.70
907.3725, 64223.22
907.8546, 64347.21
908.3367, 64418.98
908.8188, 64476.11
909.3010, 64536.08
909.7831, 64599.07
910.2652, 64641.36
910.7473, 64661.32
911.2294, 64685.83
911.7115, 64726.32
912.1937, 64785.13
912.6758, 64886.48
913.1579, 65015.51
913.6400, 65105.02
914.1221, 65080.43
914.6042, 65061.59
915.0864, 65106.38
915.5685, 65189.01
916.0506, 65210.48
916.5327, 65161.59
917.0148, 65126.58
917.4969, 65138.25
917.9790, 65173.18
918.4611, 65196.65
918.9432, 65214.89
919.4254, 65240.50
919.9075, 65272.71
920.3896, 65321.63
920.8717, 65406.93
921.3538, 65502.81
921.8359, 65563.63
922.3181, 65570.55
922.8002, 65639.30
923.2823, 65800.63
923.7644, 65961.48
924.2465, 65974.78
924.7286, 65905.03
925.2108, 65878.12
925.6929, 65931.59
926.1750, 65964.42
926.6571, 65910.77
927.1392, 65834.87
927.6213, 65785.24
928.1035, 65766.13
928.5856, 65773.02
929.0677, 65819.72
929.5498, 65835.53
930.0319, 65738.10
930.5140, 65583.49
930.9962, 65486.91
931.4783, 65446.82
931.9604, 65389.32
932.4425, 65251.66
932.9246, 65112.30
933.4067, 65012.06
933.8889, 64944.75
934.3710, 64869.23
934.8531, 64784.11
935.3352, 64697.33
935.8173, 64613.11
936.2994, 64529.75
936.7816, 64435.80
937.2637, 64340.96
937.7458, 64274.88
938.2279, 64306.88
938.7100, 64304.35
939.1921, 64194.76
939.6743, 64030.34
940.1564, 63887.75
940.6385, 63769.94
941.1206, 63672.02
941.6027, 63601.58
942.0848, 63522.30
942.5670, 63366.02
943.0491, 63173.26
943.5312, 63015.99
944.0133, 62918.21
944.4954, 62823.36
944.9775, 62716.03
945.4597, 62597.52
945.9418, 62474.10
946.4239, 62349.57
946.9060, 62183.83
947.3881, 61968.70
947.8702, 61765.92
948.3524, 61625.04
948.8345, 61526.09
949.3166, 61455.34
949.7987, 61404.47
950.2808, 61322.33
950.7629, 61165.54
951.2451, 60994.95
951.7272, 60822.08
952.2093, 60654.11
952.6914, 60529.88
953.1735, 60453.04
953.6556, 60366.17
954.1378, 60238.73
954.6199, 60106.47
955.1020, 60038.11
955.5841, 59997.48
956.0662, 59914.22
956.5483, 59704.90
957.0305, 59529.38
957.5126, 59432.13
957.9947, 59368.72
958.4768, 59292.47
958.9589, 59203.31
959.4410, 59107.66
959.9232, 59004.14
960.4053, 58906.34
960.8874, 58837.76
961.3695, 58774.18
961.8516, 58675.84
962.3337, 58528.32
962.8159, 58426.04
963.2980, 58426.83
963.7801, 58426.75
964.2622, 58388.61
964.7443, 58309.65
965.2264, 58143.04
965.7086, 57894.94
966.1907, 57675.74
966.6728, 57550.11
967.1549, 57479.78
967.6370, 57455.49
968.1191, 57461.36
968.6013, 57449.77
969.0834, 57394.16
969.5655, 57349.23
970.0476, 57322.44
970.5297, 57310.20
971.0118, 57309.04
971.4940, 57317.14
971.9761, 57328.87
972.4582, 57349.21
972.9403, 57350.75
973.4224, 57297.47
973.9045, 57224.20
974.3867, 57161.52
974.8688, 57096.39
975.3509, 57100.19
975.8330, 57198.52
976.3151, 57300.04
976.7972, 57320.18
977.2794, 57287.89
977.7615, 57301.77
978.2436, 57357.65
978.7257, 57397.31
979.2078, 57360.55
979.6899, 57322.66
980.1720, 57337.63
980.6541, 57387.14
981.1362, 57386.61
981.6183, 57321.84
982.1005, 57273.75
982.5826, 57270.25
983.0647, 57288.80
983.5468, 57299.16
984.0289, 57303.06
984.5110, 57304.18
984.9932, 57310.89
985.4753, 57303.64
985.9574, 57244.70
986.4395, 57193.73
986.9216, 57214.89
987.4037, 57321.12
987.8859, 57369.16
988.3680, 57350.51
988.8501, 57309.49
989.3322, 57259.13
989.8143, 57222.15
990.2964, 57228.73
990.7786, 57279.57
991.2607, 57344.34
991.7428, 57450.32
992.2249, 57521.46
992.7070, 57525.27
993.1891, 57481.79
993.6713, 57454.97
994.1534, 57443.29
994.6355, 57435.38
995.1176, 57419.06
995.5997, 57417.81
996.0818, 57466.38
996.5640, 57535.47
997.0461, 57580.20
997.5282, 57576.77
998.0103, 57589.80
998.4924, 57628.45
998.9745, 57665.27
999.4567, 57657.19
999.9388, 57626.14
1000.421, 57638.48
1000.903, 57698.65
1001.385, 57760.15
1001.867, 57814.76
1002.349, 57844.16
1002.831, 57813.23
1003.314, 57738.57
1003.796, 57747.83
1004.278, 57855.40
1004.760, 57937.60
1005.242, 57937.99
1005.724, 57900.82
1006.206, 57885.81
1006.688, 57883.73
1007.171, 57875.04
1007.653, 57839.63
1008.135, 57818.92
1008.617, 57831.13
1009.099, 57846.23
1009.581, 57824.39
1010.063, 57768.59
1010.545, 57744.46
1011.027, 57756.95
1011.510, 57777.79
1011.992, 57791.46
1012.474, 57797.14
1012.956, 57796.42
1013.438, 57788.09
1013.920, 57753.73
1014.402, 57668.59
1014.884, 57620.29
1015.367, 57653.39
1015.849, 57727.98
1016.331, 57741.08
1016.813, 57716.68
1017.295, 57729.69
1017.777, 57857.75
1018.259, 57952.38
1018.741, 57928.80
1019.223, 57856.94
1019.706, 57806.78
1020.188, 57779.54
1020.670, 57775.06
1021.152, 57795.20
1021.634, 57825.21
1022.116, 57857.55
1022.598, 57887.65
1023.080, 57897.83
1023.563, 57890.36
1024.045, 57919.88
1024.527, 58045.23
1025.009, 58138.52
1025.491, 58148.80
1025.973, 58112.16
1026.455, 58125.25
1026.937, 58181.28
1027.419, 58253.78
1027.901, 58356.48
1028.384, 58421.59
1028.866, 58358.41
1029.348, 58257.28
1029.830, 58229.42
1030.312, 58314.39
1030.794, 58360.87
1031.276, 58367.28
1031.758, 58350.38
1032.241, 58289.75
1032.723, 58232.91
1033.205, 58293.93
1033.687, 58451.78
1034.169, 58549.77
1034.651, 58451.57
1035.133, 58371.62
1035.615, 58365.64
1036.098, 58416.40
1036.580, 58500.84
1037.062, 58611.77
1037.544, 58681.64
1038.026, 58678.60
1038.508, 58678.13
1038.990, 58778.33
1039.472, 58895.04
1039.954, 58929.04
1040.437, 58837.87
1040.919, 58804.68
1041.401, 58849.38
1041.883, 58895.49
1042.365, 58889.98
1042.847, 58855.05
1043.329, 58847.51
1043.811, 58858.68
1044.293, 58850.48
1044.776, 58795.40
1045.258, 58732.89
1045.740, 58651.43
1046.222, 58586.07
1046.704, 58614.68
1047.186, 58735.47
1047.668, 58783.77
1048.150, 58729.36
1048.633, 58651.73
1049.115, 58594.75
1049.597, 58568.00
1050.079, 58594.83
1050.561, 58686.57
1051.043, 58733.09
1051.525, 58721.98
1052.007, 58690.94
1052.490, 58632.76
1052.972, 58586.66
1053.454, 58651.74
1053.936, 58800.47
1054.418, 58961.55
1054.900, 59186.69
1055.382, 59301.20
1055.864, 59162.77
1056.346, 58967.01
1056.828, 58916.41
1057.311, 59011.93
1057.793, 59021.53
1058.275, 58931.25
1058.757, 58820.74
1059.239, 58752.82
1059.721, 58691.16
1060.203, 58600.61
1060.685, 58486.98
1061.168, 58400.11
1061.650, 58352.76
1062.132, 58308.00
1062.614, 58257.99
1063.096, 58206.54
1063.578, 58146.70
1064.060, 58093.11
1064.542, 58081.33
1065.025, 58141.13
1065.507, 58174.85
1065.989, 58126.13
1066.471, 58068.29
1066.953, 58043.11
1067.435, 58048.11
1067.917, 58048.57
1068.399, 58045.02
1068.881, 58043.19
1069.364, 58036.51
1069.846, 58041.95
1070.328, 58085.02
1070.810, 58144.56
1071.292, 58170.45
1071.774, 58143.82
1072.256, 58139.79
1072.738, 58165.13
1073.220, 58211.91
1073.703, 58305.11
1074.185, 58395.91
1074.667, 58397.23
1075.149, 58299.91
1075.631, 58212.25
1076.113, 58145.77
1076.595, 58121.03
1077.077, 58161.96
1077.559, 58241.04
1078.042, 58282.04
1078.524, 58291.10
1079.006, 58287.00
1079.488, 58270.78
1079.970, 58258.23
1080.452, 58248.22
1080.934, 58255.04
1081.416, 58297.61
1081.899, 58386.13
1082.381, 58416.21
1082.863, 58381.13
1083.345, 58362.67
1083.827, 58433.00
1084.309, 58533.75
1084.791, 58619.75
1085.273, 58685.89
1085.755, 58722.35
1086.238, 58717.64
1086.720, 58700.75
1087.202, 58668.12
1087.684, 58640.03
1088.166, 58654.15
1088.648, 58691.46
1089.130, 58706.16
1089.612, 58691.97
1090.094, 58683.59
1090.577, 58718.65
1091.059, 58737.73
1091.541, 58704.03
1092.023, 58640.40
1092.505, 58638.80
1092.987, 58693.21
1093.469, 58756.75
1093.951, 58815.44
1094.434, 58870.78
1094.916, 58932.46
1095.398, 58984.11
1095.880, 59004.67
1096.362, 58987.46
1096.844, 58969.63
1097.326, 58950.39
1097.808, 58932.56
1098.291, 58909.02
1098.773, 58894.73
1099.255, 58935.62
1099.737, 59003.96
1100.219, 59010.81
1100.701, 58872.64
1101.183, 58783.61
1101.665, 58769.05
1102.147, 58798.40
1102.630, 58855.26
1103.112, 58919.65
1103.594, 58936.99
1104.076, 58900.37
1104.558, 58859.54
1105.040, 58834.90
1105.522, 58810.80
1106.004, 58781.37
1106.486, 58746.82
1106.969, 58702.66
1107.451, 58652.64
1107.933, 58629.71
1108.415, 58655.98
1108.897, 58678.75
1109.379, 58667.32
1109.861, 58630.27
1110.343, 58567.55
1110.826, 58474.95
1111.308, 58437.90
1111.790, 58464.06
1112.272, 58479.17
1112.754, 58416.42
1113.236, 58338.94
1113.718, 58317.35
1114.200, 58335.47
1114.682, 58359.60
1115.165, 58395.50
1115.647, 58409.38
1116.129, 58395.67
1116.611, 58365.06
1117.093, 58323.58
1117.575, 58273.97
1118.057, 58218.00
1118.539, 58157.45
1119.021, 58107.16
1119.504, 58083.09
1119.986, 58059.86
1120.468, 58036.61
1120.950, 58007.15
1121.432, 57933.41
1121.914, 57839.38
1122.396, 57839.89
1122.878, 57979.64
1123.361, 58081.28
1123.843, 57989.51
1124.325, 57877.32
1124.807, 57860.37
1125.289, 57924.26
1125.771, 57933.76
1126.253, 57891.66
1126.735, 57887.51
1127.218, 57980.93
1127.700, 58081.34
1128.182, 58094.77
1128.664, 58077.45
1129.146, 58111.68
1129.628, 58228.17
1130.110, 58261.64
1130.592, 58197.20
1131.074, 58136.70
1131.557, 58181.61
1132.039, 58250.29
1132.521, 58232.23
1133.003, 58152.91
1133.485, 58088.35
1133.967, 58071.07
1134.449, 58036.19
1134.931, 57975.00
1135.413, 57910.13
1135.896, 57867.60
1136.378, 57842.66
1136.860, 57838.45
1137.342, 57851.71
1137.824, 57826.69
1138.306, 57688.69
1138.788, 57579.10
1139.270, 57530.34
1139.752, 57527.41
1140.235, 57550.37
1140.717, 57590.61
1141.199, 57624.15
1141.681, 57642.92
1142.163, 57659.77
1142.645, 57693.39
1143.127, 57711.86
1143.609, 57698.53
1144.092, 57656.73
1144.574, 57605.23
1145.056, 57544.29
1145.538, 57465.68
1146.020, 57352.53
1146.502, 57252.58
1146.984, 57200.73
1147.466, 57182.96
1147.948, 57183.79
1148.431, 57205.84
1148.913, 57230.56
1149.395, 57257.86
1149.877, 57287.79
1150.359, 57313.78
1150.841, 57345.07
1151.323, 57395.89
1151.805, 57453.84
1152.287, 57491.61
1152.770, 57496.36
1153.252, 57521.11
1153.734, 57575.71
1154.216, 57608.70
1154.698, 57526.27
1155.180, 57426.79
1155.662, 57454.27
1156.144, 57589.31
1156.627, 57640.63
1157.109, 57546.90
1157.591, 57493.28
1158.073, 57525.61
1158.555, 57582.52
1159.037, 57602.82
1159.519, 57581.30
1160.001, 57480.36
1160.484, 57285.45
1160.966, 57185.96
1161.448, 57279.51
1161.930, 57353.79
1162.412, 57339.54
1162.894, 57263.22
1163.376, 57139.57
1163.858, 57005.62
1164.340, 56966.34
1164.823, 57091.71
1165.305, 57170.01
1165.787, 57126.73
1166.269, 57050.53
1166.751, 56976.73
1167.233, 56912.19
1167.715, 56892.36
1168.197, 56907.37
1168.679, 56913.34
1169.162, 56861.10
1169.644, 56843.71
1170.126, 56905.54
1170.608, 57002.47
1171.090, 57121.05
1171.572, 57252.77
1172.054, 57284.02
1172.536, 57224.50
1173.019, 57188.29
1173.501, 57266.96
1173.983, 57352.64
1174.465, 57403.10
1174.947, 57425.22
1175.429, 57417.18
1175.911, 57379.94
1176.393, 57392.77
1176.875, 57462.32
1177.358, 57491.95
1177.840, 57343.23
1178.322, 57198.86
1178.804, 57198.18
1179.286, 57291.51
1179.768, 57347.72
1180.250, 57364.41
1180.732, 57401.60
1181.214, 57472.37
1181.697, 57538.30
1182.179, 57587.47
1182.661, 57599.85
1183.143, 57528.61
1183.625, 57392.49
1184.107, 57334.99
1184.589, 57362.29
1185.071, 57396.00
1185.554, 57420.89
1186.036, 57423.09
1186.518, 57361.35
1187.000, 57286.48
1187.482, 57263.52
1187.964, 57301.00
1188.446, 57297.10
1188.928, 57246.56
1189.411, 57197.37
1189.893, 57167.96
1190.375, 57155.27
1190.857, 57181.39
1191.339, 57211.10
1191.821, 57182.53
1192.303, 57052.21
1192.785, 57023.87
1193.267, 57115.66
1193.750, 57211.20
1194.232, 57250.88
1194.714, 57245.36
1195.196, 57175.11
1195.678, 57078.14
1196.160, 57031.89
1196.642, 57085.11
1197.124, 57097.42
1197.606, 57054.93
1198.089, 57023.03
1198.571, 57070.73
1199.053, 57149.18
1199.535, 57201.17
1200.017, 57227.68
1200.499, 57235.30
1200.981, 57214.73
1201.463, 57201.57
1201.945, 57199.29
1202.428, 57203.39
1202.910, 57213.34
1203.392, 57224.36
1203.874, 57223.70
1204.356, 57215.27
1204.838, 57227.60
1205.320, 57273.87
1205.802, 57324.39
1206.285, 57384.42
1206.767, 57416.42
1207.249, 57329.55
1207.731, 57206.54
1208.213, 57182.45
1208.695, 57266.13
1209.177, 57328.06
1209.659, 57357.59
1210.141, 57342.75
1210.624, 57261.73
1211.106, 57180.02
1211.588, 57223.49
1212.070, 57315.68
1212.552, 57315.81
1213.034, 57189.64
1213.516, 57167.05
1213.998, 57330.36
1214.480, 57438.24
1214.963, 57392.96
1215.445, 57283.84
1215.927, 57251.81
1216.409, 57268.38
1216.891, 57293.30
1217.373, 57327.96
1217.855, 57322.46
1218.337, 57253.11
1218.820, 57203.66
1219.302, 57219.54
1219.784, 57268.00
1220.266, 57301.30
1220.748, 57319.55
1221.230, 57321.09
1221.712, 57302.32
1222.194, 57267.11
1222.677, 57199.68
1223.159, 57160.28
1223.641, 57199.94
1224.123, 57272.64
1224.605, 57285.52
1225.087, 57270.76
1225.569, 57295.46
1226.051, 57438.64
1226.533, 57492.55
1227.016, 57428.45
1227.498, 57352.37
1227.980, 57341.61
1228.462, 57365.60
1228.944, 57374.96
1229.426, 57379.04
1229.908, 57401.76
1230.390, 57499.46
1230.872, 57504.69
1231.355, 57382.94
1231.837, 57279.12
1232.319, 57369.19
1232.801, 57517.18
1233.283, 57492.04
1233.765, 57356.79
1234.247, 57332.17
1234.729, 57525.05
1235.212, 57644.05
1235.694, 57659.78
1236.176, 57634.59
1236.658, 57600.29
1237.140, 57576.30
1237.622, 57607.89
1238.104, 57674.55
1238.586, 57685.26
1239.068, 57612.41
1239.551, 57557.20
1240.033, 57532.07
1240.515, 57526.90
1240.997, 57535.48
1241.479, 57557.82
1241.961, 57610.41
1242.443, 57681.70
1242.925, 57704.67
1243.407, 57664.17
1243.890, 57638.91
1244.372, 57642.57
1244.854, 57653.65
1245.336, 57638.52
1245.818, 57626.29
1246.300, 57648.96
1246.782, 57701.92
1247.264, 57740.85
1247.747, 57760.45
1248.229, 57797.20
1248.711, 57865.38
1249.193, 57910.94
1249.675, 57868.46
1250.157, 57794.58
1250.639, 57732.29
1251.121, 57686.91
1251.604, 57674.16
1252.086, 57699.16
1252.568, 57683.59
1253.050, 57601.44
1253.532, 57524.50
1254.014, 57525.20
1254.496, 57547.72
1254.978, 57538.57
1255.460, 57508.33
1255.943, 57526.51
1256.425, 57588.94
1256.907, 57639.68
1257.389, 57660.13
1257.871, 57676.25
1258.353, 57728.33
1258.835, 57756.85
1259.317, 57712.84
1259.799, 57613.41
1260.281, 57541.04
1260.764, 57495.08
1261.246, 57473.39
1261.728, 57481.94
1262.210, 57498.43
1262.692, 57537.13
1263.174, 57556.76
1263.656, 57531.89
1264.138, 57474.73
1264.621, 57420.45
1265.103, 57373.50
1265.585, 57348.06
1266.067, 57354.18
1266.549, 57368.40
1267.031, 57372.34
1267.513, 57395.19
1267.995, 57454.64
1268.478, 57539.59
1268.960, 57630.86
1269.442, 57720.12
1269.924, 57782.63
1270.406, 57788.61
1270.888, 57823.54
1271.370, 57910.88
1271.852, 57995.84
1272.334, 58050.65
1272.817, 58077.75
1273.299, 58076.23
1273.781, 58054.98
1274.263, 58030.45
1274.745, 57991.57
1275.227, 58005.24
1275.709, 58099.66
1276.191, 58170.30
1276.673, 58149.30
1277.156, 58081.33
1277.638, 58020.45
1278.120, 57967.65
1278.602, 57920.72
1279.084, 57877.71
1279.566, 57850.81
1280.048, 57839.67
1280.530, 57850.36
1281.013, 57898.99
1281.495, 57956.14
1281.977, 57999.96
1282.459, 58027.21
1282.941, 58028.42
1283.423, 57996.23
1283.905, 57980.55
1284.387, 57980.48
1284.870, 57993.18
1285.352, 58024.30
1285.834, 58056.88
1286.316, 58092.01
1286.798, 58112.12
1287.280, 58091.78
1287.762, 58029.32
1288.244, 58022.73
1288.726, 58062.60
1289.208, 58066.99
1289.691, 57925.61
1290.173, 57823.45
1290.655, 57879.64
1291.137, 57972.97
1291.619, 58007.29
1292.101, 57986.62
1292.583, 57948.27
1293.065, 57912.15
1293.548, 57911.24
##END=



