##NAMES=Tsepinite-Na
##RRUFFID=R070241
##IDEAL CHEMISTRY=(Na,H_3_O,K,Sr,Ba,[box])_12_Ti^4+^_8_(Si_4_O_12_)_4_(OH,O)_8_&#183;12-16H_2_O
##LOCALITY=Lepkhe-Nel'm Mt. (Lepkhe-Nelm Mt.), Seidozero Lake, Lovozero Massif, Kola Peninsula, Murmanskaja Oblast', Northern Region, Russia
##OWNER=RRUFF
##SOURCE=Michael Scott
##DESCRIPTION=Subparallel pale tan prismatic crystals with vitreous luster
##STATUS=The identification of this mineral has been confirmed only by single crystal X-ray diffraction.
##URL=rruff.info/R070241
157.3757, 7476.099
157.8578, 7521.545
158.3399, 7534.230
158.8221, 7539.670
159.3042, 7554.625
159.7863, 7587.291
160.2684, 7625.910
160.7505, 7670.594
161.2326, 7720.429
161.7148, 7765.125
162.1969, 7791.862
162.6790, 7814.839
163.1611, 7847.386
163.6432, 7902.834
164.1253, 7962.144
164.6075, 8017.811
165.0896, 8069.659
165.5717, 8114.297
166.0538, 8144.931
166.5359, 8168.003
167.0180, 8192.831
167.5002, 8224.618
167.9823, 8258.988
168.4644, 8290.915
168.9465, 8318.918
169.4286, 8352.217
169.9107, 8406.004
170.3929, 8470.232
170.8750, 8525.146
171.3571, 8553.494
171.8392, 8569.858
172.3213, 8589.816
172.8034, 8616.076
173.2856, 8642.713
173.7677, 8660.499
174.2498, 8672.922
174.7319, 8691.550
175.2140, 8729.997
175.6961, 8777.544
176.1783, 8816.761
176.6604, 8841.112
177.1425, 8861.513
177.6246, 8889.120
178.1067, 8923.601
178.5888, 8964.779
179.0710, 9025.056
179.5531, 9091.391
180.0352, 9130.373
180.5173, 9120.362
180.9994, 9092.942
181.4815, 9102.433
181.9637, 9147.980
182.4458, 9200.075
182.9279, 9233.988
183.4100, 9253.707
183.8921, 9274.979
184.3742, 9303.328
184.8564, 9335.714
185.3385, 9362.368
185.8206, 9382.853
186.3027, 9405.691
186.7848, 9442.190
187.2669, 9490.598
187.7491, 9538.772
188.2312, 9583.949
188.7133, 9625.501
189.1954, 9659.833
189.6775, 9685.194
190.1596, 9710.241
190.6418, 9747.023
191.1239, 9795.159
191.6060, 9844.553
192.0881, 9890.273
192.5702, 9933.104
193.0524, 9981.965
193.5345, 10039.15
194.0166, 10096.11
194.4987, 10135.97
194.9808, 10157.54
195.4629, 10180.10
195.9451, 10211.48
196.4272, 10251.99
196.9093, 10298.23
197.3914, 10351.34
197.8735, 10408.20
198.3556, 10465.56
198.8378, 10524.58
199.3199, 10575.75
199.8020, 10608.75
200.2841, 10621.40
200.7662, 10645.31
201.2483, 10685.11
201.7305, 10734.56
202.2126, 10777.08
202.6947, 10810.05
203.1768, 10845.83
203.6589, 10892.57
204.1410, 10951.00
204.6232, 11013.97
205.1053, 11085.67
205.5874, 11159.41
206.0695, 11208.41
206.5516, 11223.35
207.0337, 11238.01
207.5159, 11278.47
207.9980, 11350.32
208.4801, 11417.52
208.9622, 11474.22
209.4443, 11522.91
209.9264, 11577.40
210.4086, 11642.02
210.8907, 11703.96
211.3728, 11751.47
211.8549, 11780.93
212.3370, 11808.71
212.8191, 11833.39
213.3013, 11857.00
213.7834, 11901.49
214.2655, 11976.55
214.7476, 12057.22
215.2297, 12121.61
215.7118, 12167.25
216.1940, 12204.30
216.6761, 12230.30
217.1582, 12246.34
217.6403, 12277.14
218.1224, 12331.13
218.6045, 12388.10
219.0867, 12428.58
219.5688, 12448.41
220.0509, 12460.30
220.5330, 12463.46
221.0151, 12457.55
221.4972, 12461.17
221.9794, 12479.25
222.4615, 12501.37
222.9436, 12516.69
223.4257, 12523.41
223.9078, 12526.92
224.3899, 12527.35
224.8721, 12524.28
225.3542, 12524.61
225.8363, 12532.43
226.3184, 12539.77
226.8005, 12537.47
227.2827, 12524.74
227.7648, 12503.49
228.2469, 12471.71
228.7290, 12427.38
229.2111, 12388.72
229.6932, 12355.98
230.1754, 12329.13
230.6575, 12309.68
231.1396, 12306.53
231.6217, 12294.99
232.1038, 12265.67
232.5859, 12213.84
233.0681, 12170.21
233.5502, 12139.31
234.0323, 12113.50
234.5144, 12080.46
234.9965, 12034.13
235.4786, 11991.37
235.9608, 11959.45
236.4429, 11943.58
236.9250, 11915.74
237.4071, 11870.61
237.8892, 11816.97
238.3713, 11768.93
238.8535, 11729.98
239.3356, 11690.73
239.8177, 11647.49
240.2998, 11597.89
240.7819, 11553.56
241.2640, 11517.62
241.7462, 11484.40
242.2283, 11443.69
242.7104, 11392.54
243.1925, 11338.60
243.6746, 11282.28
244.1567, 11218.88
244.6389, 11169.11
245.1210, 11136.88
245.6031, 11115.97
246.0852, 11096.44
246.5673, 11079.81
247.0494, 11062.07
247.5316, 11043.19
248.0137, 11026.25
248.4958, 10996.62
248.9779, 10948.62
249.4600, 10891.24
249.9421, 10841.84
250.4243, 10801.08
250.9064, 10766.46
251.3885, 10737.91
251.8706, 10717.17
252.3527, 10696.25
252.8348, 10674.50
253.3170, 10653.05
253.7991, 10636.02
254.2812, 10630.59
254.7633, 10616.12
255.2454, 10580.73
255.7275, 10514.53
256.2097, 10465.78
256.6918, 10439.42
257.1739, 10427.65
257.6560, 10417.60
258.1381, 10412.67
258.6202, 10402.24
259.1024, 10379.67
259.5845, 10339.90
260.0666, 10309.85
260.5487, 10290.78
261.0308, 10280.57
261.5129, 10277.87
261.9951, 10290.13
262.4772, 10292.00
262.9593, 10269.78
263.4414, 10215.69
263.9235, 10174.12
264.4056, 10148.02
264.8878, 10131.22
265.3699, 10110.38
265.8520, 10080.53
266.3341, 10060.48
266.8162, 10062.61
267.2983, 10093.14
267.7805, 10103.68
268.2626, 10086.99
268.7447, 10058.18
269.2268, 10045.01
269.7089, 10052.55
270.1910, 10057.54
270.6732, 10050.73
271.1553, 10031.19
271.6374, 10007.04
272.1195, 9974.407
272.6016, 9942.774
273.0837, 9933.966
273.5659, 9954.487
274.0480, 9964.147
274.5301, 9938.466
275.0122, 9875.374
275.4943, 9846.048
275.9764, 9860.890
276.4586, 9889.926
276.9407, 9884.278
277.4228, 9839.599
277.9049, 9798.757
278.3870, 9777.665
278.8691, 9775.865
279.3513, 9786.770
279.8334, 9815.184
280.3155, 9843.944
280.7976, 9846.475
281.2798, 9821.640
281.7619, 9796.995
282.2440, 9785.932
282.7261, 9785.477
283.2082, 9770.395
283.6903, 9737.699
284.1725, 9701.363
284.6546, 9674.888
285.1367, 9658.635
285.6188, 9657.710
286.1009, 9690.625
286.5830, 9741.979
287.0652, 9737.005
287.5473, 9669.239
288.0294, 9584.104
288.5115, 9527.311
288.9936, 9496.935
289.4757, 9478.843
289.9579, 9470.202
290.4400, 9469.777
290.9221, 9479.814
291.4042, 9501.805
291.8863, 9515.620
292.3684, 9490.924
292.8506, 9437.213
293.3327, 9396.280
293.8148, 9390.296
294.2969, 9399.735
294.7790, 9383.435
295.2611, 9341.232
295.7433, 9295.481
296.2254, 9267.390
296.7075, 9250.860
297.1896, 9228.849
297.6717, 9188.611
298.1538, 9146.508
298.6360, 9133.146
299.1181, 9146.094
299.6002, 9158.068
300.0823, 9146.125
300.5644, 9118.609
301.0465, 9090.276
301.5287, 9061.175
302.0108, 9037.613
302.4929, 9032.424
302.9750, 9042.358
303.4571, 9049.095
303.9392, 9044.035
304.4214, 9027.273
304.9035, 8996.350
305.3856, 8942.885
305.8677, 8888.806
306.3498, 8855.047
306.8319, 8837.934
307.3141, 8823.870
307.7962, 8815.408
308.2783, 8801.496
308.7604, 8768.228
309.2425, 8705.352
309.7246, 8640.669
310.2068, 8591.131
310.6889, 8553.403
311.1710, 8518.172
311.6531, 8485.640
312.1352, 8450.958
312.6173, 8408.893
313.0995, 8355.081
313.5816, 8305.683
314.0637, 8273.234
314.5458, 8249.968
315.0279, 8220.983
315.5100, 8173.771
315.9922, 8124.466
316.4743, 8082.389
316.9564, 8050.544
317.4385, 8017.905
317.9206, 7978.919
318.4027, 7937.394
318.8849, 7898.651
319.3670, 7870.891
319.8491, 7840.199
320.3312, 7798.100
320.8133, 7740.477
321.2954, 7692.253
321.7776, 7674.655
322.2597, 7662.203
322.7418, 7627.743
323.2239, 7530.394
323.7060, 7447.592
324.1881, 7403.785
324.6703, 7403.328
325.1524, 7394.585
325.6345, 7369.016
326.1166, 7336.628
326.5987, 7305.272
327.0808, 7280.007
327.5630, 7249.817
328.0451, 7209.111
328.5272, 7158.827
329.0093, 7120.078
329.4914, 7108.063
329.9735, 7094.718
330.4557, 7059.985
330.9378, 6981.220
331.4199, 6920.719
331.9020, 6887.542
332.3841, 6876.803
332.8662, 6865.945
333.3484, 6858.746
333.8305, 6845.857
334.3126, 6818.936
334.7947, 6769.319
335.2768, 6734.192
335.7589, 6720.167
336.2411, 6719.069
336.7232, 6710.845
337.2053, 6695.322
337.6874, 6673.275
338.1695, 6642.190
338.6516, 6600.609
339.1338, 6564.974
339.6159, 6536.222
340.0980, 6512.924
340.5801, 6495.077
341.0622, 6483.213
341.5443, 6469.865
342.0265, 6452.528
342.5086, 6431.241
342.9907, 6400.728
343.4728, 6357.829
343.9549, 6319.133
344.4370, 6317.408
344.9192, 6347.253
345.4013, 6355.350
345.8834, 6311.200
346.3655, 6235.103
346.8476, 6181.179
347.3297, 6149.993
347.8119, 6128.937
348.2940, 6108.770
348.7761, 6089.858
349.2582, 6074.953
349.7403, 6071.037
350.2225, 6064.707
350.7046, 6028.516
351.1867, 5966.466
351.6688, 5911.960
352.1509, 5900.724
352.6331, 5909.293
353.1152, 5900.553
353.5973, 5858.633
354.0794, 5811.905
354.5615, 5783.220
355.0436, 5770.034
355.5258, 5764.601
356.0079, 5776.718
356.4900, 5786.935
356.9721, 5774.906
357.4542, 5730.866
357.9363, 5687.135
358.4185, 5664.233
358.9006, 5653.653
359.3827, 5640.671
359.8648, 5616.318
360.3469, 5590.647
360.8290, 5568.019
361.3112, 5548.589
361.7933, 5533.532
362.2754, 5528.495
362.7575, 5525.893
363.2396, 5517.445
363.7217, 5496.183
364.2039, 5474.109
364.6860, 5449.897
365.1681, 5423.509
365.6502, 5411.777
366.1323, 5428.790
366.6144, 5453.506
367.0966, 5471.514
367.5787, 5475.937
368.0608, 5481.400
368.5429, 5493.416
369.0250, 5508.650
369.5071, 5508.924
369.9893, 5480.875
370.4714, 5453.445
370.9535, 5441.918
371.4356, 5457.314
371.9177, 5463.030
372.3998, 5453.489
372.8820, 5436.623
373.3641, 5430.768
373.8462, 5439.416
374.3283, 5449.931
374.8104, 5455.714
375.2925, 5455.635
375.7747, 5467.310
376.2568, 5495.626
376.7389, 5526.211
377.2210, 5538.113
377.7031, 5530.211
378.1852, 5519.356
378.6674, 5507.696
379.1495, 5497.345
379.6316, 5499.677
380.1137, 5515.914
380.5958, 5533.570
381.0779, 5540.257
381.5601, 5537.914
382.0422, 5534.873
382.5243, 5530.602
383.0064, 5529.606
383.4885, 5541.853
383.9706, 5565.957
384.4528, 5590.846
384.9349, 5607.940
385.4170, 5621.330
385.8991, 5640.737
386.3812, 5671.516
386.8633, 5696.188
387.3455, 5688.762
387.8276, 5662.333
388.3097, 5646.796
388.7918, 5664.126
389.2739, 5694.194
389.7560, 5725.180
390.2382, 5757.117
390.7203, 5778.349
391.2024, 5777.228
391.6845, 5763.772
392.1666, 5749.443
392.6487, 5728.077
393.1309, 5715.912
393.6130, 5729.827
394.0951, 5766.187
394.5772, 5783.054
395.0593, 5742.398
395.5414, 5696.209
396.0236, 5677.449
396.5057, 5729.933
396.9878, 5763.376
397.4699, 5758.780
397.9520, 5727.615
398.4341, 5705.838
398.9163, 5693.166
399.3984, 5690.369
399.8805, 5701.328
400.3626, 5737.411
400.8447, 5752.137
401.3268, 5734.218
401.8090, 5703.257
402.2911, 5686.996
402.7732, 5690.430
403.2553, 5696.211
403.7374, 5701.561
404.2195, 5706.146
404.7017, 5701.774
405.1838, 5684.872
405.6659, 5668.622
406.1480, 5667.720
406.6301, 5682.453
407.1122, 5690.605
407.5944, 5683.956
408.0765, 5672.854
408.5586, 5688.965
409.0407, 5731.700
409.5228, 5766.276
410.0049, 5759.102
410.4871, 5725.555
410.9692, 5708.875
411.4513, 5714.618
411.9334, 5732.498
412.4155, 5756.025
412.8976, 5783.163
413.3798, 5807.133
413.8619, 5819.521
414.3440, 5830.730
414.8261, 5854.675
415.3082, 5891.636
415.7903, 5925.925
416.2725, 5940.990
416.7546, 5950.310
417.2367, 5969.704
417.7188, 6011.727
418.2009, 6055.924
418.6830, 6094.022
419.1652, 6126.881
419.6473, 6156.155
420.1294, 6171.525
420.6115, 6191.746
421.0937, 6229.396
421.5758, 6296.482
422.0579, 6357.073
422.5400, 6404.260
423.0221, 6442.788
423.5042, 6481.288
423.9864, 6515.442
424.4685, 6554.223
424.9506, 6599.057
425.4327, 6649.024
425.9148, 6711.792
426.3969, 6800.544
426.8791, 6887.056
427.3612, 6943.409
427.8433, 6958.996
428.3254, 6976.365
428.8075, 6997.991
429.2896, 7026.630
429.7718, 7074.137
430.2539, 7143.700
430.7360, 7215.337
431.2181, 7274.907
431.7002, 7323.573
432.1823, 7379.767
432.6645, 7446.100
433.1466, 7514.539
433.6287, 7575.333
434.1108, 7628.507
434.5929, 7673.934
435.0750, 7704.221
435.5572, 7729.403
436.0393, 7772.427
436.5214, 7832.154
437.0035, 7884.640
437.4856, 7894.131
437.9677, 7889.287
438.4499, 7913.048
438.9320, 7992.816
439.4141, 8075.546
439.8962, 8121.802
440.3783, 8141.178
440.8604, 8159.778
441.3426, 8183.779
441.8247, 8213.974
442.3068, 8254.756
442.7889, 8311.136
443.2710, 8355.993
443.7531, 8373.367
444.2353, 8378.847
444.7174, 8389.969
445.1995, 8400.890
445.6816, 8426.542
446.1637, 8474.848
446.6458, 8543.135
447.1280, 8608.972
447.6101, 8672.913
448.0922, 8734.027
448.5743, 8792.042
449.0564, 8850.465
449.5385, 8894.989
450.0207, 8914.699
450.5028, 8929.804
450.9849, 8984.851
451.4670, 9088.431
451.9491, 9185.283
452.4312, 9247.504
452.9134, 9281.649
453.3955, 9347.102
453.8776, 9447.827
454.3597, 9549.709
454.8418, 9609.498
455.3239, 9638.863
455.8061, 9685.601
456.2882, 9768.057
456.7703, 9861.869
457.2524, 9931.944
457.7345, 9982.577
458.2166, 10032.96
458.6988, 10104.10
459.1809, 10175.58
459.6630, 10223.32
460.1451, 10243.83
460.6272, 10251.96
461.1093, 10259.68
461.5915, 10259.78
462.0736, 10242.99
462.5557, 10196.95
463.0378, 10142.64
463.5199, 10083.88
464.0020, 10022.17
464.4842, 9964.993
464.9663, 9929.879
465.4484, 9888.406
465.9305, 9823.867
466.4126, 9712.891
466.8947, 9617.696
467.3769, 9543.583
467.8590, 9483.203
468.3411, 9423.467
468.8232, 9361.672
469.3053, 9306.829
469.7874, 9263.229
470.2696, 9230.008
470.7517, 9187.396
471.2338, 9129.655
471.7159, 9080.410
472.1980, 9066.518
472.6801, 9087.020
473.1623, 9101.460
473.6444, 9105.131
474.1265, 9098.569
474.6086, 9073.585
475.0907, 9034.426
475.5728, 9008.557
476.0550, 9017.324
476.5371, 9046.340
477.0192, 9074.665
477.5013, 9101.753
477.9834, 9125.811
478.4655, 9135.453
478.9477, 9144.440
479.4298, 9171.681
479.9119, 9239.817
480.3940, 9306.368
480.8761, 9346.274
481.3582, 9366.510
481.8404, 9386.495
482.3225, 9409.210
482.8046, 9435.846
483.2867, 9468.595
483.7688, 9510.706
484.2509, 9548.224
484.7331, 9577.530
485.2152, 9602.830
485.6973, 9628.453
486.1794, 9654.069
486.6615, 9680.825
487.1436, 9710.148
487.6258, 9740.928
488.1079, 9767.154
488.5900, 9786.720
489.0721, 9807.159
489.5542, 9833.366
490.0363, 9865.505
490.5185, 9894.308
491.0006, 9917.562
491.4827, 9943.294
491.9648, 9984.748
492.4470, 10039.09
492.9291, 10090.26
493.4112, 10130.88
493.8933, 10165.94
494.3754, 10195.87
494.8575, 10223.33
495.3397, 10263.33
495.8218, 10333.96
496.3039, 10419.15
496.7860, 10502.81
497.2681, 10585.83
497.7502, 10659.24
498.2324, 10702.62
498.7145, 10738.41
499.1966, 10798.00
499.6787, 10908.74
500.1608, 11025.88
500.6429, 11141.76
501.1251, 11255.21
501.6072, 11353.93
502.0893, 11419.40
502.5714, 11486.98
503.0535, 11574.76
503.5356, 11694.62
504.0178, 11804.81
504.4999, 11899.13
504.9820, 11988.56
505.4641, 12096.61
505.9462, 12229.83
506.4283, 12345.34
506.9105, 12427.03
507.3926, 12481.60
507.8747, 12531.74
508.3568, 12577.23
508.8389, 12626.03
509.3210, 12689.74
509.8032, 12762.10
510.2853, 12827.94
510.7674, 12886.31
511.2495, 12934.11
511.7316, 12962.40
512.2137, 12978.13
512.6959, 12995.04
513.1780, 13024.66
513.6601, 13052.80
514.1422, 13073.06
514.6243, 13084.80
515.1064, 13084.60
515.5886, 13055.37
516.0707, 13024.77
516.5528, 13012.31
517.0349, 13037.09
517.5170, 13044.96
517.9991, 13032.43
518.4813, 12999.56
518.9634, 12942.97
519.4455, 12841.88
519.9276, 12753.47
520.4097, 12694.55
520.8918, 12659.81
521.3740, 12606.24
521.8561, 12530.08
522.3382, 12447.45
522.8203, 12370.40
523.3024, 12298.59
523.7845, 12212.66
524.2667, 12108.24
524.7488, 12000.09
525.2309, 11907.41
525.7130, 11824.15
526.1951, 11731.17
526.6772, 11616.88
527.1594, 11492.83
527.6415, 11368.68
528.1236, 11246.40
528.6057, 11131.61
529.0878, 11040.81
529.5699, 10951.21
530.0521, 10842.01
530.5342, 10701.67
531.0163, 10577.84
531.4984, 10500.55
531.9805, 10439.93
532.4626, 10363.85
532.9448, 10248.48
533.4269, 10141.29
533.9090, 10054.66
534.3911, 9980.834
534.8732, 9892.032
535.3553, 9779.282
535.8375, 9665.972
536.3196, 9561.300
536.8017, 9463.670
537.2838, 9383.801
537.7659, 9325.979
538.2480, 9269.265
538.7302, 9189.030
539.2123, 9087.677
539.6944, 8984.591
540.1765, 8878.872
540.6586, 8782.477
541.1407, 8713.752
541.6229, 8667.732
542.1050, 8625.341
542.5871, 8581.069
543.0692, 8532.678
543.5513, 8479.654
544.0334, 8422.335
544.5156, 8356.459
544.9977, 8265.957
545.4798, 8174.170
545.9619, 8100.882
546.4440, 8061.114
546.9261, 8023.021
547.4083, 7984.990
547.8904, 7945.244
548.3725, 7901.403
548.8546, 7852.772
549.3367, 7800.342
549.8188, 7741.481
550.3010, 7677.550
550.7831, 7623.942
551.2652, 7580.616
551.7473, 7547.656
552.2294, 7534.463
552.7115, 7537.216
553.1937, 7512.284
553.6758, 7450.620
554.1579, 7384.514
554.6400, 7361.730
555.1221, 7367.700
555.6042, 7360.809
556.0864, 7318.073
556.5685, 7264.109
557.0506, 7218.022
557.5327, 7179.767
558.0148, 7150.087
558.4969, 7139.432
558.9791, 7129.777
559.4612, 7107.976
559.9433, 7069.150
560.4254, 7037.152
560.9075, 7027.783
561.3896, 7020.621
561.8718, 6996.934
562.3539, 6941.271
562.8360, 6894.687
563.3181, 6858.582
563.8002, 6834.517
564.2823, 6831.652
564.7645, 6857.099
565.2466, 6871.703
565.7287, 6857.290
566.2108, 6819.160
566.6929, 6780.324
567.1750, 6740.875
567.6572, 6705.700
568.1393, 6677.213
568.6214, 6656.797
569.1035, 6652.726
569.5856, 6671.479
570.0677, 6684.884
570.5499, 6660.683
571.0320, 6617.586
571.5141, 6585.094
571.9962, 6578.312
572.4783, 6579.861
572.9604, 6591.170
573.4426, 6607.968
573.9247, 6609.373
574.4068, 6572.369
574.8889, 6537.344
575.3710, 6522.728
575.8531, 6535.520
576.3353, 6531.276
576.8174, 6501.577
577.2995, 6467.387
577.7816, 6450.119
578.2637, 6451.811
578.7458, 6449.149
579.2280, 6437.586
579.7101, 6422.410
580.1922, 6415.254
580.6743, 6414.099
581.1564, 6407.532
581.6385, 6385.134
582.1207, 6357.068
582.6028, 6336.175
583.0849, 6322.164
583.5670, 6311.237
584.0491, 6302.328
584.5313, 6294.917
585.0134, 6290.130
585.4955, 6291.269
585.9776, 6284.758
586.4597, 6257.826
586.9418, 6225.377
587.4240, 6204.503
587.9061, 6197.729
588.3882, 6199.554
588.8703, 6214.993
589.3524, 6237.143
589.8345, 6245.636
590.3167, 6238.977
590.7988, 6223.669
591.2809, 6195.655
591.7630, 6160.440
592.2451, 6152.818
592.7272, 6173.799
593.2094, 6197.674
593.6915, 6203.591
594.1736, 6197.079
594.6557, 6185.935
595.1378, 6169.013
595.6199, 6158.803
596.1021, 6171.689
596.5842, 6195.435
597.0663, 6212.656
597.5485, 6213.538
598.0306, 6210.969
598.5127, 6207.914
598.9948, 6204.461
599.4769, 6200.616
599.9590, 6194.071
600.4412, 6189.663
600.9233, 6187.154
601.4054, 6185.813
601.8875, 6202.084
602.3696, 6245.728
602.8517, 6282.669
603.3339, 6271.905
603.8160, 6218.657
604.2981, 6195.831
604.7802, 6215.929
605.2623, 6252.935
605.7444, 6273.543
606.2266, 6284.191
606.7087, 6301.299
607.1908, 6337.125
607.6729, 6375.715
608.1550, 6408.131
608.6371, 6433.566
609.1193, 6450.520
609.6014, 6449.099
610.0835, 6446.800
610.5656, 6451.997
611.0477, 6466.080
611.5298, 6481.284
612.0120, 6500.486
612.4941, 6517.433
612.9762, 6525.951
613.4583, 6520.777
613.9404, 6527.425
614.4225, 6550.559
614.9047, 6579.264
615.3868, 6597.116
615.8689, 6605.168
616.3510, 6615.938
616.8331, 6635.693
617.3152, 6656.596
617.7974, 6663.313
618.2795, 6659.693
618.7616, 6661.017
619.2437, 6677.649
619.7258, 6700.898
620.2079, 6727.715
620.6901, 6757.564
621.1722, 6780.643
621.6543, 6784.705
622.1364, 6787.137
622.6185, 6800.126
623.1006, 6832.889
623.5828, 6857.091
624.0649, 6869.365
624.5470, 6876.166
625.0291, 6885.580
625.5112, 6898.724
625.9933, 6907.333
626.4755, 6906.872
626.9576, 6905.079
627.4397, 6922.761
627.9218, 6956.923
628.4039, 6984.725
628.8860, 6985.570
629.3682, 6978.519
629.8503, 6989.135
630.3324, 7016.134
630.8145, 7049.065
631.2966, 7092.307
631.7787, 7131.636
632.2609, 7155.757
632.7430, 7160.221
633.2251, 7161.428
633.7072, 7147.728
634.1893, 7141.248
634.6714, 7162.780
635.1536, 7232.746
635.6357, 7285.449
636.1178, 7312.734
636.5999, 7323.719
637.0820, 7331.153
637.5641, 7334.625
638.0463, 7344.246
638.5284, 7363.431
639.0105, 7390.722
639.4926, 7429.684
639.9747, 7477.438
640.4568, 7516.271
640.9390, 7525.207
641.4211, 7527.479
641.9032, 7545.820
642.3853, 7581.723
642.8674, 7618.745
643.3495, 7655.037
643.8317, 7686.912
644.3138, 7710.826
644.7959, 7713.236
645.2780, 7734.104
645.7601, 7784.923
646.2422, 7843.969
646.7244, 7882.771
647.2065, 7894.329
647.6886, 7922.532
648.1707, 7981.077
648.6528, 8050.969
649.1349, 8092.100
649.6171, 8107.996
650.0992, 8124.990
650.5813, 8154.664
651.0634, 8192.571
651.5455, 8239.142
652.0276, 8291.785
652.5098, 8334.297
652.9919, 8342.209
653.4740, 8349.683
653.9561, 8382.856
654.4382, 8450.935
654.9203, 8503.183
655.4025, 8517.566
655.8846, 8527.239
656.3667, 8557.172
656.8488, 8622.857
657.3309, 8658.806
657.8130, 8653.506
658.2952, 8635.358
658.7773, 8643.889
659.2594, 8677.481
659.7415, 8717.466
660.2236, 8763.409
660.7057, 8806.233
661.1879, 8823.747
661.6700, 8826.163
662.1521, 8841.855
662.6342, 8907.865
663.1163, 8971.412
663.5984, 8991.514
664.0806, 8973.770
664.5627, 8969.608
665.0448, 9012.458
665.5269, 9052.291
666.0090, 9063.892
666.4911, 9040.876
666.9733, 9037.023
667.4554, 9056.481
667.9375, 9086.891
668.4196, 9123.856
668.9017, 9166.790
669.3839, 9192.195
669.8660, 9196.085
670.3481, 9191.175
670.8302, 9189.526
671.3123, 9190.384
671.7944, 9191.734
672.2766, 9190.608
672.7587, 9193.638
673.2408, 9214.697
673.7229, 9241.915
674.2050, 9252.502
674.6871, 9223.840
675.1693, 9195.240
675.6514, 9172.703
676.1335, 9157.601
676.6156, 9161.453
677.0977, 9196.844
677.5798, 9222.300
678.0620, 9214.950
678.5441, 9178.927
679.0262, 9155.762
679.5083, 9145.872
679.9904, 9138.876
680.4725, 9120.540
680.9547, 9101.144
681.4368, 9103.385
681.9189, 9132.437
682.4010, 9158.233
682.8831, 9158.741
683.3652, 9146.459
683.8474, 9133.628
684.3295, 9122.135
684.8116, 9111.411
685.2937, 9089.101
685.7758, 9073.050
686.2579, 9092.385
686.7401, 9167.833
687.2222, 9221.834
687.7043, 9239.794
688.1864, 9228.663
688.6685, 9197.041
689.1506, 9146.451
689.6328, 9101.344
690.1149, 9068.438
690.5970, 9049.730
691.0791, 9056.370
691.5612, 9083.119
692.0433, 9103.098
692.5255, 9098.676
693.0076, 9085.805
693.4897, 9067.706
693.9718, 9042.610
694.4539, 9042.317
694.9360, 9106.875
695.4182, 9163.833
695.9003, 9167.596
696.3824, 9096.375
696.8645, 9068.339
697.3466, 9093.722
697.8287, 9135.430
698.3109, 9154.090
698.7930, 9153.751
699.2751, 9156.299
699.7572, 9166.329
700.2393, 9176.828
700.7214, 9171.340
701.2036, 9163.181
701.6857, 9175.006
702.1678, 9239.619
702.6499, 9296.690
703.1320, 9320.288
703.6141, 9319.850
704.0963, 9318.986
704.5784, 9319.641
705.0605, 9319.187
705.5426, 9313.151
706.0247, 9305.894
706.5068, 9321.675
706.9890, 9364.027
707.4711, 9400.379
707.9532, 9406.984
708.4353, 9396.641
708.9174, 9403.161
709.3995, 9425.137
709.8817, 9448.827
710.3638, 9464.487
710.8459, 9477.713
711.3280, 9495.081
711.8101, 9518.710
712.2922, 9534.357
712.7744, 9527.088
713.2565, 9518.692
713.7386, 9523.759
714.2207, 9546.657
714.7028, 9572.924
715.1849, 9605.321
715.6671, 9636.725
716.1492, 9661.429
716.6313, 9679.096
717.1134, 9684.575
717.5955, 9672.098
718.0776, 9662.796
718.5598, 9691.362
719.0419, 9740.840
719.5240, 9778.146
720.0061, 9785.183
720.4882, 9785.559
720.9703, 9784.327
721.4525, 9784.779
721.9346, 9794.529
722.4167, 9827.727
722.8988, 9853.513
723.3809, 9866.924
723.8630, 9868.607
724.3452, 9855.557
724.8273, 9823.949
725.3094, 9805.414
725.7915, 9821.296
726.2736, 9858.731
726.7557, 9886.380
727.2379, 9904.923
727.7200, 9919.741
728.2021, 9933.465
728.6842, 9945.509
729.1663, 9955.163
729.6484, 9962.267
730.1306, 9968.859
730.6127, 9973.490
731.0948, 9979.511
731.5769, 9989.094
732.0590, 10003.61
732.5411, 10016.26
733.0233, 10026.64
733.5054, 10036.04
733.9875, 10046.47
734.4696, 10057.42
734.9517, 10064.11
735.4338, 10065.64
735.9160, 10065.40
736.3981, 10073.69
736.8802, 10080.28
737.3623, 10066.94
737.8444, 10010.80
738.3266, 9969.288
738.8087, 9972.794
739.2908, 10000.92
739.7729, 10024.26
740.2551, 10039.87
740.7372, 10054.41
741.2193, 10072.42
741.7014, 10086.59
742.1835, 10074.83
742.6656, 10036.80
743.1478, 10010.97
743.6299, 10012.67
744.1120, 10029.15
744.5941, 10046.14
745.0762, 10061.73
745.5583, 10070.48
746.0405, 10064.94
746.5226, 10056.13
747.0047, 10050.13
747.4868, 10046.30
747.9689, 10040.09
748.4510, 10027.75
748.9332, 10017.54
749.4153, 10015.28
749.8974, 10019.13
750.3795, 10005.24
750.8616, 9971.797
751.3438, 9935.250
751.8259, 9897.703
752.3080, 9866.501
752.7901, 9869.975
753.2722, 9906.066
753.7543, 9926.062
754.2365, 9872.340
754.7186, 9806.422
755.2007, 9783.565
755.6828, 9819.502
756.1649, 9839.557
756.6470, 9829.958
757.1292, 9802.222
757.6113, 9756.799
758.0934, 9683.267
758.5755, 9641.763
759.0576, 9637.028
759.5397, 9647.380
760.0219, 9662.278
760.5040, 9674.157
760.9861, 9651.249
761.4682, 9582.105
761.9503, 9515.740
762.4324, 9497.395
762.9146, 9500.700
763.3967, 9493.770
763.8788, 9455.326
764.3609, 9428.722
764.8430, 9438.265
765.3251, 9453.458
765.8073, 9435.664
766.2894, 9372.712
766.7715, 9326.354
767.2536, 9309.171
767.7357, 9304.845
768.2178, 9287.056
768.7000, 9258.237
769.1821, 9229.147
769.6642, 9203.788
770.1463, 9178.161
770.6284, 9148.620
771.1105, 9116.356
771.5927, 9083.679
772.0748, 9048.836
772.5569, 9016.401
773.0390, 8987.004
773.5211, 8960.919
774.0032, 8941.789
774.4854, 8934.133
774.9675, 8914.999
775.4496, 8871.323
775.9317, 8817.214
776.4138, 8794.382
776.8959, 8796.626
777.3781, 8789.157
777.8602, 8741.276
778.3423, 8686.069
778.8244, 8648.726
779.3065, 8627.426
779.7886, 8612.815
780.2708, 8623.996
780.7529, 8617.314
781.2350, 8569.995
781.7171, 8488.394
782.1992, 8433.285
782.6813, 8409.415
783.1635, 8395.161
783.6456, 8381.817
784.1277, 8369.441
784.6098, 8363.427
785.0919, 8361.778
785.5740, 8345.194
786.0562, 8286.002
786.5383, 8217.325
787.0204, 8168.686
787.5025, 8141.427
787.9846, 8112.300
788.4667, 8064.269
788.9489, 8024.939
789.4310, 8010.658
789.9131, 8023.992
790.3952, 8015.123
790.8773, 7981.752
791.3594, 7937.231
791.8416, 7881.115
792.3237, 7823.119
792.8058, 7797.473
793.2879, 7804.904
793.7700, 7803.828
794.2521, 7754.096
794.7343, 7691.151
795.2164, 7645.189
795.6985, 7623.368
796.1806, 7600.187
796.6627, 7570.755
797.1448, 7541.074
797.6270, 7517.865
798.1091, 7503.841
798.5912, 7471.662
799.0733, 7418.184
799.5554, 7360.828
800.0375, 7316.203
800.5197, 7280.313
801.0018, 7244.498
801.4839, 7207.190
801.9660, 7175.463
802.4481, 7162.421
802.9302, 7151.385
803.4124, 7127.467
803.8945, 7080.275
804.3766, 7038.190
804.8587, 7000.360
805.3408, 6968.818
805.8229, 6947.440
806.3051, 6936.150
806.7872, 6925.772
807.2693, 6917.352
807.7514, 6898.067
808.2335, 6841.384
808.7156, 6769.616
809.1978, 6718.042
809.6799, 6699.079
810.1620, 6683.305
810.6441, 6662.358
811.1262, 6636.519
811.6083, 6606.151
812.0905, 6569.482
812.5726, 6531.688
813.0547, 6491.710
813.5368, 6453.571
814.0189, 6425.537
814.5010, 6404.972
814.9832, 6374.801
815.4653, 6330.761
815.9474, 6285.314
816.4295, 6244.596
816.9116, 6211.128
817.3937, 6189.324
817.8759, 6189.633
818.3580, 6183.601
818.8401, 6165.520
819.3222, 6138.563
819.8043, 6101.311
820.2864, 6047.608
820.7686, 6015.291
821.2507, 6013.220
821.7328, 6017.179
822.2149, 5996.097
822.6970, 5956.531
823.1791, 5911.491
823.6613, 5859.608
824.1434, 5818.532
824.6255, 5813.866
825.1076, 5820.532
825.5897, 5810.754
826.0718, 5762.518
826.5540, 5721.116
827.0361, 5684.840
827.5182, 5656.899
828.0003, 5645.788
828.4824, 5651.270
828.9645, 5643.542
829.4467, 5616.762
829.9288, 5582.306
830.4109, 5543.094
830.8930, 5508.079
831.3751, 5493.658
831.8572, 5517.158
832.3394, 5531.771
832.8215, 5512.027
833.3036, 5480.082
833.7857, 5461.720
834.2678, 5464.995
834.7499, 5456.927
835.2321, 5430.873
835.7142, 5404.187
836.1963, 5403.597
836.6784, 5421.474
837.1605, 5429.074
837.6426, 5419.321
838.1248, 5405.964
838.6069, 5398.066
839.0890, 5393.151
839.5711, 5388.601
840.0532, 5383.362
840.5353, 5379.579
841.0175, 5378.366
841.4996, 5377.552
841.9817, 5375.050
842.4638, 5370.822
842.9459, 5364.093
843.4280, 5353.499
843.9102, 5347.155
844.3923, 5356.109
844.8744, 5374.645
845.3565, 5394.257
845.8386, 5414.279
846.3207, 5431.773
846.8029, 5444.062
847.2850, 5454.197
847.7671, 5464.987
848.2492, 5477.292
848.7313, 5488.155
849.2134, 5497.521
849.6956, 5505.374
850.1777, 5507.631
850.6598, 5508.140
851.1419, 5523.664
851.6240, 5557.885
852.1061, 5590.068
852.5883, 5601.042
853.0704, 5605.010
853.5525, 5614.935
854.0346, 5633.784
854.5167, 5655.368
854.9988, 5677.978
855.4810, 5704.653
855.9631, 5739.758
856.4452, 5783.634
856.9273, 5821.900
857.4094, 5853.805
857.8915, 5884.105
858.3737, 5915.985
858.8558, 5948.716
859.3379, 5980.163
859.8200, 6009.427
860.3021, 6043.838
860.7842, 6082.654
861.2664, 6130.295
861.7485, 6191.272
862.2306, 6268.764
862.7127, 6327.783
863.1948, 6363.001
863.6769, 6405.290
864.1591, 6484.637
864.6412, 6585.953
865.1233, 6676.434
865.6054, 6756.147
866.0875, 6831.549
866.5696, 6899.127
867.0518, 6971.109
867.5339, 7057.918
868.0160, 7162.107
868.4981, 7258.681
868.9802, 7342.682
869.4623, 7429.949
869.9445, 7527.774
870.4266, 7634.287
870.9087, 7743.659
871.3908, 7856.292
871.8729, 7961.653
872.3550, 8053.879
872.8372, 8137.453
873.3193, 8208.483
873.8014, 8271.838
874.2835, 8349.727
874.7656, 8468.773
875.2477, 8577.139
875.7299, 8659.873
876.2120, 8722.294
876.6941, 8791.358
877.1762, 8866.799
877.6583, 8925.482
878.1404, 8947.677
878.6226, 8957.028
879.1047, 8983.038
879.5869, 9021.380
880.0690, 9061.505
880.5511, 9121.252
881.0332, 9156.658
881.5153, 9145.765
881.9974, 9105.414
882.4796, 9063.501
882.9617, 9017.105
883.4438, 8989.353
883.9259, 8994.595
884.4080, 9003.349
884.8901, 8960.126
885.3723, 8884.363
885.8544, 8821.605
886.3365, 8794.630
886.8186, 8772.911
887.3007, 8752.046
887.7828, 8725.044
888.2650, 8681.700
888.7471, 8616.172
889.2292, 8549.357
889.7113, 8478.837
890.1934, 8416.531
890.6755, 8386.573
891.1577, 8377.245
891.6398, 8349.226
892.1219, 8293.019
892.6040, 8230.438
893.0861, 8160.348
893.5682, 8101.318
894.0504, 8073.850
894.5325, 8097.065
895.0146, 8112.463
895.4967, 8121.413
895.9788, 8120.050
896.4609, 8099.453
896.9431, 8063.761
897.4252, 8041.009
897.9073, 8032.814
898.3894, 8024.646
898.8715, 7998.960
899.3536, 7972.856
899.8358, 7962.188
900.3179, 7969.795
900.8000, 7976.414
901.2821, 7980.350
901.7642, 7982.226
902.2463, 7980.656
902.7285, 7976.855
903.2106, 7980.933
903.6927, 7992.651
904.1748, 8005.762
904.6569, 8019.038
905.1390, 8030.043
905.6212, 8036.225
906.1033, 8037.912
906.5854, 8037.077
907.0675, 8024.362
907.5496, 8021.946
908.0317, 8040.190
908.5139, 8070.132
908.9960, 8081.795
909.4781, 8075.027
909.9602, 8075.082
910.4423, 8095.902
910.9244, 8119.371
911.4066, 8122.916
911.8887, 8113.280
912.3708, 8102.863
912.8529, 8080.750
913.3350, 8078.947
913.8171, 8121.186
914.2993, 8172.781
914.7814, 8181.106
915.2635, 8141.422
915.7456, 8124.535
916.2277, 8144.376
916.7098, 8171.688
917.1920, 8173.881
917.6741, 8160.970
918.1562, 8146.008
918.6383, 8129.913
919.1204, 8118.833
919.6025, 8117.418
920.0847, 8119.582
920.5668, 8121.627
921.0489, 8123.531
921.5310, 8125.528
922.0131, 8127.609
922.4952, 8129.780
922.9774, 8138.808
923.4595, 8144.618
923.9416, 8126.401
924.4237, 8085.104
924.9058, 8050.903
925.3879, 8048.313
925.8701, 8041.990
926.3522, 8013.305
926.8343, 7966.237
927.3164, 7934.750
927.7985, 7919.875
928.2806, 7909.926
928.7628, 7903.960
929.2449, 7895.835
929.7270, 7871.935
930.2091, 7837.737
930.6912, 7807.393
931.1733, 7790.767
931.6555, 7774.502
932.1376, 7757.383
932.6197, 7737.130
933.1018, 7707.863
933.5839, 7667.472
934.0660, 7633.094
934.5482, 7609.055
935.0303, 7587.112
935.5124, 7556.083
935.9945, 7519.208
936.4766, 7483.205
936.9587, 7451.360
937.4409, 7414.124
937.9230, 7356.965
938.4051, 7301.593
938.8872, 7266.932
939.3693, 7258.110
939.8514, 7238.332
940.3336, 7207.238
940.8157, 7168.539
941.2978, 7124.602
941.7799, 7074.977
942.2620, 7015.079
942.7441, 6945.947
943.2263, 6882.615
943.7084, 6844.196
944.1905, 6799.692
944.6726, 6730.638
945.1547, 6644.036
945.6368, 6588.231
946.1190, 6564.700
946.6011, 6539.758
947.0832, 6500.056
947.5653, 6448.834
948.0474, 6385.304
948.5295, 6313.486
949.0117, 6242.736
949.4938, 6170.137
949.9759, 6107.613
950.4580, 6063.582
950.9401, 6025.208
951.4222, 5973.028
951.9044, 5906.621
952.3865, 5842.724
952.8686, 5786.314
953.3507, 5721.705
953.8328, 5612.331
954.3149, 5494.230
954.7971, 5418.805
955.2792, 5414.018
955.7613, 5386.434
956.2434, 5307.659
956.7255, 5219.960
957.2076, 5150.605
957.6898, 5098.387
958.1719, 5025.959
958.6540, 4933.121
959.1361, 4845.416
959.6182, 4784.656
960.1003, 4732.692
960.5825, 4673.152
961.0646, 4606.552
961.5467, 4539.207
962.0288, 4463.852
962.5109, 4402.300
962.9930, 4366.084
963.4752, 4342.843
963.9573, 4301.162
964.4394, 4244.284
964.9215, 4189.875
965.4036, 4143.578
965.8857, 4101.747
966.3679, 4063.574
966.8500, 4027.194
967.3321, 3989.854
967.8142, 3954.922
968.2963, 3911.385
968.7784, 3855.562
969.2606, 3799.155
969.7427, 3751.811
970.2248, 3714.238
970.7069, 3692.265
971.1890, 3686.194
971.6711, 3680.808
972.1533, 3673.603
972.6354, 3657.624
973.1175, 3620.918
973.5996, 3564.580
974.0817, 3532.217
974.5638, 3531.478
975.0460, 3527.269
975.5281, 3501.436
976.0102, 3466.073
976.4923, 3444.155
976.9744, 3434.227
977.4565, 3432.009
977.9387, 3443.406
978.4208, 3453.101
978.9029, 3454.447
979.3850, 3451.596
979.8671, 3450.796
980.3492, 3453.381
980.8314, 3448.934
981.3135, 3434.943
981.7956, 3419.943
982.2777, 3416.265
982.7598, 3416.073
983.2419, 3405.446
983.7241, 3380.163
984.2062, 3363.410
984.6883, 3368.450
985.1704, 3377.378
985.6525, 3381.781
986.1346, 3382.647
986.6168, 3394.288
987.0989, 3416.113
987.5810, 3429.663
988.0631, 3415.608
988.5452, 3395.720
989.0273, 3390.573
989.5095, 3395.976
989.9916, 3401.219
990.4737, 3403.316
990.9558, 3406.968
991.4379, 3414.125
991.9200, 3420.983
992.4022, 3419.385
992.8843, 3411.845
993.3664, 3410.543
993.8485, 3419.007
994.3306, 3425.611
994.8127, 3418.651
995.2949, 3408.792
995.7770, 3405.494
996.2591, 3409.886
996.7412, 3416.707
997.2233, 3427.733
997.7054, 3434.478
998.1876, 3427.829
998.6697, 3414.859
999.1518, 3413.441
999.6339, 3420.306
1000.116, 3422.371
1000.598, 3402.116
1001.080, 3389.759
1001.562, 3403.518
1002.044, 3427.995
1002.527, 3432.582
1003.009, 3414.984
1003.491, 3412.500
1003.973, 3434.988
1004.455, 3460.835
1004.937, 3465.474
1005.419, 3459.370
1005.901, 3455.352
1006.384, 3456.424
1006.866, 3456.752
1007.348, 3458.955
1007.830, 3455.173
1008.312, 3435.283
1008.794, 3404.849
1009.276, 3401.302
1009.758, 3421.541
1010.240, 3439.415
1010.723, 3437.855
1011.205, 3430.897
1011.687, 3421.386
1012.169, 3413.991
1012.651, 3421.200
1013.133, 3450.813
1013.615, 3472.022
1014.097, 3478.987
1014.580, 3479.583
1015.062, 3483.421
1015.544, 3489.103
1016.026, 3494.061
1016.508, 3497.748
1016.990, 3500.958
1017.472, 3502.356
1017.954, 3505.091
1018.436, 3512.684
1018.919, 3524.494
1019.401, 3524.509
1019.883, 3512.687
1020.365, 3505.068
1020.847, 3511.799
1021.329, 3526.396
1021.811, 3547.984
1022.293, 3571.948
1022.776, 3587.222
1023.258, 3586.458
1023.740, 3584.909
1024.222, 3582.313
1024.704, 3582.332
1025.186, 3593.594
1025.668, 3611.822
1026.150, 3620.229
1026.632, 3615.701
1027.115, 3613.052
1027.597, 3622.761
1028.079, 3636.163
1028.561, 3646.917
1029.043, 3655.133
1029.525, 3670.703
1030.007, 3695.267
1030.489, 3710.900
1030.972, 3701.863
1031.454, 3687.732
1031.936, 3695.382
1032.418, 3719.123
1032.900, 3746.510
1033.382, 3783.159
1033.864, 3809.921
1034.346, 3824.326
1034.828, 3829.788
1035.311, 3823.442
1035.793, 3809.213
1036.275, 3816.038
1036.757, 3846.376
1037.239, 3881.176
1037.721, 3907.273
1038.203, 3932.746
1038.685, 3971.166
1039.167, 4018.052
1039.650, 4027.969
1040.132, 3991.655
1040.614, 3957.379
1041.096, 3939.511
1041.578, 3936.147
1042.060, 3949.220
1042.542, 3973.893
1043.024, 4002.923
1043.507, 4045.282
1043.989, 4067.922
1044.471, 4051.361
1044.953, 4029.884
1045.435, 4032.534
1045.917, 4056.862
1046.399, 4071.469
1046.881, 4075.836
1047.364, 4073.497
1047.846, 4055.696
1048.328, 4042.295
1048.810, 4053.300
1049.292, 4081.571
1049.774, 4094.136
1050.256, 4087.132
1050.738, 4075.982
1051.220, 4061.534
1051.703, 4050.139
1052.185, 4054.617
1052.667, 4067.528
1053.149, 4077.509
1053.631, 4083.282
1054.113, 4081.258
1054.595, 4065.332
1055.077, 4047.119
1055.559, 4031.858
1056.042, 4019.350
1056.524, 4005.468
1057.006, 3991.136
1057.488, 3983.903
1057.970, 4000.320
1058.452, 4012.276
1058.934, 3997.917
1059.416, 3968.028
1059.899, 3943.674
1060.381, 3926.368
1060.863, 3911.427
1061.345, 3899.160
1061.827, 3886.110
1062.309, 3867.883
1062.791, 3846.707
1063.273, 3823.571
1063.755, 3798.764
1064.238, 3783.033
1064.720, 3784.949
1065.202, 3789.475
1065.684, 3794.226
1066.166, 3797.284
1066.648, 3791.868
1067.130, 3779.484
1067.612, 3766.037
1068.094, 3751.378
1068.577, 3740.994
1069.059, 3741.906
1069.541, 3746.108
1070.023, 3744.546
1070.505, 3734.478
1070.987, 3737.328
1071.469, 3755.066
1071.951, 3766.927
1072.434, 3753.239
1072.916, 3729.754
1073.398, 3708.899
1073.880, 3693.596
1074.362, 3692.974
1074.844, 3722.821
1075.326, 3743.617
1075.808, 3748.398
1076.291, 3746.579
1076.773, 3750.387
1077.255, 3758.542
1077.737, 3767.587
1078.219, 3776.952
1078.701, 3786.736
1079.183, 3800.286
1079.665, 3810.253
1080.147, 3809.184
1080.630, 3801.298
1081.112, 3816.397
1081.594, 3853.485
1082.076, 3881.367
1082.558, 3884.816
1083.040, 3881.376
1083.522, 3879.955
1084.004, 3884.205
1084.486, 3901.014
1084.969, 3940.578
1085.451, 3965.414
1085.933, 3973.930
1086.415, 3972.991
1086.897, 3959.116
1087.379, 3943.586
1087.861, 3947.277
1088.343, 3967.687
1088.826, 3992.475
1089.308, 4027.716
1089.790, 4052.356
1090.272, 4062.826
1090.754, 4061.281
1091.236, 4041.387
1091.718, 4010.695
1092.200, 4008.650
1092.682, 4043.056
1093.165, 4077.462
1093.647, 4086.563
1094.129, 4090.639
1094.611, 4105.962
1095.093, 4129.237
1095.575, 4130.040
1096.057, 4107.057
1096.539, 4095.604
1097.022, 4114.612
1097.504, 4138.978
1097.986, 4145.347
1098.468, 4139.877
1098.950, 4129.532
1099.432, 4108.943
1099.914, 4102.868
1100.396, 4115.509
1100.879, 4129.327
1101.361, 4133.769
1101.843, 4129.713
1102.325, 4111.397
1102.807, 4084.840
1103.289, 4072.476
1103.771, 4096.836
1104.253, 4117.456
1104.735, 4128.532
1105.218, 4131.750
1105.700, 4127.121
1106.182, 4116.243
1106.664, 4106.840
1107.146, 4099.666
1107.628, 4093.022
1108.110, 4085.318
1108.592, 4078.303
1109.074, 4073.709
1109.557, 4070.596
1110.039, 4066.070
1110.521, 4060.118
1111.003, 4049.838
1111.485, 4033.391
1111.967, 4015.816
1112.449, 4002.408
1112.931, 3990.501
1113.414, 3975.971
1113.896, 3956.573
1114.378, 3946.414
1114.860, 3947.732
1115.342, 3948.480
1115.824, 3940.768
1116.306, 3929.323
1116.788, 3925.663
1117.271, 3923.761
1117.753, 3909.998
1118.235, 3859.826
1118.717, 3829.665
1119.199, 3830.193
1119.681, 3837.051
1120.163, 3825.719
1120.645, 3801.393
1121.127, 3775.795
1121.609, 3750.501
1122.092, 3734.324
1122.574, 3750.373
1123.056, 3752.782
1123.538, 3719.142
1124.020, 3669.681
1124.502, 3646.704
1124.984, 3646.811
1125.466, 3640.379
1125.949, 3621.540
1126.431, 3602.268
1126.913, 3591.218
1127.395, 3582.706
1127.877, 3574.560
1128.359, 3565.896
1128.841, 3547.931
1129.323, 3520.004
1129.806, 3492.896
1130.288, 3469.801
1130.770, 3450.736
1131.252, 3443.518
1131.734, 3436.662
1132.216, 3412.096
1132.698, 3357.291
1133.180, 3326.370
1133.662, 3324.485
1134.145, 3325.590
1134.627, 3313.051
1135.109, 3293.175
1135.591, 3276.344
1136.073, 3260.325
1136.555, 3239.926
1137.037, 3202.279
1137.519, 3179.239
1138.001, 3179.316
1138.484, 3180.219
1138.966, 3152.712
1139.448, 3109.780
1139.930, 3084.529
1140.412, 3076.958
1140.894, 3071.558
1141.376, 3066.438
1141.858, 3056.514
1142.341, 3041.478
1142.823, 3020.276
1143.305, 2982.249
1143.787, 2934.680
1144.269, 2912.949
1144.751, 2925.005
1145.233, 2939.671
1145.715, 2943.822
1146.198, 2940.554
1146.680, 2930.876
1147.162, 2916.020
1147.644, 2900.694
1148.126, 2885.105
1148.608, 2873.331
1149.090, 2867.916
1149.572, 2862.651
1150.054, 2848.951
1150.536, 2836.067
1151.019, 2836.354
1151.501, 2852.240
1151.983, 2843.006
1152.465, 2807.456
1152.947, 2775.737
1153.429, 2763.408
1153.911, 2762.971
1154.393, 2778.710
1154.876, 2798.026
1155.358, 2796.168
1155.840, 2760.704
1156.322, 2741.460
1156.804, 2742.012
1157.286, 2744.107
1157.768, 2729.018
1158.250, 2709.836
1158.733, 2703.504
1159.215, 2707.734
1159.697, 2712.304
1160.179, 2718.117
1160.661, 2718.422
1161.143, 2711.633
1161.625, 2701.399
1162.107, 2688.922
1162.589, 2677.151
1163.072, 2672.116
1163.554, 2673.830
1164.036, 2675.712
1164.518, 2679.292
1165.000, 2677.091
1165.482, 2665.345
1165.964, 2650.017
1166.446, 2641.729
1166.928, 2638.429
1167.411, 2636.416
1167.893, 2635.628
1168.375, 2631.193
1168.857, 2616.808
1169.339, 2604.497
1169.821, 2600.190
1170.303, 2600.274
1170.785, 2593.059
1171.268, 2581.009
1171.750, 2571.016
1172.232, 2562.128
1172.714, 2563.995
1173.196, 2596.861
1173.678, 2625.654
1174.160, 2625.955
1174.642, 2602.985
1175.125, 2588.719
1175.607, 2582.608
1176.089, 2582.501
1176.571, 2595.244
1177.053, 2603.227
1177.535, 2591.184
1178.017, 2576.463
1178.499, 2578.875
1178.981, 2598.022
1179.464, 2593.078
1179.946, 2565.273
1180.428, 2541.925
1180.910, 2546.675
1181.392, 2553.423
1181.874, 2547.158
1182.356, 2534.462
1182.838, 2523.899
1183.320, 2515.193
1183.803, 2516.020
1184.285, 2527.185
1184.767, 2541.355
1185.249, 2560.112
1185.731, 2573.344
1186.213, 2570.870
1186.695, 2557.373
1187.177, 2544.302
1187.660, 2531.197
1188.142, 2526.883
1188.624, 2533.660
1189.106, 2542.560
1189.588, 2551.313
1190.070, 2554.267
1190.552, 2541.833
1191.034, 2517.425
1191.516, 2505.266
1191.999, 2506.217
1192.481, 2511.976
1192.963, 2521.568
1193.445, 2530.958
1193.927, 2537.963
1194.409, 2541.475
1194.891, 2538.975
1195.373, 2530.285
1195.855, 2522.842
1196.338, 2515.875
1196.820, 2518.192
1197.302, 2540.122
1197.784, 2558.294
1198.266, 2532.990
1198.748, 2496.117
1199.230, 2494.196
1199.712, 2541.702
1200.195, 2552.402
1200.677, 2520.525
1201.159, 2492.531
1201.641, 2497.896
1202.123, 2513.931
1202.605, 2517.286
1203.087, 2512.552
1203.569, 2507.396
1204.052, 2504.223
1204.534, 2493.913
1205.016, 2473.936
1205.498, 2461.521
1205.980, 2475.153
1206.462, 2497.304
1206.944, 2510.903
1207.426, 2516.813
1207.908, 2515.947
1208.391, 2505.937
1208.873, 2495.896
1209.355, 2484.341
1209.837, 2482.406
1210.319, 2513.845
1210.801, 2548.996
1211.283, 2548.898
1211.765, 2522.459
1212.247, 2503.336
1212.730, 2492.748
1213.212, 2497.275
1213.694, 2521.589
1214.176, 2541.862
1214.658, 2525.985
1215.140, 2500.131
1215.622, 2498.808
1216.104, 2517.496
1216.587, 2517.353
1217.069, 2486.134
1217.551, 2472.845
1218.033, 2488.264
1218.515, 2510.977
1218.997, 2521.186
1219.479, 2522.782
1219.961, 2517.377
1220.443, 2506.061
1220.926, 2499.859
1221.408, 2500.374
1221.890, 2501.582
1222.372, 2502.468
1222.854, 2502.268
1223.336, 2497.911
1223.818, 2493.325
1224.300, 2494.956
1224.782, 2503.657
1225.265, 2501.767
1225.747, 2485.019
1226.229, 2479.529
1226.711, 2497.106
1227.193, 2518.614
1227.675, 2521.833
1228.157, 2515.156
1228.639, 2506.155
1229.122, 2495.010
1229.604, 2494.818
1230.086, 2507.567
1230.568, 2518.583
1231.050, 2523.969
1231.532, 2521.507
1232.014, 2498.569
1232.496, 2471.937
1232.979, 2464.190
1233.461, 2479.125
1233.943, 2490.147
1234.425, 2497.102
1234.907, 2501.021
1235.389, 2503.377
1235.871, 2501.222
1236.353, 2479.227
1236.835, 2457.684
1237.318, 2469.768
1237.800, 2523.763
1238.282, 2544.926
1238.764, 2531.687
1239.246, 2514.608
1239.728, 2509.739
1240.210, 2509.155
1240.692, 2509.803
1241.175, 2508.853
1241.657, 2500.969
1242.139, 2483.166
1242.621, 2479.550
1243.103, 2490.215
1243.585, 2502.417
1244.067, 2508.120
1244.549, 2513.067
1245.031, 2525.067
1245.514, 2536.325
1245.996, 2536.554
1246.478, 2525.036
1246.960, 2505.812
1247.442, 2479.888
1247.924, 2466.937
1248.406, 2496.945
1248.888, 2524.521
1249.370, 2517.155
1249.853, 2496.670
1250.335, 2492.072
1250.817, 2502.790
1251.299, 2511.036
1251.781, 2516.017
1252.263, 2518.500
1252.745, 2519.574
1253.227, 2517.382
1253.710, 2508.229
1254.192, 2497.682
1254.674, 2492.694
1255.156, 2492.698
1255.638, 2495.278
1256.120, 2499.739
1256.602, 2500.401
1257.084, 2484.608
1257.567, 2477.511
1258.049, 2491.457
1258.531, 2511.649
1259.013, 2515.167
1259.495, 2507.523
1259.977, 2511.711
1260.459, 2527.845
1260.941, 2536.893
1261.423, 2521.921
1261.906, 2509.673
1262.388, 2505.709
1262.870, 2507.641
1263.352, 2516.101
1263.834, 2526.583
1264.316, 2526.902
1264.798, 2516.883
1265.280, 2508.609
1265.762, 2503.904
1266.245, 2505.400
1266.727, 2516.266
1267.209, 2527.290
1267.691, 2523.525
1268.173, 2512.410
1268.655, 2505.954
1269.137, 2505.019
1269.619, 2504.380
1270.102, 2501.445
1270.584, 2504.846
1271.066, 2518.746
1271.548, 2531.372
1272.030, 2524.588
1272.512, 2510.088
1272.994, 2499.008
1273.476, 2493.386
1273.958, 2499.172
1274.441, 2520.503
1274.923, 2531.048
1275.405, 2522.703
1275.887, 2512.600
1276.369, 2521.323
1276.851, 2534.771
1277.333, 2539.151
1277.815, 2535.293
1278.297, 2533.840
1278.780, 2535.106
1279.262, 2530.751
1279.744, 2517.459
1280.226, 2507.442
1280.708, 2514.293
1281.190, 2524.789
1281.672, 2530.121
1282.154, 2530.990
1282.637, 2528.966
1283.119, 2524.471
1283.601, 2521.070
1284.083, 2519.151
1284.565, 2520.865
1285.047, 2531.872
1285.529, 2542.046
1286.011, 2546.733
1286.494, 2546.972
1286.976, 2544.796
1287.458, 2540.600
1287.940, 2535.687
1288.422, 2530.332
1288.904, 2524.134
1289.386, 2511.522
1289.868, 2506.430
1290.350, 2516.665
1290.833, 2532.538
1291.315, 2534.471
1291.797, 2527.542
1292.279, 2520.930
1292.761, 2516.042
1293.243, 2514.276
1293.725, 2517.535
1294.207, 2517.500
1294.689, 2508.279
1295.172, 2501.950
1295.654, 2523.951
1296.136, 2555.359
1296.618, 2569.517
1297.100, 2560.751
1297.582, 2559.529
1298.064, 2567.572
1298.546, 2572.250
1299.029, 2568.905
1299.511, 2563.181
1299.993, 2559.811
1300.475, 2557.878
1300.957, 2557.642
1301.439, 2558.382
1301.921, 2555.469
1302.403, 2548.896
1302.885, 2538.636
1303.368, 2523.454
1303.850, 2509.749
1304.332, 2497.741
1304.814, 2494.180
1305.296, 2505.843
1305.778, 2526.431
1306.260, 2533.050
1306.742, 2528.686
1307.224, 2523.913
1307.707, 2519.709
1308.189, 2524.567
1308.671, 2555.891
1309.153, 2577.595
1309.635, 2573.923
1310.117, 2556.178
1310.599, 2543.934
1311.081, 2537.105
1311.564, 2537.154
1312.046, 2545.536
1312.528, 2551.012
1313.010, 2552.470
1313.492, 2550.168
1313.974, 2541.277
1314.456, 2535.893
1314.938, 2556.966
##END=



