##NAMES=Tsumebite
##RRUFFID=R070446
##IDEAL CHEMISTRY=Pb^2+^_2_Cu^2+^(P^5+^O_4_)(S^6+^O_4_)(OH)
##LOCALITY=Tiger mine, Collins Vein, Tiger, Arizona, USA
##OWNER=RRUFF
##SOURCE=Joe Ruiz
##DESCRIPTION=Sea blue tabular crystals on quartz associated with yellowish phosphohedyphane, goethite, hematite, cerussite, fluorite, and corkite.
##STATUS=The identification of this mineral has been confirmed by single-crystal X-ray diffraction.
##URL=rruff.info/R070446
128.2276, 338.7913
128.7097, 362.3259
129.1918, 386.6551
129.6739, 409.3862
130.1560, 429.5077
130.6381, 451.1313
131.1203, 482.0908
131.6024, 521.1809
132.0845, 559.5054
132.5666, 588.0444
133.0487, 609.6085
133.5308, 638.7643
134.0130, 680.4565
134.4951, 727.7690
134.9772, 765.0200
135.4593, 791.4084
135.9414, 813.9426
136.4235, 835.6395
136.9057, 856.1505
137.3878, 883.6723
137.8699, 922.4502
138.3520, 970.3174
138.8341, 1013.205
139.3162, 1050.018
139.7984, 1084.278
140.2805, 1121.278
140.7626, 1161.384
141.2447, 1200.143
141.7268, 1236.062
142.2089, 1268.499
142.6911, 1300.477
143.1732, 1331.343
143.6553, 1361.889
144.1374, 1394.330
144.6195, 1432.034
145.1016, 1465.598
145.5838, 1490.551
146.0659, 1502.522
146.5480, 1515.408
147.0301, 1530.586
147.5122, 1546.885
147.9943, 1560.302
148.4765, 1570.729
148.9586, 1578.203
149.4407, 1582.794
149.9228, 1582.423
150.4049, 1581.776
150.8870, 1579.428
151.3692, 1575.441
151.8513, 1577.130
152.3334, 1589.792
152.8155, 1605.270
153.2976, 1617.703
153.7797, 1620.989
154.2619, 1626.968
154.7440, 1639.447
155.2261, 1660.102
155.7082, 1676.977
156.1903, 1688.273
156.6724, 1695.314
157.1546, 1699.359
157.6367, 1698.549
158.1188, 1696.623
158.6009, 1694.955
159.0830, 1694.099
159.5651, 1692.261
160.0473, 1687.381
160.5294, 1681.240
161.0115, 1677.361
161.4936, 1684.280
161.9757, 1688.681
162.4578, 1682.303
162.9400, 1657.253
163.4221, 1632.079
163.9042, 1614.359
164.3863, 1602.500
164.8684, 1591.115
165.3505, 1578.585
165.8327, 1565.282
166.3148, 1551.397
166.7969, 1534.231
167.2790, 1519.266
167.7611, 1511.007
168.2433, 1508.701
168.7254, 1506.156
169.2075, 1499.171
169.6896, 1490.128
170.1717, 1481.852
170.6538, 1477.030
171.1360, 1472.300
171.6181, 1464.587
172.1002, 1453.716
172.5823, 1442.763
173.0644, 1432.776
173.5465, 1424.276
174.0287, 1417.988
174.5108, 1419.054
174.9929, 1420.330
175.4750, 1412.425
175.9571, 1393.429
176.4392, 1372.748
176.9214, 1360.408
177.4035, 1353.937
177.8856, 1346.274
178.3677, 1332.399
178.8498, 1315.256
179.3319, 1298.520
179.8141, 1281.799
180.2962, 1267.676
180.7783, 1261.152
181.2604, 1260.975
181.7425, 1259.875
182.2246, 1252.222
182.7068, 1240.191
183.1889, 1228.824
183.6710, 1219.730
184.1531, 1210.848
184.6352, 1197.116
185.1173, 1178.819
185.5995, 1163.432
186.0816, 1161.628
186.5637, 1168.862
187.0458, 1167.371
187.5279, 1148.694
188.0100, 1121.368
188.4922, 1106.376
188.9743, 1104.225
189.4564, 1104.979
189.9385, 1098.006
190.4206, 1084.528
190.9027, 1074.108
191.3849, 1070.906
191.8670, 1072.874
192.3491, 1072.231
192.8312, 1068.716
193.3133, 1063.847
193.7954, 1059.477
194.2776, 1055.578
194.7597, 1050.749
195.2418, 1043.992
195.7239, 1035.641
196.2060, 1027.834
196.6881, 1020.376
197.1703, 1014.092
197.6524, 1010.282
198.1345, 1009.052
198.6166, 1009.259
199.0987, 1011.134
199.5808, 1014.681
200.0630, 1017.113
200.5451, 1018.677
201.0272, 1018.676
201.5093, 1014.558
201.9914, 1005.206
202.4735, 997.5146
202.9557, 996.7111
203.4378, 1003.796
203.9199, 1005.061
204.4020, 997.7925
204.8841, 986.0820
205.3662, 980.6408
205.8484, 982.9395
206.3305, 986.4868
206.8126, 987.5914
207.2947, 985.9424
207.7768, 983.6520
208.2589, 980.5450
208.7411, 977.0480
209.2232, 974.9182
209.7053, 974.7440
210.1874, 974.5070
210.6695, 972.2063
211.1517, 966.7960
211.6338, 964.0692
212.1159, 965.9527
212.5980, 971.2732
213.0801, 972.9254
213.5622, 969.9860
214.0444, 965.0826
214.5265, 960.0768
215.0086, 954.6814
215.4907, 949.7484
215.9728, 944.2949
216.4549, 938.7671
216.9371, 940.3550
217.4192, 952.9768
217.9013, 966.9178
218.3834, 972.6306
218.8655, 967.7502
219.3476, 960.8422
219.8298, 952.0145
220.3119, 941.2682
220.7940, 936.9567
221.2761, 941.5694
221.7582, 949.7711
222.2403, 956.3185
222.7225, 961.5682
223.2046, 963.8701
223.6867, 961.1719
224.1688, 952.4737
224.6509, 950.9695
225.1330, 961.4070
225.6152, 974.5803
226.0973, 977.2842
226.5794, 962.8521
227.0615, 951.7322
227.5436, 951.2284
228.0257, 964.2878
228.5079, 969.6613
228.9900, 963.4019
229.4721, 952.4780
229.9542, 947.0698
230.4363, 949.2263
230.9184, 953.1557
231.4006, 957.0916
231.8827, 960.5729
232.3648, 966.3403
232.8469, 976.9844
233.3290, 988.4418
233.8111, 993.3233
234.2933, 988.1062
234.7754, 982.1851
235.2575, 978.8916
235.7396, 979.4654
236.2217, 978.6530
236.7038, 976.0565
237.1860, 972.2439
237.6681, 968.1345
238.1502, 962.8828
238.6323, 958.6910
239.1144, 956.7926
239.5965, 959.0984
240.0787, 958.3894
240.5608, 953.2819
241.0429, 945.6666
241.5250, 939.7892
242.0071, 936.4049
242.4892, 933.6005
242.9714, 930.5994
243.4535, 926.9798
243.9356, 924.2158
244.4177, 923.4833
244.8998, 923.3112
245.3819, 919.2930
245.8641, 908.0834
246.3462, 897.9244
246.8283, 893.6235
247.3104, 900.5663
247.7925, 900.1692
248.2746, 888.9496
248.7568, 870.9583
249.2389, 857.6185
249.7210, 850.1437
250.2031, 845.4843
250.6852, 843.0978
251.1674, 846.2574
251.6495, 843.3978
252.1316, 831.0618
252.6137, 813.0555
253.0958, 802.0673
253.5779, 801.8748
254.0601, 802.8297
254.5422, 800.0214
255.0243, 792.5813
255.5064, 783.4670
255.9885, 771.4877
256.4706, 758.1585
256.9528, 748.7170
257.4349, 745.6790
257.9170, 742.3518
258.3991, 734.3265
258.8812, 718.5831
259.3633, 706.8729
259.8455, 700.8242
260.3276, 698.9717
260.8097, 696.4420
261.2918, 693.1647
261.7739, 689.3011
262.2560, 684.7128
262.7382, 678.8761
263.2203, 673.6543
263.7024, 668.4692
264.1845, 664.0857
264.6666, 663.6307
265.1487, 668.8859
265.6309, 674.3950
266.1130, 677.2067
266.5951, 677.3297
267.0772, 674.1148
267.5593, 665.3289
268.0414, 653.8852
268.5236, 651.0195
269.0057, 659.8752
269.4878, 669.6607
269.9699, 674.4639
270.4520, 674.0118
270.9341, 668.9430
271.4163, 657.3356
271.8984, 642.0992
272.3805, 632.3641
272.8626, 628.9998
273.3447, 628.3161
273.8268, 628.4174
274.3090, 629.3884
274.7911, 630.3037
275.2732, 630.4274
275.7553, 630.8845
276.2374, 635.7300
276.7195, 646.2897
277.2017, 656.2677
277.6838, 661.5034
278.1659, 661.6569
278.6480, 661.1501
279.1301, 660.0866
279.6122, 658.8557
280.0944, 658.0965
280.5765, 657.6783
281.0586, 658.5375
281.5407, 661.7357
282.0228, 667.2939
282.5049, 672.4335
282.9871, 676.8534
283.4692, 680.8134
283.9513, 685.2424
284.4334, 690.2494
284.9155, 694.4492
285.3976, 696.2394
285.8798, 695.8974
286.3619, 697.1164
286.8440, 700.2374
287.3261, 705.0311
287.8082, 710.9861
288.2903, 718.0962
288.7725, 727.0565
289.2546, 740.2246
289.7367, 756.3138
290.2188, 767.8772
290.7009, 773.2173
291.1830, 776.3252
291.6652, 784.0014
292.1473, 796.0024
292.6294, 807.9354
293.1115, 817.2052
293.5936, 824.4589
294.0757, 831.9808
294.5579, 840.0876
295.0400, 848.1671
295.5221, 855.9175
296.0042, 863.2155
296.4863, 868.8904
296.9684, 868.4618
297.4506, 866.2905
297.9327, 874.5344
298.4148, 895.8708
298.8969, 919.6561
299.3790, 931.2514
299.8611, 933.7476
300.3433, 937.4096
300.8254, 948.4258
301.3075, 963.7256
301.7896, 978.7224
302.2717, 993.4961
302.7538, 1006.579
303.2360, 1015.127
303.7181, 1020.732
304.2002, 1027.407
304.6823, 1037.347
305.1644, 1049.206
305.6465, 1061.923
306.1287, 1075.734
306.6108, 1088.251
307.0929, 1098.209
307.5750, 1105.490
308.0571, 1110.310
308.5392, 1109.860
309.0214, 1108.683
309.5035, 1111.024
309.9856, 1117.097
310.4677, 1123.937
310.9498, 1130.703
311.4319, 1136.797
311.9141, 1141.528
312.3962, 1144.618
312.8783, 1146.319
313.3604, 1148.013
313.8426, 1149.531
314.3247, 1146.527
314.8068, 1131.090
315.2889, 1112.031
315.7710, 1098.447
316.2531, 1096.244
316.7353, 1097.321
317.2174, 1099.280
317.6995, 1101.884
318.1816, 1103.281
318.6637, 1104.120
319.1458, 1102.753
319.6280, 1097.858
320.1101, 1085.633
320.5922, 1073.361
321.0743, 1063.238
321.5564, 1054.924
322.0385, 1046.479
322.5207, 1038.335
323.0028, 1029.277
323.4849, 1018.597
323.9670, 1002.239
324.4491, 988.8617
324.9312, 981.9661
325.4134, 979.6251
325.8955, 974.5881
326.3776, 962.9359
326.8597, 950.6867
327.3418, 940.6310
327.8239, 935.4911
328.3061, 929.0914
328.7882, 921.3030
329.2703, 912.1346
329.7524, 901.4929
330.2345, 886.4490
330.7166, 872.8035
331.1988, 862.8594
331.6809, 858.8542
332.1630, 853.9796
332.6451, 849.2521
333.1272, 843.2479
333.6093, 832.8674
334.0915, 813.8885
334.5736, 797.0640
335.0557, 786.7853
335.5378, 785.2658
336.0199, 779.8331
336.5020, 768.5302
336.9842, 755.1653
337.4663, 745.2247
337.9484, 740.2183
338.4305, 734.3517
338.9126, 724.9285
339.3947, 711.9466
339.8769, 703.7339
340.3590, 701.3113
340.8411, 701.4344
341.3232, 700.9998
341.8053, 700.1012
342.2874, 697.8738
342.7696, 693.7383
343.2517, 688.0535
343.7338, 683.2224
344.2159, 679.3610
344.6980, 675.3915
345.1801, 670.6236
345.6623, 665.0486
346.1444, 657.3309
346.6265, 645.5325
347.1086, 632.9935
347.5907, 627.9912
348.0728, 630.5773
348.5550, 635.6888
349.0371, 641.5390
349.5192, 647.1260
350.0013, 648.8473
350.4834, 645.1790
350.9655, 639.1450
351.4477, 634.9756
351.9298, 632.3044
352.4119, 629.6103
352.8940, 625.0532
353.3761, 620.0843
353.8582, 617.0898
354.3404, 616.4148
354.8225, 617.5255
355.3046, 623.3477
355.7867, 630.8520
356.2688, 632.7650
356.7509, 615.5402
357.2331, 596.7899
357.7152, 595.8526
358.1973, 615.9474
358.6794, 635.3047
359.1615, 638.8885
359.6436, 633.3189
360.1258, 627.8572
360.6079, 625.0529
361.0900, 624.1438
361.5721, 624.6099
362.0542, 626.4483
362.5363, 630.3509
363.0185, 638.2118
363.5006, 647.5537
363.9827, 656.0564
364.4648, 662.3735
364.9469, 668.6642
365.4290, 676.1661
365.9112, 684.4624
366.3933, 691.0696
366.8754, 691.7491
367.3575, 693.1513
367.8396, 699.0745
368.3217, 718.5669
368.8039, 731.8741
369.2860, 733.3124
369.7681, 727.2366
370.2502, 726.6975
370.7323, 733.6413
371.2144, 744.2359
371.6966, 757.1232
372.1787, 772.3049
372.6608, 789.8524
373.1429, 811.9019
373.6250, 835.1165
374.1071, 853.9800
374.5893, 866.2778
375.0714, 878.7115
375.5535, 893.2418
376.0356, 909.8997
376.5177, 927.0591
376.9998, 944.2347
377.4820, 962.5027
377.9641, 982.2701
378.4462, 1003.295
378.9283, 1028.762
379.4104, 1062.548
379.8925, 1101.018
380.3747, 1123.771
380.8568, 1128.307
381.3389, 1133.829
381.8210, 1160.935
382.3031, 1206.346
382.7852, 1244.458
383.2674, 1268.343
383.7495, 1285.368
384.2316, 1310.623
384.7137, 1343.141
385.1958, 1370.253
385.6779, 1381.481
386.1601, 1381.835
386.6422, 1380.650
387.1243, 1378.351
387.6064, 1377.216
388.0885, 1381.424
388.5706, 1388.913
389.0528, 1394.234
389.5349, 1395.578
390.0170, 1392.961
390.4991, 1384.914
390.9812, 1371.040
391.4633, 1357.447
391.9455, 1348.523
392.4276, 1342.095
392.9097, 1335.403
393.3918, 1328.823
393.8739, 1320.566
394.3561, 1309.216
394.8382, 1295.036
395.3203, 1280.172
395.8024, 1262.078
396.2845, 1245.734
396.7667, 1234.750
397.2488, 1235.437
397.7309, 1234.422
398.2130, 1228.869
398.6951, 1219.829
399.1772, 1210.573
399.6594, 1197.627
400.1415, 1187.965
400.6236, 1185.336
401.1057, 1196.110
401.5878, 1198.368
402.0699, 1185.152
402.5521, 1166.812
403.0342, 1158.360
403.5163, 1161.731
403.9984, 1171.955
404.4805, 1190.609
404.9626, 1217.798
405.4448, 1236.597
405.9269, 1244.944
406.4090, 1248.682
406.8911, 1252.845
407.3732, 1257.451
407.8553, 1262.904
408.3375, 1270.555
408.8196, 1278.349
409.3017, 1276.423
409.7838, 1263.467
410.2659, 1255.547
410.7480, 1267.064
411.2302, 1294.408
411.7123, 1320.564
412.1944, 1344.498
412.6765, 1363.862
413.1586, 1371.959
413.6407, 1371.491
414.1229, 1374.116
414.6050, 1386.204
415.0871, 1404.927
415.5692, 1428.785
416.0513, 1458.465
416.5334, 1482.634
417.0156, 1488.415
417.4977, 1484.037
417.9798, 1481.751
418.4619, 1486.286
418.9440, 1494.046
419.4261, 1503.357
419.9083, 1514.050
420.3904, 1526.126
420.8725, 1543.506
421.3546, 1559.761
421.8367, 1569.738
422.3188, 1569.109
422.8010, 1568.269
423.2831, 1567.092
423.7652, 1567.592
424.2473, 1573.935
424.7294, 1593.864
425.2115, 1613.169
425.6937, 1624.506
426.1758, 1621.652
426.6579, 1634.945
427.1400, 1673.216
427.6221, 1721.914
428.1042, 1767.389
428.5864, 1809.202
429.0685, 1848.024
429.5506, 1880.827
430.0327, 1909.438
430.5148, 1949.994
430.9969, 2005.333
431.4791, 2065.576
431.9612, 2124.464
432.4433, 2182.117
432.9254, 2236.543
433.4075, 2285.814
433.8896, 2333.947
434.3718, 2389.490
434.8539, 2452.230
435.3360, 2514.913
435.8181, 2570.997
436.3002, 2623.747
436.7823, 2686.599
437.2645, 2760.870
437.7466, 2829.543
438.2287, 2874.624
438.7108, 2901.598
439.1929, 2922.848
439.6750, 2945.472
440.1572, 2960.980
440.6393, 2960.534
441.1214, 2945.293
441.6035, 2920.987
442.0856, 2891.058
442.5677, 2853.435
443.0499, 2804.972
443.5320, 2742.834
444.0141, 2676.784
444.4962, 2613.255
444.9783, 2547.997
445.4604, 2473.888
445.9426, 2369.924
446.4247, 2274.765
446.9068, 2204.295
447.3889, 2163.851
447.8710, 2117.414
448.3531, 2056.818
448.8353, 1993.555
449.3174, 1935.177
449.7995, 1881.268
450.2816, 1832.695
450.7637, 1789.491
451.2458, 1751.756
451.7280, 1722.196
452.2101, 1703.003
452.6922, 1686.936
453.1743, 1669.111
453.6564, 1648.700
454.1385, 1637.376
454.6207, 1636.859
455.1028, 1641.939
455.5849, 1643.839
456.0670, 1643.061
456.5491, 1649.275
457.0313, 1668.394
457.5134, 1695.657
457.9955, 1719.093
458.4776, 1739.051
458.9597, 1759.560
459.4418, 1784.608
459.9240, 1812.159
460.4061, 1839.551
460.8882, 1866.703
461.3703, 1891.800
461.8524, 1910.512
462.3345, 1925.671
462.8167, 1943.493
463.2988, 1971.795
463.7809, 1999.833
464.2630, 2022.495
464.7451, 2039.680
465.2272, 2046.935
465.7094, 2032.652
466.1915, 2012.508
466.6736, 2000.440
467.1557, 2013.841
467.6378, 2018.790
468.1199, 2009.471
468.6021, 1987.337
469.0842, 1959.246
469.5663, 1924.425
470.0484, 1884.688
470.5305, 1839.301
471.0126, 1785.527
471.4948, 1736.134
471.9769, 1692.985
472.4590, 1651.431
472.9411, 1602.610
473.4232, 1544.272
473.9053, 1494.671
474.3875, 1462.056
474.8696, 1441.678
475.3517, 1414.469
475.8338, 1379.913
476.3159, 1346.056
476.7981, 1319.495
477.2802, 1298.662
477.7623, 1279.124
478.2444, 1260.585
478.7265, 1242.039
479.2086, 1219.266
479.6908, 1195.421
480.1729, 1178.721
480.6550, 1179.833
481.1371, 1185.168
481.6192, 1184.501
482.1013, 1177.528
482.5835, 1165.951
483.0656, 1145.985
483.5477, 1124.382
484.0298, 1106.946
484.5119, 1098.207
484.9940, 1089.382
485.4762, 1078.794
485.9583, 1066.716
486.4404, 1053.856
486.9225, 1040.204
487.4046, 1025.835
487.8867, 1010.838
488.3689, 995.4089
488.8510, 977.3825
489.3331, 954.5831
489.8152, 931.6365
490.2973, 912.6701
490.7794, 897.8564
491.2616, 887.2742
491.7437, 882.3545
492.2258, 880.5903
492.7079, 875.0238
493.1900, 865.5696
493.6721, 854.9489
494.1543, 846.6492
494.6364, 838.6866
495.1185, 822.1174
495.6006, 795.7919
496.0827, 769.8118
496.5648, 754.8718
497.0470, 748.0139
497.5291, 743.8060
498.0112, 743.6631
498.4933, 741.9018
498.9754, 731.5779
499.4576, 714.8755
499.9397, 700.6287
500.4218, 696.0182
500.9039, 692.9470
501.3860, 685.6142
501.8681, 671.4040
502.3503, 659.1691
502.8324, 654.0869
503.3145, 650.8599
503.7966, 643.1003
504.2787, 620.4916
504.7608, 605.7090
505.2430, 606.5614
505.7251, 619.6513
506.2072, 620.5295
506.6893, 603.3384
507.1714, 584.2939
507.6535, 572.3603
508.1357, 568.5377
508.6178, 563.5949
509.0999, 556.8346
509.5820, 550.1134
510.0641, 546.8949
510.5462, 546.7857
511.0284, 544.8845
511.5105, 538.1208
511.9926, 529.6745
512.4747, 525.5707
512.9568, 525.5309
513.4389, 527.2194
513.9210, 532.5017
514.4031, 537.1195
514.8853, 534.4927
515.3674, 521.8716
515.8495, 509.7608
516.3316, 504.6571
516.8137, 503.9587
517.2958, 504.0672
517.7780, 504.2285
518.2601, 504.6390
518.7422, 504.5203
519.2244, 504.1838
519.7065, 506.7066
520.1886, 517.0080
520.6707, 526.2554
521.1528, 530.2114
521.6349, 526.2038
522.1171, 523.5909
522.5992, 521.8753
523.0813, 522.0705
523.5634, 527.1218
524.0455, 538.8328
524.5276, 544.9799
525.0098, 539.0104
525.4919, 526.7335
525.9740, 530.7761
526.4561, 551.6844
526.9382, 570.7012
527.4203, 570.4535
527.9025, 559.5629
528.3846, 559.5330
528.8667, 573.5646
529.3488, 590.7333
529.8309, 602.0939
530.3130, 609.2880
530.7952, 615.1117
531.2773, 619.1096
531.7594, 623.3326
532.2415, 630.5330
532.7236, 639.4601
533.2057, 644.4142
533.6879, 637.7542
534.1700, 631.4185
534.6521, 631.5904
535.1342, 641.0063
535.6163, 650.7977
536.0984, 661.8278
536.5806, 672.3967
537.0627, 681.0613
537.5448, 689.4411
538.0269, 691.4859
538.5090, 683.6250
538.9911, 669.9546
539.4733, 666.0082
539.9554, 673.4136
540.4375, 678.3737
540.9196, 671.0751
541.4017, 654.3833
541.8839, 642.3005
542.3660, 635.4185
542.8481, 629.5600
543.3302, 619.2916
543.8123, 607.1697
544.2944, 598.5361
544.7766, 596.9658
545.2587, 595.9415
545.7408, 587.3506
546.2229, 575.2130
546.7050, 569.2455
547.1871, 580.0850
547.6693, 592.3038
548.1514, 598.9556
548.6335, 599.3254
549.1156, 596.3904
549.5977, 584.6236
550.0798, 573.7316
550.5620, 570.5516
551.0441, 579.0886
551.5262, 587.8735
552.0083, 598.3812
552.4904, 607.5161
552.9725, 607.2012
553.4547, 594.9362
553.9368, 586.6649
554.4189, 590.6055
554.9010, 602.4691
555.3831, 603.6526
555.8652, 593.9451
556.3474, 584.3775
556.8295, 583.4590
557.3116, 588.9532
557.7937, 597.3959
558.2758, 609.3538
558.7579, 619.6360
559.2401, 622.2438
559.7222, 620.5289
560.2043, 619.6423
560.6864, 625.0337
561.1685, 628.2521
561.6506, 622.2247
562.1328, 609.4600
562.6149, 603.3652
563.0970, 614.7569
563.5791, 626.0092
564.0612, 629.4724
564.5433, 622.5881
565.0255, 617.4689
565.5076, 613.8892
565.9897, 612.4073
566.4718, 614.8279
566.9539, 622.3484
567.4360, 625.5284
567.9182, 621.3727
568.4003, 613.9385
568.8824, 612.1139
569.3645, 615.5337
569.8466, 619.5446
570.3287, 622.7932
570.8109, 624.6421
571.2930, 622.3959
571.7751, 616.2865
572.2572, 612.2103
572.7393, 615.4561
573.2214, 622.2133
573.7036, 628.7740
574.1857, 634.6125
574.6678, 639.5964
575.1499, 645.5588
575.6320, 650.0883
576.1141, 649.6978
576.5963, 634.7657
577.0784, 625.2415
577.5605, 626.9890
578.0426, 637.9172
578.5247, 644.1997
579.0068, 642.5690
579.4890, 642.8818
579.9711, 652.6841
580.4532, 672.9291
580.9353, 682.1092
581.4174, 677.9827
581.8995, 672.0517
582.3817, 680.3217
582.8638, 698.2147
583.3459, 707.9240
583.8280, 702.2128
584.3101, 692.4476
584.7922, 691.4078
585.2744, 696.6246
585.7565, 701.7059
586.2386, 700.3646
586.7207, 700.7005
587.2028, 710.2968
587.6849, 728.8380
588.1671, 741.7063
588.6492, 739.2706
589.1313, 734.0358
589.6134, 733.5627
590.0955, 739.9358
590.5776, 746.8693
591.0598, 754.9248
591.5419, 763.0362
592.0240, 769.3295
592.5061, 773.1060
592.9882, 778.9086
593.4703, 788.4886
593.9525, 799.7812
594.4346, 807.2585
594.9167, 811.1391
595.3988, 814.4976
595.8809, 816.8179
596.3630, 820.5948
596.8452, 832.7076
597.3273, 852.9767
597.8094, 869.6732
598.2915, 873.0002
598.7736, 869.8152
599.2557, 865.9849
599.7379, 860.2424
600.2200, 859.2474
600.7021, 869.1133
601.1842, 883.8860
601.6663, 894.0781
602.1484, 897.3726
602.6306, 898.7805
603.1127, 898.6787
603.5948, 897.2743
604.0769, 895.4048
604.5590, 892.8466
605.0411, 890.6128
605.5233, 890.6810
606.0054, 892.3196
606.4875, 888.2799
606.9696, 878.2827
607.4517, 865.7211
607.9338, 855.2065
608.4160, 844.3044
608.8981, 826.9843
609.3802, 798.2095
609.8623, 772.3551
610.3444, 765.4653
610.8265, 767.7386
611.3087, 762.5682
611.7908, 732.3824
612.2729, 705.7795
612.7550, 694.9698
613.2371, 697.9998
613.7192, 699.3708
614.2014, 699.4081
614.6835, 696.5540
615.1656, 688.8035
615.6477, 675.0703
616.1298, 667.5239
616.6119, 667.5178
617.0941, 670.3302
617.5762, 672.4462
618.0583, 673.7642
618.5404, 673.1157
619.0225, 670.0826
619.5046, 665.8037
619.9868, 659.0504
620.4689, 652.1226
620.9510, 650.3309
621.4331, 662.6232
621.9152, 674.9418
622.3973, 676.7827
622.8795, 670.4269
623.3616, 665.5131
623.8437, 664.4774
624.3258, 666.2490
624.8079, 671.8529
625.2900, 682.6329
625.7722, 687.9340
626.2543, 684.7508
626.7364, 679.8231
627.2185, 678.9443
627.7006, 683.3600
628.1827, 683.4269
628.6649, 677.7206
629.1470, 669.3434
629.6291, 664.1998
630.1112, 660.9584
630.5933, 652.3776
631.0754, 633.4381
631.5576, 611.1786
632.0397, 592.4564
632.5218, 577.4524
633.0039, 567.0234
633.4860, 568.0494
633.9681, 568.5394
634.4503, 560.1531
634.9324, 542.2192
635.4145, 526.4971
635.8966, 514.8644
636.3787, 506.6686
636.8608, 501.6968
637.3430, 500.8446
637.8251, 501.0724
638.3072, 503.2653
638.7893, 505.1900
639.2714, 503.6874
639.7535, 498.7273
640.2357, 493.9015
640.7178, 489.8799
641.1999, 486.3406
641.6820, 482.2346
642.1641, 477.9822
642.6462, 475.1463
643.1284, 475.2398
643.6105, 476.4524
644.0926, 478.1245
644.5747, 479.9127
645.0568, 479.9223
645.5389, 475.1221
646.0211, 470.2109
646.5032, 467.9340
646.9853, 469.6137
647.4674, 469.7888
647.9495, 467.8982
648.4316, 465.1479
648.9138, 461.9633
649.3959, 457.8946
649.8780, 456.4249
650.3601, 458.2745
650.8422, 461.8903
651.3243, 465.9385
651.8065, 470.0350
652.2886, 472.1376
652.7707, 470.4070
653.2528, 467.8487
653.7349, 467.8689
654.2170, 469.8939
654.6992, 472.2457
655.1813, 476.8101
655.6634, 479.1320
656.1455, 474.8632
656.6276, 463.9040
657.1097, 457.3795
657.5919, 460.2587
658.0740, 464.3830
658.5561, 465.8610
659.0382, 463.9334
659.5203, 462.7203
660.0024, 462.3463
660.4846, 462.3709
660.9667, 462.3125
661.4488, 462.2077
661.9309, 462.6823
662.4130, 464.2768
662.8951, 465.1968
663.3773, 461.7676
663.8594, 456.0340
664.3415, 452.3618
664.8236, 452.8761
665.3057, 455.6486
665.7878, 461.4317
666.2700, 468.9475
666.7521, 473.8693
667.2342, 473.7725
667.7163, 472.1786
668.1984, 469.8714
668.6805, 466.8743
669.1627, 464.1751
669.6448, 461.2948
670.1269, 459.8033
670.6090, 461.2195
671.0911, 465.3946
671.5732, 469.0182
672.0554, 471.9074
672.5375, 474.7589
673.0196, 480.2145
673.5017, 485.7548
673.9838, 485.8479
674.4659, 477.2307
674.9481, 468.3222
675.4302, 464.6632
675.9123, 464.0805
676.3944, 463.3301
676.8765, 460.7126
677.3586, 458.8662
677.8408, 458.4546
678.3229, 459.1681
678.8050, 460.0090
679.2871, 460.3410
679.7692, 462.6031
680.2513, 469.0891
680.7335, 478.1537
681.2156, 479.8946
681.6977, 474.2092
682.1799, 468.4778
682.6620, 469.0136
683.1441, 472.3401
683.6262, 471.4984
684.1083, 466.0027
684.5905, 463.2108
685.0726, 471.0977
685.5547, 481.9651
686.0368, 489.1340
686.5189, 490.4465
687.0010, 490.1942
687.4832, 488.3865
687.9653, 485.6595
688.4474, 482.5723
688.9295, 479.0252
689.4116, 475.3651
689.8937, 471.4730
690.3759, 467.7368
690.8580, 464.5347
691.3401, 461.9569
691.8222, 461.1677
692.3043, 463.5154
692.7864, 466.9522
693.2686, 468.5080
693.7507, 468.6270
694.2328, 468.8951
694.7149, 470.9822
695.1970, 472.7128
695.6791, 472.5509
696.1613, 470.4578
696.6434, 468.7088
697.1255, 469.5020
697.6076, 468.7405
698.0897, 463.1686
698.5718, 451.0783
699.0540, 447.5960
699.5361, 454.9204
700.0182, 464.1839
700.5003, 465.7006
700.9824, 461.5604
701.4645, 463.0547
701.9467, 472.6551
702.4288, 482.0378
702.9109, 482.2940
703.3930, 477.2147
703.8751, 472.4678
704.3572, 470.6862
704.8394, 468.1242
705.3215, 461.5294
705.8036, 453.5149
706.2857, 449.0500
706.7678, 448.0555
707.2499, 451.2026
707.7321, 461.1079
708.2142, 474.5279
708.6963, 478.9276
709.1784, 473.2887
709.6605, 469.0003
710.1426, 473.0108
710.6248, 481.1197
711.1069, 482.7840
711.5890, 478.8008
712.0711, 474.4971
712.5532, 472.8972
713.0353, 472.7487
713.5175, 473.9510
713.9996, 476.6317
714.4817, 476.8553
714.9638, 470.2312
715.4459, 463.4430
715.9280, 460.2308
716.4102, 461.0529
716.8923, 464.5421
717.3744, 472.2609
717.8565, 479.7650
718.3386, 481.7506
718.8207, 478.8321
719.3029, 478.1776
719.7850, 481.2475
720.2671, 484.9226
720.7492, 483.9865
721.2313, 481.3689
721.7134, 482.8050
722.1956, 495.5996
722.6777, 504.8161
723.1598, 499.3690
723.6419, 486.2460
724.1240, 479.2097
724.6061, 485.5411
725.0883, 490.7436
725.5704, 492.7163
726.0525, 491.9216
726.5346, 489.2213
727.0167, 484.2433
727.4988, 480.2886
727.9810, 478.6386
728.4631, 479.0832
728.9452, 482.8421
729.4273, 489.0942
729.9094, 492.5619
730.3915, 486.9257
730.8737, 479.4092
731.3558, 475.8019
731.8379, 476.5145
732.3200, 477.7048
732.8021, 476.9903
733.2842, 477.6956
733.7664, 482.2393
734.2485, 492.2568
734.7306, 497.6253
735.2127, 497.3786
735.6948, 494.7581
736.1769, 492.7278
736.6591, 490.9360
737.1412, 485.5886
737.6233, 475.4760
738.1054, 467.9084
738.5875, 472.5848
739.0696, 483.5159
739.5518, 492.3027
740.0339, 496.7762
740.5160, 499.0135
740.9981, 499.3023
741.4802, 498.0254
741.9623, 495.4800
742.4445, 489.2365
742.9266, 486.4414
743.4087, 488.9221
743.8908, 494.1815
744.3729, 497.3405
744.8550, 498.3727
745.3372, 499.6374
745.8193, 502.6913
746.3014, 505.1926
746.7835, 502.1057
747.2656, 495.2801
747.7477, 490.1183
748.2299, 490.6223
748.7120, 492.2622
749.1941, 491.6199
749.6762, 489.5862
750.1583, 491.4885
750.6404, 503.3384
751.1226, 512.0207
751.6047, 511.9441
752.0868, 504.3275
752.5689, 503.3401
753.0510, 509.9163
753.5331, 515.7117
754.0153, 514.6543
754.4974, 509.1945
754.9795, 503.7664
755.4616, 498.6994
755.9437, 497.0079
756.4258, 503.6949
756.9080, 512.4899
757.3901, 517.9603
757.8722, 518.7219
758.3543, 521.2592
758.8364, 532.6250
759.3185, 540.7744
759.8007, 536.6079
760.2828, 515.1500
760.7649, 504.6678
761.2470, 506.9629
761.7291, 513.9597
762.2112, 519.5441
762.6934, 523.0115
763.1755, 520.0735
763.6576, 508.3339
764.1397, 499.4839
764.6218, 506.3307
765.1039, 519.8281
765.5861, 529.3723
766.0682, 531.1025
766.5503, 530.8428
767.0324, 527.6890
767.5145, 524.0074
767.9966, 522.9282
768.4788, 525.6248
768.9609, 525.8683
769.4430, 521.7163
769.9251, 516.7364
770.4072, 518.2719
770.8893, 524.6110
771.3715, 528.3291
771.8536, 525.7739
772.3357, 521.6564
772.8178, 520.2845
773.2999, 520.2794
773.7820, 518.9141
774.2642, 511.5884
774.7463, 507.1871
775.2284, 508.3519
775.7105, 513.7763
776.1926, 521.0258
776.6747, 531.2908
777.1569, 538.9589
777.6390, 542.1010
778.1211, 541.6378
778.6032, 538.4827
779.0853, 533.3107
779.5674, 529.8110
780.0496, 530.4870
780.5317, 533.2890
781.0138, 537.8553
781.4959, 543.4554
781.9780, 546.7807
782.4601, 544.4819
782.9423, 542.1185
783.4244, 541.6468
783.9065, 542.9131
784.3886, 544.2067
784.8707, 545.5499
785.3528, 546.7726
785.8350, 546.8622
786.3171, 546.8095
786.7992, 551.2325
787.2813, 559.6926
787.7634, 567.1489
788.2455, 569.9445
788.7277, 570.5799
789.2098, 571.0791
789.6919, 571.6254
790.1740, 571.2830
790.6561, 566.8643
791.1382, 564.4105
791.6204, 567.8968
792.1025, 578.2205
792.5846, 582.2646
793.0667, 578.8634
793.5488, 574.1351
794.0309, 573.1281
794.5131, 574.5540
794.9952, 574.5035
795.4773, 572.7100
795.9594, 571.9825
796.4415, 575.5785
796.9236, 580.3030
797.4058, 583.3293
797.8879, 583.8588
798.3700, 584.3892
798.8521, 585.4929
799.3342, 586.4003
799.8163, 586.1188
800.2985, 584.1857
800.7806, 584.9788
801.2627, 588.9454
801.7448, 593.9471
802.2269, 598.4879
802.7090, 602.2805
803.1912, 604.8814
803.6733, 606.2708
804.1554, 605.9758
804.6375, 601.4438
805.1196, 596.3953
805.6017, 594.2747
806.0839, 597.2160
806.5660, 600.2439
807.0481, 603.8558
807.5302, 606.9311
808.0123, 608.0385
808.4944, 607.1767
808.9766, 606.5533
809.4587, 606.3103
809.9408, 606.8028
810.4229, 607.6077
810.9050, 609.6561
811.3871, 615.4180
811.8693, 628.3099
812.3514, 637.1346
812.8335, 635.1664
813.3156, 627.7264
813.7977, 620.1813
814.2798, 609.1052
814.7620, 606.4818
815.2441, 614.6911
815.7262, 628.1285
816.2083, 642.3864
816.6904, 656.3676
817.1725, 662.5640
817.6547, 658.6083
818.1368, 649.8206
818.6189, 634.7849
819.1010, 620.3956
819.5831, 616.3607
820.0652, 632.8498
820.5474, 647.9713
821.0295, 658.5557
821.5116, 664.8154
821.9937, 666.1490
822.4758, 661.4176
822.9579, 656.5244
823.4401, 651.8780
823.9222, 648.0569
824.4043, 645.3555
824.8864, 644.2110
825.3685, 645.9900
825.8506, 651.5934
826.3328, 658.7982
826.8149, 670.3869
827.2970, 681.0363
827.7791, 683.7845
828.2612, 668.5076
828.7433, 657.1232
829.2255, 648.9832
829.7076, 646.2085
830.1897, 654.9078
830.6718, 674.9778
831.1539, 687.9538
831.6360, 689.7612
832.1182, 685.6050
832.6003, 678.5853
833.0824, 670.7983
833.5645, 665.6439
834.0466, 664.3907
834.5287, 665.5566
835.0109, 670.4203
835.4930, 676.6814
835.9751, 680.8552
836.4572, 680.7499
836.9393, 685.4048
837.4214, 697.6602
837.9036, 710.8251
838.3857, 713.9343
838.8678, 709.4221
839.3499, 706.6698
839.8320, 707.8650
840.3141, 711.3694
840.7963, 718.8541
841.2784, 726.6961
841.7605, 730.2607
842.2426, 724.6915
842.7247, 720.0682
843.2068, 716.7673
843.6890, 714.9004
844.1711, 714.8989
844.6532, 716.8443
845.1353, 718.7986
845.6174, 720.3365
846.0995, 722.4955
846.5817, 728.4336
847.0638, 735.3817
847.5460, 737.9384
848.0281, 732.9262
848.5102, 728.3589
848.9923, 726.8942
849.4744, 727.8529
849.9565, 730.9046
850.4387, 738.6448
850.9208, 740.9152
851.4029, 735.2560
851.8850, 728.7789
852.3671, 732.2836
852.8492, 742.3729
853.3314, 744.7772
853.8135, 735.7239
854.2956, 727.4221
854.7777, 731.5041
855.2598, 740.1901
855.7419, 745.7164
856.2241, 746.2814
856.7062, 743.9312
857.1883, 736.2936
857.6704, 728.8708
858.1525, 725.7614
858.6346, 726.9770
859.1168, 734.4693
859.5989, 749.1995
860.0810, 762.9536
860.5631, 764.4777
861.0452, 761.3134
861.5273, 765.4558
862.0095, 780.6356
862.4916, 790.6030
862.9737, 783.6189
863.4558, 773.4779
863.9379, 770.1584
864.4200, 775.9916
864.9022, 775.5807
865.3843, 766.9353
865.8664, 759.5189
866.3485, 762.5301
866.8306, 772.6119
867.3127, 781.3642
867.7949, 788.3339
868.2770, 795.9949
868.7591, 810.9069
869.2412, 823.3772
869.7233, 825.6568
870.2054, 815.2547
870.6876, 804.6533
871.1697, 790.7232
871.6518, 782.7104
872.1339, 788.8845
872.6160, 806.6084
873.0981, 816.7681
873.5803, 819.7765
874.0624, 822.1338
874.5445, 828.8416
875.0266, 836.6066
875.5087, 842.5721
875.9908, 846.7371
876.4730, 850.5248
876.9551, 853.5081
877.4372, 857.0186
877.9193, 861.4307
878.4014, 866.7078
878.8835, 874.7867
879.3657, 885.8557
879.8478, 891.0090
880.3299, 879.3973
880.8120, 863.1267
881.2941, 858.8994
881.7762, 864.6900
882.2584, 873.2769
882.7405, 884.6525
883.2226, 895.1800
883.7047, 902.4948
884.1868, 908.0958
884.6689, 917.8659
885.1511, 933.7090
885.6332, 943.9866
886.1153, 944.8113
886.5974, 938.5281
887.0795, 922.0438
887.5616, 901.5646
888.0438, 894.1481
888.5259, 919.4053
889.0080, 945.3570
889.4901, 958.7034
889.9722, 962.9218
890.4543, 964.3810
890.9365, 960.9855
891.4186, 960.8362
891.9007, 965.6153
892.3828, 972.9469
892.8649, 977.2720
893.3470, 980.7570
893.8292, 992.8666
894.3113, 1019.482
894.7934, 1044.126
895.2755, 1054.755
895.7576, 1056.851
896.2397, 1056.001
896.7219, 1044.804
897.2040, 1046.398
897.6861, 1065.407
898.1682, 1089.675
898.6503, 1107.544
899.1324, 1119.484
899.6146, 1126.180
900.0967, 1127.008
900.5788, 1130.903
901.0609, 1145.896
901.5430, 1167.218
902.0251, 1192.005
902.5073, 1221.159
902.9894, 1245.209
903.4715, 1258.151
903.9536, 1272.499
904.4357, 1296.805
904.9178, 1330.100
905.4000, 1360.061
905.8821, 1386.547
906.3642, 1410.484
906.8463, 1430.170
907.3284, 1449.529
907.8105, 1472.235
908.2927, 1498.279
908.7748, 1528.292
909.2569, 1565.164
909.7390, 1602.862
910.2211, 1639.438
910.7032, 1675.128
911.1854, 1713.014
911.6675, 1753.075
912.1496, 1790.027
912.6317, 1815.433
913.1138, 1842.347
913.5959, 1893.380
914.0781, 1958.849
914.5602, 2016.153
915.0423, 2048.841
915.5244, 2081.537
916.0065, 2120.052
916.4886, 2162.010
916.9708, 2202.397
917.4529, 2240.751
917.9350, 2283.370
918.4171, 2333.047
918.8992, 2383.230
919.3813, 2422.267
919.8635, 2456.124
920.3456, 2495.123
920.8277, 2544.415
921.3098, 2592.869
921.7919, 2636.900
922.2740, 2678.795
922.7562, 2720.950
923.2383, 2764.479
923.7204, 2801.976
924.2025, 2832.198
924.6846, 2861.485
925.1667, 2895.855
925.6489, 2933.222
926.1310, 2970.311
926.6131, 3006.568
927.0952, 3043.683
927.5773, 3095.550
928.0594, 3135.802
928.5416, 3147.477
929.0237, 3130.781
929.5058, 3125.686
929.9879, 3132.798
930.4700, 3146.926
930.9521, 3175.608
931.4343, 3203.688
931.9164, 3202.654
932.3985, 3177.286
932.8806, 3145.958
933.3627, 3114.066
933.8448, 3080.920
934.3270, 3047.511
934.8091, 3012.636
935.2912, 2973.151
935.7733, 2928.497
936.2554, 2879.701
936.7375, 2823.983
937.2197, 2769.683
937.7018, 2733.411
938.1839, 2706.201
938.6660, 2669.439
939.1481, 2608.718
939.6302, 2552.409
940.1124, 2510.096
940.5945, 2475.738
941.0766, 2444.487
941.5587, 2417.365
942.0408, 2384.718
942.5229, 2344.885
943.0051, 2307.426
943.4872, 2282.908
943.9693, 2266.291
944.4514, 2248.121
944.9335, 2226.967
945.4156, 2213.271
945.8978, 2211.807
946.3799, 2219.507
946.8620, 2237.925
947.3441, 2266.304
947.8262, 2279.168
948.3083, 2274.832
948.7905, 2274.492
949.2726, 2288.756
949.7547, 2315.215
950.2368, 2351.688
950.7189, 2397.675
951.2010, 2451.533
951.6832, 2522.987
952.1653, 2589.466
952.6474, 2639.620
953.1295, 2684.251
953.6116, 2747.678
954.0938, 2830.871
954.5759, 2909.721
955.0580, 2974.672
955.5401, 3045.721
956.0222, 3149.247
956.5043, 3273.396
956.9865, 3401.110
957.4686, 3521.132
957.9507, 3654.817
958.4328, 3806.270
958.9149, 3970.871
959.3970, 4143.227
959.8792, 4323.836
960.3613, 4530.062
960.8434, 4764.628
961.3255, 5009.253
961.8076, 5255.146
962.2897, 5502.691
962.7719, 5752.087
963.2540, 6004.020
963.7361, 6272.089
964.2182, 6557.393
964.7003, 6860.502
965.1824, 7182.404
965.6646, 7516.549
966.1467, 7828.908
966.6288, 8119.736
967.1109, 8413.056
967.5930, 8732.810
968.0751, 9041.344
968.5573, 9308.478
969.0394, 9542.716
969.5215, 9762.670
970.0036, 9987.037
970.4857, 10166.99
970.9678, 10297.52
971.4500, 10383.25
971.9321, 10431.27
972.4142, 10438.32
972.8963, 10388.01
973.3784, 10277.26
973.8605, 10126.39
974.3427, 9954.514
974.8248, 9745.599
975.3069, 9481.914
975.7890, 9158.333
976.2711, 8821.117
976.7532, 8466.519
977.2354, 8111.444
977.7175, 7764.044
978.1996, 7419.703
978.6817, 7064.063
979.1638, 6697.882
979.6459, 6324.199
980.1281, 5913.520
980.6102, 5529.400
981.0923, 5208.751
981.5744, 4932.011
982.0565, 4654.683
982.5386, 4370.757
983.0208, 4129.262
983.5029, 3944.184
983.9850, 3784.979
984.4671, 3608.313
984.9492, 3429.495
985.4313, 3273.221
985.9135, 3146.244
986.3956, 3035.366
986.8777, 2948.181
987.3598, 2865.947
987.8419, 2775.187
988.3240, 2675.803
988.8062, 2597.148
989.2883, 2539.443
989.7704, 2481.415
990.2525, 2396.976
990.7346, 2313.754
991.2167, 2264.624
991.6989, 2243.196
992.1810, 2220.744
992.6631, 2194.319
993.1452, 2160.927
993.6273, 2116.736
994.1094, 2069.273
994.5916, 2034.735
995.0737, 2011.354
995.5558, 1988.839
996.0379, 1964.960
996.5200, 1940.979
997.0021, 1918.078
997.4843, 1895.368
997.9664, 1871.622
998.4485, 1845.220
998.9306, 1823.632
999.4127, 1807.857
999.8948, 1794.353
1000.377, 1781.220
1000.859, 1768.257
1001.341, 1754.764
1001.823, 1740.743
1002.305, 1726.073
1002.788, 1708.855
1003.270, 1692.817
1003.752, 1679.521
1004.234, 1668.439
1004.716, 1657.496
1005.198, 1646.482
1005.680, 1639.999
1006.162, 1641.591
1006.644, 1642.069
1007.127, 1625.754
1007.609, 1602.639
1008.091, 1588.203
1008.573, 1590.907
1009.055, 1589.802
1009.537, 1580.293
1010.019, 1569.347
1010.501, 1561.938
1010.984, 1557.734
1011.466, 1551.888
1011.948, 1544.700
1012.430, 1541.141
1012.912, 1550.082
1013.394, 1558.758
1013.876, 1557.791
1014.358, 1548.432
1014.841, 1538.379
1015.323, 1526.458
1015.805, 1517.776
1016.287, 1514.010
1016.769, 1512.800
1017.251, 1511.519
1017.733, 1509.605
1018.215, 1505.505
1018.697, 1498.092
1019.180, 1490.891
1019.662, 1480.016
1020.144, 1474.704
1020.626, 1484.888
1021.108, 1512.385
1021.590, 1519.258
1022.072, 1504.625
1022.554, 1490.462
1023.036, 1497.028
1023.519, 1507.733
1024.001, 1500.344
1024.483, 1480.925
1024.965, 1474.121
1025.447, 1498.212
1025.929, 1513.750
1026.411, 1512.051
1026.893, 1502.557
1027.375, 1502.266
1027.858, 1508.567
1028.340, 1511.736
1028.822, 1509.885
1029.304, 1504.565
1029.786, 1492.957
1030.268, 1481.126
1030.750, 1474.116
1031.232, 1472.260
1031.715, 1469.777
1032.197, 1465.883
1032.679, 1466.735
1033.161, 1481.835
1033.643, 1499.881
1034.125, 1503.419
1034.607, 1495.679
1035.089, 1485.905
1035.572, 1471.976
1036.054, 1463.466
1036.536, 1462.591
1037.018, 1466.534
1037.500, 1471.423
1037.982, 1477.506
1038.464, 1487.876
1038.946, 1503.630
1039.428, 1516.021
1039.911, 1515.231
1040.393, 1510.831
1040.875, 1508.671
1041.357, 1509.242
1041.839, 1518.801
1042.321, 1540.338
1042.803, 1558.714
1043.285, 1565.604
1043.767, 1567.094
1044.250, 1571.756
1044.732, 1579.624
1045.214, 1590.926
1045.696, 1607.039
1046.178, 1624.767
1046.660, 1644.846
1047.142, 1665.138
1047.624, 1684.612
1048.107, 1703.038
1048.589, 1715.167
1049.071, 1720.633
1049.553, 1731.382
1050.035, 1765.509
1050.517, 1800.590
1050.999, 1818.393
1051.481, 1819.679
1051.964, 1822.775
1052.446, 1827.851
1052.928, 1834.611
1053.410, 1842.747
1053.892, 1852.995
1054.374, 1873.680
1054.856, 1895.351
1055.338, 1899.214
1055.820, 1876.869
1056.302, 1846.549
1056.785, 1805.465
1057.267, 1765.780
1057.749, 1736.374
1058.231, 1716.509
1058.713, 1688.697
1059.195, 1654.007
1059.677, 1626.365
1060.159, 1621.814
1060.642, 1620.053
1061.124, 1603.163
1061.606, 1578.764
1062.088, 1568.351
1062.570, 1577.376
1063.052, 1583.111
1063.534, 1582.429
1064.016, 1578.474
1064.499, 1575.740
1064.981, 1571.930
1065.463, 1561.572
1065.945, 1543.229
1066.427, 1529.821
1066.909, 1530.740
1067.391, 1529.639
1067.873, 1518.124
1068.355, 1501.195
1068.838, 1499.781
1069.320, 1511.186
1069.802, 1520.762
1070.284, 1523.928
1070.766, 1521.784
1071.248, 1509.146
1071.730, 1494.875
1072.212, 1490.062
1072.694, 1498.412
1073.177, 1502.478
1073.659, 1502.058
1074.141, 1498.648
1074.623, 1489.098
1075.105, 1480.120
1075.587, 1483.113
1076.069, 1495.409
1076.551, 1501.476
1077.034, 1493.022
1077.516, 1486.184
1077.998, 1484.219
1078.480, 1484.070
1078.962, 1479.536
1079.444, 1472.514
1079.926, 1468.649
1080.408, 1468.913
1080.891, 1473.099
1081.373, 1493.998
1081.855, 1505.726
1082.337, 1487.087
1082.819, 1442.898
1083.301, 1432.085
1083.783, 1454.241
1084.265, 1472.937
1084.747, 1468.628
1085.229, 1458.337
1085.712, 1456.621
1086.194, 1459.773
1086.676, 1461.939
1087.158, 1461.818
1087.640, 1462.062
1088.122, 1462.693
1088.604, 1463.712
1089.086, 1465.388
1089.569, 1467.331
1090.051, 1470.012
1090.533, 1472.768
1091.015, 1471.723
1091.497, 1462.022
1091.979, 1452.368
1092.461, 1443.546
1092.943, 1437.077
1093.426, 1437.908
1093.908, 1444.199
1094.390, 1446.956
1094.872, 1444.519
1095.354, 1437.956
1095.836, 1420.032
1096.318, 1405.152
1096.800, 1405.903
1097.282, 1420.809
1097.765, 1427.292
1098.247, 1424.982
1098.729, 1420.866
1099.211, 1419.280
1099.693, 1415.372
1100.175, 1399.712
1100.657, 1379.672
1101.139, 1367.629
1101.622, 1374.505
1102.104, 1369.592
1102.586, 1349.732
1103.068, 1327.764
1103.550, 1314.003
1104.032, 1305.706
1104.514, 1296.847
1104.996, 1287.877
1105.479, 1281.923
1105.961, 1282.573
1106.443, 1283.483
1106.925, 1284.443
1107.407, 1283.628
1107.889, 1277.456
1108.371, 1266.709
1108.853, 1254.201
1109.335, 1239.731
1109.818, 1230.349
1110.300, 1233.079
1110.782, 1239.926
1111.264, 1249.195
1111.746, 1258.750
1112.228, 1254.738
1112.710, 1236.820
1113.192, 1216.392
1113.674, 1195.700
1114.157, 1178.298
1114.639, 1166.334
1115.121, 1160.808
1115.603, 1164.761
1116.085, 1183.233
1116.567, 1192.031
1117.049, 1189.292
1117.531, 1184.311
1118.014, 1182.733
1118.496, 1182.881
1118.978, 1182.563
1119.460, 1181.655
1119.942, 1179.825
1120.424, 1175.620
1120.906, 1172.378
1121.388, 1170.188
1121.870, 1169.325
1122.353, 1172.086
1122.835, 1176.197
1123.317, 1173.514
1123.799, 1164.041
1124.281, 1155.021
1124.763, 1147.431
1125.245, 1144.830
1125.727, 1151.814
1126.209, 1161.955
1126.692, 1158.172
1127.174, 1142.427
1127.656, 1133.293
1128.138, 1135.364
1128.620, 1140.223
1129.102, 1146.678
1129.584, 1149.578
1130.066, 1141.096
1130.549, 1122.971
1131.031, 1122.951
1131.513, 1143.063
1131.995, 1148.623
1132.477, 1117.827
1132.959, 1081.122
1133.441, 1070.257
1133.923, 1073.325
1134.406, 1073.966
1134.888, 1068.044
1135.370, 1066.954
1135.852, 1072.601
1136.334, 1075.499
1136.816, 1067.269
1137.298, 1053.355
1137.780, 1041.031
1138.262, 1030.441
1138.745, 1022.180
1139.227, 1019.918
1139.709, 1014.471
1140.191, 1004.431
1140.673, 992.5551
1141.155, 982.1126
1141.637, 972.2700
1142.119, 959.8480
1142.601, 945.1195
1143.084, 934.6271
1143.566, 934.8593
1144.048, 934.9107
1144.530, 932.2029
1145.012, 927.0433
1145.494, 917.9454
1145.976, 906.5007
1146.458, 901.3724
1146.941, 905.1517
1147.423, 906.2446
1147.905, 890.0215
1148.387, 877.5007
1148.869, 884.6480
1149.351, 905.4919
1149.833, 904.8319
1150.315, 884.1885
1150.797, 865.3663
1151.280, 854.1072
1151.762, 849.7985
1152.244, 858.1789
1152.726, 869.0124
1153.208, 871.7666
1153.690, 865.4696
1154.172, 860.0986
1154.654, 855.6533
1155.136, 851.6019
1155.619, 847.2646
1156.101, 843.5874
1156.583, 842.3476
1157.065, 842.2067
1157.547, 840.2440
1158.029, 833.7484
1158.511, 834.0433
1158.993, 842.7050
1159.476, 851.1196
1159.958, 849.9423
1160.440, 845.9207
1160.922, 849.5336
1161.404, 858.2418
1161.886, 860.5056
1162.368, 848.1930
1162.850, 844.5797
1163.333, 854.9598
1163.815, 867.6233
1164.297, 868.6445
1164.779, 862.7101
1165.261, 855.6234
1165.743, 848.3377
1166.225, 847.0091
1166.707, 857.7672
1167.189, 866.5608
1167.672, 869.0419
1168.154, 869.6465
1168.636, 879.4252
1169.118, 892.8120
1169.600, 895.2914
1170.082, 882.2054
1170.564, 874.3918
1171.046, 884.4185
1171.528, 893.4200
1172.011, 892.4137
1172.493, 886.7223
1172.975, 896.0865
1173.457, 914.3995
1173.939, 920.7079
1174.421, 903.4921
1174.903, 886.9894
1175.385, 879.3934
1175.868, 877.2983
1176.350, 880.8262
1176.832, 888.5475
1177.314, 891.1091
1177.796, 889.1280
1178.278, 885.6796
1178.760, 879.4516
1179.242, 875.8680
1179.724, 881.8145
1180.207, 887.9908
1180.689, 884.5494
1181.171, 871.6708
1181.653, 865.1699
1182.135, 864.7787
1182.617, 865.4175
1183.099, 867.1481
1183.581, 865.5568
1184.063, 855.1129
1184.546, 841.4541
1185.028, 832.5324
1185.510, 828.3742
1185.992, 826.5939
1186.474, 827.0499
1186.956, 827.1473
1187.438, 826.3268
1187.920, 823.2064
1188.403, 814.6918
1188.885, 803.5743
1189.367, 797.9570
1189.849, 798.4946
1190.331, 792.3008
1190.813, 776.6998
1191.295, 762.2337
1191.777, 760.7638
1192.260, 761.8035
1192.742, 756.2614
1193.224, 745.2298
1193.706, 736.0674
1194.188, 728.2709
1194.670, 729.4763
1195.152, 744.2972
1195.634, 756.3369
1196.116, 743.0668
1196.599, 723.7783
1197.081, 719.6102
1197.563, 731.2376
1198.045, 731.5054
1198.527, 719.2841
1199.009, 705.8315
1199.491, 693.7512
1199.973, 685.6860
1200.455, 688.0698
1200.938, 694.0831
1201.420, 695.0580
1201.902, 689.4626
1202.384, 686.2174
1202.866, 685.4086
1203.348, 686.6586
1203.830, 692.4072
1204.312, 696.2598
1204.795, 686.6101
1205.277, 672.2213
1205.759, 667.3572
1206.241, 677.9592
1206.723, 677.8105
1207.205, 664.7986
1207.687, 655.3046
1208.169, 664.3884
1208.651, 677.9813
1209.134, 680.4427
1209.616, 675.7257
1210.098, 671.4261
1210.580, 669.3161
1211.062, 663.3613
1211.544, 651.9243
1212.026, 645.5392
1212.508, 660.3483
1212.990, 678.1337
1213.473, 675.1102
1213.955, 658.8657
1214.437, 651.8931
1214.919, 659.3298
1215.401, 664.4767
1215.883, 666.2357
1216.365, 664.9116
1216.847, 660.0355
1217.330, 652.7947
1217.812, 640.7604
1218.294, 627.0787
1218.776, 625.8395
1219.258, 643.1130
1219.740, 651.2620
1220.222, 645.2187
1220.704, 637.7593
1221.187, 645.3716
1221.669, 655.8314
1222.151, 654.3051
1222.633, 642.0692
1223.115, 635.4686
1223.597, 636.5715
1224.079, 636.8822
1224.561, 634.3683
1225.043, 632.9130
1225.526, 640.5361
1226.008, 648.7975
1226.490, 647.1913
1226.972, 635.4165
1227.454, 628.0767
1227.936, 625.7145
1228.418, 625.4077
1228.900, 626.7767
1229.382, 628.6607
1229.865, 631.7760
1230.347, 633.3676
1230.829, 628.5021
1231.311, 617.0457
1231.793, 613.6652
1232.275, 619.5652
1232.757, 623.7698
1233.239, 621.9927
1233.722, 619.9575
1234.204, 628.0665
1234.686, 636.3551
1235.168, 630.4374
1235.650, 609.4760
1236.132, 605.9497
1236.614, 621.3703
1237.096, 634.6267
1237.578, 637.1917
1238.061, 635.8712
1238.543, 636.8817
1239.025, 637.7447
1239.507, 635.3212
1239.989, 629.5425
1240.471, 624.1933
1240.953, 619.3176
1241.435, 614.6214
1241.917, 609.7759
1242.400, 605.6365
1242.882, 601.7773
1243.364, 599.9674
1243.846, 602.3342
1244.328, 608.9914
1244.810, 617.0528
1245.292, 626.3790
1245.774, 629.8510
1246.257, 619.3196
1246.739, 609.0695
1247.221, 610.4062
1247.703, 615.5018
1248.185, 615.3318
1248.667, 609.6514
1249.149, 609.5781
1249.631, 614.4517
1250.114, 617.7455
1250.596, 615.9131
1251.078, 611.5319
1251.560, 604.4817
1252.042, 596.4198
1252.524, 586.7274
1253.006, 576.0831
1253.488, 581.8687
1253.970, 601.2485
1254.453, 612.8764
1254.935, 595.6723
1255.417, 580.8150
1255.899, 581.6483
1256.381, 587.9586
1256.863, 592.4875
1257.345, 594.6693
1257.827, 587.4216
1258.310, 573.0342
1258.792, 565.3206
1259.274, 578.3102
1259.756, 589.0372
1260.238, 591.5558
1260.720, 590.6326
1261.202, 592.0625
1261.684, 593.8754
1262.167, 587.5657
1262.649, 574.7569
1263.131, 564.8113
1263.613, 562.2525
1264.095, 562.4758
1264.577, 565.0508
1265.059, 569.4116
1265.541, 576.7504
1266.023, 584.6340
1266.505, 588.1512
1266.988, 587.3322
1267.470, 583.5822
1267.952, 573.9395
1268.434, 567.3532
1268.916, 565.1478
1269.398, 564.6718
1269.880, 563.5432
1270.362, 562.1337
1270.845, 559.9698
1271.327, 557.7800
1271.809, 559.4365
1272.291, 566.3613
1272.773, 573.9627
1273.255, 582.3226
1273.737, 587.8655
1274.219, 583.9862
1274.702, 577.7124
1275.184, 576.7049
1275.666, 579.9697
1276.148, 581.7188
1276.630, 581.9063
1277.112, 579.9803
1277.594, 575.8479
1278.076, 569.8247
1278.558, 557.9634
1279.041, 548.1981
1279.523, 548.8588
1280.005, 556.4750
1280.487, 562.1391
1280.969, 565.8024
1281.451, 567.4775
1281.933, 567.0656
1282.415, 567.0031
1282.897, 569.1773
1283.380, 572.1119
1283.862, 576.5193
1284.344, 580.1711
1284.826, 576.9962
1285.308, 568.4229
1285.790, 565.2574
1286.272, 568.5720
1286.754, 570.6913
1287.237, 566.2267
1287.719, 561.1748
1288.201, 557.1970
1288.683, 554.2560
1289.165, 551.9660
1289.647, 550.8125
1290.129, 553.7687
1290.611, 560.7233
1291.094, 563.5522
1291.576, 555.5318
1292.058, 548.6793
1292.540, 545.0007
1293.022, 544.0831
1293.504, 548.4560
1293.986, 553.6592
1294.468, 549.9385
1294.950, 537.7154
1295.432, 534.5603
1295.915, 547.5541
1296.397, 551.3282
1296.879, 539.0496
1297.361, 525.7160
1297.843, 530.2819
1298.325, 541.2294
1298.807, 547.0173
1299.289, 547.1982
1299.772, 546.7297
1300.254, 545.4502
1300.736, 545.8460
1301.218, 548.8148
1301.700, 549.2421
1302.182, 536.7242
1302.664, 525.5378
1303.146, 529.0324
1303.629, 541.2391
1304.111, 550.9086
1304.593, 557.7823
1305.075, 557.3590
1305.557, 548.9038
1306.039, 539.2407
1306.521, 527.0223
1307.003, 522.3254
1307.485, 532.5881
1307.968, 547.3027
1308.450, 544.3681
1308.932, 530.3323
1309.414, 526.3030
1309.896, 534.3638
1310.378, 541.4917
1310.860, 542.3315
1311.342, 542.6030
1311.824, 543.7795
1312.307, 543.7723
1312.789, 537.2792
1313.271, 528.9696
1313.753, 526.3569
1314.235, 529.7555
1314.717, 535.2657
1315.199, 543.5535
1315.681, 549.1771
1316.164, 550.6729
1316.646, 552.0399
1317.128, 559.8093
1317.610, 567.3546
##END=



