##NAMES=Tsumcorite
##RRUFFID=R060081
##IDEAL CHEMISTRY=Pb^2+^Zn^2+^_2_(As^5+^O_4_)_2_&#183;2H_2_O
##LOCALITY=Tsumeb mine, Tsumeb, Otavi District, Oshikoto, Namibia
##OWNER=RRUFF
##SOURCE=Marcus Origlieri
##DESCRIPTION=Aggregate of yellowish-orange bladed crystals with significant chemical oscillations, associated with green duftite
##STATUS=The identification of this mineral is confirmed by single-crystal X-ray diffraction and chemical analysis.
##URL=rruff.info/R060081
##MEASURED CHEMISTRY=Pb_1.00_Zn_1.00_(Fe_0.80_Zn_0.20_)_Σ=1_(As_1.00_O_4_)_2_(OH)·H_2_O ; trace amounts of Ca, Na, Cu, Al ; H_2_O estimated by difference
93.46680, 171.4108
93.94891, 169.6545
94.43103, 170.1041
94.91315, 171.6067
95.39526, 172.3950
95.87738, 171.9450
96.35950, 170.7030
96.84161, 169.5380
97.32373, 169.1227
97.80585, 168.8294
98.28796, 168.1342
98.77008, 166.9608
99.25220, 165.5623
99.73431, 164.2278
100.2164, 162.9334
100.6985, 161.3968
101.1807, 160.0471
101.6628, 158.8689
102.1449, 157.7697
102.6270, 156.6559
103.1091, 155.5397
103.5912, 154.6598
104.0734, 154.2280
104.5555, 153.7985
105.0376, 153.2301
105.5197, 152.5773
106.0018, 151.9834
106.4839, 151.5774
106.9661, 151.3858
107.4482, 151.1274
107.9303, 150.7312
108.4124, 150.2914
108.8945, 149.7790
109.3766, 149.2148
109.8588, 148.7778
110.3409, 148.7523
110.8230, 149.2044
111.3051, 149.5480
111.7872, 149.5972
112.2693, 149.5167
112.7515, 149.5421
113.2336, 149.7116
113.7157, 150.0479
114.1978, 150.5703
114.6799, 151.2649
115.1620, 152.0693
115.6442, 153.0389
116.1263, 154.1623
116.6084, 155.0778
117.0905, 155.4663
117.5726, 155.7657
118.0547, 156.2909
118.5369, 157.0958
119.0190, 157.9954
119.5011, 158.6857
119.9832, 158.9435
120.4653, 159.5359
120.9474, 160.8672
121.4296, 162.3772
121.9117, 163.5544
122.3938, 164.1739
122.8759, 164.4525
123.3580, 165.1087
123.8401, 166.5241
124.3223, 167.9565
124.8044, 169.3757
125.2865, 170.7668
125.7686, 172.0851
126.2507, 173.2985
126.7328, 174.4285
127.2150, 175.7905
127.6971, 177.6866
128.1792, 179.4739
128.6613, 180.7045
129.1434, 181.4841
129.6255, 182.4163
130.1077, 184.0484
130.5898, 186.3294
131.0719, 188.3999
131.5540, 189.9518
132.0361, 191.4363
132.5182, 193.4138
133.0004, 196.0138
133.4825, 198.6770
133.9646, 201.0445
134.4467, 203.1610
134.9288, 204.9615
135.4109, 206.2147
135.8931, 207.0939
136.3752, 208.2441
136.8573, 209.8419
137.3394, 211.5357
137.8215, 213.1627
138.3036, 214.7194
138.7858, 216.1979
139.2679, 217.7391
139.7500, 219.4339
140.2321, 220.4461
140.7142, 219.9062
141.1963, 219.3580
141.6785, 219.4992
142.1606, 220.3338
142.6427, 221.3844
143.1248, 222.0477
143.6069, 222.1232
144.0890, 222.2389
144.5712, 222.2525
145.0533, 222.3833
145.5354, 222.8827
146.0175, 223.7889
146.4996, 224.8257
146.9817, 225.4933
147.4639, 225.4721
147.9460, 225.5699
148.4281, 225.7266
148.9102, 226.0438
149.3923, 226.7260
149.8744, 227.9029
150.3566, 229.3109
150.8387, 230.3394
151.3208, 230.9641
151.8029, 231.4433
152.2850, 231.9338
152.7671, 232.3693
153.2493, 232.5178
153.7314, 232.2390
154.2135, 231.6212
154.6956, 230.9634
155.1777, 230.3636
155.6598, 229.5018
156.1420, 228.1030
156.6241, 226.1629
157.1062, 223.9102
157.5883, 221.2126
158.0704, 218.3474
158.5525, 215.5657
159.0347, 212.9533
159.5168, 210.3740
159.9989, 207.5768
160.4810, 204.4711
160.9631, 201.3852
161.4452, 198.3650
161.9274, 195.4292
162.4095, 192.5847
162.8916, 189.8486
163.3737, 187.2043
163.8558, 184.6303
164.3379, 182.1978
164.8201, 179.7366
165.3022, 176.9604
165.7843, 174.1939
166.2664, 171.9244
166.7485, 170.4634
167.2306, 169.6966
167.7128, 168.5894
168.1949, 166.6884
168.6770, 164.9302
169.1591, 163.5494
169.6412, 162.4688
170.1233, 161.4944
170.6055, 160.4980
171.0876, 159.4759
171.5697, 158.5532
172.0518, 157.7193
172.5339, 156.9684
173.0160, 156.3372
173.4982, 155.8050
173.9803, 155.2612
174.4624, 154.5741
174.9445, 153.7846
175.4266, 153.2877
175.9087, 153.3631
176.3909, 153.5393
176.8730, 153.4113
177.3551, 152.9487
177.8372, 152.4046
178.3193, 151.8691
178.8014, 151.4018
179.2836, 151.2200
179.7657, 151.5717
180.2478, 152.1671
180.7299, 152.6210
181.2120, 152.9474
181.6941, 153.0429
182.1763, 152.5847
182.6584, 151.8597
183.1405, 151.4168
183.6226, 151.6824
184.1047, 152.4264
184.5868, 152.8784
185.0690, 152.8818
185.5511, 152.8003
186.0332, 152.8196
186.5153, 152.8935
186.9974, 152.9276
187.4795, 152.8301
187.9617, 152.6163
188.4438, 152.5135
188.9259, 152.6227
189.4080, 152.7496
189.8901, 152.8604
190.3722, 152.9421
190.8544, 152.9755
191.3365, 152.9316
191.8186, 152.8010
192.3007, 152.7444
192.7828, 152.8743
193.2649, 152.9749
193.7471, 152.9348
194.2292, 152.7912
194.7113, 152.6653
195.1934, 152.6777
195.6755, 152.8622
196.1576, 152.9709
196.6398, 153.0340
197.1219, 153.0168
197.6040, 152.8225
198.0861, 152.4966
198.5682, 152.2274
199.0503, 152.2208
199.5325, 152.5460
200.0146, 152.7193
200.4967, 152.6396
200.9788, 152.4965
201.4609, 152.4316
201.9430, 152.4525
202.4252, 152.4466
202.9073, 152.2791
203.3894, 151.9257
203.8715, 151.6877
204.3536, 151.7481
204.8357, 151.8327
205.3179, 151.6546
205.8000, 151.1694
206.2821, 150.5906
206.7642, 150.0896
207.2463, 149.6609
207.7284, 149.2918
208.2106, 148.9898
208.6927, 148.7444
209.1748, 148.5452
209.6569, 148.3939
210.1390, 148.2794
210.6211, 148.2462
211.1033, 148.2516
211.5854, 148.1743
212.0675, 147.9344
212.5496, 147.5844
213.0317, 147.2505
213.5138, 146.9726
213.9960, 146.6343
214.4781, 146.1207
214.9602, 145.4983
215.4423, 144.9010
215.9244, 144.4227
216.4065, 144.0267
216.8886, 143.5549
217.3708, 142.8543
217.8529, 142.3231
218.3350, 142.2127
218.8171, 142.3704
219.2992, 142.5091
219.7813, 142.4426
220.2635, 142.2030
220.7456, 142.0075
221.2277, 141.8827
221.7098, 141.7765
222.1919, 141.7110
222.6740, 141.6488
223.1562, 141.5280
223.6383, 141.3044
224.1204, 140.9839
224.6025, 140.6283
225.0846, 139.9982
225.5667, 139.6009
226.0489, 139.6529
226.5310, 140.0158
227.0131, 140.4582
227.4952, 140.8422
227.9773, 141.1599
228.4594, 141.3000
228.9416, 141.0712
229.4237, 140.8540
229.9058, 140.6966
230.3879, 140.6147
230.8700, 140.6441
231.3521, 140.8270
231.8343, 141.1420
232.3164, 141.2371
232.7985, 140.8984
233.2806, 140.5881
233.7627, 140.3635
234.2448, 140.2578
234.7270, 140.3405
235.2091, 140.6812
235.6912, 141.2371
236.1733, 141.5902
236.6554, 141.7122
237.1375, 141.7135
237.6197, 141.5195
238.1018, 141.2252
238.5839, 141.0493
239.0660, 141.1438
239.5481, 141.4398
240.0302, 141.5451
240.5124, 141.4398
240.9945, 141.2143
241.4766, 140.7764
241.9587, 140.2282
242.4408, 139.8489
242.9229, 139.8230
243.4051, 140.0313
243.8872, 140.0652
244.3693, 139.8741
244.8514, 139.6160
245.3335, 139.3019
245.8156, 138.9637
246.2978, 138.6880
246.7799, 138.4887
247.2620, 138.4109
247.7441, 138.5603
248.2262, 139.0571
248.7083, 139.4858
249.1905, 139.6194
249.6726, 139.5080
250.1547, 139.3154
250.6368, 139.0415
251.1189, 138.7819
251.6010, 138.7381
252.0832, 138.9906
252.5653, 139.0804
253.0474, 138.5617
253.5295, 137.6009
254.0116, 136.9524
254.4937, 136.9457
254.9759, 137.2001
255.4580, 137.2133
255.9401, 136.9726
256.4222, 136.8330
256.9043, 137.1291
257.3864, 137.7593
257.8686, 138.1833
258.3507, 138.2072
258.8328, 138.1047
259.3149, 138.0392
259.7970, 138.0282
260.2791, 138.2262
260.7613, 138.8812
261.2434, 139.8888
261.7255, 140.6589
262.2076, 141.0420
262.6897, 141.2656
263.1718, 141.4428
263.6540, 141.5970
264.1361, 141.8065
264.6182, 142.0978
265.1003, 142.4772
265.5824, 143.0207
266.0645, 143.8870
266.5467, 144.6897
267.0288, 145.0911
267.5109, 145.2854
267.9930, 145.7021
268.4751, 146.6915
268.9572, 148.1136
269.4394, 149.3360
269.9215, 150.2678
270.4036, 151.1221
270.8857, 151.9877
271.3678, 152.8443
271.8499, 153.6286
272.3321, 154.2431
272.8142, 154.8136
273.2963, 155.8002
273.7784, 157.4536
274.2605, 159.1157
274.7426, 160.7215
275.2248, 162.1899
275.7069, 163.3571
276.1890, 164.1196
276.6711, 164.6619
277.1532, 165.4791
277.6353, 166.7993
278.1175, 167.9740
278.5996, 168.6544
279.0817, 169.2617
279.5638, 170.2390
280.0459, 171.7559
280.5280, 173.5465
281.0102, 175.1131
281.4923, 176.3396
281.9744, 177.5649
282.4565, 178.8942
282.9386, 180.1991
283.4207, 181.3512
283.9029, 182.3271
284.3850, 183.2334
284.8671, 184.2359
285.3492, 185.3880
285.8313, 186.5059
286.3134, 187.6526
286.7956, 188.7185
287.2777, 189.6948
287.7598, 190.5442
288.2419, 191.1690
288.7240, 191.4104
289.2061, 191.1362
289.6883, 190.9469
290.1704, 190.7680
290.6525, 190.7268
291.1346, 191.0163
291.6167, 191.5432
292.0988, 191.9911
292.5810, 192.0515
293.0631, 191.6877
293.5452, 191.3242
294.0273, 191.2638
294.5094, 190.9062
294.9915, 189.7597
295.4737, 188.1369
295.9558, 186.7515
296.4379, 186.1687
296.9200, 186.3152
297.4021, 186.0458
297.8842, 184.8481
298.3664, 183.7592
298.8485, 183.0860
299.3306, 182.6383
299.8127, 182.1265
300.2948, 181.3914
300.7769, 180.4694
301.2591, 179.5045
301.7412, 178.3196
302.2233, 177.3228
302.7054, 176.5313
303.1875, 175.9592
303.6696, 175.6934
304.1518, 175.7621
304.6339, 175.9732
305.1160, 175.8887
305.5981, 175.0744
306.0802, 174.6233
306.5623, 174.7522
307.0445, 175.1020
307.5266, 175.3817
308.0087, 175.5207
308.4908, 175.6471
308.9729, 175.9665
309.4550, 176.6482
309.9372, 177.0840
310.4193, 176.9295
310.9014, 176.8448
311.3835, 177.2516
311.8656, 178.1586
312.3477, 179.3092
312.8299, 180.4446
313.3120, 181.5591
313.7941, 182.7650
314.2762, 184.2588
314.7583, 185.6472
315.2404, 186.6037
315.7226, 187.3076
316.2047, 188.2192
316.6868, 189.6933
317.1689, 191.6916
317.6510, 193.6178
318.1331, 195.4886
318.6153, 197.2793
319.0974, 198.7773
319.5795, 200.2261
320.0616, 202.0925
320.5437, 204.6470
321.0258, 207.5539
321.5080, 209.7038
321.9901, 209.8130
322.4722, 210.7473
322.9543, 213.3673
323.4364, 216.5280
323.9185, 219.0400
324.4007, 220.5073
324.8828, 221.5264
325.3649, 223.1337
325.8470, 225.7847
326.3291, 228.1908
326.8112, 230.2175
327.2934, 232.1528
327.7755, 234.1306
328.2576, 236.2084
328.7397, 238.4765
329.2218, 241.0872
329.7039, 244.1712
330.1861, 246.9807
330.6682, 249.2980
331.1503, 251.5905
331.6324, 253.9788
332.1145, 256.5105
332.5966, 259.2341
333.0788, 262.2233
333.5609, 265.4496
334.0430, 268.4200
334.5251, 270.9258
335.0072, 273.4110
335.4893, 276.0187
335.9715, 278.6357
336.4536, 281.0567
336.9357, 283.1549
337.4178, 285.0757
337.8999, 287.2201
338.3820, 290.0085
338.8642, 292.3867
339.3463, 294.1248
339.8284, 295.5490
340.3105, 296.9681
340.7926, 298.4647
341.2747, 299.8477
341.7568, 300.8138
342.2390, 301.2239
342.7211, 301.5373
343.2032, 301.6004
343.6853, 301.7042
344.1674, 302.0577
344.6495, 302.6311
345.1317, 303.2347
345.6138, 303.7218
346.0959, 304.1010
346.5780, 304.2292
347.0601, 303.7795
347.5422, 303.3851
348.0244, 303.1545
348.5065, 303.1080
348.9886, 303.2995
349.4707, 303.8081
349.9528, 304.4964
350.4349, 304.7691
350.9171, 304.2546
351.3992, 303.8952
351.8813, 304.1133
352.3634, 304.4410
352.8455, 304.3859
353.3276, 303.7790
353.8098, 302.8664
354.2919, 301.9936
354.7740, 301.0678
355.2561, 300.4775
355.7382, 301.0294
356.2203, 301.3368
356.7025, 300.3523
357.1846, 298.1343
357.6667, 295.7121
358.1488, 294.2056
358.6309, 293.6784
359.1130, 292.5504
359.5952, 290.3797
360.0773, 288.0566
360.5594, 285.8665
361.0415, 283.8188
361.5236, 281.9426
362.0057, 280.3790
362.4879, 278.9133
362.9700, 276.8061
363.4521, 273.8126
363.9342, 270.7252
364.4163, 267.7293
364.8984, 264.8266
365.3806, 262.0452
365.8627, 259.3934
366.3448, 256.7804
366.8269, 254.1505
367.3090, 251.5185
367.7911, 248.6067
368.2733, 244.9705
368.7554, 241.3432
369.2375, 238.3259
369.7196, 235.9008
370.2017, 233.5623
370.6838, 230.9754
371.1660, 228.1761
371.6481, 225.3327
372.1302, 222.3949
372.6123, 219.5358
373.0944, 216.9152
373.5765, 214.4569
374.0587, 211.9564
374.5408, 209.2642
375.0229, 206.5527
375.5050, 204.1160
375.9871, 201.9942
376.4692, 199.8768
376.9514, 197.5482
377.4335, 195.1868
377.9156, 193.0734
378.3977, 191.3197
378.8798, 189.5709
379.3619, 187.5078
379.8441, 185.2109
380.3262, 182.9971
380.8083, 180.8632
381.2904, 178.9820
381.7725, 177.6242
382.2546, 176.7652
382.7368, 176.0056
383.2189, 175.4699
383.7010, 174.8526
384.1831, 173.5284
384.6652, 171.3825
385.1473, 169.4114
385.6295, 168.5119
386.1116, 168.5324
386.5937, 168.1714
387.0758, 167.0953
387.5579, 165.9030
388.0400, 164.9010
388.5222, 164.0770
389.0043, 163.3752
389.4864, 162.7978
389.9685, 162.2875
390.4506, 161.6901
390.9327, 160.9317
391.4149, 160.2580
391.8970, 159.8212
392.3791, 159.4501
392.8612, 158.8434
393.3433, 157.9549
393.8254, 157.1770
394.3076, 157.0237
394.7897, 157.6846
395.2718, 157.9302
395.7539, 157.4581
396.2360, 156.8857
396.7181, 156.5824
397.2003, 156.4766
397.6824, 156.2826
398.1645, 155.8061
398.6466, 155.1165
399.1287, 154.5501
399.6108, 154.1592
400.0930, 153.8398
400.5751, 153.6337
401.0572, 153.4698
401.5393, 153.3788
402.0214, 153.3351
402.5035, 153.0749
402.9857, 152.1176
403.4678, 150.0120
403.9499, 148.5303
404.4320, 148.2319
404.9141, 147.9532
405.3962, 147.0343
405.8784, 145.6109
406.3605, 144.2221
406.8426, 143.2793
407.3247, 142.7211
407.8068, 142.1471
408.2889, 141.4843
408.7711, 140.9224
409.2532, 140.5721
409.7353, 140.3015
410.2174, 139.9648
410.6995, 139.5117
411.1816, 139.0108
411.6638, 138.5585
412.1459, 138.1664
412.6280, 137.7653
413.1101, 137.2497
413.5922, 136.8125
414.0743, 136.5634
414.5565, 136.4944
415.0386, 136.5395
415.5207, 136.7392
416.0028, 137.0219
416.4849, 137.0989
416.9670, 136.8844
417.4492, 136.6792
417.9313, 136.5759
418.4134, 136.5953
418.8955, 136.8175
419.3776, 137.3414
419.8597, 137.8863
420.3419, 138.0969
420.8240, 138.0254
421.3061, 138.2097
421.7882, 138.9844
422.2703, 139.8183
422.7524, 139.9662
423.2346, 139.4535
423.7167, 139.1095
424.1988, 139.2675
424.6809, 139.7473
425.1630, 140.4062
425.6451, 141.2305
426.1273, 141.9397
426.6094, 142.2947
427.0915, 142.3456
427.5736, 142.4591
428.0557, 142.6394
428.5378, 142.8745
429.0200, 143.1207
429.5021, 143.4216
429.9842, 143.8696
430.4663, 144.5018
430.9484, 145.2795
431.4305, 146.1816
431.9127, 147.4268
432.3948, 148.2044
432.8769, 148.1971
433.3590, 147.9552
433.8411, 147.7707
434.3232, 147.7077
434.8054, 147.8038
435.2875, 148.1093
435.7696, 148.5954
436.2517, 148.9675
436.7338, 149.0834
437.2159, 149.2486
437.6981, 149.5662
438.1802, 149.9286
438.6623, 150.1966
439.1444, 150.3298
439.6265, 150.4293
440.1086, 150.6634
440.5908, 151.0979
441.0729, 151.4510
441.5550, 151.7166
442.0371, 151.9082
442.5192, 152.0228
443.0013, 152.0666
443.4835, 152.0365
443.9656, 151.8960
444.4477, 151.7132
444.9298, 151.7218
445.4119, 151.9899
445.8940, 152.2793
446.3762, 152.5659
446.8583, 152.8102
447.3404, 153.0246
447.8225, 153.2169
448.3046, 153.1868
448.7867, 152.4929
449.2689, 151.3300
449.7510, 150.8384
450.2331, 151.4058
450.7152, 152.1803
451.1973, 152.4097
451.6794, 152.2975
452.1616, 152.3793
452.6437, 153.0588
453.1258, 153.7793
453.6079, 153.9313
454.0900, 153.5963
454.5721, 153.2752
455.0543, 153.1198
455.5364, 153.1757
456.0185, 153.6432
456.5006, 154.6700
456.9827, 155.4461
457.4648, 155.5943
457.9470, 155.5106
458.4291, 155.5321
458.9112, 155.7309
459.3933, 156.1925
459.8754, 157.0383
460.3575, 158.2551
460.8397, 159.2736
461.3218, 159.9320
461.8039, 160.6202
462.2860, 161.4642
462.7681, 162.3919
463.2502, 163.2959
463.7324, 164.1392
464.2145, 164.9557
464.6966, 165.7667
465.1787, 166.4544
465.6608, 167.4902
466.1429, 168.9546
466.6251, 170.6596
467.1072, 172.6728
467.5893, 174.8642
468.0714, 176.9432
468.5535, 178.6767
469.0356, 180.2795
469.5178, 182.4456
469.9999, 185.4285
470.4820, 188.3196
470.9641, 190.7861
471.4462, 193.1533
471.9283, 195.5358
472.4105, 197.9785
472.8926, 200.7526
473.3747, 204.2975
473.8568, 208.3792
474.3389, 211.9841
474.8210, 214.8628
475.3032, 217.8243
475.7853, 221.4292
476.2674, 225.5056
476.7495, 229.7440
477.2316, 234.2049
477.7137, 238.6247
478.1959, 242.8063
478.6780, 246.7808
479.1601, 250.7315
479.6422, 254.6803
480.1243, 258.6069
480.6064, 262.3942
481.0886, 265.9939
481.5707, 269.9130
482.0528, 274.4607
482.5349, 279.0782
483.0170, 283.3753
483.4991, 287.4048
483.9813, 291.3863
484.4634, 295.4581
484.9455, 299.5857
485.4276, 303.6908
485.9097, 307.7729
486.3918, 311.8223
486.8740, 315.9557
487.3561, 319.9905
487.8382, 323.9445
488.3203, 327.7242
488.8024, 331.0249
489.2845, 333.6235
489.7667, 335.5382
490.2488, 336.9578
490.7309, 337.8197
491.2130, 338.2545
491.6951, 338.4995
492.1772, 338.3115
492.6594, 337.4699
493.1415, 335.9229
493.6236, 333.6557
494.1057, 330.7284
494.5878, 327.1012
495.0699, 322.4637
495.5521, 316.5609
496.0342, 310.0775
496.5163, 303.5374
496.9984, 296.8180
497.4805, 289.6175
497.9626, 281.5477
498.4448, 273.3173
498.9269, 265.5732
499.4090, 258.2022
499.8911, 250.7175
500.3732, 242.9004
500.8553, 235.1395
501.3375, 227.9454
501.8196, 221.3798
502.3017, 215.0882
502.7838, 209.1060
503.2659, 203.3483
503.7480, 197.6784
504.2302, 192.1657
504.7123, 186.9446
505.1944, 182.0894
505.6765, 177.5814
506.1586, 173.3419
506.6407, 169.3410
507.1228, 165.6723
507.6049, 162.5197
508.0871, 159.5065
508.5692, 156.2267
509.0513, 152.7874
509.5334, 149.7244
510.0155, 147.5473
510.4977, 146.0442
510.9798, 144.2347
511.4619, 141.9630
511.9440, 139.7258
512.4261, 137.6514
512.9083, 135.6978
513.3904, 133.8187
513.8725, 132.0034
514.3546, 130.3400
514.8367, 128.9158
515.3188, 127.6874
515.8010, 126.5051
516.2831, 125.3420
516.7652, 124.2989
517.2473, 123.5754
517.7294, 123.0080
518.2115, 122.0646
518.6937, 120.4163
519.1758, 118.8569
519.6579, 117.8269
520.1400, 117.0919
520.6221, 116.2941
521.1042, 115.3419
521.5864, 114.2964
522.0685, 113.1847
522.5506, 111.9712
523.0327, 111.0720
523.5148, 110.8371
523.9969, 110.4581
524.4791, 109.6309
524.9612, 108.5238
525.4433, 107.2903
525.9254, 106.0150
526.4075, 104.8882
526.8896, 104.3519
527.3718, 104.6287
527.8539, 104.3185
528.3360, 102.8185
528.8181, 101.3624
529.3002, 100.5425
529.7823, 100.1170
530.2645, 99.60202
530.7466, 98.78451
531.2287, 97.86176
531.7108, 97.07652
532.1929, 96.42270
532.6750, 95.82883
533.1572, 95.33620
533.6393, 94.80280
534.1214, 93.99167
534.6035, 92.96117
535.0856, 92.06979
535.5677, 91.47883
536.0499, 90.97677
536.5320, 90.40730
537.0141, 89.79092
537.4962, 89.19104
537.9783, 88.63660
538.4604, 88.11731
538.9426, 87.63055
539.4247, 87.22536
539.9068, 86.70525
540.3889, 85.88515
540.8710, 85.13584
541.3531, 84.68491
541.8353, 84.45787
542.3174, 84.25083
542.7995, 83.95217
543.2816, 83.61436
543.7637, 83.36931
544.2458, 83.26035
544.7280, 83.09396
545.2101, 82.82468
545.6922, 82.50582
546.1743, 82.16075
546.6564, 81.78892
547.1385, 81.38775
547.6207, 80.93005
548.1028, 80.46262
548.5849, 80.05092
549.0670, 79.69433
549.5491, 79.39906
550.0313, 79.19535
550.5134, 79.01857
550.9955, 78.76134
551.4776, 78.42136
551.9597, 78.11201
552.4418, 77.82979
552.9240, 77.60861
553.4061, 77.50446
553.8882, 77.48818
554.3703, 77.47085
554.8524, 77.40707
555.3345, 77.31442
555.8167, 77.24029
556.2988, 77.25998
556.7809, 77.14152
557.2630, 76.80837
557.7451, 76.42581
558.2272, 76.03862
558.7094, 75.67686
559.1915, 75.38158
559.6736, 75.17229
560.1557, 75.04764
560.6378, 75.03289
561.1199, 75.15308
561.6021, 75.22143
562.0842, 75.17377
562.5663, 75.08577
563.0484, 75.04129
563.5305, 75.02319
564.0126, 74.93755
564.4948, 74.75152
564.9769, 74.48185
565.4590, 74.07027
565.9411, 73.56759
566.4232, 73.22330
566.9053, 73.15363
567.3875, 73.20950
567.8696, 73.15808
568.3517, 72.94709
568.8338, 72.80569
569.3159, 72.72656
569.7980, 72.72404
570.2802, 72.88552
570.7623, 73.11699
571.2444, 73.23817
571.7265, 73.16512
572.2086, 72.97813
572.6907, 72.80429
573.1729, 72.62393
573.6550, 72.53211
574.1371, 72.62405
574.6192, 72.70972
575.1013, 72.69575
575.5834, 72.61377
576.0656, 72.52145
576.5477, 72.41602
577.0298, 72.36524
577.5119, 72.55910
577.9940, 72.91312
578.4761, 72.92039
578.9583, 72.38085
579.4404, 71.76265
579.9225, 71.54148
580.4046, 71.69970
580.8867, 71.75017
581.3688, 71.58204
581.8510, 71.41367
582.3331, 71.32055
582.8152, 71.29349
583.2973, 71.35513
583.7794, 71.49699
584.2615, 71.58776
584.7437, 71.43841
585.2258, 71.02200
585.7079, 70.85063
586.1900, 71.16256
586.6721, 71.42516
587.1542, 71.48412
587.6363, 71.44231
588.1184, 71.43555
588.6005, 71.49158
589.0826, 71.48320
589.5648, 71.22414
590.0469, 70.80018
590.5290, 70.51563
591.0111, 70.38173
591.4932, 70.41672
591.9753, 70.72197
592.4575, 71.16808
592.9396, 71.45225
593.4217, 71.58540
593.9038, 71.54396
594.3859, 71.15945
594.8680, 70.69759
595.3502, 70.41525
595.8323, 70.33723
596.3144, 70.42378
596.7965, 70.67613
597.2786, 71.00658
597.7607, 71.08199
598.2429, 70.72862
598.7250, 70.43137
599.2071, 70.25496
599.6892, 70.10930
600.1713, 69.85909
600.6534, 69.58044
601.1356, 69.53838
601.6177, 69.99903
602.0998, 70.61575
602.5819, 70.72086
603.0640, 70.31407
603.5461, 70.03978
604.0283, 70.15038
604.5104, 70.31902
604.9925, 70.07347
605.4746, 69.47928
605.9567, 69.18216
606.4388, 69.54653
606.9210, 69.95193
607.4031, 70.04411
607.8852, 69.91521
608.3673, 69.72704
608.8494, 69.53789
609.3315, 69.38586
609.8137, 69.32590
610.2958, 69.36576
610.7779, 69.41747
611.2600, 69.50700
611.7421, 69.57576
612.2242, 69.57661
612.7064, 69.56614
613.1885, 69.61058
613.6706, 69.72344
614.1527, 69.86219
614.6348, 70.02444
615.1169, 70.18154
615.5991, 70.23220
616.0812, 70.16048
616.5633, 70.07207
617.0454, 70.00607
617.5275, 69.96870
618.0096, 69.99191
618.4918, 70.12780
618.9739, 70.15427
619.4560, 69.94273
619.9381, 69.67191
620.4202, 69.41638
620.9023, 69.23038
621.3845, 69.25627
621.8666, 69.58389
622.3487, 70.04092
622.8308, 70.22441
623.3129, 70.02894
623.7950, 69.89505
624.2772, 69.96703
624.7593, 69.97719
625.2414, 69.67808
625.7235, 69.25156
626.2056, 69.07472
626.6877, 69.32469
627.1699, 69.71968
627.6520, 70.07102
628.1341, 70.34970
628.6162, 70.42379
629.0983, 70.25427
629.5804, 70.03139
630.0626, 69.88191
630.5447, 69.80839
631.0268, 69.83000
631.5089, 70.11668
631.9910, 70.25665
632.4731, 70.02263
632.9553, 69.72604
633.4374, 69.70325
633.9195, 69.92570
634.4016, 70.08245
634.8837, 69.92147
635.3658, 69.57848
635.8480, 69.49135
636.3301, 69.73209
636.8122, 69.92542
637.2943, 70.01295
637.7764, 70.00204
638.2585, 69.84229
638.7407, 69.58024
639.2228, 69.42165
639.7049, 69.47002
640.1870, 69.60374
640.6691, 69.81728
641.1512, 70.03414
641.6334, 70.05515
642.1155, 69.82920
642.5976, 69.50465
643.0797, 69.21877
643.5618, 68.97157
644.0439, 68.85709
644.5261, 69.08617
645.0082, 69.18488
645.4903, 68.93491
645.9724, 68.62737
646.4545, 68.54710
646.9366, 68.70539
647.4188, 68.89107
647.9009, 68.93711
648.3830, 68.90954
648.8651, 68.96748
649.3472, 69.11330
649.8293, 69.23632
650.3115, 69.31013
650.7936, 69.32808
651.2757, 69.24471
651.7578, 69.05170
652.2399, 68.96893
652.7220, 69.16433
653.2042, 69.31255
653.6863, 69.17810
654.1684, 68.91612
654.6505, 68.77878
655.1326, 68.83067
655.6147, 68.94784
656.0969, 68.99924
656.5790, 68.98768
657.0611, 68.95702
657.5432, 68.87673
658.0253, 68.84212
658.5074, 68.98135
658.9896, 69.12083
659.4717, 69.05274
659.9538, 68.77466
660.4359, 68.60774
660.9180, 68.78815
661.4001, 69.07651
661.8823, 69.23155
662.3644, 69.27426
662.8465, 69.31343
663.3286, 69.39124
663.8107, 69.45984
664.2928, 69.45174
664.7750, 69.35756
665.2571, 69.24825
665.7392, 69.09386
666.2213, 68.95877
666.7034, 68.82000
667.1855, 68.72923
667.6677, 68.76926
668.1498, 68.94372
668.6319, 69.12434
669.1140, 69.28928
669.5961, 69.36573
670.0782, 69.06448
670.5604, 68.38459
671.0425, 67.96614
671.5246, 68.11985
672.0067, 68.56423
672.4888, 68.91336
672.9709, 69.16711
673.4531, 69.30179
673.9352, 69.20914
674.4173, 69.11289
674.8994, 69.12918
675.3815, 69.19626
675.8636, 69.20085
676.3458, 69.12190
676.8279, 69.06982
677.3100, 69.18230
677.7921, 69.42889
678.2742, 69.61710
678.7563, 69.75076
679.2385, 69.80828
679.7206, 69.72749
680.2027, 69.61124
680.6848, 69.64082
681.1669, 69.82185
681.6490, 69.81809
682.1312, 69.20930
682.6133, 68.71605
683.0954, 69.00318
683.5775, 69.72841
684.0596, 70.20359
684.5417, 70.21659
685.0239, 70.02631
685.5060, 69.90185
685.9881, 69.84448
686.4702, 69.89372
686.9523, 70.10728
687.4344, 70.31572
687.9166, 70.48829
688.3987, 70.62187
688.8808, 70.68050
689.3629, 70.67507
689.8450, 70.73083
690.3271, 70.99531
690.8093, 71.26775
691.2914, 71.32077
691.7735, 71.22121
692.2556, 71.14290
692.7377, 71.13854
693.2198, 71.20493
693.7020, 71.34081
694.1841, 71.54546
694.6662, 71.81384
695.1483, 72.29408
695.6304, 72.61434
696.1125, 72.65690
696.5947, 72.57093
697.0768, 72.39088
697.5589, 72.17520
698.0410, 72.12965
698.5231, 72.48132
699.0052, 72.93468
699.4874, 73.09655
699.9695, 73.03334
700.4516, 72.98409
700.9337, 72.99706
701.4158, 73.19051
701.8979, 73.76189
702.3801, 74.66306
702.8622, 75.08245
703.3443, 74.42319
703.8264, 74.06344
704.3085, 74.23258
704.7906, 74.66381
705.2728, 75.27858
705.7549, 75.97150
706.2370, 76.51096
706.7191, 76.70454
707.2012, 76.80752
707.6833, 77.23087
708.1655, 77.90331
708.6476, 78.41529
709.1297, 78.67294
709.6118, 78.87589
710.0939, 79.18441
710.5760, 79.57169
711.0582, 79.89004
711.5403, 80.01760
712.0224, 80.25613
712.5045, 80.77649
712.9866, 81.28683
713.4688, 81.45994
713.9509, 81.45625
714.4330, 81.71418
714.9151, 82.46689
715.3972, 83.41859
715.8793, 84.24525
716.3615, 84.93748
716.8436, 85.43496
717.3257, 85.70036
717.8078, 85.91714
718.2899, 86.16444
718.7720, 86.45777
719.2542, 86.85630
719.7363, 87.40440
720.2184, 87.93414
720.7005, 88.42014
721.1826, 88.89376
721.6647, 89.33773
722.1469, 89.79358
722.6290, 90.34287
723.1111, 91.01295
723.5932, 91.72542
724.0753, 92.41763
724.5574, 93.08230
725.0396, 93.59962
725.5217, 93.92091
726.0038, 94.46770
726.4859, 95.55420
726.9680, 96.80299
727.4501, 97.53798
727.9323, 97.65618
728.4144, 97.95798
728.8965, 98.56773
729.3786, 99.28054
729.8607, 100.0643
730.3428, 100.8686
730.8250, 101.6257
731.3071, 102.3250
731.7892, 103.0180
732.2713, 103.7563
732.7534, 104.5145
733.2355, 105.2090
733.7177, 105.8364
734.1998, 106.4717
734.6819, 107.1335
735.1640, 107.8209
735.6461, 108.5184
736.1282, 109.2320
736.6104, 110.0315
737.0925, 111.1568
737.5746, 112.0556
738.0567, 112.4875
738.5388, 112.7055
739.0209, 112.8012
739.5031, 112.8995
739.9852, 113.3263
740.4673, 114.3614
740.9494, 115.5546
741.4315, 116.1028
741.9136, 116.0606
742.3958, 116.0202
742.8779, 116.0444
743.3600, 116.1651
743.8421, 116.4373
744.3242, 116.8105
744.8063, 117.1045
745.2885, 117.2493
745.7706, 117.4658
746.2527, 118.0646
746.7348, 118.4573
747.2169, 118.0874
747.6990, 117.3018
748.1812, 116.7420
748.6633, 116.6379
749.1454, 116.7566
749.6275, 117.0211
750.1096, 117.3048
750.5917, 117.0217
751.0739, 116.1263
751.5560, 115.6206
752.0381, 116.0811
752.5202, 116.7713
753.0023, 116.5596
753.4844, 115.2444
753.9666, 114.2945
754.4487, 113.8424
754.9308, 113.5528
755.4129, 113.4479
755.8950, 113.3853
756.3771, 113.3234
756.8593, 113.1916
757.3414, 112.7358
757.8235, 111.5686
758.3056, 110.2713
758.7877, 109.8290
759.2698, 110.0586
759.7520, 110.0763
760.2341, 109.6762
760.7162, 109.3204
761.1983, 109.4248
761.6804, 109.8633
762.1625, 110.0084
762.6447, 109.5881
763.1268, 109.3181
763.6089, 109.2733
764.0910, 109.3180
764.5731, 109.4697
765.0552, 109.6360
765.5374, 109.6238
766.0195, 109.3441
766.5016, 109.1024
766.9837, 109.1222
767.4658, 109.3339
767.9479, 109.7172
768.4301, 110.2139
768.9122, 110.4993
769.3943, 110.4152
769.8764, 110.2327
770.3585, 110.3697
770.8406, 110.8593
771.3228, 111.3274
771.8049, 111.7810
772.2870, 112.2044
772.7691, 112.5764
773.2512, 112.9307
773.7333, 113.2697
774.2155, 113.6064
774.6976, 114.0169
775.1797, 114.5188
775.6618, 115.1153
776.1439, 115.9307
776.6260, 116.7927
777.1082, 117.3222
777.5903, 117.5330
778.0724, 117.9098
778.5545, 118.8213
779.0366, 120.0729
779.5187, 121.1303
780.0009, 121.9558
780.4830, 122.8573
780.9651, 123.8651
781.4472, 124.9442
781.9293, 126.1768
782.4114, 127.4276
782.8936, 128.3516
783.3757, 128.7789
783.8578, 129.4982
784.3399, 130.8565
784.8220, 132.4114
785.3041, 133.8506
785.7863, 135.2779
786.2684, 136.9157
786.7505, 138.8292
787.2326, 140.9029
787.7147, 143.1316
788.1968, 145.3921
788.6790, 147.1726
789.1611, 148.4507
789.6432, 150.0332
790.1253, 152.1896
790.6074, 154.5605
791.0895, 156.8083
791.5717, 158.9494
792.0538, 161.1214
792.5359, 163.1212
793.0180, 165.4449
793.5001, 168.4202
793.9822, 171.4785
794.4644, 174.2572
794.9465, 176.8303
795.4286, 179.4452
795.9107, 182.1847
796.3928, 185.0355
796.8749, 187.9128
797.3571, 190.9381
797.8392, 194.3592
798.3213, 198.1682
798.8034, 202.2268
799.2855, 206.5106
799.7676, 210.7298
800.2498, 214.4216
800.7319, 217.5659
801.2140, 220.6508
801.6961, 223.5452
802.1782, 226.6294
802.6603, 229.8855
803.1425, 233.4447
803.6246, 237.4804
804.1067, 241.9315
804.5888, 246.4646
805.0709, 251.0070
805.5530, 255.5702
806.0352, 260.1304
806.5173, 264.7055
806.9994, 269.3394
807.4815, 274.0197
807.9636, 278.7314
808.4457, 283.4424
808.9279, 288.2803
809.4100, 293.4979
809.8921, 299.0828
810.3742, 304.3647
810.8563, 309.2141
811.3384, 314.3015
811.8206, 319.8909
812.3027, 325.8607
812.7848, 332.0649
813.2669, 338.5423
813.7490, 344.7806
814.2311, 350.8676
814.7133, 356.5742
815.1954, 360.9698
815.6775, 365.5439
816.1596, 371.9493
816.6417, 379.8936
817.1238, 387.7116
817.6060, 394.4914
818.0881, 400.9632
818.5702, 407.8996
819.0523, 415.0487
819.5344, 421.9723
820.0165, 428.5949
820.4987, 434.5909
820.9808, 439.7225
821.4629, 444.3622
821.9450, 449.1299
822.4271, 454.0495
822.9092, 459.1846
823.3914, 465.1158
823.8735, 470.1664
824.3556, 473.4843
824.8377, 475.8052
825.3198, 477.8391
825.8019, 479.5748
826.2841, 480.7177
826.7662, 481.0301
827.2483, 480.9562
827.7304, 480.7082
828.2125, 480.1556
828.6946, 479.0905
829.1768, 477.5804
829.6589, 475.9256
830.1410, 474.3216
830.6231, 472.4409
831.1052, 469.6711
831.5873, 466.2299
832.0695, 463.1171
832.5516, 460.4059
833.0337, 457.2407
833.5158, 453.1837
833.9979, 448.6071
834.4800, 443.9753
834.9622, 439.2542
835.4443, 434.8133
835.9264, 431.0380
836.4085, 426.9905
836.8906, 422.5641
837.3727, 417.7671
837.8549, 412.3968
838.3370, 406.6234
838.8191, 401.0323
839.3012, 395.8991
839.7833, 390.7006
840.2654, 385.1828
840.7476, 379.4256
841.2297, 373.3489
841.7118, 367.1098
842.1939, 361.2539
842.6760, 355.9956
843.1581, 350.7795
843.6403, 344.7534
844.1224, 338.1668
844.6045, 332.4420
845.0866, 327.6773
845.5687, 322.5552
846.0508, 316.5377
846.5330, 310.5343
847.0151, 305.5141
847.4972, 301.3808
847.9793, 297.1650
848.4614, 292.6870
848.9435, 288.4173
849.4257, 284.7384
849.9078, 280.8628
850.3899, 276.0083
850.8720, 270.7416
851.3541, 266.1808
851.8362, 262.6245
852.3184, 259.1671
852.8005, 254.9763
853.2826, 250.9504
853.7647, 248.1275
854.2468, 246.0830
854.7289, 243.9680
855.2111, 241.5386
855.6932, 238.8636
856.1753, 235.9768
856.6574, 232.9671
857.1395, 230.0620
857.6216, 227.2562
858.1038, 224.5936
858.5859, 222.1162
859.0680, 219.6200
859.5501, 216.9309
860.0322, 214.1834
860.5143, 211.7042
860.9965, 209.6318
861.4786, 207.4080
861.9607, 204.8083
862.4428, 202.3240
862.9249, 200.2133
863.4070, 198.2061
863.8892, 195.9901
864.3713, 193.5711
864.8534, 191.2752
865.3355, 189.2239
865.8176, 187.3150
866.2997, 185.6271
866.7819, 183.9612
867.2640, 181.9765
867.7461, 179.7665
868.2282, 177.8131
868.7103, 176.3547
869.1924, 175.0550
869.6746, 173.5200
870.1567, 171.7580
870.6388, 169.7448
871.1209, 167.4737
871.6030, 165.2554
872.0851, 163.1752
872.5673, 161.1589
873.0494, 159.1198
873.5315, 157.0698
874.0136, 155.1695
874.4957, 153.5145
874.9778, 151.8155
875.4600, 150.0278
875.9421, 148.2199
876.4242, 146.4104
876.9063, 144.6079
877.3884, 142.8549
877.8705, 141.1909
878.3527, 139.3723
878.8348, 137.1480
879.3169, 134.9260
879.7990, 133.0505
880.2811, 131.3367
880.7632, 129.4451
881.2454, 127.3891
881.7275, 125.5127
882.2096, 124.1073
882.6917, 122.8708
883.1738, 121.3278
883.6559, 119.5873
884.1381, 118.0120
884.6202, 116.6346
885.1023, 115.3283
885.5844, 114.0296
886.0665, 112.7850
886.5486, 111.6915
887.0308, 110.7526
887.5129, 109.6445
887.9950, 108.2973
888.4771, 106.9549
888.9592, 105.6445
889.4413, 104.3776
889.9235, 103.1859
890.4056, 102.0414
890.8877, 100.8180
891.3698, 99.34095
891.8519, 98.11231
892.3340, 97.39648
892.8162, 96.74715
893.2983, 95.94921
893.7804, 95.04163
894.2625, 94.13818
894.7446, 93.24815
895.2267, 92.24168
895.7089, 90.89262
896.1910, 89.54102
896.6731, 88.56055
897.1552, 87.81416
897.6373, 87.07790
898.1194, 86.31922
898.6016, 85.58505
899.0837, 84.90462
899.5658, 84.23399
900.0479, 83.47136
900.5300, 82.64280
901.0121, 81.99785
901.4943, 81.55947
901.9764, 81.01718
902.4585, 80.24207
902.9406, 79.40857
903.4227, 78.70625
903.9048, 78.11248
904.3870, 77.43818
904.8691, 76.52882
905.3512, 75.85493
905.8333, 75.66603
906.3154, 75.47581
906.7975, 75.04612
907.2797, 74.47659
907.7618, 73.87646
908.2439, 73.24022
908.7260, 72.77479
909.2081, 72.76565
909.6902, 72.66739
910.1724, 72.06086
910.6545, 71.33945
911.1366, 70.98843
911.6187, 70.94852
912.1008, 70.77719
912.5829, 70.23878
913.0651, 69.66463
913.5472, 69.34726
914.0293, 69.20137
914.5114, 69.19057
914.9935, 69.22280
915.4756, 68.94923
915.9578, 68.28142
916.4398, 67.61649
916.9219, 67.36491
917.4041, 67.40350
917.8862, 67.33598
918.3683, 67.16138
918.8504, 66.99838
919.3325, 66.86380
919.8146, 66.73201
920.2968, 66.57133
920.7789, 66.43520
921.2610, 66.44707
921.7431, 66.65989
922.2252, 66.67612
922.7073, 66.31794
923.1895, 66.05117
923.6716, 66.03062
924.1537, 66.09487
924.6358, 66.16857
925.1179, 66.23222
925.6000, 66.23118
926.0822, 66.15500
926.5643, 66.02348
927.0464, 65.72228
927.5285, 65.49204
928.0106, 65.57721
928.4927, 65.77781
928.9749, 65.83714
929.4570, 65.70197
929.9391, 65.40363
930.4212, 64.83544
930.9033, 64.30199
931.3854, 64.07472
931.8676, 64.07218
932.3497, 64.29136
932.8318, 64.61961
933.3139, 64.69313
933.7960, 64.35792
934.2781, 63.87075
934.7603, 63.52381
935.2424, 63.27332
935.7245, 62.96514
936.2066, 62.60614
936.6887, 62.24408
937.1708, 61.88209
937.6530, 61.69079
938.1351, 61.83776
938.6172, 62.13064
939.0993, 62.08113
939.5814, 61.63654
940.0635, 61.09999
940.5457, 60.32350
941.0278, 59.82763
941.5099, 59.91826
941.9920, 60.19524
942.4741, 60.26363
942.9562, 60.14278
943.4384, 60.02429
943.9205, 60.02496
944.4026, 59.85045
944.8847, 59.28135
945.3668, 58.76058
945.8489, 58.45194
946.3311, 58.35244
946.8132, 58.53781
947.2953, 58.99176
947.7774, 59.27038
948.2595, 59.11521
948.7416, 58.87645
949.2238, 58.72038
949.7059, 58.57892
950.1880, 58.33942
950.6701, 58.05689
951.1522, 57.90742
951.6343, 57.95465
952.1165, 57.99572
952.5986, 57.83885
953.0807, 57.59557
953.5628, 57.37471
954.0449, 57.20057
954.5270, 57.14094
955.0092, 57.19343
955.4913, 57.27751
955.9734, 57.34521
956.4555, 57.39161
956.9376, 57.44007
957.4197, 57.46529
957.9019, 57.27249
958.3840, 56.86481
958.8661, 56.60553
959.3482, 56.61816
959.8303, 56.72559
960.3124, 56.78647
960.7946, 56.77137
961.2767, 56.50909
961.7588, 55.89441
962.2409, 55.59181
962.7230, 55.74438
963.2051, 55.93731
963.6873, 56.01661
964.1694, 56.01239
964.6515, 55.94518
965.1336, 55.81477
965.6157, 55.73585
966.0978, 55.84663
966.5800, 55.78972
967.0621, 55.27245
967.5442, 54.87111
968.0263, 54.99990
968.5084, 55.38036
968.9905, 55.59558
969.4727, 55.61025
969.9548, 55.46007
970.4369, 54.90084
970.9190, 54.50049
971.4011, 54.66020
971.8832, 54.91529
972.3654, 54.80683
972.8475, 54.45693
973.3296, 54.25831
973.8117, 54.33945
974.2938, 54.43129
974.7759, 54.34941
975.2581, 54.24233
975.7402, 54.24635
976.2223, 54.30583
976.7044, 54.35340
977.1865, 54.36459
977.6686, 54.31201
978.1508, 54.17950
978.6329, 53.99290
979.1150, 53.69096
979.5971, 53.40031
980.0792, 53.40923
980.5613, 53.63496
981.0435, 53.78861
981.5256, 53.79612
982.0077, 53.71789
982.4898, 53.59410
982.9719, 53.43781
983.4540, 53.26979
983.9362, 53.09262
984.4183, 52.86027
984.9004, 52.57994
985.3825, 52.58648
985.8646, 53.02433
986.3467, 53.49453
986.8289, 53.59973
987.3110, 53.40289
987.7931, 53.08469
988.2752, 52.58115
988.7573, 52.55331
989.2394, 53.23761
989.7216, 53.65919
990.2037, 53.29873
990.6858, 52.64763
991.1679, 52.30622
991.6500, 52.26354
992.1321, 52.33276
992.6143, 52.66890
993.0964, 52.75041
993.5785, 52.34773
994.0606, 51.95039
994.5427, 51.79248
995.0248, 51.79490
995.5070, 51.88737
995.9891, 52.08695
996.4712, 52.12128
996.9533, 51.84710
997.4354, 51.60599
997.9175, 51.41418
998.3997, 51.30633
998.8818, 51.36013
999.3639, 51.48849
999.8460, 51.56282
1000.328, 51.57012
1000.810, 51.47135
1001.292, 51.15983
1001.774, 50.86465
1002.257, 50.57798
1002.739, 50.43016
1003.221, 50.66953
1003.703, 51.10273
1004.185, 51.29320
1004.667, 51.12075
1005.149, 50.89155
1005.631, 50.71317
1006.114, 50.58201
1006.596, 50.50395
1007.078, 50.46684
1007.560, 50.46104
1008.042, 50.48121
1008.524, 50.52399
1009.006, 50.58899
1009.488, 50.65611
1009.970, 50.78094
1010.453, 50.83712
1010.935, 50.55133
1011.417, 50.14826
1011.899, 50.08074
1012.381, 50.34067
1012.863, 50.59930
1013.345, 50.69547
1013.827, 50.65844
1014.310, 50.46758
1014.792, 50.19551
1015.274, 49.91836
1015.756, 49.68524
1016.238, 49.67023
1016.720, 49.87716
1017.202, 50.11299
1017.684, 50.26595
1018.166, 50.33063
1018.649, 50.27362
1019.131, 50.12455
1019.613, 49.99111
1020.095, 49.87023
1020.577, 49.68654
1021.059, 49.42933
1021.541, 49.33158
1022.023, 49.58608
1022.505, 49.91768
1022.988, 49.71087
1023.470, 49.03197
1023.952, 48.75863
1024.434, 48.90315
1024.916, 49.02188
1025.398, 48.99410
1025.880, 49.01425
1026.362, 49.26464
1026.845, 49.56734
1027.327, 49.42197
1027.809, 48.77205
1028.291, 48.55014
1028.773, 48.84292
1029.255, 49.05935
1029.737, 49.01233
1030.219, 48.95124
1030.702, 49.10754
1031.184, 49.36033
1031.666, 49.35345
1032.148, 49.02208
1032.630, 48.77648
1033.112, 48.60325
1033.594, 48.57613
1034.076, 48.81479
1034.558, 49.00167
1035.041, 48.79236
1035.523, 48.38112
1036.005, 48.40945
1036.487, 49.11676
1036.969, 49.37927
1037.451, 48.92201
1037.933, 48.54976
1038.415, 48.55920
1038.897, 48.61364
1039.380, 48.37252
1039.862, 47.97384
1040.344, 47.90101
1040.826, 48.35378
1041.308, 48.53756
1041.790, 48.20837
1042.272, 47.96083
1042.754, 47.91990
1043.237, 48.03411
1043.719, 48.43964
1044.201, 48.95461
1044.683, 48.99183
1045.165, 48.28377
1045.647, 47.88537
1046.129, 48.11389
1046.611, 48.29055
1047.094, 48.12543
1047.576, 47.94434
1048.058, 48.05433
1048.540, 48.34706
1049.022, 48.52166
1049.504, 48.54749
1049.986, 48.48430
1050.468, 48.19657
1050.950, 48.00838
1051.432, 48.12353
1051.915, 48.28491
1052.397, 48.29021
1052.879, 48.17427
1053.361, 48.03776
1053.843, 47.88267
1054.325, 47.77486
1054.807, 47.72388
1055.289, 47.72985
1055.772, 47.88198
1056.254, 48.01068
1056.736, 47.95239
1057.218, 47.77001
1057.700, 47.61248
1058.182, 47.50459
1058.664, 47.42472
1059.146, 47.32151
1059.629, 47.30387
1060.111, 47.51946
1060.593, 47.74346
1061.075, 47.82755
1061.557, 47.76566
1062.039, 47.50167
1062.521, 47.01241
1063.003, 46.76189
1063.485, 47.11077
1063.968, 47.46206
1064.450, 47.54932
1064.932, 47.54396
1065.414, 47.59863
1065.896, 47.66650
1066.378, 47.62469
1066.860, 47.45411
1067.342, 47.29302
1067.824, 47.16787
1068.307, 47.09843
1068.789, 47.18501
1069.271, 47.24360
1069.753, 47.00532
1070.235, 46.68527
1070.717, 46.74656
1071.199, 47.21240
1071.681, 47.44173
1072.164, 46.94967
1072.646, 46.52222
1073.128, 46.64003
1073.610, 46.83762
1074.092, 46.67449
1074.574, 46.37806
1075.056, 46.38983
1075.538, 46.71326
1076.021, 46.87913
1076.503, 46.52279
1076.985, 46.35478
1077.467, 47.01360
1077.949, 47.67643
1078.431, 47.59805
1078.913, 47.20730
1079.395, 47.21567
1079.877, 47.59098
1080.359, 47.67930
1080.842, 47.11127
1081.324, 46.63346
1081.806, 46.68528
1082.288, 46.84873
1082.770, 46.84795
1083.252, 46.78770
1083.734, 46.83420
1084.216, 46.96485
1084.698, 47.02368
1085.181, 46.94672
1085.663, 46.87459
1086.145, 46.87768
1086.627, 46.89692
1087.109, 46.94031
1087.591, 46.94722
1088.073, 46.80140
1088.555, 46.57245
1089.038, 46.46064
1089.520, 46.52613
1090.002, 46.61613
1090.484, 46.65868
1090.966, 46.72108
1091.448, 46.94563
1091.930, 47.11094
1092.412, 46.97163
1092.895, 46.62673
1093.377, 46.24782
1093.859, 45.87034
1094.341, 45.73678
1094.823, 46.16016
1095.305, 46.54024
1095.787, 46.61998
1096.269, 46.57230
1096.751, 46.49569
1097.234, 46.40185
1097.716, 46.28736
1098.198, 46.15355
1098.680, 46.01525
1099.162, 45.81586
1099.644, 45.71019
1100.126, 45.85976
1100.608, 45.99260
1101.090, 45.89980
1101.573, 45.72225
1102.055, 45.62766
1102.537, 45.62756
1103.019, 45.67496
1103.501, 45.79348
1103.983, 45.87844
1104.465, 45.88617
1104.947, 45.87910
1105.430, 45.90217
1105.912, 45.91058
1106.394, 45.84974
1106.876, 45.73643
1107.358, 45.62872
1107.840, 45.52992
1108.322, 45.45368
1108.804, 45.33467
1109.286, 45.32963
1109.769, 45.63752
1110.251, 45.93226
1110.733, 45.94248
1111.215, 45.77307
1111.697, 45.62199
1112.179, 45.48941
1112.661, 45.48323
1113.143, 45.78268
1113.625, 45.95560
1114.108, 45.83303
1114.590, 45.68824
1115.072, 45.67437
1115.554, 45.71801
1116.036, 45.73094
1116.518, 45.71171
1117.000, 45.63177
1117.482, 45.37888
1117.965, 45.26884
1118.447, 45.39331
1118.929, 45.53947
1119.411, 45.64734
1119.893, 45.72540
1120.375, 45.78788
1120.857, 45.82752
1121.339, 45.80927
1121.822, 45.71635
1122.304, 45.61863
1122.786, 45.50996
1123.268, 45.41158
1123.750, 45.32722
1124.232, 45.25919
1124.714, 45.20518
1125.196, 45.17595
1125.678, 45.20873
1126.161, 45.31485
1126.643, 45.28736
1127.125, 45.06374
1127.607, 44.96647
1128.089, 45.05790
1128.571, 45.26466
1129.053, 45.59757
1129.535, 45.87899
1130.017, 45.83655
1130.500, 45.53456
1130.982, 45.39868
1131.464, 45.44188
1131.946, 45.44434
1132.428, 45.37498
1132.910, 45.46910
1133.392, 45.84618
1133.874, 46.09386
1134.357, 45.77877
1134.839, 45.20250
1135.321, 45.17337
1135.803, 45.61684
1136.285, 45.74043
1136.767, 45.55573
1137.249, 45.55414
1137.731, 45.83689
1138.214, 45.97711
1138.696, 45.69594
1139.178, 44.96105
1139.660, 45.40235
1140.142, 45.64981
1140.624, 45.71384
1141.106, 45.04506
1141.588, 45.32256
1142.070, 45.22083
1142.552, 45.10355
1143.035, 45.51423
1143.517, 44.95203
1143.999, 45.35434
1144.481, 45.37164
1144.963, 45.56514
1145.445, 45.37708
1145.927, 45.30688
1146.409, 45.61836
1146.892, 45.71849
1147.374, 45.48651
1147.856, 45.69122
1148.338, 45.11570
1148.820, 45.22483
1149.302, 45.62938
1149.784, 45.41658
1150.266, 45.62826
1150.749, 45.67827
1151.231, 44.99358
1151.713, 45.58662
1152.195, 45.62709
1152.677, 45.10017
1153.159, 45.64943
1153.641, 45.20074
1154.123, 45.10825
1154.605, 45.28384
1155.088, 45.17997
1155.570, 45.51669
1156.052, 45.42896
1156.534, 45.30330
1157.016, 45.34315
1157.498, 44.91402
1157.980, 45.35493
1158.462, 45.20153
1158.944, 45.34354
1159.427, 45.55252
1159.909, 45.24879
1160.391, 45.48785
1160.873, 44.88516
1161.355, 44.98680
1161.837, 45.01259
1162.319, 45.48857
1162.801, 44.88999
1163.284, 44.97205
1163.766, 45.34393
1164.248, 45.31030
1164.730, 45.44621
1165.212, 45.08019
1165.694, 45.18570
1166.176, 45.16124
1166.658, 45.58589
1167.141, 45.65598
1167.623, 45.29848
1168.105, 44.94280
1168.587, 45.39978
1169.069, 45.19281
1169.551, 45.12272
1170.033, 45.12302
1170.515, 45.29193
1170.997, 45.50596
1171.479, 45.47317
1171.962, 45.22178
1172.444, 45.10954
1172.926, 45.13266
1173.408, 45.21090
1173.890, 45.33021
1174.372, 45.49544
1174.854, 45.70917
1175.336, 45.84939
1175.819, 45.76225
1176.301, 45.56142
1176.783, 45.42791
1177.265, 45.38377
1177.747, 45.59010
1178.229, 45.93308
1178.711, 45.98112
1179.193, 45.69066
1179.676, 45.42006
1180.158, 45.37130
1180.640, 45.41262
1181.122, 45.43206
1181.604, 45.46376
1182.086, 45.60601
1182.568, 45.74349
1183.050, 45.65717
1183.532, 45.43848
1184.015, 45.36161
1184.497, 45.48255
1184.979, 45.56870
1185.461, 45.45670
1185.943, 45.38080
1186.425, 45.47658
1186.907, 45.61180
1187.389, 45.70040
1187.871, 45.77862
1188.354, 45.92859
1188.836, 46.11183
1189.318, 46.18304
1189.800, 46.11641
1190.282, 45.96346
1190.764, 45.52059
1191.246, 45.30186
1191.728, 45.50982
1192.211, 45.82502
1192.693, 46.17804
1193.175, 46.43858
1193.657, 46.39716
1194.139, 46.08875
1194.621, 45.83590
1195.103, 45.64315
1195.585, 45.46953
1196.068, 45.28339
1196.550, 45.30105
1197.032, 45.63841
1197.514, 45.89221
1197.996, 45.73877
1198.478, 45.44408
1198.960, 45.49056
1199.442, 45.80898
1199.924, 46.09386
1200.406, 46.32064
1200.889, 46.32314
1201.371, 46.09888
1201.853, 45.72178
1202.335, 45.24080
1202.817, 44.86292
1203.299, 44.74265
1203.781, 44.82860
1204.263, 45.19321
1204.746, 45.61145
1205.228, 45.73235
1205.710, 45.65038
1206.192, 45.50631
1206.674, 45.36715
1207.156, 45.34727
1207.638, 45.48509
1208.120, 45.59865
1208.603, 45.57071
1209.085, 45.50933
1209.567, 45.43884
1210.049, 45.39176
1210.531, 45.40011
1211.013, 45.44321
1211.495, 45.51795
1211.977, 45.60367
1212.459, 45.61508
1212.942, 45.52131
1213.424, 45.41217
1213.906, 45.22538
1214.388, 45.13225
1214.870, 45.22794
1215.352, 45.33329
1215.834, 45.37332
1216.316, 45.32542
1216.798, 45.11489
1217.281, 44.79075
1217.763, 44.75434
1218.245, 45.05236
1218.727, 45.22826
1219.209, 45.25196
1219.691, 45.27040
1220.173, 45.32420
1220.655, 45.35627
1221.138, 45.32680
1221.620, 45.27393
1222.102, 45.25593
1222.584, 45.25360
1223.066, 45.20385
1223.548, 45.13091
1224.030, 45.09097
1224.512, 45.09212
1224.995, 45.15831
1225.477, 45.27771
1225.959, 45.35315
1226.441, 45.33172
1226.923, 45.23944
1227.405, 44.99758
1227.887, 44.80418
1228.369, 44.87020
1228.851, 45.03847
1229.333, 45.12605
1229.816, 45.16874
1230.298, 45.31427
1230.780, 45.57540
1231.262, 45.71141
1231.744, 45.56728
1232.226, 45.45562
1232.708, 45.32810
1233.190, 45.37039
1233.673, 45.88436
1234.155, 46.28765
1234.637, 46.02744
1235.119, 45.43144
1235.601, 45.19551
1236.083, 45.31899
1236.565, 45.39403
1237.047, 45.40323
1237.530, 45.53903
1238.012, 45.83828
1238.494, 45.99004
1238.976, 45.87774
1239.458, 45.75401
1239.940, 45.82843
1240.422, 45.97002
1240.904, 45.94955
1241.386, 45.83697
1241.869, 45.79943
1242.351, 45.81400
1242.833, 45.84423
1243.315, 45.86513
1243.797, 45.81166
1244.279, 45.67561
1244.761, 45.54775
1245.243, 45.44601
1245.725, 45.44959
1246.208, 45.74599
1246.690, 46.00859
1247.172, 45.94570
1247.654, 45.78366
1248.136, 45.75617
1248.618, 45.82609
1249.100, 45.87561
1249.582, 45.89437
1250.065, 45.86689
1250.547, 45.73227
1251.029, 45.66505
1251.511, 45.68283
1251.993, 45.76236
1252.475, 45.96118
1252.957, 46.05398
1253.439, 45.83014
1253.922, 45.46987
1254.404, 45.29562
1254.886, 45.30152
1255.368, 45.49804
1255.850, 45.85353
1256.332, 46.08050
1256.814, 46.16320
1257.296, 46.21133
1257.778, 46.25752
1258.260, 46.25368
1258.743, 46.15703
1259.225, 46.09370
1259.707, 46.29981
1260.189, 46.50607
1260.671, 46.34627
1261.153, 46.06128
1261.635, 45.90280
1262.117, 45.89500
1262.600, 46.11449
1263.082, 46.50090
1263.564, 46.60659
1264.046, 46.17122
1264.528, 45.81692
1265.010, 45.58186
1265.492, 45.56564
1265.974, 46.00600
1266.457, 46.40249
1266.939, 46.50209
1267.421, 46.33300
1267.903, 45.82410
1268.385, 45.12244
1268.867, 45.15971
1269.349, 45.99236
1269.831, 46.40575
1270.313, 46.36679
1270.796, 46.14182
1271.278, 45.80411
1271.760, 45.54994
1272.242, 45.47914
1272.724, 45.49720
1273.206, 45.51670
1273.688, 45.55842
1274.170, 45.62708
1274.652, 45.75478
1275.135, 46.11099
1275.617, 46.48877
1276.099, 46.48222
1276.581, 46.16467
1277.063, 45.91051
1277.545, 45.81097
1278.027, 45.82848
1278.509, 46.07854
1278.992, 46.24961
1279.474, 46.22832
1279.956, 46.16715
1280.438, 46.12366
1280.920, 46.06977
1281.402, 45.93471
1281.884, 45.82316
1282.366, 46.01272
1282.849, 46.48132
1283.331, 46.62793
1283.813, 46.44894
1284.295, 46.27319
1284.777, 46.13799
1285.259, 46.15079
1285.741, 46.32542
1286.223, 46.43201
1286.705, 46.33187
1287.188, 46.02564
##END=



