##NAMES=Tsumcorite
##RRUFFID=R110036
##IDEAL CHEMISTRY=Pb^2+^Zn^2+^_2_(As^5+^O_4_)_2_&#183;2H_2_O
##LOCALITY=Tsumeb, Namibia
##OWNER=RRUFF
##SOURCE=William W Pinch
##DESCRIPTION=Orange wedge-shaped crystals
##STATUS=The identification of this mineral has been confirmed only by single crystal X-ray diffraction.
##URL=rruff.info/R110036
173.0812, 1949.819
173.5634, 1940.853
174.0455, 1936.871
174.5276, 1933.325
175.0097, 1928.097
175.4918, 1921.329
175.9739, 1914.634
176.4561, 1909.907
176.9382, 1907.725
177.4203, 1905.482
177.9024, 1902.756
178.3845, 1900.286
178.8666, 1898.731
179.3488, 1898.037
179.8309, 1897.442
180.3130, 1895.795
180.7951, 1891.906
181.2772, 1889.790
181.7593, 1889.614
182.2415, 1890.821
182.7236, 1893.611
183.2057, 1897.842
183.6878, 1902.306
184.1699, 1905.123
184.6520, 1905.155
185.1342, 1905.686
185.6163, 1907.056
186.0984, 1908.840
186.5805, 1910.529
187.0626, 1911.957
187.5447, 1913.482
188.0269, 1915.934
188.5090, 1919.706
188.9911, 1922.731
189.4732, 1923.746
189.9553, 1923.828
190.4374, 1925.014
190.9196, 1928.223
191.4017, 1931.976
191.8838, 1934.250
192.3659, 1935.085
192.8480, 1935.149
193.3301, 1934.193
193.8123, 1932.558
194.2944, 1931.576
194.7765, 1931.875
195.2586, 1932.585
195.7407, 1933.076
196.2228, 1933.357
196.7050, 1932.713
197.1871, 1929.975
197.6692, 1925.276
198.1513, 1921.665
198.6334, 1920.890
199.1155, 1920.450
199.5977, 1918.775
200.0798, 1915.759
200.5619, 1912.017
201.0440, 1908.045
201.5261, 1903.812
202.0082, 1899.453
202.4904, 1895.544
202.9725, 1891.081
203.4546, 1885.289
203.9367, 1878.175
204.4188, 1870.501
204.9009, 1863.100
205.3831, 1855.860
205.8652, 1849.309
206.3473, 1844.349
206.8294, 1839.360
207.3115, 1833.201
207.7936, 1825.818
208.2758, 1818.126
208.7579, 1811.482
209.2400, 1806.438
209.7221, 1801.312
210.2042, 1796.638
210.6863, 1791.563
211.1685, 1785.294
211.6506, 1777.762
212.1327, 1769.676
212.6148, 1761.957
213.0969, 1754.675
213.5790, 1747.859
214.0612, 1742.020
214.5433, 1736.314
215.0254, 1730.114
215.5075, 1723.291
215.9896, 1715.795
216.4717, 1707.503
216.9539, 1697.654
217.4360, 1688.809
217.9181, 1681.222
218.4002, 1674.530
218.8823, 1668.228
219.3644, 1662.215
219.8466, 1656.920
220.3287, 1653.135
220.8108, 1651.068
221.2929, 1649.169
221.7750, 1647.943
222.2571, 1646.516
222.7393, 1643.020
223.2214, 1636.663
223.7035, 1630.707
224.1856, 1630.161
224.6677, 1634.541
225.1498, 1638.658
225.6320, 1640.752
226.1141, 1641.884
226.5962, 1643.795
227.0783, 1646.855
227.5604, 1650.449
228.0425, 1653.891
228.5247, 1657.260
229.0068, 1661.240
229.4889, 1666.822
229.9710, 1673.102
230.4531, 1677.877
230.9352, 1680.292
231.4174, 1682.492
231.8995, 1685.649
232.3816, 1689.767
232.8637, 1695.102
233.3458, 1702.912
233.8279, 1712.148
234.3101, 1719.342
234.7922, 1723.420
235.2743, 1726.943
235.7564, 1731.838
236.2385, 1737.336
236.7206, 1741.851
237.2028, 1744.032
237.6849, 1744.462
238.1670, 1745.826
238.6491, 1749.179
239.1312, 1751.856
239.6133, 1752.915
240.0955, 1752.673
240.5776, 1751.738
241.0597, 1750.584
241.5418, 1748.987
242.0239, 1745.839
242.5060, 1740.445
242.9882, 1734.240
243.4703, 1727.360
243.9524, 1720.082
244.4345, 1712.785
244.9166, 1705.740
245.3987, 1698.777
245.8809, 1691.170
246.3630, 1681.808
246.8451, 1673.267
247.3272, 1667.509
247.8093, 1662.437
248.2914, 1655.066
248.7736, 1643.603
249.2557, 1629.329
249.7378, 1617.611
250.2199, 1610.702
250.7020, 1603.720
251.1841, 1595.910
251.6663, 1587.762
252.1484, 1580.043
252.6305, 1573.093
253.1126, 1566.625
253.5947, 1559.507
254.0768, 1549.888
254.5590, 1542.035
255.0411, 1536.974
255.5232, 1533.478
256.0053, 1530.252
256.4874, 1526.763
256.9695, 1523.156
257.4517, 1519.785
257.9338, 1516.410
258.4159, 1513.617
258.8980, 1510.991
259.3801, 1509.111
259.8622, 1508.831
260.3444, 1510.411
260.8265, 1512.958
261.3086, 1514.742
261.7907, 1514.050
262.2728, 1515.465
262.7549, 1519.696
263.2371, 1525.740
263.7192, 1532.811
264.2013, 1540.678
264.6834, 1549.095
265.1655, 1557.639
265.6476, 1565.817
266.1298, 1575.583
266.6119, 1586.636
267.0940, 1599.534
267.5761, 1615.452
268.0582, 1634.564
268.5403, 1654.484
269.0225, 1672.230
269.5046, 1686.913
269.9867, 1703.820
270.4688, 1723.826
270.9509, 1745.591
271.4330, 1767.934
271.9152, 1790.684
272.3973, 1814.676
272.8794, 1840.957
273.3615, 1869.810
273.8436, 1897.503
274.3257, 1921.876
274.8079, 1946.703
275.2900, 1974.852
275.7721, 2006.487
276.2542, 2039.441
276.7363, 2072.342
277.2184, 2105.229
277.7006, 2139.561
278.1827, 2175.698
278.6648, 2212.739
279.1469, 2250.319
279.6290, 2288.230
280.1111, 2325.548
280.5933, 2361.148
281.0754, 2395.932
281.5575, 2433.201
282.0396, 2475.853
282.5217, 2517.376
283.0038, 2553.718
283.4860, 2585.425
283.9681, 2615.886
284.4502, 2647.152
284.9323, 2677.395
285.4144, 2703.289
285.8965, 2723.809
286.3787, 2742.809
286.8608, 2763.914
287.3429, 2785.556
287.8250, 2802.328
288.3071, 2812.216
288.7892, 2816.411
289.2714, 2817.179
289.7535, 2814.711
290.2356, 2809.024
290.7177, 2799.360
291.1998, 2786.457
291.6819, 2772.230
292.1641, 2757.274
292.6462, 2740.558
293.1283, 2721.188
293.6104, 2699.440
294.0925, 2674.877
294.5746, 2646.213
295.0568, 2614.875
295.5389, 2583.413
296.0210, 2551.870
296.5031, 2521.023
296.9852, 2491.792
297.4673, 2463.731
297.9495, 2435.501
298.4316, 2405.476
298.9137, 2375.605
299.3958, 2349.293
299.8779, 2327.141
300.3600, 2305.914
300.8422, 2282.852
301.3243, 2259.417
301.8064, 2238.580
302.2885, 2220.720
302.7706, 2205.711
303.2527, 2193.860
303.7349, 2185.267
304.2170, 2177.724
304.6991, 2169.965
305.1812, 2162.895
305.6633, 2157.312
306.1454, 2152.731
306.6276, 2151.206
307.1097, 2155.430
307.5918, 2165.129
308.0739, 2175.659
308.5560, 2184.549
309.0381, 2194.656
309.5203, 2208.882
310.0024, 2227.558
310.4845, 2248.283
310.9666, 2268.822
311.4487, 2289.776
311.9308, 2314.214
312.4130, 2343.362
312.8951, 2375.244
313.3772, 2407.421
313.8593, 2440.089
314.3414, 2474.015
314.8235, 2509.267
315.3057, 2546.103
315.7878, 2586.177
316.2699, 2630.444
316.7520, 2675.595
317.2341, 2719.026
317.7162, 2761.254
318.1984, 2803.727
318.6805, 2846.925
319.1626, 2890.508
319.6447, 2933.486
320.1268, 2975.437
320.6089, 3018.896
321.0911, 3067.655
321.5732, 3118.491
322.0553, 3166.258
322.5374, 3208.326
323.0195, 3250.123
323.5016, 3296.514
323.9838, 3347.772
324.4659, 3402.173
324.9480, 3458.889
325.4301, 3518.819
325.9122, 3582.331
326.3943, 3650.408
326.8765, 3719.928
327.3586, 3788.480
327.8407, 3856.707
328.3228, 3926.574
328.8049, 3998.472
329.2870, 4072.339
329.7692, 4149.112
330.2513, 4228.209
330.7334, 4304.431
331.2155, 4375.379
331.6976, 4441.374
332.1797, 4503.868
332.6619, 4564.130
333.1440, 4617.615
333.6261, 4660.526
334.1082, 4694.075
334.5903, 4718.620
335.0724, 4732.791
335.5546, 4738.487
336.0367, 4738.424
336.5188, 4732.843
337.0009, 4719.092
337.4830, 4693.695
337.9651, 4658.971
338.4473, 4619.810
338.9294, 4576.037
339.4115, 4529.017
339.8936, 4478.788
340.3757, 4425.657
340.8578, 4373.252
341.3400, 4321.510
341.8221, 4272.439
342.3042, 4228.881
342.7863, 4191.382
343.2684, 4154.763
343.7505, 4114.604
344.2327, 4073.468
344.7148, 4037.898
345.1969, 4009.927
345.6790, 3985.966
346.1611, 3961.531
346.6432, 3936.884
347.1254, 3916.675
347.6075, 3904.723
348.0896, 3896.619
348.5717, 3887.519
349.0538, 3876.968
349.5359, 3865.778
350.0181, 3853.696
350.5002, 3841.411
350.9823, 3831.598
351.4644, 3826.343
351.9465, 3821.993
352.4286, 3816.917
352.9108, 3810.911
353.3929, 3802.578
353.8750, 3790.505
354.3571, 3776.438
354.8392, 3764.896
355.3214, 3757.110
355.8035, 3748.717
356.2856, 3738.916
356.7677, 3727.364
357.2498, 3713.521
357.7319, 3697.234
358.2141, 3678.504
358.6962, 3656.601
359.1783, 3631.148
359.6604, 3605.035
360.1425, 3579.293
360.6246, 3552.465
361.1068, 3522.662
361.5889, 3489.728
362.0710, 3456.936
362.5531, 3427.730
363.0352, 3401.730
363.5173, 3370.162
363.9995, 3328.555
364.4816, 3286.233
364.9637, 3248.682
365.4458, 3214.125
365.9279, 3177.405
366.4100, 3135.665
366.8922, 3090.454
367.3743, 3047.402
367.8564, 3006.771
368.3385, 2967.629
368.8206, 2930.494
369.3027, 2894.464
369.7849, 2859.227
370.2670, 2824.709
370.7491, 2789.529
371.2312, 2751.410
371.7133, 2708.432
372.1954, 2669.355
372.6776, 2636.374
373.1597, 2605.270
373.6418, 2573.364
374.1239, 2540.723
374.6060, 2508.735
375.0881, 2478.116
375.5703, 2448.987
376.0524, 2421.229
376.5345, 2394.788
377.0166, 2369.585
377.4987, 2345.843
377.9808, 2323.197
378.4630, 2300.784
378.9451, 2278.197
379.4272, 2256.346
379.9093, 2237.564
380.3914, 2223.857
380.8735, 2209.915
381.3557, 2195.109
381.8378, 2180.322
382.3199, 2165.794
382.8020, 2151.708
383.2841, 2138.675
383.7662, 2127.615
384.2484, 2118.793
384.7305, 2109.741
385.2126, 2099.470
385.6947, 2089.873
386.1768, 2080.875
386.6589, 2073.066
387.1411, 2067.675
387.6232, 2065.813
388.1053, 2066.274
388.5874, 2064.519
389.0695, 2058.677
389.5516, 2054.177
390.0338, 2052.951
390.5159, 2053.032
390.9980, 2052.616
391.4801, 2051.207
391.9622, 2049.712
392.4443, 2049.651
392.9265, 2051.332
393.4086, 2051.453
393.8907, 2047.394
394.3728, 2043.816
394.8549, 2043.610
395.3370, 2046.312
395.8192, 2049.720
396.3013, 2052.665
396.7834, 2055.249
397.2655, 2057.957
397.7476, 2061.182
398.2297, 2063.493
398.7119, 2062.558
399.1940, 2060.729
399.6761, 2061.612
400.1582, 2067.441
400.6403, 2073.196
401.1224, 2073.753
401.6046, 2069.294
402.0867, 2062.830
402.5688, 2054.482
403.0509, 2045.249
403.5330, 2036.331
404.0151, 2027.735
404.4973, 2019.122
404.9794, 2011.060
405.4615, 2002.687
405.9436, 1991.896
406.4257, 1978.204
406.9078, 1964.636
407.3900, 1953.893
407.8721, 1945.592
408.3542, 1937.095
408.8363, 1928.042
409.3184, 1918.967
409.8005, 1909.845
410.2827, 1900.948
410.7648, 1893.196
411.2469, 1886.850
411.7290, 1882.152
412.2111, 1880.015
412.6932, 1880.932
413.1754, 1882.623
413.6575, 1884.685
414.1396, 1887.329
414.6217, 1890.793
415.1038, 1895.104
415.5859, 1900.168
416.0681, 1905.952
416.5502, 1912.510
417.0323, 1919.218
417.5144, 1924.820
417.9965, 1931.803
418.4786, 1941.002
418.9608, 1952.323
419.4429, 1966.135
419.9250, 1982.773
420.4071, 2000.670
420.8892, 2015.412
421.3713, 2024.210
421.8535, 2033.841
422.3356, 2044.110
422.8177, 2055.544
423.2998, 2068.598
423.7819, 2083.309
424.2640, 2099.279
424.7462, 2116.593
425.2283, 2135.594
425.7104, 2151.786
426.1925, 2161.471
426.6746, 2172.263
427.1567, 2187.158
427.6389, 2204.391
428.1210, 2220.851
428.6031, 2234.912
429.0852, 2248.118
429.5673, 2263.978
430.0494, 2283.746
430.5316, 2301.741
431.0137, 2316.422
431.4958, 2328.822
431.9779, 2338.510
432.4600, 2345.816
432.9421, 2353.052
433.4243, 2362.588
433.9064, 2373.647
434.3885, 2382.646
434.8706, 2388.680
435.3527, 2394.461
435.8348, 2402.743
436.3170, 2411.822
436.7991, 2418.835
437.2812, 2423.086
437.7633, 2424.995
438.2454, 2423.629
438.7275, 2419.595
439.2097, 2417.672
439.6918, 2420.802
440.1739, 2424.798
440.6560, 2422.202
441.1381, 2412.410
441.6202, 2405.156
442.1024, 2406.788
442.5845, 2410.364
443.0666, 2407.468
443.5487, 2397.566
444.0308, 2385.999
444.5129, 2376.617
444.9951, 2369.163
445.4772, 2360.656
445.9593, 2349.378
446.4414, 2339.254
446.9235, 2332.841
447.4056, 2327.938
447.8878, 2320.602
448.3699, 2309.564
448.8520, 2297.869
449.3341, 2290.331
449.8162, 2289.101
450.2983, 2286.090
450.7805, 2280.486
451.2626, 2274.156
451.7447, 2267.805
452.2268, 2261.533
452.7089, 2255.028
453.1910, 2247.943
453.6732, 2240.807
454.1553, 2235.989
454.6374, 2234.472
455.1195, 2233.744
455.6016, 2232.856
456.0837, 2232.779
456.5659, 2234.458
457.0480, 2238.017
457.5301, 2242.638
458.0122, 2246.822
458.4943, 2250.658
458.9764, 2258.389
459.4586, 2272.861
459.9407, 2287.198
460.4228, 2296.875
460.9049, 2304.095
461.3870, 2312.720
461.8691, 2324.055
462.3513, 2337.384
462.8334, 2351.816
463.3155, 2367.366
463.7976, 2384.281
464.2797, 2402.293
464.7618, 2422.240
465.2440, 2445.170
465.7261, 2471.053
466.2082, 2498.422
466.6903, 2525.777
467.1724, 2554.997
467.6545, 2589.082
468.1367, 2627.929
468.6188, 2668.155
469.1009, 2706.620
469.5830, 2744.555
470.0651, 2789.323
470.5472, 2843.077
471.0294, 2899.409
471.5115, 2955.175
471.9936, 3013.134
472.4757, 3077.752
472.9578, 3149.797
473.4399, 3225.989
473.9221, 3302.309
474.4042, 3378.080
474.8863, 3457.906
475.3684, 3539.821
475.8505, 3627.932
476.3326, 3724.983
476.8148, 3828.820
477.2969, 3935.542
477.7790, 4042.504
478.2611, 4152.087
478.7432, 4267.964
479.2253, 4389.881
479.7075, 4517.704
480.1896, 4652.042
480.6717, 4791.289
481.1538, 4934.199
481.6359, 5081.125
482.1180, 5234.634
482.6002, 5397.616
483.0823, 5567.453
483.5644, 5739.783
484.0465, 5913.604
484.5286, 6090.721
485.0107, 6272.812
485.4929, 6458.085
485.9750, 6647.062
486.4571, 6839.895
486.9392, 7029.238
487.4213, 7213.350
487.9034, 7390.511
488.3856, 7557.222
488.8677, 7714.903
489.3498, 7856.491
489.8319, 7977.929
490.3140, 8076.313
490.7961, 8145.917
491.2783, 8189.688
491.7604, 8202.674
492.2425, 8182.372
492.7246, 8129.950
493.2067, 8047.077
493.6888, 7934.854
494.1710, 7793.521
494.6531, 7624.286
495.1352, 7422.939
495.6173, 7203.963
496.0994, 6963.602
496.5815, 6712.231
497.0637, 6450.200
497.5458, 6182.260
498.0279, 5915.335
498.5100, 5652.379
498.9921, 5396.123
499.4742, 5148.056
499.9564, 4907.575
500.4385, 4678.291
500.9206, 4458.751
501.4027, 4250.342
501.8848, 4056.968
502.3669, 3877.513
502.8491, 3709.578
503.3312, 3552.396
503.8133, 3405.134
504.2954, 3266.595
504.7775, 3137.706
505.2596, 3015.647
505.7418, 2899.459
506.2239, 2790.679
506.7060, 2690.354
507.1881, 2599.260
507.6702, 2514.882
508.1523, 2436.908
508.6345, 2364.530
509.1166, 2296.916
509.5987, 2233.670
510.0808, 2173.913
510.5629, 2116.721
511.0450, 2062.487
511.5272, 2012.052
512.0093, 1965.597
512.4914, 1921.848
512.9735, 1879.765
513.4556, 1840.280
513.9377, 1805.111
514.4199, 1774.637
514.9020, 1745.743
515.3841, 1714.885
515.8662, 1681.667
516.3483, 1649.591
516.8304, 1618.306
517.3126, 1588.731
517.7947, 1562.533
518.2768, 1537.919
518.7589, 1511.969
519.2410, 1483.427
519.7231, 1454.791
520.2053, 1429.911
520.6874, 1409.136
521.1695, 1387.600
521.6516, 1363.566
522.1337, 1340.113
522.6158, 1320.438
523.0980, 1303.024
523.5801, 1283.336
524.0622, 1258.175
524.5443, 1231.745
525.0264, 1208.945
525.5085, 1189.046
525.9907, 1169.034
526.4728, 1147.970
526.9549, 1125.771
527.4370, 1101.610
527.9191, 1074.512
528.4012, 1050.420
528.8834, 1032.506
529.3655, 1015.556
529.8476, 995.8514
530.3297, 973.9426
530.8118, 952.3497
531.2939, 932.4045
531.7761, 913.5736
532.2582, 894.4067
532.7403, 873.6720
533.2224, 854.9888
533.7045, 839.6205
534.1866, 825.0326
534.6688, 809.6513
535.1509, 793.6191
535.6330, 777.8807
536.1151, 763.0182
536.5972, 748.9061
537.0793, 734.8900
537.5615, 720.8402
538.0436, 707.7396
538.5257, 696.3566
539.0078, 685.8602
539.4899, 675.6444
539.9720, 665.6583
540.4542, 655.8565
540.9363, 646.2713
541.4184, 636.8740
541.9005, 627.3901
542.3826, 617.8672
542.8647, 609.2508
543.3469, 602.0945
543.8290, 596.0369
544.3111, 590.2437
544.7932, 585.0784
545.2753, 579.3514
545.7574, 571.8217
546.2396, 564.3857
546.7217, 559.1669
547.2038, 555.7987
547.6859, 552.0766
548.1680, 546.3301
548.6501, 539.1711
549.1323, 533.3400
549.6144, 529.5519
550.0965, 525.9542
550.5786, 522.6904
551.0607, 519.2327
551.5428, 515.0063
552.0250, 510.1282
552.5071, 505.3794
552.9892, 501.1843
553.4713, 497.5735
553.9534, 494.8202
554.4355, 493.1829
554.9177, 491.0453
555.3998, 487.1584
555.8819, 482.8792
556.3640, 480.2138
556.8461, 479.4320
557.3282, 478.2573
557.8104, 475.3976
558.2925, 471.9071
558.7746, 469.0061
559.2567, 466.7258
559.7388, 464.5949
560.2209, 462.2554
560.7031, 459.9482
561.1852, 458.4507
561.6673, 459.7746
562.1494, 458.9804
562.6315, 453.7643
563.1136, 448.1629
563.5958, 445.2194
564.0779, 444.7293
564.5600, 444.8241
565.0421, 444.2695
565.5242, 443.1626
566.0063, 441.7075
566.4885, 439.6412
566.9706, 438.0135
567.4527, 437.3182
567.9348, 436.9852
568.4169, 436.9659
568.8990, 437.1015
569.3812, 436.5514
569.8633, 434.4969
570.3454, 431.7068
570.8275, 429.1204
571.3096, 426.7665
571.7917, 424.8523
572.2739, 423.5246
572.7560, 422.5578
573.2381, 421.5720
573.7202, 420.5713
574.2023, 419.5294
574.6844, 418.2522
575.1666, 417.0963
575.6487, 416.3818
576.1308, 415.9944
576.6129, 415.6454
577.0950, 415.1900
577.5771, 414.5926
578.0593, 413.7011
578.5414, 412.2435
579.0235, 411.2326
579.5056, 411.7383
579.9877, 411.7336
580.4698, 409.6631
580.9520, 406.3898
581.4341, 403.9264
581.9162, 403.2462
582.3983, 403.6074
582.8804, 404.4044
583.3625, 405.5453
583.8447, 406.0070
584.3268, 405.5235
584.8089, 404.3521
585.2910, 402.1349
585.7731, 399.1089
586.2552, 397.8554
586.7374, 400.4912
587.2195, 402.9734
587.7016, 402.5986
588.1837, 400.8010
588.6658, 400.2208
589.1479, 401.6227
589.6301, 403.7442
590.1122, 405.0910
590.5943, 405.6116
591.0764, 405.8150
591.5585, 405.8540
592.0406, 405.3502
592.5228, 403.5332
593.0049, 401.4471
593.4870, 400.5179
593.9691, 401.0707
594.4512, 401.7240
594.9333, 400.7812
595.4155, 398.7583
595.8976, 398.0958
596.3797, 399.2015
596.8618, 400.4369
597.3439, 400.8658
597.8260, 400.7638
598.3082, 400.9523
598.7903, 401.8598
599.2724, 401.9838
599.7545, 399.9310
600.2366, 397.4204
600.7188, 396.1551
601.2009, 396.2997
601.6830, 397.5583
602.1651, 399.9102
602.6472, 402.7903
603.1293, 404.0061
603.6115, 402.2953
604.0936, 401.2236
604.5757, 401.6678
605.0578, 402.1955
605.5399, 401.6902
606.0220, 400.4581
606.5042, 399.7032
606.9863, 400.2885
607.4684, 401.4171
607.9505, 401.6325
608.4326, 400.9706
608.9147, 400.9204
609.3969, 402.1113
609.8790, 403.5950
610.3611, 404.4572
610.8432, 404.7261
611.3253, 404.4861
611.8074, 402.7542
612.2896, 401.5503
612.7717, 402.4170
613.2538, 404.3954
613.7359, 405.9471
614.2180, 406.5889
614.7001, 406.5593
615.1823, 406.0286
615.6644, 404.9477
616.1465, 404.3784
616.6286, 404.6446
617.1107, 404.9984
617.5928, 405.2329
618.0750, 405.4601
618.5571, 406.0125
619.0392, 406.9032
619.5213, 407.2424
620.0034, 405.6210
620.4855, 403.1487
620.9677, 402.4756
621.4498, 403.7591
621.9319, 405.5062
622.4140, 407.3600
622.8961, 408.8338
623.3782, 408.5331
623.8604, 405.4906
624.3425, 403.9558
624.8246, 405.8951
625.3067, 408.1705
625.7888, 408.3297
626.2709, 407.0821
626.7531, 406.7412
627.2352, 408.4723
627.7173, 410.8103
628.1994, 410.7827
628.6815, 407.7553
629.1636, 405.9094
629.6458, 406.2964
630.1279, 406.8332
630.6100, 406.0143
631.0921, 404.7264
631.5742, 404.7116
632.0563, 406.8272
632.5385, 408.9705
633.0206, 409.4698
633.5027, 408.9644
633.9848, 408.6281
634.4669, 408.6425
634.9490, 408.9718
635.4312, 409.6865
635.9133, 410.6368
636.3954, 411.1083
636.8775, 410.6947
637.3596, 410.3262
637.8417, 410.3544
638.3239, 410.1743
638.8060, 409.0653
639.2881, 407.3217
639.7702, 405.9140
640.2523, 405.4165
640.7344, 405.5862
641.2166, 406.0753
641.6987, 406.9016
642.1808, 407.7262
642.6629, 408.7297
643.1450, 409.3172
643.6271, 408.5968
644.1093, 406.9386
644.5914, 405.6888
645.0735, 405.0818
645.5556, 404.8653
646.0377, 405.2900
646.5198, 405.8833
647.0020, 405.7211
647.4841, 404.7660
647.9662, 404.1432
648.4483, 404.9757
648.9304, 406.9664
649.4125, 407.9606
649.8947, 407.2229
650.3768, 406.8553
650.8589, 407.8452
651.3410, 408.8122
651.8231, 408.5634
652.3052, 407.2899
652.7874, 406.2744
653.2695, 406.1673
653.7516, 406.6230
654.2337, 407.2003
654.7158, 407.9592
655.1979, 409.3490
655.6801, 411.6120
656.1622, 413.8773
656.6443, 415.2752
657.1264, 415.7981
657.6085, 415.4582
658.0906, 413.5350
658.5728, 411.7831
659.0549, 410.6125
659.5370, 409.8111
660.0191, 408.9745
660.5012, 408.1492
660.9833, 407.9621
661.4655, 409.1410
661.9476, 411.2267
662.4297, 413.0484
662.9118, 414.7528
663.3939, 414.7928
663.8760, 411.3994
664.3582, 407.6917
664.8403, 408.1122
665.3224, 412.2645
665.8045, 415.0154
666.2866, 414.2691
666.7687, 413.2708
667.2509, 413.6794
667.7330, 415.0894
668.2151, 417.0670
668.6972, 419.3648
669.1793, 421.1898
669.6614, 421.5543
670.1436, 420.6154
670.6257, 420.8109
671.1078, 423.2197
671.5899, 424.5300
672.0720, 422.3258
672.5541, 419.7176
673.0363, 419.3528
673.5184, 421.1869
674.0005, 423.0153
674.4826, 423.7572
674.9647, 424.1914
675.4468, 425.1569
675.9290, 426.4694
676.4111, 427.5000
676.8932, 428.0461
677.3753, 428.5269
677.8574, 429.4929
678.3395, 430.9857
678.8217, 431.8881
679.3038, 431.2211
679.7859, 431.2285
680.2680, 432.7657
680.7501, 434.8045
681.2322, 436.4116
681.7144, 437.5122
682.1965, 438.6676
682.6786, 440.4859
683.1607, 442.3952
683.6428, 443.1098
684.1249, 442.8309
684.6071, 443.4721
685.0892, 445.8671
685.5713, 448.3858
686.0534, 448.9415
686.5355, 447.3368
687.0176, 447.2785
687.4998, 449.8598
687.9819, 452.4478
688.4640, 454.2143
688.9461, 455.7716
689.4282, 458.0587
689.9103, 460.9695
690.3925, 463.2672
690.8746, 463.7320
691.3567, 463.2009
691.8388, 463.5104
692.3209, 464.6598
692.8030, 466.8648
693.2852, 470.6481
693.7673, 474.6576
694.2494, 477.6304
694.7315, 479.5826
695.2136, 480.9568
695.6957, 480.5631
696.1779, 481.0690
696.6600, 483.9871
697.1421, 487.9234
697.6242, 491.2575
698.1063, 493.8607
698.5884, 496.7708
699.0706, 500.9003
699.5527, 505.6803
700.0348, 509.4171
700.5169, 511.9233
700.9990, 514.5250
701.4811, 517.3282
701.9633, 520.5097
702.4454, 524.2060
702.9275, 528.3939
703.4096, 533.2021
703.8917, 539.1952
704.3738, 545.0477
704.8560, 549.7546
705.3381, 554.3232
705.8202, 560.2073
706.3023, 567.3562
706.7844, 574.6191
707.2665, 581.2067
707.7487, 587.3029
708.2308, 593.0794
708.7129, 598.2867
709.1950, 604.3821
709.6771, 611.9830
710.1592, 619.9164
710.6414, 627.0114
711.1235, 633.9158
711.6056, 642.1969
712.0877, 652.7774
712.5698, 663.1756
713.0519, 671.4799
713.5341, 679.2911
714.0162, 688.7285
714.4983, 699.6078
714.9804, 710.3701
715.4625, 720.1891
715.9446, 729.3450
716.4268, 738.0994
716.9089, 745.8368
717.3910, 756.2556
717.8731, 771.8705
718.3552, 787.0110
718.8373, 798.1256
719.3195, 807.5594
719.8016, 818.6807
720.2837, 832.1942
720.7658, 846.3315
721.2479, 860.3896
721.7300, 874.5331
722.2122, 888.9821
722.6943, 903.7283
723.1764, 919.1237
723.6585, 935.3483
724.1406, 951.0637
724.6227, 963.8261
725.1049, 973.2855
725.5870, 983.8059
726.0691, 995.3381
726.5512, 1007.976
727.0333, 1022.061
727.5154, 1037.013
727.9976, 1052.123
728.4797, 1067.309
728.9618, 1083.045
729.4439, 1099.806
729.9260, 1116.884
730.4081, 1134.193
730.8903, 1151.156
731.3724, 1166.149
731.8545, 1178.797
732.3366, 1190.804
732.8187, 1204.039
733.3008, 1218.370
733.7830, 1232.399
734.2651, 1245.553
734.7472, 1259.663
735.2293, 1276.174
735.7114, 1292.944
736.1935, 1307.607
736.6757, 1320.922
737.1578, 1336.775
737.6399, 1358.479
738.1220, 1380.297
738.6041, 1397.777
739.0862, 1413.079
739.5684, 1429.305
740.0505, 1446.934
740.5326, 1465.260
741.0147, 1483.859
741.4968, 1502.537
741.9789, 1520.632
742.4611, 1537.663
742.9432, 1555.795
743.4253, 1575.530
743.9074, 1595.955
744.3895, 1617.750
744.8716, 1639.558
745.3538, 1658.615
745.8359, 1673.790
746.3180, 1688.571
746.8001, 1704.431
747.2822, 1720.623
747.7643, 1736.493
748.2465, 1751.991
748.7286, 1767.986
749.2107, 1784.823
749.6928, 1800.542
750.1749, 1811.978
750.6570, 1818.964
751.1392, 1825.254
751.6213, 1830.120
752.1034, 1836.118
752.5855, 1846.236
753.0676, 1856.607
753.5497, 1862.086
754.0319, 1862.476
754.5140, 1862.949
754.9961, 1865.618
755.4782, 1867.773
755.9603, 1867.000
756.4424, 1864.936
756.9246, 1864.373
757.4067, 1865.718
757.8888, 1867.089
758.3709, 1866.973
758.8530, 1865.520
759.3351, 1862.891
759.8173, 1858.848
760.2994, 1855.768
760.7815, 1854.349
761.2636, 1853.735
761.7457, 1853.671
762.2278, 1853.895
762.7100, 1853.134
763.1921, 1850.918
763.6742, 1848.442
764.1563, 1844.598
764.6384, 1841.756
765.1205, 1842.385
765.6027, 1845.707
766.0848, 1849.348
766.5669, 1852.241
767.0490, 1854.789
767.5311, 1857.454
768.0132, 1860.226
768.4954, 1862.922
768.9775, 1865.455
769.4596, 1868.620
769.9417, 1872.899
770.4238, 1877.877
770.9059, 1882.737
771.3881, 1887.101
771.8702, 1892.904
772.3523, 1901.392
772.8344, 1909.792
773.3165, 1915.901
773.7986, 1922.111
774.2808, 1931.472
774.7629, 1944.115
775.2450, 1957.554
775.7271, 1970.389
776.2092, 1982.781
776.6913, 1994.058
777.1735, 2004.909
777.6556, 2018.438
778.1377, 2035.483
778.6198, 2053.464
779.1019, 2070.002
779.5840, 2085.663
780.0662, 2103.322
780.5483, 2124.592
781.0304, 2144.809
781.5125, 2161.917
781.9946, 2179.636
782.4767, 2199.693
782.9589, 2221.779
783.4410, 2244.905
783.9231, 2268.796
784.4052, 2294.458
784.8873, 2323.323
785.3694, 2353.791
785.8516, 2383.284
786.3337, 2412.386
786.8158, 2443.410
787.2979, 2477.292
787.7800, 2513.464
788.2621, 2551.655
788.7443, 2591.636
789.2264, 2631.790
789.7085, 2670.304
790.1906, 2714.384
790.6727, 2769.745
791.1548, 2828.669
791.6370, 2883.169
792.1191, 2934.092
792.6012, 2985.944
793.0833, 3038.997
793.5654, 3093.887
794.0475, 3151.331
794.5297, 3210.077
795.0118, 3268.479
795.4939, 3327.165
795.9760, 3388.366
796.4581, 3453.458
796.9402, 3518.128
797.4224, 3588.080
797.9045, 3655.516
798.3866, 3726.532
798.8687, 3801.117
799.3508, 3879.480
799.8329, 3962.413
800.3151, 4047.990
800.7972, 4131.007
801.2793, 4209.922
801.7614, 4293.540
802.2435, 4382.593
802.7256, 4475.204
803.2078, 4571.237
803.6899, 4670.267
804.1720, 4772.257
804.6541, 4877.052
805.1362, 4986.330
805.6183, 5102.151
806.1005, 5220.792
806.5826, 5335.597
807.0647, 5450.229
807.5468, 5572.972
808.0289, 5705.503
808.5110, 5843.507
808.9932, 5984.417
809.4753, 6128.323
809.9574, 6276.966
810.4395, 6431.427
810.9216, 6588.477
811.4037, 6745.297
811.8859, 6907.917
812.3680, 7080.744
812.8501, 7260.578
813.3322, 7441.768
813.8143, 7622.513
814.2964, 7813.371
814.7786, 8019.553
815.2607, 8234.670
815.7428, 8454.522
816.2249, 8680.647
816.7070, 8915.493
817.1891, 9158.065
817.6713, 9403.642
818.1534, 9647.045
818.6355, 9897.502
819.1176, 10142.76
819.5997, 10400.85
820.0818, 10657.50
820.5640, 10911.32
821.0461, 11163.36
821.5282, 11414.74
822.0103, 11664.77
822.4924, 11909.20
822.9745, 12152.70
823.4567, 12384.11
823.9388, 12599.30
824.4209, 12808.47
824.9030, 13018.34
825.3851, 13223.96
825.8672, 13415.30
826.3494, 13592.19
826.8315, 13769.84
827.3136, 13965.10
827.7957, 14155.26
828.2778, 14317.04
828.7599, 14460.38
829.2421, 14605.09
829.7242, 14753.89
830.2063, 14894.75
830.6884, 15019.60
831.1705, 15129.27
831.6526, 15227.40
832.1348, 15313.62
832.6169, 15383.14
833.0990, 15435.91
833.5811, 15468.79
834.0632, 15479.54
834.5453, 15469.55
835.0275, 15443.04
835.5096, 15404.34
835.9917, 15332.98
836.4738, 15223.04
836.9559, 15086.95
837.4380, 14926.02
837.9202, 14743.02
838.4023, 14537.79
838.8844, 14311.81
839.3665, 14070.19
839.8486, 13812.22
840.3307, 13542.12
840.8129, 13265.51
841.2950, 12980.52
841.7771, 12680.79
842.2592, 12368.24
842.7413, 12053.88
843.2234, 11747.11
843.7056, 11445.51
844.1877, 11144.74
844.6698, 10846.20
845.1519, 10548.84
845.6340, 10251.23
846.1161, 9963.580
846.5983, 9691.340
847.0804, 9428.769
847.5625, 9164.276
848.0446, 8896.135
848.5267, 8643.222
849.0089, 8411.122
849.4910, 8188.442
849.9731, 7972.423
850.4552, 7763.016
850.9373, 7560.241
851.4194, 7363.850
851.9016, 7173.750
852.3837, 6989.095
852.8658, 6809.505
853.3479, 6633.729
853.8300, 6461.386
854.3121, 6290.908
854.7943, 6123.750
855.2764, 5966.682
855.7585, 5823.615
856.2406, 5688.959
856.7227, 5554.878
857.2048, 5422.274
857.6870, 5292.602
858.1691, 5165.519
858.6512, 5045.686
859.1333, 4937.655
859.6154, 4831.829
860.0975, 4716.369
860.5797, 4594.946
861.0618, 4486.529
861.5439, 4397.600
862.0260, 4310.743
862.5081, 4223.534
862.9902, 4138.056
863.4724, 4056.212
863.9545, 3976.714
864.4366, 3896.404
864.9187, 3814.192
865.4008, 3734.373
865.8829, 3659.018
866.3651, 3587.682
866.8472, 3520.392
867.3293, 3455.927
867.8114, 3389.960
868.2935, 3321.991
868.7756, 3254.808
869.2578, 3190.471
869.7399, 3128.911
870.2220, 3071.032
870.7041, 3017.174
871.1862, 2961.347
871.6683, 2902.501
872.1505, 2843.714
872.6326, 2785.930
873.1147, 2730.200
873.5968, 2678.166
874.0789, 2630.622
874.5610, 2582.894
875.0432, 2535.656
875.5253, 2487.890
876.0074, 2438.199
876.4895, 2388.955
876.9716, 2341.872
877.4537, 2296.732
877.9359, 2251.671
878.4180, 2205.816
878.9001, 2160.110
879.3822, 2113.732
879.8643, 2068.596
880.3464, 2027.123
880.8286, 1988.546
881.3107, 1950.124
881.7928, 1910.971
882.2749, 1872.404
882.7570, 1836.204
883.2391, 1801.759
883.7213, 1767.388
884.2034, 1733.142
884.6855, 1699.798
885.1676, 1667.595
885.6497, 1636.413
886.1318, 1606.403
886.6140, 1576.770
887.0961, 1544.613
887.5782, 1508.388
888.0603, 1473.384
888.5424, 1439.209
889.0245, 1406.922
889.5067, 1377.775
889.9888, 1350.168
890.4709, 1322.121
890.9530, 1293.465
891.4351, 1266.046
891.9172, 1241.789
892.3994, 1216.715
892.8815, 1187.401
893.3636, 1157.859
893.8457, 1131.984
894.3278, 1109.522
894.8099, 1088.696
895.2921, 1068.970
895.7742, 1048.811
896.2563, 1026.150
896.7384, 1002.479
897.2205, 980.6710
897.7026, 960.5436
898.1848, 941.2429
898.6669, 922.3936
899.1490, 904.0572
899.6311, 886.1960
900.1132, 868.7791
900.5953, 851.7772
901.0775, 835.1832
901.5596, 819.3616
902.0417, 804.4310
902.5238, 790.1946
903.0059, 776.5753
903.4880, 763.5586
903.9702, 751.1213
904.4523, 739.5489
904.9344, 727.4941
905.4165, 713.2039
905.8986, 700.6981
906.3807, 692.0759
906.8629, 684.5061
907.3450, 675.3575
907.8271, 664.9919
908.3092, 655.7210
908.7913, 648.4714
909.2734, 641.5195
909.7556, 633.8094
910.2377, 626.2576
910.7198, 619.3995
911.2019, 613.4154
911.6840, 608.6988
912.1661, 605.2904
912.6483, 602.3244
913.1304, 599.2310
913.6125, 596.0090
914.0946, 592.0207
914.5767, 587.9372
915.0588, 586.4114
915.5410, 587.6476
916.0231, 588.9174
916.5052, 588.4723
916.9873, 587.2083
917.4694, 586.7322
917.9515, 587.0466
918.4337, 588.3506
918.9158, 591.0185
919.3979, 592.7994
919.8800, 592.3792
920.3621, 591.9098
920.8442, 593.9928
921.3264, 598.2709
921.8085, 600.8378
922.2906, 599.6068
922.7727, 600.1076
923.2548, 604.0021
923.7369, 608.0561
924.2191, 610.7618
924.7012, 612.6672
925.1833, 614.7736
925.6654, 617.2374
926.1475, 618.8605
926.6296, 619.1204
927.1118, 618.6392
927.5939, 617.8228
928.0760, 616.3698
928.5581, 614.2130
929.0402, 611.0907
929.5223, 606.1406
930.0045, 598.7177
930.4866, 591.0620
930.9687, 586.0967
931.4508, 581.6110
931.9329, 573.9641
932.4150, 563.7325
932.8972, 552.9867
933.3793, 542.4185
933.8614, 532.0975
934.3435, 522.1773
934.8256, 512.4933
935.3077, 502.6362
935.7899, 492.6382
936.2720, 482.5812
936.7541, 472.5027
937.2362, 462.7755
937.7183, 453.6206
938.2004, 444.8077
938.6826, 435.9009
939.1647, 426.8620
939.6468, 418.9620
940.1289, 412.5313
940.6110, 406.4868
941.0931, 400.8332
941.5753, 395.3224
942.0574, 389.5660
942.5395, 383.8576
943.0216, 378.9361
943.5037, 375.0766
943.9858, 371.2126
944.4680, 367.1037
944.9501, 363.1774
945.4322, 359.2724
945.9143, 355.8397
946.3964, 353.9757
946.8785, 353.1411
947.3607, 350.6652
947.8428, 344.3002
948.3249, 339.0569
948.8070, 338.6634
949.2891, 339.7480
949.7712, 339.5367
950.2534, 338.1779
950.7355, 336.5414
951.2176, 334.8427
951.6997, 332.5667
952.1818, 328.7225
952.6639, 324.8896
953.1461, 323.8726
953.6282, 324.3951
954.1103, 323.3015
954.5924, 320.4812
955.0745, 317.8597
955.5566, 316.3806
956.0388, 315.3360
956.5209, 313.7354
957.0030, 311.7172
957.4851, 309.9222
957.9672, 308.3441
958.4493, 307.3837
958.9315, 307.3040
959.4136, 306.2603
959.8957, 302.5684
960.3778, 297.5920
960.8599, 294.9716
961.3420, 295.2637
961.8242, 295.1470
962.3063, 294.6286
962.7884, 293.6716
963.2705, 292.1882
963.7526, 290.3399
964.2347, 287.9780
964.7169, 285.3006
965.1990, 283.7495
965.6811, 284.5465
966.1632, 284.6053
966.6453, 283.7403
967.1274, 282.3477
967.6096, 279.3450
968.0917, 276.6319
968.5738, 277.5938
969.0559, 282.0830
969.5380, 283.8608
970.0201, 279.1124
970.5023, 274.5173
970.9844, 272.9016
971.4665, 271.9388
971.9486, 269.3119
972.4307, 265.9591
972.9128, 264.3868
973.3950, 265.1929
973.8771, 265.3768
974.3592, 261.9573
974.8413, 258.3558
975.3234, 258.2181
975.8055, 259.4753
976.2877, 259.0231
976.7698, 256.8193
977.2519, 254.3126
977.7340, 252.1532
978.2161, 250.5658
978.6982, 250.5284
979.1804, 250.8510
979.6625, 248.7693
980.1446, 245.0373
980.6267, 242.1798
981.1088, 240.7752
981.5909, 240.5201
982.0731, 241.3790
982.5552, 242.2534
983.0373, 240.7901
983.5194, 237.3821
984.0015, 234.8213
984.4836, 233.1885
984.9658, 232.1971
985.4479, 231.8187
985.9300, 231.5519
986.4121, 231.0484
986.8942, 230.1163
987.3763, 227.7041
987.8585, 223.3076
988.3406, 220.9317
988.8227, 221.3412
989.3048, 221.8377
989.7869, 221.3746
990.2690, 220.4373
990.7512, 219.6301
991.2333, 218.9052
991.7154, 217.6655
992.1975, 215.6982
992.6796, 213.6255
993.1617, 210.9995
993.6439, 208.9631
994.1260, 208.5457
994.6081, 208.7327
995.0902, 208.0797
995.5723, 206.5658
996.0544, 204.9276
996.5366, 202.5503
997.0187, 200.9632
997.5008, 201.3511
997.9829, 201.6400
998.4650, 200.2704
998.9471, 198.0537
999.4293, 196.4775
999.9114, 195.7621
1000.393, 195.0025
1000.876, 193.8427
1001.358, 192.7332
1001.840, 191.9064
1002.322, 191.1843
1002.804, 190.6571
1003.286, 190.0407
1003.768, 188.5311
1004.250, 185.8392
1004.733, 183.7070
1005.215, 183.7278
1005.697, 183.9558
1006.179, 182.5538
1006.661, 180.7374
1007.143, 180.2966
1007.625, 181.0120
1008.107, 181.5024
1008.589, 181.2001
1009.072, 180.4766
1009.554, 179.4007
1010.036, 178.2770
1010.518, 177.5918
1011.000, 177.0938
1011.482, 176.1812
1011.964, 174.8575
1012.446, 173.6847
1012.929, 172.9823
1013.411, 172.3222
1013.893, 170.9201
1014.375, 169.3199
1014.857, 169.1586
1015.339, 169.7925
1015.821, 167.9639
1016.303, 163.5269
1016.785, 161.7686
1017.268, 166.7140
1017.750, 173.5845
1018.232, 174.2801
1018.714, 170.1629
1019.196, 166.4577
1019.678, 163.3906
1020.160, 161.0477
1020.642, 159.4444
1021.125, 158.7230
1021.607, 159.1311
1022.089, 159.9693
1022.571, 159.4308
1023.053, 159.1774
1023.535, 158.7160
1024.017, 157.1668
1024.499, 156.7014
1024.981, 154.6595
1025.464, 152.6812
1025.946, 152.3170
1026.428, 153.0555
1026.910, 153.3486
1027.392, 153.1820
1027.874, 152.6631
1028.356, 151.7328
1028.838, 150.6425
1029.321, 149.2477
1029.803, 148.4779
1030.285, 149.5426
1030.767, 151.7968
1031.249, 152.2902
1031.731, 150.6068
1032.213, 148.6602
1032.695, 146.1994
1033.177, 144.2519
1033.660, 143.2453
1034.142, 142.8308
1034.624, 142.7024
1035.106, 142.8446
1035.588, 143.2226
1036.070, 144.2909
1036.552, 144.4656
1037.034, 143.2242
1037.516, 141.9201
1037.999, 140.8220
1038.481, 140.1486
1038.963, 140.3668
1039.445, 141.3063
1039.927, 141.6319
1040.409, 140.8396
1040.891, 140.3271
1041.373, 140.3808
1041.855, 140.3592
1042.338, 139.7810
1042.820, 139.1980
1043.302, 139.5571
1043.784, 140.6007
1044.266, 140.3243
1044.748, 137.2129
1045.230, 135.2416
1045.712, 135.3336
1046.195, 135.7381
1046.677, 135.8279
1047.159, 135.8366
1047.641, 136.0390
1048.123, 136.4196
1048.605, 136.8237
1049.087, 137.6917
1049.569, 137.7500
1050.052, 135.9819
1050.534, 134.3504
1051.016, 133.9304
1051.498, 133.9865
1051.980, 133.7639
1052.462, 133.2218
1052.944, 132.4759
1053.426, 131.0156
1053.908, 130.4297
1054.391, 131.8972
1054.873, 133.3744
1055.355, 134.1480
1055.837, 134.1560
1056.319, 133.1912
1056.801, 131.4186
1057.283, 129.4853
1057.765, 126.9951
1058.248, 125.6790
1058.730, 126.5084
1059.212, 128.1087
1059.694, 130.8721
1060.176, 133.1821
1060.658, 132.6995
1061.140, 129.9908
1061.622, 128.2572
1062.104, 128.9570
1062.587, 128.9734
1063.069, 125.5801
1063.551, 123.0190
1064.033, 125.1205
1064.515, 128.4512
1064.997, 128.8718
1065.479, 126.6633
1065.961, 124.4583
1066.443, 122.7013
1066.926, 122.1290
1067.408, 124.1933
1067.890, 126.2124
1068.372, 126.5862
1068.854, 126.0459
1069.336, 125.3259
1069.818, 124.5541
1070.300, 123.7235
1070.782, 122.8337
1071.265, 121.8522
1071.747, 120.3505
1072.229, 119.2239
1072.711, 119.3365
1073.193, 119.8597
1073.675, 119.9725
1074.157, 119.6653
1074.639, 119.1356
1075.122, 118.3639
1075.604, 117.9653
1076.086, 118.5269
1076.568, 119.1789
1077.050, 119.4623
1077.532, 119.5394
1078.014, 119.5493
1078.496, 119.5197
1078.979, 119.4165
1079.461, 119.2185
1079.943, 119.1932
1080.425, 120.3728
1080.907, 120.6400
1081.389, 117.2343
1081.871, 113.7288
1082.353, 114.2812
1082.835, 117.2538
1083.318, 118.4782
1083.800, 117.0343
1084.282, 115.8776
1084.764, 116.7181
1085.246, 117.5926
1085.728, 117.5033
1086.210, 117.0458
1086.692, 116.5893
1087.175, 116.2194
1087.657, 116.1181
1088.139, 116.2675
1088.621, 116.0358
1089.103, 114.6055
1089.585, 113.5395
1090.067, 113.9596
1090.549, 114.5536
1091.031, 114.0928
1091.514, 113.2471
1091.996, 113.2443
1092.478, 114.1200
1092.960, 114.6872
1093.442, 114.3335
1093.924, 114.0217
1094.406, 114.1430
1094.888, 114.3859
1095.370, 114.9384
1095.853, 115.2392
1096.335, 113.9944
1096.817, 111.6839
1097.299, 111.1785
1097.781, 114.3085
1098.263, 116.5110
1098.745, 115.8129
1099.227, 114.4564
1099.709, 113.6435
1100.192, 112.7501
1100.674, 110.2008
1101.156, 106.9474
1101.638, 106.5578
1102.120, 110.7539
1102.602, 113.7842
1103.084, 113.6534
1103.566, 112.8788
1104.049, 112.0366
1104.531, 111.3355
1105.013, 110.9721
1105.495, 110.8455
1105.977, 110.7219
1106.459, 110.5788
1106.941, 110.3911
1107.423, 109.7882
1107.906, 109.6510
1108.388, 110.9176
1108.870, 112.0034
1109.352, 111.7807
1109.834, 110.7085
1110.316, 109.6170
1110.798, 108.5591
1111.280, 107.2347
1111.762, 104.2513
1112.245, 103.0620
1112.727, 105.5744
1113.209, 108.2576
1113.691, 109.6510
1114.173, 110.1077
1114.655, 109.8391
1115.137, 108.9247
1115.619, 108.3929
1116.102, 108.5546
1116.584, 108.5493
1117.066, 108.2882
1117.548, 107.9658
1118.030, 107.5145
1118.512, 107.1838
1118.994, 107.4115
1119.476, 107.9274
1119.958, 107.5515
1120.441, 105.7021
1120.923, 104.8803
1121.405, 105.6816
1121.887, 106.2194
1122.369, 106.0366
1122.851, 105.3573
1123.333, 103.9332
1123.815, 102.5655
1124.297, 103.2323
1124.780, 106.1786
1125.262, 107.9789
1125.744, 108.4986
1126.226, 108.1269
1126.708, 106.4592
1127.190, 105.6181
1127.672, 107.1385
1128.154, 109.1513
1128.636, 108.7188
1129.119, 106.2738
1129.601, 105.6948
1130.083, 107.2276
1130.565, 107.7761
1131.047, 106.9319
1131.529, 105.8881
1132.011, 105.0081
1132.493, 104.9401
1132.976, 106.4178
1133.458, 109.0608
1133.940, 112.4751
1134.422, 116.3883
1134.904, 116.6254
1135.386, 113.1993
1135.868, 110.1843
1136.350, 108.6889
1136.833, 107.7357
1137.315, 106.6578
1137.797, 105.5187
1138.279, 104.2658
1138.761, 103.0743
1139.243, 102.7864
1139.725, 103.1404
1140.207, 102.6674
1140.689, 101.4107
1141.172, 101.5102
1141.654, 103.9582
1142.136, 106.5648
1142.618, 106.7200
1143.100, 108.0094
1143.582, 106.5985
1144.064, 108.0537
1144.546, 108.0915
1145.029, 107.0392
1145.511, 106.6909
1145.993, 107.4591
1146.475, 107.9358
1146.957, 106.8617
1147.439, 105.8986
1147.921, 107.2635
1148.403, 109.1814
1148.885, 109.4661
1149.368, 108.7099
1149.850, 108.0947
1150.332, 107.7746
1150.814, 107.1641
1151.296, 105.8413
1151.778, 105.3640
1152.260, 108.0297
1152.742, 110.2811
1153.224, 108.9218
1153.707, 106.5335
1154.189, 106.0621
1154.671, 106.8714
1155.153, 106.6799
1155.635, 105.0095
1156.117, 104.2843
1156.599, 106.0354
1157.081, 107.7469
1157.563, 108.9328
1158.046, 109.5233
1158.528, 109.4351
1159.010, 108.7494
1159.492, 107.1191
1159.974, 104.8006
1160.456, 103.7505
1160.938, 104.6879
1161.420, 105.8183
1161.903, 107.6515
1162.385, 108.8378
1162.867, 108.7645
1163.349, 108.1771
1163.831, 107.3705
1164.313, 106.6356
1164.795, 106.7843
1165.277, 107.9841
1165.760, 108.6498
1166.242, 108.6606
1166.724, 108.4994
1167.206, 108.1867
1167.688, 107.8951
1168.170, 107.7442
1168.652, 107.5201
1169.134, 106.7750
1169.616, 105.8716
1170.099, 107.0155
1170.581, 110.2541
1171.063, 111.1294
1171.545, 109.3519
1172.027, 108.4640
1172.509, 109.5551
1172.991, 110.7326
1173.473, 110.5307
1173.956, 109.7189
1174.438, 109.5133
1174.920, 109.8130
1175.402, 110.3270
1175.884, 111.0528
1176.366, 112.3453
1176.848, 113.9569
1177.330, 114.3321
1177.813, 112.8606
1178.295, 111.1703
1178.777, 110.6584
1179.259, 110.7445
1179.741, 110.8764
1180.223, 111.0210
1180.705, 111.2978
1181.187, 111.4853
1181.669, 111.1465
1182.151, 110.2262
1182.634, 108.8261
1183.116, 106.6900
1183.598, 105.2542
1184.080, 105.4629
1184.562, 106.5446
1185.044, 108.8581
1185.526, 111.0514
1186.008, 111.4990
1186.490, 110.7801
1186.973, 110.5137
1187.455, 110.9934
1187.937, 111.3379
1188.419, 111.9095
1188.901, 111.5331
1189.383, 108.6173
1189.865, 106.2969
1190.347, 106.8346
1190.830, 108.2264
1191.312, 108.0512
1191.794, 106.8427
1192.276, 107.4470
1192.758, 111.1278
1193.240, 111.8777
1193.722, 107.6075
1194.204, 107.3090
1194.687, 114.8540
1195.169, 120.7632
1195.651, 118.6844
1196.133, 112.4887
1196.615, 107.8506
1197.097, 104.8907
1197.579, 104.8698
1198.061, 107.5895
1198.543, 109.0674
1199.026, 109.0098
1199.508, 109.1352
1199.990, 109.9854
1200.472, 110.1726
1200.954, 108.3785
1201.436, 106.3993
1201.918, 107.6901
1202.400, 110.3250
1202.883, 110.1066
1203.365, 108.1515
1203.847, 107.1028
1204.329, 107.2240
1204.811, 107.8188
1205.293, 108.5973
1205.775, 109.0691
1206.257, 107.8282
1206.740, 107.6540
1207.222, 112.3890
1207.704, 117.3244
1208.186, 117.9951
1208.668, 116.0977
1209.150, 114.1179
1209.632, 112.4714
1210.114, 111.0459
1210.596, 109.6827
1211.078, 109.0068
1211.561, 109.9486
1212.043, 110.4690
1212.525, 109.3630
1213.007, 108.2911
1213.489, 108.6518
1213.971, 107.6879
1214.453, 108.9409
1214.935, 107.2624
1215.417, 106.6185
1215.900, 107.2249
1216.382, 108.1252
1216.864, 109.3988
1217.346, 110.3516
1217.828, 110.7245
1218.310, 110.9837
1218.792, 111.5319
1219.274, 112.0121
1219.757, 111.6057
1220.239, 110.5850
1220.721, 110.2011
1221.203, 110.4050
1221.685, 111.2855
1222.167, 112.5816
1222.649, 112.8308
1223.131, 111.6189
1223.614, 110.3217
1224.096, 109.9456
1224.578, 110.0374
1225.060, 110.2834
1225.542, 110.5513
1226.024, 110.8804
1226.506, 110.9969
1226.988, 110.1974
1227.470, 108.8490
1227.953, 108.1061
1228.435, 108.2961
1228.917, 108.9297
1229.399, 110.4558
1229.881, 111.4743
1230.363, 111.1329
1230.845, 110.6115
1231.327, 111.0357
1231.810, 111.3396
1232.292, 109.6457
1232.774, 106.7089
1233.256, 105.5835
1233.738, 106.5692
1234.220, 108.2285
1234.702, 111.0379
1235.184, 112.9452
1235.667, 113.5327
1236.149, 113.1694
1236.631, 111.8119
1237.113, 110.7065
1237.595, 111.5289
1238.077, 113.4371
1238.559, 113.8061
1239.041, 112.9637
1239.523, 112.5940
1240.005, 112.6621
1240.488, 112.6074
1240.970, 112.3015
1241.452, 111.6852
1241.934, 110.7171
1242.416, 110.2128
1242.898, 111.5627
1243.380, 112.9984
1243.862, 112.4201
1244.344, 111.2379
1244.827, 110.8694
1245.309, 111.1771
1245.791, 111.7339
1246.273, 112.4778
1246.755, 113.6815
1247.237, 115.9591
1247.719, 116.7920
1248.201, 114.0308
1248.684, 111.9854
1249.166, 112.5805
1249.648, 113.4908
1250.130, 113.5558
1250.612, 113.0378
1251.094, 112.1103
1251.576, 110.9283
1252.058, 110.5659
1252.541, 111.1521
1253.023, 111.6251
1253.505, 111.9471
1253.987, 112.2153
1254.469, 112.4430
1254.951, 113.4011
1255.433, 115.6232
1255.915, 117.0727
1256.397, 114.5566
1256.880, 110.5960
1257.362, 110.1663
1257.844, 111.9690
1258.326, 114.5504
1258.808, 116.7629
1259.290, 115.6030
1259.772, 111.6519
1260.254, 109.7920
1260.737, 112.2388
1261.219, 114.9730
1261.701, 116.5259
1262.183, 116.9749
1262.665, 115.8599
1263.147, 114.1850
1263.629, 111.8874
1264.111, 109.9775
1264.594, 110.2473
1265.076, 112.2539
1265.558, 113.2026
1266.040, 112.6400
1266.522, 112.6884
1267.004, 113.5193
1267.486, 114.4693
1267.968, 115.5836
1268.450, 115.8053
1268.932, 114.4426
1269.415, 112.9983
1269.897, 113.2242
1270.379, 114.4479
1270.861, 115.0442
1271.343, 115.2852
1271.825, 116.3258
1272.307, 116.1036
1272.789, 117.5561
1273.271, 116.0700
1273.754, 115.1232
1274.236, 115.4055
1274.718, 115.6528
1275.200, 114.5780
1275.682, 113.9342
1276.164, 115.5245
1276.646, 117.0683
1277.128, 116.7850
1277.611, 115.6530
1278.093, 114.4234
1278.575, 113.4391
1279.057, 113.6979
1279.539, 115.4169
1280.021, 116.7603
1280.503, 117.8956
1280.985, 117.9715
1281.468, 116.5698
1281.950, 115.5267
1282.432, 115.5558
1282.914, 115.8714
1283.396, 115.8058
1283.878, 115.7008
1284.360, 116.3565
1284.842, 117.3655
1285.324, 117.5981
##END=



