##NAMES=Tsumcorite
##RRUFFID=R110036
##IDEAL CHEMISTRY=Pb^2+^Zn^2+^_2_(As^5+^O_4_)_2_&#183;2H_2_O
##LOCALITY=Tsumeb, Namibia
##OWNER=RRUFF
##SOURCE=William W Pinch
##DESCRIPTION=Orange wedge-shaped crystals
##STATUS=The identification of this mineral has been confirmed only by single crystal X-ray diffraction.
##URL=rruff.info/R110036
177.2732, 1343.203
177.7553, 1358.211
178.2374, 1367.541
178.7195, 1373.697
179.2017, 1376.041
179.6838, 1376.884
180.1659, 1379.907
180.6480, 1385.302
181.1301, 1391.138
181.6122, 1395.112
182.0944, 1397.937
182.5765, 1401.804
183.0586, 1409.061
183.5407, 1417.816
184.0228, 1423.879
184.5049, 1426.777
184.9871, 1429.109
185.4692, 1433.886
185.9513, 1440.803
186.4334, 1448.090
186.9155, 1455.193
187.3976, 1462.048
187.8798, 1468.496
188.3619, 1474.422
188.8440, 1480.205
189.3261, 1486.147
189.8082, 1492.294
190.2903, 1498.711
190.7725, 1505.716
191.2546, 1513.209
191.7367, 1519.927
192.2188, 1525.722
192.7009, 1531.085
193.1830, 1536.494
193.6652, 1541.918
194.1473, 1547.835
194.6294, 1555.440
195.1115, 1564.414
195.5936, 1569.991
196.0757, 1570.961
196.5579, 1570.074
197.0400, 1573.584
197.5221, 1582.054
198.0042, 1588.944
198.4863, 1589.691
198.9684, 1584.215
199.4506, 1580.220
199.9327, 1578.530
200.4148, 1578.237
200.8969, 1577.509
201.3790, 1576.316
201.8611, 1574.904
202.3433, 1573.711
202.8254, 1572.884
203.3075, 1570.374
203.7896, 1565.353
204.2717, 1559.180
204.7538, 1555.716
205.2360, 1555.602
205.7181, 1555.700
206.2002, 1554.327
206.6823, 1551.433
207.1644, 1547.185
207.6465, 1541.312
208.1287, 1534.227
208.6108, 1526.809
209.0929, 1518.817
209.5750, 1511.081
210.0571, 1504.218
210.5392, 1498.308
211.0214, 1492.777
211.5035, 1487.766
211.9856, 1483.085
212.4677, 1477.705
212.9498, 1471.210
213.4319, 1465.008
213.9140, 1460.072
214.3962, 1456.891
214.8783, 1453.313
215.3604, 1449.157
215.8425, 1444.490
216.3246, 1439.662
216.8067, 1434.444
217.2889, 1429.394
217.7710, 1424.697
218.2531, 1420.132
218.7352, 1416.471
219.2173, 1413.788
219.6994, 1411.981
220.1816, 1410.822
220.6637, 1410.507
221.1458, 1410.388
221.6279, 1410.119
222.1100, 1409.790
222.5921, 1408.973
223.0743, 1407.295
223.5564, 1405.093
224.0385, 1403.762
224.5206, 1403.112
225.0027, 1403.701
225.4848, 1406.328
225.9670, 1412.628
226.4491, 1416.863
226.9312, 1417.449
227.4133, 1415.551
227.8954, 1417.116
228.3775, 1423.920
228.8597, 1431.557
229.3418, 1437.184
229.8239, 1439.625
230.3060, 1442.776
230.7881, 1447.167
231.2702, 1452.489
231.7524, 1457.000
232.2345, 1459.674
232.7166, 1462.827
233.1987, 1468.154
233.6808, 1477.760
234.1629, 1484.650
234.6451, 1487.374
235.1272, 1486.972
235.6093, 1488.143
236.0914, 1491.593
236.5735, 1495.644
237.0556, 1499.635
237.5378, 1504.557
238.0199, 1507.184
238.5020, 1506.303
238.9841, 1503.020
239.4662, 1502.056
239.9483, 1505.636
240.4305, 1508.593
240.9126, 1508.041
241.3947, 1502.262
241.8768, 1496.886
242.3589, 1492.596
242.8410, 1488.894
243.3232, 1483.810
243.8053, 1476.748
244.2874, 1469.117
244.7695, 1461.623
245.2516, 1454.098
245.7337, 1446.936
246.2159, 1440.509
246.6980, 1434.327
247.1801, 1426.818
247.6622, 1416.706
248.1443, 1407.027
248.6264, 1399.703
249.1086, 1396.786
249.5907, 1390.984
250.0728, 1380.761
250.5549, 1368.005
251.0370, 1357.886
251.5191, 1351.777
252.0013, 1346.158
252.4834, 1339.389
252.9655, 1331.035
253.4476, 1322.863
253.9297, 1314.635
254.4118, 1306.732
254.8940, 1299.713
255.3761, 1293.279
255.8582, 1288.229
256.3403, 1285.334
256.8224, 1285.721
257.3046, 1284.344
257.7867, 1280.376
258.2688, 1275.149
258.7509, 1271.377
259.2330, 1269.785
259.7151, 1268.191
260.1973, 1265.533
260.6794, 1261.348
261.1615, 1258.255
261.6436, 1256.037
262.1257, 1255.133
262.6078, 1256.580
263.0900, 1261.160
263.5721, 1266.242
264.0542, 1270.597
264.5363, 1273.882
265.0184, 1279.349
265.5005, 1287.312
265.9827, 1297.210
266.4648, 1308.695
266.9469, 1322.203
267.4290, 1335.797
267.9111, 1348.703
268.3932, 1360.709
268.8754, 1374.575
269.3575, 1390.471
269.8396, 1407.871
270.3217, 1425.802
270.8038, 1443.963
271.2859, 1463.487
271.7681, 1484.798
272.2502, 1507.720
272.7323, 1530.729
273.2144, 1553.432
273.6965, 1576.192
274.1786, 1599.016
274.6608, 1621.950
275.1429, 1645.858
275.6250, 1671.010
276.1071, 1697.236
276.5892, 1724.333
277.0714, 1751.807
277.5535, 1780.361
278.0356, 1811.047
278.5177, 1844.124
278.9998, 1876.531
279.4819, 1907.555
279.9641, 1937.539
280.4462, 1966.236
280.9283, 1993.330
281.4104, 2020.834
281.8925, 2052.161
282.3746, 2087.431
282.8568, 2118.302
283.3389, 2142.539
283.8210, 2162.302
284.3031, 2183.985
284.7852, 2208.123
285.2673, 2230.782
285.7495, 2249.219
286.2316, 2263.688
286.7137, 2277.100
287.1958, 2290.184
287.6779, 2301.938
288.1600, 2310.492
288.6422, 2315.845
289.1243, 2318.063
289.6064, 2316.794
290.0885, 2312.250
290.5706, 2305.382
291.0527, 2296.066
291.5349, 2284.803
292.0170, 2273.028
292.4991, 2260.577
292.9812, 2244.754
293.4633, 2222.331
293.9454, 2195.309
294.4276, 2170.868
294.9097, 2150.239
295.3918, 2129.506
295.8739, 2102.579
296.3560, 2070.930
296.8381, 2040.169
297.3203, 2013.146
297.8024, 1989.171
298.2845, 1967.090
298.7666, 1946.968
299.2487, 1927.131
299.7308, 1904.465
300.2130, 1880.215
300.6951, 1858.317
301.1772, 1841.305
301.6593, 1827.090
302.1414, 1812.265
302.6235, 1796.987
303.1057, 1782.803
303.5878, 1771.740
304.0699, 1762.714
304.5520, 1753.852
305.0341, 1743.341
305.5162, 1733.863
305.9984, 1728.035
306.4805, 1725.756
306.9626, 1725.964
307.4447, 1728.667
307.9268, 1733.232
308.4089, 1738.749
308.8911, 1744.635
309.3732, 1751.955
309.8553, 1761.356
310.3374, 1772.799
310.8195, 1786.417
311.3016, 1803.175
311.7838, 1821.480
312.2659, 1839.932
312.7480, 1857.662
313.2301, 1876.745
313.7122, 1898.451
314.1943, 1922.622
314.6765, 1948.476
315.1586, 1976.493
315.6407, 2005.417
316.1228, 2034.422
316.6049, 2062.781
317.0870, 2093.343
317.5692, 2128.799
318.0513, 2166.673
318.5334, 2203.299
319.0155, 2236.012
319.4976, 2268.531
319.9797, 2301.974
320.4619, 2336.432
320.9440, 2371.986
321.4261, 2408.949
321.9082, 2446.546
322.3903, 2483.898
322.8724, 2519.407
323.3546, 2556.005
323.8367, 2595.438
324.3188, 2637.531
324.8009, 2677.797
325.2830, 2711.504
325.7651, 2745.261
326.2473, 2783.274
326.7294, 2828.011
327.2115, 2874.712
327.6936, 2924.599
328.1757, 2976.519
328.6578, 3026.767
329.1400, 3073.790
329.6221, 3120.587
330.1042, 3168.930
330.5863, 3220.798
331.0684, 3271.284
331.5505, 3320.164
332.0327, 3367.393
332.5148, 3412.697
332.9969, 3458.910
333.4790, 3499.230
333.9611, 3531.554
334.4432, 3554.617
334.9254, 3574.592
335.4075, 3593.192
335.8896, 3606.859
336.3717, 3609.996
336.8538, 3600.077
337.3359, 3585.484
337.8180, 3568.400
338.3001, 3548.924
338.7823, 3525.368
339.2644, 3497.966
339.7465, 3466.773
340.2286, 3430.962
340.7107, 3390.159
341.1928, 3348.874
341.6750, 3308.021
342.1571, 3267.859
342.6392, 3231.979
343.1213, 3200.469
343.6034, 3171.267
344.0855, 3142.260
344.5677, 3113.770
345.0498, 3087.546
345.5319, 3064.072
346.0140, 3042.867
346.4961, 3022.802
346.9782, 3003.986
347.4604, 2987.392
347.9425, 2973.580
348.4246, 2962.487
348.9067, 2955.035
349.3888, 2951.727
349.8709, 2949.773
350.3531, 2946.139
350.8352, 2941.064
351.3173, 2935.477
351.7994, 2928.724
352.2815, 2921.978
352.7636, 2917.410
353.2458, 2914.992
353.7279, 2913.168
354.2100, 2911.254
354.6921, 2908.906
355.1742, 2905.675
355.6563, 2902.285
356.1385, 2896.932
356.6206, 2886.876
357.1027, 2872.810
357.5848, 2858.567
358.0669, 2847.493
358.5490, 2836.684
359.0312, 2823.287
359.5133, 2805.938
359.9954, 2787.531
360.4775, 2770.616
360.9596, 2753.805
361.4417, 2734.440
361.9239, 2709.191
362.4060, 2682.696
362.8881, 2657.668
363.3702, 2634.785
363.8523, 2611.295
364.3344, 2586.302
364.8166, 2560.235
365.2987, 2533.363
365.7808, 2506.698
366.2629, 2479.009
366.7450, 2449.649
367.2271, 2418.620
367.7093, 2387.759
368.1914, 2356.684
368.6735, 2326.171
369.1556, 2296.500
369.6377, 2269.207
370.1198, 2241.594
370.6020, 2212.961
371.0841, 2183.826
371.5662, 2156.024
372.0483, 2130.446
372.5304, 2105.482
373.0125, 2080.584
373.4947, 2056.271
373.9768, 2030.765
374.4589, 2002.655
374.9410, 1974.189
375.4231, 1949.595
375.9052, 1929.818
376.3874, 1910.896
376.8695, 1892.102
377.3516, 1873.220
377.8337, 1853.924
378.3158, 1833.531
378.7979, 1814.005
379.2801, 1798.134
379.7622, 1785.989
380.2443, 1773.141
380.7264, 1758.152
381.2085, 1742.214
381.6906, 1728.350
382.1728, 1716.611
382.6549, 1705.840
383.1370, 1695.032
383.6191, 1684.482
384.1012, 1676.286
384.5833, 1671.017
385.0655, 1666.409
385.5476, 1659.249
386.0297, 1650.072
386.5118, 1641.261
386.9939, 1633.177
387.4760, 1626.376
387.9582, 1622.068
388.4403, 1620.265
388.9224, 1619.108
389.4045, 1617.508
389.8866, 1615.549
390.3687, 1613.292
390.8509, 1610.472
391.3330, 1607.764
391.8151, 1605.547
392.2972, 1603.830
392.7793, 1602.549
393.2614, 1601.759
393.7436, 1601.346
394.2257, 1601.169
394.7078, 1601.075
395.1899, 1601.510
395.6720, 1602.493
396.1541, 1604.102
396.6363, 1606.473
397.1184, 1610.375
397.6005, 1614.338
398.0826, 1617.976
398.5647, 1621.284
399.0468, 1624.070
399.5290, 1626.702
400.0111, 1628.578
400.4932, 1629.215
400.9753, 1627.800
401.4574, 1626.222
401.9395, 1624.345
402.4217, 1622.382
402.9038, 1621.579
403.3859, 1623.352
403.8680, 1624.223
404.3501, 1622.039
404.8322, 1615.369
405.3144, 1610.910
405.7965, 1609.452
406.2786, 1609.316
406.7607, 1607.501
407.2428, 1603.480
407.7249, 1600.684
408.2071, 1600.789
408.6892, 1603.207
409.1713, 1604.064
409.6534, 1603.153
410.1355, 1601.844
410.6176, 1600.407
411.0998, 1599.256
411.5819, 1601.311
412.0640, 1607.984
412.5461, 1616.675
413.0282, 1623.334
413.5103, 1628.231
413.9925, 1633.136
414.4746, 1638.893
414.9567, 1645.436
415.4388, 1652.682
415.9209, 1660.733
416.4030, 1669.078
416.8852, 1677.047
417.3673, 1685.165
417.8494, 1694.297
418.3315, 1706.266
418.8136, 1718.234
419.2957, 1727.602
419.7779, 1734.906
420.2600, 1744.182
420.7421, 1758.513
421.2242, 1774.776
421.7063, 1790.461
422.1884, 1805.545
422.6706, 1819.785
423.1527, 1832.160
423.6348, 1843.869
424.1169, 1857.192
424.5990, 1873.664
425.0811, 1890.791
425.5633, 1908.364
426.0454, 1926.714
426.5275, 1942.882
427.0096, 1955.289
427.4917, 1966.864
427.9738, 1980.076
428.4560, 1995.570
428.9381, 2011.256
429.4202, 2027.189
429.9023, 2042.865
430.3844, 2057.545
430.8665, 2071.283
431.3487, 2083.605
431.8308, 2093.607
432.3129, 2101.063
432.7950, 2110.544
433.2771, 2122.673
433.7592, 2135.250
434.2414, 2145.878
434.7235, 2154.612
435.2056, 2161.820
435.6877, 2167.038
436.1698, 2171.225
436.6519, 2176.509
437.1341, 2182.865
437.6162, 2189.463
438.0983, 2196.659
438.5804, 2203.545
439.0625, 2208.418
439.5446, 2210.776
440.0268, 2211.876
440.5089, 2212.365
440.9910, 2212.433
441.4731, 2212.467
441.9552, 2213.552
442.4373, 2213.917
442.9195, 2212.074
443.4016, 2208.016
443.8837, 2203.769
444.3658, 2200.101
444.8479, 2196.546
445.3300, 2192.776
445.8122, 2188.394
446.2943, 2184.118
446.7764, 2180.189
447.2585, 2176.418
447.7406, 2172.345
448.2227, 2166.983
448.7049, 2162.280
449.1870, 2158.972
449.6691, 2157.420
450.1512, 2155.384
450.6333, 2152.896
451.1154, 2149.979
451.5976, 2146.343
452.0797, 2141.380
452.5618, 2138.075
453.0439, 2137.313
453.5260, 2138.345
454.0081, 2138.498
454.4903, 2137.516
454.9724, 2137.444
455.4545, 2139.453
455.9366, 2143.382
456.4187, 2148.256
456.9008, 2153.956
457.3830, 2160.789
457.8651, 2169.025
458.3472, 2178.583
458.8293, 2188.931
459.3114, 2200.379
459.7935, 2212.081
460.2757, 2222.248
460.7578, 2231.432
461.2399, 2242.706
461.7220, 2258.630
462.2041, 2277.190
462.6862, 2296.489
463.1684, 2316.268
463.6505, 2336.529
464.1326, 2356.192
464.6147, 2376.434
465.0968, 2399.155
465.5789, 2425.566
466.0611, 2453.301
466.5432, 2480.893
467.0253, 2508.657
467.5074, 2540.950
467.9895, 2579.422
468.4716, 2621.746
468.9538, 2666.660
469.4359, 2713.557
469.9180, 2763.025
470.4001, 2814.790
470.8822, 2869.778
471.3643, 2929.750
471.8465, 2995.058
472.3286, 3064.093
472.8107, 3136.134
473.2928, 3210.833
473.7749, 3292.729
474.2570, 3381.655
474.7392, 3476.578
475.2213, 3576.872
475.7034, 3682.524
476.1855, 3793.459
476.6676, 3909.621
477.1497, 4031.821
477.6319, 4159.962
478.1140, 4294.100
478.5961, 4432.719
479.0782, 4574.503
479.5603, 4720.881
480.0424, 4873.646
480.5246, 5033.318
481.0067, 5198.071
481.4888, 5368.604
481.9709, 5542.622
482.4530, 5716.602
482.9352, 5887.070
483.4173, 6064.378
483.8994, 6257.221
484.3815, 6459.159
484.8636, 6658.396
485.3457, 6850.002
485.8279, 7040.205
486.3100, 7231.312
486.7921, 7423.981
487.2742, 7611.759
487.7563, 7800.372
488.2384, 7980.663
488.7206, 8147.138
489.2027, 8300.604
489.6848, 8438.126
490.1669, 8563.283
490.6490, 8668.812
491.1311, 8745.802
491.6133, 8793.365
492.0954, 8814.874
492.5775, 8813.309
493.0596, 8785.493
493.5417, 8719.298
494.0238, 8614.985
494.5060, 8479.064
494.9881, 8310.717
495.4702, 8115.291
495.9523, 7899.456
496.4344, 7663.607
496.9165, 7414.508
497.3987, 7155.472
497.8808, 6887.442
498.3629, 6617.297
498.8450, 6343.521
499.3271, 6071.745
499.8092, 5807.103
500.2914, 5547.153
500.7735, 5300.050
501.2556, 5061.911
501.7377, 4836.728
502.2198, 4627.913
502.7019, 4436.938
503.1841, 4253.779
503.6662, 4075.542
504.1483, 3904.794
504.6304, 3746.381
505.1125, 3603.085
505.5946, 3470.868
506.0768, 3349.269
506.5589, 3237.822
507.0410, 3131.618
507.5231, 3030.304
508.0052, 2935.453
508.4873, 2846.798
508.9695, 2765.445
509.4516, 2689.450
509.9337, 2618.978
510.4158, 2553.027
510.8979, 2490.893
511.3800, 2432.065
511.8622, 2377.029
512.3443, 2326.250
512.8264, 2278.603
513.3085, 2231.635
513.7906, 2185.763
514.2728, 2142.465
514.7549, 2103.740
515.2370, 2067.216
515.7191, 2030.738
516.2012, 1993.943
516.6833, 1958.811
517.1655, 1926.766
517.6476, 1896.175
518.1297, 1865.627
518.6118, 1833.561
519.0939, 1803.116
519.5760, 1776.368
520.0582, 1751.613
520.5403, 1723.899
521.0224, 1691.067
521.5045, 1658.685
521.9866, 1627.997
522.4688, 1598.875
522.9509, 1572.081
523.4330, 1548.447
523.9151, 1524.779
524.3972, 1498.003
524.8793, 1468.129
525.3615, 1439.765
525.8436, 1413.395
526.3257, 1387.808
526.8078, 1361.770
527.2899, 1335.233
527.7720, 1308.387
528.2542, 1281.635
528.7363, 1254.725
529.2184, 1226.797
529.7005, 1198.203
530.1826, 1169.484
530.6647, 1140.064
531.1469, 1111.356
531.6290, 1084.158
532.1111, 1058.836
532.5932, 1034.700
533.0753, 1012.042
533.5574, 990.1510
534.0396, 968.6688
534.5217, 947.3902
535.0038, 926.4618
535.4859, 905.5677
535.9680, 884.9159
536.4501, 864.8264
536.9323, 845.1561
537.4144, 826.3193
537.8965, 808.5065
538.3786, 791.7653
538.8607, 776.5741
539.3428, 763.3133
539.8250, 750.7782
540.3071, 738.0917
540.7892, 725.4163
541.2713, 712.5920
541.7534, 699.5125
542.2355, 686.7678
542.7177, 675.1407
543.1998, 664.4741
543.6819, 654.5853
544.1640, 645.9169
544.6461, 637.7493
545.1282, 629.6156
545.6104, 621.4655
546.0925, 612.7982
546.5746, 601.6993
547.0567, 591.1964
547.5388, 583.6084
548.0209, 580.3138
548.5031, 576.4531
548.9852, 570.0889
549.4673, 563.0792
549.9494, 557.3958
550.4315, 553.9422
550.9136, 550.5081
551.3958, 547.2864
551.8779, 543.8102
552.3600, 538.3879
552.8421, 530.2203
553.3242, 522.8146
553.8063, 517.9971
554.2885, 515.3760
554.7706, 511.6779
555.2527, 506.7967
555.7348, 501.9831
556.2169, 498.5352
556.6990, 496.0124
557.1812, 493.1861
557.6633, 489.8408
558.1454, 486.2814
558.6275, 482.4491
559.1096, 478.6755
559.5917, 475.4583
560.0739, 473.8135
560.5560, 472.0568
561.0381, 468.9810
561.5202, 464.9760
562.0023, 461.6569
562.4844, 460.1499
562.9666, 458.7859
563.4487, 456.8268
563.9308, 454.1511
564.4129, 451.4244
564.8950, 448.4119
565.3771, 445.5971
565.8593, 443.3540
566.3414, 441.7345
566.8235, 440.5166
567.3056, 439.8523
567.7877, 439.2888
568.2698, 437.8496
568.7520, 435.5837
569.2341, 433.5286
569.7162, 432.3983
570.1983, 431.5009
570.6804, 429.2028
571.1625, 425.7380
571.6447, 422.6389
572.1268, 421.0824
572.6089, 420.2756
573.0910, 419.5365
573.5731, 418.7842
574.0552, 418.0712
574.5374, 417.7271
575.0195, 417.2708
575.5016, 416.2509
575.9837, 413.7048
576.4658, 411.6690
576.9479, 410.4590
577.4301, 409.8123
577.9122, 409.2431
578.3943, 408.7782
578.8764, 408.2992
579.3585, 407.7826
579.8406, 407.2177
580.3228, 406.6831
580.8049, 406.2608
581.2870, 405.3402
581.7691, 403.0002
582.2512, 399.7384
582.7333, 397.5172
583.2155, 396.4752
583.6975, 396.2314
584.1796, 397.1536
584.6617, 398.4524
585.1439, 398.7741
585.6260, 397.4424
586.1081, 395.6268
586.5902, 393.2868
587.0723, 391.0425
587.5544, 390.1147
588.0366, 392.6651
588.5187, 394.7079
589.0008, 394.3690
589.4829, 391.8087
589.9650, 390.8477
590.4471, 392.6565
590.9293, 394.5264
591.4114, 395.0793
591.8935, 394.0785
592.3756, 393.5908
592.8577, 393.8936
593.3398, 393.9473
593.8220, 392.0839
594.3041, 388.6727
594.7862, 386.7647
595.2683, 387.2363
595.7504, 388.5364
596.2325, 388.7105
596.7147, 388.1017
597.1968, 387.5949
597.6789, 387.6841
598.1610, 387.9365
598.6431, 388.0280
599.1252, 388.0068
599.6074, 388.0975
600.0895, 389.0357
600.5716, 389.5503
601.0537, 388.8274
601.5358, 386.4488
602.0179, 384.5619
602.5001, 383.0134
602.9822, 382.1368
603.4643, 382.4712
603.9464, 384.6679
604.4285, 385.2980
604.9106, 383.6200
605.3928, 381.3107
605.8749, 381.1828
606.3570, 383.0575
606.8391, 384.5805
607.3212, 384.9735
607.8033, 384.7183
608.2855, 384.3101
608.7676, 383.8314
609.2497, 383.5774
609.7318, 383.7628
610.2139, 384.1971
610.6960, 384.8907
611.1782, 385.8155
611.6603, 386.4103
612.1424, 386.1249
612.6245, 385.7115
613.1066, 385.6772
613.5887, 386.3890
614.0709, 386.7271
614.5530, 386.6299
615.0351, 386.2274
615.5172, 385.5148
615.9993, 384.2866
616.4814, 383.6700
616.9636, 383.8462
617.4457, 384.6727
617.9278, 386.4203
618.4099, 388.9065
618.8920, 390.2848
619.3741, 389.0677
619.8563, 386.8424
620.3384, 385.8793
620.8205, 386.0148
621.3026, 386.4474
621.7847, 386.8106
622.2668, 387.2229
622.7490, 387.8192
623.2311, 388.6400
623.7132, 389.3339
624.1953, 390.3604
624.6774, 390.8544
625.1595, 390.0854
625.6417, 386.4798
626.1238, 384.7506
626.6059, 385.3279
627.0880, 387.3346
627.5701, 390.1075
628.0522, 393.8724
628.5344, 396.2229
629.0165, 396.5238
629.4986, 395.3393
629.9807, 393.1201
630.4628, 390.1320
630.9449, 387.8760
631.4271, 387.2370
631.9092, 387.5771
632.3913, 388.6210
632.8734, 390.2002
633.3555, 391.3118
633.8376, 391.1365
634.3198, 390.5920
634.8019, 390.1761
635.2840, 389.9333
635.7661, 389.8397
636.2482, 389.9058
636.7303, 390.1052
637.2125, 390.4712
637.6946, 391.1724
638.1767, 391.5314
638.6588, 391.4329
639.1409, 391.1552
639.6230, 391.1667
640.1052, 391.4371
640.5873, 391.4061
641.0694, 390.7888
641.5515, 390.0608
642.0336, 389.9386
642.5157, 390.3055
642.9979, 390.8228
643.4800, 391.5806
643.9621, 392.2098
644.4442, 392.3625
644.9263, 392.1090
645.4084, 391.8763
645.8906, 391.6522
646.3727, 391.6113
646.8548, 391.9823
647.3369, 392.8883
647.8190, 393.1795
648.3011, 392.4683
648.7833, 391.7216
649.2654, 391.6879
649.7475, 392.4216
650.2296, 393.3490
650.7117, 394.5663
651.1938, 395.4907
651.6760, 394.7242
652.1581, 392.9916
652.6402, 392.7985
653.1223, 395.5794
653.6044, 398.4281
654.0865, 398.3683
654.5687, 396.5575
655.0508, 395.2353
655.5329, 395.2896
656.0150, 395.9115
656.4971, 397.1974
656.9792, 398.9254
657.4614, 399.9788
657.9435, 399.8047
658.4256, 399.6732
658.9077, 399.9938
659.3898, 400.7495
659.8719, 401.6937
660.3541, 402.9632
660.8362, 403.7745
661.3183, 403.1229
661.8004, 401.4998
662.2825, 400.8781
662.7646, 401.3959
663.2468, 402.3818
663.7289, 403.4333
664.2110, 404.5252
664.6931, 405.8006
665.1752, 407.7681
665.6573, 408.6553
666.1395, 406.1543
666.6216, 402.7414
667.1037, 401.4618
667.5858, 405.1249
668.0679, 407.9242
668.5500, 409.0649
669.0322, 409.2424
669.5143, 410.0031
669.9964, 411.5270
670.4785, 412.7461
670.9606, 413.2444
671.4427, 413.2782
671.9249, 413.4876
672.4070, 413.8653
672.8891, 414.3675
673.3712, 415.1308
673.8533, 415.9038
674.3354, 416.1929
674.8176, 416.0717
675.2997, 416.3625
675.7818, 417.8725
676.2639, 419.6220
676.7460, 421.0419
677.2281, 422.0000
677.7103, 422.7656
678.1924, 423.0365
678.6745, 423.4407
679.1566, 424.5240
679.6387, 426.4825
680.1208, 428.1954
680.6030, 429.5978
681.0851, 430.8101
681.5672, 431.8209
682.0493, 432.7513
682.5314, 434.3620
683.0135, 437.2461
683.4957, 439.8388
683.9778, 439.6490
684.4599, 438.0652
684.9420, 437.7022
685.4241, 440.8125
685.9063, 443.9662
686.3884, 445.9098
686.8705, 446.8884
687.3526, 447.8066
687.8347, 448.4177
688.3168, 449.4414
688.7990, 451.0548
689.2811, 453.2491
689.7632, 456.0617
690.2453, 459.6441
690.7274, 462.7652
691.2095, 464.3301
691.6917, 464.8769
692.1738, 466.0981
692.6559, 467.9654
693.1380, 469.8294
693.6201, 470.7770
694.1022, 471.7296
694.5844, 473.7564
695.0665, 477.1515
695.5486, 480.4214
696.0307, 482.7378
696.5128, 484.9167
696.9949, 487.7028
697.4771, 491.8531
697.9592, 494.8753
698.4413, 495.9731
698.9234, 496.9521
699.4055, 500.5032
699.8876, 506.7016
700.3698, 511.5360
700.8519, 513.9903
701.3340, 515.6449
701.8161, 518.5793
702.2982, 522.4634
702.7803, 526.4404
703.2625, 529.8658
703.7446, 533.7085
704.2267, 538.6649
704.7088, 544.4846
705.1909, 550.6031
705.6730, 555.1728
706.1552, 561.9818
706.6373, 573.9363
707.1194, 589.1073
707.6015, 597.9929
708.0836, 598.5126
708.5657, 598.7887
709.0479, 602.0546
709.5300, 607.7550
710.0121, 613.7175
710.4942, 619.9612
710.9763, 626.4211
711.4584, 633.3676
711.9406, 640.4239
712.4227, 646.9160
712.9048, 652.8752
713.3869, 659.3680
713.8690, 667.0286
714.3511, 675.3214
714.8333, 684.1080
715.3154, 693.5692
715.7975, 702.7351
716.2796, 711.6392
716.7617, 720.3171
717.2438, 728.6850
717.7260, 736.5496
718.2081, 745.7442
718.6902, 756.4804
719.1723, 767.8416
719.6544, 778.4975
720.1365, 788.8243
720.6187, 799.9321
721.1008, 812.6025
721.5829, 824.7397
722.0650, 833.4469
722.5471, 841.1969
723.0292, 851.5229
723.5114, 868.2996
723.9935, 883.8385
724.4756, 896.1215
724.9577, 906.8212
725.4398, 918.9398
725.9219, 932.5815
726.4041, 947.2589
726.8862, 963.2349
727.3683, 979.8293
727.8504, 994.7063
728.3325, 1008.035
728.8146, 1021.045
729.2968, 1034.296
729.7789, 1047.327
730.2610, 1058.980
730.7431, 1069.858
731.2252, 1081.965
731.7073, 1097.173
732.1895, 1112.816
732.6716, 1127.567
733.1537, 1141.531
733.6358, 1156.348
734.1179, 1172.222
734.6000, 1188.989
735.0822, 1206.674
735.5643, 1225.230
736.0464, 1243.073
736.5285, 1260.122
737.0106, 1278.184
737.4927, 1299.650
737.9749, 1322.580
738.4570, 1343.255
738.9391, 1361.416
739.4212, 1380.389
739.9033, 1402.844
740.3854, 1426.280
740.8676, 1448.938
741.3497, 1470.502
741.8318, 1491.899
742.3139, 1513.270
742.7960, 1534.582
743.2781, 1555.709
743.7603, 1576.357
744.2424, 1599.366
744.7245, 1625.413
745.2066, 1651.672
745.6887, 1675.744
746.1708, 1698.071
746.6530, 1719.460
747.1351, 1740.029
747.6172, 1759.529
748.0993, 1777.016
748.5814, 1793.705
749.0635, 1810.755
749.5457, 1829.107
750.0278, 1847.071
750.5099, 1863.333
750.9920, 1879.461
751.4741, 1897.842
751.9562, 1919.659
752.4384, 1937.833
752.9205, 1950.980
753.4026, 1960.540
753.8847, 1967.617
754.3668, 1972.736
754.8489, 1978.319
755.3311, 1985.593
755.8132, 1992.593
756.2953, 1996.880
756.7774, 1999.763
757.2595, 2003.447
757.7416, 2010.931
758.2238, 2016.658
758.7059, 2018.242
759.1880, 2017.641
759.6701, 2019.056
760.1522, 2023.394
760.6343, 2026.875
761.1165, 2028.190
761.5986, 2028.515
762.0807, 2030.890
762.5628, 2035.021
763.0449, 2039.126
763.5270, 2042.057
764.0092, 2044.859
764.4913, 2048.737
764.9734, 2053.336
765.4555, 2057.618
765.9376, 2059.845
766.4197, 2063.037
766.9019, 2068.592
767.3840, 2076.012
767.8661, 2083.302
768.3482, 2090.579
768.8303, 2097.200
769.3124, 2102.335
769.7946, 2106.728
770.2767, 2112.928
770.7588, 2120.932
771.2409, 2130.726
771.7230, 2142.996
772.2051, 2156.575
772.6873, 2171.048
773.1694, 2186.164
773.6515, 2199.905
774.1336, 2209.445
774.6157, 2219.708
775.0978, 2233.500
775.5800, 2250.639
776.0621, 2265.349
776.5442, 2276.554
777.0263, 2288.465
777.5084, 2302.836
777.9905, 2319.693
778.4727, 2339.519
778.9548, 2362.185
779.4369, 2385.608
779.9190, 2409.093
780.4011, 2432.016
780.8832, 2453.587
781.3654, 2473.606
781.8475, 2494.780
782.3296, 2516.791
782.8117, 2541.294
783.2938, 2569.486
783.7759, 2601.651
784.2581, 2634.287
784.7402, 2667.129
785.2223, 2700.729
785.7044, 2736.093
786.1865, 2772.681
786.6686, 2809.218
787.1508, 2845.870
787.6329, 2883.782
788.1150, 2923.441
788.5971, 2965.850
789.0792, 3010.899
789.5613, 3059.160
790.0435, 3110.196
790.5256, 3165.887
791.0077, 3223.025
791.4898, 3280.526
791.9719, 3337.714
792.4540, 3396.303
792.9362, 3455.016
793.4183, 3516.008
793.9004, 3579.371
794.3825, 3645.986
794.8646, 3717.733
795.3467, 3795.414
795.8289, 3873.082
796.3110, 3942.883
796.7931, 4012.586
797.2752, 4087.507
797.7573, 4169.845
798.2394, 4254.173
798.7216, 4338.907
799.2037, 4426.609
799.6858, 4518.418
800.1679, 4615.113
800.6500, 4712.435
801.1321, 4811.469
801.6143, 4912.664
802.0964, 5017.338
802.5785, 5124.136
803.0606, 5231.337
803.5427, 5338.445
804.0248, 5449.044
804.5070, 5566.852
804.9891, 5689.094
805.4712, 5813.339
805.9533, 5940.571
806.4354, 6069.103
806.9175, 6195.582
807.3997, 6327.974
807.8818, 6474.609
808.3639, 6633.972
808.8460, 6791.545
809.3281, 6946.497
809.8102, 7103.560
810.2924, 7264.610
810.7745, 7431.514
811.2566, 7607.490
811.7387, 7791.583
812.2208, 7983.467
812.7029, 8184.680
813.1851, 8392.272
813.6672, 8604.380
814.1493, 8820.263
814.6314, 9043.670
815.1135, 9273.362
815.5956, 9509.318
816.0778, 9748.262
816.5599, 9991.199
817.0420, 10237.88
817.5241, 10489.17
818.0062, 10745.81
818.4883, 11015.08
818.9705, 11289.99
819.4526, 11560.50
819.9347, 11823.06
820.4168, 12090.70
820.8989, 12378.10
821.3810, 12659.90
821.8632, 12923.70
822.3453, 13167.15
822.8274, 13420.39
823.3095, 13681.82
823.7916, 13938.36
824.2737, 14175.62
824.7559, 14398.03
825.2380, 14611.29
825.7201, 14814.38
826.2022, 15013.92
826.6843, 15219.30
827.1664, 15415.83
827.6486, 15591.06
828.1307, 15742.37
828.6128, 15891.22
829.0949, 16041.78
829.5770, 16184.54
830.0591, 16316.63
830.5413, 16437.35
831.0234, 16547.77
831.5055, 16647.70
831.9876, 16732.57
832.4697, 16803.95
832.9518, 16856.20
833.4340, 16880.42
833.9161, 16877.27
834.3982, 16864.84
834.8803, 16867.31
835.3624, 16843.00
835.8445, 16774.05
836.3267, 16662.10
836.8088, 16532.82
837.2909, 16387.87
837.7730, 16220.68
838.2551, 16022.59
838.7372, 15801.27
839.2194, 15578.06
839.7015, 15350.67
840.1836, 15105.63
840.6657, 14829.07
841.1478, 14537.78
841.6299, 14244.30
842.1121, 13946.96
842.5942, 13638.48
843.0763, 13310.52
843.5584, 12982.62
844.0405, 12660.10
844.5226, 12342.39
845.0048, 12027.58
845.4869, 11715.60
845.9690, 11405.21
846.4511, 11095.15
846.9332, 10791.10
847.4153, 10502.08
847.8975, 10225.48
848.3796, 9953.803
848.8617, 9680.666
849.3438, 9416.156
849.8259, 9165.838
850.3080, 8926.725
850.7902, 8693.316
851.2723, 8467.566
851.7544, 8247.901
852.2365, 8033.985
852.7186, 7826.276
853.2007, 7623.944
853.6829, 7428.471
854.1650, 7242.504
854.6471, 7068.977
855.1292, 6900.328
855.6113, 6731.426
856.0934, 6565.893
856.5756, 6406.981
857.0577, 6253.832
857.5398, 6107.721
858.0219, 5967.513
858.5040, 5832.191
858.9861, 5703.022
859.4683, 5578.889
859.9504, 5455.942
860.4325, 5333.922
860.9146, 5214.420
861.3967, 5100.195
861.8788, 4990.820
862.3610, 4884.358
862.8431, 4781.345
863.3252, 4681.768
863.8073, 4586.527
864.2894, 4494.239
864.7715, 4405.067
865.2537, 4319.178
865.7358, 4234.456
866.2179, 4149.975
866.7000, 4067.312
867.1821, 3988.324
867.6642, 3911.574
868.1464, 3835.891
868.6285, 3759.629
869.1106, 3688.109
869.5927, 3626.593
870.0748, 3566.941
870.5569, 3503.708
871.0391, 3435.978
871.5212, 3372.203
872.0033, 3313.068
872.4854, 3255.740
872.9675, 3199.093
873.4496, 3142.641
873.9318, 3087.321
874.4139, 3033.054
874.8960, 2979.120
875.3781, 2925.207
875.8602, 2871.392
876.3423, 2817.594
876.8245, 2764.369
877.3066, 2713.638
877.7887, 2665.984
878.2708, 2619.903
878.7529, 2575.339
879.2350, 2531.992
879.7172, 2487.084
880.1993, 2441.531
880.6814, 2397.316
881.1635, 2355.877
881.6456, 2315.973
882.1277, 2276.534
882.6099, 2237.824
883.0920, 2200.771
883.5741, 2166.680
884.0562, 2132.332
884.5383, 2096.791
885.0204, 2060.282
885.5026, 2022.733
885.9847, 1984.271
886.4668, 1947.425
886.9489, 1913.177
887.4310, 1880.038
887.9131, 1846.545
888.3953, 1813.506
888.8774, 1781.938
889.3595, 1755.430
889.8416, 1725.346
890.3237, 1687.091
890.8058, 1647.782
891.2880, 1614.972
891.7701, 1589.496
892.2522, 1561.699
892.7343, 1530.388
893.2164, 1498.272
893.6985, 1467.783
894.1807, 1438.523
894.6628, 1409.365
895.1449, 1380.276
895.6270, 1351.587
896.1091, 1323.142
896.5912, 1295.131
897.0734, 1266.955
897.5555, 1238.614
898.0376, 1213.335
898.5197, 1191.723
899.0018, 1170.817
899.4839, 1148.641
899.9661, 1125.999
900.4482, 1104.295
900.9303, 1083.388
901.4124, 1063.409
901.8945, 1044.338
902.3766, 1026.009
902.8588, 1008.021
903.3409, 990.6064
903.8230, 974.1232
904.3051, 958.4913
904.7872, 943.5923
905.2693, 929.4947
905.7515, 915.6663
906.2336, 900.3477
906.7157, 884.2560
907.1978, 869.4689
907.6799, 856.6296
908.1620, 845.6018
908.6442, 837.4645
909.1263, 830.6707
909.6084, 822.4811
910.0905, 812.1107
910.5726, 802.2928
911.0547, 793.0773
911.5369, 784.5958
912.0190, 776.9930
912.5011, 770.2235
912.9832, 764.1008
913.4653, 758.5550
913.9474, 753.9208
914.4296, 750.3519
914.9117, 747.8191
915.3938, 746.4739
915.8759, 746.5621
916.3580, 746.4838
916.8401, 745.8800
917.3223, 745.9654
917.8044, 747.8582
918.2865, 751.1176
918.7686, 754.2602
919.2507, 757.2864
919.7328, 760.3362
920.2150, 763.7282
920.6971, 766.9775
921.1792, 769.4058
921.6613, 771.2913
922.1434, 774.5276
922.6255, 779.7052
923.1077, 785.0395
923.5898, 790.2800
924.0719, 795.0853
924.5540, 798.5182
925.0361, 800.8537
925.5182, 803.1883
926.0004, 806.2162
926.4825, 808.8958
926.9646, 810.6908
927.4467, 811.6946
927.9288, 812.0959
928.4109, 813.0934
928.8931, 810.9271
929.3752, 804.6375
929.8573, 796.8082
930.3394, 790.9209
930.8215, 785.9881
931.3036, 777.7753
931.7858, 765.5911
932.2679, 752.9582
932.7500, 742.5412
933.2321, 732.4084
933.7142, 721.0384
934.1964, 708.3912
934.6785, 693.6928
935.1606, 675.9992
935.6427, 658.8751
936.1248, 644.6014
936.6069, 632.2581
937.0891, 619.5709
937.5712, 606.5192
938.0533, 593.8349
938.5354, 582.4221
939.0175, 570.9293
939.4996, 558.0949
939.9818, 544.6486
940.4639, 532.9543
940.9460, 523.6622
941.4281, 514.8231
941.9102, 506.1155
942.3923, 497.8355
942.8745, 490.4690
943.3566, 483.8993
943.8387, 478.0835
944.3208, 473.2540
944.8029, 468.4904
945.2850, 462.7997
945.7672, 457.1995
946.2493, 452.6946
946.7314, 449.5357
947.2135, 446.5660
947.6956, 443.9420
948.1777, 441.0103
948.6599, 436.6172
949.1420, 431.7609
949.6241, 429.0735
950.1062, 428.4347
950.5883, 428.3286
951.0704, 429.6781
951.5526, 429.6475
952.0347, 425.7102
952.5168, 419.0786
952.9989, 414.2347
953.4810, 411.4595
953.9631, 409.2431
954.4453, 407.4228
954.9274, 405.4536
955.4095, 401.6369
955.8916, 397.1046
956.3737, 394.3648
956.8558, 395.4961
957.3380, 396.0839
957.8201, 393.8151
958.3022, 390.8607
958.7843, 389.4986
959.2664, 390.3302
959.7485, 389.0792
960.2307, 385.4214
960.7128, 381.2451
961.1949, 377.9064
961.6770, 375.2517
962.1591, 373.2401
962.6412, 371.8133
963.1234, 370.4892
963.6055, 368.9638
964.0876, 367.6479
964.5697, 366.6844
965.0518, 366.0260
965.5339, 365.6410
966.0161, 365.5213
966.4982, 364.7724
966.9803, 363.0647
967.4624, 360.5567
967.9445, 356.5535
968.4266, 352.1169
968.9088, 349.0821
969.3909, 349.1618
969.8730, 348.9456
970.3551, 348.2194
970.8372, 347.1113
971.3193, 345.5872
971.8015, 343.7259
972.2836, 342.1302
972.7657, 340.8614
973.2478, 339.7289
973.7299, 338.7841
974.2120, 337.7474
974.6942, 336.3661
975.1763, 334.6147
975.6584, 332.6815
976.1405, 330.1833
976.6226, 328.3764
977.1047, 328.0736
977.5869, 328.4720
978.0690, 327.2487
978.5511, 324.7626
979.0332, 322.3463
979.5153, 320.6889
979.9974, 318.9651
980.4796, 316.3045
980.9617, 313.5054
981.4438, 311.7949
981.9259, 311.8289
982.4080, 310.7870
982.8901, 308.3039
983.3723, 305.6207
983.8544, 303.9701
984.3365, 303.0138
984.8186, 302.3488
985.3007, 301.9059
985.7828, 300.9198
986.2650, 298.3531
986.7471, 295.9129
987.2292, 294.6068
987.7113, 294.0727
988.1934, 292.1530
988.6755, 288.7674
989.1577, 285.8204
989.6398, 284.1624
990.1219, 283.1159
990.6040, 282.2579
991.0861, 281.3457
991.5682, 279.9628
992.0504, 277.5146
992.5325, 275.2987
993.0146, 273.3378
993.4967, 271.7256
993.9788, 270.8855
994.4609, 270.6131
994.9431, 268.8514
995.4252, 265.4937
995.9073, 262.0563
996.3894, 259.3513
996.8715, 257.2089
997.3536, 255.6274
997.8358, 254.5716
998.3179, 253.4461
998.8000, 252.2938
999.2821, 250.9028
999.7642, 249.1374
1000.246, 247.1764
1000.728, 245.5709
1001.211, 244.0881
1001.693, 242.0962
1002.175, 238.9178
1002.657, 236.2401
1003.139, 235.1457
1003.621, 234.6776
1004.103, 234.0906
1004.585, 233.4948
1005.068, 231.8664
1005.550, 229.0491
1006.032, 226.5785
1006.514, 226.1038
1006.996, 226.3006
1007.478, 225.5986
1007.960, 224.0191
1008.442, 222.1228
1008.924, 219.4276
1009.407, 217.2314
1009.889, 215.8564
1010.371, 215.0402
1010.853, 214.4114
1011.335, 213.8899
1011.817, 212.9579
1012.299, 211.4216
1012.781, 209.7842
1013.263, 208.4183
1013.746, 207.1291
1014.228, 205.7090
1014.710, 204.1142
1015.192, 202.5469
1015.674, 200.9264
1016.156, 199.6320
1016.638, 199.1019
1017.120, 198.9413
1017.603, 198.3565
1018.085, 197.3867
1018.567, 196.1941
1019.049, 194.2530
1019.531, 192.8375
1020.013, 192.8568
1020.495, 193.2242
1020.977, 192.1132
1021.459, 189.4682
1021.942, 187.7800
1022.424, 187.4526
1022.906, 187.3421
1023.388, 186.7078
1023.870, 185.5342
1024.352, 183.6127
1024.834, 180.8630
1025.316, 178.4465
1025.799, 176.0872
1026.281, 174.8529
1026.763, 175.6752
1027.245, 177.4917
1027.727, 177.3709
1028.209, 175.8294
1028.691, 174.6064
1029.173, 174.7370
1029.656, 174.7484
1030.138, 173.8575
1030.620, 172.5637
1031.102, 171.4245
1031.584, 170.5120
1032.066, 169.1646
1032.548, 167.2857
1033.030, 165.6802
1033.512, 165.3684
1033.995, 165.4806
1034.477, 164.8741
1034.959, 163.6585
1035.441, 162.8472
1035.923, 163.0735
1036.405, 163.1068
1036.887, 162.6756
1037.369, 161.9565
1037.851, 161.3562
1038.334, 160.7779
1038.816, 159.6042
1039.298, 157.4266
1039.780, 155.9038
1040.262, 157.0025
1040.744, 158.4266
1041.226, 158.2233
1041.708, 156.2672
1042.191, 154.6648
1042.673, 153.3991
1043.155, 152.4623
1043.637, 151.9561
1044.119, 151.6666
1044.601, 151.3810
1045.083, 151.0648
1045.565, 150.6504
1046.047, 150.2971
1046.530, 149.5024
1047.012, 147.9304
1047.494, 146.3625
1047.976, 145.6707
1048.458, 145.7473
1048.940, 146.3656
1049.422, 147.4755
1049.904, 148.0705
1050.386, 146.8121
1050.869, 145.5057
1051.351, 145.6222
1051.833, 146.6722
1052.315, 146.3959
1052.797, 144.5308
1053.279, 143.4393
1053.761, 144.0290
1054.243, 144.8634
1054.726, 143.8925
1055.208, 142.1054
1055.690, 140.8839
1056.172, 140.6381
1056.654, 140.5967
1057.136, 140.8138
1057.618, 140.9639
1058.100, 140.8410
1058.583, 140.4971
1059.065, 140.1783
1059.547, 139.8402
1060.029, 139.2724
1060.511, 138.1661
1060.993, 137.0576
1061.475, 135.9890
1061.957, 135.1539
1062.439, 135.0443
1062.922, 135.8634
1063.404, 135.2583
1063.886, 132.8737
1064.368, 130.7813
1064.850, 131.2290
1065.332, 132.5836
1065.814, 133.5025
1066.296, 133.8334
1066.778, 133.1462
1067.261, 130.7233
1067.743, 128.9477
1068.225, 128.5998
1068.707, 128.9177
1069.189, 128.2610
1069.671, 127.2015
1070.153, 127.3362
1070.635, 129.5741
1071.118, 131.0196
1071.600, 129.7251
1072.082, 127.9960
1072.564, 127.2543
1073.046, 127.3644
1073.528, 126.1543
1074.010, 123.7703
1074.492, 122.1792
1074.974, 123.2633
1075.457, 124.5945
1075.939, 124.2346
1076.421, 122.9523
1076.903, 121.9825
1077.385, 121.1866
1077.867, 121.5243
1078.349, 123.3153
1078.831, 125.0379
1079.313, 125.1596
1079.796, 124.3809
1080.278, 123.6410
1080.760, 122.9842
1081.242, 122.3423
1081.724, 120.8640
1082.206, 120.7288
1082.688, 123.1820
1083.170, 126.2030
1083.652, 125.4666
1084.135, 122.0054
1084.617, 119.9553
1085.099, 120.3114
1085.581, 120.3992
1086.063, 117.5122
1086.545, 114.9489
1087.027, 115.0829
1087.509, 117.5645
1087.992, 118.7094
1088.474, 118.5049
1088.956, 118.1012
1089.438, 117.9239
1089.920, 117.8090
1090.402, 117.5783
1090.884, 117.3133
1091.366, 117.1740
1091.849, 117.4782
1092.331, 116.9068
1092.813, 115.0781
1093.295, 113.6675
1093.777, 114.5731
1094.259, 116.4072
1094.741, 116.2811
1095.223, 114.7340
1095.705, 113.7486
1096.188, 114.7632
1096.670, 115.4335
1097.152, 115.2515
1097.634, 114.7450
1098.116, 114.6490
1098.598, 114.8377
1099.080, 114.7459
1099.562, 114.3216
1100.044, 113.6558
1100.527, 112.2129
1101.009, 111.1519
1101.491, 111.3574
1101.973, 112.3849
1102.455, 112.9046
1102.937, 112.9184
1103.419, 112.7379
1103.901, 112.4091
1104.384, 112.0404
1104.866, 111.7544
1105.348, 111.4764
1105.830, 111.0369
1106.312, 110.3586
1106.794, 110.3194
1107.276, 111.1446
1107.758, 111.6740
1108.240, 111.1192
1108.723, 110.2913
1109.205, 110.6996
1109.687, 111.7488
1110.169, 112.2909
1110.651, 111.7989
1111.133, 111.1320
1111.615, 110.3117
1112.097, 109.4232
1112.579, 108.2265
1113.062, 107.0405
1113.544, 107.3095
1114.026, 108.7462
1114.508, 109.9127
1114.990, 110.0751
1115.472, 109.8803
1115.954, 109.3283
1116.436, 108.7083
1116.919, 108.4053
1117.401, 108.3979
1117.883, 108.5223
1118.365, 108.7656
1118.847, 108.6610
1119.329, 107.1186
1119.811, 105.8237
1120.293, 106.3579
1120.776, 108.0700
1121.258, 108.6243
1121.740, 107.8895
1122.222, 107.3755
1122.704, 107.5283
1123.186, 107.3880
1123.668, 105.0528
1124.150, 102.4762
1124.632, 101.9108
1125.115, 103.8466
1125.597, 105.4864
1126.079, 106.9055
1126.561, 107.6074
1127.043, 107.1990
1127.525, 106.3058
1128.007, 105.8864
1128.489, 105.7473
1128.971, 105.5687
1129.454, 105.2809
1129.936, 104.9098
1130.418, 104.3132
1130.900, 103.9259
1131.382, 104.1917
1131.864, 104.7923
1132.346, 104.6256
1132.828, 103.9270
1133.311, 103.4733
1133.793, 103.9619
1134.275, 104.2396
1134.757, 103.8863
1135.239, 103.3965
1135.721, 103.1806
1136.203, 103.2317
1136.685, 103.4970
1137.167, 103.9742
1137.650, 104.6460
1138.132, 105.9438
1138.614, 106.9472
1139.096, 106.8351
1139.578, 106.3153
1140.060, 106.7650
1140.542, 108.2339
1141.024, 108.0743
1141.506, 105.9128
1141.989, 104.0374
1142.471, 104.9209
1142.953, 106.2127
1143.435, 105.8951
1143.917, 104.3291
1144.399, 103.6152
1144.881, 103.8226
1145.363, 104.5806
1145.846, 105.9494
1146.328, 107.1832
1146.810, 107.2794
1147.292, 106.8979
1147.774, 106.7210
1148.256, 106.8492
1148.738, 106.9662
1149.220, 107.1815
1149.703, 106.9312
1150.185, 105.8874
1150.667, 104.5447
1151.149, 103.3679
1151.631, 102.4862
1152.113, 102.1913
1152.595, 102.8279
1153.077, 102.9305
1153.559, 101.9377
1154.042, 101.5611
1154.524, 103.1370
1155.006, 105.5598
1155.488, 106.2540
1155.970, 105.8017
1156.452, 105.5967
1156.934, 106.4305
1157.416, 106.8847
1157.898, 106.5223
1158.381, 106.2011
1158.863, 106.8706
1159.345, 108.1058
1159.827, 107.8805
1160.309, 106.5809
1160.791, 105.7764
1161.273, 106.6797
1161.755, 107.5309
1162.238, 107.9644
1162.720, 108.0815
1163.202, 107.9425
1163.684, 107.5643
1164.166, 106.7644
1164.648, 105.6576
1165.130, 105.3879
1165.612, 107.9781
1166.094, 109.9475
1166.577, 109.3360
1167.059, 107.5535
1167.541, 106.7012
1168.023, 106.7082
1168.505, 106.7620
1168.987, 106.7785
1169.469, 106.8679
1169.951, 107.0844
1170.433, 107.4226
1170.916, 108.0518
1171.398, 108.7603
1171.880, 109.0866
1172.362, 109.0321
1172.844, 108.0060
1173.326, 105.5942
1173.808, 104.5980
1174.290, 108.9696
1174.773, 114.3483
1175.255, 117.7333
1175.737, 119.1182
1176.219, 117.8861
1176.701, 113.8640
1177.183, 110.6980
1177.665, 109.4514
1178.147, 108.9903
1178.630, 108.4969
1179.112, 108.0593
1179.594, 107.8159
1180.076, 107.7692
1180.558, 107.4192
1181.040, 106.6778
1181.522, 106.5763
1182.004, 107.8794
1182.486, 109.1769
1182.969, 108.3625
1183.451, 106.9836
1183.933, 107.1759
1184.415, 109.5575
1184.897, 110.4906
1185.379, 109.7372
1185.861, 109.0992
1186.343, 109.6908
1186.825, 110.6018
1187.308, 110.7742
1187.790, 110.5261
1188.272, 110.3127
1188.754, 110.0802
1189.236, 110.3189
1189.718, 111.1144
1190.200, 111.9348
1190.682, 112.6256
1191.165, 112.9931
1191.647, 112.5605
1192.129, 111.6673
1192.611, 110.9910
1193.093, 110.7169
1193.575, 110.5303
1194.057, 110.4242
1194.539, 110.4195
1195.021, 110.5011
1195.504, 110.7134
1195.986, 111.4951
1196.468, 112.4517
1196.950, 112.3473
1197.432, 110.0794
1197.914, 108.7709
1198.396, 108.6554
1198.878, 109.3440
1199.360, 111.1652
1199.843, 113.1192
1200.325, 113.4973
1200.807, 112.6343
1201.289, 112.1360
1201.771, 112.7622
1202.253, 112.5833
1202.735, 111.1640
1203.217, 109.6308
1203.700, 109.2006
1204.182, 109.4737
1204.664, 110.1578
1205.146, 111.0885
1205.628, 111.3500
1206.110, 110.0471
1206.592, 109.9933
1207.074, 112.0612
1207.557, 114.2369
1208.039, 113.5362
1208.521, 111.5861
1209.003, 110.7300
1209.485, 111.1168
1209.967, 111.5617
1210.449, 112.1384
1210.931, 112.1071
1211.413, 111.1191
1211.896, 109.9925
1212.378, 109.6156
1212.860, 109.9070
1213.342, 111.0634
1213.824, 113.1007
1214.306, 114.2887
1214.788, 114.3306
1215.270, 113.8996
1215.752, 112.9530
1216.235, 112.1743
1216.717, 113.0574
1217.199, 114.4840
1217.681, 114.7038
1218.163, 113.3783
1218.645, 112.3096
1219.127, 111.5509
1219.609, 111.3145
1220.092, 111.7729
1220.574, 112.5410
1221.056, 113.1458
1221.538, 113.6390
1222.020, 114.0296
1222.502, 114.2696
1222.984, 114.9623
1223.466, 116.4223
1223.948, 117.2644
1224.431, 116.7690
1224.913, 115.8486
1225.395, 115.9114
1225.877, 116.3616
1226.359, 116.3254
1226.841, 115.5105
1227.323, 114.9394
1227.805, 114.5879
1228.287, 114.6728
1228.770, 115.5363
1229.252, 116.4151
1229.734, 115.9824
1230.216, 115.0419
1230.698, 114.6762
1231.180, 115.1244
1231.662, 115.9231
1232.144, 117.2101
1232.627, 118.0002
1233.109, 117.3740
1233.591, 116.8369
1234.073, 119.2841
1234.555, 122.3907
1235.037, 122.5800
1235.519, 118.8237
1236.001, 117.0312
1236.484, 117.3906
1236.966, 118.1822
1237.448, 118.6930
1237.930, 119.0365
1238.412, 119.3959
1238.894, 119.6255
1239.376, 119.4187
1239.858, 118.6530
1240.340, 118.4136
1240.823, 118.7154
1241.305, 119.2695
1241.787, 120.3521
1242.269, 121.0032
1242.751, 119.6493
1243.233, 117.8245
1243.715, 117.5700
1244.197, 119.1071
1244.679, 120.1206
1245.162, 120.6242
1245.644, 120.8976
1246.126, 121.0680
1246.608, 121.1042
1247.090, 121.0261
1247.572, 120.7623
1248.054, 120.1462
1248.536, 119.1367
1249.019, 118.8264
1249.501, 119.1934
1249.983, 120.0085
1250.465, 121.6747
1250.947, 123.0892
1251.429, 123.4412
1251.911, 123.4486
1252.393, 123.7746
1252.875, 124.3923
1253.358, 124.9466
1253.840, 125.3975
1254.322, 125.5186
1254.804, 124.6446
1255.286, 124.1373
1255.768, 124.8480
1256.250, 125.7043
1256.732, 125.7154
1257.214, 125.0585
1257.697, 124.6309
1258.179, 124.5072
1258.661, 124.9920
1259.143, 127.8184
1259.625, 128.7980
1260.107, 126.1118
1260.589, 123.2198
1261.071, 123.4032
1261.554, 125.6474
1262.036, 126.8370
1262.518, 127.2003
1263.000, 127.6522
1263.482, 129.2882
1263.964, 129.6508
1264.446, 127.9755
1264.928, 126.3572
1265.411, 126.9081
1265.893, 128.5320
1266.375, 129.2619
1266.857, 129.2761
1267.339, 129.1116
1267.821, 128.8936
1268.303, 128.4669
1268.785, 127.7504
1269.267, 127.1252
1269.750, 126.7883
1270.232, 126.8049
1270.714, 127.4877
1271.196, 128.5511
1271.678, 129.3513
1272.160, 129.9544
1272.642, 129.7813
1273.124, 128.6966
1273.606, 127.8692
1274.089, 128.2346
1274.571, 129.1367
1275.053, 130.6398
1275.535, 131.9791
1276.017, 131.6141
1276.499, 128.9777
1276.981, 128.6846
1277.463, 130.7921
1277.946, 133.1372
1278.428, 135.0926
1278.910, 135.9546
1279.392, 134.4962
1279.874, 132.1705
1280.356, 130.5164
1280.838, 129.5562
1281.320, 129.3689
1281.802, 129.8880
1282.285, 130.5307
1282.767, 131.1730
1283.249, 131.6225
1283.731, 131.4588
1284.213, 131.4577
1284.695, 132.7115
1285.177, 134.7431
1285.659, 134.8786
1286.141, 133.5962
1286.624, 132.9198
1287.106, 134.5040
1287.588, 135.5723
1288.070, 135.6386
1288.552, 135.3989
1289.034, 135.2792
1289.516, 135.3297
1289.998, 135.9228
1290.481, 136.7592
1290.963, 137.0701
1291.445, 136.3895
1291.927, 135.4536
1292.409, 134.0906
1292.891, 133.1626
1293.373, 133.6606
1293.855, 134.6415
1294.338, 135.1303
1294.820, 135.1518
1295.302, 134.5571
1295.784, 132.8165
1296.266, 132.9875
1296.748, 135.1901
1297.230, 137.1477
1297.712, 137.3785
1298.194, 136.9315
1298.677, 136.3903
1299.159, 135.7714
1299.641, 135.0922
1300.123, 134.3455
1300.605, 133.5132
1301.087, 132.6543
1301.569, 132.3341
1302.051, 133.2784
1302.533, 134.0925
1303.016, 134.3154
##END=



