##NAMES=Tugtupite
##RRUFFID=R050562
##IDEAL CHEMISTRY=Na_4_BeAlSi_4_O_12_Cl
##LOCALITY=Kvanefjeld, Ilimaussag, Greenland
##OWNER=RRUFF
##SOURCE=Dave Bunk Minerals
##DESCRIPTION=Pink fragment
##STATUS=The identification of this mineral is confirmed by single-crystal X-ray diffraction and chemical analysis.
##URL=rruff.info/R050562
##MEASURED CHEMISTRY=Na_4.00_Be_1.00_Al_1.00_Si_4.00_O_12_Cl_1.00_; BeO estimated by difference; trace amounts of Fe
92.06543, 332.8914
92.54755, 332.2204
93.02966, 333.6609
93.51178, 334.5161
93.99390, 334.0082
94.47601, 332.8023
94.95813, 331.3312
95.44025, 329.6931
95.92236, 327.7496
96.40448, 325.2505
96.88660, 325.2487
97.36871, 329.3884
97.85082, 334.4560
98.33294, 338.6429
98.81506, 341.5240
99.29717, 342.6151
99.77929, 342.3807
100.2614, 341.0761
100.7435, 340.3310
101.2256, 340.7128
101.7078, 341.8320
102.1899, 342.9648
102.6720, 344.1748
103.1541, 344.9938
103.6362, 345.7504
104.1183, 346.4180
104.6005, 345.2243
105.0826, 339.6260
105.5647, 328.8265
106.0468, 319.7222
106.5289, 314.1055
107.0110, 310.2316
107.4931, 308.1649
107.9753, 307.8117
108.4574, 307.3293
108.9395, 302.7968
109.4216, 290.6913
109.9037, 279.7685
110.3858, 269.2479
110.8680, 260.7546
111.3501, 255.9641
111.8322, 255.7801
112.3143, 259.9641
112.7964, 267.4895
113.2785, 279.2767
113.7607, 293.0120
114.2428, 312.0537
114.7249, 333.3023
115.2070, 349.7241
115.6891, 356.4583
116.1712, 352.4294
116.6534, 341.1640
117.1355, 316.8053
117.6176, 289.6579
118.0997, 266.3487
118.5818, 247.2946
119.0639, 232.7565
119.5461, 225.0870
120.0282, 222.6476
120.5103, 221.6093
120.9924, 221.2202
121.4745, 221.4466
121.9566, 222.2364
122.4388, 223.6549
122.9209, 225.6184
123.4030, 227.9583
123.8851, 230.6624
124.3672, 233.7374
124.8493, 237.4507
125.3315, 241.9029
125.8136, 245.6269
126.2957, 248.6991
126.7778, 250.7820
127.2599, 251.6636
127.7420, 251.3119
128.2242, 249.8454
128.7063, 247.5745
129.1884, 245.2032
129.6705, 240.1797
130.1526, 231.0214
130.6347, 220.6130
131.1169, 210.8613
131.5990, 202.4546
132.0811, 195.1567
132.5632, 188.4883
133.0453, 181.9480
133.5274, 176.7137
134.0096, 173.2860
134.4917, 171.1319
134.9738, 169.5728
135.4559, 168.3153
135.9380, 167.3982
136.4201, 166.9789
136.9023, 167.1489
137.3844, 167.5568
137.8665, 168.3946
138.3486, 169.4914
138.8307, 170.0079
139.3128, 169.2268
139.7950, 167.6012
140.2771, 166.3286
140.7592, 165.7190
141.2413, 165.2230
141.7234, 163.8425
142.2055, 161.1855
142.6877, 159.7210
143.1698, 161.9101
143.6519, 165.7890
144.1340, 169.2794
144.6161, 171.5702
145.0982, 172.9745
145.5803, 174.3318
146.0625, 175.7921
146.5446, 176.9146
147.0267, 176.7713
147.5088, 176.3280
147.9909, 177.1025
148.4730, 180.2724
148.9552, 185.7197
149.4373, 190.8323
149.9194, 196.0184
150.4015, 200.4774
150.8836, 202.7934
151.3657, 204.0138
151.8479, 206.4094
152.3300, 211.9572
152.8121, 220.9901
153.2942, 231.8065
153.7763, 244.2930
154.2584, 258.1842
154.7406, 273.5994
155.2227, 290.3947
155.7048, 308.4661
156.1869, 328.1507
156.6690, 350.6134
157.1511, 369.2299
157.6333, 385.9294
158.1154, 397.9211
158.5975, 402.0727
159.0796, 397.6590
159.5617, 387.3858
160.0438, 373.1329
160.5260, 354.7993
161.0081, 336.6645
161.4902, 319.4405
161.9723, 303.1103
162.4544, 287.4549
162.9365, 272.2353
163.4187, 258.3967
163.9008, 247.1337
164.3829, 238.3276
164.8650, 230.5567
165.3471, 223.0194
165.8292, 215.8153
166.3113, 209.7962
166.7935, 205.7933
167.2756, 202.5168
167.7577, 198.7644
168.2398, 194.5113
168.7219, 190.7016
169.2040, 188.1879
169.6862, 187.0166
170.1683, 186.8475
170.6504, 188.1795
171.1325, 190.1688
171.6146, 192.6147
172.0967, 195.4128
172.5789, 198.2857
173.0610, 200.6819
173.5431, 201.9398
174.0252, 204.3115
174.5073, 208.3421
174.9894, 213.0841
175.4716, 218.0898
175.9537, 223.1335
176.4358, 228.0101
176.9179, 232.1867
177.4000, 233.8601
177.8821, 237.4598
178.3643, 246.0163
178.8464, 255.2237
179.3285, 260.7743
179.8106, 260.9280
180.2927, 256.8483
180.7748, 251.5398
181.2570, 244.5258
181.7391, 236.8853
182.2212, 228.0202
182.7033, 218.7100
183.1854, 210.1005
183.6675, 202.6526
184.1497, 196.3578
184.6318, 191.3327
185.1139, 187.5265
185.5960, 184.6122
186.0781, 182.8672
186.5602, 182.0076
187.0423, 181.1648
187.5245, 179.7854
188.0066, 178.3536
188.4887, 177.9322
188.9708, 178.8787
189.4529, 180.1539
189.9350, 180.7320
190.4172, 180.7588
190.8993, 181.9171
191.3814, 185.5210
191.8635, 190.4820
192.3456, 195.1768
192.8277, 199.3392
193.3099, 203.4066
193.7920, 207.7932
194.2741, 212.5201
194.7562, 217.4777
195.2383, 222.3168
195.7204, 227.5340
196.2026, 233.5077
196.6847, 240.2934
197.1668, 248.1005
197.6489, 256.9621
198.1310, 266.3161
198.6131, 278.5536
199.0953, 295.1884
199.5774, 314.3495
200.0595, 334.4488
200.5416, 354.9664
201.0237, 376.1997
201.5058, 399.6591
201.9880, 430.8948
202.4701, 453.7438
202.9522, 467.8456
203.4343, 472.6756
203.9164, 466.6808
204.3985, 449.0916
204.8807, 422.1711
205.3628, 392.2684
205.8449, 354.3190
206.3270, 320.2909
206.8091, 291.0627
207.2912, 266.4893
207.7733, 246.4930
208.2555, 231.1800
208.7376, 219.9531
209.2197, 210.6685
209.7018, 204.3429
210.1839, 198.9885
210.6660, 194.5576
211.1482, 190.9838
211.6303, 188.3537
212.1124, 186.7655
212.5945, 185.9398
213.0766, 184.6877
213.5587, 182.6986
214.0409, 180.6977
214.5230, 178.6774
215.0051, 176.7511
215.4872, 175.0271
215.9693, 173.5060
216.4514, 172.3198
216.9336, 172.0855
217.4157, 173.7395
217.8978, 174.9191
218.3799, 174.4447
218.8620, 172.8703
219.3441, 171.5736
219.8263, 171.2253
220.3084, 171.5797
220.7905, 171.9075
221.2726, 172.1648
221.7547, 172.4730
222.2368, 173.2029
222.7190, 174.1402
223.2011, 174.2126
223.6832, 172.2771
224.1653, 169.8382
224.6474, 169.6902
225.1295, 172.4606
225.6117, 175.9403
226.0938, 178.9640
226.5759, 181.5342
227.0580, 183.4782
227.5401, 183.9041
228.0222, 184.3474
228.5043, 186.8945
228.9865, 192.0805
229.4686, 197.5667
229.9507, 201.0528
230.4328, 202.5527
230.9149, 204.7819
231.3970, 209.6270
231.8792, 214.7286
232.3613, 217.7982
232.8434, 218.4378
233.3255, 218.7783
233.8076, 220.9043
234.2897, 224.9387
234.7719, 229.3087
235.2540, 233.3595
235.7361, 237.9340
236.2182, 243.3832
236.7003, 249.8089
237.1824, 257.5012
237.6646, 266.8220
238.1467, 277.9021
238.6288, 290.2431
239.1109, 304.7471
239.5930, 319.9250
240.0751, 335.8571
240.5573, 352.2302
241.0394, 367.5904
241.5215, 381.4015
242.0036, 395.3242
242.4857, 400.7646
242.9678, 390.3292
243.4500, 376.9189
243.9321, 365.8723
244.4142, 358.1451
244.8963, 352.3249
245.3784, 346.7667
245.8605, 341.0926
246.3427, 337.2005
246.8248, 336.8255
247.3069, 336.6609
247.7890, 334.5981
248.2711, 330.8839
248.7532, 327.5641
249.2354, 326.9381
249.7175, 329.7853
250.1996, 332.0688
250.6817, 333.6902
251.1638, 334.9214
251.6459, 335.9111
252.1281, 336.6367
252.6102, 336.7487
253.0923, 335.4849
253.5744, 331.9127
254.0565, 333.0930
254.5386, 340.9999
255.0208, 350.8477
255.5029, 361.1782
255.9850, 371.6379
256.4671, 382.1134
256.9492, 392.4619
257.4313, 402.5349
257.9135, 414.0894
258.3956, 427.8913
258.8777, 442.0480
259.3598, 455.4357
259.8419, 468.4295
260.3240, 482.4169
260.8062, 498.5445
261.2883, 516.8292
261.7704, 534.8288
262.2525, 552.4545
262.7346, 570.1405
263.2167, 588.5719
263.6989, 607.2931
264.1810, 624.9654
264.6631, 640.8863
265.1452, 655.0427
265.6273, 667.3763
266.1094, 677.9310
266.5916, 687.0547
267.0737, 695.4852
267.5558, 702.5839
268.0379, 706.8138
268.5200, 707.1851
269.0021, 704.1664
269.4843, 699.6121
269.9664, 694.0546
270.4485, 686.7839
270.9306, 677.2373
271.4127, 665.8300
271.8948, 653.2471
272.3770, 639.5612
272.8591, 625.2947
273.3412, 611.6407
273.8233, 599.4517
274.3054, 586.1417
274.7875, 569.8624
275.2697, 552.0739
275.7518, 535.6570
276.2339, 521.7405
276.7160, 509.2448
277.1981, 496.2977
277.6802, 482.7069
278.1623, 469.4575
278.6444, 456.7512
279.1266, 444.5136
279.6087, 432.4659
280.0908, 420.3571
280.5729, 409.0965
281.0550, 399.9083
281.5371, 392.5088
282.0193, 387.1415
282.5014, 384.6053
282.9835, 383.8940
283.4656, 383.5468
283.9477, 383.2691
284.4298, 383.6307
284.9120, 385.0911
285.3941, 387.6094
285.8762, 391.7511
286.3583, 398.4340
286.8404, 406.4387
287.3225, 414.8406
287.8047, 423.7396
288.2868, 431.5280
288.7689, 437.7447
289.2510, 441.8150
289.7331, 441.6449
290.2152, 436.5762
290.6974, 427.2373
291.1795, 413.6787
291.6616, 395.8473
292.1437, 375.6452
292.6258, 352.1322
293.1079, 327.3231
293.5901, 305.7168
294.0722, 288.6011
294.5543, 273.8678
295.0364, 259.7534
295.5185, 246.2639
296.0006, 234.5606
296.4828, 225.4250
296.9649, 218.4667
297.4470, 212.6758
297.9291, 208.3603
298.4112, 204.4251
298.8933, 199.8894
299.3755, 194.9603
299.8576, 190.9124
300.3397, 188.6623
300.8218, 186.9730
301.3039, 183.7060
301.7860, 178.4877
302.2682, 174.4745
302.7503, 174.2991
303.2324, 176.8863
303.7145, 178.3964
304.1966, 177.7024
304.6787, 176.2351
305.1609, 175.2923
305.6430, 174.8380
306.1251, 174.9446
306.6072, 175.5827
307.0893, 176.8101
307.5714, 178.8698
308.0536, 181.9626
308.5357, 185.3976
309.0178, 188.8171
309.4999, 192.1451
309.9820, 195.0820
310.4641, 196.5045
310.9463, 197.8747
311.4284, 202.0445
311.9105, 209.6856
312.3926, 216.5800
312.8747, 219.0399
313.3568, 218.9851
313.8390, 219.6369
314.3211, 221.1868
314.8032, 224.1069
315.2853, 229.5747
315.7674, 237.6358
316.2495, 245.2677
316.7317, 250.7529
317.2138, 255.2150
317.6959, 260.2779
318.1780, 266.0180
318.6601, 272.4566
319.1422, 280.0234
319.6243, 288.5399
320.1064, 296.4658
320.5886, 302.9539
321.0707, 309.0779
321.5528, 315.7111
322.0349, 322.7302
322.5170, 331.6672
322.9991, 342.7142
323.4813, 356.2451
323.9634, 374.3751
324.4455, 399.0463
324.9276, 424.7979
325.4097, 448.6503
325.8918, 470.1811
326.3740, 483.1268
326.8561, 486.6351
327.3382, 479.8904
327.8203, 459.1223
328.3024, 422.0167
328.7845, 380.9148
329.2667, 342.5184
329.7488, 307.1928
330.2309, 276.1579
330.7130, 250.0666
331.1951, 228.2318
331.6772, 210.4309
332.1594, 196.6393
332.6415, 185.6542
333.1236, 177.7090
333.6057, 171.9389
334.0878, 166.0835
334.5699, 159.9216
335.0521, 154.0264
335.5342, 148.2865
336.0163, 142.9849
336.4984, 139.4237
336.9805, 138.7115
337.4626, 139.0771
337.9448, 137.6622
338.4269, 134.2578
338.9090, 130.9465
339.3911, 128.5577
339.8732, 126.8144
340.3553, 125.2107
340.8375, 123.6302
341.3196, 122.2584
341.8017, 121.4934
342.2838, 121.2649
342.7659, 120.7490
343.2480, 119.2340
343.7302, 117.6691
344.2123, 117.1907
344.6944, 117.8742
345.1765, 118.9025
345.6586, 120.0489
346.1407, 121.0254
346.6229, 120.6890
347.1050, 117.4632
347.5871, 114.3275
348.0692, 113.2047
348.5513, 113.7476
349.0334, 114.7104
349.5156, 115.7323
349.9977, 116.4966
350.4798, 116.0217
350.9619, 113.6901
351.4440, 111.6183
351.9261, 110.4558
352.4083, 109.9988
352.8904, 110.1002
353.3725, 110.7912
353.8546, 111.4937
354.3367, 111.2230
354.8188, 109.6005
355.3010, 108.6510
355.7831, 109.1745
356.2652, 110.0603
356.7473, 110.1406
357.2294, 109.3529
357.7115, 108.7083
358.1937, 109.1551
358.6758, 110.7573
359.1579, 112.0212
359.6400, 112.4876
360.1221, 113.0957
360.6042, 114.8066
361.0863, 117.0835
361.5685, 118.3314
362.0506, 117.5087
362.5327, 115.2586
363.0148, 114.2451
363.4969, 115.1634
363.9790, 116.3490
364.4612, 117.7543
364.9433, 119.2391
365.4254, 120.5699
365.9075, 121.6797
366.3896, 122.7770
366.8717, 124.2197
367.3539, 126.2916
367.8360, 128.0577
368.3181, 129.3463
368.8002, 130.4802
369.2823, 131.3907
369.7644, 132.2545
370.2466, 133.7261
370.7287, 136.5886
371.2108, 140.9988
371.6929, 143.9668
372.1750, 143.7780
372.6571, 144.0938
373.1393, 146.2270
373.6214, 149.5852
374.1035, 153.0535
374.5856, 156.0004
375.0677, 158.6688
375.5498, 161.8971
376.0320, 166.1963
376.5141, 170.3325
376.9962, 173.9457
377.4783, 177.5100
377.9604, 181.5163
378.4425, 186.0600
378.9247, 190.6833
379.4068, 194.5213
379.8889, 196.9097
380.3710, 200.8708
380.8531, 207.4205
381.3352, 214.6400
381.8174, 221.8613
382.2995, 229.0569
382.7816, 236.4779
383.2637, 244.3599
383.7458, 252.6091
384.2279, 260.4512
384.7101, 267.6351
385.1922, 274.7793
385.6743, 282.2625
386.1564, 289.7496
386.6385, 297.2573
387.1206, 304.9191
387.6028, 311.5897
388.0849, 315.5371
388.5670, 316.6237
389.0491, 315.5707
389.5312, 312.1891
390.0133, 306.7430
390.4955, 298.5591
390.9776, 287.8379
391.4597, 276.9154
391.9418, 267.9695
392.4239, 260.5240
392.9060, 252.0089
393.3882, 242.1599
393.8703, 231.3264
394.3524, 218.6343
394.8345, 205.2027
395.3166, 193.5457
395.7987, 185.1933
396.2809, 178.6452
396.7630, 171.9732
397.2451, 165.0791
397.7272, 158.7534
398.2093, 153.0806
398.6914, 148.3991
399.1736, 145.2200
399.6557, 143.9295
400.1378, 142.8265
400.6199, 140.8101
401.1020, 138.2009
401.5841, 135.8897
402.0662, 134.1341
402.5483, 132.5629
403.0305, 130.7490
403.5126, 128.7091
403.9947, 126.7346
404.4768, 124.3314
404.9589, 122.3744
405.4410, 122.2637
405.9232, 123.8105
406.4053, 124.7501
406.8874, 123.3703
407.3695, 120.2292
407.8516, 118.2561
408.3337, 117.9929
408.8159, 118.0904
409.2980, 118.3223
409.7801, 118.5999
410.2622, 118.7009
410.7443, 118.5406
411.2264, 118.4360
411.7086, 118.9662
412.1907, 120.7250
412.6728, 121.5803
413.1549, 120.1373
413.6370, 118.9221
414.1191, 120.1960
414.6013, 123.5455
415.0834, 126.6189
415.5655, 127.4697
416.0476, 126.2576
416.5297, 125.7143
417.0118, 125.7697
417.4940, 126.6236
417.9761, 128.6177
418.4582, 131.3312
418.9403, 134.4960
419.4224, 137.9853
419.9045, 141.2227
420.3867, 143.0099
420.8688, 142.4166
421.3509, 142.8432
421.8330, 145.0721
422.3151, 147.7393
422.7972, 150.2213
423.2794, 152.4802
423.7615, 154.7306
424.2436, 157.0669
424.7257, 159.5277
425.2078, 162.3977
425.6899, 165.6953
426.1721, 169.3992
426.6542, 173.6213
427.1363, 178.1543
427.6184, 182.7070
428.1005, 187.1368
428.5826, 191.8386
429.0648, 197.3237
429.5469, 203.6307
430.0290, 209.9582
430.5111, 215.0804
430.9932, 221.4406
431.4753, 231.3856
431.9575, 244.5536
432.4396, 258.0018
432.9217, 269.1949
433.4038, 280.1012
433.8859, 294.2199
434.3680, 311.7764
434.8502, 331.4251
435.3323, 353.0416
435.8144, 376.1022
436.2965, 399.1986
436.7786, 423.7597
437.2607, 446.1081
437.7429, 466.2928
438.2250, 482.6227
438.7071, 490.8065
439.1892, 489.2653
439.6713, 480.6250
440.1534, 467.5984
440.6356, 449.1042
441.1177, 430.7345
441.5998, 410.5236
442.0819, 392.3676
442.5640, 379.7162
443.0461, 372.0829
443.5282, 366.4990
444.0103, 361.1029
444.4925, 356.0553
444.9746, 352.3551
445.4567, 350.0366
445.9388, 349.0949
446.4209, 348.9088
446.9030, 350.4340
447.3852, 354.8580
447.8673, 362.3835
448.3494, 372.0367
448.8315, 382.6292
449.3136, 394.0990
449.7957, 406.8100
450.2779, 418.4581
450.7600, 433.8316
451.2421, 455.1064
451.7242, 481.3516
452.2063, 510.5357
452.6884, 541.1980
453.1706, 574.5471
453.6527, 612.8645
454.1348, 655.8768
454.6169, 704.1794
455.0990, 758.1324
455.5811, 817.6470
456.0633, 883.3082
456.5454, 955.0367
457.0275, 1032.245
457.5096, 1117.082
457.9917, 1207.367
458.4738, 1298.160
458.9560, 1391.798
459.4381, 1479.048
459.9202, 1559.679
460.4023, 1628.437
460.8844, 1673.349
461.3665, 1691.605
461.8487, 1686.096
462.3308, 1656.031
462.8129, 1603.428
463.2950, 1533.193
463.7771, 1443.569
464.2592, 1344.358
464.7414, 1246.620
465.2235, 1149.250
465.7056, 1059.098
466.1877, 977.7823
466.6698, 902.3819
467.1519, 831.5242
467.6341, 764.5695
468.1162, 700.8841
468.5983, 639.9060
469.0804, 581.9770
469.5625, 531.1082
470.0446, 489.1835
470.5268, 452.2390
471.0089, 421.0061
471.4910, 394.1924
471.9731, 371.3668
472.4552, 352.1240
472.9373, 335.4906
473.4195, 320.6276
473.9016, 307.6531
474.3837, 295.1207
474.8658, 282.6658
475.3479, 271.2003
475.8300, 261.0875
476.3122, 252.1117
476.7943, 243.8150
477.2764, 236.0300
477.7585, 228.9454
478.2406, 223.0023
478.7227, 218.3695
479.2049, 213.5237
479.6870, 207.6856
480.1691, 202.1117
480.6512, 197.9236
481.1333, 194.8829
481.6154, 191.7581
482.0976, 187.9029
482.5797, 183.6420
483.0618, 179.3430
483.5439, 175.0007
484.0260, 170.9605
484.5081, 167.2608
484.9902, 164.0728
485.4724, 161.7281
485.9545, 160.4933
486.4366, 159.2489
486.9187, 157.4648
487.4008, 155.5067
487.8829, 154.0002
488.3651, 152.9992
488.8472, 151.8050
489.3293, 149.6736
489.8114, 146.6069
490.2935, 144.6490
490.7756, 144.1889
491.2578, 144.1621
491.7399, 144.4567
492.2220, 144.9457
492.7041, 145.5288
493.1862, 146.1605
493.6683, 146.7746
494.1505, 147.2213
494.6326, 147.3577
495.1147, 147.8895
495.5968, 149.1336
496.0789, 150.4712
496.5610, 151.8468
497.0432, 153.1280
497.5253, 153.9858
498.0074, 154.0765
498.4895, 154.1390
498.9716, 155.6729
499.4537, 158.8914
499.9359, 162.2292
500.4180, 165.0341
500.9001, 168.1758
501.3822, 172.6745
501.8643, 178.3784
502.3464, 183.5991
502.8286, 186.0531
503.3107, 188.2562
503.7928, 194.4320
504.2749, 204.7029
504.7570, 216.0182
505.2391, 226.7957
505.7213, 237.5651
506.2034, 249.4842
506.6855, 262.8178
507.1676, 276.4719
507.6497, 291.1898
508.1318, 305.5397
508.6140, 318.5319
509.0961, 329.7135
509.5782, 337.9462
510.0603, 342.4904
510.5424, 343.2692
511.0245, 337.8064
511.5067, 323.0599
511.9888, 305.6893
512.4709, 284.6674
512.9530, 262.5568
513.4351, 241.5753
513.9172, 222.4352
514.3994, 205.2385
514.8815, 190.0696
515.3636, 176.8708
515.8457, 165.7534
516.3278, 157.0162
516.8099, 150.0962
517.2921, 145.5191
517.7742, 142.2055
518.2563, 138.3095
518.7384, 132.8595
519.2205, 127.8428
519.7026, 125.9726
520.1848, 126.8143
520.6669, 126.8681
521.1490, 125.0843
521.6311, 122.9947
522.1132, 122.2013
522.5953, 122.4929
523.0775, 122.9565
523.5596, 123.4971
524.0417, 124.1067
524.5238, 124.9633
525.0059, 125.8916
525.4880, 126.2433
525.9702, 125.6687
526.4523, 124.9691
526.9344, 125.5684
527.4165, 128.0980
527.8986, 130.3448
528.3807, 132.3353
528.8629, 134.0562
529.3450, 135.0202
529.8271, 135.7248
530.3092, 137.3629
530.7913, 140.6877
531.2734, 144.8787
531.7556, 147.7259
532.2377, 148.3229
532.7198, 150.1338
533.2019, 154.3701
533.6840, 159.3873
534.1661, 164.4949
534.6483, 169.6491
535.1304, 174.9624
535.6125, 180.4065
536.0946, 186.1315
536.5767, 192.5837
537.0588, 199.7956
537.5410, 207.0210
538.0231, 213.8047
538.5052, 220.5844
538.9873, 227.7290
539.4694, 235.0811
539.9515, 243.8145
540.4337, 254.6942
540.9158, 266.8604
541.3979, 279.6751
541.8800, 292.9962
542.3621, 306.6996
542.8442, 320.6241
543.3264, 334.8899
543.8085, 349.9149
544.2906, 364.7289
544.7726, 381.7144
545.2548, 400.8064
545.7369, 422.0744
546.2190, 445.6998
546.7011, 471.4858
547.1832, 498.9404
547.6653, 527.3378
548.1475, 558.5526
548.6296, 589.5158
549.1117, 625.3825
549.5938, 661.8336
550.0759, 699.0814
550.5580, 735.9329
551.0402, 772.6300
551.5223, 808.8477
552.0044, 841.5858
552.4865, 870.8642
552.9686, 895.0186
553.4507, 911.8778
553.9329, 921.3522
554.4150, 921.6156
554.8971, 911.1947
555.3792, 891.2609
555.8613, 864.0587
556.3434, 828.4391
556.8256, 790.1885
557.3077, 749.9719
557.7898, 707.6736
558.2719, 661.8226
558.7540, 613.5026
559.2361, 567.5920
559.7183, 527.2286
560.2004, 491.8839
560.6825, 458.1576
561.1646, 425.7128
561.6467, 396.1238
562.1288, 368.9427
562.6110, 344.6141
563.0931, 323.8452
563.5752, 306.3039
564.0573, 290.3087
564.5394, 274.4538
565.0215, 259.4396
565.5037, 247.6010
565.9858, 239.3907
566.4679, 231.0327
566.9500, 220.5717
567.4321, 209.7896
567.9142, 200.9124
568.3964, 193.9951
568.8785, 188.0396
569.3606, 183.3886
569.8427, 179.0859
570.3248, 173.7818
570.8069, 167.7595
571.2891, 162.5842
571.7712, 159.2564
572.2533, 157.0138
572.7354, 153.9716
573.2175, 149.0154
573.6996, 145.2408
574.1818, 143.1729
574.6639, 141.7254
575.1460, 140.7502
575.6281, 139.8223
576.1102, 138.0574
576.5923, 134.8076
577.0745, 130.8543
577.5566, 128.0019
578.0387, 126.4785
578.5208, 124.7929
579.0029, 122.1919
579.4850, 119.8899
579.9672, 119.0682
580.4493, 119.3864
580.9314, 119.3628
581.4135, 118.3825
581.8956, 116.8933
582.3777, 114.7526
582.8599, 112.3563
583.3420, 111.6419
583.8241, 113.6151
584.3062, 115.8051
584.7883, 114.6293
585.2704, 109.0468
585.7526, 105.1587
586.2347, 103.7105
586.7168, 103.0119
587.1989, 102.2254
587.6810, 101.7342
588.1631, 102.6417
588.6453, 105.2572
589.1274, 107.9224
589.6095, 107.8603
590.0916, 104.6406
590.5737, 102.7747
591.0558, 103.1155
591.5380, 103.6626
592.0201, 103.3432
592.5022, 102.6607
592.9843, 102.3856
593.4664, 102.7585
593.9485, 103.3454
594.4307, 104.1555
594.9128, 104.8839
595.3949, 104.6798
595.8770, 103.3824
596.3591, 101.7628
596.8412, 100.1916
597.3234, 98.79050
597.8055, 98.51586
598.2876, 100.3977
598.7697, 101.8593
599.2518, 102.1687
599.7339, 102.0807
600.2161, 102.6171
600.6982, 103.6459
601.1803, 103.7954
601.6624, 101.6307
602.1445, 97.98062
602.6266, 96.93815
603.1088, 99.60307
603.5909, 102.0190
604.0730, 103.0964
604.5551, 103.5996
605.0372, 103.8404
605.5193, 103.9108
606.0015, 104.2273
606.4836, 105.0185
606.9657, 106.1441
607.4478, 107.8283
607.9299, 109.8478
608.4120, 110.5880
608.8942, 109.0263
609.3763, 107.1718
609.8584, 108.2813
610.3405, 113.4753
610.8226, 117.6354
611.3047, 119.6225
611.7869, 121.8097
612.2690, 125.6208
612.7511, 130.2889
613.2332, 134.5128
613.7153, 137.8028
614.1974, 140.5344
614.6796, 142.9173
615.1617, 144.8921
615.6438, 148.2005
616.1259, 153.6049
616.6080, 159.1348
617.0901, 164.1435
617.5723, 168.5593
618.0544, 171.8529
618.5365, 173.3551
619.0186, 175.8835
619.5007, 181.4948
619.9828, 189.0010
620.4650, 196.3126
620.9471, 203.2987
621.4292, 211.3745
621.9113, 221.3514
622.3934, 233.3117
622.8755, 247.4319
623.3577, 265.1941
623.8398, 283.1423
624.3219, 299.4047
624.8040, 317.2777
625.2861, 338.4344
625.7682, 363.0162
626.2504, 391.1538
626.7325, 423.1449
627.2145, 457.6523
627.6967, 492.9967
628.1788, 529.3823
628.6609, 564.0793
629.1430, 600.1261
629.6251, 628.9409
630.1072, 643.7016
630.5894, 645.2801
631.0715, 633.0712
631.5536, 600.8850
632.0357, 561.5690
632.5178, 518.3253
632.9999, 473.1779
633.4821, 428.1265
633.9642, 384.1867
634.4463, 343.1375
634.9284, 306.6487
635.4105, 274.6231
635.8926, 247.6818
636.3748, 227.4541
636.8569, 210.2196
637.3390, 196.0773
637.8211, 183.7599
638.3032, 171.9335
638.7853, 160.7614
639.2675, 151.7669
639.7496, 147.1140
640.2317, 144.5448
640.7138, 140.1626
641.1959, 134.1612
641.6780, 128.8099
642.1602, 124.8161
642.6423, 121.9770
643.1244, 120.2428
643.6065, 119.8895
644.0886, 118.9467
644.5707, 116.2146
645.0529, 114.2258
645.5350, 114.0887
646.0171, 115.3078
646.4992, 117.7027
646.9813, 120.9540
647.4634, 123.4810
647.9456, 122.9325
648.4277, 119.7264
648.9098, 119.1203
649.3919, 122.0992
649.8740, 125.1344
650.3561, 126.7537
650.8383, 127.8121
651.3204, 129.4409
651.8025, 131.7600
652.2846, 133.2107
652.7667, 132.1853
653.2488, 130.7838
653.7310, 132.1075
654.2131, 134.9903
654.6952, 135.0374
655.1773, 130.3210
655.6594, 123.4465
656.1415, 118.4448
656.6237, 115.7234
657.1058, 113.0366
657.5879, 110.1544
658.0700, 107.5734
658.5521, 105.6438
659.0342, 103.9905
659.5164, 102.1171
659.9985, 99.90417
660.4806, 97.75231
660.9627, 95.90682
661.4448, 94.38108
661.9269, 93.33768
662.4091, 92.78895
662.8912, 92.03103
663.3733, 90.68183
663.8554, 88.97844
664.3375, 87.35994
664.8196, 85.77261
665.3018, 84.44888
665.7839, 83.31631
666.2660, 82.51906
666.7481, 82.22684
667.2302, 82.29726
667.7123, 82.73670
668.1945, 83.50926
668.6766, 83.80009
669.1587, 81.97263
669.6408, 78.26641
670.1229, 76.62768
670.6050, 77.78980
671.0872, 79.16186
671.5693, 79.50137
672.0514, 79.25044
672.5335, 79.13108
673.0156, 79.13016
673.4977, 79.36104
673.9799, 80.32304
674.4620, 81.14870
674.9441, 80.92101
675.4262, 79.92580
675.9083, 79.02722
676.3904, 78.60573
676.8726, 78.46803
677.3547, 78.21503
677.8368, 77.71465
678.3189, 78.08641
678.8010, 80.55972
679.2831, 82.09710
679.7653, 80.53878
680.2474, 77.93192
680.7295, 76.97723
681.2116, 78.23266
681.6937, 79.36333
682.1758, 78.61375
682.6580, 77.29700
683.1401, 77.51076
683.6222, 78.93761
684.1043, 79.30807
684.5864, 77.45813
685.0685, 74.76280
685.5507, 73.66800
686.0328, 74.70963
686.5149, 75.20798
686.9970, 74.80272
687.4791, 74.24277
687.9612, 73.33479
688.4434, 72.58643
688.9255, 72.89664
689.4076, 74.42913
689.8897, 75.61642
690.3718, 74.76232
690.8539, 72.90134
691.3361, 72.14064
691.8182, 72.49049
692.3003, 72.90249
692.7824, 72.98192
693.2645, 72.74059
693.7466, 72.09921
694.2288, 70.79591
694.7109, 70.22233
695.1930, 70.67675
695.6751, 71.45499
696.1572, 72.95113
696.6393, 74.32317
697.1215, 74.25764
697.6036, 72.59582
698.0857, 70.87422
698.5678, 70.71133
699.0499, 71.49590
699.5320, 71.22429
700.0142, 69.82997
700.4963, 68.96623
700.9784, 69.37936
701.4605, 70.34702
701.9426, 71.03196
702.4247, 71.45422
702.9069, 71.20361
703.3890, 69.55193
703.8711, 68.05901
704.3532, 67.07160
704.8353, 66.71046
705.3174, 67.33754
705.7996, 68.85079
706.2817, 70.39234
706.7638, 71.17459
707.2459, 71.41428
707.7280, 71.82185
708.2101, 72.42759
708.6923, 72.91500
709.1743, 73.20855
709.6564, 73.33664
710.1385, 73.35121
710.6207, 73.24311
711.1028, 72.87029
711.5849, 71.71962
712.0670, 70.89819
712.5491, 71.02930
713.0313, 71.59457
713.5134, 72.29070
713.9955, 72.87266
714.4776, 72.59427
714.9597, 70.57693
715.4418, 67.90251
715.9240, 67.83602
716.4061, 70.74740
716.8882, 73.05348
717.3703, 74.11519
717.8524, 74.33286
718.3345, 73.44820
718.8167, 71.92553
719.2988, 71.42818
719.7809, 72.84138
720.2630, 74.14658
720.7451, 74.89726
721.2272, 75.05696
721.7094, 73.98819
722.1915, 72.19530
722.6736, 71.56059
723.1557, 73.34035
723.6378, 76.05663
724.1199, 76.49039
724.6021, 74.40669
725.0842, 73.03040
725.5663, 72.74324
726.0484, 73.03545
726.5305, 74.19674
727.0126, 75.55208
727.4948, 75.55977
727.9769, 73.54035
728.4590, 72.04897
728.9411, 72.19765
729.4232, 72.87196
729.9053, 73.23005
730.3875, 73.31749
730.8696, 73.47733
731.3517, 73.85365
731.8338, 74.27264
732.3159, 74.41783
732.7980, 74.29053
733.2802, 74.61997
733.7623, 75.76090
734.2444, 76.34399
734.7265, 75.61506
735.2086, 74.13205
735.6907, 72.51261
736.1729, 70.70678
736.6550, 69.53831
737.1371, 69.17097
737.6192, 69.48582
738.1013, 70.91462
738.5834, 72.78801
739.0656, 74.07298
739.5477, 74.54098
740.0298, 74.62183
740.5119, 74.60460
740.9940, 74.60844
741.4761, 75.39986
741.9583, 77.28153
742.4404, 78.07130
742.9225, 76.54485
743.4046, 74.65474
743.8867, 74.55911
744.3688, 75.89668
744.8510, 76.61066
745.3331, 76.29444
745.8152, 75.63589
746.2973, 74.26307
746.7794, 73.05694
747.2615, 73.27180
747.7437, 74.61954
748.2258, 75.59486
748.7079, 75.23308
749.1900, 74.22379
749.6721, 73.84575
750.1542, 74.08617
750.6364, 74.09663
751.1185, 73.65517
751.6006, 73.39247
752.0827, 73.79858
752.5648, 74.63030
753.0469, 75.27245
753.5291, 75.87193
754.0112, 75.93005
754.4933, 74.57652
754.9754, 73.44936
755.4575, 73.89532
755.9396, 75.19475
756.4218, 75.93681
756.9039, 75.68201
757.3860, 75.24600
757.8681, 75.65704
758.3502, 76.58670
758.8323, 76.70911
759.3145, 75.97503
759.7966, 75.63355
760.2787, 76.39227
760.7608, 77.14108
761.2429, 76.16198
761.7250, 73.15513
762.2072, 72.05732
762.6893, 74.55962
763.1714, 76.64456
763.6535, 77.47658
764.1356, 77.41817
764.6177, 76.30366
765.0999, 74.55137
765.5820, 73.51595
766.0641, 74.11079
766.5462, 75.50447
767.0283, 77.01734
767.5104, 78.44029
767.9926, 78.77795
768.4747, 77.84675
768.9568, 76.66799
769.4389, 75.85699
769.9210, 75.47884
770.4031, 75.80303
770.8853, 77.30717
771.3674, 78.58884
771.8495, 79.56668
772.3316, 80.42170
772.8137, 81.09462
773.2958, 81.73643
773.7780, 82.48392
774.2601, 83.35128
774.7422, 84.65069
775.2243, 87.28761
775.7064, 89.99346
776.1885, 90.77731
776.6707, 90.12801
777.1528, 90.02344
777.6349, 91.15731
778.1170, 92.67374
778.5991, 93.53378
779.0812, 93.78038
779.5634, 94.35875
780.0455, 95.74421
780.5276, 96.35680
781.0097, 94.63926
781.4918, 93.10120
781.9739, 94.28239
782.4561, 97.43020
782.9382, 99.23930
783.4203, 97.70778
783.9024, 96.58133
784.3845, 98.20942
784.8666, 100.8483
785.3488, 102.7630
785.8309, 103.7051
786.3130, 103.7966
786.7951, 103.0717
787.2772, 101.9405
787.7593, 101.0635
788.2415, 100.4398
788.7236, 100.0114
789.2057, 100.0059
789.6878, 99.28415
790.1699, 96.97572
790.6520, 93.93057
791.1342, 91.61330
791.6162, 90.11971
792.0983, 88.66943
792.5804, 86.79028
793.0626, 85.44963
793.5447, 85.79146
794.0268, 86.41911
794.5089, 85.45077
794.9910, 82.88505
795.4731, 80.44350
795.9553, 79.06356
796.4374, 78.71641
796.9195, 80.14547
797.4016, 82.73279
797.8837, 83.30537
798.3658, 81.22025
798.8480, 79.17570
799.3301, 79.23305
799.8122, 80.69067
800.2943, 81.20642
800.7764, 80.33638
801.2585, 79.48357
801.7407, 78.45690
802.2228, 77.67219
802.7049, 77.41080
803.1870, 77.44233
803.6691, 77.46337
804.1512, 77.42234
804.6334, 77.37451
805.1155, 77.28711
805.5976, 77.25720
806.0797, 77.61472
806.5618, 78.04979
807.0439, 77.71461
807.5261, 76.47769
808.0082, 75.33655
808.4903, 75.29984
808.9724, 74.80178
809.4545, 74.63300
809.9366, 75.25831
810.4188, 75.13371
810.9009, 76.22424
811.3830, 77.58653
811.8651, 78.75454
812.3472, 79.61330
812.8293, 79.74730
813.3115, 78.60857
813.7936, 77.92171
814.2757, 78.44040
814.7578, 78.97226
815.2399, 78.83304
815.7220, 78.17538
816.2042, 77.08849
816.6863, 75.67653
817.1684, 74.83769
817.6505, 75.88477
818.1326, 77.77161
818.6147, 78.37647
819.0969, 77.95375
819.5790, 78.10962
820.0611, 79.33256
820.5432, 80.44592
821.0253, 80.18053
821.5074, 78.86614
821.9896, 78.83834
822.4717, 81.21796
822.9538, 82.29625
823.4359, 80.33418
823.9180, 78.43031
824.4001, 78.58731
824.8823, 79.90041
825.3644, 80.63451
825.8465, 80.46947
826.3286, 79.97206
826.8107, 79.00705
827.2928, 78.10912
827.7750, 77.70756
828.2571, 77.71477
828.7392, 77.94286
829.2213, 78.32142
829.7034, 78.82812
830.1855, 79.56856
830.6677, 80.32967
831.1498, 80.24269
831.6319, 79.35018
832.1140, 79.40417
832.5961, 81.07186
833.0782, 82.49854
833.5604, 82.02947
834.0425, 80.16000
834.5246, 78.98739
835.0067, 78.54993
835.4888, 78.79077
835.9709, 80.83882
836.4531, 82.28251
836.9352, 81.65386
837.4173, 79.94585
837.8994, 78.48244
838.3815, 77.51049
838.8636, 77.17756
839.3458, 78.22170
839.8279, 79.33846
840.3100, 78.88521
840.7921, 77.74337
841.2742, 77.93252
841.7563, 79.69340
842.2385, 81.40041
842.7206, 81.73318
843.2027, 81.12171
843.6848, 80.46158
844.1669, 79.74353
844.6490, 79.76649
845.1312, 80.94224
845.6133, 81.67191
846.0954, 80.81776
846.5775, 79.06480
847.0596, 77.89722
847.5417, 77.53912
848.0239, 77.09451
848.5060, 76.06422
848.9881, 75.55217
849.4702, 76.14103
849.9523, 77.27600
850.4344, 78.61404
850.9166, 79.97397
851.3987, 80.80376
851.8808, 80.48995
852.3629, 80.06408
852.8450, 80.65353
853.3271, 81.57771
853.8093, 81.57182
854.2914, 80.69819
854.7735, 80.03115
855.2556, 80.17765
855.7377, 79.69846
856.2198, 79.61601
856.7020, 79.79687
857.1841, 79.68644
857.6662, 80.31044
858.1483, 80.86250
858.6304, 81.12131
859.1125, 81.03941
859.5947, 80.45374
860.0768, 79.36066
860.5589, 78.56927
861.0410, 78.59823
861.5231, 78.18626
862.0052, 76.45471
862.4874, 74.91444
862.9695, 74.70791
863.4516, 75.46587
863.9337, 76.40372
864.4158, 77.46170
864.8979, 77.77254
865.3801, 75.63639
865.8622, 73.40058
866.3443, 74.30177
866.8264, 77.11846
867.3085, 78.54716
867.7906, 77.72411
868.2728, 76.39076
868.7549, 76.20448
869.2370, 76.67541
869.7191, 76.24705
870.2012, 74.93059
870.6833, 74.05676
871.1655, 73.83633
871.6476, 74.15978
872.1297, 75.10455
872.6118, 76.38231
873.0939, 77.35471
873.5760, 78.37645
874.0581, 78.03926
874.5402, 74.54609
875.0223, 71.85667
875.5045, 70.85323
875.9866, 71.29778
876.4687, 73.87894
876.9508, 78.09145
877.4329, 80.39766
877.9150, 78.36447
878.3972, 75.79783
878.8793, 74.61943
879.3614, 74.03341
879.8435, 72.96621
880.3256, 71.64680
880.8077, 71.06796
881.2899, 71.68074
881.7720, 72.93997
882.2541, 74.81058
882.7362, 76.70817
883.2183, 76.43497
883.7004, 74.22403
884.1826, 72.79259
884.6647, 73.02731
885.1468, 73.73508
885.6289, 73.71725
886.1110, 73.19023
886.5931, 73.50349
887.0753, 75.43973
887.5574, 75.71317
888.0395, 72.55627
888.5216, 69.89156
889.0037, 70.37259
889.4858, 72.48645
889.9680, 73.80286
890.4501, 74.21867
890.9322, 74.20379
891.4143, 73.31033
891.8964, 72.61810
892.3785, 72.97726
892.8607, 73.48535
893.3428, 72.96346
893.8249, 71.61065
894.3070, 70.68166
894.7891, 70.85832
895.2712, 71.32297
895.7534, 71.15284
896.2355, 70.90008
896.7176, 71.48059
897.1997, 72.82003
897.6818, 74.74272
898.1639, 77.09676
898.6461, 78.46536
899.1282, 76.74936
899.6103, 72.93648
900.0924, 71.62952
900.5745, 72.98035
901.0566, 73.31676
901.5388, 71.63532
902.0209, 69.99404
902.5030, 69.93246
902.9851, 70.94614
903.4672, 71.64169
903.9493, 72.03749
904.4315, 72.05532
904.9136, 71.12800
905.3957, 70.55642
905.8778, 71.14616
906.3599, 71.97259
906.8420, 71.95409
907.3242, 71.18957
907.8063, 70.90230
908.2884, 71.61861
908.7705, 72.53088
909.2526, 74.04374
909.7347, 75.02169
910.2169, 73.78249
910.6990, 71.33588
911.1811, 70.01469
911.6632, 70.60215
912.1453, 71.78590
912.6274, 73.14220
913.1096, 73.98603
913.5917, 72.56934
914.0738, 69.82655
914.5559, 68.45436
915.0380, 68.97108
915.5201, 70.38048
916.0023, 72.07238
916.4844, 73.77692
916.9665, 74.99592
917.4486, 75.72864
917.9307, 75.85406
918.4128, 75.33980
918.8950, 74.21723
919.3771, 72.11217
919.8592, 70.29930
920.3413, 70.58794
920.8234, 72.90974
921.3055, 74.08131
921.7877, 73.21047
922.2698, 72.76991
922.7519, 73.66130
923.2340, 74.37927
923.7161, 73.64643
924.1982, 72.37955
924.6804, 72.36267
925.1625, 73.99617
925.6446, 75.34928
926.1267, 76.19417
926.6088, 76.36130
927.0909, 74.96986
927.5731, 73.39294
928.0552, 73.27298
928.5373, 74.48047
929.0194, 75.79382
929.5015, 76.74180
929.9836, 77.30262
930.4658, 77.27490
930.9479, 76.96959
931.4300, 76.77973
931.9121, 76.72169
932.3942, 76.70696
932.8763, 76.72277
933.3585, 76.92690
933.8406, 77.49746
934.3227, 78.30964
934.8048, 79.25771
935.2869, 80.25271
935.7690, 80.24799
936.2512, 79.04675
936.7333, 78.09646
937.2154, 78.13464
937.6975, 79.08083
938.1796, 81.10437
938.6617, 84.34415
939.1439, 85.19318
939.6260, 82.31221
940.1081, 80.73396
940.5902, 81.97675
941.0723, 84.27119
941.5544, 86.75000
942.0366, 89.13550
942.5187, 90.47122
943.0008, 90.70287
943.4829, 90.09163
943.9650, 87.37057
944.4471, 85.34500
944.9293, 85.75143
945.4114, 86.89718
945.8935, 86.92473
946.3756, 85.86596
946.8577, 84.95688
947.3398, 84.19335
947.8220, 84.33336
948.3041, 87.02744
948.7862, 89.66702
949.2683, 89.64172
949.7504, 87.79092
950.2325, 86.00851
950.7147, 84.83114
951.1968, 83.71616
951.6789, 81.94402
952.1610, 80.36007
952.6431, 80.03128
953.1252, 80.68707
953.6074, 81.98450
954.0895, 83.71574
954.5716, 85.40172
955.0537, 86.81422
955.5358, 87.71966
956.0179, 87.53600
956.5000, 86.57819
956.9821, 86.30742
957.4642, 86.70211
957.9464, 87.26685
958.4285, 87.89039
958.9106, 88.63884
959.3927, 89.60387
959.8748, 90.62571
960.3569, 91.17693
960.8391, 91.08566
961.3212, 91.43515
961.8033, 92.09572
962.2854, 93.56019
962.7675, 96.02864
963.2496, 99.35386
963.7318, 103.8564
964.2139, 109.2071
964.6960, 112.9253
965.1781, 113.0331
965.6602, 114.7451
966.1423, 118.7333
966.6245, 123.5599
967.1066, 129.4750
967.5887, 135.4434
968.0708, 140.1563
968.5529, 143.5799
969.0350, 146.6409
969.5172, 150.1171
969.9993, 152.4655
970.4814, 153.2450
970.9635, 152.6535
971.4456, 150.6404
971.9277, 147.4435
972.4099, 143.2024
972.8920, 137.9920
973.3741, 132.8215
973.8562, 128.0209
974.3383, 123.7280
974.8204, 120.2746
975.3026, 117.2959
975.7847, 114.0856
976.2668, 110.8557
976.7489, 108.4499
977.2310, 107.2524
977.7131, 106.9615
978.1953, 107.9159
978.6774, 109.1919
979.1595, 108.7810
979.6416, 107.3617
980.1237, 107.2006
980.6058, 108.6048
981.0880, 110.2501
981.5701, 111.3534
982.0522, 111.6649
982.5343, 110.3983
983.0164, 107.8866
983.4985, 105.9866
983.9807, 104.7271
984.4628, 103.4663
984.9449, 102.0285
985.4270, 100.4313
985.9091, 98.69008
986.3912, 96.80488
986.8734, 94.77873
987.3555, 92.62920
987.8376, 89.87170
988.3197, 85.88798
988.8018, 83.95827
989.2839, 86.16484
989.7661, 89.03005
990.2482, 88.59023
990.7303, 85.38290
991.2124, 83.33944
991.6945, 82.79713
992.1766, 82.65353
992.6588, 83.13386
993.1409, 83.58591
993.6230, 83.75245
994.1051, 83.72340
994.5872, 83.57674
995.0693, 83.31410
995.5515, 83.07006
996.0336, 82.79264
996.5157, 82.61087
996.9978, 82.20762
997.4799, 82.25959
997.9620, 83.92355
998.4442, 85.87928
998.9263, 85.83440
999.4084, 83.57674
999.8905, 82.13201
1000.373, 82.66999
1000.855, 83.57204
1001.337, 84.80115
1001.819, 85.69028
1002.301, 85.53475
1002.783, 84.69530
1003.265, 83.84647
1003.747, 83.15048
1004.230, 82.58298
1004.712, 81.77576
1005.194, 81.50195
1005.676, 82.57907
1006.158, 84.24596
1006.640, 85.99935
1007.122, 87.48589
1007.604, 87.89975
1008.086, 86.97231
1008.569, 86.33006
1009.051, 87.91212
1009.533, 89.79357
1010.015, 89.34777
1010.497, 87.94326
1010.979, 88.11782
1011.461, 89.84338
1011.943, 91.50729
1012.426, 92.35483
1012.908, 92.98458
1013.390, 94.16136
1013.872, 95.47707
1014.354, 95.93258
1014.836, 95.91998
1015.318, 96.75826
1015.800, 98.51474
1016.282, 100.0463
1016.765, 100.7048
1017.247, 100.8702
1017.729, 100.8724
1018.211, 100.8514
1018.693, 101.3477
1019.175, 102.3087
1019.657, 103.5327
1020.139, 104.9438
1020.622, 105.8719
1021.104, 105.8115
1021.586, 105.4389
1022.068, 106.1977
1022.550, 107.9025
1023.032, 108.1628
1023.514, 106.9386
1023.996, 107.2146
1024.478, 109.8644
1024.961, 112.4824
1025.443, 113.2753
1025.925, 113.0777
1026.407, 113.6300
1026.889, 114.9268
1027.371, 117.0884
1027.853, 120.1968
1028.335, 123.7503
1028.818, 127.6240
1029.300, 132.0117
1029.782, 137.3047
1030.264, 142.8364
1030.746, 146.6412
1031.228, 148.4061
1031.710, 150.2672
1032.192, 151.7853
1032.674, 154.7385
1033.156, 159.8297
1033.639, 166.1189
1034.121, 173.2472
1034.603, 180.7387
1035.085, 187.0550
1035.567, 191.3346
1036.049, 197.7964
1036.531, 207.1788
1037.013, 217.3210
1037.496, 227.5406
1037.978, 238.3748
1038.460, 250.1443
1038.942, 262.8555
1039.424, 276.7473
1039.906, 292.1132
1040.388, 307.5243
1040.870, 322.5595
1041.353, 338.1438
1041.835, 354.7245
1042.317, 371.7481
1042.799, 388.9234
1043.281, 406.1528
1043.763, 422.8049
1044.245, 438.4489
1044.727, 455.0173
1045.209, 470.9496
1045.692, 489.9823
1046.174, 511.9460
1046.656, 538.3507
1047.138, 569.7858
1047.620, 606.5477
1048.102, 649.6974
1048.584, 699.5402
1049.066, 754.6727
1049.548, 820.8230
1050.031, 884.3514
1050.513, 950.4960
1050.995, 1003.952
1051.477, 1036.630
1051.959, 1046.469
1052.441, 1029.887
1052.923, 984.2393
1053.405, 923.2863
1053.888, 839.4360
1054.370, 754.0757
1054.852, 669.2526
1055.334, 591.3836
1055.816, 526.3425
1056.298, 472.0359
1056.780, 423.5255
1057.262, 379.7282
1057.745, 343.3669
1058.227, 317.7404
1058.709, 296.4366
1059.191, 278.0294
1059.673, 261.9354
1060.155, 248.1360
1060.637, 236.0961
1061.119, 224.8234
1061.601, 214.0842
1062.083, 204.5084
1062.566, 196.7918
1063.048, 189.5961
1063.530, 182.4357
1064.012, 175.3944
1064.494, 168.3379
1064.976, 161.5687
1065.458, 155.7680
1065.940, 151.0443
1066.423, 146.4158
1066.905, 141.1541
1067.387, 136.3527
1067.869, 132.7580
1068.351, 129.6048
1068.833, 126.2751
1069.315, 122.9115
1069.797, 119.8172
1070.280, 117.0560
1070.762, 114.5925
1071.244, 112.8249
1071.726, 110.8046
1072.208, 107.2009
1072.690, 104.0174
1073.172, 103.4700
1073.654, 104.2057
1074.136, 103.8310
1074.619, 102.0240
1075.101, 100.0609
1075.583, 98.00552
1076.065, 96.63893
1076.547, 96.73158
1077.029, 97.25984
1077.511, 97.99014
1077.993, 98.32114
1078.475, 96.87251
1078.958, 93.98136
1079.440, 92.55090
1079.922, 94.43419
1080.404, 96.15482
1080.886, 96.22555
1081.368, 95.36818
1081.850, 93.37948
1082.332, 91.23756
1082.814, 90.18081
1083.297, 90.20303
1083.779, 90.49477
1084.261, 90.85117
1084.743, 91.24471
1085.225, 91.25591
1085.707, 91.75407
1086.189, 94.76810
1086.671, 97.52232
1087.154, 95.73550
1087.636, 90.76673
1088.118, 88.08055
1088.600, 89.54388
1089.082, 91.49817
1089.564, 92.84237
1090.046, 93.77591
1090.528, 94.16531
1091.010, 94.39574
1091.493, 94.68064
1091.975, 95.15665
1092.457, 95.95531
1092.939, 97.08251
1093.421, 98.90403
1093.903, 102.3947
1094.385, 105.5193
1094.867, 107.7305
1095.349, 108.8207
1095.832, 107.4592
1096.314, 105.3265
1096.796, 105.9047
1097.278, 109.6918
1097.760, 112.2934
1098.242, 111.7870
1098.724, 110.6770
1099.206, 108.7846
1099.689, 107.6075
1100.171, 108.8961
1100.653, 111.1405
1101.135, 112.0998
1101.617, 111.6479
1102.099, 111.2121
1102.581, 111.6460
1103.063, 111.2233
1103.546, 107.7247
1104.028, 105.3709
1104.510, 107.3112
1104.992, 110.9042
1105.474, 113.2558
1105.956, 114.4256
1106.438, 115.7576
1106.920, 117.5703
1107.402, 119.2242
1107.885, 120.7125
1108.367, 121.9116
1108.849, 122.3127
1109.331, 122.8175
1109.813, 124.2628
1110.295, 126.4298
1110.777, 128.5504
1111.259, 130.3416
1111.741, 133.0822
1112.224, 137.9523
1112.706, 142.2305
1113.188, 144.7661
1113.670, 147.1749
1114.152, 150.3462
1114.634, 154.1201
1115.116, 158.1082
1115.598, 162.2189
1116.081, 167.5274
1116.563, 175.0908
1117.045, 181.9668
1117.527, 186.7027
1118.009, 192.4168
1118.491, 200.8172
1118.973, 210.6818
1119.455, 220.5926
1119.938, 230.5439
1120.420, 241.0921
1120.902, 252.7050
1121.384, 263.4511
1121.866, 271.6049
1122.348, 282.8730
1122.830, 300.8781
1123.312, 319.6954
1123.794, 333.2755
1124.276, 343.7940
1124.759, 358.4592
1125.241, 378.4821
1125.723, 396.0499
1126.205, 410.9140
1126.687, 424.4600
1127.169, 437.3654
1127.651, 447.8658
1128.133, 454.9925
1128.616, 458.3423
1129.098, 456.8417
1129.580, 453.8307
1130.062, 443.8454
1130.544, 436.4967
1131.026, 424.8858
1131.508, 408.1216
1131.990, 391.4276
1132.473, 377.3503
1132.955, 363.5978
1133.437, 347.3172
1133.919, 332.6415
1134.401, 317.4881
1134.883, 301.3528
1135.365, 287.0779
1135.847, 271.4409
1136.329, 256.4370
1136.812, 242.7195
1137.294, 231.0246
1137.776, 222.1177
1138.258, 214.6221
1138.740, 205.8876
1139.222, 196.5785
1139.704, 188.8202
1140.186, 182.5251
1140.668, 177.5578
1141.151, 173.5932
1141.633, 169.0801
1142.115, 163.1720
1142.597, 157.3385
1143.079, 153.5588
1143.561, 148.5017
1144.043, 145.9334
1144.525, 140.6375
1145.008, 136.5515
1145.490, 133.6630
1145.972, 131.1596
1146.454, 128.8035
1146.936, 127.0759
1147.418, 126.5181
1147.900, 126.2371
1148.382, 126.3191
1148.865, 125.4102
1149.347, 120.5553
1149.829, 114.2205
1150.311, 110.8450
1150.793, 110.5953
1151.275, 110.8962
1151.757, 110.9244
1152.239, 110.3100
1152.721, 108.0000
1153.203, 105.9760
1153.686, 106.5475
1154.168, 107.2116
1154.650, 104.3871
1155.132, 99.83351
1155.614, 98.04270
1156.096, 99.86241
1156.578, 101.5075
1157.060, 101.8056
1157.543, 101.9134
1158.025, 102.4006
1158.507, 102.5061
1158.989, 101.8346
1159.471, 100.4986
1159.953, 98.05690
1160.435, 94.88056
1160.917, 93.61787
1161.400, 95.87769
1161.882, 96.88979
1162.364, 95.91075
1162.846, 94.73701
1163.328, 93.56899
1163.810, 92.68004
1164.292, 92.33420
1164.774, 92.35896
1165.256, 92.48675
1165.739, 92.76054
1166.221, 92.16506
1166.703, 90.10374
1167.185, 89.60086
1167.667, 91.51363
1168.149, 93.18457
1168.631, 93.30894
1169.113, 93.04980
1169.595, 93.78849
1170.078, 93.76079
1170.560, 93.92075
1171.042, 94.24264
1171.524, 93.82903
1172.006, 94.00558
1172.488, 93.18530
1172.970, 90.99887
1173.452, 89.56084
1173.934, 90.30291
1174.417, 91.80933
1174.899, 92.03256
1175.381, 91.44556
1175.863, 91.14082
1176.345, 91.14513
1176.827, 91.90583
1177.309, 93.10132
1177.791, 93.07279
1178.274, 91.41817
1178.756, 90.06065
1179.238, 90.52091
1179.720, 91.69540
1180.202, 92.92635
1180.684, 93.73996
1181.166, 92.85804
1181.648, 91.48183
1182.130, 92.14089
1182.613, 94.46026
1183.095, 95.59558
1183.577, 94.37740
1184.059, 93.28665
1184.541, 94.05966
1185.023, 94.73360
1185.505, 93.44141
1185.987, 92.37571
1186.469, 94.11303
1186.952, 97.03172
1187.434, 98.29822
1187.916, 97.67836
1188.398, 96.55156
1188.880, 94.15686
1189.362, 92.93308
1189.844, 93.74352
1190.326, 94.96548
1190.809, 96.53178
1191.291, 97.78773
1191.773, 98.19622
1192.255, 97.89248
1192.737, 97.06623
1193.219, 95.60313
1193.701, 94.88010
1194.183, 94.87706
1194.666, 95.99874
1195.148, 98.85677
1195.630, 100.1860
1196.112, 98.08135
1196.594, 95.78380
1197.076, 97.12671
1197.558, 95.70702
1198.040, 95.46207
1198.522, 96.24245
1199.005, 95.24230
1199.487, 96.68435
1199.969, 97.33784
1200.451, 96.60944
1200.933, 96.09170
1201.415, 96.66069
1201.897, 97.73473
1202.379, 99.15321
1202.861, 100.1634
1203.344, 98.82107
1203.826, 96.66224
1204.308, 96.40982
1204.790, 97.69751
1205.272, 99.23083
1205.754, 100.5839
1206.236, 101.5704
1206.718, 102.0804
1207.201, 102.2580
1207.683, 101.5950
1208.165, 101.3212
1208.647, 102.9242
1209.129, 104.7678
1209.611, 104.9592
1210.093, 104.1280
1210.575, 103.9563
1211.057, 104.6913
1211.540, 105.1750
1212.022, 104.9277
1212.504, 104.9165
1212.986, 105.5354
1213.468, 106.0255
1213.950, 106.0892
1214.432, 105.9365
1214.914, 105.5227
1215.396, 105.2153
1215.879, 106.2732
1216.361, 105.6664
1216.843, 109.2306
1217.325, 106.4970
1217.807, 105.9087
1218.289, 108.5069
1218.771, 110.5903
1219.253, 110.4464
1219.736, 109.6940
1220.218, 110.0054
1220.700, 110.8589
1221.182, 111.0540
1221.664, 110.8474
1222.146, 111.0832
1222.628, 111.6897
1223.110, 112.1506
1223.593, 112.5305
1224.075, 113.8685
1224.557, 116.5892
1225.039, 118.4966
1225.521, 116.9070
1226.003, 114.9238
1226.485, 115.6213
1226.967, 114.9654
1227.449, 117.0241
1227.932, 116.4934
1228.414, 117.5770
1228.896, 120.0754
1229.378, 121.9599
1229.860, 122.7966
1230.342, 122.7536
1230.824, 120.5812
1231.306, 119.3428
1231.788, 121.0159
1232.271, 122.6071
1232.753, 121.8180
1233.235, 120.4940
1233.717, 121.1132
1234.199, 123.4043
1234.681, 125.7618
1235.163, 128.5467
1235.645, 129.4192
1236.128, 127.9374
1236.610, 127.2227
1237.092, 128.1064
1237.574, 128.9325
1238.056, 128.7374
1238.538, 127.7147
1239.020, 125.7157
1239.502, 123.6228
1239.984, 123.9218
1240.467, 125.8870
1240.949, 127.7016
1241.431, 129.1677
1241.913, 130.2762
1242.395, 131.0300
1242.877, 131.5321
1243.359, 131.8840
1243.841, 131.4714
1244.323, 128.2757
1244.806, 126.0310
1245.288, 128.8691
1245.770, 132.6667
1246.252, 133.4355
1246.734, 132.4357
1247.216, 132.2054
1247.698, 132.8032
1248.180, 132.4135
1248.662, 130.1883
1249.145, 128.4233
1249.627, 126.4118
1250.109, 126.4304
1250.591, 130.6184
1251.073, 133.8249
1251.555, 132.6899
1252.037, 129.7285
1252.519, 128.2498
1253.002, 128.0250
1253.484, 127.8828
1253.966, 127.8484
1254.448, 129.8247
1254.930, 133.5616
1255.412, 134.0587
1255.894, 130.5381
1256.376, 127.0857
1256.859, 125.8922
1257.341, 126.0185
1257.823, 127.1391
1258.305, 128.1452
1258.787, 127.1241
1259.269, 125.4282
1259.751, 124.9803
1260.233, 125.1925
1260.715, 124.5644
1261.198, 123.2659
1261.680, 122.9045
1262.162, 124.0918
1262.644, 125.1357
1263.126, 125.5461
1263.608, 125.6915
1264.090, 125.6345
1264.572, 125.3901
1265.054, 125.0422
1265.537, 124.4003
1266.019, 122.8705
1266.501, 121.0868
1266.983, 121.4787
1267.465, 124.4010
1267.947, 125.3752
1268.429, 124.1947
1268.911, 123.4810
1269.394, 123.6355
1269.876, 124.2569
1270.358, 125.1808
1270.840, 125.4399
1271.322, 124.0138
1271.804, 122.0861
1272.286, 121.1494
1272.768, 121.1561
1273.250, 122.5931
1273.733, 124.5788
1274.215, 125.6913
1274.697, 125.8995
1275.179, 125.3964
1275.661, 124.3851
1276.143, 124.4316
1276.625, 127.4620
1277.107, 129.0338
1277.589, 126.0847
1278.072, 123.4711
1278.554, 124.0116
1279.036, 125.0307
1279.518, 124.0155
1280.000, 122.4260
1280.482, 122.8739
1280.964, 125.1571
1281.446, 126.8494
1281.929, 127.9890
1282.411, 127.8933
1282.893, 126.4667
1283.375, 125.2671
1283.857, 124.6748
1284.339, 124.0705
1284.821, 123.0930
1285.303, 122.3909
1285.786, 122.5963
1286.268, 123.6921
##END=



