##NAMES=Tugtupite
##RRUFFID=R050562
##IDEAL CHEMISTRY=Na_4_BeAlSi_4_O_12_Cl
##LOCALITY=Kvanefjeld, Ilimaussag, Greenland
##OWNER=RRUFF
##SOURCE=Dave Bunk Minerals
##DESCRIPTION=Pink fragment
##STATUS=The identification of this mineral is confirmed by single-crystal X-ray diffraction and chemical analysis.
##URL=rruff.info/R050562
##MEASURED CHEMISTRY=Na_4.00_Be_1.00_Al_1.00_Si_4.00_O_12_Cl_1.00_; BeO estimated by difference; trace amounts of Fe
91.11523, 74.04363
91.59735, 74.53296
92.07947, 74.09303
92.56158, 73.01624
93.04370, 72.22381
93.52582, 72.76965
94.00793, 73.93755
94.49006, 73.99929
94.97218, 72.51060
95.45429, 70.48784
95.93641, 69.64355
96.41853, 69.94872
96.90064, 70.21123
97.38276, 69.37268
97.86488, 67.56441
98.34699, 66.15340
98.82911, 65.24840
99.31123, 64.94469
99.79334, 66.04156
100.2755, 69.00686
100.7576, 71.71635
101.2397, 71.92350
101.7218, 69.03213
102.2039, 66.50317
102.6861, 65.17827
103.1682, 65.03154
103.6503, 64.42445
104.1324, 62.89540
104.6145, 61.40874
105.0966, 61.16786
105.5788, 62.72341
106.0609, 64.60528
106.5430, 66.64451
107.0251, 69.22959
107.5072, 70.62009
107.9893, 70.35084
108.4715, 69.00646
108.9536, 67.60373
109.4357, 63.93950
109.9178, 62.18656
110.3999, 64.00037
110.8820, 73.17349
111.3642, 79.64216
111.8463, 81.54567
112.3284, 80.32896
112.8105, 80.04079
113.2926, 81.60875
113.7747, 83.94790
114.2569, 86.52103
114.7390, 89.98547
115.2211, 92.84702
115.7032, 94.42295
116.1853, 94.94601
116.6674, 95.59429
117.1496, 94.76352
117.6317, 95.15903
118.1138, 98.98625
118.5959, 110.5678
119.0780, 122.6322
119.5602, 131.3387
120.0423, 136.9092
120.5244, 142.6810
121.0065, 150.5078
121.4886, 159.6779
121.9707, 169.2943
122.4529, 178.4084
122.9350, 188.0561
123.4171, 199.0728
123.8992, 211.5173
124.3813, 225.0308
124.8634, 241.3013
125.3456, 258.5985
125.8277, 273.0488
126.3098, 280.9717
126.7919, 285.2641
127.2740, 289.9717
127.7561, 295.4644
128.2383, 301.1915
128.7204, 306.0974
129.2025, 310.4505
129.6846, 315.6604
130.1667, 323.4092
130.6488, 332.7152
131.1310, 340.8314
131.6131, 347.0454
132.0952, 352.6364
132.5773, 359.3892
133.0594, 367.3326
133.5415, 377.1176
134.0237, 389.8445
134.5058, 405.4152
134.9879, 421.1613
135.4700, 436.6990
135.9521, 452.2216
136.4343, 469.1832
136.9164, 488.0320
137.3985, 506.7099
137.8806, 524.3002
138.3627, 541.2027
138.8448, 554.8450
139.3270, 564.6497
139.8091, 570.8669
140.2912, 574.8350
140.7733, 575.0911
141.2554, 575.7385
141.7375, 581.3709
142.2197, 593.8159
142.7018, 606.5654
143.1839, 618.3112
143.6660, 628.9658
144.1481, 639.1580
144.6302, 648.1566
145.1124, 657.2379
145.5945, 667.7159
146.0766, 679.5117
146.5587, 693.0168
147.0408, 708.2801
147.5230, 725.1224
148.0051, 744.0153
148.4872, 762.3333
148.9693, 777.7491
149.4514, 792.8907
149.9335, 805.8674
150.4157, 820.6464
150.8978, 837.8383
151.3799, 857.3072
151.8620, 879.8961
152.3441, 903.8699
152.8262, 931.0578
153.3084, 964.5545
153.7905, 1008.510
154.2726, 1055.076
154.7547, 1101.788
155.2368, 1144.619
155.7189, 1192.590
156.2011, 1252.462
156.6832, 1318.858
157.1653, 1376.889
157.6474, 1432.863
158.1295, 1473.805
158.6116, 1493.081
159.0938, 1485.389
159.5759, 1462.654
160.0580, 1421.727
160.5401, 1366.744
161.0222, 1311.722
161.5044, 1259.354
161.9865, 1209.558
162.4686, 1162.219
162.9507, 1116.109
163.4328, 1073.658
163.9149, 1034.973
164.3971, 999.8893
164.8792, 969.7285
165.3613, 946.5759
165.8434, 927.8185
166.3255, 910.9944
166.8076, 894.4195
167.2898, 880.5506
167.7719, 870.4980
168.2540, 864.1926
168.7361, 861.2867
169.2182, 863.1480
169.7003, 867.8065
170.1825, 872.9104
170.6646, 878.0565
171.1467, 883.0085
171.6288, 886.8406
172.1109, 889.6098
172.5931, 894.0383
173.0752, 902.2281
173.5573, 913.3171
174.0394, 925.9826
174.5215, 939.9769
175.0036, 955.0393
175.4858, 970.6094
175.9679, 986.8005
176.4500, 1003.691
176.9321, 1023.742
177.4142, 1044.929
177.8963, 1062.295
178.3785, 1074.399
178.8606, 1081.473
179.3427, 1083.953
179.8248, 1082.066
180.3069, 1074.693
180.7890, 1059.488
181.2712, 1037.627
181.7533, 1012.818
182.2354, 984.9888
182.7175, 955.6884
183.1996, 928.0026
183.6818, 901.2029
184.1639, 878.6308
184.6460, 864.4313
185.1281, 857.8052
185.6102, 853.9209
186.0923, 851.2980
186.5745, 849.6837
187.0566, 848.1959
187.5387, 846.6162
188.0208, 845.7797
188.5029, 846.2994
188.9850, 848.2634
189.4672, 852.6274
189.9493, 861.0153
190.4314, 872.5892
190.9135, 883.0483
191.3956, 891.6832
191.8777, 900.3420
192.3599, 912.5370
192.8420, 928.2358
193.3241, 944.7303
193.8062, 960.1208
194.2883, 974.7724
194.7704, 991.4198
195.2526, 1010.345
195.7347, 1030.988
196.2168, 1052.109
196.6989, 1073.578
197.1810, 1096.794
197.6632, 1121.385
198.1453, 1147.555
198.6274, 1179.334
199.1095, 1217.123
199.5916, 1260.473
200.0737, 1308.516
200.5559, 1361.877
201.0380, 1417.298
201.5201, 1476.946
202.0022, 1542.778
202.4843, 1594.774
202.9664, 1635.176
203.4486, 1658.004
203.9307, 1646.884
204.4128, 1598.508
204.8949, 1530.793
205.3770, 1447.759
205.8591, 1345.879
206.3413, 1253.587
206.8234, 1171.947
207.3055, 1100.932
207.7876, 1040.884
208.2697, 992.9424
208.7519, 953.7260
209.2340, 921.6953
209.7161, 897.2545
210.1982, 878.1573
210.6803, 865.2490
211.1624, 857.0450
211.6446, 849.5375
212.1267, 842.5662
212.6088, 836.8558
213.0909, 832.8146
213.5730, 830.6291
214.0551, 829.5251
214.5373, 829.7677
215.0194, 830.9636
215.5015, 832.0817
215.9836, 833.3079
216.4657, 834.1061
216.9478, 833.8735
217.4300, 831.7535
217.9121, 831.5334
218.3942, 834.2451
218.8763, 838.6232
219.3584, 840.7737
219.8405, 839.6150
220.3227, 838.1312
220.8048, 837.9592
221.2869, 839.8596
221.7690, 840.5873
222.2511, 838.7706
222.7333, 836.0732
223.2154, 837.7074
223.6975, 845.5793
224.1796, 854.6204
224.6617, 862.3553
225.1438, 868.0113
225.6260, 874.3875
226.1081, 881.4538
226.5902, 889.3245
227.0723, 898.2969
227.5544, 909.5707
228.0365, 920.2451
228.5187, 928.7973
229.0008, 934.0793
229.4829, 940.0501
229.9650, 947.1904
230.4471, 954.9407
230.9292, 961.6723
231.4114, 966.1569
231.8935, 971.5896
232.3756, 979.3536
232.8577, 990.3505
233.3398, 1001.662
233.8220, 1012.544
234.3041, 1023.986
234.7862, 1038.110
235.2683, 1055.075
235.7504, 1074.371
236.2325, 1095.875
236.7147, 1118.431
237.1968, 1145.369
237.6789, 1176.968
238.1610, 1212.877
238.6431, 1253.198
239.1252, 1303.904
239.6074, 1350.594
240.0895, 1386.992
240.5716, 1408.166
241.0537, 1433.023
241.5358, 1466.271
242.0179, 1500.952
242.5001, 1523.639
242.9822, 1533.118
243.4643, 1532.358
243.9464, 1519.812
244.4285, 1488.999
244.9106, 1467.663
245.3928, 1458.217
245.8749, 1456.549
246.3570, 1455.886
246.8391, 1456.638
247.3212, 1457.626
247.8034, 1458.459
248.2855, 1459.052
248.7676, 1460.082
249.2497, 1462.698
249.7318, 1464.964
250.2139, 1463.241
250.6961, 1453.825
251.1782, 1447.208
251.6603, 1446.195
252.1424, 1451.072
252.6245, 1460.159
253.1066, 1473.735
253.5888, 1491.334
254.0709, 1512.590
254.5530, 1537.540
255.0351, 1566.221
255.5172, 1598.541
255.9993, 1634.735
256.4815, 1673.440
256.9636, 1713.855
257.4457, 1757.105
257.9278, 1805.361
258.4099, 1860.704
258.8921, 1916.490
259.3742, 1971.155
259.8563, 2024.152
260.3384, 2081.429
260.8205, 2143.428
261.3026, 2208.311
261.7848, 2275.573
262.2669, 2345.612
262.7490, 2415.532
263.2311, 2484.846
263.7132, 2553.629
264.1953, 2618.443
264.6775, 2679.022
265.1596, 2735.276
265.6417, 2787.738
266.1238, 2837.351
266.6059, 2879.618
267.0880, 2913.930
267.5702, 2940.275
268.0523, 2956.386
268.5344, 2962.004
269.0165, 2958.178
269.4986, 2945.238
269.9807, 2922.267
270.4629, 2893.460
270.9450, 2859.044
271.4271, 2819.155
271.9092, 2775.592
272.3913, 2728.314
272.8734, 2677.452
273.3556, 2621.595
273.8377, 2559.519
274.3198, 2501.374
274.8019, 2448.734
275.2840, 2399.504
275.7661, 2347.308
276.2483, 2291.989
276.7304, 2234.870
277.2125, 2176.421
277.6946, 2115.945
278.1768, 2060.663
278.6589, 2011.403
279.1410, 1967.044
279.6231, 1924.880
280.1052, 1884.086
280.5873, 1848.470
281.0695, 1821.547
281.5516, 1803.083
282.0337, 1784.586
282.5158, 1764.890
282.9979, 1747.162
283.4800, 1736.271
283.9622, 1732.282
284.4443, 1733.402
284.9264, 1739.213
285.4085, 1749.558
285.8906, 1764.424
286.3727, 1784.464
286.8549, 1806.578
287.3370, 1827.962
287.8191, 1848.504
288.3012, 1866.393
288.7833, 1883.938
289.2654, 1898.127
289.7476, 1899.239
290.2297, 1887.562
290.7118, 1860.915
291.1939, 1813.257
291.6760, 1747.107
292.1581, 1674.089
292.6403, 1593.347
293.1224, 1510.683
293.6045, 1437.003
294.0866, 1372.936
294.5687, 1315.492
295.0508, 1261.814
295.5330, 1212.543
296.0151, 1171.290
296.4972, 1139.727
296.9793, 1114.727
297.4614, 1092.816
297.9435, 1073.665
298.4257, 1056.292
298.9078, 1040.293
299.3899, 1025.589
299.8720, 1012.220
300.3541, 999.6707
300.8362, 989.2469
301.3184, 983.7191
301.8005, 982.0837
302.2826, 980.4499
302.7647, 975.6088
303.2469, 969.5715
303.7290, 965.0769
304.2111, 962.5061
304.6932, 961.4847
305.1753, 961.9391
305.6574, 963.7123
306.1396, 966.4358
306.6217, 969.7199
307.1038, 973.9890
307.5859, 980.0356
308.0680, 988.1003
308.5501, 996.4092
309.0323, 1002.172
309.5144, 1007.525
309.9965, 1015.826
310.4786, 1031.778
310.9607, 1048.930
311.4428, 1062.550
311.9250, 1072.571
312.4071, 1081.603
312.8892, 1088.648
313.3713, 1096.230
313.8534, 1107.131
314.3355, 1126.661
314.8177, 1145.623
315.2998, 1158.271
315.7819, 1165.699
316.2640, 1174.111
316.7461, 1186.266
317.2282, 1200.358
317.7104, 1215.460
318.1925, 1233.887
318.6746, 1249.500
319.1567, 1260.204
319.6388, 1266.568
320.1209, 1269.790
320.6031, 1268.866
321.0852, 1265.927
321.5673, 1261.767
322.0494, 1255.668
322.5315, 1250.310
323.0136, 1244.792
323.4958, 1240.610
323.9779, 1240.193
324.4600, 1245.583
324.9421, 1253.375
325.4242, 1265.217
325.9064, 1284.734
326.3885, 1292.501
326.8706, 1285.763
327.3527, 1267.059
327.8348, 1239.063
328.3170, 1194.528
328.7991, 1148.229
329.2812, 1100.169
329.7633, 1049.850
330.2454, 1008.124
330.7275, 978.4949
331.2097, 955.0127
331.6918, 933.7486
332.1739, 914.5822
332.6560, 897.7141
333.1381, 883.8864
333.6202, 872.5715
334.1024, 861.7236
334.5845, 850.4766
335.0666, 841.1437
335.5487, 835.6086
336.0308, 836.1942
336.5129, 833.8116
336.9951, 827.0606
337.4772, 818.1131
337.9593, 811.2224
338.4414, 806.9600
338.9235, 803.1271
339.4056, 798.5616
339.8878, 793.1521
340.3699, 789.5157
340.8520, 788.1719
341.3341, 787.6137
341.8162, 785.3618
342.2983, 781.1398
342.7805, 778.3965
343.2626, 778.8192
343.7447, 781.6307
344.2268, 782.7961
344.7089, 782.1965
345.1910, 780.5895
345.6732, 777.9571
346.1553, 774.5338
346.6374, 772.7764
347.1195, 773.6161
347.6016, 775.8397
348.0837, 777.2393
348.5659, 777.8411
349.0480, 777.7712
349.5301, 776.6044
350.0122, 774.8569
350.4944, 773.9837
350.9765, 774.3359
351.4586, 775.0625
351.9407, 775.4822
352.4228, 775.4948
352.9049, 774.7462
353.3871, 771.6682
353.8692, 768.3241
354.3513, 767.7194
354.8334, 770.0844
355.3155, 773.2156
355.7976, 775.6497
356.2798, 777.6368
356.7619, 779.6112
357.2440, 781.6111
357.7261, 783.7069
358.2082, 785.8336
358.6903, 788.0243
359.1725, 790.5701
359.6546, 794.3798
360.1367, 798.2343
360.6188, 800.9086
361.1009, 801.1354
361.5830, 801.6332
362.0652, 803.5921
362.5473, 806.6986
363.0294, 810.1794
363.5115, 814.0831
363.9936, 818.0861
364.4757, 821.9754
364.9579, 825.7164
365.4400, 829.5388
365.9221, 833.5804
366.4042, 837.7429
366.8863, 841.8995
367.3684, 845.7820
367.8506, 849.9332
368.3327, 853.8973
368.8148, 857.4608
369.2969, 863.7795
369.7790, 875.7049
370.2611, 888.4108
370.7433, 898.4342
371.2254, 902.4684
371.7075, 908.9026
372.1896, 919.2726
372.6717, 932.6485
373.1538, 944.8453
373.6360, 954.8911
374.1181, 965.2789
374.6002, 977.0461
375.0823, 990.4588
375.5645, 1004.553
376.0466, 1019.242
376.5287, 1034.511
377.0108, 1050.386
377.4929, 1066.608
377.9750, 1083.312
378.4572, 1099.950
378.9393, 1116.814
379.4214, 1136.573
379.9035, 1159.543
380.3856, 1183.439
380.8677, 1204.967
381.3499, 1224.463
381.8320, 1246.355
382.3141, 1272.260
382.7962, 1300.561
383.2783, 1329.019
383.7604, 1357.477
384.2426, 1385.401
384.7247, 1413.199
385.2068, 1440.097
385.6889, 1466.278
386.1710, 1492.049
386.6531, 1514.883
387.1353, 1533.434
387.6174, 1547.167
388.0995, 1554.960
388.5816, 1557.305
389.0637, 1552.948
389.5458, 1540.305
390.0280, 1519.339
390.5101, 1492.328
390.9922, 1458.173
391.4743, 1419.954
391.9564, 1380.562
392.4385, 1340.926
392.9207, 1300.523
393.4028, 1257.590
393.8849, 1213.718
394.3670, 1173.435
394.8491, 1139.376
395.3312, 1109.147
395.8134, 1081.521
396.2955, 1056.399
396.7776, 1033.574
397.2597, 1012.900
397.7418, 994.7657
398.2239, 979.5694
398.7061, 970.2104
399.1882, 961.0834
399.6703, 950.5410
400.1524, 938.4339
400.6346, 928.0604
401.1167, 920.5060
401.5988, 913.8593
402.0809, 906.8037
402.5630, 898.5109
403.0451, 891.3575
403.5273, 885.4681
404.0094, 880.8553
404.4915, 878.0127
404.9736, 877.8297
405.4557, 877.1943
405.9378, 874.2143
406.4200, 868.5031
406.9021, 865.1046
407.3842, 864.5019
407.8663, 865.1629
408.3484, 865.3668
408.8305, 865.1185
409.3127, 864.4919
409.7948, 862.9551
410.2769, 861.3942
410.7590, 863.0716
411.2411, 868.0291
411.7232, 872.5416
412.2054, 872.7330
412.6875, 870.2916
413.1696, 870.0834
413.6517, 873.1525
414.1338, 877.3737
414.6159, 880.1711
415.0981, 882.0717
415.5802, 884.5047
416.0623, 887.7438
416.5444, 892.1049
417.0265, 898.3251
417.5086, 906.4220
417.9908, 914.2609
418.4729, 919.2397
418.9550, 923.6963
419.4371, 930.0963
419.9192, 940.8381
420.4013, 951.6824
420.8835, 960.2539
421.3656, 967.4033
421.8477, 975.8663
422.3298, 986.7125
422.8119, 998.7435
423.2940, 1011.734
423.7762, 1025.926
424.2583, 1039.928
424.7404, 1052.719
425.2225, 1065.426
425.7047, 1079.650
426.1868, 1095.006
426.6689, 1112.213
427.1510, 1131.951
427.6331, 1153.969
428.1152, 1175.986
428.5974, 1197.321
429.0795, 1220.106
429.5616, 1245.581
430.0437, 1273.359
430.5258, 1305.077
431.0079, 1340.904
431.4901, 1380.266
431.9722, 1421.298
432.4543, 1463.364
432.9364, 1511.860
433.4185, 1569.234
433.9006, 1634.207
434.3828, 1700.056
434.8649, 1766.670
435.3470, 1835.437
435.8291, 1910.523
436.3112, 1989.494
436.7933, 2064.435
437.2755, 2136.870
437.7576, 2199.339
438.2397, 2246.610
438.7218, 2276.311
439.2039, 2280.386
439.6860, 2244.760
440.1682, 2186.290
440.6503, 2117.660
441.1324, 2038.626
441.6145, 1965.949
442.0966, 1907.762
442.5787, 1861.921
443.0609, 1826.156
443.5430, 1802.139
444.0251, 1785.502
444.5072, 1774.939
444.9893, 1770.611
445.4714, 1772.806
445.9536, 1782.561
446.4357, 1797.981
446.9178, 1818.078
447.3999, 1842.200
447.8820, 1873.080
448.3641, 1911.037
448.8463, 1955.622
449.3284, 2006.813
449.8105, 2062.171
450.2926, 2127.547
450.7747, 2203.574
451.2569, 2290.745
451.7390, 2388.746
452.2211, 2498.214
452.7032, 2619.410
453.1853, 2751.691
453.6674, 2896.026
454.1496, 3052.882
454.6317, 3222.359
455.1138, 3406.875
455.5959, 3607.450
456.0780, 3825.511
456.5602, 4058.839
457.0423, 4312.480
457.5244, 4576.396
458.0065, 4842.196
458.4886, 5106.200
458.9707, 5353.567
459.4529, 5588.030
459.9350, 5793.146
460.4171, 5940.076
460.8992, 6029.828
461.3813, 6052.683
461.8634, 5997.241
462.3456, 5870.985
462.8277, 5687.919
463.3098, 5418.550
463.7919, 5122.079
464.2740, 4817.337
464.7561, 4506.806
465.2383, 4210.784
465.7204, 3936.429
466.2025, 3677.126
466.6846, 3431.491
467.1667, 3199.017
467.6488, 2981.555
468.1310, 2773.822
468.6131, 2581.578
469.0952, 2409.204
469.5773, 2257.944
470.0594, 2125.341
470.5415, 2011.353
471.0237, 1916.208
471.5058, 1831.076
471.9879, 1756.693
472.4700, 1690.467
472.9521, 1631.779
473.4342, 1580.454
473.9164, 1534.918
474.3985, 1495.101
474.8806, 1459.869
475.3627, 1427.522
475.8448, 1397.989
476.3270, 1370.468
476.8091, 1345.022
477.2912, 1321.441
477.7733, 1300.149
478.2554, 1281.018
478.7375, 1262.132
479.2197, 1241.259
479.7018, 1219.926
480.1839, 1200.602
480.6660, 1184.316
481.1481, 1168.709
481.6302, 1152.290
482.1124, 1135.541
482.5945, 1119.276
483.0766, 1101.875
483.5587, 1086.723
484.0408, 1076.344
484.5229, 1070.656
485.0051, 1064.526
485.4872, 1056.376
485.9693, 1047.954
486.4514, 1040.310
486.9335, 1033.110
487.4156, 1027.285
487.8978, 1023.913
488.3799, 1021.374
488.8620, 1016.559
489.3441, 1007.767
489.8262, 1001.003
490.3083, 998.2733
490.7905, 998.9842
491.2726, 998.5740
491.7547, 996.7136
492.2368, 995.3477
492.7189, 996.2336
493.2010, 999.0660
493.6832, 1001.591
494.1653, 1003.490
494.6474, 1005.552
495.1295, 1008.872
495.6116, 1013.212
496.0938, 1017.888
496.5759, 1022.745
497.0580, 1027.705
497.5401, 1032.090
498.0222, 1036.240
498.5044, 1041.669
498.9865, 1049.204
499.4686, 1058.479
499.9507, 1069.367
500.4328, 1082.043
500.9149, 1095.519
501.3971, 1109.184
501.8792, 1123.694
502.3613, 1139.799
502.8434, 1155.225
503.3255, 1175.223
503.8076, 1201.927
504.2898, 1234.195
504.7719, 1267.067
505.2540, 1300.086
505.7361, 1334.187
506.2182, 1370.212
506.7003, 1408.184
507.1825, 1447.389
507.6646, 1489.049
508.1467, 1529.326
508.6288, 1566.826
509.1109, 1601.533
509.5930, 1623.126
510.0752, 1630.329
510.5573, 1622.302
511.0394, 1594.992
511.5215, 1549.719
512.0037, 1494.663
512.4858, 1427.321
512.9679, 1355.990
513.4500, 1291.311
513.9321, 1233.685
514.4142, 1182.773
514.8964, 1139.250
515.3785, 1101.733
515.8606, 1069.232
516.3427, 1041.077
516.8248, 1018.021
517.3069, 1002.189
517.7891, 991.4223
518.2712, 981.6871
518.7533, 971.1193
519.2354, 962.6181
519.7175, 957.7275
520.1996, 956.3209
520.6818, 954.7531
521.1639, 952.6729
521.6460, 950.8646
522.1281, 949.6628
522.6102, 948.8578
523.0923, 949.5994
523.5745, 952.3483
524.0566, 955.9417
524.5387, 958.6064
525.0208, 960.3536
525.5029, 962.3797
525.9850, 964.7635
526.4672, 967.8743
526.9493, 973.0203
527.4314, 980.0464
527.9135, 987.0765
528.3956, 992.8070
528.8777, 998.0583
529.3599, 1003.254
529.8420, 1008.336
530.3241, 1015.593
530.8062, 1027.900
531.2883, 1042.840
531.7704, 1057.361
532.2526, 1070.149
532.7347, 1083.431
533.2168, 1097.477
533.6989, 1112.541
534.1810, 1129.602
534.6631, 1148.861
535.1453, 1170.075
535.6274, 1192.397
536.1095, 1216.057
536.5916, 1243.165
537.0737, 1275.399
537.5558, 1308.973
538.0380, 1340.417
538.5201, 1368.951
539.0022, 1403.034
539.4843, 1443.193
539.9664, 1487.826
540.4485, 1533.455
540.9307, 1580.168
541.4128, 1631.001
541.8949, 1687.338
542.3770, 1747.097
542.8591, 1807.585
543.3412, 1868.537
543.8234, 1932.745
544.3055, 2000.576
544.7876, 2073.147
545.2697, 2150.591
545.7518, 2232.888
546.2339, 2320.390
546.7161, 2413.625
547.1982, 2511.343
547.6803, 2614.703
548.1624, 2728.381
548.6445, 2840.894
549.1266, 2950.049
549.6088, 3057.263
550.0909, 3165.712
550.5730, 3281.527
551.0551, 3389.883
551.5372, 3488.921
552.0193, 3578.052
552.5015, 3646.715
552.9836, 3695.930
553.4657, 3721.442
553.9478, 3721.170
554.4299, 3694.976
554.9120, 3639.393
555.3942, 3553.411
555.8763, 3445.087
556.3584, 3317.253
556.8405, 3174.276
557.3226, 3026.652
557.8047, 2873.903
558.2869, 2722.144
558.7690, 2574.081
559.2511, 2430.814
559.7332, 2296.789
560.2154, 2173.027
560.6975, 2060.030
561.1796, 1957.418
561.6617, 1865.224
562.1439, 1781.670
562.6260, 1706.995
563.1081, 1640.932
563.5902, 1581.834
564.0723, 1531.887
564.5544, 1483.849
565.0366, 1435.682
565.5187, 1390.798
566.0008, 1355.479
566.4829, 1331.018
566.9650, 1306.996
567.4471, 1280.719
567.9293, 1253.851
568.4114, 1231.794
568.8935, 1214.185
569.3756, 1197.463
569.8577, 1179.276
570.3398, 1160.785
570.8220, 1144.787
571.3041, 1131.079
571.7862, 1118.612
572.2683, 1106.926
572.7504, 1095.836
573.2325, 1084.800
573.7147, 1073.309
574.1968, 1063.229
574.6789, 1055.961
575.1610, 1050.303
575.6431, 1044.611
576.1252, 1039.078
576.6074, 1033.072
577.0895, 1026.160
577.5716, 1018.686
578.0537, 1011.735
578.5358, 1005.113
579.0179, 999.4758
579.5001, 995.2275
579.9822, 992.2695
580.4643, 990.0162
580.9464, 988.6695
581.4285, 986.6094
581.9106, 981.4410
582.3928, 974.3027
582.8749, 969.0837
583.3570, 966.4051
583.8391, 964.9638
584.3212, 964.4600
584.8033, 964.1143
585.2855, 962.5772
585.7676, 958.2668
586.2497, 953.8221
586.7318, 950.4355
587.2139, 947.9120
587.6960, 945.6931
588.1782, 942.1208
588.6603, 940.3094
589.1424, 942.4741
589.6245, 948.9002
590.1066, 952.0810
590.5887, 950.8024
591.0709, 947.9703
591.5530, 945.0780
592.0351, 942.0323
592.5172, 939.5103
592.9993, 937.4573
593.4814, 936.1492
593.9636, 936.2635
594.4457, 937.5643
594.9278, 938.8550
595.4099, 940.0358
595.8920, 940.7457
596.3741, 940.2078
596.8563, 938.8134
597.3384, 937.5534
597.8205, 936.6435
598.3026, 936.2872
598.7847, 936.8463
599.2668, 938.2257
599.7490, 939.5471
600.2311, 940.7345
600.7132, 941.6284
601.1953, 941.9413
601.6774, 941.1673
602.1595, 941.5873
602.6417, 943.9037
603.1238, 946.5653
603.6059, 947.9260
604.0880, 947.6151
604.5701, 948.1290
605.0522, 949.7873
605.5344, 952.2816
606.0165, 955.0845
606.4986, 958.2247
606.9807, 961.7289
607.4628, 965.3453
607.9449, 969.5806
608.4271, 976.0120
608.9092, 983.9540
609.3913, 990.4395
609.8735, 990.8356
610.3556, 991.5396
610.8377, 997.0189
611.3198, 1007.680
611.8019, 1020.075
612.2841, 1034.758
612.7662, 1049.875
613.2483, 1064.398
613.7304, 1077.217
614.2125, 1091.363
614.6946, 1107.590
615.1768, 1124.487
615.6589, 1139.679
616.1410, 1152.593
616.6231, 1168.988
617.1052, 1190.213
617.5873, 1214.958
618.0695, 1240.628
618.5516, 1267.138
619.0337, 1293.360
619.5158, 1316.244
619.9979, 1340.272
620.4800, 1370.130
620.9622, 1405.785
621.4443, 1445.989
621.9264, 1490.339
622.4085, 1539.019
622.8906, 1592.084
623.3727, 1648.930
623.8549, 1712.935
624.3370, 1787.127
624.8191, 1867.414
625.3012, 1950.052
625.7833, 2034.456
626.2654, 2124.094
626.7476, 2221.001
627.2297, 2320.316
627.7118, 2418.673
628.1939, 2516.383
628.6760, 2602.679
629.1581, 2680.923
629.6403, 2737.058
630.1224, 2750.520
630.6045, 2722.751
631.0866, 2658.862
631.5687, 2549.300
632.0508, 2413.256
632.5330, 2257.153
633.0151, 2087.083
633.4972, 1929.507
633.9793, 1794.028
634.4614, 1675.286
634.9435, 1570.758
635.4257, 1481.941
635.9078, 1405.257
636.3899, 1342.110
636.8720, 1288.714
637.3541, 1244.061
637.8362, 1208.255
638.3184, 1178.688
638.8005, 1156.332
639.2826, 1138.277
639.7647, 1120.621
640.2468, 1103.744
640.7289, 1091.167
641.2111, 1084.797
641.6932, 1080.835
642.1753, 1074.344
642.6574, 1066.509
643.1395, 1060.311
643.6216, 1056.865
644.1038, 1055.549
644.5859, 1057.072
645.0680, 1060.746
645.5501, 1063.501
646.0322, 1061.813
646.5143, 1061.896
646.9965, 1066.270
647.4786, 1075.231
647.9607, 1084.066
648.4428, 1093.236
648.9249, 1101.522
649.4070, 1107.547
649.8892, 1111.387
650.3713, 1118.117
650.8534, 1128.500
651.3355, 1138.774
651.8176, 1145.465
652.2997, 1149.015
652.7819, 1150.355
653.2640, 1149.678
653.7461, 1146.906
654.2282, 1141.654
654.7103, 1134.351
655.1924, 1125.674
655.6746, 1117.358
656.1567, 1105.810
656.6388, 1087.769
657.1209, 1065.801
657.6030, 1047.264
658.0851, 1032.823
658.5673, 1020.346
659.0494, 1009.456
659.5316, 1000.029
660.0137, 991.6393
660.4958, 984.4857
660.9779, 977.0196
661.4600, 966.8749
661.9421, 955.8595
662.4243, 949.1387
662.9064, 946.7499
663.3885, 945.0001
663.8706, 941.0309
664.3527, 936.3748
664.8348, 932.6744
665.3170, 930.4521
665.7991, 928.0302
666.2812, 924.1871
666.7633, 920.2382
667.2454, 917.4609
667.7275, 916.4354
668.2097, 915.6542
668.6918, 915.1528
669.1739, 914.7996
669.6560, 914.7869
670.1381, 915.3059
670.6202, 913.7474
671.1024, 908.5345
671.5845, 902.4135
672.0666, 901.1688
672.5487, 903.7371
673.0308, 906.0374
673.5129, 905.7809
673.9951, 904.5927
674.4772, 903.5149
674.9593, 902.6165
675.4414, 902.1712
675.9235, 902.7869
676.4056, 903.4205
676.8878, 903.7014
677.3699, 903.6191
677.8520, 902.9005
678.3341, 901.0341
678.8162, 899.3021
679.2983, 898.4662
679.7805, 898.5751
680.2626, 898.9500
680.7447, 899.6449
681.2268, 900.2748
681.7089, 900.3583
682.1910, 900.0799
682.6732, 899.8825
683.1553, 899.8127
683.6374, 899.9377
684.1195, 900.6877
684.6016, 901.5216
685.0837, 901.8017
685.5659, 901.6882
686.0480, 900.5298
686.5301, 896.6274
687.0122, 892.0255
687.4943, 890.3350
687.9764, 893.7455
688.4586, 895.4818
688.9407, 893.6676
689.4228, 889.9866
689.9049, 889.0953
690.3870, 891.0310
690.8691, 893.2624
691.3513, 895.1468
691.8334, 896.3295
692.3155, 895.7665
692.7976, 893.7651
693.2797, 891.8038
693.7618, 890.9152
694.2440, 890.2264
694.7261, 888.8887
695.2082, 886.9394
695.6903, 885.7369
696.1724, 886.3583
696.6545, 887.1424
697.1367, 887.0705
697.6188, 885.7759
698.1009, 886.6427
698.5830, 890.6800
699.0651, 894.5912
699.5472, 895.4216
700.0294, 893.5305
700.5115, 891.9389
700.9936, 890.8479
701.4757, 890.0777
701.9578, 889.3074
702.4399, 888.7646
702.9221, 888.8943
703.4042, 890.0507
703.8863, 891.1237
704.3684, 891.6699
704.8505, 891.7439
705.3326, 891.4104
705.8148, 889.7122
706.2969, 888.8967
706.7790, 889.2707
707.2611, 890.5029
707.7432, 892.2410
708.2253, 894.6921
708.7075, 896.3492
709.1896, 896.5963
709.6718, 896.1989
710.1539, 896.6312
710.6360, 897.7881
711.1181, 899.2175
711.6002, 901.6671
712.0823, 903.5361
712.5645, 902.6302
713.0466, 899.8055
713.5287, 898.2391
714.0108, 900.2845
714.4929, 902.5853
714.9750, 903.6603
715.4572, 903.6234
715.9393, 904.1136
716.4214, 905.6417
716.9035, 906.5549
717.3856, 905.2438
717.8677, 902.1453
718.3499, 903.0533
718.8320, 908.0939
719.3141, 913.0392
719.7962, 914.7474
720.2783, 914.2709
720.7604, 912.7066
721.2426, 910.1130
721.7247, 908.3408
722.2068, 908.7068
722.6889, 910.1510
723.1710, 912.0955
723.6531, 915.1004
724.1353, 916.7576
724.6174, 915.9808
725.0995, 914.8490
725.5816, 915.3673
726.0637, 917.9377
726.5458, 919.2830
727.0280, 918.9899
727.5101, 918.0460
727.9922, 917.1545
728.4743, 916.5940
728.9564, 917.5452
729.4385, 921.0253
729.9207, 923.9061
730.4028, 922.9826
730.8849, 920.0849
731.3670, 917.7673
731.8491, 916.5060
732.3312, 916.2083
732.8134, 917.2551
733.2955, 919.1439
733.7776, 921.4238
734.2597, 924.9205
734.7418, 926.0355
735.2239, 923.0800
735.7061, 918.4063
736.1882, 917.8329
736.6703, 920.8154
737.1524, 923.1578
737.6345, 922.7343
738.1166, 921.2937
738.5988, 920.7910
739.0809, 920.8782
739.5630, 920.5573
740.0451, 918.2168
740.5272, 916.5610
741.0093, 917.0085
741.4915, 919.2797
741.9736, 921.5010
742.4557, 923.8408
742.9378, 925.7464
743.4199, 926.8210
743.9020, 927.2794
744.3842, 928.6104
744.8663, 930.8241
745.3484, 932.5485
745.8305, 932.4200
746.3126, 931.5555
746.7947, 931.6862
747.2769, 932.7581
747.7590, 933.9202
748.2411, 935.4282
748.7232, 936.3189
749.2053, 935.5530
749.6874, 932.7160
750.1696, 931.6299
750.6517, 933.4228
751.1338, 935.5274
751.6159, 936.4493
752.0980, 936.1259
752.5801, 936.3494
753.0623, 937.2131
753.5444, 937.7533
754.0265, 936.8354
754.5086, 935.0900
754.9907, 933.5818
755.4728, 932.3754
755.9550, 931.8547
756.4371, 933.1719
756.9192, 934.6797
757.4013, 934.9064
757.8835, 932.9262
758.3656, 931.6970
758.8477, 931.6671
759.3298, 932.1100
759.8120, 932.4286
760.2941, 932.5721
760.7762, 933.1837
761.2583, 934.4091
761.7404, 935.6989
762.2225, 936.2675
762.7047, 936.4719
763.1868, 937.4285
763.6689, 939.7578
764.1510, 941.0280
764.6331, 937.7337
765.1152, 933.4090
765.5974, 931.8991
766.0795, 936.2584
766.5616, 939.8111
767.0437, 942.0078
767.5258, 943.3502
768.0079, 944.1032
768.4901, 944.0535
768.9722, 945.0773
769.4543, 947.5656
769.9364, 950.6614
770.4185, 953.3284
770.9006, 955.6528
771.3828, 957.8648
771.8649, 959.9385
772.3470, 962.0602
772.8291, 964.0742
773.3112, 966.3152
773.7933, 969.2468
774.2755, 973.6390
774.7576, 977.9054
775.2397, 981.8533
775.7218, 985.6870
776.2039, 989.7081
776.6860, 993.8927
777.1682, 998.6996
777.6503, 1004.440
778.1324, 1010.366
778.6145, 1015.757
779.0966, 1020.375
779.5787, 1023.549
780.0609, 1024.070
780.5430, 1024.520
781.0251, 1026.755
781.5072, 1029.921
781.9893, 1032.434
782.4714, 1033.172
782.9536, 1034.443
783.4357, 1037.153
783.9178, 1040.115
784.3999, 1040.167
784.8820, 1036.975
785.3641, 1036.171
785.8463, 1040.581
786.3284, 1045.959
786.8105, 1044.470
787.2926, 1038.358
787.7747, 1033.140
788.2568, 1033.503
788.7390, 1032.974
789.2211, 1027.755
789.7032, 1019.376
790.1853, 1011.306
790.6674, 1003.173
791.1495, 996.5999
791.6317, 992.1755
792.1138, 989.2414
792.5959, 986.6259
793.0780, 984.3124
793.5601, 981.2748
794.0422, 976.6109
794.5244, 971.7980
795.0065, 969.1291
795.4886, 967.8865
795.9707, 966.4037
796.4528, 962.4564
796.9349, 959.7470
797.4171, 961.4244
797.8992, 965.4171
798.3813, 965.6562
798.8634, 959.3923
799.3455, 955.2629
799.8276, 955.5983
800.3098, 958.7478
800.7919, 961.4061
801.2740, 963.4684
801.7561, 963.6158
802.2382, 959.8470
802.7203, 955.8984
803.2025, 956.2145
803.6846, 959.4410
804.1667, 962.4738
804.6488, 964.9128
805.1309, 966.1893
805.6130, 965.4854
806.0952, 963.6223
806.5773, 962.2617
807.0594, 961.6273
807.5416, 960.7173
808.0237, 959.0607
808.5058, 957.2770
808.9879, 956.6503
809.4700, 957.0723
809.9521, 958.1392
810.4343, 960.5735
810.9164, 962.5045
811.3985, 961.7294
811.8806, 959.4662
812.3627, 958.2744
812.8448, 960.2506
813.3270, 961.4871
813.8091, 960.8274
814.2912, 959.3163
814.7733, 959.3598
815.2554, 961.1141
815.7375, 962.8107
816.2197, 964.0244
816.7018, 964.8753
817.1839, 965.4954
817.6660, 965.8983
818.1481, 966.0729
818.6302, 965.4670
819.1124, 965.3354
819.5945, 967.1970
820.0766, 969.7614
820.5587, 970.3549
821.0408, 967.2550
821.5229, 965.2823
822.0051, 965.0917
822.4872, 966.2487
822.9693, 968.6505
823.4514, 972.0702
823.9335, 973.9426
824.4156, 973.2866
824.8978, 971.5479
825.3799, 968.9915
825.8620, 966.7162
826.3441, 966.5782
826.8262, 971.6663
827.3083, 975.6341
827.7905, 975.9717
828.2726, 974.9873
828.7547, 975.6521
829.2368, 978.5115
829.7189, 980.6370
830.2010, 981.5844
830.6832, 981.8292
831.1653, 982.1356
831.6474, 982.2927
832.1295, 981.5732
832.6116, 979.4926
833.0938, 977.4932
833.5759, 976.1323
834.0580, 975.5512
834.5401, 975.9168
835.0222, 978.7493
835.5043, 980.2493
835.9865, 980.0905
836.4686, 979.0298
836.9507, 977.3669
837.4328, 975.1855
837.9149, 974.9567
838.3970, 977.1701
838.8792, 979.9215
839.3613, 981.4377
839.8434, 982.2068
840.3255, 982.8361
840.8076, 983.4101
841.2897, 983.9453
841.7719, 984.8023
842.2540, 985.3110
842.7361, 984.8451
843.2182, 982.9340
843.7003, 981.9288
844.1824, 981.9432
844.6646, 982.4594
845.1467, 982.9517
845.6288, 983.5939
846.1109, 985.3400
846.5930, 988.2833
847.0751, 990.0641
847.5573, 987.4016
848.0394, 984.2343
848.5215, 983.7971
849.0036, 987.0408
849.4857, 989.2533
849.9678, 990.5132
850.4500, 990.4094
850.9321, 987.9896
851.4142, 983.6191
851.8963, 981.7515
852.3784, 982.3348
852.8605, 983.6385
853.3427, 984.5381
853.8248, 985.4621
854.3069, 987.0070
854.7890, 989.1097
855.2711, 990.9667
855.7532, 992.2945
856.2354, 993.2543
856.7175, 993.6020
857.1996, 993.5314
857.6818, 994.8679
858.1639, 997.8837
858.6460, 1000.208
859.1281, 1000.561
859.6102, 999.6561
860.0923, 998.4733
860.5745, 997.1412
861.0566, 996.1531
861.5387, 996.8327
862.0208, 996.7726
862.5029, 993.4756
862.9850, 988.5876
863.4672, 987.5111
863.9493, 991.9709
864.4314, 995.9034
864.9135, 998.0547
865.3956, 998.8658
865.8777, 999.1686
866.3599, 998.9443
866.8420, 997.9924
867.3241, 995.5936
867.8062, 993.5598
868.2883, 993.1447
868.7704, 993.9697
869.2526, 995.4919
869.7347, 999.4873
870.2168, 1001.177
870.6989, 998.7667
871.1810, 995.7703
871.6631, 997.7535
872.1453, 1004.312
872.6274, 1007.972
873.1095, 1007.384
873.5916, 1005.139
874.0737, 1002.916
874.5558, 1001.064
875.0380, 1000.106
875.5201, 1000.483
876.0022, 1000.684
876.4843, 999.4255
876.9664, 998.7158
877.4485, 1000.182
877.9307, 1004.320
878.4128, 1007.411
878.8949, 1009.548
879.3770, 1010.136
879.8591, 1007.053
880.3412, 1002.804
880.8234, 1001.682
881.3055, 1003.871
881.7876, 1006.343
882.2697, 1008.552
882.7518, 1009.893
883.2339, 1009.501
883.7161, 1007.547
884.1982, 1007.507
884.6803, 1010.014
885.1624, 1011.787
885.6445, 1010.538
886.1266, 1007.822
886.6088, 1007.112
887.0909, 1008.214
887.5730, 1010.300
888.0551, 1014.788
888.5372, 1018.306
889.0193, 1018.522
889.5015, 1016.326
889.9836, 1014.827
890.4657, 1014.357
890.9478, 1013.805
891.4299, 1012.570
891.9120, 1011.688
892.3942, 1014.293
892.8763, 1019.240
893.3584, 1021.264
893.8405, 1017.158
894.3226, 1013.661
894.8047, 1017.636
895.2869, 1024.265
895.7690, 1027.558
896.2511, 1023.448
896.7332, 1020.761
897.2153, 1019.792
897.6974, 1019.886
898.1796, 1020.786
898.6617, 1022.314
899.1438, 1022.883
899.6259, 1022.283
900.1080, 1022.035
900.5901, 1024.781
901.0723, 1027.582
901.5544, 1026.842
902.0365, 1021.294
902.5186, 1019.273
903.0007, 1023.823
903.4828, 1028.734
903.9650, 1031.108
904.4471, 1031.169
904.9292, 1030.858
905.4113, 1030.196
905.8935, 1029.740
906.3756, 1030.201
906.8577, 1030.751
907.3398, 1029.954
907.8220, 1028.383
908.3041, 1028.334
908.7862, 1031.898
909.2683, 1035.291
909.7504, 1038.212
910.2325, 1040.166
910.7147, 1038.997
911.1968, 1034.781
911.6789, 1032.857
912.1610, 1035.534
912.6431, 1039.280
913.1252, 1039.876
913.6074, 1038.934
914.0895, 1038.924
914.5716, 1040.788
915.0537, 1043.250
915.5358, 1047.363
916.0179, 1050.865
916.5001, 1051.068
916.9822, 1047.708
917.4643, 1046.733
917.9464, 1048.714
918.4285, 1050.957
918.9106, 1050.684
919.3928, 1049.353
919.8749, 1048.816
920.3570, 1049.306
920.8391, 1049.452
921.3212, 1047.662
921.8033, 1046.772
922.2855, 1048.368
922.7676, 1052.130
923.2497, 1054.571
923.7318, 1055.680
924.2139, 1055.933
924.6960, 1055.197
925.1782, 1054.035
925.6603, 1052.526
926.1424, 1051.165
926.6245, 1051.314
927.1066, 1054.601
927.5887, 1058.041
928.0709, 1060.977
928.5530, 1063.696
929.0351, 1067.027
929.5172, 1071.060
929.9993, 1073.246
930.4814, 1072.677
930.9636, 1071.719
931.4457, 1072.962
931.9278, 1075.554
932.4099, 1078.625
932.8920, 1082.578
933.3741, 1085.017
933.8563, 1083.883
934.3384, 1082.491
934.8205, 1083.029
935.3026, 1085.605
935.7847, 1087.585
936.2668, 1088.937
936.7490, 1090.755
937.2311, 1094.916
937.7132, 1099.275
938.1953, 1100.513
938.6774, 1099.188
939.1595, 1099.145
939.6417, 1102.814
940.1238, 1106.394
940.6059, 1108.762
941.0880, 1110.377
941.5701, 1112.783
942.0522, 1115.953
942.5344, 1118.622
943.0165, 1120.273
943.4986, 1121.665
943.9807, 1123.275
944.4628, 1125.311
944.9449, 1128.201
945.4271, 1134.842
945.9092, 1137.400
946.3913, 1133.265
946.8734, 1127.712
947.3555, 1125.894
947.8376, 1127.564
948.3198, 1128.552
948.8019, 1128.613
949.2840, 1128.569
949.7661, 1129.712
950.2482, 1130.620
950.7303, 1129.294
951.2125, 1125.685
951.6946, 1124.245
952.1767, 1126.628
952.6588, 1129.154
953.1409, 1130.398
953.6230, 1130.964
954.1052, 1132.582
954.5873, 1135.320
955.0695, 1139.740
955.5516, 1147.066
956.0337, 1154.756
956.5158, 1160.421
956.9979, 1165.217
957.4800, 1171.169
957.9622, 1179.904
958.4443, 1186.744
958.9264, 1190.279
959.4085, 1194.243
959.8906, 1203.565
960.3727, 1216.980
960.8549, 1229.290
961.3370, 1240.035
961.8191, 1252.026
962.3012, 1268.439
962.7833, 1285.888
963.2654, 1301.257
963.7476, 1314.497
964.2297, 1331.022
964.7118, 1351.324
965.1939, 1372.247
965.6760, 1392.428
966.1581, 1412.291
966.6403, 1433.949
967.1224, 1456.430
967.6045, 1477.495
968.0866, 1497.408
968.5687, 1513.932
969.0508, 1528.125
969.5330, 1537.453
970.0151, 1538.693
970.4972, 1531.171
970.9793, 1518.694
971.4614, 1501.526
971.9435, 1479.822
972.4257, 1450.769
972.9078, 1418.709
973.3899, 1389.191
973.8720, 1363.014
974.3541, 1340.311
974.8362, 1322.241
975.3184, 1306.258
975.8005, 1291.117
976.2826, 1276.963
976.7647, 1266.451
977.2468, 1259.587
977.7289, 1254.431
978.2111, 1251.002
978.6932, 1247.873
979.1753, 1243.135
979.6574, 1237.652
980.1395, 1233.036
980.6216, 1231.175
981.1038, 1228.119
981.5859, 1223.358
982.0680, 1217.760
982.5501, 1212.560
983.0322, 1207.548
983.5143, 1200.977
983.9965, 1192.599
984.4786, 1184.900
984.9607, 1179.618
985.4428, 1175.846
985.9249, 1173.719
986.4070, 1173.189
986.8892, 1169.680
987.3713, 1161.611
987.8534, 1154.922
988.3355, 1152.114
988.8176, 1151.854
989.2997, 1152.010
989.7819, 1152.212
990.2640, 1151.336
990.7461, 1148.334
991.2282, 1145.106
991.7103, 1141.697
992.1924, 1138.920
992.6746, 1137.809
993.1567, 1138.703
993.6388, 1139.649
994.1209, 1140.651
994.6030, 1141.257
995.0851, 1141.096
995.5673, 1140.291
996.0494, 1138.117
996.5315, 1134.845
997.0136, 1134.043
997.4957, 1140.207
997.9778, 1144.938
998.4600, 1145.156
998.9421, 1142.502
999.4242, 1141.880
999.9063, 1143.101
1000.388, 1144.392
1000.871, 1145.270
1001.353, 1145.817
1001.835, 1145.770
1002.317, 1145.583
1002.799, 1145.828
1003.281, 1146.746
1003.763, 1147.660
1004.245, 1148.403
1004.728, 1149.587
1005.210, 1152.164
1005.692, 1155.532
1006.174, 1158.094
1006.656, 1159.788
1007.138, 1160.415
1007.620, 1157.588
1008.102, 1156.102
1008.584, 1159.462
1009.067, 1165.576
1009.549, 1169.631
1010.031, 1171.458
1010.513, 1172.852
1010.995, 1174.002
1011.477, 1175.402
1011.959, 1177.258
1012.441, 1179.883
1012.924, 1184.140
1013.406, 1190.850
1013.888, 1195.845
1014.370, 1196.968
1014.852, 1198.420
1015.334, 1202.980
1015.816, 1209.791
1016.298, 1213.295
1016.780, 1213.886
1017.263, 1214.691
1017.745, 1217.335
1018.227, 1220.814
1018.709, 1225.152
1019.191, 1229.691
1019.673, 1232.973
1020.155, 1233.912
1020.637, 1236.880
1021.120, 1242.642
1021.602, 1249.111
1022.084, 1254.462
1022.566, 1258.717
1023.048, 1260.957
1023.530, 1261.167
1024.012, 1263.875
1024.494, 1272.984
1024.976, 1282.758
1025.458, 1290.691
1025.941, 1297.502
1026.423, 1305.670
1026.905, 1315.235
1027.387, 1326.726
1027.869, 1340.750
1028.351, 1355.555
1028.833, 1369.770
1029.316, 1383.573
1029.798, 1397.215
1030.280, 1409.558
1030.762, 1424.689
1031.244, 1442.843
1031.726, 1462.896
1032.208, 1484.613
1032.690, 1507.669
1033.172, 1530.234
1033.655, 1552.786
1034.137, 1577.595
1034.619, 1604.356
1035.101, 1635.166
1035.583, 1670.375
1036.065, 1709.692
1036.547, 1752.769
1037.029, 1799.275
1037.511, 1849.397
1037.994, 1902.619
1038.476, 1960.324
1038.958, 2023.733
1039.440, 2090.951
1039.922, 2159.482
1040.404, 2229.887
1040.886, 2298.561
1041.368, 2366.210
1041.851, 2431.442
1042.333, 2494.128
1042.815, 2554.878
1043.297, 2613.423
1043.779, 2671.363
1044.261, 2730.888
1044.743, 2788.923
1045.225, 2854.929
1045.708, 2929.933
1046.190, 3016.496
1046.672, 3116.123
1047.154, 3228.472
1047.636, 3359.177
1048.118, 3509.873
1048.600, 3668.649
1049.082, 3839.783
1049.564, 4005.010
1050.047, 4163.151
1050.529, 4303.609
1051.011, 4367.808
1051.493, 4351.316
1051.975, 4265.581
1052.457, 4104.619
1052.939, 3891.085
1053.421, 3638.769
1053.903, 3367.014
1054.386, 3107.023
1054.868, 2864.197
1055.350, 2649.302
1055.832, 2469.615
1056.314, 2319.222
1056.796, 2195.434
1057.278, 2096.393
1057.760, 2012.613
1058.243, 1943.503
1058.725, 1884.269
1059.207, 1834.475
1059.689, 1791.059
1060.171, 1751.850
1060.653, 1716.379
1061.135, 1684.164
1061.617, 1656.538
1062.099, 1629.375
1062.582, 1602.770
1063.064, 1576.048
1063.546, 1547.436
1064.028, 1518.471
1064.510, 1491.938
1064.992, 1467.931
1065.474, 1445.917
1065.956, 1425.329
1066.438, 1407.110
1066.921, 1391.693
1067.403, 1378.328
1067.885, 1366.084
1068.367, 1354.649
1068.849, 1341.634
1069.331, 1326.233
1069.813, 1312.359
1070.295, 1303.351
1070.778, 1296.443
1071.260, 1290.038
1071.742, 1283.914
1072.224, 1277.359
1072.706, 1270.170
1073.188, 1263.701
1073.670, 1258.133
1074.152, 1253.963
1074.635, 1252.649
1075.117, 1252.864
1075.599, 1252.596
1076.081, 1251.953
1076.563, 1248.986
1077.045, 1242.190
1077.527, 1235.740
1078.009, 1232.824
1078.491, 1232.637
1078.974, 1232.261
1079.456, 1231.703
1079.938, 1231.028
1080.420, 1229.751
1080.902, 1228.944
1081.384, 1230.765
1081.866, 1232.264
1082.348, 1228.365
1082.831, 1218.680
1083.313, 1214.977
1083.795, 1218.510
1084.277, 1222.711
1084.759, 1221.439
1085.241, 1218.996
1085.723, 1219.277
1086.205, 1222.089
1086.688, 1223.624
1087.170, 1223.428
1087.652, 1223.181
1088.134, 1223.232
1088.616, 1223.531
1089.098, 1224.170
1089.580, 1224.949
1090.062, 1225.546
1090.544, 1225.897
1091.026, 1226.047
1091.509, 1225.336
1091.991, 1225.451
1092.473, 1227.422
1092.955, 1230.680
1093.437, 1233.168
1093.919, 1235.083
1094.401, 1237.227
1094.883, 1240.269
1095.366, 1243.040
1095.848, 1243.978
1096.330, 1245.203
1096.812, 1249.405
1097.294, 1257.298
1097.776, 1259.984
1098.258, 1257.380
1098.740, 1254.655
1099.223, 1254.918
1099.705, 1256.816
1100.187, 1259.853
1100.669, 1263.572
1101.151, 1266.851
1101.633, 1269.575
1102.115, 1271.989
1102.597, 1274.062
1103.079, 1276.163
1103.562, 1278.306
1104.044, 1280.924
1104.526, 1284.787
1105.008, 1289.891
1105.490, 1295.209
1105.972, 1301.289
1106.454, 1305.921
1106.936, 1307.588
1107.418, 1308.915
1107.901, 1315.844
1108.383, 1326.507
1108.865, 1334.982
1109.347, 1339.490
1109.829, 1345.472
1110.311, 1355.203
1110.793, 1367.511
1111.275, 1382.539
1111.758, 1399.566
1112.240, 1414.184
1112.722, 1426.914
1113.204, 1440.914
1113.686, 1457.284
1114.168, 1475.691
1114.650, 1496.178
1115.132, 1518.172
1115.615, 1540.930
1116.097, 1563.752
1116.579, 1591.441
1117.061, 1623.946
1117.543, 1657.607
1118.025, 1688.580
1118.507, 1720.228
1118.989, 1756.800
1119.471, 1792.133
1119.953, 1829.555
1120.436, 1870.726
1120.918, 1910.471
1121.400, 1956.136
1121.882, 2004.653
1122.364, 2053.466
1122.846, 2102.970
1123.328, 2153.864
1123.810, 2206.319
1124.293, 2259.318
1124.775, 2317.542
1125.257, 2370.996
1125.739, 2417.623
1126.221, 2458.574
1126.703, 2497.437
1127.185, 2531.751
1127.667, 2554.108
1128.150, 2563.733
1128.632, 2560.799
1129.114, 2542.496
1129.596, 2513.889
1130.078, 2477.067
1130.560, 2432.473
1131.042, 2381.124
1131.524, 2323.768
1132.006, 2262.996
1132.489, 2198.645
1132.971, 2134.599
1133.453, 2072.755
1133.935, 2013.820
1134.417, 1958.220
1134.899, 1905.485
1135.381, 1856.610
1135.863, 1811.171
1136.346, 1769.471
1136.828, 1732.656
1137.310, 1698.656
1137.792, 1665.736
1138.274, 1634.543
1138.756, 1606.260
1139.238, 1581.106
1139.720, 1555.539
1140.203, 1528.836
1140.685, 1505.209
1141.167, 1488.552
1141.649, 1475.163
1142.131, 1460.795
1142.613, 1445.895
1143.095, 1430.668
1143.577, 1413.598
1144.059, 1399.787
1144.542, 1390.068
1145.024, 1381.890
1145.506, 1372.235
1145.988, 1363.096
1146.470, 1359.705
1146.952, 1360.316
1147.434, 1356.864
1147.916, 1342.047
1148.398, 1329.646
1148.881, 1321.968
1149.363, 1316.198
1149.845, 1308.802
1150.327, 1300.675
1150.809, 1293.612
1151.291, 1287.899
1151.773, 1284.353
1152.255, 1285.610
1152.738, 1286.341
1153.220, 1285.061
1153.702, 1282.335
1154.184, 1278.766
1154.666, 1274.651
1155.148, 1271.529
1155.630, 1269.797
1156.112, 1266.988
1156.594, 1259.306
1157.077, 1252.816
1157.559, 1250.741
1158.041, 1251.867
1158.523, 1252.241
1159.005, 1251.876
1159.487, 1250.845
1159.969, 1249.018
1160.451, 1247.137
1160.933, 1246.946
1161.416, 1245.784
1161.898, 1240.960
1162.380, 1233.097
1162.862, 1228.522
1163.344, 1227.161
1163.826, 1226.821
1164.308, 1227.233
1164.790, 1227.185
1165.273, 1225.037
1165.755, 1222.365
1166.237, 1221.140
1166.719, 1221.719
1167.201, 1219.588
1167.683, 1214.480
1168.165, 1210.841
1168.647, 1211.655
1169.130, 1214.085
1169.612, 1216.117
1170.094, 1217.758
1170.576, 1219.090
1171.058, 1220.484
1171.540, 1220.260
1172.022, 1218.292
1172.504, 1215.715
1172.986, 1212.559
1173.469, 1209.834
1173.951, 1208.605
1174.433, 1208.711
1174.915, 1210.012
1175.397, 1213.466
1175.879, 1215.082
1176.361, 1214.467
1176.843, 1213.016
1177.326, 1211.424
1177.808, 1210.058
1178.290, 1209.508
1178.772, 1209.599
1179.254, 1209.555
1179.736, 1208.636
1180.218, 1209.313
1180.700, 1212.361
1181.182, 1215.269
1181.665, 1214.485
1182.147, 1212.327
1182.629, 1212.676
1183.111, 1215.266
1183.593, 1216.479
1184.075, 1214.524
1184.557, 1214.006
1185.039, 1216.340
1185.521, 1218.682
1186.004, 1216.483
1186.486, 1212.010
1186.968, 1208.492
1187.450, 1206.309
1187.932, 1205.876
1188.414, 1208.686
1188.896, 1210.292
1189.378, 1209.113
1189.861, 1207.310
1190.343, 1209.213
1190.825, 1212.718
1191.307, 1213.802
1191.789, 1211.714
1192.271, 1209.627
1192.753, 1207.624
1193.235, 1206.922
1193.718, 1208.511
1194.200, 1210.681
1194.682, 1209.224
1195.164, 1206.163
1195.646, 1206.148
1196.128, 1210.894
1196.610, 1213.658
1197.092, 1212.005
1197.574, 1209.857
1198.057, 1208.384
1198.539, 1207.752
1199.021, 1208.895
1199.503, 1211.036
1199.985, 1212.404
1200.467, 1212.394
1200.949, 1212.150
1201.431, 1211.879
1201.913, 1211.464
1202.396, 1210.682
1202.878, 1209.869
1203.360, 1209.992
1203.842, 1210.780
1204.324, 1211.515
1204.806, 1211.951
1205.288, 1212.471
1205.770, 1213.290
1206.253, 1213.922
1206.735, 1213.913
1207.217, 1213.615
1207.699, 1214.019
1208.181, 1214.986
1208.663, 1216.286
1209.145, 1219.088
1209.627, 1219.454
1210.109, 1215.754
1210.592, 1211.733
1211.074, 1210.014
1211.556, 1209.898
1212.038, 1208.893
1212.520, 1207.700
1213.002, 1208.391
1213.484, 1214.691
1213.966, 1217.914
1214.448, 1215.975
1214.931, 1213.131
1215.413, 1212.635
1215.895, 1213.823
1216.377, 1215.556
1216.859, 1217.341
1217.341, 1217.659
1217.823, 1213.924
1218.305, 1211.727
1218.788, 1211.856
1219.270, 1213.059
1219.752, 1214.611
1220.234, 1216.299
1220.716, 1217.685
1221.198, 1218.714
1221.680, 1219.238
1222.162, 1217.349
1222.645, 1218.225
1223.127, 1223.697
1223.609, 1228.922
1224.091, 1228.147
1224.573, 1224.259
1225.055, 1223.594
1225.537, 1225.550
1226.019, 1227.028
1226.501, 1226.961
1226.984, 1226.237
1227.466, 1224.605
1227.948, 1223.127
1228.430, 1222.480
1228.912, 1222.920
1229.394, 1226.094
1229.876, 1231.021
1230.358, 1233.464
1230.841, 1231.273
1231.323, 1228.360
1231.805, 1224.455
1232.287, 1221.754
1232.769, 1223.969
1233.251, 1228.057
1233.733, 1228.970
1234.215, 1227.209
1234.698, 1226.180
1235.180, 1227.268
1235.662, 1226.841
1236.144, 1224.017
1236.626, 1221.565
1237.108, 1223.562
1237.590, 1226.862
1238.072, 1226.760
1238.554, 1228.664
1239.036, 1230.397
1239.519, 1229.540
1240.001, 1232.095
1240.483, 1230.681
1240.965, 1228.172
1241.447, 1226.793
1241.929, 1226.368
1242.411, 1227.178
1242.893, 1228.880
1243.376, 1229.786
1243.858, 1229.575
1244.340, 1230.073
1244.822, 1231.710
1245.304, 1232.772
1245.786, 1229.675
1246.268, 1226.949
1246.750, 1230.341
1247.233, 1237.941
1247.715, 1240.442
1248.197, 1237.083
1248.679, 1235.605
1249.161, 1237.219
1249.643, 1239.251
1250.125, 1239.055
1250.607, 1238.689
1251.089, 1240.069
1251.572, 1242.469
1252.054, 1243.775
1252.536, 1243.986
1253.018, 1243.883
1253.500, 1243.551
1253.982, 1243.226
1254.464, 1243.141
1254.946, 1243.041
1255.428, 1242.553
1255.911, 1242.050
1256.393, 1242.533
1256.875, 1243.862
1257.357, 1244.690
1257.839, 1244.838
1258.321, 1244.759
1258.803, 1245.633
1259.285, 1245.095
1259.768, 1240.936
1260.250, 1236.143
1260.732, 1237.342
1261.214, 1242.995
1261.696, 1246.813
1262.178, 1248.022
1262.660, 1248.707
1263.142, 1250.090
1263.625, 1250.661
1264.107, 1249.703
1264.589, 1248.158
1265.071, 1247.094
1265.553, 1246.746
1266.035, 1248.734
1266.517, 1252.947
1266.999, 1254.058
1267.481, 1246.117
1267.964, 1242.446
1268.446, 1246.891
1268.928, 1253.959
1269.410, 1255.707
1269.892, 1254.851
1270.374, 1256.453
1270.856, 1256.040
1271.338, 1254.427
1271.820, 1255.487
1272.303, 1251.691
1272.785, 1251.282
1273.267, 1252.516
1273.749, 1254.500
1274.231, 1256.143
1274.713, 1255.866
1275.195, 1253.832
1275.677, 1252.023
1276.160, 1250.298
1276.642, 1249.734
1277.124, 1250.518
1277.606, 1252.414
1278.088, 1256.604
1278.570, 1260.556
1279.052, 1261.901
1279.534, 1261.273
1280.016, 1260.878
1280.499, 1260.734
1280.981, 1260.289
1281.463, 1259.459
1281.945, 1258.555
1282.427, 1256.904
1282.909, 1256.254
1283.391, 1258.418
1283.873, 1261.654
1284.356, 1262.572
1284.838, 1261.609
1285.320, 1261.593
1285.802, 1262.789
1286.284, 1264.012
1286.766, 1264.710
1287.248, 1265.199
1287.730, 1265.648
1288.213, 1265.881
1288.695, 1264.961
1289.177, 1263.786
1289.659, 1265.567
1290.141, 1270.053
1290.623, 1272.818
1291.105, 1271.354
1291.587, 1269.354
1292.069, 1266.826
1292.552, 1265.243
1293.034, 1267.302
1293.516, 1270.783
1293.998, 1272.695
1294.480, 1272.968
1294.962, 1272.057
1295.444, 1269.366
1295.926, 1268.041
1296.408, 1268.505
1296.891, 1269.872
1297.373, 1272.650
1297.855, 1274.724
1298.337, 1273.007
1298.819, 1269.312
1299.301, 1268.640
1299.783, 1271.361
1300.265, 1273.021
1300.748, 1273.296
1301.230, 1272.821
1301.712, 1271.086
1302.194, 1269.930
1302.676, 1270.518
##END=



