##NAMES=Tundrite-(Ce)
##RRUFFID=R060837
##IDEAL CHEMISTRY=Na_2_Ce^3+^_2_Ti^4+^O_2_SiO_4_(CO_3_)_2_
##LOCALITY=Barkeviksjaer, Norway
##OWNER=RRUFF
##SOURCE=Michael Scott
##DESCRIPTION=Brown elongated bladed crystals associated with white orthoclase and black amphibole
##STATUS=The identification of this mineral is confirmed by single-crystal X-ray diffraction and chemical analysis.
##URL=rruff.info/R060837
##MEASURED CHEMISTRY=(Na_1.95_Ca_0.05_)_Σ=2_(Ce_1.15_La_0.60_Nd_0.25_)_Σ=2_(Ti_0.95_Nb_0.05_)_Σ=1_O_2_Si_1.00_O_4_(CO_3_)_2_; CO_2_ estimated by difference
125.8665, 400.2737
126.3486, 408.8150
126.8307, 424.2061
127.3128, 443.1123
127.7949, 467.5466
128.2770, 495.5335
128.7592, 521.6310
129.2413, 540.5133
129.7234, 551.0339
130.2055, 559.0142
130.6876, 567.3100
131.1698, 571.2093
131.6519, 565.2806
132.1340, 550.7579
132.6161, 535.2756
133.0982, 528.9284
133.5803, 538.1141
134.0625, 539.8669
134.5446, 522.8542
135.0267, 507.5555
135.5088, 510.8505
135.9909, 534.6989
136.4730, 564.8871
136.9552, 579.1994
137.4373, 554.7562
137.9194, 558.4634
138.4015, 611.8058
138.8836, 679.4184
139.3657, 730.1480
139.8479, 755.3547
140.3300, 768.2332
140.8121, 792.4353
141.2942, 837.4777
141.7763, 880.5552
142.2584, 921.5859
142.7406, 960.4810
143.2227, 997.1527
143.7048, 1031.728
144.1869, 1064.111
144.6690, 1094.261
145.1511, 1121.086
145.6333, 1147.368
146.1154, 1172.774
146.5975, 1198.078
147.0796, 1225.992
147.5617, 1258.336
148.0438, 1290.931
148.5260, 1311.644
149.0081, 1316.416
149.4902, 1319.244
149.9723, 1322.271
150.4544, 1325.888
150.9365, 1331.381
151.4187, 1339.905
151.9008, 1349.681
152.3829, 1355.362
152.8650, 1355.442
153.3471, 1354.805
153.8292, 1351.629
154.3114, 1348.572
154.7935, 1354.815
155.2756, 1378.253
155.7577, 1410.371
156.2398, 1427.570
156.7219, 1418.285
157.2041, 1411.921
157.6862, 1423.571
158.1683, 1451.069
158.6504, 1486.885
159.1325, 1533.783
159.6146, 1582.380
160.0968, 1609.578
160.5789, 1598.261
161.0610, 1588.387
161.5431, 1608.638
162.0252, 1655.864
162.5073, 1704.917
162.9895, 1744.866
163.4716, 1777.622
163.9537, 1808.950
164.4358, 1838.629
164.9179, 1867.479
165.4000, 1895.796
165.8822, 1923.548
166.3643, 1951.953
166.8464, 1983.974
167.3285, 2016.000
167.8106, 2041.358
168.2927, 2053.904
168.7749, 2066.171
169.2570, 2093.042
169.7391, 2135.139
170.2212, 2172.217
170.7033, 2190.986
171.1854, 2199.474
171.6676, 2209.897
172.1497, 2223.505
172.6318, 2240.223
173.1139, 2260.175
173.5960, 2283.550
174.0781, 2309.508
174.5603, 2341.944
175.0424, 2375.206
175.5245, 2400.643
176.0066, 2412.272
176.4887, 2420.875
176.9708, 2438.839
177.4530, 2467.014
177.9351, 2499.458
178.4172, 2541.159
178.8993, 2583.014
179.3814, 2611.265
179.8635, 2615.219
180.3457, 2614.291
180.8278, 2635.933
181.3099, 2684.528
181.7920, 2731.891
182.2741, 2766.512
182.7562, 2791.489
183.2384, 2806.565
183.7205, 2806.056
184.2026, 2803.902
184.6847, 2822.987
185.1668, 2869.060
185.6489, 2909.109
186.1311, 2917.338
186.6132, 2915.369
187.0953, 2924.612
187.5774, 2952.558
188.0595, 2991.270
188.5416, 3034.759
189.0238, 3087.694
189.5059, 3125.487
189.9880, 3121.780
190.4701, 3103.589
190.9522, 3095.113
191.4343, 3102.480
191.9165, 3123.093
192.3986, 3158.491
192.8807, 3214.178
193.3628, 3261.179
193.8449, 3271.401
194.3270, 3274.303
194.8092, 3299.194
195.2913, 3358.917
195.7734, 3431.301
196.2555, 3485.837
196.7376, 3519.622
197.2197, 3550.216
197.7019, 3580.056
198.1840, 3611.604
198.6661, 3645.836
199.1482, 3682.000
199.6303, 3724.600
200.1124, 3783.977
200.5946, 3865.095
201.0767, 3937.175
201.5588, 3981.908
202.0409, 4016.017
202.5230, 4052.559
203.0051, 4095.193
203.4873, 4136.947
203.9694, 4165.090
204.4515, 4175.647
204.9336, 4197.772
205.4157, 4247.883
205.8978, 4310.029
206.3800, 4376.181
206.8621, 4446.775
207.3442, 4510.257
207.8263, 4546.613
208.3084, 4551.874
208.7905, 4570.707
209.2727, 4633.420
209.7548, 4703.394
210.2369, 4751.889
210.7190, 4773.351
211.2011, 4783.886
211.6832, 4796.756
212.1654, 4811.898
212.6475, 4829.605
213.1296, 4851.120
213.6117, 4874.499
214.0938, 4899.449
214.5760, 4926.123
215.0581, 4950.438
215.5402, 4969.974
216.0223, 4984.692
216.5044, 4992.600
216.9865, 4988.146
217.4687, 4981.175
217.9508, 4979.262
218.4329, 4982.825
218.9150, 4988.421
219.3971, 4993.067
219.8792, 4997.120
220.3614, 5003.958
220.8435, 5014.787
221.3256, 5028.222
221.8077, 5044.304
222.2898, 5062.702
222.7719, 5079.038
223.2541, 5090.350
223.7362, 5097.075
224.2183, 5100.567
224.7004, 5097.893
225.1825, 5096.344
225.6646, 5098.897
226.1468, 5106.034
226.6289, 5121.634
227.1110, 5152.223
227.5931, 5193.233
228.0752, 5229.602
228.5573, 5256.656
229.0395, 5285.015
229.5216, 5325.311
230.0037, 5373.995
230.4858, 5419.845
230.9679, 5458.404
231.4500, 5490.601
231.9322, 5515.514
232.4143, 5528.839
232.8964, 5546.942
233.3785, 5587.459
233.8606, 5642.601
234.3427, 5694.966
234.8249, 5737.457
235.3070, 5774.884
235.7891, 5815.166
236.2712, 5859.959
236.7533, 5900.940
237.2354, 5931.640
237.7176, 5954.260
238.1997, 5972.267
238.6818, 5982.334
239.1639, 5990.895
239.6460, 6007.279
240.1281, 6031.980
240.6103, 6051.715
241.0924, 6055.960
241.5745, 6050.269
242.0566, 6049.413
242.5387, 6063.001
243.0208, 6072.774
243.5030, 6060.836
243.9851, 6029.869
244.4672, 6000.943
244.9493, 5985.780
245.4314, 5978.669
245.9135, 5965.268
246.3957, 5945.711
246.8778, 5920.167
247.3599, 5884.801
247.8420, 5842.677
248.3241, 5805.690
248.8062, 5780.583
249.2884, 5759.911
249.7705, 5725.612
250.2526, 5668.225
250.7347, 5621.906
251.2168, 5609.082
251.6989, 5614.172
252.1811, 5606.352
252.6632, 5574.145
253.1453, 5532.012
253.6274, 5507.045
254.1095, 5508.669
254.5916, 5492.395
255.0738, 5433.618
255.5559, 5359.065
256.0380, 5302.458
256.5201, 5271.650
257.0022, 5251.032
257.4843, 5221.788
257.9665, 5181.425
258.4486, 5141.202
258.9307, 5099.694
259.4128, 5059.634
259.8949, 5024.953
260.3770, 4995.361
260.8592, 4964.568
261.3413, 4924.336
261.8234, 4871.486
262.3055, 4837.749
262.7876, 4841.836
263.2697, 4846.171
263.7519, 4828.694
264.2340, 4792.322
264.7161, 4752.970
265.1982, 4723.102
265.6803, 4702.205
266.1624, 4672.809
266.6446, 4626.829
267.1267, 4582.291
267.6088, 4544.025
268.0909, 4511.112
268.5730, 4481.232
269.0551, 4452.889
269.5373, 4426.889
270.0194, 4406.866
270.5015, 4408.870
270.9836, 4398.389
271.4657, 4358.383
271.9478, 4309.166
272.4300, 4276.121
272.9121, 4269.347
273.3942, 4277.380
273.8763, 4274.354
274.3584, 4246.093
274.8405, 4231.643
275.3227, 4253.427
275.8048, 4275.256
276.2869, 4261.464
276.7690, 4207.044
277.2511, 4144.957
277.7332, 4123.811
278.2154, 4161.314
278.6975, 4181.226
279.1796, 4163.316
279.6617, 4142.794
280.1438, 4137.530
280.6259, 4147.456
281.1081, 4161.360
281.5902, 4169.305
282.0723, 4171.155
282.5544, 4175.157
283.0365, 4190.403
283.5186, 4196.936
284.0008, 4180.172
284.4829, 4148.748
284.9650, 4122.237
285.4471, 4114.311
285.9292, 4119.682
286.4113, 4120.088
286.8935, 4113.591
287.3756, 4106.162
287.8577, 4092.403
288.3398, 4081.443
288.8219, 4088.284
289.3040, 4124.636
289.7862, 4170.619
290.2683, 4196.775
290.7504, 4199.977
291.2325, 4206.419
291.7146, 4234.838
292.1967, 4266.697
292.6789, 4278.066
293.1610, 4260.357
293.6431, 4242.244
294.1252, 4247.273
294.6073, 4272.002
295.0894, 4295.752
295.5716, 4308.945
296.0537, 4324.740
296.5358, 4364.346
297.0179, 4429.890
297.5000, 4486.813
297.9821, 4515.734
298.4643, 4528.036
298.9464, 4544.048
299.4285, 4568.006
299.9106, 4590.121
300.3927, 4596.317
300.8748, 4586.377
301.3570, 4590.374
301.8391, 4624.858
302.3212, 4664.954
302.8033, 4688.846
303.2854, 4696.774
303.7675, 4703.905
304.2497, 4722.077
304.7318, 4750.055
305.2139, 4769.540
305.6960, 4770.174
306.1781, 4774.681
306.6602, 4797.423
307.1424, 4830.213
307.6245, 4856.621
308.1066, 4868.483
308.5887, 4868.781
309.0708, 4866.438
309.5529, 4852.008
310.0351, 4846.830
310.5172, 4860.752
310.9993, 4879.985
311.4814, 4890.391
311.9635, 4888.159
312.4456, 4880.024
312.9278, 4874.299
313.4099, 4866.040
313.8920, 4873.993
314.3741, 4910.922
314.8562, 4950.799
315.3383, 4980.466
315.8205, 4999.416
316.3026, 5013.836
316.7847, 5029.629
317.2668, 5046.793
317.7489, 5056.901
318.2310, 5046.267
318.7132, 5045.108
319.1953, 5072.837
319.6774, 5114.635
320.1595, 5144.029
320.6416, 5143.291
321.1237, 5127.694
321.6059, 5134.890
322.0880, 5173.492
322.5701, 5210.408
323.0522, 5231.271
323.5343, 5246.585
324.0164, 5264.354
324.4986, 5285.706
324.9807, 5313.077
325.4628, 5357.305
325.9449, 5415.917
326.4270, 5451.021
326.9091, 5440.875
327.3913, 5419.315
327.8734, 5421.730
328.3555, 5447.599
328.8376, 5478.612
329.3197, 5516.114
329.8018, 5550.981
330.2840, 5563.873
330.7661, 5549.856
331.2482, 5532.006
331.7303, 5529.201
332.2124, 5540.577
332.6945, 5552.667
333.1767, 5564.925
333.6588, 5577.488
334.1409, 5590.942
334.6230, 5605.007
335.1051, 5618.663
335.5872, 5631.642
336.0694, 5643.778
336.5515, 5654.396
337.0336, 5657.330
337.5157, 5666.614
337.9979, 5689.804
338.4800, 5718.841
338.9621, 5746.391
339.4442, 5769.695
339.9263, 5784.528
340.4084, 5781.902
340.8906, 5744.901
341.3727, 5731.656
341.8548, 5759.524
342.3369, 5792.839
342.8190, 5809.887
343.3011, 5811.672
343.7833, 5812.855
344.2654, 5827.137
344.7475, 5853.677
345.2296, 5869.504
345.7117, 5864.917
346.1938, 5860.961
346.6760, 5859.902
347.1581, 5863.980
347.6402, 5878.438
348.1223, 5908.092
348.6044, 5941.027
349.0865, 5952.298
349.5687, 5935.384
350.0508, 5925.552
350.5329, 5939.141
351.0150, 5959.532
351.4971, 5975.652
351.9792, 5986.172
352.4614, 5990.803
352.9435, 5989.085
353.4256, 5981.288
353.9077, 5965.787
354.3898, 5937.933
354.8719, 5912.826
355.3541, 5912.901
355.8362, 5930.812
356.3183, 5934.802
356.8004, 5905.275
357.2825, 5867.084
357.7646, 5841.989
358.2468, 5830.157
358.7289, 5827.740
359.2110, 5836.942
359.6931, 5851.745
360.1752, 5846.218
360.6573, 5802.095
361.1395, 5763.915
361.6216, 5750.259
362.1037, 5746.706
362.5858, 5730.691
363.0679, 5695.374
363.5500, 5654.927
364.0322, 5631.261
364.5143, 5632.857
364.9964, 5630.056
365.4785, 5626.364
365.9606, 5615.996
366.4427, 5587.859
366.9249, 5548.471
367.4070, 5519.037
367.8891, 5519.898
368.3712, 5545.287
368.8533, 5543.509
369.3354, 5490.464
369.8176, 5444.106
370.2997, 5425.387
370.7818, 5418.078
371.2639, 5403.313
371.7460, 5374.204
372.2281, 5338.539
372.7103, 5304.333
373.1924, 5271.432
373.6745, 5244.400
374.1566, 5228.508
374.6387, 5214.766
375.1208, 5195.375
375.6030, 5170.532
376.0851, 5145.385
376.5672, 5122.362
377.0493, 5100.654
377.5314, 5079.913
378.0135, 5060.544
378.4957, 5037.669
378.9778, 5004.637
379.4599, 4964.836
379.9420, 4934.772
380.4241, 4920.633
380.9063, 4910.183
381.3884, 4902.257
381.8705, 4893.376
382.3526, 4874.834
382.8347, 4842.821
383.3168, 4803.107
383.7990, 4766.607
384.2811, 4735.011
384.7632, 4703.628
385.2453, 4672.849
385.7274, 4642.063
386.2095, 4605.008
386.6917, 4565.563
387.1738, 4540.321
387.6559, 4547.943
388.1380, 4586.176
388.6201, 4597.462
389.1022, 4559.167
389.5844, 4520.471
390.0665, 4488.277
390.5486, 4463.780
391.0307, 4450.493
391.5128, 4450.543
391.9949, 4454.263
392.4771, 4446.588
392.9592, 4426.239
393.4413, 4408.190
393.9234, 4397.909
394.4055, 4388.177
394.8876, 4370.234
395.3698, 4345.493
395.8519, 4327.447
396.3340, 4327.586
396.8161, 4337.001
397.2982, 4342.076
397.7803, 4342.022
398.2625, 4337.745
398.7446, 4331.834
399.2267, 4321.267
399.7088, 4296.517
400.1909, 4235.336
400.6730, 4186.660
401.1552, 4181.606
401.6373, 4198.427
402.1194, 4196.977
402.6015, 4164.258
403.0836, 4123.736
403.5657, 4111.439
404.0479, 4141.764
404.5300, 4159.374
405.0121, 4156.129
405.4942, 4149.605
405.9763, 4150.425
406.4584, 4156.182
406.9406, 4157.517
407.4227, 4147.089
407.9048, 4129.016
408.3869, 4121.150
408.8690, 4132.829
409.3511, 4136.010
409.8333, 4114.381
410.3154, 4087.829
410.7975, 4074.285
411.2796, 4077.412
411.7617, 4085.679
412.2438, 4088.416
412.7260, 4087.072
413.2081, 4089.163
413.6902, 4094.190
414.1723, 4105.571
414.6544, 4133.480
415.1365, 4171.591
415.6187, 4198.589
416.1008, 4210.029
416.5829, 4209.290
417.0650, 4189.232
417.5471, 4156.994
418.0292, 4139.945
418.5114, 4152.068
418.9935, 4180.233
419.4756, 4196.848
419.9577, 4195.664
420.4398, 4193.998
420.9219, 4189.113
421.4041, 4186.368
421.8862, 4191.191
422.3683, 4202.908
422.8504, 4216.303
423.3325, 4227.464
423.8146, 4236.296
424.2968, 4241.756
424.7789, 4240.939
425.2610, 4240.748
425.7431, 4240.722
426.2252, 4243.022
426.7073, 4252.447
427.1895, 4270.705
427.6716, 4287.039
428.1537, 4284.728
428.6358, 4265.385
429.1179, 4257.366
429.6000, 4268.515
430.0822, 4285.583
430.5643, 4300.972
431.0464, 4313.993
431.5285, 4320.397
432.0106, 4315.354
432.4927, 4306.071
432.9749, 4294.969
433.4570, 4284.124
433.9391, 4283.872
434.4212, 4301.223
434.9033, 4327.187
435.3854, 4340.914
435.8676, 4333.800
436.3497, 4329.890
436.8318, 4332.365
437.3139, 4337.129
437.7960, 4342.307
438.2781, 4346.899
438.7603, 4348.602
439.2424, 4343.998
439.7245, 4334.665
440.2066, 4337.737
440.6887, 4366.622
441.1708, 4387.833
441.6530, 4390.371
442.1351, 4383.778
442.6172, 4374.525
443.0993, 4364.009
443.5814, 4361.356
444.0635, 4385.127
444.5457, 4429.325
445.0278, 4447.909
445.5099, 4424.963
445.9920, 4397.838
446.4741, 4400.420
446.9562, 4424.833
447.4384, 4445.882
447.9205, 4461.315
448.4026, 4470.470
448.8847, 4469.843
449.3668, 4462.354
449.8489, 4455.861
450.3311, 4453.526
450.8132, 4452.987
451.2953, 4449.732
451.7774, 4440.113
452.2595, 4436.794
452.7416, 4440.703
453.2238, 4449.640
453.7059, 4469.250
454.1880, 4493.347
454.6701, 4505.764
455.1522, 4493.836
455.6343, 4466.669
456.1165, 4453.680
456.5986, 4458.737
457.0807, 4467.796
457.5628, 4484.528
458.0449, 4499.189
458.5270, 4499.481
459.0092, 4485.010
459.4913, 4478.496
459.9734, 4501.988
460.4555, 4541.408
460.9376, 4568.252
461.4197, 4579.896
461.9019, 4585.488
462.3840, 4590.691
462.8661, 4594.193
463.3482, 4591.118
463.8303, 4575.030
464.3124, 4561.499
464.7946, 4552.345
465.2767, 4549.365
465.7588, 4559.016
466.2409, 4580.916
466.7230, 4601.221
467.2051, 4603.326
467.6873, 4585.273
468.1694, 4576.201
468.6515, 4585.246
469.1336, 4593.370
469.6157, 4592.877
470.0978, 4589.672
470.5800, 4594.085
471.0621, 4610.698
471.5442, 4626.144
472.0263, 4620.563
472.5084, 4595.790
472.9905, 4580.948
473.4727, 4586.916
473.9548, 4592.061
474.4369, 4567.093
474.9190, 4521.868
475.4011, 4497.479
475.8832, 4518.877
476.3654, 4547.222
476.8475, 4556.500
477.3296, 4551.775
477.8117, 4548.676
478.2938, 4553.724
478.7759, 4557.957
479.2581, 4544.867
479.7402, 4501.560
480.2223, 4475.486
480.7044, 4478.055
481.1865, 4484.586
481.6686, 4485.001
482.1508, 4479.681
482.6329, 4471.677
483.1150, 4462.116
483.5971, 4452.441
484.0792, 4445.315
484.5613, 4440.812
485.0435, 4438.620
485.5256, 4439.370
486.0077, 4441.862
486.4898, 4446.251
486.9719, 4452.103
487.4540, 4454.496
487.9362, 4449.017
488.4183, 4440.824
488.9004, 4435.471
489.3825, 4432.611
489.8646, 4429.901
490.3467, 4426.792
490.8289, 4421.566
491.3110, 4409.788
491.7931, 4381.878
492.2752, 4363.443
492.7573, 4367.921
493.2394, 4370.587
493.7216, 4348.489
494.2037, 4308.029
494.6858, 4274.998
495.1679, 4268.128
495.6500, 4279.010
496.1321, 4282.277
496.6143, 4276.914
497.0964, 4267.149
497.5785, 4246.434
498.0606, 4227.640
498.5427, 4225.440
499.0248, 4240.001
499.5070, 4249.931
499.9891, 4244.611
500.4712, 4229.520
500.9533, 4209.167
501.4355, 4184.632
501.9176, 4160.828
502.3997, 4139.415
502.8818, 4122.352
503.3639, 4115.623
503.8460, 4133.703
504.3282, 4140.759
504.8103, 4126.567
505.2924, 4108.374
505.7745, 4100.472
506.2566, 4101.292
506.7387, 4097.917
507.2209, 4077.964
507.7030, 4050.222
508.1851, 4048.980
508.6672, 4086.364
509.1493, 4110.293
509.6314, 4096.622
510.1136, 4069.441
510.5957, 4048.872
511.0778, 4035.872
511.5599, 4027.162
512.0420, 4022.475
512.5241, 4020.546
513.0062, 4019.964
513.4883, 4020.649
513.9705, 4023.675
514.4526, 4030.606
514.9347, 4038.339
515.4168, 4038.511
515.8989, 4030.076
516.3810, 4014.742
516.8632, 3977.832
517.3453, 3946.220
517.8274, 3942.335
518.3095, 3961.014
518.7916, 3981.166
519.2737, 3989.830
519.7559, 3988.886
520.2380, 3981.431
520.7201, 3966.061
521.2022, 3951.700
521.6843, 3938.426
522.1664, 3929.672
522.6486, 3931.025
523.1307, 3942.199
523.6128, 3948.987
524.0949, 3948.846
524.5770, 3940.863
525.0591, 3917.876
525.5413, 3885.086
526.0234, 3859.588
526.5055, 3849.077
526.9876, 3852.249
527.4697, 3868.779
527.9518, 3916.676
528.4340, 3937.271
528.9161, 3908.385
529.3982, 3877.117
529.8803, 3867.693
530.3624, 3874.620
530.8445, 3883.350
531.3267, 3889.656
531.8088, 3887.142
532.2909, 3857.548
532.7730, 3802.362
533.2551, 3767.719
533.7372, 3771.065
534.2194, 3784.045
534.7015, 3770.822
535.1836, 3734.675
535.6657, 3724.931
536.1478, 3776.077
536.6299, 3824.868
537.1121, 3831.294
537.5942, 3812.456
538.0763, 3799.754
538.5584, 3803.988
539.0405, 3817.765
539.5226, 3832.778
540.0048, 3850.446
540.4869, 3859.283
540.9690, 3854.080
541.4511, 3846.215
541.9332, 3842.936
542.4153, 3838.697
542.8975, 3823.254
543.3796, 3791.245
543.8617, 3760.502
544.3438, 3747.316
544.8259, 3746.126
545.3080, 3743.324
545.7902, 3737.047
546.2723, 3727.168
546.7544, 3711.617
547.2365, 3692.024
547.7186, 3682.972
548.2007, 3692.922
548.6829, 3701.188
549.1650, 3701.839
549.6471, 3701.297
550.1292, 3707.685
550.6113, 3720.381
551.0934, 3729.933
551.5756, 3727.154
552.0577, 3715.521
552.5398, 3708.814
553.0219, 3708.238
553.5040, 3707.877
553.9861, 3705.754
554.4683, 3702.814
554.9504, 3698.968
555.4325, 3693.709
555.9146, 3693.832
556.3967, 3706.818
556.8788, 3721.872
557.3610, 3730.571
557.8431, 3732.938
558.3252, 3730.012
558.8073, 3721.855
559.2894, 3712.729
559.7715, 3713.174
560.2537, 3732.142
560.7358, 3736.851
561.2179, 3714.134
561.7000, 3689.073
562.1821, 3668.757
562.6642, 3653.905
563.1464, 3645.730
563.6285, 3647.229
564.1106, 3649.126
564.5927, 3642.766
565.0748, 3629.019
565.5569, 3608.541
566.0391, 3580.117
566.5212, 3555.556
567.0033, 3547.617
567.4854, 3555.328
567.9675, 3551.362
568.4496, 3521.467
568.9318, 3499.543
569.4139, 3493.556
569.8960, 3498.162
570.3781, 3514.501
570.8602, 3538.628
571.3423, 3553.470
571.8245, 3539.418
572.3066, 3505.311
572.7887, 3483.811
573.2708, 3476.210
573.7529, 3475.573
574.2350, 3482.486
574.7172, 3492.514
575.1993, 3498.884
575.6814, 3501.002
576.1635, 3504.963
576.6456, 3516.530
577.1277, 3526.582
577.6099, 3529.070
578.0920, 3524.410
578.5741, 3513.830
579.0562, 3497.795
579.5383, 3479.674
580.0204, 3465.705
580.5026, 3457.082
580.9847, 3445.814
581.4668, 3424.674
581.9489, 3410.402
582.4310, 3414.169
582.9132, 3428.589
583.3953, 3442.547
583.8774, 3456.979
584.3596, 3461.006
584.8417, 3433.285
585.3238, 3395.289
585.8059, 3391.379
586.2880, 3424.778
586.7701, 3454.942
587.2523, 3450.885
587.7344, 3418.694
588.2165, 3388.551
588.6986, 3357.980
589.1807, 3333.794
589.6628, 3309.737
590.1450, 3297.175
590.6271, 3314.892
591.1092, 3353.523
591.5913, 3376.750
592.0734, 3355.838
592.5555, 3319.873
593.0377, 3311.388
593.5198, 3325.362
594.0019, 3330.127
594.4840, 3315.321
594.9661, 3295.680
595.4482, 3288.551
595.9304, 3295.635
596.4125, 3294.073
596.8946, 3274.647
597.3767, 3258.721
597.8588, 3257.301
598.3409, 3259.738
598.8231, 3252.927
599.3052, 3234.800
599.7873, 3214.687
600.2694, 3199.095
600.7515, 3188.293
601.2336, 3185.156
601.7158, 3191.009
602.1979, 3192.811
602.6800, 3183.601
603.1621, 3169.340
603.6442, 3160.261
604.1263, 3157.883
604.6085, 3152.736
605.0906, 3142.508
605.5727, 3130.651
606.0548, 3118.568
606.5369, 3106.428
607.0190, 3094.269
607.5012, 3082.130
607.9833, 3069.244
608.4654, 3052.239
608.9475, 3031.483
609.4296, 3022.727
609.9117, 3034.230
610.3939, 3037.457
610.8760, 3007.423
611.3581, 2962.118
611.8402, 2939.640
612.3223, 2949.047
612.8044, 2957.903
613.2866, 2958.035
613.7687, 2952.899
614.2508, 2941.675
614.7329, 2927.755
615.2150, 2920.162
615.6971, 2924.144
616.1793, 2934.873
616.6614, 2944.712
617.1435, 2955.051
617.6256, 2954.668
618.1077, 2939.773
618.5898, 2918.106
619.0720, 2885.999
619.5541, 2851.887
620.0362, 2836.341
620.5183, 2853.367
621.0004, 2868.080
621.4825, 2860.796
621.9647, 2844.137
622.4468, 2833.542
622.9289, 2830.045
623.4110, 2827.025
623.8931, 2820.406
624.3752, 2809.513
624.8574, 2789.652
625.3395, 2754.415
625.8216, 2732.863
626.3037, 2740.269
626.7858, 2750.243
627.2679, 2741.044
627.7501, 2719.947
628.2322, 2710.390
628.7143, 2728.360
629.1964, 2744.434
629.6785, 2742.033
630.1606, 2725.979
630.6428, 2696.656
631.1249, 2657.847
631.6070, 2630.671
632.0891, 2634.520
632.5712, 2661.754
633.0533, 2677.635
633.5355, 2680.887
634.0176, 2675.846
634.4997, 2651.254
634.9818, 2629.290
635.4639, 2628.815
635.9460, 2645.013
636.4282, 2656.264
636.9103, 2652.334
637.3924, 2645.406
637.8745, 2643.180
638.3566, 2643.873
638.8387, 2644.066
639.3209, 2643.191
639.8030, 2643.969
640.2851, 2649.965
640.7672, 2659.080
641.2493, 2656.501
641.7314, 2634.552
642.2136, 2618.785
642.6957, 2620.906
643.1778, 2625.480
643.6599, 2620.673
644.1420, 2607.945
644.6241, 2597.097
645.1063, 2590.168
645.5884, 2587.345
646.0705, 2586.612
646.5526, 2590.719
647.0347, 2609.074
647.5168, 2641.725
647.9990, 2672.050
648.4811, 2684.912
648.9632, 2681.875
649.4453, 2671.847
649.9274, 2650.270
650.4095, 2633.218
650.8917, 2627.293
651.3738, 2624.564
651.8559, 2615.118
652.3380, 2601.637
652.8201, 2600.875
653.3022, 2637.576
653.7844, 2667.795
654.2665, 2651.835
654.7486, 2614.673
655.2307, 2600.025
655.7128, 2615.221
656.1949, 2634.825
656.6771, 2635.489
657.1592, 2621.761
657.6413, 2618.729
658.1234, 2631.061
658.6055, 2638.516
659.0876, 2631.209
659.5698, 2623.135
660.0519, 2629.468
660.5340, 2646.991
661.0161, 2657.245
661.4982, 2648.778
661.9803, 2640.839
662.4625, 2646.594
662.9446, 2657.114
663.4267, 2657.792
663.9088, 2648.121
664.3909, 2642.012
664.8730, 2652.828
665.3552, 2673.193
665.8373, 2674.764
666.3194, 2652.481
666.8015, 2643.891
667.2836, 2663.397
667.7657, 2689.517
668.2479, 2706.885
668.7300, 2715.214
669.2121, 2711.441
669.6942, 2675.422
670.1763, 2651.742
670.6584, 2667.378
671.1406, 2695.033
671.6227, 2707.298
672.1048, 2701.959
672.5869, 2690.452
673.0690, 2679.690
673.5511, 2669.555
674.0333, 2658.528
674.5154, 2646.633
674.9975, 2641.021
675.4796, 2642.869
675.9617, 2652.298
676.4438, 2674.269
676.9260, 2704.975
677.4081, 2718.910
677.8902, 2701.953
678.3723, 2689.402
678.8544, 2689.588
679.3365, 2692.821
679.8187, 2692.979
680.3008, 2689.516
680.7829, 2682.880
681.2650, 2672.254
681.7471, 2662.409
682.2292, 2664.086
682.7114, 2672.659
683.1935, 2664.399
683.6756, 2634.702
684.1577, 2610.665
684.6398, 2611.204
685.1219, 2630.277
685.6041, 2648.145
686.0862, 2671.980
686.5683, 2681.832
687.0504, 2674.270
687.5325, 2657.370
688.0146, 2618.175
688.4968, 2576.816
688.9789, 2576.646
689.4610, 2640.156
689.9431, 2696.240
690.4252, 2673.545
690.9073, 2614.238
691.3895, 2591.799
691.8716, 2606.732
692.3537, 2621.603
692.8358, 2617.234
693.3179, 2602.259
693.8000, 2593.367
694.2822, 2593.533
694.7643, 2585.706
695.2464, 2560.603
695.7285, 2540.855
696.2106, 2538.095
696.6927, 2544.252
697.1749, 2551.668
697.6570, 2560.391
698.1391, 2562.063
698.6212, 2546.751
699.1033, 2529.059
699.5854, 2522.609
700.0676, 2523.182
700.5497, 2521.633
701.0318, 2514.628
701.5139, 2501.803
701.9960, 2479.690
702.4781, 2450.687
702.9603, 2435.263
703.4424, 2437.918
703.9245, 2430.779
704.4066, 2395.201
704.8887, 2357.853
705.3708, 2355.936
705.8530, 2391.155
706.3351, 2411.512
706.8172, 2408.460
707.2993, 2398.279
707.7814, 2380.593
708.2635, 2362.140
708.7457, 2349.958
709.2278, 2344.379
709.7099, 2341.098
710.1920, 2337.523
710.6741, 2334.279
711.1563, 2332.102
711.6384, 2331.069
712.1205, 2332.308
712.6026, 2336.294
713.0847, 2340.147
713.5668, 2343.260
714.0490, 2343.363
714.5311, 2326.414
715.0132, 2268.829
715.4953, 2237.224
715.9774, 2263.679
716.4595, 2289.368
716.9417, 2276.494
717.4238, 2239.357
717.9059, 2214.072
718.3880, 2214.074
718.8701, 2216.479
719.3522, 2206.416
719.8344, 2191.612
720.3165, 2182.765
720.7986, 2178.922
721.2807, 2171.272
721.7628, 2155.203
722.2449, 2138.435
722.7271, 2138.870
723.2092, 2157.864
723.6913, 2151.776
724.1734, 2111.040
724.6555, 2071.565
725.1376, 2048.171
725.6198, 2036.216
726.1019, 2028.289
726.5840, 2023.798
727.0661, 2025.851
727.5482, 2050.527
728.0303, 2064.167
728.5125, 2043.896
728.9946, 2008.259
729.4767, 1979.563
729.9588, 1962.394
730.4409, 1948.178
730.9230, 1928.406
731.4052, 1909.404
731.8873, 1905.742
732.3694, 1913.313
732.8515, 1911.688
733.3336, 1895.491
733.8157, 1875.685
734.2979, 1863.797
734.7800, 1856.522
735.2621, 1828.230
735.7442, 1755.754
736.2263, 1711.530
736.7084, 1721.960
737.1906, 1746.083
737.6727, 1769.640
738.1548, 1787.654
738.6369, 1787.786
739.1190, 1759.844
739.6011, 1731.494
740.0833, 1715.100
740.5654, 1703.760
741.0475, 1689.788
741.5296, 1674.630
742.0117, 1666.424
742.4938, 1668.998
742.9760, 1670.802
743.4581, 1654.775
743.9402, 1623.786
744.4223, 1592.205
744.9044, 1559.785
745.3865, 1535.088
745.8687, 1521.434
746.3508, 1518.502
746.8329, 1529.652
747.3150, 1560.400
747.7971, 1568.337
748.2792, 1528.751
748.7614, 1497.760
749.2435, 1495.427
749.7256, 1500.968
750.2077, 1495.233
750.6898, 1477.627
751.1719, 1458.653
751.6541, 1441.906
752.1362, 1426.401
752.6183, 1408.236
753.1004, 1392.131
753.5825, 1388.761
754.0646, 1397.348
754.5468, 1405.409
755.0289, 1404.573
755.5110, 1397.268
755.9931, 1388.588
756.4752, 1378.583
756.9573, 1365.648
757.4395, 1349.356
757.9216, 1330.709
758.4037, 1308.593
758.8858, 1285.754
759.3679, 1267.771
759.8500, 1252.312
760.3322, 1248.761
760.8143, 1273.607
761.2964, 1291.800
761.7785, 1283.680
762.2606, 1263.784
762.7427, 1252.232
763.2249, 1252.027
763.7070, 1248.973
764.1891, 1231.322
764.6712, 1209.573
765.1533, 1194.453
765.6354, 1184.048
766.1176, 1174.208
766.5997, 1163.842
767.0818, 1152.365
767.5639, 1138.651
768.0460, 1124.731
768.5281, 1117.700
769.0103, 1118.349
769.4924, 1117.955
769.9745, 1113.471
770.4566, 1112.844
770.9387, 1126.022
771.4208, 1145.780
771.9030, 1148.034
772.3851, 1120.410
772.8672, 1101.217
773.3493, 1094.768
773.8314, 1093.909
774.3135, 1100.492
774.7957, 1108.155
775.2778, 1108.515
775.7599, 1099.720
776.2420, 1085.229
776.7241, 1061.308
777.2062, 1037.453
777.6884, 1022.318
778.1705, 1015.910
778.6526, 1020.668
779.1347, 1035.684
779.6168, 1049.118
780.0989, 1050.069
780.5811, 1041.611
781.0632, 1032.734
781.5453, 1023.172
782.0274, 1016.801
782.5095, 1015.800
782.9916, 1013.199
783.4738, 1002.669
783.9559, 987.2057
784.4380, 977.3163
784.9201, 976.7615
785.4022, 974.8989
785.8843, 966.4185
786.3665, 962.4299
786.8486, 973.1870
787.3307, 989.0797
787.8128, 997.6502
788.2949, 996.5695
788.7770, 986.7977
789.2592, 957.5789
789.7413, 930.2476
790.2234, 924.6534
790.7055, 934.0524
791.1876, 949.3442
791.6697, 966.3322
792.1519, 976.4327
792.6340, 970.9188
793.1161, 957.4083
793.5982, 954.1381
794.0803, 960.1048
794.5624, 964.0089
795.0446, 964.8451
795.5267, 956.4869
796.0088, 932.1262
796.4909, 899.6242
796.9730, 880.8600
797.4551, 882.1046
797.9373, 879.5133
798.4194, 868.1677
798.9015, 859.3818
799.3836, 861.8997
799.8657, 866.4207
800.3478, 858.3778
800.8300, 836.3841
801.3121, 825.3516
801.7942, 846.5983
802.2763, 863.8262
802.7584, 846.7641
803.2405, 822.1779
803.7227, 827.3351
804.2048, 860.1240
804.6869, 886.5703
805.1690, 885.7532
805.6511, 873.2173
806.1332, 865.3381
806.6154, 861.6325
807.0975, 862.2375
807.5796, 866.5458
808.0617, 870.0724
808.5438, 870.5513
809.0259, 868.5316
809.5081, 863.7924
809.9902, 855.9321
810.4723, 855.0648
810.9544, 864.1901
811.4365, 870.4835
811.9186, 868.7576
812.4008, 863.5291
812.8829, 859.0840
813.3650, 855.4588
813.8471, 853.3256
814.3292, 858.5092
814.8113, 857.0150
815.2935, 836.5864
815.7756, 818.0687
816.2577, 818.6932
816.7398, 832.5146
817.2219, 844.0582
817.7040, 849.6204
818.1862, 849.2318
818.6683, 838.5369
819.1504, 825.3456
819.6325, 816.1208
820.1146, 811.3687
820.5967, 812.5661
821.0789, 819.4055
821.5610, 825.0964
822.0431, 821.2528
822.5252, 813.0898
823.0073, 814.9221
823.4894, 825.2093
823.9716, 831.3422
824.4537, 830.5345
824.9358, 828.2038
825.4179, 828.5596
825.9000, 830.2302
826.3821, 827.8481
826.8643, 818.1660
827.3464, 818.0698
827.8285, 837.2617
828.3106, 849.1213
828.7927, 834.2638
829.2748, 809.2351
829.7570, 799.5303
830.2391, 806.1704
830.7212, 816.7318
831.2033, 839.5691
831.6854, 854.5806
832.1675, 849.3618
832.6497, 838.0956
833.1318, 834.7508
833.6139, 838.0168
834.0960, 836.8447
834.5781, 824.5620
835.0602, 812.5616
835.5424, 806.7811
836.0245, 806.8776
836.5066, 815.4223
836.9887, 829.2546
837.4708, 841.6404
837.9529, 849.7881
838.4351, 851.2112
838.9172, 836.0729
839.3993, 814.2211
839.8814, 820.3496
840.3635, 849.7163
840.8456, 861.0729
841.3278, 842.9960
841.8099, 823.0705
842.2920, 825.4506
842.7741, 843.2551
843.2562, 851.5336
843.7383, 848.4805
844.2205, 843.2402
844.7026, 834.4688
845.1847, 827.9703
845.6668, 828.1375
846.1489, 831.2817
846.6310, 830.2519
847.1132, 823.0808
847.5953, 821.0652
848.0774, 826.6498
848.5595, 834.1733
849.0416, 848.5479
849.5237, 859.2565
850.0059, 852.8688
850.4880, 833.7134
850.9701, 821.4016
851.4522, 823.3893
851.9343, 829.8752
852.4164, 842.3483
852.8986, 851.8996
853.3807, 844.3321
853.8628, 828.1594
854.3449, 824.5878
854.8270, 839.6919
855.3091, 855.6578
855.7913, 855.5350
856.2734, 847.1442
856.7555, 840.1912
857.2376, 835.7719
857.7197, 841.1363
858.2018, 855.9083
858.6840, 861.1698
859.1661, 841.0944
859.6482, 810.6445
860.1303, 803.8724
860.6124, 820.1063
861.0945, 835.5203
861.5767, 850.1419
862.0588, 849.1965
862.5409, 820.2199
863.0230, 788.1099
863.5051, 790.4520
863.9872, 828.4825
864.4694, 847.0228
864.9515, 833.8168
865.4336, 826.6653
865.9157, 835.6689
866.3978, 848.9824
866.8799, 861.8015
867.3621, 872.0445
867.8442, 871.8334
868.3263, 850.3544
868.8084, 843.4600
869.2905, 873.1915
869.7726, 898.5632
870.2548, 896.4252
870.7369, 880.6370
871.2190, 866.1385
871.7011, 856.0439
872.1832, 853.2431
872.6653, 862.1374
873.1475, 874.9517
873.6296, 893.7131
874.1117, 909.0865
874.5938, 905.1761
875.0759, 887.8428
875.5580, 878.0040
876.0402, 884.7920
876.5223, 895.0187
877.0044, 896.4056
877.4865, 892.4521
877.9686, 888.3282
878.4507, 884.3526
878.9329, 880.4150
879.4150, 876.6781
879.8971, 875.0435
880.3792, 877.6066
880.8613, 882.0317
881.3434, 882.3497
881.8256, 878.9638
882.3077, 875.6924
882.7898, 872.6317
883.2719, 875.8472
883.7540, 890.1317
884.2361, 904.8503
884.7183, 901.9567
885.2004, 881.2851
885.6825, 878.7829
886.1646, 902.1249
886.6467, 920.1902
887.1288, 926.2139
887.6110, 925.7319
888.0931, 921.6007
888.5752, 914.5864
889.0573, 906.9925
889.5394, 894.8065
890.0215, 890.5695
890.5037, 905.5851
890.9858, 914.6030
891.4679, 899.9342
891.9500, 880.9359
892.4321, 881.6110
892.9142, 901.1661
893.3964, 913.6930
893.8785, 901.5123
894.3606, 898.3557
894.8427, 925.2680
895.3248, 955.3903
895.8069, 971.9488
896.2891, 974.1572
896.7712, 959.8655
897.2533, 927.4645
897.7354, 904.8053
898.2175, 913.4634
898.6996, 932.8242
899.1818, 952.6100
899.6639, 968.1111
900.1460, 970.4413
900.6281, 961.3524
901.1102, 951.8225
901.5923, 946.8351
902.0745, 948.8772
902.5566, 966.7505
903.0387, 990.7018
903.5208, 1000.856
904.0029, 999.6400
904.4850, 1002.529
904.9672, 1013.881
905.4493, 1021.571
905.9314, 1012.136
906.4135, 993.7939
906.8956, 985.3762
907.3777, 986.6166
907.8599, 999.1070
908.3420, 1022.737
908.8241, 1038.292
909.3062, 1034.540
909.7883, 1023.278
910.2704, 1023.584
910.7526, 1034.876
911.2347, 1042.950
911.7168, 1047.982
912.1990, 1047.637
912.6811, 1039.313
913.1632, 1032.511
913.6453, 1036.624
914.1274, 1046.029
914.6096, 1039.609
915.0917, 1001.557
915.5738, 1000.827
916.0559, 1065.466
916.5380, 1114.609
917.0201, 1112.760
917.5023, 1090.053
917.9844, 1077.612
918.4665, 1074.762
918.9486, 1069.735
919.4307, 1055.406
919.9128, 1049.671
920.3950, 1058.928
920.8771, 1070.976
921.3592, 1083.145
921.8413, 1092.761
922.3234, 1094.747
922.8055, 1088.164
923.2877, 1084.050
923.7698, 1085.786
924.2519, 1088.649
924.7340, 1093.119
925.2161, 1096.301
925.6982, 1094.225
926.1804, 1089.163
926.6625, 1087.250
927.1446, 1090.701
927.6267, 1093.573
928.1088, 1089.933
928.5909, 1088.303
929.0731, 1095.500
929.5552, 1107.765
930.0373, 1122.983
930.5194, 1138.419
931.0015, 1145.226
931.4836, 1135.089
931.9658, 1128.599
932.4479, 1148.672
932.9300, 1175.781
933.4121, 1188.316
933.8942, 1188.935
934.3763, 1185.310
934.8585, 1180.265
935.3406, 1175.630
935.8227, 1171.016
936.3048, 1170.556
936.7869, 1182.912
937.2690, 1201.845
937.7512, 1217.385
938.2333, 1227.624
938.7154, 1228.306
939.1975, 1218.344
939.6796, 1210.053
940.1617, 1217.891
940.6439, 1235.293
941.1260, 1250.212
941.6081, 1261.643
942.0902, 1262.088
942.5723, 1252.141
943.0544, 1250.464
943.5366, 1268.348
944.0187, 1287.984
944.5008, 1275.698
944.9829, 1240.005
945.4650, 1231.344
945.9471, 1248.616
946.4293, 1273.798
946.9114, 1303.327
947.3935, 1322.592
947.8756, 1318.947
948.3577, 1303.681
948.8398, 1302.524
949.3220, 1315.602
949.8041, 1332.856
950.2862, 1355.318
950.7683, 1370.148
951.2504, 1372.390
951.7325, 1369.614
952.2147, 1368.437
952.6968, 1368.608
953.1789, 1368.159
953.6610, 1365.546
954.1431, 1372.388
954.6252, 1392.876
955.1074, 1410.430
955.5895, 1417.578
956.0716, 1420.374
956.5537, 1426.026
957.0358, 1434.139
957.5179, 1440.023
958.0001, 1444.693
958.4822, 1443.330
958.9643, 1429.823
959.4464, 1421.776
959.9285, 1430.666
960.4106, 1447.136
960.8928, 1457.808
961.3749, 1462.511
961.8570, 1464.777
962.3391, 1458.474
962.8212, 1461.946
963.3033, 1490.487
963.7855, 1512.153
964.2676, 1501.337
964.7497, 1474.609
965.2318, 1463.510
965.7139, 1471.100
966.1960, 1478.014
966.6782, 1473.372
967.1603, 1483.377
967.6424, 1536.094
968.1245, 1581.700
968.6066, 1576.162
969.0887, 1541.377
969.5709, 1531.018
970.0530, 1555.710
970.5351, 1572.346
971.0172, 1569.309
971.4993, 1569.369
971.9814, 1579.419
972.4636, 1594.470
972.9457, 1615.912
973.4278, 1638.531
973.9099, 1646.652
974.3920, 1632.313
974.8741, 1621.803
975.3563, 1620.638
975.8384, 1622.163
976.3205, 1619.333
976.8026, 1621.409
977.2847, 1643.268
977.7668, 1678.845
978.2490, 1701.797
978.7311, 1701.858
979.2132, 1703.461
979.6953, 1717.399
980.1774, 1728.518
980.6595, 1724.596
981.1417, 1717.022
981.6238, 1717.638
982.1059, 1727.156
982.5880, 1742.241
983.0701, 1765.737
983.5522, 1787.213
984.0344, 1808.096
984.5165, 1821.100
984.9986, 1816.168
985.4807, 1804.166
985.9628, 1798.998
986.4449, 1801.297
986.9271, 1802.347
987.4092, 1793.482
987.8913, 1793.849
988.3734, 1822.059
988.8555, 1850.093
989.3376, 1856.730
989.8198, 1851.966
990.3019, 1850.990
990.7840, 1855.744
991.2661, 1860.272
991.7482, 1862.304
992.2303, 1863.954
992.7125, 1862.658
993.1946, 1864.731
993.6767, 1873.603
994.1588, 1889.844
994.6409, 1916.005
995.1230, 1951.297
995.6052, 1985.131
996.0873, 2016.814
996.5694, 2040.741
997.0515, 2050.446
997.5336, 2055.177
998.0157, 2062.838
998.4979, 2070.715
998.9800, 2069.171
999.4621, 2058.443
999.9442, 2060.386
1000.426, 2096.534
1000.908, 2130.831
1001.391, 2141.344
1001.873, 2147.160
1002.355, 2168.212
1002.837, 2194.800
1003.319, 2205.206
1003.801, 2196.677
1004.283, 2193.290
1004.765, 2208.487
1005.247, 2227.223
1005.730, 2249.744
1006.212, 2265.889
1006.694, 2258.158
1007.176, 2241.375
1007.658, 2244.594
1008.140, 2272.370
1008.622, 2297.898
1009.104, 2314.449
1009.587, 2320.207
1010.069, 2302.250
1010.551, 2284.228
1011.033, 2284.790
1011.515, 2300.631
1011.997, 2327.865
1012.479, 2364.234
1012.961, 2390.607
1013.443, 2390.243
1013.926, 2390.214
1014.408, 2401.154
1014.890, 2418.425
1015.372, 2443.341
1015.854, 2469.605
1016.336, 2488.318
1016.818, 2497.841
1017.300, 2500.099
1017.783, 2480.298
1018.265, 2474.338
1018.747, 2513.610
1019.229, 2555.174
1019.711, 2560.622
1020.193, 2548.257
1020.675, 2552.327
1021.157, 2577.266
1021.639, 2599.629
1022.122, 2615.975
1022.604, 2622.948
1023.086, 2614.087
1023.568, 2600.951
1024.050, 2581.404
1024.532, 2568.034
1025.014, 2582.659
1025.496, 2626.124
1025.979, 2667.705
1026.461, 2700.488
1026.943, 2729.046
1027.425, 2753.336
1027.907, 2774.785
1028.389, 2792.822
1028.871, 2809.529
1029.353, 2826.581
1029.835, 2844.492
1030.318, 2867.405
1030.800, 2903.619
1031.282, 2933.674
1031.764, 2957.359
1032.246, 2970.480
1032.728, 2955.933
1033.210, 2938.866
1033.692, 2957.417
1034.174, 3009.315
1034.657, 3044.371
1035.139, 3039.084
1035.621, 3045.843
1036.103, 3071.871
1036.585, 3107.200
1037.067, 3163.623
1037.549, 3215.876
1038.031, 3229.453
1038.514, 3209.096
1038.996, 3204.026
1039.478, 3227.731
1039.960, 3243.537
1040.442, 3240.174
1040.924, 3244.878
1041.406, 3273.693
1041.888, 3307.792
1042.370, 3329.578
1042.853, 3340.718
1043.335, 3348.339
1043.817, 3343.710
1044.299, 3358.555
1044.781, 3407.148
1045.263, 3446.508
1045.745, 3456.238
1046.227, 3464.290
1046.709, 3499.490
1047.192, 3549.848
1047.674, 3573.725
1048.156, 3560.582
1048.638, 3567.617
1049.120, 3600.560
1049.602, 3636.533
1050.084, 3670.607
1050.566, 3705.363
1051.049, 3746.006
1051.531, 3783.610
1052.013, 3792.205
1052.495, 3767.837
1052.977, 3777.540
1053.459, 3826.854
1053.941, 3874.336
1054.423, 3912.200
1054.906, 3939.438
1055.388, 3953.071
1055.870, 3963.596
1056.352, 3989.028
1056.834, 4028.556
1057.316, 4080.084
1057.798, 4143.478
1058.280, 4188.958
1058.762, 4211.532
1059.245, 4226.351
1059.727, 4240.699
1060.209, 4258.637
1060.691, 4286.604
1061.173, 4321.727
1061.655, 4354.663
1062.137, 4385.840
1062.619, 4416.817
1063.101, 4447.783
1063.584, 4475.907
1064.066, 4500.590
1064.548, 4531.084
1065.030, 4577.833
1065.512, 4634.676
1065.994, 4696.404
1066.476, 4756.467
1066.958, 4795.607
1067.441, 4816.852
1067.923, 4837.621
1068.405, 4862.637
1068.887, 4879.439
1069.369, 4871.331
1069.851, 4871.750
1070.333, 4933.194
1070.815, 5018.545
1071.297, 5075.187
1071.780, 5110.529
1072.262, 5145.433
1072.744, 5184.975
1073.226, 5227.667
1073.708, 5274.082
1074.190, 5317.708
1074.672, 5356.069
1075.154, 5387.377
1075.636, 5394.167
1076.119, 5403.585
1076.601, 5460.499
1077.083, 5555.147
1077.565, 5641.417
1078.047, 5706.591
1078.529, 5754.360
1079.011, 5773.012
1079.494, 5790.868
1079.976, 5812.337
1080.458, 5848.440
1080.940, 5929.059
1081.422, 6025.531
1081.904, 6067.912
1082.386, 6039.696
1082.868, 6037.917
1083.350, 6101.464
1083.833, 6162.708
1084.315, 6201.099
1084.797, 6239.600
1085.279, 6299.525
1085.761, 6363.690
1086.243, 6400.338
1086.725, 6410.793
1087.207, 6449.298
1087.689, 6534.383
1088.172, 6610.861
1088.654, 6675.878
1089.136, 6731.781
1089.618, 6774.343
1090.100, 6816.331
1090.582, 6871.727
1091.064, 6936.322
1091.546, 6991.908
1092.029, 7034.719
1092.511, 7089.948
1092.993, 7158.789
1093.475, 7238.303
1093.957, 7331.095
1094.439, 7409.938
1094.921, 7451.436
1095.403, 7478.988
1095.885, 7538.718
1096.368, 7626.685
1096.850, 7715.080
1097.332, 7802.543
1097.814, 7865.827
1098.296, 7904.226
1098.778, 7957.197
1099.260, 8044.364
1099.742, 8134.171
1100.224, 8186.105
1100.707, 8220.777
1101.189, 8275.151
1101.671, 8345.816
1102.153, 8428.839
1102.635, 8519.831
1103.117, 8609.966
1103.599, 8695.839
1104.081, 8769.208
1104.564, 8818.066
1105.046, 8867.487
1105.528, 8936.853
1106.010, 9022.479
1106.492, 9128.937
1106.974, 9244.188
1107.456, 9349.419
1107.938, 9444.196
1108.421, 9542.714
1108.903, 9653.202
1109.385, 9753.996
1109.867, 9816.133
1110.349, 9889.781
1110.831, 10005.57
1111.313, 10141.21
1111.795, 10291.95
1112.277, 10441.36
1112.760, 10547.53
1113.242, 10598.17
1113.724, 10682.58
1114.206, 10850.03
1114.688, 10988.83
1115.170, 11059.96
1115.652, 11134.78
1116.134, 11242.80
1116.616, 11376.83
1117.099, 11536.26
1117.581, 11714.23
1118.063, 11860.15
1118.545, 11962.64
1119.027, 12082.25
1119.509, 12222.29
1119.991, 12377.95
1120.473, 12552.19
1120.956, 12725.26
1121.438, 12882.00
1121.920, 13026.69
1122.402, 13162.18
1122.884, 13292.03
1123.366, 13436.54
1123.848, 13595.45
1124.330, 13773.00
1124.813, 13968.15
1125.295, 14174.44
1125.777, 14388.92
1126.259, 14608.92
1126.741, 14839.95
1127.223, 15063.93
1127.705, 15240.79
1128.187, 15397.98
1128.669, 15580.01
1129.151, 15785.33
1129.634, 16000.96
1130.116, 16222.68
1130.598, 16454.52
1131.080, 16695.62
1131.562, 16955.65
1132.044, 17257.04
1132.526, 17561.47
1133.008, 17841.90
1133.491, 18109.98
1133.973, 18376.47
1134.455, 18646.28
1134.937, 18923.41
1135.419, 19207.12
1135.901, 19513.88
1136.383, 19860.56
1136.865, 20208.99
1137.348, 20531.22
1137.830, 20875.15
1138.312, 21282.66
1138.794, 21706.47
1139.276, 22082.28
1139.758, 22417.72
1140.240, 22778.32
1140.722, 23166.16
1141.204, 23570.63
1141.687, 23992.68
1142.169, 24421.79
1142.651, 24856.23
1143.133, 25300.02
1143.615, 25761.04
1144.097, 26234.70
1144.579, 26719.42
1145.061, 27213.83
1145.543, 27710.40
1146.026, 28215.48
1146.508, 28740.92
1146.990, 29287.00
1147.472, 29849.02
1147.954, 30425.54
1148.436, 30989.71
1148.918, 31502.68
1149.400, 32024.96
1149.883, 32632.46
1150.365, 33275.96
1150.847, 33909.34
1151.329, 34530.66
1151.811, 35134.86
1152.293, 35727.76
1152.775, 36337.47
1153.257, 36980.20
1153.740, 37597.93
1154.222, 38145.08
1154.704, 38702.06
1155.186, 39320.60
1155.668, 39944.74
1156.150, 40494.38
1156.632, 41036.21
1157.114, 41707.77
1157.596, 42510.37
1158.078, 43236.03
1158.561, 43862.53
1159.043, 44474.46
1159.525, 45077.64
1160.007, 45662.33
1160.489, 46225.59
1160.971, 46766.09
1161.453, 47283.26
1161.935, 47776.44
1162.418, 48243.64
1162.900, 48690.36
1163.382, 49182.28
1163.864, 49701.76
1164.346, 50153.54
1164.828, 50533.79
1165.310, 50902.86
1165.792, 51284.10
1166.275, 51608.72
1166.757, 51789.46
1167.239, 51940.23
1167.721, 52206.16
1168.203, 52491.37
1168.685, 52689.32
1169.167, 52822.79
1169.649, 52940.07
1170.131, 53043.04
1170.614, 53106.61
1171.096, 53122.93
1171.578, 53103.17
1172.060, 53068.84
1172.542, 52974.00
1173.024, 52753.17
1173.506, 52522.77
1173.988, 52368.34
1174.470, 52240.67
1174.953, 52077.98
1175.435, 51878.68
1175.917, 51616.88
1176.399, 51277.22
1176.881, 50951.05
1177.363, 50648.62
1177.845, 50308.23
1178.327, 49910.80
1178.810, 49498.49
1179.292, 49105.68
1179.774, 48703.71
1180.256, 48237.98
1180.738, 47736.72
1181.220, 47270.90
1181.702, 46832.86
1182.184, 46417.30
1182.667, 46004.69
1183.149, 45532.30
1183.631, 44992.59
1184.113, 44464.33
1184.595, 43996.36
1185.077, 43532.52
1185.559, 43024.50
1186.041, 42524.48
1186.523, 42065.27
1187.005, 41635.77
1187.488, 41230.42
1187.970, 40838.98
1188.452, 40452.14
1188.934, 40075.65
1189.416, 39620.16
1189.898, 38979.27
1190.380, 38495.46
1190.862, 38277.60
1191.345, 38015.96
1191.827, 37587.47
1192.309, 37089.73
1192.791, 36602.05
1193.273, 36136.09
1193.755, 35730.68
1194.237, 35378.18
1194.719, 35017.73
1195.202, 34655.55
1195.684, 34328.20
1196.166, 34032.78
1196.648, 33723.54
1197.130, 33384.51
1197.612, 33033.05
1198.094, 32661.20
1198.576, 32327.31
1199.058, 32117.99
1199.541, 31936.23
1200.023, 31702.85
1200.505, 31432.44
1200.987, 31132.02
1201.469, 30820.47
1201.951, 30543.68
1202.433, 30308.42
1202.915, 30102.94
1203.397, 29955.63
1203.880, 29791.44
1204.362, 29603.46
1204.844, 29396.87
1205.326, 29167.03
1205.808, 28933.94
1206.290, 28712.44
1206.772, 28507.56
1207.254, 28326.72
1207.737, 28170.83
1208.219, 28064.58
1208.701, 27995.47
1209.183, 27863.84
1209.665, 27670.53
1210.147, 27522.38
1210.629, 27456.66
1211.111, 27404.46
1211.594, 27314.91
1212.076, 27211.40
1212.558, 27112.72
1213.040, 27013.66
1213.522, 26902.44
1214.004, 26793.47
1214.486, 26694.74
1214.968, 26615.96
1215.450, 26584.45
1215.932, 26612.33
1216.415, 26617.60
1216.897, 26593.63
1217.379, 26541.83
1217.861, 26428.84
1218.343, 26364.46
1218.825, 26406.11
1219.307, 26462.77
1219.789, 26455.50
##END=



