##NAMES=Tunellite
##RRUFFID=R070755
##IDEAL CHEMISTRY=SrB_6_O_9_(OH)_2_&#183;3H_2_O
##LOCALITY=Jennifer mine, U.S. Borax Mine, Boron, Kramer District, Kern County, California, USA
##OWNER=RRUFF
##SOURCE=Michael Scott
##DESCRIPTION=Colorless rhombohedron with defined cleavage
##STATUS=The identification of this mineral has been confirmed by single-crystal X-ray diffraction.
##URL=rruff.info/R070755
172.8132, 6550.995
173.2953, 6471.243
173.7774, 6414.457
174.2595, 6379.542
174.7416, 6356.528
175.2237, 6340.284
175.7059, 6330.658
176.1880, 6325.941
176.6701, 6337.645
177.1522, 6344.295
177.6343, 6324.642
178.1164, 6278.109
178.5986, 6233.828
179.0807, 6229.378
179.5628, 6276.652
180.0449, 6313.926
180.5270, 6335.105
181.0091, 6341.849
181.4913, 6327.032
181.9734, 6289.947
182.4555, 6247.931
182.9376, 6233.118
183.4197, 6267.095
183.9018, 6285.669
184.3840, 6272.496
184.8661, 6248.795
185.3482, 6230.466
185.8303, 6224.043
186.3124, 6228.598
186.7945, 6242.791
187.2767, 6289.179
187.7588, 6315.744
188.2409, 6310.244
188.7230, 6286.118
189.2051, 6257.321
189.6872, 6230.364
190.1694, 6205.961
190.6515, 6186.909
191.1336, 6184.390
191.6157, 6174.874
192.0978, 6151.651
192.5799, 6118.788
193.0621, 6085.089
193.5442, 6056.859
194.0263, 6031.955
194.5084, 5985.609
194.9905, 5905.666
195.4726, 5822.495
195.9548, 5745.227
196.4369, 5673.533
196.9190, 5603.912
197.4011, 5532.161
197.8832, 5460.249
198.3653, 5402.691
198.8475, 5375.246
199.3296, 5347.747
199.8117, 5296.571
200.2938, 5224.070
200.7759, 5157.557
201.2580, 5118.400
201.7402, 5105.662
202.2223, 5091.336
202.7044, 5066.342
203.1865, 5044.650
203.6686, 5044.448
204.1507, 5067.909
204.6329, 5088.412
205.1150, 5080.891
205.5971, 5052.091
206.0792, 5025.736
206.5613, 5006.904
207.0434, 4992.734
207.5256, 4979.763
208.0077, 4967.929
208.4898, 4956.876
208.9719, 4949.075
209.4540, 4942.308
209.9361, 4930.360
210.4183, 4906.963
210.9004, 4877.249
211.3825, 4854.604
211.8646, 4845.815
212.3467, 4830.887
212.8288, 4788.340
213.3110, 4728.611
213.7931, 4677.748
214.2752, 4655.317
214.7573, 4654.596
215.2394, 4648.038
215.7215, 4632.792
216.2037, 4614.112
216.6858, 4590.176
217.1679, 4564.587
217.6500, 4547.650
218.1321, 4552.478
218.6142, 4576.675
219.0964, 4589.333
219.5785, 4583.766
220.0606, 4572.302
220.5427, 4556.968
221.0248, 4540.099
221.5069, 4527.381
221.9891, 4529.168
222.4712, 4546.962
222.9533, 4545.001
223.4354, 4498.293
223.9175, 4452.553
224.3996, 4425.857
224.8818, 4416.525
225.3639, 4412.953
225.8460, 4404.220
226.3281, 4388.997
226.8102, 4378.006
227.2923, 4380.471
227.7745, 4379.412
228.2566, 4361.785
228.7387, 4331.670
229.2208, 4306.044
229.7029, 4305.938
230.1850, 4340.909
230.6672, 4357.826
231.1493, 4338.957
231.6314, 4318.461
232.1135, 4313.806
232.5956, 4324.417
233.0777, 4337.484
233.5599, 4337.374
234.0420, 4316.501
234.5241, 4310.706
235.0062, 4329.086
235.4883, 4352.350
235.9704, 4369.950
236.4526, 4381.412
236.9347, 4393.380
237.4168, 4414.717
237.8989, 4452.403
238.3810, 4475.715
238.8631, 4478.277
239.3453, 4474.303
239.8274, 4469.243
240.3095, 4465.137
240.7916, 4464.110
241.2737, 4469.131
241.7558, 4483.315
242.2380, 4494.028
242.7201, 4494.409
243.2022, 4496.766
243.6843, 4514.059
244.1664, 4545.434
244.6485, 4574.655
245.1307, 4581.659
245.6128, 4556.036
246.0949, 4540.363
246.5770, 4534.624
247.0591, 4537.572
247.5412, 4553.571
248.0234, 4580.991
248.5055, 4607.200
248.9876, 4616.968
249.4697, 4603.262
249.9518, 4596.330
250.4339, 4604.970
250.9161, 4614.064
251.3982, 4612.244
251.8803, 4598.173
252.3624, 4576.748
252.8445, 4550.300
253.3266, 4513.111
253.8088, 4502.070
254.2909, 4543.505
254.7730, 4593.116
255.2551, 4613.537
255.7372, 4600.796
256.2193, 4580.200
256.7014, 4578.144
257.1836, 4600.114
257.6657, 4615.514
258.1478, 4629.067
258.6299, 4633.012
259.1120, 4615.579
259.5941, 4576.794
260.0763, 4535.750
260.5584, 4512.774
261.0405, 4511.766
261.5226, 4498.052
262.0047, 4458.121
262.4868, 4414.006
262.9690, 4384.761
263.4511, 4371.888
263.9332, 4363.318
264.4153, 4349.958
264.8974, 4331.020
265.3795, 4305.219
265.8617, 4264.395
266.3438, 4221.985
266.8259, 4190.359
267.3080, 4170.048
267.7901, 4151.529
268.2722, 4126.926
268.7544, 4095.978
269.2365, 4067.303
269.7186, 4039.803
270.2007, 4015.523
270.6828, 3997.034
271.1649, 3984.116
271.6471, 3973.403
272.1292, 3963.487
272.6113, 3953.765
273.0934, 3940.382
273.5755, 3917.836
274.0576, 3895.681
274.5398, 3881.419
275.0219, 3874.941
275.5040, 3871.077
275.9861, 3866.449
276.4682, 3861.686
276.9503, 3859.708
277.4325, 3864.946
277.9146, 3869.428
278.3967, 3865.207
278.8788, 3853.552
279.3609, 3845.245
279.8430, 3848.262
280.3252, 3859.937
280.8073, 3867.225
281.2894, 3863.301
281.7715, 3861.262
282.2536, 3871.605
282.7357, 3892.303
283.2179, 3912.281
283.7000, 3927.549
284.1821, 3936.567
284.6642, 3936.147
285.1463, 3908.856
285.6284, 3894.064
286.1106, 3925.919
286.5927, 3992.960
287.0748, 4048.442
287.5569, 4070.781
288.0390, 4068.066
288.5211, 4063.610
289.0033, 4058.366
289.4854, 4050.143
289.9675, 4030.535
290.4496, 4005.811
290.9317, 3997.578
291.4138, 4019.011
291.8960, 4055.107
292.3781, 4074.919
292.8602, 4075.100
293.3423, 4072.380
293.8244, 4074.332
294.3065, 4078.307
294.7887, 4077.025
295.2708, 4066.438
295.7529, 4053.262
296.2350, 4053.015
296.7171, 4071.091
297.1992, 4076.087
297.6814, 4043.075
298.1635, 3993.317
298.6456, 3967.132
299.1277, 3978.498
299.6098, 4002.890
300.0919, 4003.967
300.5741, 3979.765
301.0562, 3960.493
301.5383, 3955.367
302.0204, 3958.185
302.5025, 3962.428
302.9846, 3967.302
303.4668, 3969.389
303.9489, 3962.954
304.4310, 3947.399
304.9131, 3935.260
305.3952, 3921.455
305.8773, 3915.461
306.3595, 3932.982
306.8416, 3975.900
307.3237, 4019.392
307.8058, 4036.514
308.2879, 4026.341
308.7701, 4036.340
309.2522, 4084.676
309.7343, 4142.280
310.2164, 4184.756
310.6985, 4211.887
311.1806, 4240.067
311.6628, 4280.179
312.1449, 4333.177
312.6270, 4397.025
313.1091, 4478.047
313.5912, 4563.280
314.0733, 4647.512
314.5555, 4729.805
315.0376, 4807.802
315.5197, 4876.433
316.0018, 4940.340
316.4839, 5025.478
316.9660, 5146.796
317.4482, 5269.856
317.9303, 5387.968
318.4124, 5498.571
318.8945, 5592.542
319.3766, 5660.574
319.8587, 5716.611
320.3409, 5807.641
320.8230, 5962.738
321.3051, 6107.360
321.7872, 6217.164
322.2693, 6309.160
322.7514, 6403.337
323.2336, 6506.047
323.7157, 6624.784
324.1978, 6776.997
324.6799, 6967.999
325.1620, 7183.696
325.6441, 7427.140
326.1263, 7691.482
326.6084, 7968.907
327.0905, 8257.144
327.5726, 8564.414
328.0547, 8908.668
328.5368, 9307.925
329.0190, 9697.563
329.5011, 10086.83
329.9832, 10459.76
330.4653, 10828.52
330.9474, 11182.30
331.4295, 11476.63
331.9117, 11671.78
332.3938, 11772.44
332.8759, 11720.12
333.3580, 11472.76
333.8401, 11144.14
334.3222, 10772.10
334.8044, 10365.98
335.2865, 9922.829
335.7686, 9436.703
336.2507, 8908.509
336.7328, 8395.758
337.2149, 7870.548
337.6971, 7392.063
338.1792, 6977.975
338.6613, 6619.360
339.1434, 6305.945
339.6255, 6031.606
340.1076, 5790.871
340.5898, 5557.025
341.0719, 5306.065
341.5540, 5096.333
342.0361, 4951.040
342.5182, 4842.428
343.0003, 4741.542
343.4825, 4636.946
343.9646, 4536.052
344.4467, 4453.868
344.9288, 4398.291
345.4109, 4347.999
345.8930, 4302.699
346.3752, 4260.463
346.8573, 4220.971
347.3394, 4183.882
347.8215, 4146.424
348.3036, 4102.568
348.7857, 4046.736
349.2679, 4006.342
349.7500, 3984.560
350.2321, 3976.226
350.7142, 3986.237
351.1963, 4010.032
351.6784, 4033.555
352.1606, 4044.092
352.6427, 4042.051
353.1248, 4041.094
353.6069, 4038.960
354.0890, 4041.136
354.5711, 4051.362
355.0533, 4067.020
355.5354, 4082.732
356.0175, 4094.196
356.4996, 4104.342
356.9817, 4122.441
357.4638, 4152.421
357.9460, 4181.794
358.4281, 4206.312
358.9102, 4227.237
359.3923, 4245.076
359.8744, 4259.088
360.3565, 4272.348
360.8387, 4292.656
361.3208, 4322.289
361.8029, 4338.667
362.2850, 4325.938
362.7671, 4301.585
363.2492, 4281.582
363.7314, 4267.488
364.2135, 4257.452
364.6956, 4251.148
365.1777, 4248.117
365.6598, 4247.404
366.1419, 4254.287
366.6241, 4254.868
367.1062, 4224.788
367.5883, 4167.113
368.0704, 4130.688
368.5525, 4150.874
369.0346, 4200.877
369.5168, 4234.958
369.9989, 4246.426
370.4810, 4252.307
370.9631, 4268.355
371.4452, 4291.947
371.9273, 4307.640
372.4095, 4320.659
372.8916, 4319.859
373.3737, 4286.521
373.8558, 4224.802
374.3379, 4170.193
374.8200, 4146.683
375.3022, 4145.480
375.7843, 4127.161
376.2664, 4076.705
376.7485, 4028.349
377.2306, 3996.754
377.7127, 3975.616
378.1949, 3953.600
378.6770, 3926.395
379.1591, 3895.368
379.6412, 3863.136
380.1233, 3823.196
380.6054, 3794.247
381.0876, 3788.768
381.5697, 3788.546
382.0518, 3774.290
382.5339, 3743.282
383.0160, 3709.016
383.4981, 3687.971
383.9803, 3684.724
384.4624, 3675.071
384.9445, 3654.223
385.4266, 3632.579
385.9087, 3613.982
386.3908, 3598.862
386.8730, 3587.417
387.3551, 3580.388
387.8372, 3576.980
388.3193, 3568.582
388.8014, 3542.243
389.2835, 3526.100
389.7657, 3531.161
390.2478, 3546.969
390.7299, 3560.944
391.2120, 3567.666
391.6941, 3569.470
392.1762, 3572.049
392.6584, 3579.192
393.1405, 3577.242
393.6226, 3556.901
394.1047, 3532.677
394.5868, 3513.108
395.0689, 3499.831
395.5511, 3490.985
396.0332, 3484.822
396.5153, 3481.362
396.9974, 3481.407
397.4795, 3488.361
397.9616, 3494.911
398.4438, 3499.566
398.9259, 3500.949
399.4080, 3495.124
399.8901, 3472.672
400.3722, 3443.739
400.8543, 3433.490
401.3365, 3446.692
401.8186, 3459.805
402.3007, 3456.599
402.7828, 3446.240
403.2649, 3443.018
403.7470, 3453.031
404.2292, 3464.500
404.7113, 3468.960
405.1934, 3466.762
405.6755, 3458.930
406.1576, 3444.027
406.6397, 3425.902
407.1219, 3409.757
407.6040, 3394.718
408.0861, 3384.574
408.5682, 3380.956
409.0503, 3382.801
409.5324, 3391.050
410.0146, 3405.817
410.4967, 3419.603
410.9788, 3424.409
411.4609, 3418.742
411.9430, 3415.008
412.4251, 3415.097
412.9073, 3415.308
413.3894, 3412.793
413.8715, 3408.516
414.3536, 3404.928
414.8357, 3403.077
415.3178, 3403.873
415.8000, 3411.669
416.2821, 3431.978
416.7642, 3453.102
417.2463, 3479.736
417.7284, 3503.997
418.2105, 3512.452
418.6927, 3502.654
419.1748, 3492.145
419.6569, 3512.112
420.1390, 3582.792
420.6211, 3627.677
421.1032, 3631.304
421.5854, 3624.176
422.0675, 3613.905
422.5496, 3604.836
423.0317, 3603.652
423.5138, 3616.693
423.9959, 3641.988
424.4781, 3668.681
424.9602, 3698.496
425.4423, 3726.319
425.9244, 3754.208
426.4065, 3777.968
426.8886, 3790.842
427.3708, 3788.210
427.8529, 3780.122
428.3350, 3777.973
428.8171, 3781.812
429.2992, 3789.048
429.7813, 3796.492
430.2635, 3810.179
430.7456, 3838.145
431.2277, 3881.343
431.7098, 3921.823
432.1919, 3949.094
432.6740, 3968.418
433.1562, 3990.334
433.6383, 4016.660
434.1204, 4040.931
434.6025, 4055.225
435.0846, 4060.986
435.5667, 4075.946
436.0489, 4120.602
436.5310, 4156.281
437.0131, 4145.702
437.4952, 4105.741
437.9773, 4088.153
438.4594, 4120.667
438.9416, 4184.762
439.4237, 4230.385
439.9058, 4242.778
440.3879, 4257.434
440.8700, 4275.778
441.3521, 4297.328
441.8343, 4323.718
442.3164, 4354.152
442.7985, 4382.498
443.2806, 4399.402
443.7627, 4400.332
444.2448, 4421.849
444.7270, 4479.753
445.2091, 4542.616
445.6912, 4602.579
446.1733, 4659.922
446.6554, 4716.092
447.1375, 4771.448
447.6197, 4827.878
448.1018, 4890.151
448.5839, 4957.079
449.0660, 5032.890
449.5481, 5112.841
450.0302, 5205.811
450.5124, 5325.166
450.9945, 5472.032
451.4766, 5623.896
451.9587, 5757.357
452.4408, 5879.120
452.9229, 6017.981
453.4051, 6178.764
453.8872, 6356.406
454.3693, 6544.256
454.8514, 6744.744
455.3335, 6968.828
455.8156, 7223.699
456.2978, 7502.039
456.7799, 7794.308
457.2620, 8103.904
457.7441, 8448.392
458.2262, 8844.714
458.7083, 9270.075
459.1904, 9660.609
459.6725, 10000.85
460.1547, 10341.10
460.6368, 10719.11
461.1189, 11086.30
461.6010, 11406.33
462.0831, 11666.14
462.5652, 11838.90
463.0474, 11893.63
463.5295, 11822.13
464.0116, 11700.41
464.4937, 11531.22
464.9758, 11313.65
465.4579, 11026.90
465.9401, 10695.98
466.4222, 10351.86
466.9043, 10012.16
467.3864, 9675.163
467.8685, 9337.179
468.3506, 8986.858
468.8328, 8665.379
469.3149, 8383.459
469.7970, 8131.860
470.2791, 7909.566
470.7612, 7715.550
471.2433, 7537.887
471.7255, 7366.440
472.2076, 7204.802
472.6897, 7069.381
473.1718, 6967.128
473.6539, 6872.553
474.1360, 6767.544
474.6182, 6658.600
475.1003, 6558.419
475.5824, 6471.870
476.0645, 6390.758
476.5466, 6308.458
477.0287, 6226.940
477.5109, 6151.704
477.9930, 6084.759
478.4751, 6025.706
478.9572, 5976.065
479.4393, 5940.125
479.9214, 5899.406
480.4036, 5852.285
480.8857, 5800.930
481.3678, 5747.096
481.8499, 5690.352
482.3320, 5626.588
482.8141, 5550.188
483.2963, 5466.358
483.7784, 5411.311
484.2605, 5429.723
484.7426, 5417.098
485.2247, 5328.499
485.7068, 5221.198
486.1890, 5155.939
486.6711, 5146.177
487.1532, 5148.979
487.6353, 5109.833
488.1174, 5026.176
488.5995, 4963.436
489.0817, 4938.953
489.5638, 4917.102
490.0459, 4873.655
490.5280, 4817.480
491.0101, 4769.190
491.4922, 4743.178
491.9744, 4722.199
492.4565, 4680.999
492.9386, 4621.533
493.4207, 4574.672
493.9028, 4559.436
494.3849, 4553.859
494.8671, 4514.120
495.3492, 4430.593
495.8313, 4362.454
496.3134, 4333.189
496.7955, 4319.745
497.2776, 4299.168
497.7598, 4269.781
498.2419, 4242.850
498.7240, 4228.938
499.2061, 4226.281
499.6882, 4210.193
500.1703, 4167.417
500.6525, 4127.202
501.1346, 4097.780
501.6167, 4071.817
502.0988, 4036.761
502.5809, 3990.267
503.0630, 3947.694
503.5452, 3934.046
504.0273, 3955.754
504.5094, 3959.750
504.9915, 3929.103
505.4736, 3898.243
505.9557, 3882.928
506.4379, 3879.792
506.9200, 3881.263
507.4021, 3888.231
507.8842, 3893.223
508.3663, 3883.076
508.8484, 3858.422
509.3306, 3836.352
509.8127, 3821.628
510.2948, 3813.634
510.7769, 3811.127
511.2590, 3813.352
511.7411, 3822.667
512.2233, 3843.202
512.7054, 3868.776
513.1875, 3895.630
513.6696, 3922.438
514.1517, 3944.084
514.6339, 3955.161
515.1160, 3959.170
515.5981, 3978.311
516.0802, 4030.398
516.5623, 4076.114
517.0444, 4101.282
517.5266, 4124.517
518.0087, 4166.956
518.4908, 4231.391
518.9729, 4300.308
519.4550, 4355.815
519.9371, 4397.759
520.4193, 4432.963
520.9014, 4461.441
521.3835, 4482.262
521.8656, 4497.221
522.3477, 4504.726
522.8298, 4504.101
523.3120, 4499.668
523.7941, 4476.548
524.2762, 4413.230
524.7583, 4315.903
525.2404, 4212.715
525.7225, 4107.542
526.2047, 4007.812
526.6868, 3924.194
527.1689, 3857.236
527.6510, 3792.317
528.1331, 3723.995
528.6152, 3660.665
529.0974, 3608.081
529.5795, 3564.881
530.0616, 3527.284
530.5437, 3493.717
531.0258, 3462.381
531.5079, 3428.265
531.9901, 3384.738
532.4722, 3350.991
532.9543, 3338.799
533.4364, 3325.606
533.9185, 3294.130
534.4006, 3247.727
534.8828, 3203.812
535.3649, 3176.864
535.8470, 3160.441
536.3291, 3131.775
536.8112, 3084.657
537.2933, 3049.017
537.7755, 3047.340
538.2576, 3056.334
538.7397, 3045.826
539.2218, 3010.023
539.7039, 2982.689
540.1860, 2988.182
540.6682, 3009.666
541.1503, 3021.898
541.6324, 3021.950
542.1145, 3017.072
542.5966, 3011.987
543.0787, 3006.654
543.5609, 3000.737
544.0430, 2992.874
544.5251, 2986.173
545.0072, 2977.847
545.4893, 2972.784
545.9714, 2978.397
546.4536, 2995.159
546.9357, 3014.188
547.4178, 3023.128
547.8999, 3021.163
548.3820, 3038.017
548.8641, 3096.913
549.3463, 3141.054
549.8284, 3138.025
550.3105, 3113.890
550.7926, 3104.311
551.2747, 3120.779
551.7568, 3147.820
552.2390, 3170.775
552.7211, 3192.207
553.2032, 3223.752
553.6853, 3269.732
554.1674, 3317.962
554.6495, 3356.871
555.1317, 3386.651
555.6138, 3417.859
556.0959, 3444.771
556.5780, 3479.482
557.0601, 3526.242
557.5422, 3584.859
558.0244, 3657.558
558.5065, 3744.392
558.9886, 3835.776
559.4707, 3914.154
559.9528, 3971.029
560.4349, 4047.949
560.9171, 4162.393
561.3992, 4279.944
561.8813, 4382.674
562.3634, 4481.428
562.8455, 4599.976
563.3276, 4752.094
563.8098, 4915.709
564.2919, 5059.489
564.7740, 5184.973
565.2561, 5320.999
565.7382, 5486.366
566.2203, 5643.634
566.7025, 5747.584
567.1846, 5803.431
567.6667, 5850.511
568.1488, 5924.742
568.6309, 5964.272
569.1130, 5923.224
569.5952, 5815.816
570.0773, 5674.713
570.5594, 5513.567
571.0415, 5336.019
571.5236, 5150.382
572.0057, 4951.629
572.4879, 4756.197
572.9700, 4559.172
573.4521, 4370.220
573.9342, 4189.477
574.4163, 4020.674
574.8984, 3869.569
575.3806, 3739.281
575.8627, 3627.263
576.3448, 3533.167
576.8269, 3457.295
577.3090, 3379.304
577.7911, 3288.649
578.2733, 3204.030
578.7554, 3149.636
579.2375, 3121.839
579.7196, 3093.033
580.2017, 3056.667
580.6838, 3018.739
581.1660, 2978.491
581.6481, 2939.934
582.1302, 2913.881
582.6123, 2905.367
583.0944, 2904.069
583.5765, 2891.286
584.0587, 2860.203
584.5408, 2837.254
585.0229, 2830.099
585.5050, 2822.824
585.9871, 2803.236
586.4692, 2779.311
586.9514, 2768.294
587.4335, 2780.184
587.9156, 2801.372
588.3977, 2810.655
588.8798, 2808.771
589.3619, 2816.042
589.8441, 2841.489
590.3262, 2868.384
590.8083, 2875.026
591.2904, 2865.107
591.7725, 2868.007
592.2546, 2901.643
592.7368, 2935.273
593.2189, 2944.990
593.7010, 2942.558
594.1831, 2953.408
594.6652, 2986.314
595.1473, 3027.647
595.6295, 3057.925
596.1116, 3075.608
596.5937, 3089.496
597.0758, 3100.715
597.5579, 3106.441
598.0400, 3109.545
598.5222, 3105.370
599.0043, 3085.353
599.4864, 3045.049
599.9685, 2996.485
600.4506, 2948.524
600.9327, 2902.407
601.4149, 2864.738
601.8970, 2837.279
602.3791, 2815.775
602.8612, 2797.966
603.3433, 2783.689
603.8254, 2769.114
604.3076, 2751.818
604.7897, 2737.042
605.2718, 2724.050
605.7539, 2715.798
606.2360, 2718.645
606.7181, 2732.677
607.2003, 2747.969
607.6824, 2752.486
608.1645, 2746.650
608.6466, 2751.757
609.1287, 2775.840
609.6108, 2797.612
610.0930, 2804.263
610.5751, 2808.259
611.0572, 2824.820
611.5393, 2857.345
612.0214, 2890.065
612.5035, 2910.532
612.9857, 2924.774
613.4678, 2941.066
613.9499, 2960.533
614.4320, 2991.190
614.9141, 3040.445
615.3962, 3103.163
615.8784, 3161.848
616.3605, 3210.162
616.8426, 3262.971
617.3247, 3323.293
617.8068, 3386.551
618.2889, 3446.052
618.7711, 3504.580
619.2532, 3574.104
619.7353, 3666.855
620.2174, 3769.980
620.6995, 3843.572
621.1816, 3879.828
621.6638, 3933.698
622.1459, 4032.362
622.6280, 4141.472
623.1101, 4227.384
623.5922, 4291.311
624.0743, 4349.142
624.5565, 4407.452
625.0386, 4459.203
625.5207, 4494.438
626.0028, 4518.615
626.4849, 4543.967
626.9670, 4574.917
627.4492, 4615.689
627.9313, 4673.127
628.4134, 4749.654
628.8955, 4832.483
629.3776, 4935.414
629.8597, 5029.994
630.3419, 5093.073
630.8240, 5145.941
631.3061, 5228.043
631.7882, 5357.823
632.2703, 5482.773
632.7524, 5538.775
633.2346, 5547.237
633.7167, 5584.985
634.1988, 5666.191
634.6809, 5745.601
635.1630, 5788.881
635.6451, 5801.362
636.1273, 5817.360
636.6094, 5844.888
637.0915, 5864.807
637.5736, 5878.062
638.0557, 5879.670
638.5378, 5862.653
639.0200, 5828.266
639.5021, 5784.878
639.9842, 5737.451
640.4663, 5687.328
640.9484, 5640.875
641.4305, 5598.905
641.9127, 5557.918
642.3948, 5524.958
642.8769, 5484.715
643.3590, 5417.154
643.8411, 5323.233
644.3232, 5236.403
644.8054, 5167.127
645.2875, 5107.250
645.7696, 5055.059
646.2517, 5007.333
646.7338, 4958.638
647.2159, 4907.089
647.6981, 4849.962
648.1802, 4781.102
648.6623, 4697.192
649.1444, 4620.276
649.6265, 4546.975
650.1086, 4486.117
650.5908, 4447.729
651.0729, 4419.939
651.5550, 4385.925
652.0371, 4340.715
652.5192, 4292.787
653.0013, 4247.787
653.4835, 4204.837
653.9656, 4163.361
654.4477, 4123.188
654.9298, 4077.739
655.4119, 4020.539
655.8940, 3956.485
656.3762, 3905.457
656.8583, 3874.253
657.3404, 3847.494
657.8225, 3829.325
658.3046, 3811.909
658.7867, 3788.567
659.2689, 3760.882
659.7510, 3736.260
660.2331, 3720.601
660.7152, 3705.943
661.1973, 3674.910
661.6794, 3628.151
662.1616, 3590.690
662.6437, 3570.596
663.1258, 3555.081
663.6079, 3531.761
664.0900, 3501.076
664.5721, 3473.527
665.0543, 3449.843
665.5364, 3428.757
666.0185, 3409.989
666.5006, 3393.578
666.9827, 3380.064
667.4648, 3369.317
667.9470, 3359.972
668.4291, 3351.539
668.9112, 3343.292
669.3933, 3331.967
669.8754, 3319.355
670.3575, 3296.876
670.8397, 3250.017
671.3218, 3200.825
671.8039, 3174.773
672.2860, 3172.780
672.7681, 3173.761
673.2502, 3174.311
673.7324, 3173.335
674.2145, 3170.479
674.6966, 3165.376
675.1787, 3158.526
675.6608, 3150.080
676.1429, 3135.624
676.6251, 3105.590
677.1072, 3056.114
677.5893, 3023.421
678.0714, 3022.104
678.5535, 3016.315
679.0356, 2986.540
679.5178, 2947.431
679.9999, 2919.849
680.4820, 2909.449
680.9641, 2893.772
681.4462, 2856.279
681.9283, 2808.630
682.4105, 2763.818
682.8926, 2723.527
683.3747, 2690.714
683.8568, 2667.483
684.3389, 2649.820
684.8210, 2628.479
685.3032, 2601.548
685.7853, 2575.483
686.2674, 2542.878
686.7495, 2518.549
687.2316, 2514.395
687.7137, 2521.823
688.1959, 2524.974
688.6780, 2518.525
689.1601, 2508.083
689.6422, 2492.939
690.1243, 2478.396
690.6064, 2479.314
691.0886, 2497.008
691.5707, 2515.611
692.0528, 2524.594
692.5349, 2525.165
693.0170, 2521.550
693.4991, 2508.677
693.9813, 2499.931
694.4634, 2495.511
694.9455, 2495.184
695.4276, 2500.340
695.9097, 2509.439
696.3918, 2518.188
696.8740, 2523.106
697.3561, 2530.444
697.8382, 2551.316
698.3203, 2581.084
698.8024, 2602.332
699.2845, 2611.358
699.7667, 2616.905
700.2488, 2626.991
700.7309, 2640.069
701.2130, 2643.733
701.6951, 2620.497
702.1772, 2611.264
702.6594, 2629.471
703.1415, 2654.227
703.6236, 2669.206
704.1057, 2675.741
704.5878, 2686.069
705.0699, 2708.519
705.5521, 2735.787
706.0342, 2758.491
706.5163, 2776.970
706.9984, 2793.062
707.4805, 2807.152
707.9626, 2818.748
708.4448, 2826.426
708.9269, 2830.512
709.4090, 2838.285
709.8911, 2858.788
710.3732, 2870.868
710.8553, 2865.153
711.3375, 2854.333
711.8196, 2846.245
712.3017, 2843.302
712.7838, 2848.681
713.2659, 2869.284
713.7480, 2893.444
714.2302, 2900.759
714.7123, 2893.089
715.1944, 2884.110
715.6765, 2876.342
716.1586, 2872.722
716.6407, 2877.948
717.1229, 2891.949
717.6050, 2897.768
718.0871, 2888.929
718.5692, 2881.030
719.0513, 2868.999
719.5334, 2864.432
720.0156, 2884.301
720.4977, 2924.545
720.9798, 2958.539
721.4619, 2963.602
721.9440, 2958.546
722.4261, 2978.281
722.9083, 3018.770
723.3904, 3047.290
723.8725, 3051.977
724.3546, 3059.587
724.8367, 3100.553
725.3188, 3174.919
725.8010, 3233.225
726.2831, 3265.606
726.7652, 3295.605
727.2473, 3320.485
727.7294, 3348.905
728.2115, 3392.419
728.6937, 3448.236
729.1758, 3499.116
729.6579, 3532.024
730.1400, 3557.052
730.6221, 3587.277
731.1042, 3622.463
731.5864, 3662.699
732.0685, 3708.858
732.5506, 3754.741
733.0327, 3794.498
733.5148, 3828.087
733.9969, 3859.224
734.4791, 3880.409
734.9612, 3909.222
735.4433, 3960.713
735.9254, 4010.327
736.4075, 4036.353
736.8896, 4040.867
737.3718, 4042.800
737.8539, 4055.481
738.3360, 4065.742
738.8181, 4053.966
739.3002, 4027.078
739.7823, 4012.520
740.2645, 4016.658
740.7466, 4008.485
741.2287, 3956.810
741.7108, 3867.798
742.1929, 3797.945
742.6750, 3764.841
743.1572, 3720.687
743.6393, 3656.247
744.1214, 3582.592
744.6035, 3505.052
745.0856, 3424.516
745.5677, 3342.370
746.0499, 3257.352
746.5320, 3172.980
747.0141, 3089.755
747.4962, 3010.573
747.9783, 2944.258
748.4604, 2890.893
748.9426, 2840.233
749.4247, 2784.508
749.9068, 2724.293
750.3889, 2660.758
750.8710, 2588.459
751.3531, 2528.530
751.8353, 2491.541
752.3174, 2459.038
752.7995, 2418.025
753.2816, 2372.261
753.7637, 2332.211
754.2458, 2299.269
754.7280, 2273.155
755.2101, 2259.732
755.6922, 2249.498
756.1743, 2229.392
756.6564, 2200.160
757.1385, 2171.685
757.6207, 2150.106
758.1028, 2133.369
758.5849, 2116.326
759.0670, 2098.304
759.5491, 2088.484
760.0313, 2092.423
760.5134, 2095.320
760.9955, 2086.338
761.4776, 2069.836
761.9597, 2057.279
762.4418, 2050.681
762.9240, 2043.877
763.4061, 2036.814
763.8882, 2027.881
764.3703, 2011.710
764.8524, 1993.158
765.3345, 1985.128
765.8167, 1993.523
766.2988, 2003.565
766.7809, 1993.152
767.2630, 1966.734
767.7451, 1948.845
768.2272, 1941.245
768.7094, 1940.665
769.1915, 1949.088
769.6736, 1958.950
770.1557, 1954.454
770.6378, 1927.854
771.1199, 1909.264
771.6021, 1900.352
772.0842, 1897.144
772.5663, 1901.510
773.0484, 1909.066
773.5305, 1915.132
774.0126, 1918.471
774.4948, 1918.342
774.9769, 1911.988
775.4590, 1902.992
775.9411, 1897.914
776.4232, 1895.843
776.9053, 1890.251
777.3875, 1878.477
777.8696, 1867.360
778.3517, 1866.325
778.8338, 1875.734
779.3159, 1879.812
779.7980, 1876.399
780.2802, 1871.101
780.7623, 1853.726
781.2444, 1843.618
781.7265, 1864.315
782.2086, 1911.890
782.6907, 1947.951
783.1729, 1953.771
783.6550, 1950.166
784.1371, 1946.564
784.6192, 1944.027
785.1013, 1944.604
785.5834, 1948.230
786.0656, 1952.376
786.5477, 1955.161
787.0298, 1956.802
787.5119, 1957.968
787.9940, 1958.738
788.4761, 1958.493
788.9583, 1958.055
789.4404, 1954.294
789.9225, 1940.574
790.4046, 1921.249
790.8867, 1916.447
791.3688, 1946.300
791.8510, 1958.365
792.3331, 1925.791
792.8152, 1889.824
793.2973, 1884.061
793.7794, 1898.339
794.2615, 1902.482
794.7437, 1882.689
795.2258, 1859.433
795.7079, 1854.931
796.1900, 1863.326
796.6721, 1871.423
797.1542, 1877.972
797.6364, 1880.205
798.1185, 1875.878
798.6006, 1869.871
799.0827, 1871.858
799.5648, 1884.952
800.0469, 1891.106
800.5291, 1878.430
801.0112, 1875.204
801.4933, 1899.889
801.9754, 1932.216
802.4575, 1949.891
802.9396, 1950.758
803.4218, 1947.678
803.9039, 1935.500
804.3860, 1930.773
804.8681, 1951.140
805.3502, 1986.007
805.8323, 2018.111
806.3145, 2042.964
806.7966, 2062.748
807.2787, 2077.716
807.7608, 2090.865
808.2429, 2112.062
808.7250, 2141.550
809.2072, 2175.195
809.6893, 2214.447
810.1714, 2250.496
810.6535, 2272.772
811.1356, 2284.177
811.6177, 2307.655
812.0999, 2351.658
812.5820, 2395.037
813.0641, 2443.512
813.5462, 2484.063
814.0283, 2503.307
814.5104, 2508.458
814.9926, 2517.639
815.4747, 2539.088
815.9568, 2557.846
816.4389, 2562.384
816.9210, 2556.158
817.4031, 2541.327
817.8853, 2520.364
818.3674, 2503.663
818.8495, 2496.416
819.3316, 2490.595
819.8137, 2474.127
820.2958, 2446.776
820.7780, 2410.674
821.2601, 2361.509
821.7422, 2314.083
822.2243, 2271.556
822.7064, 2235.730
823.1885, 2214.646
823.6707, 2209.046
824.1528, 2186.347
824.6349, 2120.756
825.1170, 2063.933
825.5991, 2043.829
826.0812, 2037.608
826.5634, 2020.505
827.0455, 1990.621
827.5276, 1959.905
828.0097, 1933.134
828.4918, 1913.558
828.9739, 1911.420
829.4560, 1920.112
829.9381, 1917.116
830.4202, 1899.196
830.9023, 1878.107
831.3845, 1861.824
831.8666, 1847.974
832.3487, 1828.860
832.8308, 1800.390
833.3129, 1780.919
833.7950, 1775.245
834.2772, 1772.437
834.7593, 1769.318
835.2414, 1764.847
835.7235, 1757.505
836.2056, 1747.256
836.6877, 1734.032
837.1699, 1715.599
837.6520, 1696.555
838.1341, 1672.496
838.6162, 1652.783
839.0983, 1657.464
839.5804, 1687.014
840.0626, 1710.009
840.5447, 1695.498
841.0268, 1662.941
841.5089, 1647.026
841.9910, 1645.451
842.4731, 1648.246
842.9553, 1653.224
843.4374, 1657.930
843.9195, 1660.202
844.4016, 1660.582
844.8837, 1661.023
845.3658, 1659.237
845.8480, 1664.215
846.3301, 1685.415
846.8122, 1703.025
847.2943, 1703.926
847.7764, 1693.926
848.2585, 1683.213
848.7407, 1671.285
849.2228, 1662.799
849.7049, 1660.388
850.1870, 1660.484
850.6691, 1663.069
851.1512, 1665.578
851.6334, 1662.678
852.1155, 1653.491
852.5976, 1645.700
853.0797, 1646.913
853.5618, 1653.568
854.0439, 1660.082
854.5261, 1666.245
855.0082, 1670.607
855.4903, 1672.739
855.9724, 1675.275
856.4545, 1681.515
856.9366, 1689.591
857.4188, 1688.455
857.9009, 1673.722
858.3830, 1664.332
858.8651, 1667.653
859.3472, 1669.776
859.8293, 1656.609
860.3115, 1636.243
860.7936, 1629.348
861.2757, 1643.938
861.7578, 1653.484
862.2399, 1648.761
862.7220, 1642.050
863.2042, 1640.264
863.6863, 1641.642
864.1684, 1644.159
864.6505, 1646.854
865.1326, 1644.871
865.6147, 1629.465
866.0969, 1610.865
866.5790, 1601.072
867.0611, 1600.094
867.5432, 1611.819
868.0253, 1635.740
868.5074, 1653.334
868.9896, 1646.737
869.4717, 1624.239
869.9538, 1614.945
870.4359, 1620.130
870.9180, 1629.687
871.4001, 1646.099
871.8823, 1657.064
872.3644, 1652.472
872.8465, 1637.682
873.3286, 1627.120
873.8107, 1620.977
874.2928, 1618.739
874.7750, 1622.538
875.2571, 1627.848
875.7392, 1633.483
876.2213, 1639.246
876.7034, 1645.046
877.1855, 1650.884
877.6677, 1656.578
878.1498, 1666.003
878.6319, 1671.422
879.1140, 1660.339
879.5961, 1643.752
880.0782, 1642.543
880.5604, 1657.006
881.0425, 1667.787
881.5246, 1660.399
882.0067, 1646.268
882.4888, 1645.775
882.9709, 1657.357
883.4531, 1674.585
883.9352, 1697.573
884.4173, 1708.269
884.8994, 1694.522
885.3815, 1669.496
885.8636, 1657.720
886.3458, 1661.110
886.8279, 1667.299
887.3100, 1679.735
887.7921, 1689.071
888.2742, 1688.609
888.7563, 1686.676
889.2385, 1692.998
889.7206, 1706.698
890.2027, 1715.669
890.6848, 1709.536
891.1669, 1709.806
891.6490, 1727.915
892.1312, 1751.382
892.6133, 1771.817
893.0954, 1787.746
893.5775, 1797.693
894.0596, 1799.839
894.5417, 1803.057
895.0239, 1818.473
895.5060, 1837.710
895.9881, 1845.290
896.4702, 1844.438
896.9523, 1850.380
897.4344, 1868.278
897.9166, 1887.517
898.3987, 1896.045
898.8808, 1896.208
899.3629, 1900.296
899.8450, 1908.797
900.3271, 1910.491
900.8093, 1902.760
901.2914, 1887.789
901.7735, 1866.367
902.2556, 1839.679
902.7377, 1812.585
903.2198, 1785.086
903.7020, 1756.753
904.1841, 1719.395
904.6662, 1691.246
905.1483, 1689.262
905.6304, 1696.449
906.1125, 1686.531
906.5947, 1655.133
907.0768, 1630.908
907.5589, 1622.582
908.0410, 1620.600
908.5231, 1625.628
909.0052, 1631.064
909.4874, 1629.142
909.9695, 1619.918
910.4516, 1608.569
910.9337, 1596.502
911.4158, 1586.433
911.8979, 1582.637
912.3801, 1581.997
912.8622, 1578.895
913.3443, 1573.342
913.8264, 1568.893
914.3085, 1567.237
914.7906, 1564.727
915.2728, 1553.867
915.7549, 1537.031
916.2370, 1530.885
916.7191, 1535.802
917.2012, 1543.955
917.6833, 1554.780
918.1655, 1560.781
918.6476, 1553.036
919.1297, 1534.420
919.6118, 1524.524
920.0939, 1526.442
920.5760, 1530.005
921.0582, 1540.408
921.5403, 1544.560
922.0224, 1526.561
922.5045, 1500.533
922.9866, 1492.140
923.4688, 1506.306
923.9509, 1519.703
924.4330, 1531.477
924.9151, 1539.100
925.3972, 1538.543
925.8793, 1535.135
926.3615, 1534.045
926.8436, 1535.971
927.3257, 1540.076
927.8078, 1548.600
928.2899, 1554.805
928.7720, 1548.319
929.2542, 1540.164
929.7363, 1551.033
930.2184, 1573.730
930.7005, 1577.731
931.1826, 1550.011
931.6647, 1521.052
932.1469, 1532.989
932.6290, 1567.628
933.1111, 1574.366
933.5932, 1557.173
934.0753, 1545.569
934.5574, 1547.682
935.0396, 1554.009
935.5217, 1556.149
936.0038, 1555.657
936.4859, 1558.527
936.9680, 1565.376
937.4501, 1569.870
937.9323, 1570.353
938.4144, 1571.853
938.8965, 1578.019
939.3786, 1585.638
939.8607, 1588.354
940.3428, 1584.604
940.8250, 1584.355
941.3071, 1596.256
941.7892, 1599.257
942.2713, 1574.097
942.7534, 1550.734
943.2355, 1560.464
943.7177, 1594.849
944.1998, 1613.447
944.6819, 1599.947
945.1640, 1588.473
945.6461, 1586.727
946.1282, 1590.952
946.6104, 1604.126
947.0925, 1619.313
947.5746, 1624.513
948.0567, 1617.147
948.5388, 1608.866
949.0209, 1602.207
949.5031, 1601.709
949.9852, 1618.826
950.4673, 1641.486
950.9494, 1647.562
951.4315, 1637.459
951.9136, 1629.988
952.3958, 1636.848
952.8779, 1647.277
953.3600, 1646.072
953.8421, 1637.420
954.3242, 1630.054
954.8063, 1625.474
955.2885, 1631.495
955.7706, 1651.062
956.2527, 1667.215
956.7348, 1658.346
957.2169, 1631.912
957.6990, 1622.643
958.1812, 1631.235
958.6633, 1644.494
959.1454, 1660.318
959.6275, 1681.350
960.1096, 1711.997
960.5917, 1744.711
961.0739, 1760.276
961.5560, 1753.337
962.0381, 1753.777
962.5202, 1764.282
963.0023, 1777.403
963.4844, 1796.023
963.9666, 1811.118
964.4487, 1806.702
964.9308, 1785.879
965.4129, 1787.318
965.8950, 1833.179
966.3771, 1868.554
966.8593, 1878.871
967.3414, 1887.033
967.8235, 1904.970
968.3056, 1929.462
968.7877, 1955.153
969.2698, 1981.190
969.7520, 2006.830
970.2341, 2026.401
970.7162, 2051.666
971.1983, 2094.724
971.6804, 2142.553
972.1625, 2180.607
972.6447, 2209.492
973.1268, 2238.598
973.6089, 2271.969
974.0910, 2306.734
974.5731, 2339.154
975.0552, 2372.998
975.5374, 2412.471
976.0195, 2457.198
976.5016, 2506.874
976.9837, 2560.636
977.4658, 2612.426
977.9479, 2655.464
978.4301, 2696.855
978.9122, 2751.121
979.3943, 2812.852
979.8764, 2867.112
980.3585, 2912.118
980.8406, 2946.223
981.3228, 2967.914
981.8049, 2994.629
982.2870, 3060.881
982.7691, 3155.978
983.2512, 3210.768
983.7333, 3226.375
984.2155, 3254.672
984.6976, 3310.464
985.1797, 3364.717
985.6618, 3392.782
986.1439, 3403.846
986.6260, 3427.806
987.1082, 3467.888
987.5903, 3496.349
988.0724, 3504.888
988.5545, 3527.618
989.0366, 3584.969
989.5187, 3651.730
990.0009, 3695.719
990.4830, 3717.624
990.9651, 3748.506
991.4472, 3796.683
991.9293, 3836.985
992.4114, 3872.146
992.8936, 3891.847
993.3757, 3886.678
993.8578, 3862.905
994.3399, 3832.643
994.8220, 3795.486
995.3041, 3754.123
995.7863, 3717.662
996.2684, 3665.453
996.7505, 3584.591
997.2326, 3492.053
997.7147, 3399.472
998.1968, 3307.659
998.6790, 3213.869
999.1611, 3115.819
999.6432, 3020.058
1000.125, 2923.579
1000.607, 2833.986
1001.090, 2759.374
1001.572, 2691.786
1002.054, 2617.647
1002.536, 2536.704
1003.018, 2466.743
1003.500, 2418.587
1003.982, 2378.692
1004.464, 2344.896
1004.946, 2310.942
1005.429, 2268.237
1005.911, 2220.757
1006.393, 2176.396
1006.875, 2137.972
1007.357, 2109.781
1007.839, 2103.670
1008.321, 2101.707
1008.803, 2082.578
1009.286, 2056.110
1009.768, 2039.915
1010.250, 2033.807
1010.732, 2024.190
1011.214, 2003.618
1011.696, 1984.478
1012.178, 1985.706
1012.660, 1994.860
1013.142, 1985.625
1013.625, 1964.324
1014.107, 1954.645
1014.589, 1960.894
1015.071, 1967.750
1015.553, 1963.768
1016.035, 1954.019
1016.517, 1945.485
1016.999, 1938.834
1017.482, 1937.315
1017.964, 1940.605
1018.446, 1944.414
1018.928, 1947.159
1019.410, 1950.057
1019.892, 1954.542
1020.374, 1960.034
1020.856, 1964.436
1021.338, 1967.845
1021.821, 1970.962
1022.303, 1973.701
1022.785, 1982.686
1023.267, 2002.422
1023.749, 2023.954
1024.231, 2032.938
1024.713, 2030.803
1025.195, 2035.903
1025.677, 2048.810
1026.160, 2064.158
1026.642, 2081.606
1027.124, 2097.473
1027.606, 2107.267
1028.088, 2117.809
1028.570, 2145.563
1029.052, 2193.315
1029.534, 2237.446
1030.017, 2280.002
1030.499, 2309.440
1030.981, 2315.964
1031.463, 2322.808
1031.945, 2350.525
1032.427, 2394.379
1032.909, 2437.273
1033.391, 2479.937
1033.874, 2519.063
1034.356, 2554.194
1034.838, 2586.136
1035.320, 2612.393
1035.802, 2639.070
1036.284, 2674.759
1036.766, 2717.941
1037.248, 2753.629
1037.730, 2784.746
1038.213, 2801.978
1038.695, 2788.091
1039.177, 2783.350
1039.659, 2817.896
1040.141, 2863.485
1040.623, 2880.346
1041.105, 2867.002
1041.587, 2856.918
1042.069, 2858.034
1042.552, 2850.770
1043.034, 2826.196
1043.516, 2800.259
1043.998, 2782.670
1044.480, 2769.128
1044.962, 2754.029
1045.444, 2738.554
1045.926, 2710.905
1046.409, 2654.042
1046.891, 2607.088
1047.373, 2591.152
1047.855, 2576.454
1048.337, 2535.053
1048.819, 2480.188
1049.301, 2444.651
1049.783, 2436.736
1050.266, 2425.958
1050.748, 2408.521
1051.230, 2385.747
1051.712, 2349.084
1052.194, 2314.682
1052.676, 2300.891
1053.158, 2301.233
1053.640, 2292.952
1054.122, 2268.178
1054.604, 2247.190
1055.087, 2238.813
1055.569, 2230.727
1056.051, 2214.517
1056.533, 2197.648
1057.015, 2189.446
1057.497, 2188.428
1057.979, 2185.403
1058.461, 2177.891
1058.944, 2168.802
1059.426, 2156.867
1059.908, 2146.041
1060.390, 2137.757
1060.872, 2132.488
1061.354, 2134.357
1061.836, 2140.868
1062.318, 2136.813
1062.801, 2108.502
1063.283, 2085.896
1063.765, 2079.375
1064.247, 2083.379
1064.729, 2105.834
1065.211, 2130.144
1065.693, 2130.454
1066.175, 2105.886
1066.657, 2082.911
1067.140, 2070.565
1067.622, 2062.425
1068.104, 2054.411
1068.586, 2050.823
1069.068, 2059.298
1069.550, 2072.622
1070.032, 2079.428
1070.514, 2077.796
1070.996, 2072.628
1071.479, 2059.333
1071.961, 2051.546
1072.443, 2059.775
1072.925, 2072.490
1073.407, 2080.979
1073.889, 2086.088
1074.371, 2091.648
1074.853, 2098.267
1075.335, 2101.298
1075.818, 2096.983
1076.300, 2090.790
1076.782, 2079.283
1077.264, 2072.497
1077.746, 2086.508
1078.228, 2110.086
1078.710, 2118.962
1079.192, 2107.604
1079.675, 2095.014
1080.157, 2086.973
1080.639, 2083.259
1081.121, 2088.142
1081.603, 2093.628
1082.085, 2093.824
1082.567, 2088.043
1083.049, 2073.572
1083.531, 2049.247
1084.014, 2033.480
1084.496, 2048.625
1084.978, 2056.793
1085.460, 2026.867
1085.942, 1989.588
1086.424, 1977.152
1086.906, 1981.310
1087.388, 1975.458
1087.870, 1952.301
1088.353, 1931.850
1088.835, 1928.033
1089.317, 1921.745
1089.799, 1901.547
1090.281, 1875.496
1090.763, 1848.728
1091.245, 1823.338
1091.727, 1803.380
1092.210, 1790.495
1092.692, 1776.231
1093.174, 1754.641
1093.656, 1734.429
1094.138, 1721.913
1094.620, 1710.848
1095.102, 1695.512
1095.584, 1676.780
1096.067, 1656.488
1096.549, 1633.566
1097.031, 1619.911
1097.513, 1630.292
1097.995, 1636.908
1098.477, 1623.767
1098.959, 1605.099
1099.441, 1592.148
1099.923, 1584.649
1100.406, 1580.578
1100.888, 1581.080
1101.370, 1575.936
1101.852, 1556.002
1102.334, 1538.542
1102.816, 1530.770
1103.298, 1527.237
1103.780, 1520.763
1104.262, 1515.340
1104.745, 1525.056
1105.227, 1558.432
1105.709, 1571.356
1106.191, 1536.200
1106.673, 1506.304
1107.155, 1503.996
1107.637, 1507.072
1108.119, 1494.028
1108.602, 1474.121
1109.084, 1471.745
1109.566, 1492.856
1110.048, 1511.406
1110.530, 1537.441
1111.012, 1543.723
1111.494, 1505.683
1111.976, 1463.827
1112.458, 1444.956
1112.941, 1442.985
1113.423, 1444.847
1113.905, 1451.822
1114.387, 1455.727
1114.869, 1453.762
1115.351, 1453.056
1115.833, 1455.800
1116.315, 1458.972
1116.797, 1462.091
1117.280, 1463.529
1117.762, 1458.001
1118.244, 1442.654
1118.726, 1442.626
1119.208, 1471.727
1119.690, 1486.720
1120.172, 1473.700
1120.654, 1456.705
1121.137, 1448.631
1121.619, 1446.988
1122.101, 1447.779
1122.583, 1451.054
1123.065, 1456.297
1123.547, 1466.180
1124.029, 1468.181
1124.511, 1455.922
1124.994, 1448.804
1125.476, 1460.303
1125.958, 1477.196
1126.440, 1478.044
1126.922, 1464.061
1127.404, 1458.978
1127.886, 1464.668
1128.368, 1466.143
1128.850, 1460.199
1129.333, 1458.153
1129.815, 1467.072
1130.297, 1475.952
1130.779, 1468.161
1131.261, 1448.587
1131.743, 1446.837
1132.225, 1462.744
1132.707, 1473.319
1133.189, 1476.002
1133.672, 1472.692
1134.154, 1463.781
1134.636, 1454.720
1135.118, 1451.349
1135.600, 1452.664
1136.082, 1457.789
1136.564, 1465.339
1137.046, 1467.244
1137.529, 1463.188
1138.011, 1455.596
1138.493, 1445.594
1138.975, 1437.533
1139.457, 1435.111
1139.939, 1437.539
1140.421, 1445.016
1140.903, 1455.682
1141.385, 1467.466
1141.868, 1477.842
1142.350, 1476.147
1142.832, 1461.630
1143.314, 1451.013
1143.796, 1457.446
1144.278, 1468.269
1144.760, 1468.259
1145.242, 1463.098
1145.724, 1460.635
1146.207, 1460.246
1146.689, 1460.279
1147.171, 1459.788
1147.653, 1456.175
1148.135, 1446.872
1148.617, 1439.526
1149.099, 1443.610
1149.581, 1449.047
1150.064, 1444.974
1150.546, 1437.021
1151.028, 1434.460
1151.510, 1436.496
1151.992, 1435.411
1152.474, 1427.868
1152.956, 1421.183
1153.438, 1419.473
1153.921, 1418.841
1154.403, 1417.308
1154.885, 1415.580
1155.367, 1414.468
1155.849, 1413.797
1156.331, 1413.229
1156.813, 1412.934
1157.295, 1411.027
1157.777, 1404.835
1158.260, 1400.090
1158.742, 1396.516
1159.224, 1396.855
1159.706, 1408.778
1160.188, 1423.568
1160.670, 1422.160
1161.152, 1401.866
1161.634, 1394.182
1162.116, 1411.797
1162.599, 1418.561
1163.081, 1403.006
1163.563, 1389.461
1164.045, 1391.362
1164.527, 1398.504
1165.009, 1396.724
1165.491, 1387.750
1165.973, 1388.006
1166.456, 1399.823
1166.938, 1411.245
1167.420, 1422.381
1167.902, 1428.663
1168.384, 1427.713
1168.866, 1424.356
1169.348, 1423.744
1169.830, 1423.451
1170.313, 1413.027
1170.795, 1393.832
1171.277, 1391.892
1171.759, 1407.292
1172.241, 1421.517
1172.723, 1429.468
1173.205, 1428.300
1173.687, 1414.666
1174.169, 1399.131
1174.651, 1399.798
1175.134, 1411.081
1175.616, 1420.814
1176.098, 1427.993
1176.580, 1428.951
1177.062, 1424.533
1177.544, 1421.876
1178.026, 1424.439
1178.508, 1424.907
1178.991, 1412.787
1179.473, 1398.492
1179.955, 1393.181
1180.437, 1393.664
1180.919, 1398.312
1181.401, 1403.885
1181.883, 1403.152
1182.365, 1394.626
1182.848, 1387.383
1183.330, 1386.208
1183.812, 1387.438
1184.294, 1390.880
1184.776, 1394.280
1185.258, 1396.665
1185.740, 1397.429
1186.222, 1394.089
1186.704, 1387.545
1187.187, 1386.620
1187.669, 1399.324
1188.151, 1405.945
1188.633, 1402.221
1189.115, 1394.082
1189.597, 1375.043
1190.079, 1360.606
1190.561, 1370.163
1191.043, 1393.727
1191.526, 1397.430
1192.008, 1374.515
1192.490, 1362.795
1192.972, 1366.911
1193.454, 1367.431
1193.936, 1357.734
1194.418, 1352.765
1194.900, 1364.248
1195.383, 1379.551
1195.865, 1376.002
1196.347, 1356.980
1196.829, 1350.427
1197.311, 1355.621
1197.793, 1353.424
1198.275, 1341.938
1198.757, 1333.100
1199.240, 1331.784
1199.722, 1334.724
1200.204, 1339.943
1200.686, 1344.654
1201.168, 1341.547
1201.650, 1335.031
1202.132, 1335.648
1202.614, 1341.544
1203.096, 1346.796
1203.578, 1349.301
1204.061, 1346.583
1204.543, 1335.865
1205.025, 1325.651
1205.507, 1323.447
1205.989, 1323.880
1206.471, 1321.259
1206.953, 1319.122
1207.435, 1322.992
1207.918, 1331.513
1208.400, 1341.452
1208.882, 1353.623
1209.364, 1353.842
1209.846, 1323.605
1210.328, 1301.156
1210.810, 1307.050
1211.292, 1314.777
1211.775, 1297.549
1212.257, 1277.168
1212.739, 1292.651
1213.221, 1341.623
1213.703, 1367.778
1214.185, 1361.011
1214.667, 1358.844
1215.149, 1364.813
1215.631, 1370.805
1216.114, 1375.085
1216.596, 1374.743
1217.078, 1366.187
1217.560, 1353.270
1218.042, 1344.886
1218.524, 1341.041
1219.006, 1343.533
1219.488, 1351.583
1219.970, 1356.922
1220.453, 1357.928
1220.935, 1354.863
1221.417, 1347.727
1221.899, 1342.453
1222.381, 1350.989
1222.863, 1360.305
1223.345, 1340.428
1223.827, 1312.033
1224.310, 1313.774
1224.792, 1338.241
1225.274, 1361.346
1225.756, 1375.379
1226.238, 1375.968
1226.720, 1353.156
1227.202, 1333.197
1227.684, 1331.320
1228.167, 1335.765
1228.649, 1341.197
1229.131, 1346.740
1229.613, 1353.869
1230.095, 1360.687
1230.577, 1359.169
1231.059, 1342.863
1231.541, 1339.211
1232.023, 1363.774
1232.505, 1373.847
1232.988, 1352.146
1233.470, 1333.590
1233.952, 1339.507
1234.434, 1355.757
1234.916, 1362.476
1235.398, 1360.952
1235.880, 1360.470
1236.362, 1361.148
1236.845, 1353.916
1237.327, 1338.450
1237.809, 1338.085
1238.291, 1359.358
1238.773, 1371.504
1239.255, 1349.128
1239.737, 1317.270
1240.219, 1315.407
1240.702, 1328.352
1241.184, 1329.725
1241.666, 1322.918
1242.148, 1313.709
1242.630, 1305.143
1243.112, 1302.644
1243.594, 1308.037
1244.076, 1314.870
1244.558, 1321.397
1245.041, 1325.783
1245.523, 1327.327
1246.005, 1326.198
1246.487, 1319.253
1246.969, 1311.776
1247.451, 1310.825
1247.933, 1316.359
1248.415, 1325.006
1248.897, 1343.350
1249.380, 1347.164
1249.862, 1325.872
1250.344, 1313.569
1250.826, 1322.280
1251.308, 1332.072
1251.790, 1329.466
1252.272, 1321.262
1252.754, 1318.703
1253.237, 1320.892
1253.719, 1322.239
1254.201, 1322.872
1254.683, 1324.780
1255.165, 1327.599
1255.647, 1325.394
1256.129, 1317.026
1256.611, 1313.046
1257.094, 1322.769
1257.576, 1334.988
1258.058, 1335.005
1258.540, 1331.958
1259.022, 1340.045
1259.504, 1350.730
1259.986, 1346.428
1260.468, 1332.430
1260.950, 1331.707
1261.432, 1351.527
1261.915, 1364.240
1262.397, 1358.997
1262.879, 1348.666
1263.361, 1324.712
1263.843, 1310.860
1264.325, 1326.614
1264.807, 1352.366
1265.289, 1368.326
1265.772, 1375.476
##END=



