##NAMES=Tungusite
##RRUFFID=R070757
##IDEAL CHEMISTRY=Ca_14_Fe^2+^_9_Si_24_O_60_(OH)_22_
##LOCALITY=Nizhnyaya Tunguska River Basin (Lower Tunguska River), Evenkia (Evenkiyskiy Autonomous okrug), Krasnoyarsk Territory (Krasnoyarsk Kray; Krasnoyarskii Krai), Eastern-Siberian Region, Russia
##OWNER=RRUFF
##SOURCE=Michael Scott
##DESCRIPTION=Dark green micaceous flakes
##STATUS=The identification of this mineral has been confirmed by single-crystal X-ray diffraction.
##URL=rruff.info/R070757
87.96063, 3939.804
88.44275, 4030.272
88.92487, 4122.341
89.40698, 4219.156
89.88910, 4323.226
90.37122, 4429.151
90.85333, 4541.188
91.33545, 4657.900
91.81757, 4766.483
92.29968, 4842.907
92.78180, 4858.334
93.26392, 4870.062
93.74603, 4837.913
94.22815, 4784.866
94.71027, 4747.569
95.19238, 4731.043
95.67450, 4724.568
96.15662, 4696.164
96.63873, 4629.044
97.12085, 4561.962
97.60297, 4513.451
98.08508, 4482.514
98.56720, 4468.844
99.04932, 4491.752
99.53143, 4528.997
100.0135, 4540.696
100.4957, 4501.579
100.9778, 4432.628
101.4599, 4377.630
101.9420, 4337.253
102.4241, 4309.832
102.9063, 4289.832
103.3884, 4278.151
103.8705, 4277.530
104.3526, 4287.785
104.8347, 4307.676
105.3168, 4348.092
105.7990, 4438.012
106.2811, 4527.077
106.7632, 4598.012
107.2453, 4646.364
107.7274, 4673.951
108.2095, 4681.148
108.6917, 4649.811
109.1738, 4627.007
109.6559, 4623.496
110.1380, 4623.347
110.6201, 4612.783
111.1022, 4585.914
111.5844, 4545.114
112.0665, 4498.371
112.5486, 4444.541
113.0307, 4386.918
113.5128, 4321.830
113.9949, 4253.076
114.4771, 4187.767
114.9592, 4131.104
115.4413, 4083.028
115.9234, 4037.967
116.4055, 3994.307
116.8876, 3954.357
117.3698, 3920.899
117.8519, 3894.253
118.3340, 3871.151
118.8161, 3849.454
119.2982, 3829.309
119.7803, 3811.913
120.2624, 3793.305
120.7446, 3777.849
121.2267, 3776.312
121.7088, 3792.394
122.1909, 3820.119
122.6730, 3867.688
123.1551, 3928.092
123.6373, 3966.390
124.1194, 3938.600
124.6015, 3837.397
125.0836, 3771.974
125.5657, 3800.951
126.0478, 3839.572
126.5300, 3845.793
127.0121, 3812.794
127.4942, 3764.431
127.9763, 3735.730
128.4584, 3735.604
128.9406, 3739.710
129.4227, 3752.635
129.9048, 3764.846
130.3869, 3768.806
130.8690, 3761.163
131.3511, 3743.133
131.8333, 3718.878
132.3154, 3665.668
132.7975, 3631.100
133.2796, 3636.589
133.7617, 3663.630
134.2438, 3679.529
134.7260, 3660.956
135.2081, 3611.119
135.6902, 3589.055
136.1723, 3612.099
136.6544, 3640.857
137.1365, 3655.313
137.6187, 3656.296
138.1008, 3658.445
138.5829, 3676.845
139.0650, 3711.010
139.5471, 3732.498
140.0292, 3734.206
140.5114, 3725.032
140.9935, 3709.661
141.4756, 3685.293
141.9577, 3669.181
142.4398, 3687.108
142.9219, 3731.790
143.4041, 3772.956
143.8862, 3798.111
144.3683, 3810.024
144.8504, 3816.900
145.3325, 3814.940
145.8146, 3814.284
146.2968, 3823.774
146.7789, 3842.982
147.2610, 3863.598
147.7431, 3881.189
148.2252, 3896.537
148.7073, 3901.871
149.1895, 3887.707
149.6716, 3867.461
150.1537, 3846.579
150.6358, 3826.470
151.1179, 3807.331
151.6000, 3789.689
152.0821, 3773.935
152.5643, 3758.888
153.0464, 3735.578
153.5285, 3716.645
154.0106, 3717.074
154.4927, 3743.477
154.9748, 3784.381
155.4570, 3804.334
155.9391, 3779.861
156.4212, 3759.258
156.9033, 3748.105
157.3854, 3743.573
157.8675, 3741.393
158.3497, 3739.054
158.8318, 3736.742
159.3139, 3736.783
159.7960, 3750.220
160.2781, 3754.748
160.7602, 3735.738
161.2424, 3700.223
161.7245, 3667.591
162.2066, 3651.899
162.6887, 3654.531
163.1708, 3665.223
163.6529, 3705.281
164.1351, 3736.735
164.6172, 3722.308
165.0993, 3662.173
165.5814, 3605.414
166.0635, 3605.497
166.5456, 3661.509
167.0278, 3694.628
167.5099, 3681.480
167.9920, 3647.114
168.4741, 3621.389
168.9562, 3609.211
169.4383, 3602.638
169.9205, 3596.118
170.4026, 3589.406
170.8847, 3578.588
171.3668, 3555.217
171.8489, 3525.870
172.3310, 3513.691
172.8132, 3537.938
173.2953, 3557.102
173.7774, 3531.738
174.2595, 3464.982
174.7416, 3394.918
175.2237, 3347.203
175.7059, 3321.096
176.1880, 3299.460
176.6701, 3288.810
177.1522, 3273.923
177.6343, 3237.584
178.1164, 3179.556
178.5986, 3126.776
179.0807, 3118.977
179.5628, 3173.665
180.0449, 3199.080
180.5270, 3151.606
181.0091, 3090.493
181.4913, 3051.030
181.9734, 3042.956
182.4555, 3052.115
182.9376, 3056.059
183.4197, 3054.846
183.9018, 3047.300
184.3840, 3025.631
184.8661, 3002.707
185.3482, 2990.701
185.8303, 2994.496
186.3124, 3008.049
186.7945, 3015.692
187.2767, 3012.898
187.7588, 3009.084
188.2409, 3002.246
188.7230, 2995.685
189.2051, 2992.739
189.6872, 2995.025
190.1694, 3002.514
190.6515, 3015.471
191.1336, 3050.526
191.6157, 3072.584
192.0978, 3058.768
192.5799, 3028.553
193.0621, 3017.768
193.5442, 3050.279
194.0263, 3120.104
194.5084, 3169.303
194.9905, 3189.307
195.4726, 3202.964
195.9548, 3212.535
196.4369, 3221.298
196.9190, 3238.024
197.4011, 3270.722
197.8832, 3317.860
198.3653, 3356.668
198.8475, 3380.604
199.3296, 3402.422
199.8117, 3423.940
200.2938, 3447.007
200.7759, 3485.043
201.2580, 3559.213
201.7402, 3661.756
202.2223, 3726.854
202.7044, 3726.925
203.1865, 3704.840
203.6686, 3698.426
204.1507, 3710.493
204.6329, 3722.756
205.1150, 3718.746
205.5971, 3702.561
206.0792, 3688.712
206.5613, 3684.896
207.0434, 3682.984
207.5256, 3672.081
208.0077, 3650.914
208.4898, 3623.461
208.9719, 3589.034
209.4540, 3550.396
209.9361, 3513.958
210.4183, 3487.931
210.9004, 3465.048
211.3825, 3426.596
211.8646, 3363.474
212.3467, 3301.553
212.8288, 3263.489
213.3110, 3241.063
213.7931, 3213.721
214.2752, 3165.861
214.7573, 3103.083
215.2394, 3049.535
215.7215, 3006.912
216.2037, 2973.135
216.6858, 2950.312
217.1679, 2934.648
217.6500, 2915.540
218.1321, 2881.918
218.6142, 2835.549
219.0964, 2798.680
219.5785, 2781.523
220.0606, 2763.465
220.5427, 2731.019
221.0248, 2688.457
221.5069, 2649.938
221.9891, 2632.900
222.4712, 2639.156
222.9533, 2625.466
223.4354, 2560.716
223.9175, 2502.633
224.3996, 2475.787
224.8818, 2476.933
225.3639, 2488.131
225.8460, 2495.075
226.3281, 2498.014
226.8102, 2494.482
227.2923, 2474.779
227.7745, 2456.565
228.2566, 2448.839
228.7387, 2450.310
229.2208, 2452.865
229.7029, 2447.056
230.1850, 2429.250
230.6672, 2419.604
231.1493, 2423.644
231.6314, 2430.446
232.1135, 2434.355
232.5956, 2435.653
233.0777, 2438.700
233.5599, 2448.805
234.0420, 2468.517
234.5241, 2486.242
235.0062, 2506.813
235.4883, 2522.146
235.9704, 2522.898
236.4526, 2511.292
236.9347, 2500.294
237.4168, 2505.899
237.8989, 2535.784
238.3810, 2557.297
238.8631, 2562.060
239.3453, 2540.516
239.8274, 2574.948
240.3095, 2596.264
240.7916, 2605.217
241.2737, 2562.186
241.7558, 2588.262
242.2380, 2587.856
242.7201, 2587.191
243.2022, 2625.466
243.6843, 2594.445
244.1664, 2633.844
244.6485, 2646.343
245.1307, 2672.417
245.6128, 2671.834
246.0949, 2680.616
246.5770, 2717.788
247.0591, 2740.584
247.5412, 2740.292
248.0234, 2772.361
248.5055, 2749.023
248.9876, 2775.926
249.4697, 2824.996
249.9518, 2830.411
250.4339, 2867.302
250.9161, 2893.404
251.3982, 2875.889
251.8803, 2870.228
252.3624, 2862.044
252.8445, 2866.644
253.3266, 2887.995
253.8088, 2908.828
254.2909, 2929.535
254.7730, 2949.388
255.2551, 2967.649
255.7372, 2984.229
256.2193, 2999.640
256.7014, 3013.422
257.1836, 3024.376
257.6657, 3042.609
258.1478, 3074.171
258.6299, 3109.020
259.1120, 3137.806
259.5941, 3159.795
260.0763, 3182.803
260.5584, 3215.513
261.0405, 3260.022
261.5226, 3298.766
262.0047, 3327.057
262.4868, 3352.297
262.9690, 3382.891
263.4511, 3419.092
263.9332, 3449.945
264.4153, 3461.610
264.8974, 3452.582
265.3795, 3459.940
265.8617, 3493.954
266.3438, 3538.282
266.8259, 3580.823
267.3080, 3620.508
267.7901, 3660.070
268.2722, 3701.077
268.7544, 3744.195
269.2365, 3789.987
269.7186, 3831.373
270.2007, 3880.362
270.6828, 3948.921
271.1649, 4037.312
271.6471, 4132.167
272.1292, 4225.512
272.6113, 4317.349
273.0934, 4408.628
273.5755, 4501.020
274.0576, 4591.657
274.5398, 4677.999
275.0219, 4759.904
275.5040, 4841.376
275.9861, 4927.530
276.4682, 5015.295
276.9503, 5086.958
277.4325, 5141.124
277.9146, 5180.770
278.3967, 5208.173
278.8788, 5223.276
279.3609, 5223.678
279.8430, 5205.039
280.3252, 5169.547
280.8073, 5132.807
281.2894, 5088.173
281.7715, 5048.049
282.2536, 5031.816
282.7357, 5032.765
283.2179, 5011.722
283.7000, 4942.855
284.1821, 4838.366
284.6642, 4742.163
285.1463, 4663.387
285.6284, 4581.429
286.1106, 4481.280
286.5927, 4366.979
287.0748, 4256.465
287.5569, 4156.146
288.0390, 4065.248
288.5211, 3981.081
289.0033, 3909.305
289.4854, 3834.058
289.9675, 3738.715
290.4496, 3632.210
290.9317, 3544.245
291.4138, 3489.972
291.8960, 3455.783
292.3781, 3412.480
292.8602, 3353.584
293.3423, 3302.712
293.8244, 3267.062
294.3065, 3246.271
294.7887, 3244.047
295.2708, 3267.498
295.7529, 3297.673
296.2350, 3300.232
296.7171, 3274.048
297.1992, 3239.518
297.6814, 3197.458
298.1635, 3152.186
298.6456, 3112.708
299.1277, 3082.662
299.6098, 3053.983
300.0919, 3014.172
300.5741, 2963.250
301.0562, 2909.875
301.5383, 2852.021
302.0204, 2794.435
302.5025, 2743.849
302.9846, 2701.626
303.4668, 2665.780
303.9489, 2635.422
304.4310, 2610.979
304.9131, 2585.671
305.3952, 2555.769
305.8773, 2526.133
306.3595, 2502.848
306.8416, 2486.566
307.3237, 2471.345
307.8058, 2450.022
308.2879, 2422.563
308.7701, 2404.714
309.2522, 2408.479
309.7343, 2414.041
310.2164, 2403.505
310.6985, 2377.242
311.1806, 2350.033
311.6628, 2332.299
312.1449, 2324.318
312.6270, 2318.052
313.1091, 2314.466
313.5912, 2311.662
314.0733, 2310.707
314.5555, 2310.314
315.0376, 2305.223
315.5197, 2291.370
316.0018, 2270.274
316.4839, 2251.420
316.9660, 2235.948
317.4482, 2221.031
317.9303, 2204.773
318.4124, 2188.184
318.8945, 2173.228
319.3766, 2160.705
319.8587, 2150.893
320.3409, 2145.587
320.8230, 2150.648
321.3051, 2151.615
321.7872, 2141.419
322.2693, 2126.251
322.7514, 2115.110
323.2336, 2111.375
323.7157, 2113.010
324.1978, 2116.211
324.6799, 2121.947
325.1620, 2127.549
325.6441, 2130.628
326.1263, 2134.496
326.6084, 2143.760
327.0905, 2159.342
327.5726, 2176.643
328.0547, 2189.504
328.5368, 2195.856
329.0190, 2202.117
329.5011, 2203.228
329.9832, 2207.739
330.4653, 2226.278
330.9474, 2257.591
331.4295, 2286.948
331.9117, 2297.526
332.3938, 2283.263
332.8759, 2285.068
333.3580, 2308.685
333.8401, 2339.662
334.3222, 2373.526
334.8044, 2408.861
335.2865, 2444.945
335.7686, 2481.321
336.2507, 2517.968
336.7328, 2553.518
337.2149, 2584.149
337.6971, 2617.663
338.1792, 2659.484
338.6613, 2705.346
339.1434, 2745.617
339.6255, 2773.956
340.1076, 2796.189
340.5898, 2838.466
341.0719, 2933.983
341.5540, 3007.647
342.0361, 3036.635
342.5182, 3046.215
343.0003, 3064.537
343.4825, 3102.573
343.9646, 3149.392
344.4467, 3181.296
344.9288, 3181.780
345.4109, 3199.856
345.8930, 3255.353
346.3752, 3315.219
346.8573, 3355.891
347.3394, 3372.467
347.8215, 3376.763
348.3036, 3381.451
348.7857, 3385.401
349.2679, 3394.366
349.7500, 3411.867
350.2321, 3431.792
350.7142, 3451.641
351.1963, 3471.419
351.6784, 3492.329
352.1606, 3515.435
352.6427, 3540.643
353.1248, 3566.946
353.6069, 3598.049
354.0890, 3625.262
354.5711, 3646.116
355.0533, 3660.926
355.5354, 3672.080
356.0175, 3686.039
356.4996, 3694.043
356.9817, 3666.273
357.4638, 3586.123
357.9460, 3506.780
358.4281, 3459.476
358.9102, 3421.179
359.3923, 3363.822
359.8744, 3274.496
360.3565, 3173.104
360.8387, 3086.143
361.3208, 3014.506
361.8029, 2946.364
362.2850, 2882.306
362.7671, 2817.009
363.2492, 2742.161
363.7314, 2654.494
364.2135, 2575.768
364.6956, 2527.474
365.1777, 2504.424
365.6598, 2476.820
366.1419, 2436.741
366.6241, 2392.951
367.1062, 2352.444
367.5883, 2315.197
368.0704, 2284.343
368.5525, 2267.532
369.0346, 2256.424
369.5168, 2234.345
369.9989, 2197.282
370.4810, 2161.786
370.9631, 2141.764
371.4452, 2135.627
371.9273, 2134.051
372.4095, 2147.321
372.8916, 2156.297
373.3737, 2138.671
373.8558, 2097.645
374.3379, 2062.707
374.8200, 2053.326
375.3022, 2062.969
375.7843, 2061.894
376.2664, 2042.625
376.7485, 2022.585
377.2306, 2007.646
377.7127, 1996.353
378.1949, 1985.356
378.6770, 1972.976
379.1591, 1962.064
379.6412, 1959.060
380.1233, 1968.290
380.6054, 1977.557
381.0876, 1986.283
381.5697, 1994.646
382.0518, 2004.243
382.5339, 2014.803
383.0160, 2021.938
383.4981, 2019.582
383.9803, 2003.975
384.4624, 1995.090
384.9445, 1995.852
385.4266, 1999.323
385.9087, 2002.217
386.3908, 2004.840
386.8730, 2008.903
387.3551, 2015.570
387.8372, 2024.863
388.3193, 2036.850
388.8014, 2056.531
389.2835, 2073.159
389.7657, 2084.006
390.2478, 2091.045
390.7299, 2096.439
391.2120, 2101.073
391.6941, 2105.366
392.1762, 2110.377
392.6584, 2116.726
393.1405, 2122.109
393.6226, 2124.608
394.1047, 2127.197
394.5868, 2133.256
395.0689, 2142.757
395.5511, 2150.676
396.0332, 2151.468
396.5153, 2145.091
396.9974, 2137.522
397.4795, 2124.186
397.9616, 2116.073
398.4438, 2122.913
398.9259, 2139.999
399.4080, 2153.733
399.8901, 2155.536
400.3722, 2149.591
400.8543, 2146.353
401.3365, 2147.808
401.8186, 2143.974
402.3007, 2119.796
402.7828, 2089.580
403.2649, 2076.678
403.7470, 2092.521
404.2292, 2113.991
404.7113, 2125.420
405.1934, 2126.958
405.6755, 2117.433
406.1576, 2092.262
406.6397, 2061.177
407.1219, 2040.367
407.6040, 2031.237
408.0861, 2022.799
408.5682, 2009.159
409.0503, 1995.317
409.5324, 1989.149
410.0146, 1992.052
410.4967, 1998.030
410.9788, 2001.473
411.4609, 2001.992
411.9430, 2002.254
412.4251, 2007.863
412.9073, 2008.234
413.3894, 1989.747
413.8715, 1959.846
414.3536, 1940.695
414.8357, 1946.738
415.3178, 1922.913
415.8000, 1948.012
416.2821, 1963.127
416.7642, 1968.793
417.2463, 1936.712
417.7284, 1953.374
418.2105, 1950.501
418.6927, 1946.828
419.1748, 1970.350
419.6569, 1943.760
420.1390, 1966.850
420.6211, 1970.109
421.1032, 1982.444
421.5854, 1975.125
422.0675, 1973.877
422.5496, 1992.289
423.0317, 1999.814
423.5138, 1990.233
423.9959, 2003.145
424.4781, 1975.868
424.9602, 1983.858
425.4423, 2007.063
425.9244, 1998.470
426.4065, 2011.741
426.8886, 2016.685
427.3708, 1983.785
427.8529, 2016.700
428.3350, 2021.152
428.8171, 1996.379
429.2992, 2027.039
429.7813, 2006.295
430.2635, 2003.899
430.7456, 2015.311
431.2277, 2012.328
431.7098, 2032.040
432.1919, 2029.889
432.6740, 2025.785
433.1562, 2030.205
433.6383, 2010.469
434.1204, 2035.547
434.6025, 2030.014
435.0846, 2039.696
435.5667, 2052.828
436.0489, 2039.552
436.5310, 2054.233
437.0131, 2025.557
437.4952, 2033.160
437.9773, 2036.856
438.4594, 2058.750
438.9416, 2075.256
439.4237, 2088.378
439.9058, 2097.987
440.3879, 2104.327
440.8700, 2105.102
441.3521, 2104.005
441.8343, 2105.253
442.3164, 2109.106
442.7985, 2111.769
443.2806, 2109.015
443.7627, 2100.435
444.2448, 2089.383
444.7270, 2065.682
445.2091, 2049.915
445.6912, 2053.840
446.1733, 2070.041
446.6554, 2084.387
447.1375, 2088.805
447.6197, 2087.899
448.1018, 2093.822
448.5839, 2109.492
449.0660, 2123.815
449.5481, 2131.673
450.0302, 2138.490
450.5124, 2150.705
450.9945, 2169.125
451.4766, 2182.826
451.9587, 2175.706
452.4408, 2154.359
452.9229, 2153.057
453.4051, 2184.759
453.8872, 2216.911
454.3693, 2213.995
454.8514, 2188.070
455.3335, 2174.794
455.8156, 2192.695
456.2978, 2218.326
456.7799, 2233.551
457.2620, 2238.670
457.7441, 2234.436
458.2262, 2217.463
458.7083, 2196.106
459.1904, 2194.951
459.6725, 2226.663
460.1547, 2250.935
460.6368, 2252.776
461.1189, 2248.049
461.6010, 2255.626
462.0831, 2277.886
462.5652, 2300.834
463.0474, 2309.114
463.5295, 2300.290
464.0116, 2297.934
464.4937, 2312.468
464.9758, 2321.967
465.4579, 2317.247
465.9401, 2303.135
466.4222, 2287.337
466.9043, 2273.591
467.3864, 2261.848
467.8685, 2251.538
468.3506, 2241.020
468.8328, 2236.619
469.3149, 2248.915
469.7970, 2260.791
470.2791, 2258.780
470.7612, 2243.140
471.2433, 2228.106
471.7255, 2223.650
472.2076, 2228.308
472.6897, 2237.785
473.1718, 2253.284
473.6539, 2269.395
474.1360, 2281.542
474.6182, 2291.973
475.1003, 2305.887
475.5824, 2327.616
476.0645, 2348.445
476.5466, 2359.405
477.0287, 2364.276
477.5109, 2375.811
477.9930, 2399.552
478.4751, 2427.010
478.9572, 2443.180
479.4393, 2440.624
479.9214, 2451.461
480.4036, 2487.076
480.8857, 2528.851
481.3678, 2567.784
481.8499, 2601.266
482.3320, 2625.572
482.8141, 2637.151
483.2963, 2638.087
483.7784, 2641.435
484.2605, 2630.209
484.7426, 2645.977
485.2247, 2719.831
485.7068, 2807.804
486.1890, 2866.500
486.6711, 2885.374
487.1532, 2888.175
487.6353, 2897.991
488.1174, 2914.727
488.5995, 2943.307
489.0817, 2993.191
489.5638, 3042.903
490.0459, 3082.404
490.5280, 3113.005
491.0101, 3137.878
491.4922, 3153.294
491.9744, 3168.322
492.4565, 3194.328
492.9386, 3230.835
493.4207, 3271.844
493.9028, 3319.585
494.3849, 3365.255
494.8671, 3389.066
495.3492, 3384.649
495.8313, 3391.530
496.3134, 3438.323
496.7955, 3488.906
497.2776, 3503.345
497.7598, 3480.751
498.2419, 3447.783
498.7240, 3424.268
499.2061, 3409.916
499.6882, 3400.006
500.1703, 3420.576
500.6525, 3414.154
501.1346, 3357.409
501.6167, 3275.310
502.0988, 3192.395
502.5809, 3117.058
503.0630, 3047.083
503.5452, 2980.592
504.0273, 2919.167
504.5094, 2851.428
504.9915, 2769.603
505.4736, 2690.301
505.9557, 2623.478
506.4379, 2564.949
506.9200, 2504.699
507.4021, 2437.485
507.8842, 2367.836
508.3663, 2300.323
508.8484, 2235.336
509.3306, 2178.108
509.8127, 2133.454
510.2948, 2093.996
510.7769, 2046.194
511.2590, 1987.548
511.7411, 1938.615
512.2233, 1913.706
512.7054, 1895.255
513.1875, 1864.042
513.6696, 1820.477
514.1517, 1779.001
514.6339, 1749.687
515.1160, 1731.014
515.5981, 1714.046
516.0802, 1705.398
516.5623, 1690.023
517.0444, 1647.687
517.5266, 1608.562
518.0087, 1613.858
518.4908, 1665.639
518.9729, 1715.065
519.4550, 1701.022
519.9371, 1621.405
520.4193, 1565.361
520.9014, 1544.884
521.3835, 1531.563
521.8656, 1512.127
522.3477, 1491.044
522.8298, 1475.489
523.3120, 1467.998
523.7941, 1465.544
524.2762, 1467.536
524.7583, 1472.772
525.2404, 1475.000
525.7225, 1472.562
526.2047, 1466.904
526.6868, 1459.703
527.1689, 1451.065
527.6510, 1439.050
528.1331, 1420.291
528.6152, 1400.878
529.0974, 1382.436
529.5795, 1366.509
530.0616, 1356.490
530.5437, 1354.262
531.0258, 1357.904
531.5079, 1363.418
531.9901, 1376.374
532.4722, 1380.630
532.9543, 1366.533
533.4364, 1352.664
533.9185, 1352.558
534.4006, 1364.008
534.8828, 1375.163
535.3649, 1377.673
535.8470, 1373.627
536.3291, 1368.344
536.8112, 1360.533
537.2933, 1356.524
537.7755, 1362.972
538.2576, 1371.883
538.7397, 1372.538
539.2218, 1362.657
539.7039, 1355.977
540.1860, 1362.167
540.6682, 1374.693
541.1503, 1384.217
541.6324, 1389.573
542.1145, 1391.866
542.5966, 1391.754
543.0787, 1389.282
543.5609, 1384.662
544.0430, 1349.689
544.5251, 1375.240
545.0072, 1390.797
545.4893, 1396.898
545.9714, 1365.218
546.4536, 1382.325
546.9357, 1379.880
547.4178, 1376.633
547.8999, 1400.605
548.3820, 1374.421
548.8641, 1397.961
549.3463, 1421.520
549.8284, 1432.345
550.3105, 1433.333
550.7926, 1436.275
551.2747, 1444.737
551.7568, 1454.642
552.2390, 1462.709
552.7211, 1469.150
553.2032, 1472.812
553.6853, 1471.441
554.1674, 1475.316
554.6495, 1497.438
555.1317, 1537.507
555.6138, 1566.988
556.0959, 1578.184
556.5780, 1586.353
557.0601, 1591.032
557.5422, 1599.258
558.0244, 1624.509
558.5065, 1671.163
558.9886, 1728.335
559.4707, 1778.571
559.9528, 1817.581
560.4349, 1866.218
560.9171, 1931.130
561.3992, 1999.236
561.8813, 2067.101
562.3634, 2134.943
562.8455, 2203.911
563.3276, 2273.583
563.8098, 2346.459
564.2919, 2425.453
564.7740, 2510.559
565.2561, 2601.430
565.7382, 2698.251
566.2203, 2801.146
566.7025, 2904.341
567.1846, 3008.885
567.6667, 3143.645
568.1488, 3346.795
568.6309, 3550.887
569.1130, 3710.371
569.5952, 3837.017
570.0773, 3960.801
570.5594, 4093.754
571.0415, 4231.033
571.5236, 4363.506
572.0057, 4498.925
572.4879, 4609.142
572.9700, 4699.372
573.4521, 4761.019
573.9342, 4791.901
574.4163, 4790.590
574.8984, 4753.761
575.3806, 4677.167
575.8627, 4571.679
576.3448, 4451.483
576.8269, 4316.776
577.3090, 4165.236
577.7911, 3987.776
578.2733, 3807.629
578.7554, 3647.907
579.2375, 3506.647
579.7196, 3374.320
580.2017, 3247.470
580.6838, 3130.036
581.1660, 3019.759
581.6481, 2920.516
582.1302, 2839.478
582.6123, 2780.071
583.0944, 2740.026
583.5765, 2716.855
584.0587, 2715.266
584.5408, 2717.755
585.0229, 2724.388
585.5050, 2734.784
585.9871, 2746.348
586.4692, 2761.983
586.9514, 2787.101
587.4335, 2824.322
587.9156, 2871.551
588.3977, 2924.551
588.8798, 2983.900
589.3619, 3058.070
589.8441, 3154.674
590.3262, 3256.280
590.8083, 3337.794
591.2904, 3404.038
591.7725, 3496.906
592.2546, 3638.068
592.7368, 3791.111
593.2189, 3935.819
593.7010, 4076.673
594.1831, 4219.270
594.6652, 4365.677
595.1473, 4520.663
595.6295, 4694.146
596.1116, 4895.359
596.5937, 5069.435
597.0758, 5182.770
597.5579, 5302.625
598.0400, 5459.623
598.5222, 5633.044
599.0043, 5793.502
599.4864, 5930.367
599.9685, 6046.781
600.4506, 6153.216
600.9327, 6244.017
601.4149, 6284.889
601.8970, 6262.464
602.3791, 6220.579
602.8612, 6198.246
603.3433, 6190.567
603.8254, 6152.671
604.3076, 6086.910
604.7897, 5988.758
605.2718, 5842.442
605.7539, 5669.706
606.2360, 5492.248
606.7181, 5317.886
607.2003, 5148.807
607.6824, 4989.498
608.1645, 4839.685
608.6466, 4686.847
609.1287, 4525.603
609.6108, 4369.408
610.0930, 4221.923
610.5751, 4082.083
611.0572, 3949.789
611.5393, 3825.801
612.0214, 3701.610
612.5035, 3566.531
612.9857, 3429.944
613.4678, 3306.430
613.9499, 3197.214
614.4320, 3103.191
614.9141, 3025.891
615.3962, 2962.184
615.8784, 2899.031
616.3605, 2840.104
616.8426, 2776.934
617.3247, 2696.230
617.8068, 2621.009
618.2889, 2571.764
618.7711, 2545.391
619.2532, 2524.939
619.7353, 2500.396
620.2174, 2471.588
620.6995, 2435.619
621.1816, 2390.056
621.6638, 2352.456
622.1459, 2333.715
622.6280, 2318.050
623.1101, 2284.649
623.5922, 2235.227
624.0743, 2198.258
624.5565, 2189.823
625.0386, 2189.225
625.5207, 2182.699
626.0028, 2170.806
626.4849, 2155.862
626.9670, 2138.813
627.4492, 2121.464
627.9313, 2107.231
628.4134, 2097.367
628.8955, 2085.620
629.3776, 2065.349
629.8597, 2050.266
630.3419, 2048.204
630.8240, 2053.183
631.3061, 2056.668
631.7882, 2056.259
632.2703, 2051.834
632.7524, 2043.453
633.2346, 2030.964
633.7167, 2011.948
634.1988, 1985.048
634.6809, 1959.877
635.1630, 1943.417
635.6451, 1934.830
636.1273, 1928.811
636.6094, 1921.954
637.0915, 1921.742
637.5736, 1952.997
638.0557, 1975.877
638.5378, 1941.978
639.0200, 1856.425
639.5021, 1769.873
639.9842, 1720.971
640.4663, 1701.586
640.9484, 1687.107
641.4305, 1679.104
641.9127, 1669.045
642.3948, 1653.165
642.8769, 1635.467
643.3590, 1619.981
643.8411, 1606.675
644.3232, 1594.667
644.8054, 1589.762
645.2875, 1580.796
645.7696, 1552.395
646.2517, 1513.055
646.7338, 1486.692
647.2159, 1482.784
647.6981, 1485.719
648.1802, 1470.034
648.6623, 1429.404
649.1444, 1403.001
649.6265, 1398.551
650.1086, 1400.084
650.5908, 1409.617
651.0729, 1418.922
651.5550, 1415.099
652.0371, 1393.293
652.5192, 1369.179
653.0013, 1352.135
653.4835, 1342.142
653.9656, 1341.991
654.4477, 1351.747
654.9298, 1359.461
655.4119, 1357.287
655.8940, 1347.166
656.3762, 1336.560
656.8583, 1325.719
657.3404, 1313.962
657.8225, 1297.459
658.3046, 1283.189
658.7867, 1277.163
659.2689, 1277.693
659.7510, 1278.908
660.2331, 1278.033
660.7152, 1274.798
661.1973, 1268.681
661.6794, 1259.678
662.1616, 1247.251
662.6437, 1228.742
663.1258, 1212.816
663.6079, 1210.687
664.0900, 1221.382
664.5721, 1223.301
665.0543, 1206.895
665.5364, 1192.220
666.0185, 1189.328
666.5006, 1190.978
666.9827, 1187.552
667.4648, 1177.534
667.9470, 1166.543
668.4291, 1159.669
668.9112, 1156.395
669.3933, 1154.204
669.8754, 1154.250
670.3575, 1151.530
670.8397, 1143.803
671.3218, 1132.808
671.8039, 1117.853
672.2860, 1098.589
672.7681, 1088.623
673.2502, 1097.671
673.7324, 1112.423
674.2145, 1128.214
674.6966, 1140.747
675.1787, 1138.977
675.6608, 1118.827
676.1429, 1092.837
676.6251, 1078.888
677.1072, 1077.762
677.5893, 1083.103
678.0714, 1101.235
678.5535, 1116.412
679.0356, 1122.607
679.5178, 1122.653
679.9999, 1118.331
680.4820, 1108.871
680.9641, 1102.899
681.4462, 1109.374
681.9283, 1119.905
682.4105, 1122.636
682.8926, 1117.831
683.3747, 1112.600
683.8568, 1110.818
684.3389, 1110.786
684.8210, 1108.076
685.3032, 1099.355
685.7853, 1095.886
686.2674, 1108.171
686.7495, 1115.088
687.2316, 1098.437
687.7137, 1072.178
688.1959, 1064.711
688.6780, 1089.394
689.1601, 1117.727
689.6422, 1123.837
690.1243, 1116.304
690.6064, 1112.775
691.0886, 1115.706
691.5707, 1124.767
692.0528, 1141.518
692.5349, 1162.207
693.0170, 1171.613
693.4991, 1156.848
693.9813, 1151.674
694.4634, 1160.080
694.9455, 1174.917
695.4276, 1196.172
695.9097, 1220.193
696.3918, 1238.201
696.8740, 1244.141
697.3561, 1247.344
697.8382, 1260.091
698.3203, 1279.310
698.8024, 1291.948
699.2845, 1294.737
699.7667, 1300.962
700.2488, 1323.133
700.7309, 1358.583
701.2130, 1386.050
701.6951, 1407.735
702.1772, 1417.947
702.6594, 1406.520
703.1415, 1391.201
703.6236, 1382.178
704.1057, 1381.372
704.5878, 1390.244
705.0699, 1416.144
705.5521, 1441.676
706.0342, 1437.775
706.5163, 1409.193
706.9984, 1386.227
707.4805, 1376.945
707.9626, 1366.969
708.4448, 1341.594
708.9269, 1301.671
709.4090, 1269.538
709.8911, 1247.300
710.3732, 1229.596
710.8553, 1218.334
711.3375, 1209.375
711.8196, 1200.155
712.3017, 1189.947
712.7838, 1178.043
713.2659, 1163.383
713.7480, 1147.622
714.2302, 1132.980
714.7123, 1119.540
715.1944, 1107.810
715.6765, 1097.807
716.1586, 1090.200
716.6407, 1085.567
717.1229, 1083.933
717.6050, 1085.001
718.0871, 1100.911
718.5692, 1103.607
719.0513, 1075.622
719.5334, 1041.090
720.0156, 1020.412
720.4977, 1015.408
720.9798, 1017.806
721.4619, 1025.399
721.9440, 1034.070
722.4261, 1037.389
722.9083, 1035.605
723.3904, 1029.931
723.8725, 1020.112
724.3546, 1009.100
724.8367, 999.1499
725.3188, 990.2550
725.8010, 986.5006
726.2831, 990.3683
726.7652, 995.9758
727.2473, 1007.365
727.7294, 1016.598
728.2115, 1015.645
728.6937, 1005.074
729.1758, 991.8596
729.6579, 977.0421
730.1400, 965.2327
730.6221, 963.8566
731.1042, 971.7237
731.5864, 984.5592
732.0685, 1002.163
732.5506, 1018.017
733.0327, 1026.186
733.5148, 1026.702
733.9969, 1020.356
734.4791, 994.4269
734.9612, 978.6057
735.4433, 985.5238
735.9254, 996.6335
736.4075, 996.6149
736.8896, 986.2192
737.3718, 976.3195
737.8539, 972.1486
738.3360, 971.4363
738.8181, 972.6953
739.3002, 975.2697
739.7823, 977.7419
740.2645, 979.7960
740.7466, 978.6636
741.2287, 970.3746
741.7108, 956.7794
742.1929, 954.9194
742.6750, 974.4725
743.1572, 989.1721
743.6393, 996.5865
744.1214, 997.8539
744.6035, 988.0697
745.0856, 971.8895
745.5677, 965.5862
746.0499, 981.8436
746.5320, 1000.205
747.0141, 1003.498
747.4962, 996.9229
747.9783, 989.3215
748.4604, 982.5592
748.9426, 976.8976
749.4247, 972.6536
749.9068, 969.3890
750.3889, 963.9349
750.8710, 951.0376
751.3531, 951.2910
751.8353, 980.9500
752.3174, 1009.823
752.7995, 1018.147
753.2816, 1011.407
753.7637, 1004.393
754.2458, 997.2891
754.7280, 995.7090
755.2101, 1006.711
755.6922, 1022.337
756.1743, 1033.604
756.6564, 1039.704
757.1385, 1043.001
757.6207, 1044.677
758.1028, 1045.829
758.5849, 1049.396
759.0670, 1055.861
759.5491, 1059.229
760.0313, 1056.453
760.5134, 1055.601
760.9955, 1064.905
761.4776, 1079.123
761.9597, 1083.782
762.4418, 1070.641
762.9240, 1066.385
763.4061, 1084.520
763.8882, 1107.211
764.3703, 1121.783
764.8524, 1129.704
765.3345, 1136.298
765.8167, 1143.732
766.2988, 1154.440
766.7809, 1175.297
767.2630, 1203.219
767.7451, 1219.001
768.2272, 1220.265
768.7094, 1220.009
769.1915, 1224.228
769.6736, 1231.366
770.1557, 1238.345
770.6378, 1244.659
771.1199, 1252.482
771.6021, 1259.659
772.0842, 1270.706
772.5663, 1292.718
773.0484, 1317.241
773.5305, 1332.691
774.0126, 1336.606
774.4948, 1336.479
774.9769, 1338.058
775.4590, 1339.010
775.9411, 1334.681
776.4232, 1325.940
776.9053, 1318.095
777.3875, 1313.268
777.8696, 1307.346
778.3517, 1294.131
778.8338, 1273.336
779.3159, 1260.774
779.7980, 1265.084
780.2802, 1263.348
780.7623, 1245.304
781.2444, 1222.836
781.7265, 1205.306
782.2086, 1192.630
782.6907, 1179.501
783.1729, 1163.588
783.6550, 1147.253
784.1371, 1128.447
784.6192, 1111.655
785.1013, 1107.177
785.5834, 1114.384
786.0656, 1118.009
786.5477, 1104.735
787.0298, 1081.983
787.5119, 1073.635
787.9940, 1082.028
788.4761, 1080.410
788.9583, 1060.412
789.4404, 1037.889
789.9225, 1023.474
790.4046, 1016.732
790.8867, 1014.686
791.3688, 1022.782
791.8510, 1026.803
792.3331, 1023.902
792.8152, 1016.916
793.2973, 1004.309
793.7794, 989.7770
794.2615, 981.4020
794.7437, 983.2827
795.2258, 986.7426
795.7079, 981.8679
796.1900, 971.7383
796.6721, 963.9750
797.1542, 959.0771
797.6364, 955.0863
798.1185, 950.8903
798.6006, 947.6423
799.0827, 948.0748
799.5648, 954.0403
800.0469, 954.8823
800.5291, 945.5547
801.0112, 937.9665
801.4933, 938.7041
801.9754, 941.3224
802.4575, 937.5454
802.9396, 926.5958
803.4218, 918.7903
803.9039, 919.4597
804.3860, 923.2055
804.8681, 928.0425
805.3502, 932.4546
805.8323, 933.9749
806.3145, 932.1633
806.7966, 928.3394
807.2787, 922.9999
807.7608, 917.2239
808.2429, 914.9182
808.7250, 916.3021
809.2072, 917.0398
809.6893, 915.5546
810.1714, 915.0508
810.6535, 919.7501
811.1356, 928.2511
811.6177, 930.1328
812.0999, 919.8887
812.5820, 911.2049
813.0641, 903.2663
813.5462, 898.9333
814.0283, 903.4061
814.5104, 912.5274
814.9926, 916.5806
815.4747, 911.2536
815.9568, 904.0670
816.4389, 899.6423
816.9210, 897.9963
817.4031, 901.9091
817.8853, 909.4720
818.3674, 909.9766
818.8495, 898.0513
819.3316, 883.0465
819.8137, 880.7910
820.2958, 892.2636
820.7780, 899.9359
821.2601, 903.3250
821.7422, 904.0862
822.2243, 901.4374
822.7064, 897.5390
823.1885, 894.7335
823.6707, 892.9468
824.1528, 893.0858
824.6349, 895.6467
825.1170, 899.6798
825.5991, 906.0969
826.0812, 912.9702
826.5634, 918.8547
827.0455, 923.2406
827.5276, 925.5304
828.0097, 925.3184
828.4918, 922.9269
828.9739, 917.5621
829.4560, 910.3617
829.9381, 905.5824
830.4202, 903.7797
830.9023, 901.3933
831.3845, 895.4639
831.8666, 888.5966
832.3487, 888.9444
832.8308, 900.1046
833.3129, 905.8489
833.7950, 901.5441
834.2772, 897.7452
834.7593, 901.6552
835.2414, 908.4686
835.7235, 910.2087
836.2056, 904.7065
836.6877, 903.6816
837.1699, 915.5208
837.6520, 926.9429
838.1341, 931.0686
838.6162, 929.0279
839.0983, 918.9111
839.5804, 902.6701
840.0626, 894.9263
840.5447, 915.1563
841.0268, 945.1124
841.5089, 947.6782
841.9910, 928.2928
842.4731, 916.1147
842.9553, 918.2401
843.4374, 918.2795
843.9195, 899.8338
844.4016, 870.2317
844.8837, 865.0381
845.3658, 897.5603
845.8480, 918.1311
846.3301, 913.8441
846.8122, 907.2258
847.2943, 913.6639
847.7764, 926.2535
848.2585, 931.2731
848.7407, 925.3698
849.2228, 919.0695
849.7049, 914.6721
850.1870, 911.3422
850.6691, 909.3195
851.1512, 907.6844
851.6334, 903.7433
852.1155, 897.2543
852.5976, 893.9893
853.0797, 903.2212
853.5618, 916.9451
854.0439, 918.0414
854.5261, 909.3665
855.0082, 906.3833
855.4903, 913.3409
855.9724, 918.1851
856.4545, 907.9876
856.9366, 913.4905
857.4188, 916.7141
857.9009, 908.9822
858.3830, 922.5031
858.8651, 914.7231
859.3472, 904.3847
859.8293, 904.7634
860.3115, 911.5808
860.7936, 915.0850
861.2757, 916.3182
861.7578, 910.8450
862.2399, 885.5936
862.7220, 865.8689
863.2042, 871.0390
863.6863, 890.3893
864.1684, 908.7955
864.6505, 921.6531
865.1326, 924.7924
865.6147, 904.3408
866.0969, 879.8809
866.5790, 884.0144
867.0611, 906.8686
867.5432, 916.5401
868.0253, 905.9157
868.5074, 892.4019
868.9896, 891.3108
869.4717, 887.3916
869.9538, 886.8755
870.4359, 894.3071
870.9180, 895.6509
871.4001, 909.9725
871.8823, 922.7812
872.3644, 924.3639
872.8465, 917.8536
873.3286, 911.4329
873.8107, 903.1881
874.2928, 899.3432
874.7750, 904.0267
875.2571, 908.4872
875.7392, 909.1549
876.2213, 907.5745
876.7034, 905.5059
877.1855, 903.3125
877.6677, 901.6141
878.1498, 900.6746
878.6319, 900.3566
879.1140, 901.7672
879.5961, 903.1977
880.0782, 901.1053
880.5604, 895.6426
881.0425, 890.1107
881.5246, 885.9384
882.0067, 885.6875
882.4888, 898.8188
882.9709, 921.7646
883.4531, 929.9223
883.9352, 920.0092
884.4173, 904.9700
884.8994, 890.0864
885.3815, 878.5094
885.8636, 876.7556
886.3458, 886.5931
886.8279, 896.7735
887.3100, 911.5695
887.7921, 919.3608
888.2742, 908.9146
888.7563, 895.6038
889.2385, 897.3224
889.7206, 912.4863
890.2027, 919.2260
890.6848, 908.9427
891.1669, 897.0552
891.6490, 879.5470
892.1312, 869.5249
892.6133, 887.0196
893.0954, 921.4552
893.5775, 941.4171
894.0596, 932.0953
894.5417, 918.0082
895.0239, 923.9661
895.5060, 935.9860
895.9881, 929.4944
896.4702, 908.8695
896.9523, 894.1921
897.4344, 892.5384
897.9166, 896.6442
898.3987, 898.1353
898.8808, 898.6667
899.3629, 908.6484
899.8450, 928.9055
900.3271, 938.9714
900.8093, 932.4720
901.2914, 921.3122
901.7735, 914.0373
902.2556, 910.5189
902.7377, 910.5674
903.2198, 917.4716
903.7020, 921.0648
904.1841, 917.1653
904.6662, 914.6318
905.1483, 920.8842
905.6304, 928.9849
906.1125, 927.5804
906.5947, 914.5577
907.0768, 905.1539
907.5589, 904.2851
908.0410, 906.2978
908.5231, 910.6843
909.0052, 915.0081
909.4874, 916.1240
909.9695, 914.3142
910.4516, 912.5081
910.9337, 911.8075
911.4158, 912.7236
911.8979, 917.7737
912.3801, 923.8810
912.8622, 925.2683
913.3443, 922.1433
913.8264, 917.9150
914.3085, 914.1509
914.7906, 911.1479
915.2728, 907.6444
915.7549, 904.8618
916.2370, 914.4890
916.7191, 937.3539
917.2012, 950.1546
917.6833, 944.7130
918.1655, 932.5509
918.6476, 923.6324
919.1297, 918.1430
919.6118, 917.7767
920.0939, 924.2524
920.5760, 931.9999
921.0582, 944.5239
921.5403, 953.1301
922.0224, 948.5771
922.5045, 938.4742
922.9866, 937.4613
923.4688, 949.8049
923.9509, 954.2652
924.4330, 941.3142
924.9151, 927.7089
925.3972, 917.8258
925.8793, 912.8212
926.3615, 914.8262
926.8436, 922.9352
927.3257, 932.5781
927.8078, 946.1801
928.2899, 953.1986
928.7720, 940.0059
929.2542, 919.6093
929.7363, 906.6625
930.2184, 902.2979
930.7005, 904.9099
931.1826, 913.7664
931.6647, 923.1346
932.1469, 924.3407
932.6290, 921.7904
933.1111, 929.5468
933.5932, 945.4850
934.0753, 951.9174
934.5574, 943.9526
935.0396, 943.9766
935.5217, 976.6248
936.0038, 963.1390
936.4859, 955.5541
936.9680, 964.4082
937.4501, 929.0673
937.9323, 931.4449
938.4144, 944.1077
938.8965, 955.9520
939.3786, 965.1265
939.8607, 967.8057
940.3428, 962.8200
940.8250, 957.2949
941.3071, 947.3430
941.7892, 942.4841
942.2713, 953.2467
942.7534, 962.7064
943.2355, 950.5694
943.7177, 923.6996
944.1998, 914.3887
944.6819, 940.7811
945.1640, 961.4998
945.6461, 961.4317
946.1282, 956.5920
946.6104, 957.4609
947.0925, 961.4571
947.5746, 961.9936
948.0567, 957.6773
948.5388, 955.3958
949.0209, 961.9629
949.5031, 969.6094
949.9852, 971.6135
950.4673, 969.8617
950.9494, 966.4858
951.4315, 962.5708
951.9136, 960.0029
952.3958, 959.7643
952.8779, 961.9614
953.3600, 969.8829
953.8421, 979.6071
954.3242, 979.1309
954.8063, 969.3150
955.2885, 959.7379
955.7706, 953.9245
956.2527, 952.2311
956.7348, 956.0817
957.2169, 963.6936
957.6990, 966.2582
958.1812, 963.4326
958.6633, 961.9932
959.1454, 963.4282
959.6275, 964.2648
960.1096, 961.3764
960.5917, 957.7377
961.0739, 961.3723
961.5560, 975.9056
962.0381, 980.9275
962.5202, 971.9089
963.0023, 961.7291
963.4844, 950.1318
963.9666, 943.2932
964.4487, 952.9192
964.9308, 976.6144
965.4129, 984.1121
965.8950, 954.9061
966.3771, 939.8231
966.8593, 958.6534
967.3414, 977.2292
967.8235, 970.2953
968.3056, 953.0573
968.7877, 954.2266
969.2698, 979.9009
969.7520, 997.6240
970.2341, 991.3486
970.7162, 980.8477
971.1983, 974.2811
971.6804, 970.3902
972.1625, 967.1921
972.6447, 964.8571
973.1268, 965.3544
973.6089, 970.4573
974.0910, 974.9855
974.5731, 975.1959
975.0552, 972.5242
975.5374, 966.4269
976.0195, 959.3505
976.5016, 955.5121
976.9837, 956.4550
977.4658, 963.6970
977.9479, 981.8230
978.4301, 1002.163
978.9122, 1011.620
979.3943, 1011.633
979.8764, 1003.000
980.3585, 987.7769
980.8406, 977.0752
981.3228, 976.5432
981.8049, 982.5795
982.2870, 991.4681
982.7691, 1002.465
983.2512, 1011.551
983.7333, 1018.775
984.2155, 1022.967
984.6976, 1023.706
985.1797, 1022.409
985.6618, 1019.725
986.1439, 1016.773
986.6260, 1017.195
987.1082, 1021.520
987.5903, 1026.199
988.0724, 1032.304
988.5545, 1034.190
989.0366, 1027.246
989.5187, 1018.989
990.0009, 1018.682
990.4830, 1026.191
990.9651, 1035.943
991.4472, 1049.540
991.9293, 1062.380
992.4114, 1079.641
992.8936, 1088.732
993.3757, 1075.896
993.8578, 1051.989
994.3399, 1039.199
994.8220, 1039.423
995.3041, 1042.274
995.7863, 1048.725
996.2684, 1056.047
996.7505, 1062.609
997.2326, 1070.490
997.7147, 1084.107
998.1968, 1100.749
998.6790, 1111.216
999.1611, 1113.849
999.6432, 1110.147
1000.125, 1090.856
1000.607, 1075.701
1001.090, 1082.297
1001.572, 1096.973
1002.054, 1098.515
1002.536, 1086.100
1003.018, 1079.499
1003.500, 1092.572
1003.982, 1106.011
1004.464, 1106.766
1004.946, 1103.888
1005.429, 1107.066
1005.911, 1114.198
1006.393, 1118.241
1006.875, 1117.106
1007.357, 1115.800
1007.839, 1118.597
1008.321, 1122.391
1008.803, 1121.288
1009.286, 1120.222
1009.768, 1129.320
1010.250, 1147.446
1010.732, 1165.205
1011.214, 1178.187
1011.696, 1185.786
1012.178, 1183.214
1012.660, 1176.985
1013.142, 1177.938
1013.625, 1185.841
1014.107, 1202.433
1014.589, 1225.874
1015.071, 1240.881
1015.553, 1234.548
1016.035, 1218.264
1016.517, 1210.439
1016.999, 1209.737
1017.482, 1211.034
1017.964, 1214.280
1018.446, 1223.592
1018.928, 1240.498
1019.410, 1257.348
1019.892, 1265.370
1020.374, 1268.379
1020.856, 1279.988
1021.338, 1299.440
1021.821, 1316.945
1022.303, 1331.201
1022.785, 1342.492
1023.267, 1350.816
1023.749, 1357.054
1024.231, 1360.834
1024.713, 1363.257
1025.195, 1381.078
1025.677, 1416.795
1026.160, 1443.160
1026.642, 1453.006
1027.124, 1462.063
1027.606, 1481.514
1028.088, 1506.197
1028.570, 1524.529
1029.052, 1536.064
1029.534, 1544.547
1030.017, 1546.747
1030.499, 1557.914
1030.981, 1585.630
1031.463, 1615.505
1031.945, 1633.281
1032.427, 1643.693
1032.909, 1665.583
1033.391, 1703.619
1033.874, 1739.754
1034.356, 1775.635
1034.838, 1805.332
1035.320, 1821.380
1035.802, 1836.916
1036.284, 1868.048
1036.766, 1912.820
1037.248, 1951.697
1037.730, 1989.677
1038.213, 2011.173
1038.695, 1994.160
1039.177, 1990.059
1039.659, 2044.153
1040.141, 2109.076
1040.623, 2112.636
1041.105, 2050.768
1041.587, 2015.963
1042.069, 2033.235
1042.552, 2040.697
1043.034, 2026.465
1043.516, 2007.459
1043.998, 1988.873
1044.480, 1973.252
1044.962, 1966.062
1045.444, 1969.001
1045.926, 1968.827
1046.409, 1962.202
1046.891, 1955.542
1047.373, 1949.640
1047.855, 1944.799
1048.337, 1938.573
1048.819, 1934.129
1049.301, 1938.658
1049.783, 1953.970
1050.266, 1973.470
1050.748, 1996.055
1051.230, 2022.851
1051.712, 2055.866
1052.194, 2092.066
1052.676, 2132.943
1053.158, 2174.557
1053.640, 2203.965
1054.122, 2211.856
1054.604, 2229.747
1055.087, 2271.444
1055.569, 2317.559
1056.051, 2361.869
1056.533, 2403.699
1057.015, 2443.362
1057.497, 2480.520
1057.979, 2513.799
1058.461, 2545.042
1058.944, 2566.784
1059.426, 2569.096
1059.908, 2569.594
1060.390, 2587.823
1060.872, 2604.394
1061.354, 2593.439
1061.836, 2555.283
1062.318, 2510.057
1062.801, 2460.757
1063.283, 2411.753
1063.765, 2362.957
1064.247, 2316.873
1064.729, 2282.646
1065.211, 2248.296
1065.693, 2195.122
1066.175, 2122.167
1066.657, 2046.379
1067.140, 1968.315
1067.622, 1896.583
1068.104, 1836.542
1068.586, 1783.047
1069.068, 1730.764
1069.550, 1682.939
1070.032, 1649.379
1070.514, 1629.884
1070.996, 1602.405
1071.479, 1553.506
1071.961, 1499.942
1072.443, 1439.792
1072.925, 1387.405
1073.407, 1361.091
1073.889, 1349.758
1074.371, 1333.000
1074.853, 1306.550
1075.335, 1276.900
1075.818, 1240.403
1076.300, 1209.641
1076.782, 1194.672
1077.264, 1184.818
1077.746, 1170.432
1078.228, 1153.431
1078.710, 1140.325
1079.192, 1132.578
1079.675, 1122.470
1080.157, 1106.640
1080.639, 1087.522
1081.121, 1061.605
1081.603, 1037.133
1082.085, 1022.617
1082.567, 1015.868
1083.049, 1011.369
1083.531, 1007.838
1084.014, 1004.738
1084.496, 1002.667
1084.978, 999.9476
1085.460, 994.7081
1085.942, 989.2231
1086.424, 986.6263
1086.906, 985.3503
1087.388, 981.1086
1087.870, 972.6559
1088.353, 964.2729
1088.835, 959.6899
1089.317, 953.1184
1089.799, 934.8265
1090.281, 918.7159
1090.763, 924.8870
1091.245, 942.9110
1091.727, 942.8614
1092.210, 914.9694
1092.692, 896.6812
1093.174, 910.2600
1093.656, 926.1773
1094.138, 930.3553
1094.620, 930.2800
1095.102, 934.6811
1095.584, 940.5909
1096.067, 938.4910
1096.549, 925.2137
1097.031, 912.5559
1097.513, 900.4025
1097.995, 894.6073
1098.477, 906.9810
1098.959, 918.9014
1099.441, 908.7369
1099.923, 885.6238
1100.406, 874.7333
1100.888, 882.3617
1101.370, 890.9996
1101.852, 900.3502
1102.334, 904.7172
1102.816, 896.6838
1103.298, 887.5825
1103.780, 889.4857
1104.262, 897.3140
1104.745, 896.0086
1105.227, 880.2466
1105.709, 873.3081
1106.191, 889.2670
1106.673, 901.1462
1107.155, 898.1449
1107.637, 890.5425
1108.119, 882.5686
1108.602, 877.0121
1109.084, 881.6534
1109.566, 901.6961
1110.048, 909.4191
1110.530, 890.1607
1111.012, 875.2139
1111.494, 877.3016
1111.976, 880.5071
1112.458, 869.8596
1112.941, 853.1774
1113.423, 849.8823
1113.905, 864.6974
1114.387, 871.9756
1114.869, 859.8920
1115.351, 858.7006
1115.833, 885.6559
1116.315, 910.1002
1116.797, 909.9020
1117.280, 895.8501
1117.762, 889.6860
1118.244, 893.2613
1118.726, 890.3618
1119.208, 872.9365
1119.690, 866.4689
1120.172, 881.5590
1120.654, 897.6077
1121.137, 903.5615
1121.619, 901.4006
1122.101, 893.1320
1122.583, 878.1903
1123.065, 869.9583
1123.547, 870.2202
1124.029, 870.9888
1124.511, 868.8771
1124.994, 874.4766
1125.476, 897.5417
1125.958, 923.7624
1126.440, 930.1923
1126.922, 918.0151
1127.404, 909.4794
1127.886, 904.8637
1128.368, 902.1943
1128.850, 901.3413
1129.333, 901.4683
1129.815, 901.9652
1130.297, 904.4006
1130.779, 912.2183
1131.261, 909.6688
1131.743, 921.5304
1132.225, 907.8112
1132.707, 898.3481
1133.189, 895.0113
1133.672, 893.9678
1134.154, 893.7378
1134.636, 893.4223
1135.118, 892.5407
1135.600, 890.0358
1136.082, 879.1754
1136.564, 863.1471
1137.046, 863.9943
1137.529, 880.6745
1138.011, 888.2919
1138.493, 878.4670
1138.975, 865.8378
1139.457, 863.6525
1139.939, 866.3772
1140.421, 863.6069
1140.903, 857.9202
1141.385, 854.7976
1141.868, 855.1139
1142.350, 862.2200
1142.832, 875.6310
1143.314, 885.6428
1143.796, 884.9330
1144.278, 879.4252
1144.760, 875.2369
1145.242, 871.4163
1145.724, 864.6214
1146.207, 857.7133
1146.689, 857.2861
1147.171, 863.7946
1147.653, 872.7643
1148.135, 882.5869
1148.617, 891.3260
1149.099, 898.3450
1149.581, 902.6664
1150.064, 901.6178
1150.546, 898.3383
1151.028, 896.9899
1151.510, 897.7849
1151.992, 899.3365
1152.474, 901.6057
1152.956, 902.2448
1153.438, 897.4119
1153.921, 893.8986
1154.403, 898.6949
1154.885, 904.0544
1155.367, 899.9401
1155.849, 890.3871
1156.331, 887.8743
1156.813, 896.0767
1157.295, 900.3395
1157.777, 890.8845
1158.260, 886.3100
1158.742, 898.7905
1159.224, 910.8945
1159.706, 909.1609
1160.188, 899.6710
1160.670, 894.6585
1161.152, 895.0178
1161.634, 891.8613
1162.116, 877.2536
1162.599, 874.2677
1163.081, 895.1509
1163.563, 911.4572
1164.045, 908.5464
1164.527, 895.4667
1165.009, 881.5375
1165.491, 867.9025
1165.973, 866.8881
1166.456, 883.4188
1166.938, 890.1687
1167.420, 883.8389
1167.902, 873.2087
1168.384, 859.4954
1168.866, 828.1622
1169.348, 853.5916
1169.830, 867.3950
1170.313, 870.1942
1170.795, 829.0429
1171.277, 844.6477
1171.759, 837.5071
1172.241, 829.4341
1172.723, 853.0268
1173.205, 818.2687
1173.687, 841.3592
1174.169, 841.3577
1174.651, 851.9247
1175.134, 839.6039
1175.616, 834.3542
1176.098, 851.9971
1176.580, 856.9644
1177.062, 842.0113
1177.544, 853.2504
1178.026, 817.6926
1178.508, 823.1994
1178.991, 846.4219
1179.473, 832.6194
1179.955, 844.2770
1180.437, 846.2378
1180.919, 804.1326
1181.401, 838.6628
1181.883, 840.0505
1182.365, 807.4086
1182.848, 839.3106
1183.330, 811.3600
1183.812, 804.7739
1184.294, 814.2662
1184.776, 800.1053
1185.258, 808.0522
1185.740, 825.5098
1186.222, 828.3049
1186.704, 816.2180
1187.187, 810.9246
1187.669, 820.0597
1188.151, 829.3849
1188.633, 841.7890
1189.115, 848.0761
1189.597, 838.8595
1190.079, 827.4361
1190.561, 826.9745
1191.043, 833.0776
1191.526, 830.4828
1192.008, 814.9720
1192.490, 810.5111
1192.972, 821.5504
1193.454, 830.3306
1193.936, 832.8328
1194.418, 833.3325
1194.900, 834.5775
1195.383, 835.1853
1195.865, 832.6601
1196.347, 827.3959
1196.829, 820.5992
1197.311, 812.7161
1197.793, 816.3557
1198.275, 832.1737
1198.757, 841.1459
1199.240, 835.4724
1199.722, 822.6780
1200.204, 808.3149
1200.686, 795.5703
1201.168, 790.9056
1201.650, 792.1131
1202.132, 794.7678
1202.614, 798.8607
1203.096, 806.7492
1203.578, 817.8990
1204.061, 826.7884
1204.543, 830.4552
1205.025, 830.7048
1205.507, 828.6425
1205.989, 824.1808
1206.471, 814.1888
1206.953, 803.9200
1207.435, 799.8156
1207.918, 801.4243
1208.400, 806.1918
1208.882, 814.2675
1209.364, 819.1931
1209.846, 815.4510
1210.328, 813.4865
1210.810, 818.1772
1211.292, 823.8224
1211.775, 827.0140
1212.257, 828.7579
1212.739, 832.7997
1213.221, 838.5548
1213.703, 830.8580
1214.185, 797.1723
1214.667, 785.6474
1215.149, 806.6205
1215.631, 826.5260
1216.114, 834.0443
1216.596, 836.0282
1217.078, 838.6578
1217.560, 839.9969
1218.042, 832.7979
1218.524, 818.2198
1219.006, 815.0181
1219.488, 822.2491
1219.970, 828.4575
1220.453, 831.3220
1220.935, 831.7531
1221.417, 830.1755
1221.899, 828.4399
1222.381, 830.3173
1222.863, 831.6487
1223.345, 823.4268
1223.827, 811.3643
1224.310, 803.2916
1224.792, 800.6733
1225.274, 806.7696
1225.756, 820.7161
1226.238, 830.7266
1226.720, 829.2839
1227.202, 825.9205
1227.684, 826.2266
1228.167, 825.7352
1228.649, 821.0831
1229.131, 814.2882
1229.613, 805.3165
1230.095, 796.4420
1230.577, 795.1714
1231.059, 804.2357
1231.541, 813.9641
1232.023, 827.7339
1232.505, 835.3800
1232.988, 832.9124
1233.470, 828.1675
1233.952, 825.3010
1234.434, 822.5170
1234.916, 816.0858
1235.398, 807.7120
1235.880, 811.4822
1236.362, 827.9284
1236.845, 832.7584
1237.327, 824.3399
1237.809, 809.3924
1238.291, 790.4202
1238.773, 780.9194
1239.255, 792.4958
1239.737, 811.2222
1240.219, 818.1367
1240.702, 816.7542
1241.184, 807.2890
1241.666, 797.3961
1242.148, 808.7470
1242.630, 834.3290
1243.112, 841.7221
1243.594, 820.0480
1244.076, 799.8211
1244.558, 798.2062
1245.041, 803.1604
1245.523, 811.9136
1246.005, 821.2751
1246.487, 833.1981
1246.969, 841.5383
1247.451, 834.6946
1247.933, 814.7950
1248.415, 802.8648
1248.897, 803.6872
1249.380, 803.1945
1249.862, 799.3882
1250.344, 799.3046
1250.826, 807.7928
1251.308, 811.5178
1251.790, 798.9181
1252.272, 783.5486
1252.754, 790.6720
1253.237, 787.8619
1253.719, 791.7118
1254.201, 804.1902
1254.683, 805.0901
1255.165, 821.3064
1255.647, 826.3176
1256.129, 812.5680
1256.611, 800.2383
1257.094, 805.1320
1257.576, 815.1909
1258.058, 816.9420
1258.540, 815.7282
1259.022, 818.7402
1259.504, 822.8066
1259.986, 821.0526
1260.468, 815.6252
1260.950, 816.7368
1261.432, 828.0261
1261.915, 830.9556
1262.397, 807.2811
1262.879, 792.6174
1263.361, 805.0236
1263.843, 819.0005
1264.325, 821.3351
1264.807, 818.0740
1265.289, 814.5510
1265.772, 811.4487
1266.254, 813.0195
1266.736, 821.5579
1267.218, 818.7266
1267.700, 802.4489
1268.182, 797.1153
1268.664, 808.5157
1269.146, 817.7829
1269.629, 814.1470
1270.111, 805.4399
1270.593, 799.2210
1271.075, 796.9717
1271.557, 805.1828
1272.039, 817.6556
1272.521, 821.3116
1273.003, 818.7968
1273.485, 818.1177
1273.968, 821.4182
1274.450, 829.5494
1274.932, 846.4728
1275.414, 855.3147
1275.896, 838.8356
1276.378, 823.9459
1276.860, 827.7961
1277.342, 835.3713
1277.824, 834.6499
1278.307, 828.0850
1278.789, 820.3534
1279.271, 811.5273
1279.753, 809.5186
1280.235, 817.0189
1280.717, 821.3372
1281.199, 821.3418
1281.681, 819.4479
1282.164, 816.1392
1282.646, 814.1581
1283.128, 815.8206
1283.610, 818.9007
1284.092, 820.3151
1284.574, 819.9913
1285.056, 815.1427
1285.538, 809.3759
1286.021, 813.0227
1286.503, 823.8296
1286.985, 832.7899
1287.467, 836.6638
##END=



