##NAMES=Tungstenite
##RRUFFID=R070616
##IDEAL CHEMISTRY=WS_2_
##LOCALITY=Emma mine, Little Cottonwood Canyon, Salt Lake County, Utah, USA
##OWNER=RRUFF
##SOURCE=James Shigley
##DESCRIPTION=Gray metallic massive, X-ray diffraction shows this to be the 3R polytype. Intimately associated with galena
##STATUS=The identification of this mineral has been confirmed by X-ray diffraction.
##URL=rruff.info/R070616
97.76447, 5124.816
98.24658, 5327.360
98.72870, 5552.621
99.21082, 5762.609
99.69293, 5958.015
100.1750, 6139.569
100.6572, 6307.237
101.1393, 6450.642
101.6214, 6544.366
102.1035, 6519.313
102.5856, 6500.452
103.0677, 6479.079
103.5499, 6447.225
104.0320, 6410.111
104.5141, 6385.265
104.9962, 6384.384
105.4783, 6379.055
105.9605, 6353.628
106.4426, 6310.675
106.9247, 6261.208
107.4068, 6211.864
107.8889, 6160.562
108.3710, 6117.386
108.8532, 6072.404
109.3353, 6040.700
109.8174, 6037.025
110.2995, 6063.036
110.7816, 6101.940
111.2637, 6119.068
111.7459, 6056.754
112.2280, 6058.227
112.7101, 6188.939
113.1922, 6363.786
113.6743, 6487.857
114.1564, 6510.104
114.6386, 6444.692
115.1207, 6383.273
115.6028, 6320.366
116.0849, 6265.634
116.5670, 6219.588
117.0491, 6183.478
117.5313, 6161.132
118.0134, 6157.632
118.4955, 6174.501
118.9776, 6188.404
119.4597, 6198.408
119.9418, 6205.958
120.4240, 6211.055
120.9061, 6213.254
121.3882, 6216.280
121.8703, 6228.777
122.3524, 6248.635
122.8345, 6259.766
123.3167, 6251.798
123.7988, 6230.339
124.2809, 6211.943
124.7630, 6203.412
125.2451, 6193.747
125.7272, 6168.557
126.2094, 6127.572
126.6915, 6092.693
127.1736, 6089.578
127.6557, 6123.633
128.1378, 6145.027
128.6199, 6132.000
129.1021, 6107.572
129.5842, 6083.592
130.0663, 6063.172
130.5484, 6046.173
131.0305, 6032.962
131.5126, 6027.759
131.9948, 6018.784
132.4769, 6003.826
132.9590, 5984.760
133.4411, 5965.071
133.9232, 5947.409
134.4053, 5929.601
134.8875, 5895.849
135.3696, 5815.774
135.8517, 5749.391
136.3338, 5712.355
136.8159, 5699.598
137.2980, 5699.900
137.7802, 5706.113
138.2623, 5720.011
138.7444, 5719.841
139.2265, 5699.123
139.7086, 5672.542
140.1908, 5648.271
140.6729, 5626.999
141.1550, 5604.551
141.6371, 5575.240
142.1192, 5536.342
142.6013, 5501.818
143.0835, 5476.794
143.5656, 5454.925
144.0477, 5426.789
144.5298, 5388.035
145.0119, 5349.232
145.4940, 5329.441
145.9762, 5329.859
146.4583, 5328.214
146.9404, 5313.599
147.4225, 5289.426
147.9046, 5266.717
148.3867, 5247.227
148.8689, 5233.058
149.3510, 5226.770
149.8331, 5230.615
150.3152, 5234.634
150.7973, 5224.095
151.2794, 5196.168
151.7616, 5184.344
152.2437, 5219.321
152.7258, 5269.336
153.2079, 5309.756
153.6900, 5332.508
154.1721, 5345.025
154.6543, 5360.092
155.1364, 5379.795
155.6185, 5397.342
156.1006, 5415.790
156.5827, 5429.882
157.0648, 5430.695
157.5470, 5409.458
158.0291, 5373.464
158.5112, 5361.351
158.9933, 5396.168
159.4754, 5432.048
159.9575, 5461.962
160.4397, 5484.771
160.9218, 5499.856
161.4039, 5505.729
161.8860, 5501.512
162.3681, 5500.300
162.8502, 5496.330
163.3324, 5500.058
163.8145, 5526.813
164.2966, 5569.359
164.7787, 5602.915
165.2608, 5599.656
165.7429, 5546.351
166.2251, 5501.848
166.7072, 5472.405
167.1893, 5446.526
167.6714, 5415.822
168.1535, 5378.975
168.6356, 5341.748
169.1178, 5313.094
169.5999, 5301.786
170.0820, 5276.988
170.5641, 5225.928
171.0462, 5164.732
171.5283, 5111.693
172.0105, 5072.465
172.4926, 5042.293
172.9747, 5014.281
173.4568, 4989.651
173.9389, 4962.826
174.4210, 4925.657
174.9032, 4884.653
175.3853, 4857.330
175.8674, 4855.295
176.3495, 4864.183
176.8316, 4857.294
177.3137, 4830.847
177.7959, 4799.824
178.2780, 4772.095
178.7601, 4747.530
179.2422, 4723.510
179.7243, 4698.540
180.2064, 4674.054
180.6886, 4653.163
181.1707, 4639.109
181.6528, 4623.378
182.1349, 4592.548
182.6170, 4542.806
183.0991, 4501.320
183.5813, 4488.862
184.0634, 4488.605
184.5455, 4485.637
185.0276, 4475.067
185.5097, 4459.541
185.9918, 4442.504
186.4740, 4420.773
186.9561, 4404.975
187.4382, 4402.639
187.9203, 4406.708
188.4024, 4409.091
188.8845, 4406.009
189.3667, 4398.006
189.8488, 4386.788
190.3309, 4368.624
190.8130, 4352.262
191.2951, 4343.717
191.7772, 4338.327
192.2594, 4327.678
192.7415, 4304.341
193.2236, 4269.299
193.7057, 4243.701
194.1878, 4236.189
194.6699, 4231.138
195.1521, 4222.875
195.6342, 4213.742
196.1163, 4210.832
196.5984, 4222.846
197.0805, 4253.759
197.5626, 4262.341
198.0448, 4225.589
198.5269, 4189.150
199.0090, 4170.515
199.4911, 4169.282
199.9732, 4176.300
200.4553, 4183.659
200.9375, 4194.228
201.4196, 4191.418
201.9017, 4164.404
202.3838, 4135.336
202.8659, 4116.181
203.3480, 4108.561
203.8302, 4107.673
204.3123, 4108.945
204.7944, 4115.795
205.2765, 4113.317
205.7586, 4089.464
206.2407, 4064.337
206.7229, 4054.514
207.2050, 4063.175
207.6871, 4081.551
208.1692, 4099.522
208.6513, 4121.206
209.1334, 4129.637
209.6156, 4115.556
210.0977, 4091.508
210.5798, 4069.751
211.0619, 4053.483
211.5440, 4040.957
212.0261, 4028.177
212.5083, 4011.066
212.9904, 4006.929
213.4725, 4030.368
213.9546, 4066.081
214.4367, 4092.331
214.9188, 4103.094
215.4010, 4100.732
215.8831, 4083.665
216.3652, 4047.823
216.8473, 4019.743
217.3294, 4011.299
217.8115, 4017.088
218.2937, 4024.861
218.7758, 4030.414
219.2579, 4037.570
219.7400, 4055.490
220.2221, 4088.704
220.7042, 4112.483
221.1864, 4103.423
221.6685, 4071.642
222.1506, 4059.709
222.6327, 4092.120
223.1148, 4138.633
223.5969, 4155.805
224.0791, 4138.857
224.5612, 4114.367
225.0433, 4097.321
225.5254, 4087.254
226.0075, 4079.923
226.4896, 4071.841
226.9718, 4068.412
227.4539, 4076.132
227.9360, 4097.340
228.4181, 4121.131
228.9002, 4143.587
229.3823, 4164.586
229.8645, 4169.640
230.3466, 4140.096
230.8287, 4100.984
231.3108, 4073.767
231.7929, 4060.998
232.2750, 4060.828
232.7572, 4076.232
233.2393, 4109.235
233.7214, 4137.985
234.2035, 4155.655
234.6856, 4165.958
235.1677, 4168.676
235.6499, 4162.434
236.1320, 4156.650
236.6141, 4166.892
237.0962, 4198.543
237.5783, 4218.441
238.0604, 4199.014
238.5426, 4173.999
239.0247, 4170.001
239.5068, 4195.185
239.9889, 4230.482
240.4710, 4248.492
240.9531, 4243.795
241.4353, 4241.154
241.9174, 4249.099
242.3995, 4259.936
242.8816, 4268.818
243.3637, 4274.498
243.8458, 4276.763
244.3280, 4273.382
244.8101, 4259.732
245.2922, 4253.689
245.7743, 4268.353
246.2564, 4286.032
246.7385, 4290.438
247.2207, 4276.135
247.7028, 4256.251
248.1849, 4253.411
248.6670, 4273.905
249.1491, 4297.060
249.6312, 4328.036
250.1134, 4355.291
250.5955, 4365.943
251.0776, 4355.938
251.5597, 4338.221
252.0418, 4338.617
252.5239, 4373.946
253.0061, 4390.430
253.4882, 4367.231
253.9703, 4333.463
254.4524, 4312.438
254.9345, 4311.833
255.4166, 4321.994
255.8988, 4325.326
256.3809, 4318.802
256.8630, 4311.238
257.3451, 4303.448
257.8272, 4295.327
258.3094, 4286.301
258.7915, 4276.277
259.2736, 4266.453
259.7557, 4260.142
260.2378, 4263.924
260.7199, 4257.634
261.2021, 4229.237
261.6842, 4198.173
262.1663, 4180.845
262.6484, 4181.830
263.1305, 4191.945
263.6126, 4195.388
264.0948, 4189.949
264.5769, 4181.313
265.0590, 4164.667
265.5411, 4148.640
266.0232, 4141.881
266.5053, 4146.139
266.9875, 4153.562
267.4696, 4150.206
267.9517, 4126.764
268.4338, 4110.652
268.9159, 4108.754
269.3980, 4109.422
269.8802, 4101.895
270.3623, 4084.501
270.8444, 4066.057
271.3265, 4061.391
271.8086, 4079.522
272.2907, 4093.605
272.7729, 4106.680
273.2550, 4114.301
273.7371, 4110.614
274.2192, 4095.686
274.7013, 4077.413
275.1834, 4066.542
275.6656, 4065.040
276.1477, 4067.276
276.6298, 4078.618
277.1119, 4089.018
277.5940, 4090.077
278.0761, 4081.636
278.5583, 4071.455
279.0404, 4070.482
279.5225, 4085.416
280.0046, 4090.527
280.4867, 4077.594
280.9688, 4063.260
281.4510, 4056.419
281.9331, 4058.132
282.4152, 4064.530
282.8973, 4072.027
283.3794, 4082.233
283.8615, 4087.302
284.3437, 4082.267
284.8258, 4077.152
285.3079, 4077.102
285.7900, 4082.083
286.2721, 4089.262
286.7542, 4096.817
287.2364, 4106.412
287.7185, 4106.782
288.2006, 4085.457
288.6827, 4067.093
289.1648, 4062.766
289.6469, 4071.048
290.1291, 4084.870
290.6112, 4099.769
291.0933, 4116.888
291.5754, 4119.810
292.0575, 4092.505
292.5396, 4066.794
293.0218, 4055.983
293.5039, 4055.882
293.9860, 4054.106
294.4681, 4040.306
294.9502, 4014.805
295.4323, 3996.347
295.9145, 3988.532
296.3966, 3984.841
296.8787, 3986.653
297.3608, 3991.377
297.8429, 3994.768
298.3250, 3993.903
298.8072, 3989.375
299.2893, 3985.974
299.7714, 3973.413
300.2535, 3974.474
300.7356, 4001.998
301.2177, 4043.722
301.6999, 4083.486
302.1820, 4112.552
302.6641, 4131.782
303.1462, 4144.370
303.6283, 4148.012
304.1104, 4147.285
304.5926, 4137.875
305.0747, 4126.670
305.5568, 4121.632
306.0389, 4126.442
306.5210, 4138.134
307.0031, 4149.457
307.4853, 4161.272
307.9674, 4171.049
308.4495, 4177.343
308.9316, 4182.356
309.4137, 4187.283
309.8958, 4192.626
310.3780, 4199.736
310.8601, 4211.906
311.3422, 4232.829
311.8243, 4250.244
312.3064, 4257.631
312.7885, 4264.926
313.2707, 4281.784
313.7528, 4309.569
314.2349, 4338.167
314.7170, 4352.333
315.1991, 4346.113
315.6812, 4346.444
316.1634, 4361.023
316.6455, 4378.229
317.1276, 4391.638
317.6097, 4400.930
318.0918, 4410.155
318.5739, 4423.851
319.0561, 4442.479
319.5382, 4460.832
320.0203, 4475.881
320.5024, 4493.249
320.9845, 4517.702
321.4666, 4547.400
321.9488, 4575.662
322.4309, 4597.587
322.9130, 4613.310
323.3951, 4624.224
323.8772, 4621.157
324.3593, 4625.083
324.8415, 4649.272
325.3236, 4686.953
325.8057, 4722.599
326.2878, 4744.783
326.7699, 4758.225
327.2520, 4781.415
327.7342, 4819.501
328.2163, 4858.674
328.6984, 4888.665
329.1805, 4916.623
329.6626, 4955.213
330.1447, 5016.840
330.6269, 5084.440
331.1090, 5120.263
331.5911, 5112.134
332.0732, 5113.500
332.5553, 5155.777
333.0374, 5216.148
333.5196, 5273.868
334.0017, 5324.276
334.4838, 5369.182
334.9659, 5410.321
335.4480, 5447.590
335.9301, 5483.072
336.4123, 5520.654
336.8944, 5554.206
337.3765, 5578.663
337.8586, 5593.979
338.3407, 5598.527
338.8228, 5585.904
339.3050, 5558.727
339.7871, 5536.181
340.2692, 5526.866
340.7513, 5518.921
341.2334, 5500.203
341.7155, 5470.906
342.1977, 5434.464
342.6798, 5390.353
343.1619, 5340.431
343.6440, 5287.221
344.1261, 5228.424
344.6082, 5172.998
345.0904, 5143.552
345.5725, 5134.047
346.0546, 5094.365
346.5367, 4984.438
347.0188, 4849.912
347.5009, 4746.846
347.9831, 4681.569
348.4652, 4630.862
348.9473, 4584.149
349.4294, 4538.201
349.9115, 4475.205
350.3936, 4380.379
350.8758, 4279.054
351.3579, 4186.637
351.8400, 4103.739
352.3221, 4029.265
352.8042, 3963.519
353.2863, 3905.845
353.7685, 3850.905
354.2506, 3792.212
354.7327, 3742.679
355.2148, 3714.361
355.6969, 3698.566
356.1790, 3676.380
356.6612, 3638.977
357.1433, 3592.963
357.6254, 3554.176
358.1075, 3524.590
358.5896, 3499.072
359.0717, 3475.272
359.5539, 3456.109
360.0360, 3447.852
360.5181, 3451.670
361.0002, 3457.615
361.4823, 3450.760
361.9644, 3423.871
362.4466, 3401.338
362.9287, 3388.548
363.4108, 3375.681
363.8929, 3352.311
364.3750, 3320.119
364.8571, 3292.252
365.3393, 3282.347
365.8214, 3293.087
366.3035, 3298.372
366.7856, 3292.137
367.2677, 3286.977
367.7498, 3291.480
368.2320, 3300.431
368.7141, 3301.411
369.1962, 3284.785
369.6783, 3254.993
370.1604, 3238.909
370.6425, 3248.187
371.1247, 3256.612
371.6068, 3265.108
372.0889, 3268.107
372.5710, 3255.466
373.0531, 3222.298
373.5352, 3183.193
374.0174, 3168.583
374.4995, 3188.766
374.9816, 3206.043
375.4637, 3215.373
375.9458, 3219.247
376.4279, 3217.010
376.9101, 3209.193
377.3922, 3201.071
377.8743, 3198.826
378.3564, 3202.666
378.8385, 3204.972
379.3206, 3204.316
379.8028, 3202.626
380.2849, 3201.504
380.7670, 3200.608
381.2491, 3198.415
381.7312, 3193.842
382.2133, 3187.316
382.6955, 3178.636
383.1776, 3165.302
383.6597, 3156.582
384.1418, 3163.307
384.6239, 3178.256
385.1060, 3188.852
385.5882, 3188.010
386.0703, 3184.866
386.5524, 3190.361
387.0345, 3204.194
387.5166, 3216.974
387.9987, 3225.193
388.4809, 3228.760
388.9630, 3227.688
389.4451, 3217.975
389.9272, 3212.225
390.4093, 3221.393
390.8914, 3238.851
391.3736, 3247.675
391.8557, 3241.033
392.3378, 3230.922
392.8199, 3238.139
393.3020, 3269.456
393.7841, 3287.283
394.2663, 3275.507
394.7484, 3254.904
395.2305, 3242.395
395.7126, 3240.794
396.1947, 3249.646
396.6768, 3271.218
397.1590, 3307.215
397.6411, 3328.096
398.1232, 3319.877
398.6053, 3312.870
399.0874, 3323.383
399.5695, 3344.992
400.0517, 3361.138
400.5338, 3361.558
401.0159, 3351.590
401.4980, 3353.352
401.9801, 3381.595
402.4622, 3403.183
402.9444, 3412.676
403.4265, 3415.890
403.9086, 3417.344
404.3907, 3418.781
404.8728, 3421.540
405.3549, 3426.897
405.8371, 3433.486
406.3192, 3447.285
406.8013, 3483.858
407.2834, 3514.715
407.7655, 3520.851
408.2477, 3506.192
408.7298, 3491.205
409.2119, 3495.969
409.6940, 3516.364
410.1761, 3520.107
410.6582, 3499.253
411.1404, 3474.310
411.6225, 3457.488
412.1046, 3442.695
412.5867, 3419.629
413.0688, 3381.050
413.5509, 3337.306
414.0331, 3305.458
414.5152, 3286.768
414.9973, 3260.403
415.4794, 3212.937
415.9615, 3157.586
416.4436, 3112.400
416.9258, 3079.231
417.4079, 3050.448
417.8900, 3022.563
418.3721, 2995.766
418.8542, 2969.749
419.3363, 2943.726
419.8185, 2921.217
420.3006, 2908.121
420.7827, 2904.853
421.2648, 2897.680
421.7469, 2879.454
422.2290, 2860.810
422.7112, 2851.071
423.1933, 2849.687
423.6754, 2850.255
424.1575, 2848.713
424.6396, 2845.295
425.1217, 2841.874
425.6039, 2835.771
426.0860, 2832.787
426.5681, 2840.581
427.0502, 2850.275
427.5323, 2846.784
428.0144, 2824.790
428.4966, 2796.889
428.9787, 2788.169
429.4608, 2819.374
429.9429, 2827.492
430.4250, 2791.492
430.9071, 2753.496
431.3893, 2742.231
431.8714, 2755.618
432.3535, 2771.313
432.8356, 2768.979
433.3177, 2749.824
433.7998, 2736.892
434.2820, 2733.101
434.7641, 2731.848
435.2462, 2728.032
435.7283, 2725.688
436.2104, 2733.254
436.6925, 2758.232
437.1747, 2783.967
437.6568, 2782.995
438.1389, 2752.675
438.6210, 2722.242
439.1031, 2695.074
439.5852, 2676.303
440.0674, 2672.736
440.5495, 2685.682
441.0316, 2699.278
441.5137, 2706.737
441.9958, 2708.538
442.4779, 2704.755
442.9601, 2694.849
443.4422, 2682.121
443.9243, 2666.139
444.4064, 2648.236
444.8885, 2642.171
445.3707, 2660.629
445.8528, 2680.506
446.3349, 2685.617
446.8170, 2679.802
447.2991, 2676.295
447.7813, 2682.215
448.2634, 2693.723
448.7455, 2699.583
449.2276, 2693.818
449.7097, 2690.137
450.1918, 2693.188
450.6740, 2696.079
451.1561, 2691.756
451.6382, 2679.433
452.1203, 2663.964
452.6024, 2649.950
453.0845, 2636.702
453.5667, 2629.831
454.0488, 2638.629
454.5309, 2644.861
455.0130, 2636.205
455.4951, 2621.940
455.9772, 2621.615
456.4594, 2649.685
456.9415, 2688.410
457.4236, 2692.964
457.9057, 2650.728
458.3878, 2621.006
458.8699, 2636.028
459.3521, 2661.542
459.8342, 2669.382
460.3163, 2655.857
460.7984, 2639.683
461.2805, 2634.742
461.7626, 2637.436
462.2448, 2635.749
462.7269, 2626.514
463.2090, 2618.705
463.6911, 2623.190
464.1732, 2636.930
464.6553, 2643.209
465.1375, 2635.756
465.6196, 2624.022
466.1017, 2609.976
466.5838, 2596.282
467.0659, 2591.830
467.5480, 2602.008
468.0302, 2620.898
468.5123, 2634.062
468.9944, 2644.458
469.4765, 2643.936
469.9586, 2620.505
470.4407, 2593.554
470.9229, 2579.996
471.4050, 2581.314
471.8871, 2587.994
472.3692, 2590.884
472.8513, 2589.780
473.3334, 2591.502
473.8156, 2602.566
474.2977, 2608.990
474.7798, 2601.632
475.2619, 2589.225
475.7440, 2584.998
476.2261, 2595.250
476.7083, 2611.201
477.1904, 2619.364
477.6725, 2618.872
478.1546, 2617.164
478.6367, 2616.120
479.1188, 2613.865
479.6010, 2608.494
480.0831, 2600.198
480.5652, 2591.775
481.0473, 2581.489
481.5294, 2573.024
482.0115, 2575.193
482.4937, 2589.069
482.9758, 2600.241
483.4579, 2597.811
483.9400, 2585.376
484.4221, 2579.546
484.9042, 2587.751
485.3864, 2593.028
485.8685, 2587.993
486.3506, 2576.762
486.8327, 2561.992
487.3148, 2544.905
487.7969, 2534.805
488.2791, 2547.518
488.7612, 2596.707
489.2433, 2619.734
489.7254, 2600.942
490.2075, 2576.259
490.6896, 2557.300
491.1718, 2545.635
491.6539, 2540.751
492.1360, 2542.711
492.6181, 2550.272
493.1002, 2562.050
493.5823, 2583.508
494.0645, 2594.622
494.5466, 2580.600
495.0287, 2561.136
495.5108, 2548.657
495.9929, 2544.925
496.4750, 2547.601
496.9572, 2560.052
497.4393, 2577.559
497.9214, 2585.145
498.4035, 2579.720
498.8856, 2572.356
499.3677, 2570.962
499.8499, 2573.891
500.3320, 2574.717
500.8141, 2565.234
501.2962, 2561.893
501.7783, 2583.425
502.2604, 2616.010
502.7426, 2628.674
503.2247, 2610.401
503.7068, 2579.325
504.1889, 2563.141
504.6710, 2568.565
505.1531, 2569.761
505.6353, 2562.596
506.1174, 2555.525
506.5995, 2551.839
507.0816, 2552.007
507.5637, 2556.604
508.0458, 2566.772
508.5280, 2579.736
509.0101, 2586.169
509.4922, 2581.692
509.9743, 2581.133
510.4564, 2598.585
510.9385, 2613.730
511.4207, 2606.667
511.9028, 2576.519
512.3849, 2548.573
512.8670, 2543.563
513.3491, 2554.500
513.8312, 2563.702
514.3134, 2570.759
514.7955, 2571.936
515.2776, 2560.253
515.7597, 2540.877
516.2418, 2532.128
516.7239, 2546.616
517.2061, 2556.494
517.6882, 2542.580
518.1703, 2517.281
518.6524, 2502.958
519.1345, 2505.938
519.6166, 2514.836
520.0988, 2514.460
520.5809, 2501.223
521.0630, 2494.679
521.5451, 2503.868
522.0272, 2509.407
522.5093, 2499.579
522.9915, 2480.910
523.4736, 2465.287
523.9557, 2458.313
524.4378, 2458.897
524.9199, 2468.233
525.4020, 2490.906
525.8842, 2501.670
526.3663, 2485.871
526.8484, 2465.090
527.3305, 2454.030
527.8126, 2452.260
528.2947, 2452.200
528.7769, 2447.163
529.2590, 2442.881
529.7411, 2451.273
530.2232, 2472.291
530.7053, 2489.785
531.1874, 2495.589
531.6696, 2492.022
532.1517, 2484.284
532.6338, 2466.554
533.1159, 2456.482
533.5980, 2464.486
534.0801, 2477.655
534.5623, 2484.088
535.0444, 2481.961
535.5265, 2474.684
536.0086, 2464.219
536.4907, 2450.977
536.9728, 2444.781
537.4550, 2451.264
537.9371, 2457.656
538.4192, 2462.883
538.9013, 2465.942
539.3834, 2464.154
539.8655, 2456.966
540.3477, 2451.244
540.8298, 2457.868
541.3119, 2474.346
541.7940, 2480.879
542.2761, 2474.927
542.7582, 2460.429
543.2404, 2429.990
543.7225, 2392.779
544.2046, 2374.965
544.6867, 2399.756
545.1688, 2423.740
545.6509, 2411.909
546.1331, 2381.065
546.6152, 2370.964
547.0973, 2394.788
547.5794, 2427.915
548.0615, 2436.057
548.5436, 2410.208
549.0258, 2394.629
549.5079, 2398.244
549.9900, 2401.239
550.4721, 2389.802
550.9542, 2372.829
551.4363, 2368.927
551.9185, 2388.014
552.4006, 2416.429
552.8827, 2429.673
553.3648, 2425.962
553.8469, 2418.835
554.3290, 2410.756
554.8112, 2399.010
555.2933, 2375.106
555.7754, 2343.737
556.2575, 2327.750
556.7396, 2347.499
557.2217, 2378.710
557.7039, 2397.576
558.1860, 2405.045
558.6681, 2407.520
559.1502, 2407.280
559.6323, 2404.521
560.1144, 2399.128
560.5966, 2387.803
561.0787, 2381.340
561.5608, 2382.032
562.0429, 2385.782
562.5250, 2393.250
563.0071, 2401.647
563.4893, 2403.359
563.9714, 2392.197
564.4535, 2374.964
564.9356, 2373.568
565.4177, 2395.639
565.8998, 2411.352
566.3820, 2405.979
566.8641, 2398.414
567.3462, 2404.792
567.8283, 2423.720
568.3104, 2435.694
568.7925, 2424.896
569.2747, 2403.687
569.7568, 2387.999
570.2389, 2378.469
570.7210, 2379.317
571.2031, 2396.965
571.6852, 2421.179
572.1674, 2424.940
572.6495, 2392.224
573.1316, 2374.219
573.6137, 2390.330
574.0958, 2411.565
574.5779, 2414.132
575.0601, 2399.377
575.5422, 2382.545
576.0243, 2374.258
576.5064, 2372.234
576.9885, 2367.261
577.4706, 2356.303
577.9528, 2349.766
578.4349, 2353.859
578.9170, 2360.479
579.3991, 2364.153
579.8812, 2364.575
580.3633, 2364.397
580.8455, 2363.405
581.3276, 2363.511
581.8097, 2370.116
582.2918, 2382.888
582.7739, 2390.857
583.2560, 2386.979
583.7382, 2376.452
584.2203, 2372.327
584.7024, 2379.079
585.1845, 2382.782
585.6666, 2375.898
586.1487, 2370.384
586.6309, 2379.373
587.1130, 2399.219
587.5951, 2414.772
588.0772, 2415.644
588.5593, 2404.497
589.0414, 2388.558
589.5236, 2363.359
590.0057, 2345.664
590.4878, 2347.156
590.9699, 2351.731
591.4520, 2345.540
591.9341, 2329.387
592.4163, 2318.679
592.8984, 2326.856
593.3805, 2341.225
593.8626, 2342.221
594.3447, 2331.832
594.8268, 2329.063
595.3090, 2344.282
595.7911, 2369.418
596.2732, 2388.493
596.7553, 2403.892
597.2374, 2406.914
597.7195, 2382.751
598.2017, 2359.153
598.6838, 2353.424
599.1659, 2363.024
599.6480, 2379.172
600.1301, 2398.578
600.6122, 2415.320
601.0944, 2414.477
601.5765, 2393.160
602.0586, 2371.252
602.5407, 2346.612
603.0228, 2329.157
603.5049, 2332.391
603.9871, 2351.779
604.4692, 2360.701
604.9513, 2336.449
605.4334, 2310.691
605.9155, 2311.139
606.3976, 2332.102
606.8798, 2357.747
607.3619, 2382.903
607.8440, 2404.076
608.3261, 2415.560
608.8082, 2414.893
609.2903, 2413.352
609.7725, 2409.316
610.2546, 2406.204
610.7367, 2406.450
611.2188, 2408.173
611.7009, 2408.415
612.1830, 2406.020
612.6652, 2401.705
613.1473, 2395.879
613.6294, 2388.670
614.1115, 2381.090
614.5936, 2372.391
615.0757, 2365.517
615.5579, 2361.974
616.0400, 2362.266
616.5221, 2367.933
617.0042, 2385.032
617.4863, 2400.646
617.9684, 2408.766
618.4506, 2412.842
618.9327, 2419.830
619.4148, 2430.073
619.8969, 2433.488
620.3790, 2416.803
620.8611, 2381.325
621.3433, 2365.951
621.8254, 2387.039
622.3075, 2401.429
622.7896, 2388.469
623.2717, 2368.891
623.7538, 2363.560
624.2360, 2375.935
624.7181, 2392.463
625.2002, 2407.548
625.6823, 2420.118
626.1644, 2429.269
626.6465, 2434.743
627.1287, 2434.023
627.6108, 2425.025
628.0929, 2409.720
628.5750, 2393.074
629.0571, 2363.714
629.5392, 2352.105
630.0214, 2371.615
630.5035, 2397.557
630.9856, 2418.459
631.4677, 2431.640
631.9498, 2434.399
632.4319, 2422.956
632.9141, 2406.231
633.3962, 2402.058
633.8783, 2411.234
634.3604, 2421.646
634.8425, 2431.754
635.3246, 2440.899
635.8068, 2451.342
636.2889, 2461.752
636.7710, 2461.578
637.2531, 2434.192
637.7352, 2411.171
638.2173, 2415.219
638.6995, 2434.518
639.1816, 2447.928
639.6637, 2449.209
640.1458, 2445.987
640.6279, 2448.408
641.1100, 2457.280
641.5922, 2455.017
642.0743, 2427.062
642.5564, 2409.784
643.0385, 2423.350
643.5206, 2448.157
644.0027, 2461.167
644.4849, 2457.340
644.9670, 2452.349
645.4491, 2458.988
645.9312, 2469.955
646.4133, 2471.990
646.8954, 2464.678
647.3776, 2456.636
647.8597, 2452.808
648.3418, 2451.885
648.8239, 2449.988
649.3060, 2445.163
649.7881, 2442.644
650.2703, 2441.076
650.7524, 2442.900
651.2345, 2453.210
651.7166, 2468.151
652.1987, 2477.661
652.6808, 2475.305
653.1630, 2468.201
653.6451, 2466.911
654.1272, 2471.094
654.6093, 2475.921
655.0914, 2480.580
655.5735, 2485.355
656.0557, 2492.249
656.5378, 2500.566
657.0199, 2500.531
657.5020, 2480.252
657.9841, 2465.593
658.4662, 2467.107
658.9484, 2478.015
659.4305, 2493.417
659.9126, 2510.378
660.3947, 2521.637
660.8768, 2519.006
661.3589, 2504.761
661.8411, 2492.461
662.3232, 2481.643
662.8053, 2474.420
663.2874, 2473.419
663.7695, 2475.090
664.2516, 2474.113
664.7338, 2470.008
665.2159, 2470.794
665.6980, 2483.898
666.1801, 2498.757
666.6622, 2505.285
667.1443, 2506.059
667.6265, 2510.488
668.1086, 2522.613
668.5907, 2535.100
669.0728, 2532.739
669.5549, 2508.341
670.0370, 2506.784
670.5192, 2555.160
671.0013, 2590.906
671.4834, 2577.534
671.9655, 2541.668
672.4476, 2523.947
672.9297, 2536.951
673.4119, 2551.218
673.8940, 2545.715
674.3761, 2530.463
674.8582, 2519.996
675.3403, 2516.031
675.8224, 2518.046
676.3046, 2527.141
676.7867, 2539.054
677.2688, 2538.515
677.7509, 2507.976
678.2330, 2498.544
678.7151, 2529.773
679.1973, 2563.958
679.6794, 2583.540
680.1615, 2589.206
680.6436, 2585.998
681.1257, 2573.878
681.6078, 2558.426
682.0900, 2540.614
682.5721, 2524.124
683.0542, 2526.591
683.5363, 2552.864
684.0184, 2576.665
684.5005, 2573.418
684.9827, 2546.431
685.4648, 2530.873
685.9469, 2536.092
686.4290, 2540.688
686.9111, 2544.440
687.3932, 2545.532
687.8754, 2539.557
688.3575, 2528.712
688.8396, 2522.995
689.3217, 2533.023
689.8038, 2547.193
690.2859, 2542.754
690.7681, 2521.604
691.2502, 2504.523
691.7323, 2497.346
692.2144, 2495.807
692.6965, 2495.927
693.1786, 2497.806
693.6608, 2499.892
694.1429, 2507.182
694.6250, 2508.606
695.1071, 2495.280
695.5892, 2477.742
696.0714, 2468.090
696.5535, 2467.896
697.0356, 2469.430
697.5177, 2465.665
697.9998, 2459.042
698.4819, 2456.302
698.9641, 2457.547
699.4462, 2460.801
699.9283, 2466.866
700.4104, 2472.144
700.8925, 2471.015
701.3746, 2461.981
701.8568, 2455.124
702.3389, 2453.847
702.8210, 2451.249
703.3031, 2443.017
703.7852, 2432.286
704.2673, 2421.309
704.7495, 2411.526
705.2316, 2407.929
705.7137, 2423.777
706.1958, 2451.135
706.6779, 2448.720
707.1600, 2411.210
707.6422, 2386.334
708.1243, 2402.667
708.6064, 2432.735
709.0885, 2427.038
709.5706, 2375.062
710.0527, 2339.942
710.5349, 2336.210
711.0170, 2340.000
711.4991, 2346.699
711.9812, 2349.981
712.4633, 2337.503
712.9454, 2306.276
713.4276, 2274.950
713.9097, 2263.473
714.3918, 2270.031
714.8739, 2290.602
715.3560, 2329.724
715.8381, 2354.799
716.3203, 2347.549
716.8024, 2320.470
717.2845, 2294.386
717.7666, 2266.278
718.2487, 2249.528
718.7308, 2255.948
719.2130, 2263.300
719.6951, 2257.235
720.1772, 2243.951
720.6593, 2235.661
721.1414, 2236.638
721.6235, 2240.837
722.1057, 2238.576
722.5878, 2232.762
723.0699, 2244.493
723.5520, 2279.415
724.0341, 2297.270
724.5162, 2269.246
724.9984, 2221.251
725.4805, 2210.382
725.9626, 2257.906
726.4447, 2276.704
726.9268, 2236.931
727.4089, 2192.898
727.8911, 2166.708
728.3732, 2158.844
728.8553, 2173.494
729.3374, 2211.592
729.8195, 2243.072
730.3016, 2220.325
730.7838, 2162.457
731.2659, 2152.093
731.7480, 2197.536
732.2301, 2232.495
732.7122, 2221.053
733.1943, 2184.733
733.6765, 2166.004
734.1586, 2176.319
734.6407, 2174.104
735.1228, 2139.778
735.6049, 2113.708
736.0870, 2121.193
736.5692, 2146.712
737.0513, 2165.933
737.5334, 2171.541
738.0155, 2172.678
738.4976, 2177.629
738.9797, 2184.622
739.4619, 2191.484
739.9440, 2197.822
740.4261, 2192.813
740.9082, 2168.014
741.3903, 2137.589
741.8724, 2127.148
742.3546, 2142.831
742.8367, 2157.810
743.3188, 2182.072
743.8009, 2194.365
744.2830, 2178.427
744.7651, 2150.498
745.2473, 2130.485
745.7294, 2122.987
746.2115, 2122.796
746.6936, 2129.627
747.1757, 2139.709
747.6578, 2149.133
748.1400, 2156.788
748.6221, 2154.639
749.1042, 2137.964
749.5863, 2121.578
750.0684, 2129.973
750.5505, 2169.122
751.0327, 2191.851
751.5148, 2192.234
751.9969, 2183.522
752.4790, 2159.096
752.9611, 2133.987
753.4432, 2125.976
753.9254, 2136.821
754.4075, 2149.239
754.8896, 2154.774
755.3717, 2158.387
755.8538, 2165.392
756.3359, 2174.503
756.8181, 2183.720
757.3002, 2192.054
757.7823, 2194.252
758.2644, 2180.947
758.7465, 2153.700
759.2286, 2146.828
759.7108, 2169.457
760.1929, 2190.264
760.6750, 2200.169
761.1571, 2204.260
761.6392, 2206.156
762.1213, 2206.159
762.6035, 2208.345
763.0856, 2214.472
763.5677, 2222.139
764.0498, 2230.331
764.5319, 2239.089
765.0140, 2249.944
765.4962, 2262.300
765.9783, 2271.218
766.4604, 2270.626
766.9425, 2265.354
767.4246, 2272.631
767.9067, 2293.999
768.3889, 2308.410
768.8710, 2309.717
769.3531, 2305.115
769.8352, 2299.150
770.3173, 2292.289
770.7994, 2291.037
771.2816, 2288.837
771.7637, 2300.662
772.2458, 2347.497
772.7279, 2395.916
773.2100, 2415.128
773.6921, 2408.290
774.1743, 2397.712
774.6564, 2394.360
775.1385, 2395.371
775.6206, 2396.398
776.1027, 2398.526
776.5848, 2406.247
777.0670, 2420.284
777.5491, 2438.249
778.0312, 2459.229
778.5133, 2482.154
778.9954, 2504.250
779.4775, 2530.668
779.9597, 2546.116
780.4418, 2538.814
780.9239, 2532.378
781.4060, 2538.338
781.8881, 2552.741
782.3702, 2567.795
782.8524, 2581.909
783.3345, 2595.204
783.8166, 2607.259
784.2987, 2618.838
784.7808, 2629.556
785.2629, 2640.520
785.7451, 2656.305
786.2272, 2679.086
786.7093, 2704.371
787.1914, 2725.916
787.6735, 2743.827
788.1556, 2751.953
788.6378, 2736.902
789.1199, 2748.457
789.6020, 2845.505
790.0841, 2954.735
790.5662, 2949.822
791.0483, 2811.222
791.5305, 2722.825
792.0126, 2723.610
792.4947, 2768.523
792.9768, 2885.294
793.4589, 3009.016
793.9410, 3034.503
794.4232, 2952.146
794.9053, 2873.340
795.3874, 2909.191
795.8695, 2999.894
796.3516, 3009.488
796.8337, 2946.765
797.3159, 2897.190
797.7980, 2884.416
798.2801, 2887.252
798.7622, 2885.783
799.2443, 2880.344
799.7264, 2876.120
800.2086, 2878.298
800.6907, 2873.373
801.1728, 2850.197
801.6549, 2828.529
802.1370, 2825.112
802.6191, 2834.670
803.1013, 2838.643
803.5834, 2828.483
804.0655, 2816.448
804.5476, 2810.669
805.0297, 2807.777
805.5118, 2804.600
805.9940, 2799.949
806.4761, 2790.789
806.9582, 2774.941
807.4403, 2757.195
807.9224, 2749.316
808.4045, 2752.042
808.8867, 2739.777
809.3688, 2705.926
809.8509, 2673.193
810.3330, 2653.269
810.8151, 2641.673
811.2972, 2628.875
811.7794, 2612.694
812.2615, 2602.786
812.7436, 2612.465
813.2257, 2614.362
813.7078, 2588.113
814.1899, 2550.599
814.6721, 2525.883
815.1542, 2518.202
815.6364, 2511.545
816.1185, 2492.841
816.6006, 2469.359
817.0827, 2451.828
817.5648, 2438.718
818.0469, 2424.099
818.5291, 2406.390
819.0112, 2387.661
819.4933, 2369.293
819.9754, 2351.962
820.4575, 2340.609
820.9396, 2336.572
821.4218, 2335.096
821.9039, 2340.597
822.3860, 2342.404
822.8681, 2329.090
823.3502, 2305.457
823.8323, 2286.778
824.3145, 2276.552
824.7966, 2268.017
825.2787, 2256.629
825.7608, 2248.254
826.2429, 2254.776
826.7250, 2267.748
827.2072, 2264.998
827.6893, 2236.301
828.1714, 2199.858
828.6535, 2175.014
829.1356, 2158.589
829.6177, 2140.460
830.0999, 2120.622
830.5820, 2108.131
831.0641, 2107.426
831.5462, 2114.282
832.0283, 2124.202
832.5104, 2138.692
832.9926, 2139.631
833.4747, 2114.038
833.9568, 2096.496
834.4389, 2107.518
834.9210, 2122.689
835.4031, 2121.019
835.8853, 2103.137
836.3674, 2082.968
836.8495, 2056.002
837.3316, 2036.827
837.8137, 2042.051
838.2958, 2052.693
838.7780, 2044.118
839.2601, 2018.182
839.7422, 1994.892
840.2243, 1986.332
840.7064, 1985.473
841.1885, 1982.869
841.6707, 1978.987
842.1528, 1976.281
842.6349, 1975.032
843.1170, 1972.610
843.5991, 1967.329
844.0812, 1960.440
844.5634, 1954.682
845.0455, 1950.842
845.5276, 1945.036
846.0097, 1937.420
846.4918, 1927.540
846.9739, 1908.016
847.4561, 1890.520
847.9382, 1893.901
848.4203, 1919.552
848.9024, 1929.154
849.3845, 1892.031
849.8666, 1859.042
850.3488, 1866.192
850.8309, 1889.364
851.3130, 1898.323
851.7951, 1889.242
852.2772, 1874.155
852.7593, 1859.515
853.2415, 1846.603
853.7236, 1835.877
854.2057, 1828.501
854.6878, 1832.641
855.1699, 1849.350
855.6520, 1861.003
856.1342, 1855.174
856.6163, 1840.149
857.0984, 1837.522
857.5805, 1854.007
858.0626, 1858.618
858.5447, 1844.972
859.0269, 1829.486
859.5090, 1816.953
859.9911, 1807.735
860.4732, 1801.922
860.9553, 1799.286
861.4374, 1802.621
861.9196, 1820.741
862.4017, 1835.376
862.8838, 1834.652
863.3659, 1827.727
863.8480, 1825.193
864.3301, 1828.347
864.8123, 1833.053
865.2944, 1837.566
865.7765, 1841.178
866.2586, 1843.259
866.7407, 1843.739
867.2228, 1842.520
867.7050, 1839.559
868.1871, 1833.960
868.6692, 1824.633
869.1513, 1815.022
869.6334, 1813.121
870.1155, 1819.874
870.5977, 1825.471
871.0798, 1829.387
871.5619, 1832.684
872.0440, 1834.215
872.5261, 1836.933
873.0082, 1847.468
873.4904, 1869.025
873.9725, 1878.693
874.4546, 1866.388
874.9367, 1854.750
875.4188, 1850.084
875.9009, 1848.812
876.3831, 1850.004
876.8652, 1851.644
877.3473, 1847.004
877.8294, 1829.684
878.3115, 1811.431
878.7936, 1799.618
879.2758, 1792.921
879.7579, 1790.583
880.2400, 1791.668
880.7221, 1794.417
881.2042, 1798.069
881.6863, 1800.636
882.1685, 1797.426
882.6506, 1790.149
883.1327, 1791.752
883.6148, 1803.263
884.0969, 1803.596
884.5790, 1782.093
885.0612, 1755.765
885.5433, 1746.264
886.0254, 1753.592
886.5075, 1760.841
886.9896, 1777.074
887.4717, 1776.156
887.9539, 1735.219
888.4360, 1692.827
888.9181, 1676.856
889.4002, 1681.141
889.8823, 1685.186
890.3644, 1683.620
890.8466, 1686.958
891.3287, 1710.800
891.8108, 1728.689
892.2929, 1712.725
892.7750, 1678.926
893.2571, 1659.798
893.7393, 1664.811
894.2214, 1673.438
894.7035, 1669.684
895.1856, 1660.110
895.6677, 1649.622
896.1498, 1641.421
896.6320, 1649.170
897.1141, 1674.065
897.5962, 1691.382
898.0783, 1677.626
898.5604, 1645.966
899.0425, 1635.877
899.5247, 1648.037
900.0068, 1658.088
900.4889, 1663.528
900.9710, 1663.285
901.4531, 1654.322
901.9352, 1642.114
902.4174, 1640.208
902.8995, 1655.105
903.3816, 1658.242
903.8637, 1637.051
904.3458, 1620.432
904.8279, 1621.770
905.3101, 1628.035
905.7922, 1625.772
906.2743, 1614.910
906.7564, 1604.446
907.2385, 1594.788
907.7206, 1588.074
908.2028, 1587.589
908.6849, 1588.570
909.1670, 1584.845
909.6491, 1578.383
910.1312, 1576.988
910.6133, 1584.817
911.0955, 1593.048
911.5776, 1592.113
912.0597, 1587.136
912.5418, 1587.666
913.0239, 1592.103
913.5060, 1592.143
913.9882, 1585.130
914.4703, 1576.652
914.9524, 1572.722
915.4345, 1572.366
915.9166, 1571.962
916.3987, 1571.512
916.8809, 1571.099
917.3630, 1570.619
917.8451, 1570.860
918.3272, 1572.599
918.8093, 1575.308
919.2914, 1577.902
919.7736, 1583.649
920.2557, 1580.023
920.7378, 1552.987
921.2199, 1536.343
921.7020, 1556.105
922.1841, 1586.798
922.6663, 1597.370
923.1484, 1586.290
923.6305, 1574.174
924.1126, 1560.781
924.5947, 1550.579
925.0768, 1544.633
925.5590, 1542.879
926.0411, 1545.137
926.5232, 1551.458
927.0053, 1564.228
927.4874, 1589.110
927.9695, 1604.356
928.4517, 1583.504
928.9338, 1553.109
929.4159, 1546.794
929.8980, 1557.883
930.3801, 1563.608
930.8622, 1556.754
931.3444, 1547.566
931.8265, 1545.661
932.3086, 1548.586
932.7907, 1551.912
933.2728, 1555.198
933.7549, 1555.627
934.2371, 1552.666
934.7192, 1549.311
935.2013, 1547.723
935.6834, 1546.997
936.1655, 1544.266
936.6476, 1538.929
937.1298, 1537.694
937.6119, 1541.911
938.0940, 1546.664
938.5761, 1550.886
939.0582, 1553.278
939.5403, 1551.861
940.0225, 1546.472
940.5046, 1540.447
940.9867, 1534.925
941.4688, 1526.982
941.9509, 1510.666
942.4330, 1497.084
942.9152, 1493.726
943.3973, 1498.625
943.8794, 1507.636
944.3615, 1524.074
944.8436, 1533.228
945.3257, 1524.761
945.8079, 1514.979
946.2900, 1513.590
946.7721, 1516.892
947.2542, 1518.411
947.7363, 1517.544
948.2184, 1519.786
948.7006, 1532.952
949.1827, 1544.441
949.6648, 1541.034
950.1469, 1530.737
950.6290, 1524.954
951.1111, 1523.944
951.5933, 1520.858
952.0754, 1512.066
952.5575, 1507.645
953.0396, 1527.673
953.5217, 1558.768
954.0038, 1565.401
954.4860, 1550.080
954.9681, 1529.926
955.4502, 1510.126
955.9323, 1494.442
956.4144, 1487.252
956.8965, 1485.613
957.3787, 1477.264
957.8608, 1461.378
958.3429, 1462.893
958.8250, 1488.361
959.3071, 1512.180
959.7892, 1521.939
960.2714, 1519.567
960.7535, 1505.274
961.2356, 1475.816
961.7177, 1467.468
962.1998, 1496.953
962.6819, 1512.871
963.1641, 1491.635
963.6462, 1465.810
964.1283, 1464.652
964.6104, 1482.525
965.0925, 1492.140
965.5746, 1483.548
966.0568, 1484.943
966.5389, 1515.461
967.0210, 1537.152
967.5031, 1524.858
967.9852, 1497.515
968.4673, 1479.651
968.9495, 1474.165
969.4316, 1470.772
969.9137, 1468.628
970.3958, 1464.890
970.8779, 1454.815
971.3600, 1445.218
971.8422, 1443.851
972.3243, 1448.779
972.8064, 1452.497
973.2885, 1451.804
973.7706, 1453.519
974.2527, 1467.956
974.7349, 1483.023
975.2170, 1484.543
975.6991, 1476.271
976.1812, 1464.394
976.6633, 1451.815
977.1454, 1444.237
977.6276, 1447.122
978.1097, 1453.429
978.5918, 1451.260
979.0739, 1444.425
979.5560, 1442.499
980.0381, 1446.303
980.5203, 1456.591
981.0024, 1473.683
981.4845, 1487.460
981.9666, 1484.653
982.4487, 1468.245
982.9308, 1447.952
983.4130, 1424.089
983.8951, 1411.531
984.3772, 1413.574
984.8593, 1424.172
985.3414, 1440.861
985.8235, 1459.053
986.3057, 1467.902
986.7878, 1466.382
987.2699, 1462.585
987.7520, 1455.349
988.2341, 1450.002
988.7162, 1448.999
989.1984, 1449.179
989.6805, 1447.123
990.1626, 1443.201
990.6447, 1440.469
991.1268, 1438.344
991.6089, 1438.898
992.0911, 1446.486
992.5732, 1451.084
993.0553, 1446.208
993.5374, 1436.206
994.0195, 1426.666
994.5016, 1416.916
994.9838, 1413.167
995.4659, 1421.423
995.9480, 1427.869
996.4301, 1429.143
996.9122, 1428.004
997.3943, 1423.150
997.8765, 1418.006
998.3586, 1421.977
998.8407, 1440.483
999.3228, 1453.887
999.8049, 1453.363
1000.287, 1450.090
1000.769, 1447.885
1001.251, 1447.711
1001.733, 1452.791
1002.216, 1461.310
1002.698, 1463.910
1003.180, 1455.778
1003.662, 1443.238
1004.144, 1426.044
1004.626, 1409.337
1005.108, 1394.236
1005.590, 1384.663
1006.072, 1391.183
1006.555, 1414.472
1007.037, 1433.163
1007.519, 1425.307
1008.001, 1414.272
1008.483, 1429.052
1008.965, 1452.997
1009.447, 1460.312
1009.929, 1450.785
1010.411, 1433.935
1010.894, 1413.873
1011.376, 1400.305
1011.858, 1408.661
1012.340, 1427.296
1012.822, 1439.707
1013.304, 1444.556
1013.786, 1434.206
1014.268, 1410.439
1014.751, 1393.804
1015.233, 1398.073
1015.715, 1414.398
1016.197, 1437.956
1016.679, 1461.139
1017.161, 1446.614
1017.643, 1400.234
1018.125, 1377.086
1018.607, 1394.220
1019.090, 1422.402
1019.572, 1435.714
1020.054, 1438.338
1020.536, 1442.247
1021.018, 1446.893
1021.500, 1444.423
1021.982, 1434.045
1022.464, 1414.889
1022.947, 1384.024
1023.429, 1361.605
1023.911, 1379.235
1024.393, 1428.197
1024.875, 1440.609
1025.357, 1412.192
1025.839, 1391.097
1026.321, 1385.304
1026.803, 1385.790
1027.286, 1387.871
1027.768, 1391.671
1028.250, 1397.786
1028.732, 1406.444
1029.214, 1413.229
1029.696, 1417.166
1030.178, 1423.630
1030.660, 1437.344
1031.142, 1445.170
1031.625, 1433.692
1032.107, 1411.486
1032.589, 1404.376
1033.071, 1418.929
1033.553, 1424.150
1034.035, 1414.670
1034.517, 1407.167
1034.999, 1407.554
1035.482, 1410.806
1035.964, 1412.902
1036.446, 1413.737
1036.928, 1412.681
1037.410, 1409.072
1037.892, 1404.612
1038.374, 1393.473
1038.856, 1389.972
1039.339, 1407.656
1039.821, 1429.741
1040.303, 1435.090
1040.785, 1424.187
1041.267, 1417.722
1041.749, 1418.924
1042.231, 1419.682
1042.713, 1420.415
1043.195, 1419.657
1043.677, 1414.440
1044.160, 1408.446
1044.642, 1408.161
1045.124, 1414.350
1045.606, 1416.640
1046.088, 1410.631
1046.570, 1405.721
1047.052, 1405.416
1047.534, 1404.962
1048.017, 1399.483
1048.499, 1392.297
1048.981, 1389.351
1049.463, 1391.096
1049.945, 1397.965
1050.427, 1419.088
1050.909, 1433.418
1051.391, 1427.761
1051.874, 1418.690
1052.356, 1422.870
1052.838, 1433.921
1053.320, 1432.949
1053.802, 1413.739
1054.284, 1396.580
1054.766, 1384.287
1055.248, 1377.539
1055.730, 1379.309
1056.213, 1384.636
1056.695, 1389.877
1057.177, 1394.385
1057.659, 1397.085
1058.141, 1395.895
1058.623, 1398.649
1059.105, 1413.033
1059.587, 1426.056
1060.069, 1429.545
1060.552, 1428.609
1061.034, 1430.495
1061.516, 1434.270
1061.998, 1431.656
1062.480, 1415.081
1062.962, 1404.162
1063.444, 1412.965
1063.927, 1422.633
1064.409, 1419.516
1064.891, 1410.618
1065.373, 1404.467
1065.855, 1402.615
1066.337, 1405.232
1066.819, 1415.714
1067.301, 1424.396
1067.783, 1427.040
1068.266, 1426.392
1068.748, 1425.829
1069.230, 1422.577
1069.712, 1408.115
1070.194, 1383.854
1070.676, 1370.203
1071.158, 1379.771
1071.640, 1394.178
1072.122, 1409.252
1072.605, 1421.504
1073.087, 1428.151
1073.569, 1429.887
1074.051, 1427.065
1074.533, 1420.217
1075.015, 1413.496
1075.497, 1406.494
1075.979, 1402.901
1076.462, 1407.050
1076.944, 1413.065
1077.426, 1416.249
1077.908, 1417.377
1078.390, 1419.021
1078.872, 1421.578
1079.354, 1422.176
1079.836, 1419.162
1080.318, 1414.383
1080.801, 1404.235
1081.283, 1396.719
1081.765, 1403.860
1082.247, 1417.510
1082.729, 1419.177
1083.211, 1405.065
1083.693, 1395.317
1084.175, 1399.543
1084.657, 1408.976
1085.140, 1425.871
1085.622, 1440.173
1086.104, 1441.220
1086.586, 1432.930
1087.068, 1422.505
1087.550, 1411.416
1088.032, 1408.568
1088.514, 1433.859
1088.997, 1447.792
1089.479, 1414.421
1089.961, 1376.077
1090.443, 1374.132
1090.925, 1396.717
1091.407, 1412.432
1091.889, 1414.224
1092.371, 1414.998
1092.854, 1420.652
1093.336, 1424.796
1093.818, 1421.925
1094.300, 1418.605
1094.782, 1421.316
1095.264, 1427.957
1095.746, 1434.515
1096.228, 1440.788
1096.710, 1439.529
1097.193, 1419.041
1097.675, 1402.801
1098.157, 1402.762
1098.639, 1408.673
1099.121, 1413.032
1099.603, 1416.164
1100.085, 1420.729
1100.567, 1427.547
1101.049, 1432.237
1101.532, 1434.723
1102.014, 1433.584
1102.496, 1421.362
1102.978, 1411.821
1103.460, 1422.726
1103.942, 1442.257
1104.424, 1441.358
1104.906, 1411.750
1105.389, 1397.292
1105.871, 1417.412
1106.353, 1437.272
1106.835, 1454.022
1107.317, 1460.939
1107.799, 1445.793
1108.281, 1419.929
1108.763, 1406.460
1109.245, 1408.484
1109.728, 1412.580
1110.210, 1419.009
1110.692, 1425.367
1111.174, 1431.649
1111.656, 1437.288
1112.138, 1444.502
1112.620, 1449.922
1113.102, 1445.882
1113.584, 1430.515
1114.067, 1417.395
1114.549, 1404.819
1115.031, 1397.031
1115.513, 1388.553
1115.995, 1392.958
1116.477, 1431.486
1116.959, 1479.592
1117.441, 1492.333
1117.924, 1466.077
1118.406, 1445.788
1118.888, 1429.492
1119.370, 1423.719
1119.852, 1435.230
1120.334, 1447.038
1120.816, 1449.131
1121.298, 1447.205
1121.781, 1451.665
1122.263, 1462.586
1122.745, 1460.009
1123.227, 1437.496
1123.709, 1422.576
1124.191, 1419.598
1124.673, 1422.456
1125.155, 1429.782
1125.637, 1437.698
1126.120, 1439.942
1126.602, 1437.593
1127.084, 1444.586
1127.566, 1464.314
1128.048, 1468.594
1128.530, 1451.961
1129.012, 1433.003
1129.494, 1418.721
1129.976, 1412.495
1130.459, 1420.081
1130.941, 1437.800
1131.423, 1449.072
1131.905, 1453.915
1132.387, 1454.086
1132.869, 1449.661
1133.351, 1446.528
1133.833, 1446.834
1134.316, 1452.398
1134.798, 1466.387
1135.280, 1484.297
1135.762, 1496.328
1136.244, 1501.909
1136.726, 1494.220
1137.208, 1475.274
1137.690, 1462.131
1138.172, 1460.359
1138.655, 1468.987
1139.137, 1491.450
1139.619, 1510.274
1140.101, 1481.825
1140.583, 1431.422
1141.065, 1428.776
1141.547, 1463.548
1142.029, 1489.179
1142.511, 1494.353
1142.994, 1491.903
1143.476, 1489.373
1143.958, 1486.381
1144.440, 1479.742
1144.922, 1474.369
1145.404, 1481.714
1145.886, 1494.442
1146.368, 1495.919
1146.851, 1485.718
1147.333, 1475.485
1147.815, 1469.730
1148.297, 1471.442
1148.779, 1488.712
1149.261, 1508.620
1149.743, 1524.645
1150.225, 1532.333
1150.708, 1518.818
1151.190, 1492.432
1151.672, 1481.184
1152.154, 1495.963
1152.636, 1509.869
1153.118, 1510.368
1153.600, 1506.545
1154.082, 1500.200
1154.564, 1494.441
1155.047, 1492.881
1155.529, 1493.805
1156.011, 1492.041
1156.493, 1486.048
1156.975, 1485.594
1157.457, 1498.913
1157.939, 1509.271
1158.421, 1514.251
1158.903, 1513.036
1159.386, 1499.571
1159.868, 1482.173
1160.350, 1472.953
1160.832, 1472.081
1161.314, 1481.497
1161.796, 1515.435
1162.278, 1532.712
1162.760, 1520.358
1163.243, 1507.822
1163.725, 1506.763
1164.207, 1512.766
1164.689, 1522.112
1165.171, 1533.780
1165.653, 1541.470
1166.135, 1545.161
1166.617, 1544.384
1167.099, 1537.887
1167.582, 1533.178
1168.064, 1533.603
1168.546, 1531.949
1169.028, 1520.086
1169.510, 1505.430
1169.992, 1511.690
1170.474, 1536.506
1170.956, 1538.431
1171.438, 1518.331
1171.921, 1511.924
1172.403, 1527.044
1172.885, 1545.367
1173.367, 1555.501
1173.849, 1559.628
1174.331, 1560.638
1174.813, 1558.293
1175.295, 1551.305
1175.778, 1540.535
1176.260, 1524.158
1176.742, 1505.956
1177.224, 1502.683
1177.706, 1521.388
1178.188, 1546.556
1178.670, 1571.845
1179.152, 1588.676
1179.635, 1581.103
1180.117, 1563.975
1180.599, 1558.337
1181.081, 1560.253
1181.563, 1554.409
1182.045, 1538.286
1182.527, 1526.912
1183.009, 1525.035
1183.491, 1533.941
1183.974, 1568.022
1184.456, 1598.610
1184.938, 1604.049
1185.420, 1593.707
1185.902, 1576.893
1186.384, 1557.242
1186.866, 1545.881
1187.348, 1542.454
1187.830, 1552.347
1188.313, 1596.053
1188.795, 1627.368
1189.277, 1622.830
1189.759, 1607.648
1190.241, 1600.751
1190.723, 1598.191
1191.205, 1588.005
1191.687, 1566.143
1192.170, 1561.896
1192.652, 1581.146
1193.134, 1601.771
1193.616, 1624.377
1194.098, 1630.487
1194.580, 1604.039
1195.062, 1571.659
1195.544, 1575.388
1196.026, 1606.671
1196.509, 1610.869
1196.991, 1590.104
1197.473, 1590.452
1197.955, 1615.196
1198.437, 1636.672
1198.919, 1644.710
1199.401, 1642.265
1199.883, 1630.212
1200.365, 1614.567
1200.848, 1602.242
1201.330, 1595.695
1201.812, 1605.405
1202.294, 1624.432
1202.776, 1634.152
1203.258, 1631.889
1203.740, 1625.081
1204.222, 1615.950
1204.705, 1613.098
1205.187, 1629.217
1205.669, 1647.809
1206.151, 1658.466
1206.633, 1660.908
1207.115, 1648.385
1207.597, 1629.606
1208.079, 1627.308
1208.562, 1647.513
1209.044, 1659.417
1209.526, 1648.811
1210.008, 1636.863
1210.490, 1625.236
1210.972, 1618.192
1211.454, 1619.003
1211.936, 1625.340
1212.418, 1636.855
1212.901, 1652.020
1213.383, 1655.652
1213.865, 1639.449
1214.347, 1635.853
1214.829, 1650.785
1215.311, 1661.670
1215.793, 1660.017
1216.275, 1658.405
1216.757, 1667.563
1217.240, 1681.391
1217.722, 1686.395
1218.204, 1683.514
1218.686, 1682.806
1219.168, 1684.056
1219.650, 1684.884
1220.132, 1685.137
1220.614, 1688.090
1221.097, 1695.204
1221.579, 1700.946
1222.061, 1697.963
1222.543, 1692.866
1223.025, 1699.885
1223.507, 1708.892
1223.989, 1696.557
1224.471, 1674.103
1224.953, 1672.967
1225.436, 1695.799
1225.918, 1715.143
1226.400, 1718.350
1226.882, 1715.745
1227.364, 1708.617
1227.846, 1702.173
1228.328, 1697.154
1228.810, 1696.440
1229.292, 1706.494
1229.775, 1722.512
1230.257, 1730.435
1230.739, 1726.980
1231.221, 1726.121
1231.703, 1728.712
1232.185, 1733.322
1232.667, 1742.116
1233.149, 1748.402
1233.632, 1748.631
1234.114, 1745.076
1234.596, 1739.274
1235.078, 1733.029
1235.560, 1736.429
1236.042, 1749.735
1236.524, 1753.831
1237.006, 1748.249
1237.489, 1750.240
1237.971, 1763.920
1238.453, 1776.498
1238.935, 1779.742
1239.417, 1775.634
1239.899, 1760.565
1240.381, 1744.344
1240.863, 1747.982
1241.345, 1762.038
1241.828, 1768.420
1242.310, 1767.820
1242.792, 1770.324
1243.274, 1778.426
1243.756, 1783.210
1244.238, 1776.432
1244.720, 1770.781
1245.202, 1776.713
1245.684, 1781.225
1246.167, 1770.546
1246.649, 1757.030
1247.131, 1756.484
1247.613, 1767.228
1248.095, 1777.982
1248.577, 1790.516
1249.059, 1794.335
1249.541, 1781.290
1250.024, 1778.997
1250.506, 1798.310
1250.988, 1813.680
1251.470, 1808.524
1251.952, 1798.272
1252.434, 1805.780
1252.916, 1825.420
1253.398, 1830.522
1253.880, 1823.277
1254.363, 1822.993
1254.845, 1829.760
1255.327, 1832.458
1255.809, 1828.855
1256.291, 1829.174
1256.773, 1841.110
1257.255, 1852.508
1257.737, 1843.548
1258.219, 1833.582
1258.702, 1852.356
1259.184, 1878.957
1259.666, 1882.508
1260.148, 1868.450
1260.630, 1855.874
1261.112, 1849.163
1261.594, 1850.495
##END=



