##NAMES=Tungstenite
##RRUFFID=R070616
##IDEAL CHEMISTRY=WS_2_
##LOCALITY=Emma mine, Little Cottonwood Canyon, Salt Lake County, Utah, USA
##OWNER=RRUFF
##SOURCE=James Shigley
##DESCRIPTION=Gray metallic massive, X-ray diffraction shows this to be the 3R polytype. Intimately associated with galena
##STATUS=The identification of this mineral has been confirmed by X-ray diffraction.
##URL=rruff.info/R070616
136.2070, 1636.859
136.6891, 1701.816
137.1712, 1809.034
137.6533, 1884.319
138.1354, 1918.474
138.6176, 1919.297
139.0997, 1914.131
139.5818, 1896.112
140.0639, 1883.717
140.5460, 1891.456
141.0281, 1926.970
141.5103, 1965.607
141.9924, 2007.341
142.4745, 2053.159
142.9566, 2080.133
143.4387, 2062.920
143.9208, 2033.959
144.4030, 2030.574
144.8851, 2077.342
145.3672, 2115.590
145.8493, 2130.219
146.3314, 2112.285
146.8135, 2097.631
147.2957, 2077.651
147.7778, 2061.729
148.2599, 2069.074
148.7420, 2141.559
149.2241, 2202.208
149.7062, 2224.246
150.1883, 2150.449
150.6705, 2112.920
151.1526, 2140.026
151.6347, 2215.129
152.1168, 2269.748
152.5989, 2284.880
153.0810, 2284.813
153.5632, 2284.066
154.0453, 2282.261
154.5274, 2282.404
155.0095, 2284.888
155.4916, 2289.654
155.9737, 2297.002
156.4559, 2307.438
156.9380, 2320.233
157.4201, 2334.546
157.9022, 2356.922
158.3843, 2375.172
158.8664, 2381.453
159.3486, 2371.354
159.8307, 2366.198
160.3128, 2376.724
160.7949, 2397.050
161.2770, 2417.201
161.7591, 2435.814
162.2413, 2451.378
162.7234, 2462.780
163.2055, 2468.952
163.6876, 2472.584
164.1697, 2478.299
164.6518, 2483.552
165.1339, 2480.009
165.6161, 2453.644
166.0982, 2420.404
166.5803, 2395.987
167.0624, 2387.973
167.5445, 2387.040
168.0266, 2386.505
168.5088, 2386.644
168.9909, 2390.179
169.4730, 2412.203
169.9551, 2436.748
170.4372, 2439.923
170.9193, 2392.938
171.4015, 2330.444
171.8836, 2288.193
172.3657, 2268.040
172.8478, 2251.290
173.3299, 2224.543
173.8120, 2188.969
174.2942, 2147.589
174.7763, 2091.257
175.2584, 2032.830
175.7405, 1993.952
176.2226, 1979.215
176.7047, 1973.044
177.1869, 1957.986
177.6690, 1935.675
178.1511, 1914.329
178.6332, 1902.985
179.1153, 1896.196
179.5974, 1879.385
180.0796, 1845.972
180.5617, 1808.460
181.0438, 1786.984
181.5259, 1780.991
182.0080, 1778.001
182.4901, 1764.268
182.9722, 1744.153
183.4544, 1736.259
183.9365, 1751.713
184.4186, 1778.600
184.9007, 1787.466
185.3828, 1776.906
185.8649, 1763.045
186.3471, 1764.656
186.8292, 1779.451
187.3113, 1788.474
187.7934, 1781.908
188.2755, 1763.760
188.7576, 1748.995
189.2398, 1736.927
189.7219, 1730.985
190.2040, 1742.425
190.6861, 1771.252
191.1682, 1789.618
191.6503, 1777.103
192.1325, 1737.251
192.6146, 1715.254
193.0967, 1715.543
193.5788, 1727.531
194.0609, 1734.969
194.5430, 1738.240
195.0252, 1734.326
195.5073, 1717.542
195.9894, 1687.162
196.4715, 1666.055
196.9536, 1638.706
197.4357, 1656.741
197.9178, 1663.547
198.4000, 1659.726
198.8821, 1613.452
199.3642, 1621.998
199.8463, 1608.575
200.3284, 1594.251
200.8105, 1610.513
201.2927, 1570.413
201.7748, 1586.190
202.2569, 1579.662
202.7390, 1583.343
203.2211, 1564.918
203.7032, 1553.321
204.1854, 1563.835
204.6675, 1562.106
205.1496, 1541.137
205.6317, 1515.988
206.1138, 1516.521
206.5959, 1523.571
207.0781, 1529.488
207.5602, 1535.286
208.0423, 1536.238
208.5244, 1527.725
209.0065, 1507.861
209.4886, 1503.110
209.9708, 1520.154
210.4529, 1544.520
210.9350, 1553.367
211.4171, 1541.776
211.8992, 1526.682
212.3813, 1512.372
212.8635, 1496.879
213.3456, 1491.970
213.8277, 1503.333
214.3098, 1521.682
214.7919, 1524.615
215.2740, 1502.634
215.7561, 1484.434
216.2383, 1485.223
216.7204, 1513.478
217.2025, 1535.308
217.6846, 1549.831
218.1667, 1557.370
218.6488, 1559.007
219.1310, 1553.702
219.6131, 1544.191
220.0952, 1529.970
220.5773, 1505.362
221.0594, 1490.977
221.5415, 1489.178
222.0237, 1499.070
222.5058, 1518.131
222.9879, 1557.425
223.4700, 1591.228
223.9521, 1598.433
224.4342, 1559.693
224.9164, 1536.453
225.3985, 1542.362
225.8806, 1574.584
226.3627, 1591.904
226.8448, 1585.320
227.3270, 1573.701
227.8091, 1575.082
228.2912, 1601.184
228.7733, 1616.977
229.2554, 1612.908
229.7375, 1588.122
230.2197, 1572.026
230.7018, 1570.482
231.1839, 1572.484
231.6660, 1565.482
232.1481, 1542.201
232.6302, 1522.591
233.1123, 1511.758
233.5945, 1510.625
234.0766, 1511.159
234.5587, 1515.524
235.0408, 1519.946
235.5229, 1517.874
236.0050, 1500.104
236.4872, 1491.517
236.9693, 1503.795
237.4514, 1546.834
237.9335, 1568.359
238.4156, 1559.748
238.8977, 1534.555
239.3799, 1514.243
239.8620, 1497.592
240.3441, 1487.838
240.8262, 1488.021
241.3083, 1503.623
241.7904, 1511.350
242.2726, 1505.776
242.7547, 1494.574
243.2368, 1495.858
243.7189, 1521.872
244.2010, 1541.646
244.6831, 1540.242
245.1653, 1502.998
245.6474, 1479.679
246.1295, 1473.714
246.6116, 1480.822
247.0937, 1490.018
247.5758, 1502.614
248.0579, 1515.355
248.5401, 1527.621
249.0222, 1541.922
249.5043, 1549.246
249.9864, 1547.383
250.4685, 1538.454
250.9506, 1528.900
251.4328, 1514.066
251.9149, 1505.509
252.3970, 1511.453
252.8791, 1539.964
253.3612, 1563.504
253.8433, 1581.008
254.3255, 1592.319
254.8076, 1596.445
255.2897, 1589.946
255.7718, 1581.549
256.2539, 1576.884
256.7360, 1577.823
257.2181, 1577.711
257.7003, 1576.021
258.1824, 1572.762
258.6645, 1566.947
259.1466, 1554.628
259.6287, 1546.010
260.1108, 1551.135
260.5930, 1578.159
261.0751, 1594.019
261.5572, 1588.776
262.0393, 1566.930
262.5214, 1566.140
263.0035, 1598.468
263.4857, 1630.708
263.9678, 1631.618
264.4499, 1588.395
264.9320, 1557.179
265.4141, 1549.832
265.8962, 1563.467
266.3784, 1576.950
266.8605, 1591.182
267.3426, 1603.359
267.8247, 1611.465
268.3068, 1616.112
268.7889, 1613.333
269.2711, 1597.781
269.7532, 1572.407
270.2353, 1564.047
270.7174, 1575.709
271.1995, 1598.127
271.6816, 1626.564
272.1638, 1664.651
272.6459, 1689.963
273.1280, 1693.623
273.6101, 1678.522
274.0922, 1668.349
274.5743, 1661.432
275.0565, 1663.518
275.5386, 1687.840
276.0207, 1738.742
276.5028, 1773.299
276.9849, 1774.645
277.4670, 1748.463
277.9492, 1734.244
278.4313, 1733.257
278.9134, 1740.679
279.3955, 1751.946
279.8776, 1767.055
280.3597, 1786.606
280.8419, 1814.201
281.3240, 1847.293
281.8061, 1868.977
282.2882, 1878.467
282.7703, 1880.744
283.2524, 1878.869
283.7346, 1872.995
284.2167, 1869.251
284.6988, 1867.337
285.1809, 1869.002
285.6630, 1885.075
286.1451, 1917.656
286.6273, 1952.330
287.1094, 1972.487
287.5915, 1979.344
288.0736, 1984.382
288.5557, 1988.611
289.0378, 1994.220
289.5199, 2010.395
290.0020, 2038.176
290.4842, 2067.882
290.9663, 2089.405
291.4484, 2103.656
291.9305, 2116.203
292.4126, 2130.216
292.8947, 2143.674
293.3769, 2151.674
293.8590, 2153.996
294.3411, 2153.538
294.8232, 2149.088
295.3053, 2143.323
295.7874, 2145.197
296.2696, 2165.197
296.7517, 2192.741
297.2338, 2206.070
297.7159, 2204.931
298.1980, 2203.089
298.6801, 2216.799
299.1623, 2239.801
299.6444, 2256.917
300.1265, 2255.082
300.6086, 2247.410
301.0907, 2250.308
301.5728, 2263.735
302.0550, 2284.185
302.5371, 2316.285
303.0192, 2352.767
303.5013, 2379.985
303.9834, 2379.594
304.4655, 2375.269
304.9477, 2392.602
305.4298, 2431.403
305.9119, 2472.030
306.3940, 2508.800
306.8761, 2537.227
307.3582, 2550.384
307.8404, 2530.794
308.3225, 2505.914
308.8046, 2497.622
309.2867, 2505.489
309.7688, 2511.831
310.2509, 2497.151
310.7331, 2478.334
311.2152, 2474.551
311.6973, 2509.239
312.1794, 2546.509
312.6615, 2566.584
313.1436, 2570.092
313.6258, 2571.551
314.1079, 2577.626
314.5900, 2584.642
315.0721, 2589.180
315.5542, 2581.940
316.0363, 2579.824
316.5185, 2593.017
317.0006, 2620.232
317.4827, 2642.934
317.9648, 2652.404
318.4469, 2656.563
318.9290, 2661.606
319.4112, 2667.292
319.8933, 2675.625
320.3754, 2687.865
320.8575, 2703.698
321.3396, 2720.070
321.8217, 2731.702
322.3038, 2746.414
322.7859, 2769.178
323.2681, 2807.367
323.7502, 2846.210
324.2323, 2883.285
324.7144, 2919.090
325.1965, 2956.672
325.6786, 2994.614
326.1608, 3035.086
326.6429, 3078.985
327.1250, 3121.489
327.6071, 3173.914
328.0892, 3237.795
328.5714, 3312.423
329.0535, 3394.942
329.5356, 3493.817
330.0177, 3591.707
330.4998, 3680.333
330.9819, 3751.407
331.4641, 3829.569
331.9462, 3914.901
332.4283, 4007.621
332.9104, 4109.434
333.3925, 4225.772
333.8746, 4340.180
334.3568, 4443.525
334.8389, 4529.383
335.3210, 4623.604
335.8031, 4728.164
336.2852, 4840.968
336.7673, 4964.108
337.2495, 5102.869
337.7316, 5232.627
338.2137, 5341.005
338.6958, 5428.030
339.1779, 5499.303
339.6600, 5549.640
340.1422, 5591.560
340.6243, 5649.481
341.1064, 5725.686
341.5885, 5797.571
342.0706, 5849.246
342.5527, 5884.157
343.0349, 5928.887
343.5170, 5987.344
343.9991, 6046.692
344.4812, 6091.826
344.9633, 6122.671
345.4454, 6142.072
345.9276, 6150.995
346.4097, 6149.421
346.8918, 6133.476
347.3739, 6101.080
347.8560, 6067.914
348.3381, 6057.089
348.8203, 6060.971
349.3024, 6055.332
349.7845, 6056.125
350.2666, 6031.385
350.7487, 5935.214
351.2308, 5766.967
351.7130, 5541.328
352.1951, 5247.040
352.6772, 4906.494
353.1593, 4558.198
353.6414, 4190.772
354.1235, 3839.270
354.6056, 3535.172
355.0877, 3276.888
355.5699, 3043.668
356.0520, 2814.245
356.5341, 2606.256
357.0162, 2438.502
357.4983, 2344.307
357.9804, 2267.662
358.4626, 2177.158
358.9447, 2077.707
359.4268, 2001.611
359.9089, 1978.284
360.3910, 1974.057
360.8731, 1964.295
361.3553, 1940.818
361.8374, 1914.830
362.3195, 1888.555
362.8016, 1861.780
363.2837, 1833.706
363.7658, 1796.295
364.2480, 1763.327
364.7301, 1741.944
365.2122, 1740.708
365.6943, 1739.025
366.1764, 1736.303
366.6585, 1732.184
367.1407, 1725.971
367.6228, 1720.419
368.1049, 1709.894
368.5870, 1690.986
369.0691, 1657.504
369.5512, 1631.539
370.0334, 1614.812
370.5155, 1605.034
370.9976, 1599.751
371.4797, 1602.258
371.9618, 1602.792
372.4439, 1597.014
372.9261, 1583.605
373.4082, 1576.301
373.8903, 1577.252
374.3724, 1580.945
374.8545, 1578.997
375.3366, 1569.506
375.8188, 1565.497
376.3009, 1572.828
376.7830, 1589.274
377.2651, 1600.604
377.7472, 1606.553
378.2293, 1608.230
378.7115, 1606.385
379.1936, 1601.096
379.6757, 1592.234
380.1578, 1577.017
380.6399, 1560.437
381.1220, 1553.313
381.6042, 1555.623
382.0863, 1563.550
382.5684, 1578.277
383.0505, 1596.404
383.5326, 1609.064
384.0147, 1613.286
384.4969, 1613.504
384.9790, 1611.563
385.4611, 1609.042
385.9432, 1612.142
386.4253, 1634.601
386.9074, 1660.256
387.3895, 1668.309
387.8716, 1649.161
388.3538, 1631.440
388.8359, 1638.180
389.3180, 1660.781
389.8001, 1681.266
390.2822, 1689.528
390.7643, 1695.100
391.2465, 1701.341
391.7286, 1707.167
392.2107, 1722.184
392.6928, 1756.649
393.1749, 1800.312
393.6570, 1840.098
394.1392, 1873.123
394.6213, 1902.133
395.1034, 1920.869
395.5855, 1927.152
396.0676, 1955.735
396.5497, 2021.469
397.0319, 2104.660
397.5140, 2190.139
397.9961, 2275.212
398.4782, 2364.448
398.9603, 2459.407
399.4424, 2559.817
399.9246, 2659.627
400.4067, 2758.606
400.8888, 2858.284
401.3709, 2961.686
401.8530, 3072.533
402.3351, 3172.710
402.8173, 3261.170
403.2994, 3338.302
403.7815, 3403.999
404.2636, 3457.293
404.7457, 3503.703
405.2278, 3542.127
405.7100, 3572.431
406.1921, 3613.700
406.6742, 3666.114
407.1563, 3730.639
407.6384, 3816.410
408.1205, 3921.274
408.6027, 4020.578
409.0848, 4091.744
409.5669, 4150.856
410.0490, 4238.781
410.5311, 4355.695
411.0132, 4486.987
411.4954, 4618.632
411.9775, 4753.800
412.4596, 4902.168
412.9417, 5068.431
413.4238, 5247.798
413.9059, 5471.583
414.3881, 5723.743
414.8702, 5915.472
415.3523, 6008.809
415.8344, 6005.292
416.3165, 5902.213
416.7986, 5686.455
417.2808, 5391.517
417.7629, 4997.489
418.2450, 4534.453
418.7271, 4090.275
419.2092, 3674.960
419.6913, 3299.559
420.1734, 2974.588
420.6555, 2700.156
421.1377, 2468.705
421.6198, 2289.764
422.1019, 2150.256
422.5840, 2032.389
423.0661, 1934.305
423.5482, 1857.136
424.0304, 1806.658
424.5125, 1785.475
424.9946, 1757.015
425.4767, 1714.299
425.9588, 1672.397
426.4409, 1647.691
426.9231, 1649.000
427.4052, 1640.750
427.8873, 1613.264
428.3694, 1572.762
428.8515, 1546.369
429.3336, 1535.825
429.8158, 1532.068
430.2979, 1531.483
430.7800, 1533.711
431.2621, 1531.197
431.7442, 1521.869
432.2263, 1510.370
432.7085, 1504.839
433.1906, 1504.603
433.6727, 1504.392
434.1548, 1502.475
434.6369, 1498.522
435.1190, 1491.613
435.6012, 1481.633
436.0833, 1469.979
436.5654, 1452.453
437.0475, 1434.746
437.5296, 1427.130
438.0117, 1443.976
438.4939, 1464.057
438.9760, 1473.823
439.4581, 1473.683
439.9402, 1466.863
440.4223, 1449.254
440.9044, 1428.706
441.3866, 1411.565
441.8687, 1399.140
442.3508, 1389.999
442.8329, 1382.834
443.3150, 1378.616
443.7971, 1380.089
444.2793, 1397.575
444.7614, 1412.226
445.2435, 1415.623
445.7256, 1402.597
446.2077, 1394.148
446.6898, 1393.124
447.1720, 1394.914
447.6541, 1392.776
448.1362, 1381.748
448.6183, 1377.752
449.1004, 1388.083
449.5826, 1410.776
450.0647, 1419.502
450.5468, 1410.736
451.0289, 1398.399
451.5110, 1395.796
451.9931, 1402.940
452.4753, 1403.664
452.9574, 1392.136
453.4395, 1377.854
453.9216, 1383.040
454.4037, 1406.083
454.8858, 1427.313
455.3679, 1433.458
455.8500, 1430.097
456.3322, 1427.823
456.8143, 1427.355
457.2964, 1429.018
457.7785, 1435.404
458.2606, 1443.906
458.7427, 1449.867
459.2249, 1453.726
459.7070, 1452.456
460.1891, 1438.729
460.6712, 1413.915
461.1533, 1397.519
461.6354, 1404.961
462.1176, 1420.497
462.5997, 1432.035
463.0818, 1435.575
463.5639, 1436.764
464.0460, 1433.947
464.5281, 1429.177
465.0103, 1428.627
465.4924, 1431.089
465.9745, 1439.452
466.4566, 1457.443
466.9387, 1491.863
467.4208, 1511.111
467.9030, 1511.309
468.3851, 1500.082
468.8672, 1485.120
469.3493, 1464.274
469.8314, 1447.936
470.3135, 1437.948
470.7957, 1434.527
471.2778, 1441.566
471.7599, 1460.711
472.2420, 1479.067
472.7241, 1486.145
473.2062, 1483.249
473.6884, 1475.413
474.1705, 1460.230
474.6526, 1447.848
475.1347, 1457.055
475.6168, 1482.722
476.0989, 1505.359
476.5811, 1515.531
477.0632, 1516.573
477.5453, 1506.839
478.0274, 1485.247
478.5095, 1473.604
478.9916, 1502.449
479.4738, 1542.794
479.9559, 1561.394
480.4380, 1526.907
480.9201, 1489.703
481.4022, 1463.989
481.8843, 1449.291
482.3665, 1443.393
482.8486, 1453.017
483.3307, 1465.889
483.8128, 1476.644
484.2949, 1488.107
484.7770, 1491.407
485.2592, 1481.459
485.7413, 1466.011
486.2234, 1455.991
486.7055, 1450.336
487.1876, 1452.997
487.6697, 1468.069
488.1518, 1494.296
488.6339, 1512.383
489.1161, 1521.478
489.5982, 1525.610
490.0803, 1526.016
490.5624, 1523.386
491.0445, 1524.934
491.5266, 1533.203
492.0088, 1543.711
492.4909, 1550.319
492.9730, 1553.156
493.4551, 1553.333
493.9372, 1550.323
494.4193, 1545.548
494.9015, 1541.019
495.3836, 1536.968
495.8657, 1531.754
496.3478, 1517.787
496.8299, 1504.252
497.3120, 1501.819
497.7942, 1523.786
498.2763, 1547.600
498.7584, 1568.396
499.2405, 1585.398
499.7226, 1595.515
500.2047, 1589.235
500.6869, 1583.141
501.1690, 1585.911
501.6511, 1604.881
502.1332, 1616.542
502.6153, 1618.430
503.0974, 1614.632
503.5796, 1608.935
504.0617, 1596.723
504.5438, 1596.707
505.0259, 1619.820
505.5080, 1660.219
505.9901, 1677.082
506.4723, 1666.537
506.9544, 1653.633
507.4365, 1661.521
507.9186, 1685.743
508.4007, 1704.418
508.8828, 1714.635
509.3650, 1717.365
509.8471, 1707.612
510.3292, 1689.926
510.8113, 1678.770
511.2934, 1688.597
511.7755, 1703.826
512.2576, 1710.177
512.7397, 1706.917
513.2219, 1700.232
513.7040, 1690.179
514.1861, 1679.747
514.6682, 1671.634
515.1503, 1668.191
515.6324, 1665.125
516.1146, 1660.325
516.5967, 1655.107
517.0788, 1653.824
517.5609, 1667.925
518.0430, 1673.239
518.5251, 1659.159
519.0073, 1620.732
519.4894, 1592.057
519.9715, 1575.793
520.4536, 1564.979
520.9357, 1552.253
521.4178, 1537.201
521.9000, 1523.008
522.3821, 1509.544
522.8642, 1497.772
523.3463, 1490.801
523.8284, 1488.423
524.3105, 1487.825
524.7927, 1486.934
525.2748, 1486.678
525.7569, 1491.293
526.2390, 1502.338
526.7211, 1507.947
527.2032, 1492.594
527.6854, 1466.767
528.1675, 1446.136
528.6496, 1434.191
529.1317, 1430.559
529.6138, 1441.193
530.0959, 1462.195
530.5781, 1475.075
531.0602, 1465.827
531.5423, 1454.189
532.0244, 1451.043
532.5065, 1465.055
532.9886, 1468.018
533.4708, 1453.090
533.9529, 1431.692
534.4350, 1417.332
534.9171, 1409.432
535.3992, 1411.010
535.8813, 1428.379
536.3635, 1454.849
536.8456, 1459.081
537.3277, 1438.992
537.8098, 1414.247
538.2919, 1392.925
538.7740, 1377.187
539.2562, 1381.872
539.7383, 1413.302
540.2204, 1441.417
540.7025, 1426.547
541.1846, 1385.065
541.6667, 1351.682
542.1489, 1347.731
542.6310, 1351.032
543.1131, 1335.407
543.5952, 1345.927
544.0773, 1351.456
544.5594, 1352.262
545.0416, 1334.201
545.5237, 1340.503
546.0058, 1337.042
546.4879, 1333.180
546.9700, 1342.911
547.4521, 1327.594
547.9343, 1337.110
548.4164, 1336.713
548.8985, 1340.853
549.3806, 1335.169
549.8627, 1332.519
550.3448, 1339.697
550.8270, 1341.432
551.3091, 1334.617
551.7912, 1339.046
552.2733, 1323.385
552.7554, 1325.353
553.2375, 1330.258
553.7197, 1334.176
554.2018, 1331.564
554.6839, 1324.557
555.1660, 1318.440
555.6481, 1312.070
556.1302, 1310.182
556.6124, 1321.697
557.0945, 1343.130
557.5766, 1357.568
558.0587, 1345.998
558.5408, 1333.116
559.0229, 1335.500
559.5051, 1363.425
559.9872, 1384.613
560.4693, 1391.343
560.9514, 1391.304
561.4335, 1392.117
561.9156, 1391.560
562.3978, 1396.761
562.8799, 1413.713
563.3620, 1437.034
563.8441, 1440.058
564.3262, 1418.781
564.8083, 1396.327
565.2905, 1384.186
565.7726, 1381.956
566.2547, 1390.292
566.7368, 1411.184
567.2189, 1429.192
567.7010, 1419.910
568.1831, 1395.739
568.6652, 1383.163
569.1473, 1396.032
569.6295, 1417.037
570.1116, 1434.760
570.5937, 1449.846
571.0758, 1463.841
571.5579, 1483.750
572.0400, 1497.342
572.5222, 1495.988
573.0043, 1475.339
573.4864, 1457.737
573.9685, 1445.184
574.4506, 1436.453
574.9327, 1431.609
575.4149, 1434.463
575.8970, 1431.270
576.3791, 1416.599
576.8612, 1398.121
577.3433, 1391.168
577.8254, 1395.130
578.3076, 1417.692
578.7897, 1477.243
579.2718, 1558.719
579.7539, 1610.910
580.2360, 1634.315
580.7181, 1623.255
581.2003, 1543.178
581.6824, 1434.377
582.1645, 1360.317
582.6466, 1344.703
583.1287, 1342.458
583.6108, 1326.649
584.0930, 1305.224
584.5751, 1292.030
585.0572, 1295.056
585.5393, 1303.015
586.0214, 1315.429
586.5035, 1332.021
586.9857, 1341.688
587.4678, 1342.810
587.9499, 1338.821
588.4320, 1329.703
588.9141, 1312.461
589.3962, 1303.951
589.8784, 1306.568
590.3605, 1313.639
590.8426, 1315.485
591.3247, 1312.637
591.8068, 1311.781
592.2889, 1316.253
592.7711, 1322.426
593.2532, 1326.607
593.7353, 1328.052
594.2174, 1323.193
594.6995, 1299.692
595.1816, 1275.590
595.6638, 1269.561
596.1459, 1286.014
596.6280, 1298.661
597.1101, 1290.115
597.5922, 1276.974
598.0743, 1274.365
598.5565, 1298.426
599.0386, 1315.156
599.5207, 1320.593
600.0028, 1318.128
600.4849, 1315.263
600.9670, 1311.952
601.4492, 1308.334
601.9313, 1304.313
602.4134, 1299.965
602.8955, 1296.088
603.3776, 1292.769
603.8597, 1288.921
604.3419, 1280.396
604.8240, 1270.976
605.3061, 1270.397
605.7882, 1281.475
606.2703, 1296.268
606.7524, 1313.035
607.2346, 1327.653
607.7167, 1333.138
608.1988, 1313.921
608.6809, 1298.245
609.1630, 1298.314
609.6451, 1312.107
610.1273, 1327.346
610.6094, 1353.281
611.0915, 1369.379
611.5736, 1364.108
612.0557, 1330.708
612.5378, 1314.522
613.0200, 1318.179
613.5021, 1333.811
613.9842, 1362.449
614.4663, 1402.940
614.9484, 1413.948
615.4305, 1378.860
615.9127, 1332.253
616.3948, 1335.554
616.8769, 1374.555
617.3590, 1401.351
617.8411, 1376.554
618.3232, 1340.476
618.8054, 1330.709
619.2875, 1333.720
619.7696, 1344.461
620.2517, 1350.211
620.7338, 1351.239
621.2159, 1333.398
621.6981, 1339.922
622.1802, 1336.682
622.6623, 1333.041
623.1444, 1342.993
623.6265, 1327.897
624.1086, 1337.635
624.5908, 1337.458
625.0729, 1341.820
625.5550, 1336.356
626.0371, 1333.928
626.5192, 1341.326
627.0013, 1343.284
627.4835, 1338.103
627.9656, 1341.482
628.4477, 1345.033
628.9298, 1348.678
629.4119, 1350.450
629.8940, 1350.940
630.3762, 1347.868
630.8583, 1336.479
631.3404, 1306.470
631.8225, 1290.893
632.3046, 1312.842
632.7867, 1349.605
633.2689, 1369.882
633.7510, 1363.004
634.2330, 1355.561
634.7151, 1351.710
635.1973, 1350.082
635.6794, 1344.740
636.1615, 1334.666
636.6436, 1327.031
637.1257, 1326.930
637.6078, 1332.541
638.0900, 1337.063
638.5721, 1340.580
639.0542, 1341.010
639.5363, 1331.588
640.0184, 1319.783
640.5005, 1316.868
640.9827, 1327.710
641.4648, 1340.321
641.9469, 1351.994
642.4290, 1360.781
642.9111, 1364.143
643.3932, 1353.575
643.8754, 1346.607
644.3575, 1346.791
644.8396, 1352.904
645.3217, 1360.665
645.8038, 1372.295
646.2859, 1380.036
646.7681, 1379.433
647.2502, 1371.169
647.7323, 1361.996
648.2144, 1351.313
648.6965, 1344.952
649.1786, 1354.280
649.6608, 1370.722
650.1429, 1374.556
650.6250, 1358.572
651.1071, 1343.408
651.5892, 1344.503
652.0714, 1356.332
652.5535, 1370.774
653.0356, 1399.314
653.5177, 1415.128
653.9998, 1402.333
654.4819, 1369.112
654.9641, 1349.083
655.4462, 1347.447
655.9283, 1350.466
656.4104, 1355.292
656.8925, 1361.646
657.3746, 1358.172
657.8568, 1342.763
658.3389, 1330.300
658.8210, 1336.835
659.3031, 1356.309
659.7852, 1370.669
660.2673, 1377.514
660.7495, 1379.934
661.2316, 1377.122
661.7137, 1372.738
662.1958, 1372.067
662.6779, 1384.447
663.1600, 1392.666
663.6422, 1387.390
664.1243, 1373.184
664.6064, 1364.477
665.0885, 1365.901
665.5706, 1367.524
666.0527, 1367.827
666.5349, 1366.542
667.0170, 1357.769
667.4991, 1339.276
667.9812, 1322.856
668.4633, 1313.982
668.9454, 1313.751
669.4276, 1332.043
669.9097, 1371.978
670.3918, 1408.115
670.8739, 1411.285
671.3560, 1396.908
671.8381, 1386.008
672.3203, 1357.588
672.8024, 1385.709
673.2845, 1402.600
673.7666, 1408.865
674.2487, 1372.676
674.7308, 1391.307
675.2130, 1387.970
675.6951, 1383.731
676.1772, 1410.078
676.6593, 1380.064
677.1414, 1405.926
677.6235, 1409.483
678.1057, 1423.249
678.5878, 1414.910
679.0699, 1413.398
679.5520, 1433.998
680.0341, 1442.354
680.5162, 1431.470
680.9984, 1445.885
681.4805, 1415.100
681.9626, 1423.977
682.4447, 1449.968
682.9268, 1445.090
683.4089, 1458.784
683.8911, 1468.550
684.3732, 1468.246
684.8553, 1470.461
685.3374, 1479.069
685.8195, 1489.827
686.3016, 1490.903
686.7838, 1480.137
687.2659, 1469.782
687.7480, 1464.727
688.2301, 1463.260
688.7122, 1458.889
689.1943, 1452.110
689.6765, 1448.484
690.1586, 1455.692
690.6407, 1466.091
691.1228, 1470.120
691.6049, 1466.263
692.0870, 1464.021
692.5692, 1467.882
693.0513, 1474.915
693.5334, 1483.348
694.0155, 1504.402
694.4976, 1506.765
694.9797, 1479.947
695.4619, 1443.404
695.9440, 1423.655
696.4261, 1422.232
696.9082, 1427.769
697.3903, 1442.133
697.8724, 1456.162
698.3546, 1446.545
698.8367, 1418.455
699.3188, 1395.793
699.8009, 1396.673
700.2830, 1404.401
700.7651, 1403.546
701.2472, 1395.287
701.7293, 1390.614
702.2114, 1400.419
702.6935, 1409.215
703.1757, 1409.171
703.6578, 1399.805
704.1399, 1381.970
704.6220, 1346.134
705.1041, 1316.331
705.5862, 1318.966
706.0684, 1355.212
706.5505, 1367.733
707.0326, 1347.404
707.5147, 1317.140
707.9968, 1300.903
708.4789, 1296.195
708.9611, 1288.584
709.4432, 1299.899
709.9253, 1306.222
710.4074, 1307.823
710.8895, 1290.556
711.3716, 1297.653
711.8538, 1294.986
712.3359, 1291.918
712.8180, 1302.445
713.3001, 1287.922
713.7822, 1298.232
714.2643, 1298.630
714.7465, 1303.564
715.2286, 1298.674
715.7107, 1296.819
716.1928, 1304.791
716.6749, 1307.321
717.1570, 1301.300
717.6392, 1306.523
718.1213, 1291.657
718.6034, 1294.419
719.0855, 1304.787
719.5676, 1299.260
720.0497, 1304.663
720.5319, 1305.903
721.0140, 1288.226
721.4961, 1303.447
721.9782, 1304.441
722.4603, 1290.827
722.9424, 1304.921
723.4246, 1293.320
723.9067, 1290.891
724.3888, 1295.364
724.8709, 1292.642
725.3530, 1301.264
725.8351, 1298.957
726.3173, 1295.674
726.7994, 1296.652
727.2815, 1285.555
727.7636, 1296.860
728.2457, 1292.862
728.7278, 1296.471
729.2100, 1301.804
729.6921, 1293.935
730.1742, 1300.043
730.6563, 1284.477
731.1384, 1287.047
731.6205, 1287.663
732.1027, 1299.870
732.5848, 1284.410
733.0669, 1286.475
733.5490, 1296.002
734.0311, 1295.089
734.5132, 1298.540
734.9954, 1289.068
735.4775, 1291.737
735.9596, 1291.059
736.4417, 1301.945
736.9238, 1303.702
737.4059, 1294.450
737.8881, 1285.244
738.3702, 1296.962
738.8523, 1288.848
739.3344, 1291.433
739.8165, 1282.969
740.2986, 1284.045
740.7808, 1284.970
741.2629, 1290.785
741.7450, 1281.771
742.2271, 1291.993
742.7092, 1291.097
743.1913, 1293.476
743.6735, 1295.491
744.1556, 1282.586
744.6377, 1281.911
745.1198, 1298.738
745.6019, 1288.875
746.0840, 1284.399
746.5662, 1283.752
747.0483, 1301.178
747.5304, 1301.805
748.0125, 1282.353
748.4946, 1298.983
748.9767, 1293.414
749.4589, 1294.443
749.9410, 1293.064
750.4231, 1292.398
750.9052, 1282.669
751.3873, 1284.883
751.8694, 1296.807
752.3516, 1292.177
752.8337, 1298.795
753.3158, 1284.913
753.7979, 1283.200
754.2800, 1284.716
754.7621, 1287.411
755.2443, 1280.693
755.7264, 1292.799
756.2085, 1292.371
756.6906, 1281.083
757.1727, 1281.576
757.6548, 1280.113
758.1370, 1301.137
758.6191, 1312.843
759.1012, 1304.514
759.5833, 1280.317
760.0654, 1262.986
760.5475, 1268.149
761.0297, 1280.697
761.5118, 1289.609
761.9939, 1294.431
762.4760, 1293.765
762.9581, 1278.767
763.4402, 1266.294
763.9224, 1267.021
764.4045, 1279.525
764.8866, 1279.250
765.3687, 1260.224
765.8508, 1243.380
766.3329, 1241.154
766.8150, 1251.772
767.2971, 1262.374
767.7792, 1273.026
768.2614, 1280.572
768.7435, 1284.067
769.2256, 1282.171
769.7077, 1270.686
770.1898, 1246.832
770.6719, 1227.807
771.1541, 1217.322
771.6362, 1216.268
772.1183, 1226.745
772.6004, 1261.073
773.0825, 1278.188
773.5646, 1271.891
774.0468, 1258.933
774.5289, 1263.587
775.0110, 1283.055
775.4931, 1287.967
775.9752, 1269.134
776.4573, 1244.847
776.9395, 1234.357
777.4216, 1232.451
777.9037, 1230.210
778.3858, 1221.102
778.8679, 1215.016
779.3500, 1216.237
779.8322, 1222.712
780.3143, 1229.743
780.7964, 1238.490
781.2785, 1245.624
781.7606, 1251.250
782.2427, 1254.330
782.7249, 1248.677
783.2070, 1235.289
783.6891, 1227.318
784.1712, 1237.415
784.6533, 1252.209
785.1354, 1257.335
785.6176, 1253.578
786.0997, 1244.601
786.5818, 1219.427
787.0639, 1201.084
787.5460, 1204.281
788.0281, 1228.279
788.5103, 1246.620
788.9924, 1259.822
789.4745, 1265.769
789.9566, 1258.270
790.4387, 1240.410
790.9208, 1240.935
791.4030, 1260.103
791.8851, 1276.960
792.3672, 1272.596
792.8493, 1258.731
793.3314, 1247.042
793.8135, 1238.387
794.2957, 1235.764
794.7778, 1249.668
795.2599, 1263.008
795.7420, 1262.516
796.2241, 1241.405
796.7062, 1228.319
797.1884, 1223.448
797.6705, 1226.422
798.1526, 1243.761
798.6347, 1270.810
799.1168, 1278.866
799.5989, 1260.677
800.0811, 1240.707
800.5632, 1244.485
801.0453, 1258.403
801.5274, 1264.652
802.0095, 1253.538
802.4916, 1243.241
802.9738, 1238.650
803.4559, 1236.392
803.9380, 1232.204
804.4201, 1224.704
804.9022, 1219.971
805.3843, 1218.057
805.8665, 1220.707
806.3486, 1237.487
806.8307, 1262.521
807.3128, 1273.792
807.7949, 1255.684
808.2770, 1233.481
808.7592, 1225.875
809.2413, 1228.299
809.7234, 1231.680
810.2055, 1231.511
810.6876, 1235.228
811.1697, 1246.866
811.6519, 1262.136
812.1340, 1270.245
812.6161, 1271.238
813.0982, 1263.293
813.5803, 1238.886
814.0624, 1211.713
814.5446, 1213.719
815.0267, 1237.764
815.5088, 1259.056
815.9909, 1261.912
816.4730, 1261.136
816.9551, 1266.839
817.4373, 1277.393
817.9194, 1279.758
818.4015, 1270.298
818.8836, 1257.046
819.3657, 1239.437
819.8478, 1220.033
820.3300, 1214.530
820.8121, 1223.127
821.2942, 1233.981
821.7763, 1240.086
822.2584, 1244.265
822.7405, 1252.962
823.2227, 1265.077
823.7048, 1270.196
824.1869, 1253.599
824.6690, 1237.630
825.1511, 1237.028
825.6332, 1252.644
826.1154, 1256.764
826.5975, 1243.973
827.0796, 1233.174
827.5617, 1238.295
828.0438, 1255.755
828.5259, 1268.654
829.0081, 1276.700
829.4902, 1276.995
829.9723, 1254.007
830.4544, 1230.902
830.9365, 1234.640
831.4186, 1272.065
831.9007, 1295.711
832.3828, 1282.763
832.8649, 1263.784
833.3470, 1253.165
833.8292, 1251.421
834.3113, 1257.321
834.7934, 1273.609
835.2755, 1283.370
835.7576, 1261.032
836.2397, 1223.702
836.7219, 1209.591
837.2040, 1223.830
837.6861, 1244.303
838.1682, 1264.487
838.6503, 1280.958
839.1324, 1291.477
839.6146, 1296.235
840.0967, 1291.900
840.5788, 1274.152
841.0609, 1254.039
841.5430, 1239.425
842.0251, 1230.424
842.5073, 1231.830
842.9894, 1245.164
843.4715, 1258.578
843.9536, 1257.648
844.4357, 1251.785
844.9178, 1255.321
845.4000, 1277.813
845.8821, 1287.274
846.3642, 1257.787
846.8463, 1223.603
847.3284, 1214.116
847.8105, 1238.079
848.2927, 1250.226
848.7748, 1246.473
849.2569, 1238.343
849.7390, 1239.717
850.2211, 1246.704
850.7032, 1247.746
851.1854, 1238.459
851.6675, 1233.738
852.1496, 1249.773
852.6317, 1271.761
853.1138, 1284.883
853.5959, 1281.436
854.0781, 1278.983
854.5602, 1279.141
855.0423, 1278.082
855.5244, 1268.125
856.0065, 1250.709
856.4886, 1246.567
856.9708, 1261.298
857.4529, 1276.092
857.9350, 1268.097
858.4171, 1250.378
858.8992, 1240.748
859.3813, 1248.619
859.8635, 1254.242
860.3456, 1249.941
860.8277, 1243.344
861.3098, 1240.782
861.7919, 1242.394
862.2740, 1248.810
862.7562, 1261.942
863.2383, 1273.784
863.7204, 1272.081
864.2025, 1262.085
864.6846, 1255.197
865.1667, 1254.532
865.6489, 1255.574
866.1310, 1257.239
866.6131, 1258.687
867.0952, 1259.078
867.5773, 1259.778
868.0594, 1255.658
868.5416, 1243.211
869.0237, 1232.057
869.5058, 1238.304
869.9879, 1257.834
870.4700, 1267.043
870.9521, 1260.799
871.4343, 1250.250
871.9164, 1241.658
872.3985, 1235.895
872.8806, 1234.171
873.3627, 1238.692
873.8448, 1243.815
874.3270, 1251.256
874.8091, 1256.830
875.2912, 1254.647
875.7733, 1244.178
876.2554, 1238.634
876.7375, 1239.711
877.2197, 1243.548
877.7018, 1245.019
878.1839, 1246.844
878.6660, 1255.411
879.1481, 1277.496
879.6302, 1288.944
880.1124, 1266.881
880.5945, 1240.438
881.0766, 1237.217
881.5587, 1268.453
882.0408, 1279.796
882.5229, 1264.962
883.0051, 1245.446
883.4872, 1248.905
883.9693, 1265.214
884.4514, 1268.357
884.9335, 1251.982
885.4156, 1237.278
885.8978, 1239.049
886.3799, 1246.853
886.8620, 1251.043
887.3441, 1247.655
887.8262, 1250.595
888.3083, 1263.656
888.7905, 1275.451
889.2726, 1272.198
889.7547, 1257.803
890.2368, 1254.427
890.7189, 1264.815
891.2010, 1271.282
891.6832, 1250.229
892.1653, 1224.950
892.6474, 1218.767
893.1295, 1241.753
893.6116, 1256.113
894.0938, 1253.653
894.5759, 1249.621
895.0580, 1256.833
895.5401, 1274.742
896.0222, 1276.905
896.5043, 1262.357
896.9865, 1246.275
897.4685, 1239.806
897.9506, 1239.458
898.4327, 1243.074
898.9149, 1250.758
899.3970, 1255.608
899.8791, 1250.640
900.3612, 1247.395
900.8433, 1251.952
901.3254, 1264.505
901.8076, 1275.015
902.2897, 1283.560
902.7718, 1287.838
903.2539, 1284.874
903.7360, 1277.220
904.2181, 1265.519
904.7003, 1250.826
905.1824, 1242.552
905.6645, 1250.332
906.1466, 1260.153
906.6287, 1265.763
907.1108, 1267.464
907.5930, 1270.619
908.0751, 1276.430
908.5572, 1276.797
909.0393, 1263.084
909.5214, 1243.256
910.0035, 1230.975
910.4857, 1226.249
910.9678, 1229.085
911.4499, 1250.632
911.9320, 1268.693
912.4141, 1269.075
912.8962, 1256.193
913.3784, 1251.607
913.8605, 1257.133
914.3426, 1264.693
914.8247, 1272.000
915.3068, 1279.303
915.7889, 1289.709
916.2711, 1301.026
916.7532, 1305.302
917.2353, 1288.116
917.7174, 1274.245
918.1995, 1282.834
918.6816, 1303.126
919.1638, 1306.216
919.6459, 1280.747
920.1280, 1265.495
920.6101, 1270.869
921.0922, 1284.981
921.5743, 1285.321
922.0565, 1275.648
922.5386, 1269.699
923.0207, 1275.250
923.5028, 1279.839
923.9849, 1271.451
924.4670, 1258.537
924.9492, 1254.358
925.4313, 1263.485
925.9134, 1274.344
926.3955, 1288.282
926.8776, 1299.878
927.3597, 1299.091
927.8419, 1289.060
928.3240, 1283.405
928.8061, 1285.060
929.2882, 1288.760
929.7703, 1290.962
930.2524, 1292.964
930.7346, 1296.484
931.2167, 1304.803
931.6988, 1306.429
932.1809, 1297.642
932.6630, 1288.888
933.1451, 1291.300
933.6273, 1302.329
934.1094, 1309.205
934.5915, 1311.159
935.0736, 1307.047
935.5557, 1288.638
936.0378, 1269.125
936.5200, 1260.581
937.0021, 1266.194
937.4842, 1267.576
937.9663, 1259.050
938.4484, 1255.757
938.9305, 1271.850
939.4127, 1301.106
939.8948, 1303.518
940.3769, 1281.557
940.8590, 1259.453
941.3411, 1250.256
941.8232, 1248.773
942.3054, 1252.110
942.7875, 1260.077
943.2696, 1272.968
943.7517, 1298.171
944.2338, 1313.078
944.7159, 1306.486
945.1981, 1288.315
945.6802, 1290.043
946.1623, 1307.970
946.6444, 1320.224
947.1265, 1313.562
947.6086, 1301.116
948.0908, 1286.554
948.5729, 1273.437
949.0550, 1270.622
949.5371, 1286.770
950.0192, 1297.626
950.5013, 1298.815
950.9835, 1295.306
951.4656, 1294.116
951.9477, 1295.245
952.4298, 1299.588
952.9119, 1309.041
953.3940, 1316.502
953.8762, 1318.061
954.3583, 1314.053
954.8404, 1303.965
955.3225, 1280.302
955.8046, 1267.543
956.2867, 1269.288
956.7689, 1274.474
957.2510, 1271.862
957.7331, 1263.774
958.2152, 1257.137
958.6973, 1252.431
959.1794, 1254.739
959.6616, 1276.895
960.1437, 1300.286
960.6258, 1310.288
961.1079, 1304.905
961.5900, 1296.595
962.0721, 1283.295
962.5543, 1273.340
963.0364, 1273.077
963.5184, 1279.401
964.0005, 1281.987
964.4827, 1281.979
964.9648, 1286.059
965.4469, 1303.726
965.9290, 1320.621
966.4111, 1332.325
966.8932, 1337.160
967.3754, 1327.835
967.8575, 1297.865
968.3396, 1277.693
968.8217, 1277.319
969.3038, 1288.528
969.7859, 1301.855
970.2681, 1314.343
970.7502, 1318.405
971.2323, 1301.799
971.7144, 1289.749
972.1965, 1298.121
972.6786, 1312.777
973.1608, 1313.442
973.6429, 1295.056
974.1250, 1289.747
974.6071, 1302.621
975.0892, 1319.631
975.5714, 1325.752
976.0535, 1324.683
976.5356, 1322.167
977.0177, 1319.220
977.4998, 1314.440
977.9819, 1306.321
978.4641, 1297.051
978.9462, 1286.755
979.4283, 1275.269
979.9104, 1270.005
980.3925, 1271.126
980.8746, 1277.263
981.3568, 1291.651
981.8389, 1307.780
982.3210, 1318.550
982.8031, 1324.076
983.2852, 1326.897
983.7673, 1326.304
984.2495, 1324.292
984.7316, 1319.554
985.2137, 1314.594
985.6958, 1320.110
986.1779, 1334.696
986.6600, 1342.805
987.1422, 1335.556
987.6243, 1324.561
988.1064, 1319.419
988.5885, 1317.896
989.0706, 1316.481
989.5527, 1313.826
990.0349, 1312.227
990.5170, 1311.201
990.9991, 1312.244
991.4812, 1318.763
991.9633, 1329.291
992.4454, 1338.319
992.9276, 1345.724
993.4097, 1346.911
993.8918, 1334.311
994.3739, 1317.390
994.8560, 1302.721
995.3381, 1290.327
995.8203, 1282.432
996.3024, 1278.518
996.7845, 1280.420
997.2666, 1292.772
997.7487, 1310.619
998.2308, 1323.866
998.7130, 1332.397
999.1951, 1336.156
999.6772, 1333.839
1000.159, 1328.038
1000.641, 1315.616
1001.124, 1301.338
1001.606, 1298.122
1002.088, 1306.905
1002.570, 1318.415
1003.052, 1331.396
1003.534, 1343.146
1004.016, 1353.827
1004.498, 1359.747
1004.980, 1354.242
1005.463, 1325.296
1005.945, 1303.055
1006.427, 1290.053
1006.909, 1286.202
1007.391, 1295.362
1007.873, 1316.255
1008.355, 1326.193
1008.837, 1323.618
1009.320, 1322.016
1009.802, 1341.167
1010.284, 1359.333
1010.766, 1352.381
1011.248, 1317.624
1011.730, 1299.900
1012.212, 1305.601
1012.694, 1317.261
1013.176, 1332.443
1013.659, 1345.517
1014.141, 1335.737
1014.623, 1309.316
1015.105, 1288.815
1015.587, 1282.568
1016.069, 1286.636
1016.551, 1311.779
1017.033, 1341.533
1017.516, 1346.656
1017.998, 1321.091
1018.480, 1299.585
1018.962, 1284.672
1019.444, 1281.495
1019.926, 1309.326
1020.408, 1347.144
1020.890, 1361.212
1021.372, 1340.287
1021.855, 1324.822
1022.337, 1324.904
1022.819, 1332.725
1023.301, 1349.522
1023.783, 1372.958
1024.265, 1369.124
1024.747, 1339.813
1025.229, 1317.704
1025.711, 1334.067
1026.194, 1355.287
1026.676, 1351.128
1027.158, 1329.592
1027.640, 1322.969
1028.122, 1344.000
1028.604, 1352.889
1029.086, 1338.054
1029.568, 1315.469
1030.051, 1314.439
1030.533, 1326.589
1031.015, 1328.987
1031.497, 1309.779
1031.979, 1298.676
1032.461, 1320.620
1032.943, 1346.913
1033.425, 1353.940
1033.907, 1338.307
1034.390, 1329.470
1034.872, 1327.824
1035.354, 1327.151
1035.836, 1319.529
1036.318, 1312.472
1036.800, 1317.050
1037.282, 1331.511
1037.764, 1341.387
1038.246, 1341.655
1038.729, 1340.135
1039.211, 1338.386
1039.693, 1336.151
1040.175, 1330.678
1040.657, 1323.816
1041.139, 1323.729
1041.621, 1336.490
1042.103, 1348.571
1042.586, 1349.706
1043.068, 1347.339
1043.550, 1350.446
1044.032, 1362.364
1044.514, 1367.436
1044.996, 1364.510
1045.478, 1360.457
1045.960, 1365.220
1046.443, 1370.448
1046.925, 1357.833
1047.407, 1329.283
1047.889, 1315.022
1048.371, 1343.511
1048.853, 1364.770
1049.335, 1361.830
1049.817, 1344.119
1050.299, 1340.558
1050.781, 1348.933
1051.264, 1353.656
1051.746, 1346.578
1052.228, 1340.177
1052.710, 1345.462
1053.192, 1355.674
1053.674, 1362.184
1054.156, 1364.502
1054.638, 1363.224
1055.121, 1357.927
1055.603, 1350.549
1056.085, 1341.555
1056.567, 1332.162
1057.049, 1324.413
1057.531, 1318.323
1058.013, 1312.381
1058.495, 1299.567
1058.978, 1295.334
1059.460, 1308.391
1059.942, 1331.613
1060.424, 1339.356
1060.906, 1333.781
1061.388, 1331.423
1061.870, 1338.246
1062.352, 1349.502
1062.834, 1368.831
1063.317, 1386.835
1063.799, 1389.540
1064.281, 1368.210
1064.763, 1356.788
1065.245, 1357.749
1065.727, 1359.679
1066.209, 1350.385
1066.691, 1336.109
1067.173, 1325.551
1067.656, 1319.527
1068.138, 1320.609
1068.620, 1339.635
1069.102, 1353.746
1069.584, 1352.944
1070.066, 1344.730
1070.548, 1354.318
1071.030, 1378.155
1071.512, 1391.902
1071.995, 1388.038
1072.477, 1372.265
1072.959, 1333.857
1073.441, 1293.746
1073.923, 1276.322
1074.405, 1285.021
1074.887, 1308.539
1075.369, 1351.254
1075.852, 1386.395
1076.334, 1388.003
1076.816, 1371.638
1077.298, 1356.780
1077.780, 1344.737
1078.262, 1338.599
1078.744, 1341.876
1079.226, 1349.183
1079.708, 1363.480
1080.191, 1377.402
1080.673, 1368.704
1081.155, 1344.174
1081.637, 1336.390
1082.119, 1360.296
1082.601, 1380.911
1083.083, 1369.928
1083.565, 1351.201
1084.047, 1346.463
1084.530, 1358.185
1085.012, 1366.365
1085.494, 1370.965
1085.976, 1372.455
1086.458, 1367.441
1086.940, 1362.204
1087.422, 1364.978
1087.904, 1373.904
1088.387, 1381.624
1088.869, 1387.523
1089.351, 1390.494
1089.833, 1388.691
1090.315, 1386.997
1090.797, 1397.781
1091.279, 1414.157
1091.761, 1416.619
1092.244, 1399.624
1092.726, 1381.537
1093.208, 1367.514
1093.690, 1357.694
1094.172, 1351.715
1094.654, 1349.666
1095.136, 1354.611
1095.618, 1366.153
1096.100, 1376.344
1096.583, 1384.044
1097.065, 1385.759
1097.547, 1368.267
1098.029, 1345.458
1098.511, 1347.619
1098.993, 1389.547
1099.475, 1414.754
1099.957, 1417.314
1100.439, 1408.736
1100.922, 1394.973
1101.404, 1381.219
1101.886, 1378.983
1102.368, 1389.194
1102.850, 1389.848
1103.332, 1362.351
1103.814, 1343.745
1104.296, 1348.562
1104.779, 1368.671
1105.261, 1385.145
1105.743, 1397.072
1106.225, 1399.437
1106.707, 1384.142
1107.189, 1371.035
1107.671, 1373.286
1108.153, 1379.318
1108.635, 1376.098
1109.118, 1361.268
1109.600, 1362.805
1110.082, 1381.799
1110.564, 1398.242
1111.046, 1396.204
1111.528, 1386.483
1112.010, 1374.384
1112.492, 1362.181
1112.974, 1358.125
1113.457, 1364.812
1113.939, 1373.182
1114.421, 1382.756
1114.903, 1389.704
1115.385, 1385.326
1115.867, 1375.575
1116.349, 1370.734
1116.831, 1374.055
1117.314, 1375.698
1117.796, 1369.992
1118.278, 1368.214
1118.760, 1380.471
1119.242, 1400.067
1119.724, 1394.679
1120.206, 1370.833
1120.688, 1357.328
1121.171, 1383.071
1121.653, 1404.316
1122.135, 1396.306
1122.617, 1379.462
1123.099, 1379.657
1123.581, 1397.514
1124.063, 1403.970
1124.545, 1396.387
1125.027, 1384.552
1125.510, 1370.947
1125.992, 1361.057
1126.474, 1360.722
1126.956, 1369.509
1127.438, 1377.956
1127.920, 1386.507
1128.402, 1392.814
1128.884, 1396.029
1129.366, 1397.273
1129.849, 1396.165
1130.331, 1394.918
1130.813, 1397.223
1131.295, 1405.861
1131.777, 1412.610
1132.259, 1416.189
1132.741, 1419.646
1133.223, 1426.837
1133.705, 1435.083
1134.188, 1436.352
1134.670, 1431.527
1135.152, 1424.059
1135.634, 1407.811
1136.116, 1399.746
1136.598, 1408.618
1137.080, 1422.046
1137.562, 1421.991
1138.045, 1410.410
1138.527, 1397.909
1139.009, 1385.488
1139.491, 1380.526
1139.973, 1398.990
1140.455, 1416.194
1140.937, 1411.461
1141.419, 1391.426
1141.901, 1396.893
1142.384, 1428.510
1142.866, 1443.368
1143.348, 1418.306
1143.830, 1389.959
1144.312, 1397.449
1144.794, 1419.029
1145.276, 1426.646
1145.758, 1413.497
1146.240, 1404.409
1146.723, 1398.572
1147.205, 1400.677
1147.687, 1424.637
1148.169, 1451.129
1148.651, 1448.607
1149.133, 1425.772
1149.615, 1411.844
1150.097, 1415.441
1150.580, 1424.920
1151.062, 1442.457
1151.544, 1457.892
1152.026, 1455.513
1152.508, 1442.669
1152.990, 1433.616
1153.472, 1430.071
1153.954, 1428.243
1154.437, 1423.858
1154.919, 1425.709
1155.401, 1440.115
1155.883, 1459.876
1156.365, 1464.325
1156.847, 1456.834
1157.329, 1448.647
1157.811, 1440.618
1158.293, 1439.225
1158.776, 1458.913
1159.258, 1476.007
1159.740, 1469.551
1160.222, 1441.047
1160.704, 1435.223
1161.186, 1450.019
1161.668, 1460.689
1162.150, 1443.254
1162.632, 1426.903
1163.115, 1430.264
1163.597, 1445.441
1164.079, 1460.561
1164.561, 1476.596
1165.043, 1481.132
1165.525, 1472.115
1166.007, 1460.502
1166.489, 1450.512
1166.972, 1446.219
1167.454, 1457.899
1167.936, 1482.097
1168.418, 1481.775
1168.900, 1450.678
1169.382, 1426.145
1169.864, 1417.963
1170.346, 1422.039
1170.828, 1441.958
1171.311, 1467.005
1171.793, 1483.604
1172.275, 1487.152
1172.757, 1489.865
1173.239, 1492.488
1173.721, 1492.210
1174.203, 1486.409
1174.685, 1477.608
1175.167, 1465.953
1175.650, 1455.417
1176.132, 1455.314
1176.614, 1485.175
1177.096, 1498.791
1177.578, 1488.832
1178.060, 1473.439
1178.542, 1469.007
1179.024, 1472.290
1179.507, 1477.701
1179.989, 1484.296
1180.471, 1487.891
1180.953, 1484.695
1181.435, 1481.418
1181.917, 1480.350
1182.399, 1478.920
1182.881, 1468.077
1183.364, 1453.373
1183.846, 1456.182
1184.328, 1481.717
1184.810, 1501.298
1185.292, 1501.235
1185.774, 1492.106
1186.256, 1473.736
1186.738, 1452.355
1187.220, 1455.666
1187.703, 1477.713
1188.185, 1490.315
1188.667, 1479.442
1189.149, 1468.303
1189.631, 1467.253
1190.113, 1471.468
1190.595, 1478.353
1191.077, 1487.751
1191.559, 1494.594
1192.042, 1498.904
1192.524, 1500.528
1193.006, 1496.552
1193.488, 1492.985
1193.970, 1491.751
1194.452, 1493.645
1194.934, 1501.562
1195.416, 1515.985
1195.898, 1522.802
1196.381, 1521.151
1196.863, 1514.682
1197.345, 1495.416
1197.827, 1482.272
1198.309, 1498.351
1198.791, 1530.553
1199.273, 1536.777
1199.755, 1514.919
1200.238, 1500.282
1200.720, 1500.155
1201.202, 1505.528
1201.684, 1515.452
1202.166, 1521.510
1202.648, 1508.631
1203.130, 1479.178
1203.612, 1481.550
1204.094, 1519.444
1204.577, 1548.482
1205.059, 1549.116
1205.541, 1541.219
1206.023, 1547.505
1206.505, 1556.221
1206.987, 1550.203
1207.469, 1524.777
1207.951, 1507.059
1208.433, 1497.339
1208.916, 1494.344
1209.398, 1499.890
1209.880, 1509.708
1210.362, 1523.612
1210.844, 1537.611
1211.326, 1541.391
1211.808, 1528.569
1212.290, 1527.768
1212.773, 1543.087
1213.255, 1555.365
1213.737, 1542.138
1214.219, 1520.961
1214.701, 1509.286
1215.183, 1507.212
1215.665, 1510.770
1216.147, 1521.893
1216.630, 1531.339
1217.112, 1538.969
1217.594, 1538.869
1218.076, 1512.603
1218.558, 1481.730
1219.040, 1473.476
1219.522, 1491.159
1220.004, 1510.845
1220.486, 1535.293
1220.969, 1546.692
1221.451, 1535.798
1221.933, 1518.206
1222.415, 1511.891
1222.897, 1514.400
1223.379, 1524.893
1223.861, 1548.023
1224.343, 1554.463
1224.825, 1538.713
1225.308, 1526.545
1225.790, 1534.917
1226.272, 1549.239
1226.754, 1543.317
1227.236, 1528.532
1227.718, 1527.480
1228.200, 1560.176
1228.682, 1569.158
1229.165, 1549.144
1229.647, 1525.527
1230.129, 1513.400
1230.611, 1511.792
1231.093, 1526.132
1231.575, 1549.753
1232.057, 1562.565
1232.539, 1553.889
1233.021, 1553.892
1233.504, 1566.993
1233.986, 1580.361
1234.468, 1579.874
1234.950, 1572.721
1235.432, 1565.093
1235.914, 1558.657
1236.396, 1562.405
1236.878, 1582.775
1237.360, 1595.079
1237.843, 1594.126
1238.325, 1586.689
1238.807, 1576.923
1239.289, 1568.361
1239.771, 1567.880
1240.253, 1576.213
1240.735, 1575.747
1241.217, 1562.268
1241.700, 1553.101
1242.182, 1554.404
1242.664, 1559.797
1243.146, 1561.591
1243.628, 1561.887
1244.110, 1563.038
1244.592, 1565.177
1245.074, 1570.978
1245.557, 1581.447
1246.039, 1591.615
1246.521, 1600.534
1247.003, 1606.270
1247.485, 1607.219
1247.967, 1602.841
1248.449, 1590.089
1248.931, 1561.057
1249.413, 1553.283
1249.896, 1570.034
1250.378, 1586.502
1250.860, 1582.372
1251.342, 1573.572
1251.824, 1578.590
1252.306, 1591.207
1252.788, 1599.132
1253.270, 1602.572
1253.752, 1596.224
1254.235, 1578.704
1254.717, 1561.948
1255.199, 1554.704
1255.681, 1553.245
1256.163, 1558.440
1256.645, 1566.176
1257.127, 1563.225
1257.609, 1546.011
1258.092, 1541.711
1258.574, 1554.131
1259.056, 1571.374
1259.538, 1591.872
1260.020, 1605.222
1260.502, 1595.038
1260.984, 1569.986
1261.466, 1564.238
1261.948, 1578.903
1262.431, 1589.850
1262.913, 1592.321
1263.395, 1591.799
1263.877, 1591.719
1264.359, 1591.460
1264.841, 1588.723
1265.323, 1585.258
1265.805, 1593.905
1266.287, 1613.516
1266.770, 1616.528
1267.252, 1589.281
1267.734, 1566.603
1268.216, 1578.044
1268.698, 1598.840
1269.180, 1611.203
1269.662, 1616.371
1270.144, 1626.880
1270.626, 1640.732
1271.109, 1641.399
1271.591, 1613.939
1272.073, 1592.288
1272.555, 1595.695
1273.037, 1609.643
1273.519, 1629.638
1274.001, 1652.319
1274.483, 1644.051
1274.966, 1612.766
1275.448, 1596.375
1275.930, 1630.933
1276.412, 1654.179
1276.894, 1637.901
1277.376, 1618.858
##END=



