##NAMES=Turneaureite
##RRUFFID=R070758
##IDEAL CHEMISTRY=Ca_5_(As^5+^O_4_)_3_Cl
##LOCALITY=ZCA mine No. 4 (St Joe mine), Balmat, Balmat-Edwards Zinc District, St Lawrence County, New York, USA
##OWNER=RRUFF
##SOURCE=Michael Scott
##DESCRIPTION=Colorless to grayish white massive that fluoresces bright orange under SW UV.
##STATUS=The identification of this mineral has been confirmed only by single crystal X-ray diffraction.
##URL=rruff.info/R070758
87.96063, 1359.972
88.44275, 1397.843
88.92487, 1465.594
89.40698, 1519.275
89.88910, 1553.086
90.37122, 1580.371
90.85333, 1610.669
91.33545, 1645.826
91.81757, 1679.441
92.29968, 1699.176
92.78180, 1686.682
93.26392, 1682.536
93.74603, 1680.450
94.22815, 1680.383
94.71027, 1682.624
95.19238, 1682.602
95.67450, 1680.770
96.15662, 1678.460
96.63873, 1671.619
97.12085, 1668.180
97.60297, 1676.893
98.08508, 1697.462
98.56720, 1712.820
99.04932, 1706.918
99.53143, 1688.922
100.0135, 1674.144
100.4957, 1663.246
100.9778, 1658.240
101.4599, 1665.437
101.9420, 1691.757
102.4241, 1718.775
102.9063, 1737.849
103.3884, 1750.091
103.8705, 1758.176
104.3526, 1760.971
104.8347, 1756.944
105.3168, 1761.723
105.7990, 1790.814
106.2811, 1817.193
106.7632, 1826.964
107.2453, 1819.196
107.7274, 1803.919
108.2095, 1796.114
108.6917, 1801.672
109.1738, 1805.354
109.6559, 1805.232
110.1380, 1804.055
110.6201, 1805.722
111.1022, 1811.987
111.5844, 1819.756
112.0665, 1817.150
112.5486, 1791.590
113.0307, 1770.521
113.5128, 1761.805
113.9949, 1762.113
114.4771, 1764.008
114.9592, 1763.980
115.4413, 1760.986
115.9234, 1751.783
116.4055, 1731.141
116.8876, 1708.380
117.3698, 1690.899
117.8519, 1679.324
118.3340, 1668.810
118.8161, 1654.181
119.2982, 1637.120
119.7803, 1622.786
120.2624, 1615.639
120.7446, 1612.267
121.2267, 1603.832
121.7088, 1585.893
122.1909, 1568.442
122.6730, 1558.775
123.1551, 1555.844
123.6373, 1554.517
124.1194, 1551.661
124.6015, 1547.324
125.0836, 1540.909
125.5657, 1526.701
126.0478, 1514.182
126.5300, 1508.877
127.0121, 1511.500
127.4942, 1518.060
127.9763, 1522.947
128.4584, 1525.971
128.9406, 1527.355
129.4227, 1525.557
129.9048, 1523.201
130.3869, 1523.036
130.8690, 1526.270
131.3511, 1531.390
131.8333, 1533.006
132.3154, 1524.259
132.7975, 1519.328
133.2796, 1524.084
133.7617, 1533.543
134.2438, 1539.082
134.7260, 1534.755
135.2081, 1521.185
135.6902, 1510.910
136.1723, 1500.799
136.6544, 1495.801
137.1365, 1501.205
137.6187, 1515.814
138.1008, 1531.072
138.5829, 1540.359
139.0650, 1543.258
139.5471, 1543.829
140.0292, 1538.056
140.5114, 1531.936
140.9935, 1533.674
141.4756, 1545.907
141.9577, 1559.072
142.4398, 1560.660
142.9219, 1553.355
143.4041, 1550.393
143.8862, 1562.571
144.3683, 1584.308
144.8504, 1596.106
145.3325, 1588.743
145.8146, 1577.460
146.2968, 1575.327
146.7789, 1582.030
147.2610, 1589.553
147.7431, 1588.812
148.2252, 1578.322
148.7073, 1575.219
149.1895, 1589.763
149.6716, 1608.588
150.1537, 1627.180
150.6358, 1644.185
151.1179, 1656.686
151.6000, 1658.945
152.0821, 1645.255
152.5643, 1633.204
153.0464, 1617.937
153.5285, 1608.077
154.0106, 1614.914
154.4927, 1643.491
154.9748, 1683.800
155.4570, 1704.824
155.9391, 1681.194
156.4212, 1665.916
156.9033, 1668.449
157.3854, 1681.651
157.8675, 1695.702
158.3497, 1704.791
158.8318, 1709.429
159.3139, 1714.776
159.7960, 1722.694
160.2781, 1729.368
160.7602, 1730.874
161.2424, 1729.531
161.7245, 1732.767
162.2066, 1748.263
162.6887, 1776.250
163.1708, 1788.544
163.6529, 1773.575
164.1351, 1753.682
164.6172, 1740.885
165.0993, 1736.461
165.5814, 1739.995
166.0635, 1754.068
166.5456, 1778.551
167.0278, 1798.782
167.5099, 1811.016
167.9920, 1819.085
168.4741, 1828.552
168.9562, 1841.110
169.4383, 1851.385
169.9205, 1851.230
170.4026, 1842.690
170.8847, 1835.536
171.3668, 1833.565
171.8489, 1835.862
172.3310, 1839.200
172.8132, 1840.932
173.2953, 1847.355
173.7774, 1865.907
174.2595, 1895.575
174.7416, 1923.288
175.2237, 1940.031
175.7059, 1946.076
176.1880, 1948.217
176.6701, 1942.525
177.1522, 1937.170
177.6343, 1937.257
178.1164, 1943.260
178.5986, 1952.522
179.0807, 1962.645
179.5628, 1974.001
180.0449, 1984.823
180.5270, 1999.340
181.0091, 2010.467
181.4913, 2011.857
181.9734, 2002.066
182.4555, 1987.223
182.9376, 1976.261
183.4197, 1965.519
183.9018, 1967.529
184.3840, 1993.417
184.8661, 2025.059
185.3482, 2047.307
185.8303, 2054.025
186.3124, 2049.385
186.7945, 2043.930
187.2767, 2032.026
187.7588, 2027.078
188.2409, 2032.209
188.7230, 2043.897
189.2051, 2059.415
189.6872, 2077.850
190.1694, 2097.299
190.6515, 2109.097
191.1336, 2104.525
191.6157, 2101.950
192.0978, 2106.871
192.5799, 2115.798
193.0621, 2121.784
193.5442, 2120.062
194.0263, 2111.987
194.5084, 2111.410
194.9905, 2123.289
195.4726, 2135.632
195.9548, 2144.844
196.4369, 2151.037
196.9190, 2155.083
197.4011, 2157.209
197.8832, 2157.550
198.3653, 2158.631
198.8475, 2158.181
199.3296, 2160.208
199.8117, 2169.188
200.2938, 2184.365
200.7759, 2198.238
201.2580, 2204.200
201.7402, 2203.212
202.2223, 2206.498
202.7044, 2220.647
203.1865, 2235.331
203.6686, 2239.059
204.1507, 2230.674
204.6329, 2222.794
205.1150, 2225.548
205.5971, 2237.173
206.0792, 2251.881
206.5613, 2273.862
207.0434, 2296.295
207.5256, 2308.383
208.0077, 2307.291
208.4898, 2304.459
208.9719, 2310.278
209.4540, 2321.488
209.9361, 2330.746
210.4183, 2332.256
210.9004, 2330.318
211.3825, 2334.842
211.8646, 2348.339
212.3467, 2364.304
212.8288, 2380.192
213.3110, 2395.166
213.7931, 2406.708
214.2752, 2410.751
214.7573, 2409.536
215.2394, 2412.331
215.7215, 2420.180
216.2037, 2431.500
216.6858, 2449.491
217.1679, 2470.699
217.6500, 2485.174
218.1321, 2479.383
218.6142, 2455.929
219.0964, 2448.732
219.5785, 2470.625
220.0606, 2496.720
220.5427, 2521.244
221.0248, 2541.263
221.5069, 2550.402
221.9891, 2535.329
222.4712, 2493.960
222.9533, 2475.626
223.4354, 2503.396
223.9175, 2535.835
224.3996, 2560.057
224.8818, 2575.200
225.3639, 2584.493
225.8460, 2588.846
226.3281, 2586.618
226.8102, 2590.768
227.2923, 2607.441
227.7745, 2625.480
228.2566, 2640.865
228.7387, 2653.365
229.2208, 2664.803
229.7029, 2677.137
230.1850, 2691.082
230.6672, 2702.768
231.1493, 2715.046
231.6314, 2723.019
232.1135, 2717.560
232.5956, 2702.510
233.0777, 2693.573
233.5599, 2709.979
234.0420, 2761.365
234.5241, 2803.584
235.0062, 2841.039
235.4883, 2867.995
235.9704, 2877.333
236.4526, 2870.776
236.9347, 2857.558
237.4168, 2847.555
237.8989, 2840.045
238.3810, 2839.017
238.8631, 2851.184
239.3453, 2863.385
239.8274, 2862.703
240.3095, 2850.616
240.7916, 2843.076
241.2737, 2860.315
241.7558, 2915.339
242.2380, 2955.398
242.7201, 2975.631
243.2022, 2986.895
243.6843, 2995.031
244.1664, 3001.231
244.6485, 3004.378
245.1307, 3002.369
245.6128, 2991.471
246.0949, 2988.211
246.5770, 2997.158
247.0591, 3009.715
247.5412, 3019.212
248.0234, 3025.076
248.5055, 3031.731
248.9876, 3044.258
249.4697, 3064.427
249.9518, 3085.697
250.4339, 3116.732
250.9161, 3143.037
251.3982, 3148.072
251.8803, 3131.812
252.3624, 3114.722
252.8445, 3119.817
253.3266, 3154.058
253.8088, 3186.985
254.2909, 3221.205
254.7730, 3252.322
255.2551, 3274.786
255.7372, 3288.428
256.2193, 3300.799
256.7014, 3320.023
257.1836, 3348.132
257.6657, 3373.330
258.1478, 3396.866
258.6299, 3416.613
259.1120, 3429.642
259.5941, 3435.924
260.0763, 3439.344
260.5584, 3441.972
261.0405, 3443.306
261.5226, 3454.194
262.0047, 3484.283
262.4868, 3517.724
262.9690, 3541.217
263.4511, 3553.637
263.9332, 3562.181
264.4153, 3570.607
264.8974, 3579.334
265.3795, 3600.740
265.8617, 3650.014
266.3438, 3702.227
266.8259, 3736.917
267.3080, 3752.760
267.7901, 3759.547
268.2722, 3762.364
268.7544, 3761.718
269.2365, 3767.947
269.7186, 3789.396
270.2007, 3812.129
270.6828, 3822.385
271.1649, 3820.341
271.6471, 3820.821
272.1292, 3837.306
272.6113, 3868.049
273.0934, 3889.210
273.5755, 3887.479
274.0576, 3885.736
274.5398, 3905.245
275.0219, 3944.656
275.5040, 3982.395
275.9861, 4005.128
276.4682, 4012.383
276.9503, 4012.850
277.4325, 3998.696
277.9146, 3984.064
278.3967, 3975.192
278.8788, 3972.841
279.3609, 3984.034
279.8430, 4021.758
280.3252, 4074.857
280.8073, 4099.423
281.2894, 4067.258
281.7715, 4032.953
282.2536, 4032.350
282.7357, 4060.978
283.2179, 4095.467
283.7000, 4130.339
284.1821, 4158.104
284.6642, 4159.964
285.1463, 4110.755
285.6284, 4068.224
286.1106, 4071.616
286.5927, 4111.290
287.0748, 4149.086
287.5569, 4169.144
288.0390, 4175.048
288.5211, 4176.962
289.0033, 4171.028
289.4854, 4168.244
289.9675, 4176.082
290.4496, 4191.646
290.9317, 4205.349
291.4138, 4212.146
291.8960, 4217.059
292.3781, 4229.796
292.8602, 4250.264
293.3423, 4276.600
293.8244, 4317.248
294.3065, 4363.212
294.7887, 4391.048
295.2708, 4388.992
295.7529, 4374.606
296.2350, 4377.625
296.7171, 4397.887
297.1992, 4426.437
297.6814, 4469.568
298.1635, 4517.500
298.6456, 4550.444
299.1277, 4560.642
299.6098, 4564.208
300.0919, 4584.971
300.5741, 4623.468
301.0562, 4662.968
301.5383, 4699.435
302.0204, 4734.705
302.5025, 4774.149
302.9846, 4819.943
303.4668, 4859.237
303.9489, 4870.865
304.4310, 4852.344
304.9131, 4852.410
305.3952, 4889.098
305.8773, 4941.149
306.3595, 4988.406
306.8416, 5028.433
307.3237, 5065.157
307.8058, 5101.433
308.2879, 5137.333
308.7701, 5174.666
309.2522, 5213.490
309.7343, 5253.806
310.2164, 5295.924
310.6985, 5339.615
311.1806, 5384.564
311.6628, 5431.960
312.1449, 5480.820
312.6270, 5523.952
313.1091, 5555.989
313.5912, 5587.066
314.0733, 5620.301
314.5555, 5656.710
315.0376, 5700.584
315.5197, 5755.813
316.0018, 5820.273
316.4839, 5880.934
316.9660, 5933.924
317.4482, 5988.024
317.9303, 6053.190
318.4124, 6122.398
318.8945, 6176.386
319.3766, 6202.145
319.8587, 6212.396
320.3409, 6250.011
320.8230, 6333.040
321.3051, 6413.898
321.7872, 6480.977
322.2693, 6540.310
322.7514, 6602.961
323.2336, 6673.883
323.7157, 6744.085
324.1978, 6794.749
324.6799, 6806.638
325.1620, 6832.826
325.6441, 6878.213
326.1263, 6938.813
326.6084, 7017.830
327.0905, 7114.539
327.5726, 7210.915
328.0547, 7281.292
328.5368, 7306.740
329.0190, 7352.455
329.5011, 7434.059
329.9832, 7523.521
330.4653, 7601.219
330.9474, 7664.975
331.4295, 7724.037
331.9117, 7786.148
332.3938, 7848.890
332.8759, 7930.843
333.3580, 8050.435
333.8401, 8168.511
334.3222, 8266.988
334.8044, 8346.838
335.2865, 8417.646
335.7686, 8485.698
336.2507, 8551.082
336.7328, 8619.943
337.2149, 8692.538
337.6971, 8767.822
338.1792, 8845.784
338.6613, 8926.606
339.1434, 9012.400
339.6255, 9105.979
340.1076, 9202.190
340.5898, 9279.039
341.0719, 9312.275
341.5540, 9355.886
342.0361, 9424.572
342.5182, 9502.455
343.0003, 9574.069
343.4825, 9633.213
343.9646, 9680.753
344.4467, 9717.396
344.9288, 9735.563
345.4109, 9757.041
345.8930, 9779.812
346.3752, 9807.935
346.8573, 9847.287
347.3394, 9897.598
347.8215, 9950.648
348.3036, 10000.03
348.7857, 10051.62
349.2679, 10076.21
349.7500, 10044.03
350.2321, 10008.77
350.7142, 9997.410
351.1963, 10007.14
351.6784, 10017.55
352.1606, 10011.47
352.6427, 9989.347
353.1248, 9964.883
353.6069, 9942.752
354.0890, 9911.786
354.5711, 9868.076
355.0533, 9813.031
355.5354, 9747.838
356.0175, 9667.652
356.4996, 9581.563
356.9817, 9520.059
357.4638, 9497.473
357.9460, 9466.273
358.4281, 9391.799
358.9102, 9304.680
359.3923, 9243.943
359.8744, 9229.600
360.3565, 9226.401
360.8387, 9181.822
361.3208, 9090.031
361.8029, 9008.047
362.2850, 8961.621
362.7671, 8928.749
363.2492, 8888.988
363.7314, 8839.723
364.2135, 8788.679
364.6956, 8746.396
365.1777, 8709.354
365.6598, 8651.996
366.1419, 8552.450
366.6241, 8456.506
367.1062, 8424.381
367.5883, 8450.468
368.0704, 8454.884
368.5525, 8387.705
369.0346, 8283.182
369.5168, 8197.173
369.9989, 8136.122
370.4810, 8091.139
370.9631, 8060.117
371.4452, 8040.560
371.9273, 8018.089
372.4095, 7984.861
372.8916, 7952.441
373.3737, 7937.194
373.8558, 7935.854
374.3379, 7919.711
374.8200, 7865.362
375.3022, 7784.875
375.7843, 7730.864
376.2664, 7725.118
376.7485, 7717.233
377.2306, 7683.259
377.7127, 7634.871
378.1949, 7596.126
378.6770, 7577.372
379.1591, 7568.470
379.6412, 7548.665
380.1233, 7510.440
380.6054, 7474.987
381.0876, 7444.655
381.5697, 7417.025
382.0518, 7391.133
382.5339, 7366.339
383.0160, 7340.583
383.4981, 7310.556
383.9803, 7272.593
384.4624, 7246.822
384.9445, 7243.709
385.4266, 7240.862
385.9087, 7230.075
386.3908, 7210.213
386.8730, 7179.882
387.3551, 7135.241
387.8372, 7079.467
388.3193, 7048.026
388.8014, 7070.581
389.2835, 7084.766
389.7657, 7070.650
390.2478, 7045.427
390.7299, 7032.693
391.2120, 7042.987
391.6941, 7064.403
392.1762, 7072.653
392.6584, 7063.218
393.1405, 7051.035
393.6226, 7028.099
394.1047, 7010.151
394.5868, 7015.241
395.0689, 7043.213
395.5511, 7067.491
396.0332, 7053.185
396.5153, 6999.924
396.9974, 6970.796
397.4795, 6985.210
397.9616, 7007.035
398.4438, 7014.778
398.9259, 7012.462
399.4080, 7012.646
399.8901, 7021.848
400.3722, 7038.083
400.8543, 7057.554
401.3365, 7080.783
401.8186, 7105.624
402.3007, 7139.898
402.7828, 7172.389
403.2649, 7183.378
403.7470, 7160.779
404.2292, 7130.525
404.7113, 7111.689
405.1934, 7103.253
405.6755, 7100.918
406.1576, 7105.544
406.6397, 7112.502
407.1219, 7112.480
407.6040, 7102.788
408.0861, 7099.612
408.5682, 7114.930
409.0503, 7136.895
409.5324, 7149.486
410.0146, 7149.794
410.4967, 7143.211
410.9788, 7133.216
411.4609, 7118.914
411.9430, 7112.307
412.4251, 7112.490
412.9073, 7120.686
413.3894, 7145.354
413.8715, 7179.748
414.3536, 7205.176
414.8357, 7209.654
415.3178, 7197.150
415.8000, 7186.201
416.2821, 7171.071
416.7642, 7164.854
417.2463, 7173.979
417.7284, 7190.363
418.2105, 7205.176
418.6927, 7215.840
419.1748, 7226.470
419.6569, 7245.564
420.1390, 7281.711
420.6211, 7302.100
421.1032, 7289.905
421.5854, 7277.542
422.0675, 7282.733
422.5496, 7302.783
423.0317, 7323.008
423.5138, 7330.583
423.9959, 7328.487
424.4781, 7335.481
424.9602, 7352.181
425.4423, 7377.645
425.9244, 7427.382
426.4065, 7479.243
426.8886, 7502.548
427.3708, 7482.140
427.8529, 7442.692
428.3350, 7406.995
428.8171, 7374.646
429.2992, 7365.805
429.7813, 7398.215
430.2635, 7446.364
430.7456, 7481.405
431.2277, 7502.958
431.7098, 7520.118
432.1919, 7540.528
432.6740, 7558.625
433.1562, 7560.926
433.6383, 7543.871
434.1204, 7525.845
434.6025, 7521.734
435.0846, 7531.408
435.5667, 7543.763
436.0489, 7564.632
436.5310, 7582.375
437.0131, 7588.721
437.4952, 7586.154
437.9773, 7581.703
438.4594, 7578.359
438.9416, 7576.541
439.4237, 7577.506
439.9058, 7585.611
440.3879, 7590.379
440.8700, 7592.290
441.3521, 7590.106
441.8343, 7578.139
442.3164, 7557.776
442.7985, 7541.846
443.2806, 7546.497
443.7627, 7575.885
444.2448, 7596.066
444.7270, 7606.776
445.2091, 7608.173
445.6912, 7594.567
446.1733, 7572.069
446.6554, 7552.001
447.1375, 7541.412
447.6197, 7534.413
448.1018, 7513.874
448.5839, 7472.347
449.0660, 7438.240
449.5481, 7424.155
450.0302, 7417.089
450.5124, 7406.870
450.9945, 7392.017
451.4766, 7380.247
451.9587, 7383.642
452.4408, 7397.058
452.9229, 7394.143
453.4051, 7365.715
453.8872, 7334.311
454.3693, 7326.289
454.8514, 7332.051
455.3335, 7321.352
455.8156, 7264.838
456.2978, 7206.179
456.7799, 7192.374
457.2620, 7215.435
457.7441, 7227.851
458.2262, 7204.541
458.7083, 7159.299
459.1904, 7128.829
459.6725, 7117.697
460.1547, 7109.667
460.6368, 7099.730
461.1189, 7092.651
461.6010, 7099.690
462.0831, 7120.190
462.5652, 7133.642
463.0474, 7116.369
463.5295, 7063.357
464.0116, 7023.497
464.4937, 7005.478
464.9758, 6990.704
465.4579, 6972.734
465.9401, 6954.208
466.4222, 6941.545
466.9043, 6938.804
467.3864, 6938.982
467.8685, 6924.389
468.3506, 6887.156
468.8328, 6857.480
469.3149, 6852.718
469.7970, 6848.390
470.2791, 6825.423
470.7612, 6784.184
471.2433, 6744.196
471.7255, 6723.060
472.2076, 6715.356
472.6897, 6700.273
473.1718, 6674.011
473.6539, 6649.229
474.1360, 6639.483
474.6182, 6636.438
475.1003, 6621.976
475.5824, 6587.332
476.0645, 6548.501
476.5466, 6512.993
477.0287, 6481.823
477.5109, 6458.508
477.9930, 6444.816
478.4751, 6438.133
478.9572, 6437.308
479.4393, 6449.969
479.9214, 6442.575
480.4036, 6393.548
480.8857, 6339.516
481.3678, 6308.519
481.8499, 6298.208
482.3320, 6290.147
482.8141, 6272.080
483.2963, 6243.864
483.7784, 6203.921
484.2605, 6133.630
484.7426, 6076.503
485.2247, 6040.984
485.7068, 6019.179
486.1890, 6006.707
486.6711, 6001.411
487.1532, 5996.397
487.6353, 5983.673
488.1174, 5962.987
488.5995, 5939.852
489.0817, 5911.922
489.5638, 5885.082
490.0459, 5862.702
490.5280, 5843.645
491.0101, 5824.907
491.4922, 5806.115
491.9744, 5786.567
492.4565, 5765.530
492.9386, 5742.947
493.4207, 5717.901
493.9028, 5688.030
494.3849, 5657.913
494.8671, 5636.818
495.3492, 5626.555
495.8313, 5614.404
496.3134, 5596.669
496.7955, 5576.049
497.2776, 5555.483
497.7598, 5535.079
498.2419, 5512.958
498.7240, 5487.956
499.2061, 5460.039
499.6882, 5427.297
500.1703, 5376.020
500.6525, 5336.667
501.1346, 5327.884
501.6167, 5327.449
502.0988, 5304.395
502.5809, 5251.621
503.0630, 5197.969
503.5452, 5188.960
504.0273, 5235.123
504.5094, 5249.295
504.9915, 5206.998
505.4736, 5156.949
505.9557, 5121.291
506.4379, 5096.009
506.9200, 5070.647
507.4021, 5040.106
507.8842, 5008.252
508.3663, 4980.055
508.8484, 4955.567
509.3306, 4933.741
509.8127, 4914.354
510.2948, 4897.370
510.7769, 4882.694
511.2590, 4870.141
511.7411, 4859.784
512.2233, 4857.947
512.7054, 4854.325
513.1875, 4837.368
513.6696, 4807.422
514.1517, 4773.396
514.6339, 4741.250
515.1160, 4710.468
515.5981, 4678.629
516.0802, 4634.449
516.5623, 4603.375
517.0444, 4596.858
517.5266, 4599.333
518.0087, 4596.536
518.4908, 4585.245
518.9729, 4570.567
519.4550, 4560.146
519.9371, 4554.398
520.4193, 4534.869
520.9014, 4491.583
521.3835, 4449.269
521.8656, 4418.262
522.3477, 4395.294
522.8298, 4375.849
523.3120, 4359.062
523.7941, 4343.991
524.2762, 4330.408
524.7583, 4318.004
525.2404, 4304.586
525.7225, 4289.254
526.2047, 4273.839
526.6868, 4261.022
527.1689, 4250.979
527.6510, 4239.242
528.1331, 4224.506
528.6152, 4208.689
529.0974, 4191.249
529.5795, 4173.636
530.0616, 4160.331
530.5437, 4154.066
531.0258, 4150.506
531.5079, 4138.069
531.9901, 4105.383
532.4722, 4084.892
532.9543, 4090.489
533.4364, 4095.733
533.9185, 4079.961
534.4006, 4047.430
534.8828, 4019.362
535.3649, 4013.837
535.8470, 4022.258
536.3291, 4017.344
536.8112, 3996.342
537.2933, 3972.397
537.7755, 3948.717
538.2576, 3925.562
538.7397, 3901.222
539.2218, 3874.137
539.7039, 3856.324
540.1860, 3864.322
540.6682, 3881.301
541.1503, 3879.340
541.6324, 3855.631
542.1145, 3826.609
542.5966, 3802.644
543.0787, 3783.951
543.5609, 3773.020
544.0430, 3777.982
544.5251, 3779.433
545.0072, 3771.914
545.4893, 3759.957
545.9714, 3748.311
546.4536, 3738.141
546.9357, 3727.664
547.4178, 3714.391
547.8999, 3698.134
548.3820, 3685.050
548.8641, 3678.261
549.3463, 3670.163
549.8284, 3659.152
550.3105, 3644.938
550.7926, 3625.077
551.2747, 3596.630
551.7568, 3571.755
552.2390, 3562.756
552.7211, 3566.974
553.2032, 3576.594
553.6853, 3592.784
554.1674, 3603.803
554.6495, 3595.594
555.1317, 3568.376
555.6138, 3549.871
556.0959, 3546.845
556.5780, 3545.922
557.0601, 3546.311
557.5422, 3543.280
558.0244, 3527.034
558.5065, 3494.481
558.9886, 3455.326
559.4707, 3423.853
559.9528, 3400.811
560.4349, 3382.750
560.9171, 3366.902
561.3992, 3359.533
561.8813, 3370.836
562.3634, 3390.929
562.8455, 3402.108
563.3276, 3395.813
563.8098, 3380.623
564.2919, 3366.497
564.7740, 3353.418
565.2561, 3340.614
565.7382, 3326.455
566.2203, 3314.966
566.7025, 3313.486
567.1846, 3320.651
567.6667, 3322.262
568.1488, 3310.958
568.6309, 3298.325
569.1130, 3292.523
569.5952, 3291.321
570.0773, 3289.060
570.5594, 3283.431
571.0415, 3275.284
571.5236, 3266.320
572.0057, 3257.113
572.4879, 3245.325
572.9700, 3226.964
573.4521, 3210.134
573.9342, 3196.630
574.4163, 3187.562
574.8984, 3186.021
575.3806, 3196.147
575.8627, 3207.406
576.3448, 3200.838
576.8269, 3176.323
577.3090, 3154.955
577.7911, 3140.396
578.2733, 3132.435
578.7554, 3133.921
579.2375, 3143.595
579.7196, 3150.455
580.2017, 3152.839
580.6838, 3151.412
581.1660, 3143.659
581.6481, 3132.533
582.1302, 3126.420
582.6123, 3129.093
583.0944, 3133.542
583.5765, 3126.313
584.0587, 3099.557
584.5408, 3083.719
585.0229, 3091.151
585.5050, 3096.429
585.9871, 3083.664
586.4692, 3061.539
586.9514, 3050.020
587.4335, 3061.236
587.9156, 3077.112
588.3977, 3067.007
588.8798, 3032.185
589.3619, 3009.694
589.8441, 3009.572
590.3262, 3019.215
590.8083, 3029.859
591.2904, 3040.888
591.7725, 3045.781
592.2546, 3041.553
592.7368, 3033.010
593.2189, 3019.118
593.7010, 3003.550
594.1831, 2993.969
594.6652, 2993.005
595.1473, 2996.454
595.6295, 2998.647
596.1116, 2999.683
596.5937, 2998.945
597.0758, 2994.561
597.5579, 2990.284
598.0400, 2992.565
598.5222, 2994.179
599.0043, 2980.498
599.4864, 2943.076
599.9685, 2907.169
600.4506, 2904.842
600.9327, 2929.057
601.4149, 2944.919
601.8970, 2945.893
602.3791, 2942.042
602.8612, 2941.422
603.3433, 2943.477
603.8254, 2942.542
604.3076, 2936.317
604.7897, 2929.849
605.2718, 2928.298
605.7539, 2925.990
606.2360, 2912.073
606.7181, 2885.950
607.2003, 2861.440
607.6824, 2853.895
608.1645, 2862.970
608.6466, 2873.387
609.1287, 2889.208
609.6108, 2899.467
610.0930, 2899.057
610.5751, 2892.542
611.0572, 2882.615
611.5393, 2869.236
612.0214, 2860.254
612.5035, 2865.782
612.9857, 2877.610
613.4678, 2878.149
613.9499, 2866.298
614.4320, 2859.086
614.9141, 2869.526
615.3962, 2890.691
615.8784, 2897.441
616.3605, 2878.832
616.8426, 2860.933
617.3247, 2837.710
617.8068, 2820.978
618.2889, 2825.690
618.7711, 2846.648
619.2532, 2863.208
619.7353, 2860.047
620.2174, 2844.270
620.6995, 2833.277
621.1816, 2826.775
621.6638, 2827.569
622.1459, 2843.035
622.6280, 2859.342
623.1101, 2861.116
623.5922, 2849.350
624.0743, 2838.637
624.5565, 2832.290
625.0386, 2828.908
625.5207, 2830.095
626.0028, 2833.329
626.4849, 2830.627
626.9670, 2818.685
627.4492, 2805.852
627.9313, 2807.159
628.4134, 2828.814
628.8955, 2839.434
629.3776, 2831.817
629.8597, 2819.943
630.3419, 2803.213
630.8240, 2786.469
631.3061, 2777.623
631.7882, 2780.219
632.2703, 2785.011
632.7524, 2779.616
633.2346, 2768.916
633.7167, 2773.140
634.1988, 2797.313
634.6809, 2817.193
635.1630, 2812.250
635.6451, 2787.302
636.1273, 2773.497
636.6094, 2779.191
637.0915, 2783.394
637.5736, 2783.558
638.0557, 2780.157
638.5378, 2772.293
639.0200, 2760.895
639.5021, 2749.005
639.9842, 2737.705
640.4663, 2728.820
640.9484, 2730.455
641.4305, 2745.069
641.9127, 2759.673
642.3948, 2772.267
642.8769, 2781.738
643.3590, 2788.056
643.8411, 2791.172
644.3232, 2788.374
644.8054, 2772.024
645.2875, 2755.391
645.7696, 2751.271
646.2517, 2755.410
646.7338, 2755.216
647.2159, 2745.755
647.6981, 2734.979
648.1802, 2736.656
648.6623, 2755.649
649.1444, 2761.991
649.6265, 2746.363
650.1086, 2728.615
650.5908, 2708.253
651.0729, 2692.390
651.5550, 2692.699
652.0371, 2713.973
652.5192, 2738.707
653.0013, 2758.935
653.4835, 2771.609
653.9656, 2765.296
654.4477, 2739.183
654.9298, 2716.000
655.4119, 2711.256
655.8940, 2720.191
656.3762, 2724.889
656.8583, 2721.468
657.3404, 2718.980
657.8225, 2716.513
658.3046, 2715.794
658.7867, 2720.666
659.2689, 2728.531
659.7510, 2731.574
660.2331, 2724.352
660.7152, 2712.146
661.1973, 2703.383
661.6794, 2697.985
662.1616, 2693.785
662.6437, 2688.695
663.1258, 2688.635
663.6079, 2703.635
664.0900, 2732.339
664.5721, 2747.765
665.0543, 2740.880
665.5364, 2730.479
666.0185, 2723.435
666.5006, 2716.705
666.9827, 2703.962
667.4648, 2685.392
667.9470, 2670.006
668.4291, 2667.422
668.9112, 2675.288
669.3933, 2679.196
669.8754, 2678.150
670.3575, 2676.382
670.8397, 2674.538
671.3218, 2673.152
671.8039, 2673.616
672.2860, 2676.073
672.7681, 2675.762
673.2502, 2669.904
673.7324, 2661.981
674.2145, 2650.718
674.6966, 2639.939
675.1787, 2641.106
675.6608, 2658.432
676.1429, 2677.714
676.6251, 2675.834
677.1072, 2648.827
677.5893, 2632.713
678.0714, 2631.145
678.5535, 2635.555
679.0356, 2648.832
679.5178, 2663.016
679.9999, 2667.477
680.4820, 2659.841
680.9641, 2647.634
681.4462, 2630.248
681.9283, 2613.375
682.4105, 2605.930
682.8926, 2607.252
683.3747, 2611.102
683.8568, 2614.790
684.3389, 2616.086
684.8210, 2608.093
685.3032, 2580.615
685.7853, 2568.107
686.2674, 2586.284
686.7495, 2603.727
687.2316, 2606.738
687.7137, 2600.000
688.1959, 2593.029
688.6780, 2588.621
689.1601, 2585.160
689.6422, 2581.978
690.1243, 2578.585
690.6064, 2572.638
691.0886, 2564.085
691.5707, 2558.349
692.0528, 2559.559
692.5349, 2566.231
693.0170, 2572.993
693.4991, 2585.322
693.9813, 2588.438
694.4634, 2572.056
694.9455, 2555.965
695.4276, 2552.218
695.9097, 2558.813
696.3918, 2569.623
696.8740, 2585.861
697.3561, 2595.946
697.8382, 2579.505
698.3203, 2544.924
698.8024, 2523.611
699.2845, 2522.129
699.7667, 2526.511
700.2488, 2525.970
700.7309, 2521.107
701.2130, 2516.635
701.6951, 2507.474
702.1772, 2505.706
702.6594, 2522.100
703.1415, 2538.293
703.6236, 2539.095
704.1057, 2526.443
704.5878, 2513.025
705.0699, 2506.327
705.5521, 2501.997
706.0342, 2492.276
706.5163, 2478.608
706.9984, 2470.547
707.4805, 2470.805
707.9626, 2473.803
708.4448, 2474.653
708.9269, 2473.433
709.4090, 2472.156
709.8911, 2475.389
710.3732, 2472.545
710.8553, 2455.378
711.3375, 2436.359
711.8196, 2428.918
712.3017, 2431.256
712.7838, 2428.360
713.2659, 2405.792
713.7480, 2378.641
714.2302, 2375.202
714.7123, 2392.146
715.1944, 2403.066
715.6765, 2401.358
716.1586, 2391.113
716.6407, 2373.566
717.1229, 2348.854
717.6050, 2335.435
718.0871, 2341.912
718.5692, 2347.508
719.0513, 2350.067
719.5334, 2349.215
720.0156, 2344.707
720.4977, 2336.589
720.9798, 2325.178
721.4619, 2310.407
721.9440, 2292.665
722.4261, 2269.425
722.9083, 2242.347
723.3904, 2223.027
723.8725, 2214.613
724.3546, 2214.761
724.8367, 2223.711
725.3188, 2241.450
725.8010, 2247.385
726.2831, 2230.567
726.7652, 2216.534
727.2473, 2211.716
727.7294, 2209.629
728.2115, 2203.848
728.6937, 2194.663
729.1758, 2187.866
729.6579, 2190.629
730.1400, 2193.792
730.6221, 2181.102
731.1042, 2155.918
731.5864, 2134.881
732.0685, 2122.127
732.5506, 2114.612
733.0327, 2109.953
733.5148, 2108.041
733.9969, 2105.394
734.4791, 2103.212
734.9612, 2098.598
735.4433, 2091.589
735.9254, 2081.809
736.4075, 2066.302
736.8896, 2047.016
737.3718, 2032.335
737.8539, 2029.273
738.3360, 2029.360
738.8181, 2021.052
739.3002, 2007.719
739.7823, 2001.829
740.2645, 2006.262
740.7466, 2010.085
741.2287, 2002.917
741.7108, 1986.267
742.1929, 1973.461
742.6750, 1964.688
743.1572, 1959.597
743.6393, 1964.464
744.1214, 1967.345
744.6035, 1957.963
745.0856, 1939.172
745.5677, 1923.140
746.0499, 1916.480
746.5320, 1911.019
747.0141, 1897.003
747.4962, 1880.318
747.9783, 1874.607
748.4604, 1881.066
748.9426, 1887.986
749.4247, 1886.762
749.9068, 1878.216
750.3889, 1864.244
750.8710, 1840.240
751.3531, 1824.056
751.8353, 1825.030
752.3174, 1826.712
752.7995, 1817.635
753.2816, 1801.359
753.7637, 1787.707
754.2458, 1778.380
754.7280, 1772.414
755.2101, 1771.837
755.6922, 1772.860
756.1743, 1772.141
756.6564, 1768.614
757.1385, 1759.526
757.6207, 1742.387
758.1028, 1723.286
758.5849, 1716.768
759.0670, 1724.411
759.5491, 1729.357
760.0313, 1730.192
760.5134, 1727.835
760.9955, 1721.499
761.4776, 1712.601
761.9597, 1705.024
762.4418, 1700.016
762.9240, 1693.612
763.4061, 1683.308
763.8882, 1672.680
764.3703, 1662.876
764.8524, 1655.148
765.3345, 1653.658
765.8167, 1660.490
766.2988, 1665.166
766.7809, 1648.459
767.2630, 1616.109
767.7451, 1603.266
768.2272, 1614.319
768.7094, 1624.091
769.1915, 1619.047
769.6736, 1606.667
770.1557, 1602.564
770.6378, 1613.974
771.1199, 1612.077
771.6021, 1581.872
772.0842, 1555.606
772.5663, 1547.877
773.0484, 1551.192
773.5305, 1556.128
774.0126, 1560.217
774.4948, 1562.788
774.9769, 1564.672
775.4590, 1564.020
775.9411, 1554.542
776.4232, 1538.717
776.9053, 1530.975
777.3875, 1537.094
777.8696, 1545.285
778.3517, 1539.924
778.8338, 1520.566
779.3159, 1507.912
779.7980, 1504.746
780.2802, 1503.853
780.7623, 1508.279
781.2444, 1510.708
781.7265, 1501.906
782.2086, 1483.538
782.6907, 1471.447
783.1729, 1473.362
783.6550, 1480.692
784.1371, 1492.676
784.6192, 1504.469
785.1013, 1507.265
785.5834, 1500.642
786.0656, 1492.767
786.5477, 1490.165
787.0298, 1490.725
787.5119, 1486.794
787.9940, 1477.099
788.4761, 1476.525
788.9583, 1490.906
789.4404, 1507.642
789.9225, 1516.841
790.4046, 1520.243
790.8867, 1526.657
791.3688, 1543.814
791.8510, 1551.640
792.3331, 1534.034
792.8152, 1517.697
793.2973, 1522.787
793.7794, 1544.530
794.2615, 1570.063
794.7437, 1594.889
795.2258, 1615.089
795.7079, 1625.043
796.1900, 1627.509
796.6721, 1624.600
797.1542, 1617.804
797.6364, 1626.990
798.1185, 1664.169
798.6006, 1714.845
799.0827, 1753.391
799.5648, 1779.581
800.0469, 1795.073
800.5291, 1783.959
801.0112, 1783.976
801.4933, 1816.590
801.9754, 1859.883
802.4575, 1887.489
802.9396, 1896.990
803.4218, 1912.966
803.9039, 1952.755
804.3860, 1994.416
804.8681, 2018.396
805.3502, 2033.426
805.8323, 2058.203
806.3145, 2095.341
806.7966, 2127.838
807.2787, 2138.486
807.7608, 2135.036
808.2429, 2142.997
808.7250, 2163.103
809.2072, 2182.318
809.6893, 2199.684
810.1714, 2209.974
810.6535, 2206.153
811.1356, 2190.589
811.6177, 2180.718
812.0999, 2183.955
812.5820, 2181.998
813.0641, 2170.436
813.5462, 2155.997
814.0283, 2144.275
814.5104, 2133.044
814.9926, 2116.516
815.4747, 2092.279
815.9568, 2063.966
816.4389, 2029.468
816.9210, 1995.081
817.4031, 1974.380
817.8853, 1965.089
818.3674, 1951.466
818.8495, 1926.135
819.3316, 1894.246
819.8137, 1861.641
820.2958, 1827.416
820.7780, 1809.070
821.2601, 1813.304
821.7422, 1816.075
822.2243, 1805.932
822.7064, 1792.181
823.1885, 1785.294
823.6707, 1784.982
824.1528, 1792.860
824.6349, 1819.546
825.1170, 1842.009
825.5991, 1848.111
826.0812, 1847.514
826.5634, 1849.935
827.0455, 1856.717
827.5276, 1864.523
828.0097, 1870.018
828.4918, 1877.844
828.9739, 1898.696
829.4560, 1927.154
829.9381, 1944.956
830.4202, 1949.405
830.9023, 1945.509
831.3845, 1934.537
831.8666, 1922.856
832.3487, 1930.613
832.8308, 1967.259
833.3129, 1990.156
833.7950, 1986.750
834.2772, 1985.736
834.7593, 2004.610
835.2414, 2033.286
835.7235, 2056.999
836.2056, 2073.344
836.6877, 2093.106
837.1699, 2119.974
837.6520, 2149.707
838.1341, 2183.565
838.6162, 2216.897
839.0983, 2240.308
839.5804, 2253.457
840.0626, 2270.523
840.5447, 2302.344
841.0268, 2345.877
841.5089, 2398.735
841.9910, 2459.091
842.4731, 2517.282
842.9553, 2570.997
843.4374, 2617.734
843.9195, 2654.493
844.4016, 2683.537
844.8837, 2715.810
845.3658, 2750.381
845.8480, 2791.171
846.3301, 2851.503
846.8122, 2902.693
847.2943, 2921.672
847.7764, 2922.120
848.2585, 2932.442
848.7407, 2963.556
849.2228, 2977.612
849.7049, 2947.854
850.1870, 2913.685
850.6691, 2906.906
851.1512, 2913.295
851.6334, 2909.603
852.1155, 2888.321
852.5976, 2849.318
853.0797, 2783.458
853.5618, 2704.484
854.0439, 2639.630
854.5261, 2585.665
855.0082, 2526.062
855.4903, 2456.478
855.9724, 2384.772
856.4545, 2317.005
856.9366, 2253.234
857.4188, 2192.973
857.9009, 2137.280
858.3830, 2080.963
858.8651, 2022.518
859.3472, 1964.047
859.8293, 1903.948
860.3115, 1845.294
860.7936, 1796.457
861.2757, 1761.676
861.7578, 1726.140
862.2399, 1681.618
862.7220, 1641.383
863.2042, 1619.656
863.6863, 1605.119
864.1684, 1579.219
864.6505, 1537.440
865.1326, 1491.807
865.6147, 1443.440
866.0969, 1401.399
866.5790, 1383.964
867.0611, 1383.308
867.5432, 1375.882
868.0253, 1355.928
868.5074, 1331.019
868.9896, 1306.847
869.4717, 1284.023
869.9538, 1265.184
870.4359, 1250.968
870.9180, 1234.503
871.4001, 1211.471
871.8823, 1195.007
872.3644, 1198.138
872.8465, 1211.840
873.3286, 1210.788
873.8107, 1184.392
874.2928, 1166.583
874.7750, 1161.651
875.2571, 1160.693
875.7392, 1161.782
876.2213, 1163.896
876.7034, 1165.983
877.1855, 1167.915
877.6677, 1170.477
878.1498, 1174.589
878.6319, 1178.976
879.1140, 1185.410
879.5961, 1190.239
880.0782, 1183.986
880.5604, 1168.143
881.0425, 1158.054
881.5246, 1165.237
882.0067, 1180.448
882.4888, 1186.733
882.9709, 1185.638
883.4531, 1187.315
883.9352, 1192.956
884.4173, 1199.907
884.8994, 1207.003
885.3815, 1214.020
885.8636, 1221.009
886.3458, 1228.869
886.8279, 1231.160
887.3100, 1223.526
887.7921, 1217.842
888.2742, 1221.884
888.7563, 1226.369
889.2385, 1220.247
889.7206, 1204.579
890.2027, 1193.801
890.6848, 1196.046
891.1669, 1195.447
891.6490, 1185.403
892.1312, 1171.807
892.6133, 1158.361
893.0954, 1146.059
893.5775, 1135.927
894.0596, 1128.545
894.5417, 1122.321
895.0239, 1118.499
895.5060, 1113.425
895.9881, 1098.430
896.4702, 1076.773
896.9523, 1061.827
897.4344, 1058.080
897.9166, 1057.157
898.3987, 1048.688
898.8808, 1035.504
899.3629, 1031.733
899.8450, 1037.881
900.3271, 1042.028
900.8093, 1041.235
901.2914, 1038.944
901.7735, 1037.816
902.2556, 1037.535
902.7377, 1037.074
903.2198, 1039.107
903.7020, 1035.240
904.1841, 1017.058
904.6662, 1002.784
905.1483, 1004.248
905.6304, 1012.142
906.1125, 1013.339
906.5947, 1006.299
907.0768, 997.9182
907.5589, 989.0106
908.0410, 980.0620
908.5231, 968.6809
909.0052, 959.0257
909.4874, 957.6569
909.9695, 963.3496
910.4516, 967.5152
910.9337, 964.7550
911.4158, 960.5772
911.8979, 960.6974
912.3801, 963.0767
912.8622, 964.7189
913.3443, 965.1223
913.8264, 963.7685
914.3085, 960.3979
914.7906, 956.3988
915.2728, 953.6860
915.7549, 952.0688
916.2370, 949.8643
916.7191, 946.9802
917.2012, 946.8259
917.6833, 951.3622
918.1655, 954.7387
918.6476, 950.4427
919.1297, 940.1504
919.6118, 935.6843
920.0939, 941.2982
920.5760, 942.2188
921.0582, 932.1392
921.5403, 923.6768
922.0224, 925.5595
922.5045, 933.0448
922.9866, 937.9015
923.4688, 938.9321
923.9509, 941.5273
924.4330, 952.1013
924.9151, 957.7124
925.3972, 948.3640
925.8793, 934.0804
926.3615, 924.2434
926.8436, 920.5162
927.3257, 922.8094
927.8078, 935.1243
928.2899, 946.6846
928.7720, 948.4106
929.2542, 945.6346
929.7363, 945.1103
930.2184, 946.6103
930.7005, 946.2657
931.1826, 942.4243
931.6647, 939.0103
932.1469, 941.3634
932.6290, 947.2524
933.1111, 951.0562
933.5932, 952.8868
934.0753, 953.6531
934.5574, 953.6023
935.0396, 954.2485
935.5217, 957.2941
936.0038, 961.5231
936.4859, 962.2024
936.9680, 958.7902
937.4501, 955.9213
937.9323, 953.1363
938.4144, 954.2169
938.8965, 962.6003
939.3786, 974.4454
939.8607, 983.0651
940.3428, 988.5085
940.8250, 990.4548
941.3071, 986.1821
941.7892, 982.3134
942.2713, 978.2441
942.7534, 976.7640
943.2355, 983.4503
943.7177, 995.3638
944.1998, 999.1906
944.6819, 986.3391
945.1640, 976.9362
945.6461, 977.5103
946.1282, 981.8842
946.6104, 988.0565
947.0925, 994.1892
947.5746, 997.4077
948.0567, 997.1432
948.5388, 997.2697
949.0209, 1002.834
949.5031, 1007.092
949.9852, 1002.196
950.4673, 992.7159
950.9494, 985.6470
951.4315, 981.9619
951.9136, 979.6390
952.3958, 977.4275
952.8779, 976.3644
953.3600, 978.5183
953.8421, 982.7379
954.3242, 986.6987
954.8063, 989.9452
955.2885, 989.9650
955.7706, 985.8114
956.2527, 982.8670
956.7348, 988.5123
957.2169, 984.0612
957.6990, 998.6056
958.1812, 984.8361
958.6633, 978.6400
959.1454, 984.7921
959.6275, 992.3790
960.1096, 994.4691
960.5917, 992.8569
961.0739, 991.4625
961.5560, 990.0182
962.0381, 990.1732
962.5202, 993.4332
963.0023, 995.3710
963.4844, 994.1153
963.9666, 991.4412
964.4487, 988.6586
964.9308, 985.8844
965.4129, 984.4294
965.8950, 984.0238
966.3771, 985.3386
966.8593, 991.8937
967.3414, 996.5975
967.8235, 992.3554
968.3056, 984.9343
968.7877, 985.0939
969.2698, 995.2006
969.7520, 1001.836
970.2341, 997.9552
970.7162, 992.6288
971.1983, 989.0716
971.6804, 987.6046
972.1625, 989.9711
972.6447, 994.6699
973.1268, 995.7227
973.6089, 988.5209
974.0910, 985.1127
974.5731, 1001.588
975.0552, 1021.660
975.5374, 1023.196
976.0195, 1012.857
976.5016, 1008.407
976.9837, 1014.528
977.4658, 1023.866
977.9479, 1032.281
978.4301, 1037.888
978.9122, 1034.065
979.3943, 1025.417
979.8764, 1028.331
980.3585, 1042.408
980.8406, 1049.117
981.3228, 1038.727
981.8049, 1022.703
982.2870, 1016.322
982.7691, 1019.008
983.2512, 1031.604
983.7333, 1053.865
984.2155, 1061.116
984.6976, 1045.616
985.1797, 1028.593
985.6618, 1027.213
986.1439, 1037.452
986.6260, 1048.026
987.1082, 1059.539
987.5903, 1067.469
988.0724, 1071.896
988.5545, 1071.084
989.0366, 1061.134
989.5187, 1051.193
990.0009, 1053.350
990.4830, 1067.283
990.9651, 1079.311
991.4472, 1090.399
991.9293, 1097.381
992.4114, 1097.652
992.8936, 1096.616
993.3757, 1097.752
993.8578, 1099.621
994.3399, 1098.049
994.8220, 1090.343
995.3041, 1090.942
995.7863, 1110.958
996.2684, 1125.628
996.7505, 1122.734
997.2326, 1116.490
997.7147, 1120.727
998.1968, 1132.364
998.6790, 1137.571
999.1611, 1130.092
999.6432, 1125.086
1000.125, 1126.544
1000.607, 1131.847
1001.090, 1142.245
1001.572, 1153.957
1002.054, 1163.301
1002.536, 1169.321
1003.018, 1170.077
1003.500, 1159.085
1003.982, 1150.797
1004.464, 1155.897
1004.946, 1165.938
1005.429, 1174.381
1005.911, 1180.073
1006.393, 1181.354
1006.875, 1177.972
1007.357, 1176.945
1007.839, 1187.894
1008.321, 1199.498
1008.803, 1198.090
1009.286, 1190.123
1009.768, 1185.743
1010.250, 1186.115
1010.732, 1188.308
1011.214, 1190.949
1011.696, 1193.756
1012.178, 1198.789
1012.660, 1202.494
1013.142, 1194.560
1013.625, 1179.765
1014.107, 1174.846
1014.589, 1182.683
1015.071, 1191.199
1015.553, 1190.964
1016.035, 1187.762
1016.517, 1192.167
1016.999, 1202.210
1017.482, 1211.603
1017.964, 1219.644
1018.446, 1225.022
1018.928, 1227.253
1019.410, 1229.261
1019.892, 1234.749
1020.374, 1234.278
1020.856, 1241.971
1021.338, 1236.311
1021.821, 1234.452
1022.303, 1237.797
1022.785, 1239.583
1023.267, 1235.768
1023.749, 1232.218
1024.231, 1238.852
1024.713, 1254.427
1025.195, 1261.161
1025.677, 1257.102
1026.160, 1265.219
1026.642, 1293.699
1027.124, 1317.450
1027.606, 1318.321
1028.088, 1305.657
1028.570, 1300.537
1029.052, 1304.353
1029.534, 1302.254
1030.017, 1289.847
1030.499, 1288.049
1030.981, 1307.356
1031.463, 1328.367
1031.945, 1334.028
1032.427, 1327.759
1032.909, 1321.977
1033.391, 1315.102
1033.874, 1313.790
1034.356, 1321.190
1034.838, 1327.832
1035.320, 1329.541
1035.802, 1330.060
1036.284, 1334.234
1036.766, 1341.353
1037.248, 1343.446
1037.730, 1330.747
1038.213, 1332.492
1038.695, 1365.133
1039.177, 1391.759
1039.659, 1391.823
1040.141, 1379.449
1040.623, 1372.658
1041.105, 1371.608
1041.587, 1372.660
1042.069, 1375.524
1042.552, 1380.890
1043.034, 1389.329
1043.516, 1399.781
1043.998, 1416.425
1044.480, 1432.788
1044.962, 1435.007
1045.444, 1419.404
1045.926, 1414.251
1046.409, 1433.558
1046.891, 1447.378
1047.373, 1442.449
1047.855, 1435.964
1048.337, 1443.450
1048.819, 1457.989
1049.301, 1461.635
1049.783, 1449.023
1050.266, 1441.319
1050.748, 1443.640
1051.230, 1449.196
1051.712, 1460.849
1052.194, 1470.329
1052.676, 1465.205
1053.158, 1452.021
1053.640, 1452.468
1054.122, 1474.991
1054.604, 1496.450
1055.087, 1512.804
1055.569, 1524.946
1056.051, 1533.038
1056.533, 1537.239
1057.015, 1533.998
1057.497, 1526.483
1057.979, 1528.430
1058.461, 1550.865
1058.944, 1564.388
1059.426, 1548.026
1059.908, 1533.054
1060.390, 1542.205
1060.872, 1560.573
1061.354, 1566.657
1061.836, 1561.085
1062.318, 1563.817
1062.801, 1588.747
1063.283, 1608.231
1063.765, 1604.376
1064.247, 1599.168
1064.729, 1610.768
1065.211, 1629.093
1065.693, 1636.708
1066.175, 1632.775
1066.657, 1633.786
1067.140, 1651.858
1067.622, 1666.619
1068.104, 1666.704
1068.586, 1662.474
1069.068, 1659.209
1069.550, 1658.538
1070.032, 1661.144
1070.514, 1667.432
1070.996, 1679.802
1071.479, 1706.433
1071.961, 1730.092
1072.443, 1742.565
1072.925, 1748.661
1073.407, 1747.644
1073.889, 1745.098
1074.371, 1751.064
1074.853, 1767.284
1075.335, 1783.207
1075.818, 1793.364
1076.300, 1803.192
1076.782, 1820.918
1077.264, 1834.784
1077.746, 1827.773
1078.228, 1810.588
1078.710, 1806.345
1079.192, 1820.337
1079.675, 1836.665
1080.157, 1849.924
1080.639, 1861.565
1081.121, 1871.271
1081.603, 1880.565
1082.085, 1892.495
1082.567, 1904.622
1083.049, 1909.145
1083.531, 1903.706
1084.014, 1905.878
1084.496, 1934.240
1084.978, 1958.779
1085.460, 1957.167
1085.942, 1949.479
1086.424, 1955.403
1086.906, 1971.369
1087.388, 1984.432
1087.870, 1991.232
1088.353, 1999.031
1088.835, 2012.555
1089.317, 2025.726
1089.799, 2034.142
1090.281, 2041.891
1090.763, 2052.422
1091.245, 2065.704
1091.727, 2081.195
1092.210, 2099.190
1092.692, 2115.082
1093.174, 2126.751
1093.656, 2136.436
1094.138, 2146.346
1094.620, 2153.818
1095.102, 2153.169
1095.584, 2148.625
1096.067, 2151.202
1096.549, 2164.313
1097.031, 2176.460
1097.513, 2180.938
1097.995, 2187.485
1098.477, 2201.167
1098.959, 2217.980
1099.441, 2237.019
1099.923, 2255.583
1100.406, 2267.342
1100.888, 2269.897
1101.370, 2273.455
1101.852, 2278.569
1102.334, 2287.726
1102.816, 2305.857
1103.298, 2324.870
1103.780, 2336.605
1104.262, 2344.100
1104.745, 2355.674
1105.227, 2373.195
1105.709, 2390.783
1106.191, 2406.089
1106.673, 2423.101
1107.155, 2449.699
1107.637, 2472.247
1108.119, 2476.845
1108.602, 2470.036
1109.084, 2465.592
1109.566, 2461.542
1110.048, 2474.500
1110.530, 2524.410
1111.012, 2566.009
1111.494, 2591.352
1111.976, 2602.952
1112.458, 2592.622
1112.941, 2572.562
1113.423, 2571.348
1113.905, 2594.373
1114.387, 2612.906
1114.869, 2619.255
1115.351, 2633.198
1115.833, 2665.377
1116.315, 2697.209
1116.797, 2716.155
1117.280, 2727.430
1117.762, 2741.210
1118.244, 2758.186
1118.726, 2772.445
1119.208, 2780.393
1119.690, 2793.674
1120.172, 2818.497
1120.654, 2841.329
1121.137, 2852.886
1121.619, 2858.490
1122.101, 2867.232
1122.583, 2879.174
1123.065, 2891.456
1123.547, 2901.460
1124.029, 2920.637
1124.511, 2953.036
1124.994, 2989.600
1125.476, 3028.280
1125.958, 3062.425
1126.440, 3080.054
1126.922, 3082.431
1127.404, 3094.818
1127.886, 3119.298
1128.368, 3139.480
1128.850, 3152.124
1129.333, 3167.437
1129.815, 3190.562
1130.297, 3218.423
1130.779, 3248.128
1131.261, 3278.152
1131.743, 3297.899
1132.225, 3307.406
1132.707, 3313.311
1133.189, 3316.067
1133.672, 3332.978
1134.154, 3372.415
1134.636, 3414.645
1135.118, 3437.664
1135.600, 3447.266
1136.082, 3456.596
1136.564, 3467.235
1137.046, 3490.355
1137.529, 3525.361
1138.011, 3560.530
1138.493, 3591.607
1138.975, 3619.573
1139.457, 3645.099
1139.939, 3668.626
1140.421, 3692.530
1140.903, 3714.822
1141.385, 3723.981
1141.868, 3726.474
1142.350, 3749.675
1142.832, 3798.232
1143.314, 3847.588
1143.796, 3881.381
1144.278, 3904.859
1144.760, 3913.336
1145.242, 3923.118
1145.724, 3966.151
1146.207, 4027.941
1146.689, 4075.327
1147.171, 4103.745
1147.653, 4129.118
1148.135, 4159.238
1148.617, 4190.026
1149.099, 4215.040
1149.581, 4242.258
1150.064, 4285.390
1150.546, 4331.786
1151.028, 4360.183
1151.510, 4373.753
1151.992, 4391.905
1152.474, 4420.906
1152.956, 4456.596
1153.438, 4497.257
1153.921, 4543.605
1154.403, 4606.434
1154.885, 4666.497
1155.367, 4698.927
1155.849, 4713.748
1156.331, 4739.202
1156.813, 4781.143
1157.295, 4826.232
1157.777, 4878.231
1158.260, 4923.904
1158.742, 4945.634
1159.224, 4973.453
1159.706, 5034.403
1160.188, 5112.764
1160.670, 5181.567
1161.152, 5240.877
1161.634, 5283.711
1162.116, 5299.077
1162.599, 5317.652
1163.081, 5338.645
1163.563, 5369.941
1164.045, 5419.209
1164.527, 5476.449
1165.009, 5530.601
1165.491, 5581.143
1165.973, 5620.368
1166.456, 5642.257
1166.938, 5682.247
1167.420, 5746.410
1167.902, 5811.261
1168.384, 5868.407
1168.866, 5921.411
1169.348, 5972.552
1169.830, 6024.491
1170.313, 6085.208
1170.795, 6154.080
1171.277, 6228.932
1171.759, 6308.533
1172.241, 6374.474
1172.723, 6422.090
1173.205, 6462.638
1173.687, 6502.835
1174.169, 6547.650
1174.651, 6610.138
1175.134, 6681.492
1175.616, 6736.554
1176.098, 6780.721
1176.580, 6828.052
1177.062, 6882.459
1177.544, 6948.737
1178.026, 7029.845
1178.508, 7110.438
1178.991, 7174.931
1179.473, 7233.368
1179.955, 7297.722
1180.437, 7363.658
1180.919, 7423.928
1181.401, 7480.140
1181.883, 7535.093
1182.365, 7590.190
1182.848, 7654.576
1183.330, 7749.554
1183.812, 7832.949
1184.294, 7868.271
1184.776, 7898.773
1185.258, 7957.389
1185.740, 8033.541
1186.222, 8111.506
1186.704, 8188.881
1187.187, 8264.450
1187.669, 8337.511
1188.151, 8409.547
1188.633, 8481.926
1189.115, 8551.811
1189.597, 8613.687
1190.079, 8677.375
1190.561, 8758.516
1191.043, 8846.441
1191.526, 8900.687
1192.008, 8903.315
1192.490, 8956.698
1192.972, 9083.666
1193.454, 9192.418
1193.936, 9259.502
1194.418, 9317.388
1194.900, 9385.631
1195.383, 9460.121
1195.865, 9537.378
1196.347, 9614.930
1196.829, 9665.776
1197.311, 9692.083
1197.793, 9756.121
1198.275, 9863.735
1198.757, 9967.307
1199.240, 10047.99
1199.722, 10121.21
1200.204, 10202.11
1200.686, 10286.12
1201.168, 10369.23
1201.650, 10446.42
1202.132, 10491.64
1202.614, 10522.78
1203.096, 10605.00
1203.578, 10739.32
1204.061, 10836.50
1204.543, 10834.40
1205.025, 10838.06
1205.507, 10955.05
1205.989, 11089.69
1206.471, 11141.67
1206.953, 11171.16
1207.435, 11271.60
1207.918, 11420.48
1208.400, 11523.06
1208.882, 11550.61
1209.364, 11589.69
1209.846, 11682.72
1210.328, 11766.37
1210.810, 11805.70
1211.292, 11846.68
1211.775, 11918.34
1212.257, 12011.22
1212.739, 12112.70
1213.221, 12222.52
1213.703, 12327.80
1214.185, 12432.57
1214.667, 12520.54
1215.149, 12584.23
1215.631, 12649.46
1216.114, 12724.74
1216.596, 12805.48
1217.078, 12888.31
1217.560, 12971.14
1218.042, 13045.75
1218.524, 13130.30
1219.006, 13212.15
1219.488, 13290.77
1219.970, 13376.93
1220.453, 13451.12
1220.935, 13527.04
1221.417, 13611.62
1221.899, 13703.69
1222.381, 13806.33
1222.863, 13911.91
1223.345, 14008.60
1223.827, 14099.73
1224.310, 14191.73
1224.792, 14283.38
1225.274, 14365.36
1225.756, 14437.85
1226.238, 14518.17
1226.720, 14614.10
1227.202, 14720.72
1227.684, 14853.49
1228.167, 14975.15
1228.649, 15046.05
1229.131, 15104.39
1229.613, 15195.19
1230.095, 15313.40
1230.577, 15428.13
1231.059, 15536.34
1231.541, 15640.82
1232.023, 15742.59
1232.505, 15837.62
1232.988, 15912.50
1233.470, 16005.15
1233.952, 16145.58
1234.434, 16300.80
1234.916, 16420.77
1235.398, 16561.37
1235.880, 16691.75
1236.362, 16808.38
1236.845, 16940.09
1237.327, 17033.14
1237.809, 17139.75
1238.291, 17276.44
1238.773, 17433.87
1239.255, 17607.24
1239.737, 17781.00
1240.219, 17930.06
1240.702, 18063.31
1241.184, 18186.16
1241.666, 18309.64
1242.148, 18458.34
1242.630, 18628.49
1243.112, 18803.27
1243.594, 18976.24
1244.076, 19130.30
1244.558, 19231.31
1245.041, 19343.50
1245.523, 19499.63
1246.005, 19681.76
1246.487, 19890.11
1246.969, 20106.95
1247.451, 20308.72
1247.933, 20496.38
1248.415, 20678.90
1248.897, 20850.11
1249.380, 21031.98
1249.862, 21229.85
1250.344, 21423.94
1250.826, 21604.25
1251.308, 21792.33
1251.790, 22006.24
1252.272, 22225.12
1252.754, 22407.64
1253.237, 22636.53
1253.719, 22870.57
1254.201, 23083.48
1254.683, 23355.84
1255.165, 23605.75
1255.647, 23835.99
1256.129, 24050.52
1256.611, 24267.92
1257.094, 24500.33
1257.576, 24749.11
1258.058, 25029.98
1258.540, 25317.88
1259.022, 25582.18
1259.504, 25833.81
1259.986, 26076.36
1260.468, 26321.75
1260.950, 26601.42
1261.432, 26925.75
1261.915, 27243.69
1262.397, 27561.98
1262.879, 27837.38
1263.361, 27993.46
1263.843, 28178.57
1264.325, 28492.59
1264.807, 28852.62
1265.289, 29163.26
1265.772, 29441.49
1266.254, 29768.01
1266.736, 30078.82
1267.218, 30384.72
1267.700, 30740.73
1268.182, 31036.79
1268.664, 31403.87
1269.146, 31787.69
1269.629, 32158.91
1270.111, 32518.17
1270.593, 32861.66
1271.075, 33199.33
1271.557, 33559.90
1272.039, 33920.57
1272.521, 34207.43
1273.003, 34463.86
1273.485, 34823.14
1273.968, 35286.30
1274.450, 35692.17
1274.932, 35942.43
1275.414, 36228.90
1275.896, 36679.68
1276.378, 37144.30
1276.860, 37568.14
1277.342, 37954.08
1277.824, 38266.96
1278.307, 38563.13
1278.789, 38959.01
1279.271, 39454.24
1279.753, 39900.22
1280.235, 40276.91
1280.717, 40678.09
1281.199, 41103.93
1281.681, 41602.03
1282.164, 42199.57
1282.646, 42770.72
1283.128, 43210.77
1283.610, 43596.59
1284.092, 44060.05
1284.574, 44571.70
1285.056, 45059.03
1285.538, 45531.85
1286.021, 46000.15
1286.503, 46477.45
1286.985, 46995.23
1287.467, 47549.66
##END=



