##NAMES=Turneaureite
##RRUFFID=R070758
##IDEAL CHEMISTRY=Ca_5_(As^5+^O_4_)_3_Cl
##LOCALITY=ZCA mine No. 4 (St Joe mine), Balmat, Balmat-Edwards Zinc District, St Lawrence County, New York, USA
##OWNER=RRUFF
##SOURCE=Michael Scott
##DESCRIPTION=Colorless to grayish white massive that fluoresces bright orange under SW UV.
##STATUS=The identification of this mineral has been confirmed only by single crystal X-ray diffraction.
##URL=rruff.info/R070758
80.14258, 93.91520
80.62469, 81.90652
81.10681, 103.8655
81.58893, 150.2500
82.07104, 178.0943
82.55316, 157.4889
83.03528, 122.8028
83.51740, 100.2796
83.99951, 104.1631
84.48163, 116.2530
84.96375, 133.3619
85.44586, 157.0325
85.92798, 171.2670
86.41010, 152.8889
86.89221, 119.1123
87.37433, 101.3251
87.85645, 130.9379
88.33856, 177.3238
88.82068, 210.4257
89.30280, 222.5293
89.78491, 222.8327
90.26703, 216.9931
90.74914, 205.6806
91.23125, 193.6446
91.71337, 179.8156
92.19549, 167.5246
92.67760, 165.1390
93.15972, 184.0075
93.64184, 214.0332
94.12395, 230.8689
94.60607, 232.6552
95.08819, 228.6706
95.57030, 229.7320
96.05242, 235.7958
96.53454, 245.4290
97.01665, 258.4551
97.49877, 274.7993
97.98089, 293.0735
98.46301, 315.1305
98.94512, 337.7723
99.42724, 349.1108
99.90936, 345.9417
100.3915, 340.3898
100.8736, 341.1103
101.3557, 346.5824
101.8378, 364.6214
102.3199, 401.2411
102.8021, 459.8760
103.2842, 506.7325
103.7663, 537.1977
104.2484, 559.6536
104.7305, 590.3671
105.2126, 638.1856
105.6948, 681.9263
106.1769, 711.2044
106.6590, 700.9936
107.1411, 716.0569
107.6232, 768.1156
108.1053, 851.9329
108.5875, 925.2738
109.0696, 972.5951
109.5517, 1018.867
110.0338, 1079.677
110.5159, 1188.726
110.9980, 1279.975
111.4801, 1334.906
111.9623, 1345.674
112.4444, 1368.596
112.9265, 1418.641
113.4086, 1483.675
113.8907, 1548.374
114.3728, 1604.810
114.8550, 1662.986
115.3371, 1728.338
115.8192, 1811.107
116.3013, 1885.860
116.7834, 1932.184
117.2655, 1960.161
117.7477, 2003.117
118.2298, 2088.543
118.7119, 2191.093
119.1940, 2286.808
119.6761, 2351.970
120.1582, 2420.806
120.6404, 2531.172
121.1225, 2683.690
121.6046, 2809.486
122.0867, 2840.980
122.5688, 2813.745
123.0509, 2791.974
123.5331, 2810.146
124.0152, 2848.402
124.4973, 2884.558
124.9794, 2916.718
125.4615, 2945.670
125.9436, 2964.269
126.4258, 2976.818
126.9079, 3004.167
127.3900, 3075.427
127.8721, 3172.417
128.3542, 3250.587
128.8363, 3295.113
129.3185, 3315.494
129.8006, 3324.788
130.2827, 3325.758
130.7648, 3334.598
131.2469, 3362.905
131.7290, 3407.807
132.2112, 3448.919
132.6933, 3474.562
133.1754, 3488.326
133.6575, 3518.154
134.1396, 3570.569
134.6217, 3623.593
135.1039, 3629.161
135.5860, 3578.819
136.0681, 3545.613
136.5502, 3582.333
137.0323, 3696.921
137.5145, 3771.254
137.9966, 3782.522
138.4787, 3752.553
138.9608, 3765.603
139.4429, 3840.982
139.9250, 3917.635
140.4072, 3945.068
140.8893, 3905.818
141.3714, 3872.989
141.8535, 3861.521
142.3356, 3872.239
142.8177, 3877.160
143.2998, 3873.016
143.7820, 3866.068
144.2641, 3864.833
144.7462, 3874.352
145.2283, 3881.654
145.7104, 3880.225
146.1925, 3858.001
146.6747, 3858.160
147.1568, 3897.542
147.6389, 3958.894
148.1210, 3994.032
148.6031, 3985.191
149.0852, 3966.433
149.5674, 3952.418
150.0495, 3936.148
150.5316, 3932.650
151.0137, 3947.889
151.4958, 3980.001
151.9779, 4008.174
152.4601, 4029.968
152.9422, 4048.269
153.4243, 4065.340
153.9064, 4086.700
154.3885, 4101.374
154.8706, 4103.873
155.3528, 4091.527
155.8349, 4084.134
156.3170, 4083.478
156.7991, 4089.974
157.2812, 4104.327
157.7633, 4141.383
158.2455, 4174.807
158.7276, 4193.007
159.2097, 4190.111
159.6918, 4182.271
160.1739, 4165.527
160.6560, 4146.805
161.1382, 4142.280
161.6203, 4174.145
162.1024, 4213.242
162.5845, 4239.954
163.0666, 4246.026
163.5487, 4243.145
164.0309, 4230.907
164.5130, 4211.368
164.9951, 4197.950
165.4772, 4200.190
165.9593, 4211.019
166.4414, 4222.806
166.9236, 4231.961
167.4057, 4241.625
167.8878, 4254.095
168.3699, 4269.259
168.8520, 4285.571
169.3341, 4304.475
169.8163, 4323.587
170.2984, 4338.791
170.7805, 4350.721
171.2626, 4356.657
171.7447, 4351.324
172.2268, 4331.180
172.7090, 4310.719
173.1911, 4297.396
173.6732, 4292.794
174.1553, 4301.983
174.6374, 4344.430
175.1195, 4398.654
175.6017, 4431.459
176.0838, 4428.247
176.5659, 4412.193
177.0480, 4406.290
177.5301, 4410.307
178.0122, 4422.351
178.4944, 4450.972
178.9765, 4486.742
179.4586, 4508.162
179.9407, 4499.598
180.4228, 4477.206
180.9049, 4467.514
181.3871, 4470.869
181.8692, 4480.357
182.3513, 4492.532
182.8334, 4506.170
183.3155, 4516.690
183.7976, 4517.761
184.2797, 4514.257
184.7619, 4522.077
185.2440, 4544.122
185.7261, 4568.098
186.2082, 4574.428
186.6903, 4564.945
187.1724, 4559.111
187.6546, 4573.031
188.1367, 4601.334
188.6188, 4617.475
189.1009, 4615.979
189.5830, 4605.738
190.0651, 4601.851
190.5473, 4604.304
191.0294, 4610.093
191.5115, 4621.493
191.9936, 4637.149
192.4757, 4638.985
192.9578, 4615.484
193.4400, 4580.895
193.9221, 4583.353
194.4042, 4628.105
194.8863, 4680.493
195.3684, 4711.461
195.8505, 4720.974
196.3327, 4716.295
196.8148, 4688.765
197.2969, 4645.949
197.7790, 4646.092
198.2611, 4700.608
198.7432, 4765.872
199.2254, 4784.550
199.7075, 4750.594
200.1896, 4718.659
200.6717, 4707.998
201.1538, 4718.931
201.6359, 4731.832
202.1181, 4747.811
202.6002, 4763.869
203.0823, 4774.625
203.5644, 4779.123
204.0465, 4781.805
204.5286, 4782.244
205.0108, 4778.712
205.4929, 4785.439
205.9750, 4805.336
206.4571, 4833.710
206.9392, 4859.729
207.4213, 4883.755
207.9035, 4904.103
208.3856, 4919.135
208.8677, 4927.824
209.3498, 4935.667
209.8319, 4943.488
210.3140, 4950.927
210.7962, 4956.469
211.2783, 4960.423
211.7604, 4962.186
212.2425, 4959.699
212.7246, 4949.732
213.2067, 4947.499
213.6889, 4960.177
214.1710, 4985.935
214.6531, 4992.953
215.1352, 4973.251
215.6173, 4946.859
216.0994, 4933.400
216.5816, 4935.249
217.0637, 4944.110
217.5458, 4960.842
218.0279, 4986.143
218.5100, 5003.023
218.9921, 5006.567
219.4743, 5006.167
219.9564, 5014.859
220.4385, 5037.185
220.9206, 5058.715
221.4027, 5075.496
221.8848, 5088.062
222.3670, 5092.267
222.8491, 5080.973
223.3312, 5065.665
223.8133, 5069.254
224.2954, 5103.873
224.7775, 5136.688
225.2596, 5155.309
225.7418, 5156.328
226.2239, 5153.003
226.7060, 5146.103
227.1881, 5134.844
227.6702, 5113.624
228.1523, 5067.625
228.6345, 5034.096
229.1166, 5034.564
229.5987, 5087.854
230.0808, 5131.594
230.5629, 5160.783
231.0450, 5178.090
231.5272, 5195.825
232.0093, 5218.797
232.4914, 5235.649
232.9735, 5235.962
233.4556, 5199.899
233.9377, 5189.443
234.4199, 5221.147
234.9020, 5288.835
235.3841, 5332.797
235.8662, 5344.239
236.3483, 5342.158
236.8304, 5338.909
237.3126, 5328.694
237.7947, 5329.132
238.2768, 5347.172
238.7589, 5382.419
239.2410, 5408.021
239.7231, 5427.049
240.2053, 5433.406
240.6874, 5417.756
241.1695, 5357.633
241.6516, 5315.229
242.1337, 5305.083
242.6158, 5329.685
243.0980, 5354.843
243.5801, 5380.857
244.0622, 5407.174
244.5443, 5434.001
245.0264, 5465.716
245.5085, 5490.490
245.9907, 5505.649
246.4728, 5510.756
246.9549, 5507.639
247.4370, 5488.970
247.9191, 5467.461
248.4012, 5462.225
248.8834, 5480.142
249.3655, 5502.644
249.8476, 5525.634
250.3297, 5550.527
250.8118, 5569.991
251.2939, 5582.216
251.7761, 5589.806
252.2582, 5595.964
252.7403, 5595.496
253.2224, 5602.584
253.7045, 5626.871
254.1866, 5682.343
254.6688, 5710.046
255.1509, 5699.234
255.6330, 5665.703
256.1151, 5642.781
256.5972, 5631.310
257.0793, 5629.071
257.5615, 5635.545
258.0436, 5652.134
258.5257, 5675.796
259.0078, 5715.283
259.4899, 5758.932
259.9720, 5771.597
260.4542, 5736.340
260.9363, 5701.297
261.4184, 5693.197
261.9005, 5722.945
262.3826, 5744.348
262.8647, 5749.215
263.3469, 5745.559
263.8290, 5763.833
264.3111, 5816.106
264.7932, 5866.298
265.2753, 5890.669
265.7574, 5880.010
266.2396, 5875.998
266.7217, 5885.864
267.2038, 5903.993
267.6859, 5906.255
268.1680, 5884.543
268.6501, 5864.712
269.1323, 5867.901
269.6144, 5900.652
270.0965, 5925.225
270.5786, 5935.193
271.0607, 5933.786
271.5428, 5934.636
272.0250, 5938.307
272.5071, 5943.045
272.9892, 5947.643
273.4713, 5952.059
273.9534, 5957.301
274.4355, 5964.228
274.9177, 5972.130
275.3998, 5975.539
275.8819, 5971.429
276.3640, 5972.075
276.8461, 5995.338
277.3282, 6045.829
277.8104, 6072.300
278.2925, 6053.510
278.7746, 6004.685
279.2567, 6003.855
279.7388, 6062.841
280.2209, 6124.237
280.7031, 6124.490
281.1852, 6059.997
281.6673, 6023.154
282.1494, 6044.907
282.6315, 6107.306
283.1136, 6134.319
283.5958, 6120.856
284.0779, 6098.768
284.5600, 6099.636
285.0421, 6122.693
285.5242, 6143.034
286.0063, 6150.532
286.4884, 6151.349
286.9706, 6171.265
287.4527, 6212.885
287.9348, 6253.749
288.4169, 6269.111
288.8990, 6261.256
289.3811, 6253.089
289.8633, 6251.946
290.3454, 6254.685
290.8275, 6250.271
291.3096, 6237.746
291.7917, 6228.473
292.2738, 6239.648
292.7560, 6266.276
293.2381, 6282.404
293.7202, 6270.868
294.2023, 6247.418
294.6844, 6247.631
295.1665, 6272.357
295.6487, 6306.450
296.1308, 6343.798
296.6129, 6380.978
297.0950, 6405.449
297.5771, 6408.377
298.0592, 6398.793
298.5414, 6388.161
299.0235, 6376.387
299.5056, 6370.291
299.9877, 6378.841
300.4698, 6397.517
300.9519, 6416.274
301.4341, 6432.131
301.9162, 6445.333
302.3983, 6454.134
302.8804, 6458.498
303.3625, 6465.671
303.8446, 6488.061
304.3268, 6516.678
304.8089, 6535.051
305.2910, 6527.685
305.7731, 6513.292
306.2552, 6508.264
306.7373, 6512.492
307.2195, 6524.712
307.7016, 6553.295
308.1837, 6587.391
308.6658, 6611.415
309.1479, 6612.201
309.6300, 6606.747
310.1122, 6606.113
310.5943, 6610.320
311.0764, 6618.329
311.5585, 6635.016
312.0406, 6653.329
312.5227, 6665.567
313.0049, 6657.576
313.4870, 6652.183
313.9691, 6666.708
314.4512, 6699.452
314.9333, 6726.488
315.4154, 6728.427
315.8976, 6722.759
316.3797, 6725.996
316.8618, 6757.427
317.3439, 6785.268
317.8260, 6793.265
318.3081, 6783.210
318.7903, 6775.819
319.2724, 6781.540
319.7545, 6790.871
320.2366, 6796.304
320.7187, 6788.023
321.2008, 6784.052
321.6830, 6790.971
322.1651, 6807.833
322.6472, 6824.066
323.1293, 6838.277
323.6114, 6851.026
324.0935, 6862.704
324.5757, 6870.454
325.0578, 6880.434
325.5399, 6894.007
326.0220, 6910.810
326.5041, 6928.312
326.9862, 6943.857
327.4684, 6961.460
327.9505, 6983.570
328.4326, 7015.891
328.9147, 7045.192
329.3968, 7072.557
329.8789, 7096.779
330.3611, 7111.520
330.8432, 7111.714
331.3253, 7107.404
331.8074, 7103.645
332.2895, 7098.215
332.7716, 7097.218
333.2538, 7099.416
333.7359, 7106.387
334.2180, 7126.792
334.7001, 7172.199
335.1822, 7213.137
335.6643, 7231.292
336.1465, 7219.011
336.6286, 7208.002
337.1107, 7197.280
337.5928, 7190.148
338.0749, 7198.069
338.5570, 7224.353
339.0392, 7255.200
339.5213, 7286.347
340.0034, 7319.732
340.4855, 7336.256
340.9676, 7330.414
341.4497, 7312.949
341.9319, 7305.046
342.4140, 7307.065
342.8961, 7316.110
343.3782, 7330.992
343.8603, 7351.989
344.3424, 7381.625
344.8246, 7424.063
345.3067, 7466.763
345.7888, 7490.863
346.2709, 7496.636
346.7530, 7493.379
347.2351, 7473.186
347.7173, 7446.358
348.1994, 7453.083
348.6815, 7500.850
349.1636, 7554.546
349.6457, 7569.415
350.1278, 7552.701
350.6100, 7533.146
351.0921, 7517.949
351.5742, 7510.165
352.0563, 7519.740
352.5384, 7548.755
353.0205, 7575.721
353.5027, 7577.579
353.9848, 7563.237
354.4669, 7550.035
354.9490, 7547.130
355.4311, 7547.961
355.9132, 7540.663
356.3954, 7525.125
356.8775, 7525.744
357.3596, 7589.071
357.8417, 7669.863
358.3238, 7710.270
358.8059, 7643.354
359.2881, 7568.743
359.7702, 7541.153
360.2523, 7558.911
360.7344, 7588.039
361.2165, 7624.385
361.6986, 7660.109
362.1808, 7688.825
362.6629, 7705.009
363.1450, 7717.604
363.6271, 7726.705
364.1092, 7733.141
364.5913, 7742.843
365.0735, 7761.858
365.5556, 7781.603
366.0377, 7796.797
366.5198, 7803.625
367.0019, 7809.882
367.4840, 7818.564
367.9662, 7828.034
368.4482, 7830.383
368.9304, 7800.405
369.4125, 7785.226
369.8946, 7808.063
370.3767, 7911.547
370.8588, 7980.107
371.3409, 8004.585
371.8231, 7996.577
372.3052, 7982.546
372.7873, 7956.523
373.2694, 7934.295
373.7515, 7921.680
374.2336, 7918.666
374.7158, 7925.786
375.1979, 7945.888
375.6800, 7973.116
376.1621, 8001.860
376.6442, 8036.066
377.1263, 8055.602
377.6085, 8044.050
378.0906, 8003.250
378.5727, 7991.943
379.0548, 8016.135
379.5369, 8052.356
380.0190, 8070.570
380.5012, 8071.587
380.9833, 8073.800
381.4654, 8082.941
381.9475, 8097.765
382.4296, 8117.424
382.9117, 8142.102
383.3939, 8164.499
383.8760, 8172.943
384.3581, 8172.432
384.8402, 8179.423
385.3223, 8205.833
385.8044, 8235.098
386.2866, 8239.834
386.7687, 8222.963
387.2508, 8206.796
387.7329, 8212.545
388.2150, 8227.277
388.6971, 8230.915
389.1793, 8205.490
389.6614, 8189.841
390.1435, 8229.529
390.6256, 8306.844
391.1077, 8364.866
391.5898, 8359.344
392.0720, 8333.709
392.5541, 8320.261
393.0362, 8330.605
393.5183, 8338.390
394.0004, 8327.372
394.4825, 8307.264
394.9647, 8295.902
395.4468, 8300.313
395.9289, 8312.217
396.4110, 8328.604
396.8931, 8349.160
397.3752, 8373.691
397.8574, 8411.188
398.3395, 8449.204
398.8216, 8472.401
399.3037, 8470.017
399.7858, 8464.382
400.2679, 8455.792
400.7501, 8443.166
401.2322, 8446.497
401.7143, 8476.586
402.1964, 8512.221
402.6785, 8536.460
403.1606, 8550.152
403.6428, 8548.244
404.1249, 8517.619
404.6070, 8469.745
405.0891, 8478.463
405.5712, 8564.348
406.0533, 8646.577
406.5355, 8654.950
407.0176, 8583.285
407.4997, 8551.300
407.9818, 8581.634
408.4639, 8643.024
408.9460, 8668.526
409.4282, 8657.894
409.9103, 8645.390
410.3924, 8652.729
410.8745, 8674.125
411.3566, 8688.701
411.8387, 8693.973
412.3209, 8698.280
412.8030, 8713.729
413.2851, 8736.733
413.7672, 8756.793
414.2493, 8758.715
414.7314, 8760.111
415.2136, 8787.374
415.6957, 8841.316
416.1778, 8892.329
416.6599, 8924.236
417.1420, 8938.525
417.6241, 8936.425
418.1063, 8899.729
418.5884, 8863.472
419.0705, 8841.758
419.5526, 8834.713
420.0347, 8841.792
420.5168, 8885.197
420.9990, 8929.342
421.4811, 8947.871
421.9632, 8907.486
422.4453, 8881.924
422.9274, 8893.693
423.4095, 8930.916
423.8917, 8958.926
424.3738, 8969.285
424.8559, 8975.946
425.3380, 8983.063
425.8201, 8989.719
426.3022, 8999.807
426.7844, 9012.046
427.2665, 9028.378
427.7486, 9054.241
428.2307, 9099.781
428.7128, 9129.979
429.1949, 9125.599
429.6771, 9087.793
430.1592, 9090.344
430.6413, 9144.232
431.1234, 9209.083
431.6055, 9239.342
432.0876, 9233.590
432.5698, 9241.372
433.0519, 9279.307
433.5340, 9332.133
434.0161, 9364.933
434.4982, 9377.972
434.9803, 9377.926
435.4625, 9360.426
435.9446, 9333.776
436.4267, 9320.773
436.9088, 9328.412
437.3909, 9340.699
437.8730, 9339.943
438.3552, 9329.563
438.8373, 9318.927
439.3194, 9304.730
439.8015, 9297.284
440.2836, 9311.774
440.7657, 9351.950
441.2479, 9385.523
441.7300, 9381.209
442.2121, 9364.418
442.6942, 9365.387
443.1763, 9407.128
443.6584, 9454.676
444.1406, 9506.246
444.6227, 9559.369
445.1048, 9584.215
445.5869, 9541.365
446.0690, 9491.165
446.5511, 9469.196
447.0333, 9501.085
447.5154, 9532.028
447.9975, 9569.007
448.4796, 9604.487
448.9617, 9616.228
449.4438, 9592.505
449.9260, 9564.208
450.4081, 9538.979
450.8902, 9513.391
451.3723, 9515.819
451.8544, 9555.873
452.3365, 9608.882
452.8186, 9639.811
453.3008, 9646.114
453.7829, 9658.729
454.2650, 9694.348
454.7471, 9741.553
455.2292, 9755.569
455.7113, 9734.705
456.1935, 9709.444
456.6756, 9705.006
457.1577, 9716.433
457.6398, 9730.879
458.1219, 9747.797
458.6040, 9762.662
459.0862, 9765.542
459.5683, 9760.584
460.0504, 9761.604
460.5325, 9781.186
461.0146, 9807.585
461.4967, 9834.298
461.9789, 9863.297
462.4610, 9877.427
462.9431, 9847.933
463.4252, 9803.890
463.9073, 9783.313
464.3894, 9826.148
464.8716, 9866.130
465.3537, 9874.455
465.8358, 9850.779
466.3179, 9845.574
466.8000, 9879.886
467.2821, 9923.632
467.7643, 9958.440
468.2464, 9978.021
468.7285, 9999.434
469.2106, 10029.10
469.6927, 10059.12
470.1748, 10064.65
470.6570, 10033.48
471.1391, 10006.97
471.6212, 10002.86
472.1033, 10022.13
472.5854, 10047.27
473.0675, 10079.09
473.5497, 10113.82
474.0318, 10156.85
474.5139, 10205.35
474.9960, 10221.40
475.4781, 10172.99
475.9602, 10099.45
476.4424, 10089.44
476.9245, 10138.65
477.4066, 10190.44
477.8887, 10202.18
478.3708, 10190.78
478.8529, 10178.54
479.3351, 10165.60
479.8172, 10163.36
480.2993, 10181.91
480.7814, 10217.52
481.2635, 10262.03
481.7456, 10340.16
482.2278, 10403.32
482.7099, 10415.13
483.1920, 10365.25
483.6741, 10333.31
484.1562, 10355.56
484.6383, 10395.45
485.1205, 10421.35
485.6026, 10414.97
486.0847, 10412.71
486.5668, 10421.88
487.0489, 10438.31
487.5310, 10439.44
488.0132, 10407.48
488.4953, 10389.56
488.9774, 10417.19
489.4595, 10504.40
489.9416, 10558.90
490.4237, 10572.52
490.9059, 10567.73
491.3880, 10581.72
491.8701, 10614.43
492.3522, 10632.38
492.8343, 10614.55
493.3164, 10577.65
493.7986, 10564.23
494.2807, 10574.17
494.7628, 10591.30
495.2449, 10606.45
495.7270, 10619.14
496.2091, 10626.96
496.6913, 10626.89
497.1734, 10627.60
497.6555, 10631.06
498.1376, 10640.13
498.6197, 10661.44
499.1018, 10717.38
499.5840, 10770.09
500.0661, 10796.47
500.5482, 10790.50
501.0303, 10784.43
501.5124, 10784.93
501.9945, 10788.50
502.4767, 10791.94
502.9588, 10789.22
503.4409, 10794.25
503.9230, 10814.24
504.4051, 10843.99
504.8872, 10860.10
505.3694, 10857.22
505.8515, 10852.24
506.3336, 10852.30
506.8157, 10857.60
507.2978, 10871.75
507.7799, 10898.63
508.2621, 10926.32
508.7442, 10935.39
509.2263, 10927.74
509.7084, 10925.75
510.1905, 10937.38
510.6726, 10958.24
511.1548, 10979.84
511.6369, 11002.25
512.1190, 11028.08
512.6011, 11069.29
513.0832, 11110.84
513.5653, 11129.04
514.0474, 11109.53
514.5295, 11096.21
515.0117, 11131.08
515.4938, 11188.59
515.9759, 11224.87
516.4580, 11204.14
516.9401, 11180.56
517.4222, 11178.11
517.9044, 11199.08
518.3865, 11209.63
518.8686, 11193.17
519.3507, 11174.82
519.8328, 11170.09
520.3149, 11187.16
520.7971, 11201.50
521.2792, 11208.81
521.7613, 11214.60
522.2434, 11232.32
522.7255, 11264.56
523.2076, 11297.81
523.6898, 11331.77
524.1719, 11363.46
524.6540, 11367.95
525.1361, 11341.68
525.6182, 11316.49
526.1003, 11328.10
526.5825, 11366.22
527.0646, 11401.89
527.5467, 11427.88
528.0288, 11448.27
528.5109, 11465.10
528.9930, 11479.23
529.4752, 11493.68
529.9573, 11519.43
530.4394, 11539.03
530.9215, 11529.33
531.4036, 11481.70
531.8857, 11462.87
532.3679, 11523.66
532.8500, 11608.94
533.3321, 11667.60
533.8142, 11667.59
534.2963, 11671.32
534.7784, 11684.60
535.2606, 11705.87
535.7427, 11729.62
536.2248, 11756.90
536.7069, 11785.66
537.1890, 11822.75
537.6711, 11871.62
538.1533, 11874.22
538.6354, 11818.84
539.1175, 11752.08
539.5996, 11726.15
540.0817, 11737.62
540.5638, 11766.98
541.0460, 11818.51
541.5281, 11873.66
542.0102, 11897.72
542.4923, 11896.51
542.9744, 11896.90
543.4565, 11921.86
543.9387, 11952.23
544.4208, 11968.09
544.9029, 11965.69
545.3850, 11961.65
545.8671, 11965.29
546.3492, 11970.84
546.8314, 11972.00
547.3135, 11949.51
547.7956, 11942.17
548.2777, 11969.57
548.7598, 12021.18
549.2419, 12051.60
549.7241, 12049.68
550.2062, 12041.48
550.6883, 12033.62
551.1704, 12022.80
551.6525, 12038.34
552.1346, 12090.83
552.6168, 12147.09
553.0989, 12162.03
553.5810, 12137.66
554.0631, 12125.28
554.5452, 12140.22
555.0273, 12169.71
555.5095, 12188.57
555.9916, 12199.69
556.4737, 12218.12
556.9558, 12262.89
557.4379, 12314.71
557.9200, 12354.14
558.4022, 12379.21
558.8843, 12389.51
559.3664, 12367.08
559.8485, 12337.29
560.3306, 12326.13
560.8127, 12352.02
561.2949, 12383.60
561.7770, 12419.83
562.2591, 12457.79
562.7412, 12486.18
563.2233, 12493.34
563.7054, 12506.71
564.1876, 12542.64
564.6697, 12607.33
565.1518, 12632.59
565.6339, 12607.68
566.1160, 12568.65
566.5981, 12550.97
567.0803, 12554.22
567.5624, 12559.48
568.0445, 12564.30
568.5266, 12568.11
569.0087, 12565.24
569.4908, 12558.85
569.9730, 12562.39
570.4551, 12589.98
570.9372, 12626.67
571.4193, 12657.44
571.9014, 12681.35
572.3835, 12707.90
572.8657, 12753.53
573.3478, 12797.36
573.8299, 12820.63
574.3120, 12803.74
574.7941, 12788.96
575.2762, 12774.07
575.7584, 12766.75
576.2405, 12785.52
576.7226, 12858.69
577.2047, 12910.36
577.6868, 12910.99
578.1689, 12864.95
578.6511, 12845.89
579.1332, 12857.79
579.6153, 12881.45
580.0974, 12905.45
580.5795, 12929.47
581.0616, 12949.95
581.5438, 12966.59
582.0259, 12979.27
582.5080, 12986.56
582.9901, 12989.79
583.4722, 12992.24
583.9543, 12985.99
584.4365, 12987.08
584.9186, 13016.24
585.4007, 13067.36
585.8828, 13107.63
586.3649, 13113.06
586.8470, 13111.05
587.3292, 13115.91
587.8113, 13128.94
588.2934, 13150.21
588.7755, 13189.10
589.2576, 13229.70
589.7397, 13255.43
590.2219, 13264.56
590.7040, 13259.72
591.1861, 13229.81
591.6682, 13192.97
592.1503, 13213.96
592.6324, 13296.73
593.1146, 13372.78
593.5967, 13399.99
594.0788, 13393.22
594.5609, 13388.66
595.0430, 13386.91
595.5251, 13391.93
596.0073, 13407.37
596.4894, 13431.28
596.9715, 13464.32
597.4536, 13522.57
597.9357, 13561.55
598.4178, 13541.93
598.9000, 13490.97
599.3821, 13461.45
599.8642, 13480.69
600.3463, 13506.40
600.8284, 13529.49
601.3105, 13550.20
601.7927, 13569.08
602.2748, 13588.85
602.7569, 13603.06
603.2390, 13603.85
603.7211, 13589.52
604.2032, 13588.14
604.6854, 13602.89
605.1675, 13625.54
605.6496, 13649.49
606.1317, 13672.95
606.6138, 13687.25
607.0959, 13683.27
607.5781, 13676.05
608.0602, 13686.12
608.5423, 13708.53
609.0244, 13726.40
609.5065, 13714.00
609.9886, 13706.68
610.4708, 13730.09
610.9529, 13791.02
611.4350, 13848.02
611.9171, 13904.02
612.3992, 13945.84
612.8813, 13960.94
613.3635, 13918.76
613.8456, 13913.38
614.3277, 13965.86
614.8098, 14042.96
615.2919, 14072.15
615.7740, 14047.37
616.2562, 14035.87
616.7383, 14072.14
617.2204, 14134.49
617.7025, 14160.97
618.1846, 14154.10
618.6667, 14139.31
619.1489, 14126.20
619.6310, 14119.64
620.1131, 14130.57
620.5952, 14164.85
621.0773, 14190.49
621.5594, 14177.38
622.0416, 14151.88
622.5237, 14142.25
623.0058, 14172.56
623.4879, 14197.55
623.9700, 14201.03
624.4521, 14195.79
624.9343, 14218.01
625.4164, 14283.14
625.8985, 14341.00
626.3806, 14373.28
626.8627, 14382.09
627.3448, 14386.40
627.8270, 14385.32
628.3091, 14386.06
628.7912, 14399.52
629.2733, 14419.05
629.7554, 14421.43
630.2375, 14397.51
630.7197, 14386.02
631.2018, 14448.08
631.6839, 14538.78
632.1660, 14590.32
632.6481, 14529.88
633.1302, 14476.19
633.6124, 14478.61
634.0945, 14523.69
634.5766, 14559.49
635.0587, 14582.00
635.5408, 14591.94
636.0229, 14580.16
636.5051, 14543.31
636.9872, 14555.17
637.4693, 14633.36
637.9514, 14711.76
638.4335, 14722.46
638.9156, 14674.95
639.3978, 14661.73
639.8799, 14698.42
640.3620, 14749.94
640.8441, 14779.64
641.3262, 14792.49
641.8083, 14799.80
642.2905, 14794.55
642.7726, 14796.37
643.2547, 14828.10
643.7368, 14879.16
644.2189, 14914.79
644.7010, 14908.58
645.1832, 14898.53
645.6653, 14899.42
646.1474, 14912.30
646.6295, 14927.08
647.1116, 14942.82
647.5938, 14962.40
648.0759, 14991.03
648.5580, 15030.30
649.0401, 15059.87
649.5222, 15078.46
650.0043, 15087.82
650.4865, 15084.46
650.9686, 15072.84
651.4507, 15068.85
651.9328, 15079.31
652.4149, 15097.63
652.8970, 15118.22
653.3792, 15141.31
653.8613, 15167.87
654.3434, 15209.96
654.8255, 15245.16
655.3076, 15258.87
655.7897, 15247.65
656.2718, 15241.99
656.7539, 15237.87
657.2360, 15244.89
657.7181, 15275.37
658.2003, 15341.77
658.6824, 15369.42
659.1645, 15343.25
659.6466, 15311.04
660.1287, 15352.63
660.6108, 15452.38
661.0930, 15515.91
661.5751, 15504.69
662.0572, 15469.62
662.5393, 15464.17
663.0214, 15484.08
663.5035, 15517.71
663.9857, 15594.57
664.4678, 15651.81
664.9499, 15634.97
665.4320, 15546.40
665.9141, 15497.81
666.3962, 15523.72
666.8784, 15579.08
667.3605, 15656.09
667.8426, 15772.79
668.3247, 15817.71
668.8068, 15765.55
669.2889, 15698.39
669.7711, 15718.87
670.2532, 15816.39
670.7353, 15878.16
671.2174, 15877.51
671.6995, 15850.41
672.1816, 15838.77
672.6638, 15836.32
673.1459, 15827.69
673.6280, 15782.13
674.1101, 15750.96
674.5922, 15772.31
675.0743, 15837.45
675.5565, 15897.92
676.0386, 15949.22
676.5207, 15987.29
677.0028, 16008.52
677.4849, 16010.56
677.9670, 16011.42
678.4492, 16005.18
678.9313, 16009.15
679.4134, 16048.65
679.8955, 16118.34
680.3776, 16154.81
680.8597, 16147.24
681.3419, 16126.87
681.8240, 16126.72
682.3061, 16140.89
682.7882, 16157.38
683.2703, 16170.09
683.7524, 16187.13
684.2346, 16223.92
684.7167, 16268.60
685.1988, 16294.41
685.6809, 16264.70
686.1630, 16248.55
686.6451, 16274.27
687.1273, 16335.00
687.6094, 16361.70
688.0915, 16339.13
688.5736, 16321.29
689.0557, 16342.98
689.5378, 16399.95
690.0200, 16448.79
690.5021, 16489.33
690.9842, 16516.95
691.4663, 16517.09
691.9484, 16504.30
692.4305, 16503.61
692.9127, 16524.36
693.3948, 16544.15
693.8769, 16546.43
694.3590, 16541.58
694.8411, 16543.37
695.3232, 16564.64
695.8054, 16580.32
696.2875, 16580.43
696.7696, 16574.68
697.2517, 16592.58
697.7338, 16644.11
698.2159, 16682.69
698.6981, 16680.70
699.1802, 16656.26
699.6623, 16686.38
700.1444, 16767.10
700.6265, 16831.51
701.1086, 16798.79
701.5908, 16741.50
702.0729, 16766.54
702.5550, 16886.43
703.0371, 16978.10
703.5192, 16953.06
704.0013, 16893.50
704.4835, 16862.25
704.9656, 16882.30
705.4477, 16908.45
705.9298, 16948.37
706.4119, 16987.79
706.8940, 17003.27
707.3762, 16987.91
707.8583, 17002.38
708.3404, 17071.75
708.8225, 17152.24
709.3046, 17149.09
709.7867, 17082.41
710.2689, 17033.00
710.7510, 17044.51
711.2331, 17084.15
711.7152, 17135.18
712.1973, 17192.77
712.6794, 17236.59
713.1616, 17242.36
713.6437, 17246.56
714.1258, 17270.38
714.6079, 17316.24
715.0900, 17338.05
715.5721, 17319.86
716.0543, 17305.25
716.5364, 17329.61
717.0185, 17392.35
717.5006, 17443.99
717.9827, 17484.84
718.4648, 17497.35
718.9470, 17421.55
719.4291, 17311.02
719.9112, 17278.76
720.3933, 17381.26
720.8754, 17494.01
721.3575, 17542.20
721.8397, 17551.76
722.3218, 17558.42
722.8039, 17562.48
723.2860, 17573.21
723.7681, 17592.33
724.2502, 17618.22
724.7324, 17649.68
725.2145, 17691.15
725.6966, 17716.72
726.1787, 17708.62
726.6608, 17680.90
727.1429, 17671.73
727.6251, 17680.96
728.1072, 17710.35
728.5893, 17794.53
729.0714, 17877.86
729.5535, 17899.87
730.0356, 17856.63
730.5178, 17809.13
730.9999, 17769.87
731.4820, 17743.16
731.9641, 17731.69
732.4462, 17732.81
732.9283, 17760.62
733.4105, 17832.39
733.8926, 17904.74
734.3747, 17926.93
734.8568, 17900.40
735.3389, 17892.00
735.8210, 17916.85
736.3032, 17941.00
736.7853, 17902.03
737.2674, 17832.13
737.7495, 17798.15
738.2316, 17838.68
738.7137, 17900.21
739.1959, 17965.67
739.6780, 18031.16
740.1601, 18088.13
740.6422, 18129.70
741.1243, 18168.56
741.6064, 18208.19
742.0886, 18246.77
742.5707, 18276.41
743.0528, 18297.62
743.5349, 18306.77
744.0170, 18288.75
744.4991, 18260.02
744.9813, 18271.11
745.4634, 18318.77
745.9455, 18370.58
746.4276, 18413.89
746.9097, 18444.85
747.3918, 18453.65
747.8740, 18435.04
748.3561, 18429.87
748.8382, 18459.05
749.3203, 18496.17
749.8024, 18524.38
750.2845, 18539.74
750.7667, 18562.17
751.2488, 18597.80
751.7309, 18627.03
752.2130, 18613.92
752.6951, 18570.12
753.1772, 18559.44
753.6594, 18602.27
754.1415, 18651.97
754.6236, 18648.39
755.1057, 18624.22
755.5878, 18631.40
756.0699, 18747.68
756.5521, 18829.47
757.0342, 18809.45
757.5163, 18730.42
757.9984, 18688.89
758.4805, 18690.19
758.9626, 18720.00
759.4448, 18786.37
759.9269, 18872.76
760.4090, 18928.12
760.8911, 18953.58
761.3732, 18965.86
761.8553, 18965.78
762.3375, 18961.90
762.8196, 18956.62
763.3017, 18953.58
763.7838, 18974.94
764.2659, 19071.38
764.7480, 19159.86
765.2302, 19186.57
765.7123, 19138.95
766.1944, 19114.24
766.6765, 19113.14
767.1586, 19133.15
767.6407, 19181.65
768.1229, 19258.18
768.6050, 19312.06
769.0871, 19341.83
769.5692, 19355.50
770.0513, 19346.51
770.5334, 19331.13
771.0156, 19337.77
771.4977, 19375.19
771.9798, 19415.46
772.4619, 19446.69
772.9440, 19472.60
773.4261, 19496.71
773.9083, 19514.47
774.3904, 19540.16
774.8725, 19582.97
775.3546, 19624.71
775.8367, 19639.99
776.3188, 19628.93
776.8010, 19608.75
777.2831, 19577.29
777.7652, 19552.26
778.2473, 19568.75
778.7294, 19610.63
779.2115, 19641.24
779.6937, 19622.96
780.1758, 19612.98
780.6579, 19648.78
781.1400, 19713.12
781.6221, 19753.17
782.1042, 19747.20
782.5864, 19746.64
783.0685, 19765.51
783.5506, 19796.75
784.0327, 19809.86
784.5148, 19803.68
784.9969, 19811.41
785.4791, 19864.98
785.9612, 19935.78
786.4433, 19973.10
786.9254, 19982.61
787.4075, 19990.57
787.8896, 19998.21
788.3718, 20019.62
788.8539, 20076.61
789.3360, 20174.86
789.8181, 20224.97
790.3002, 20206.12
790.7823, 20169.77
791.2645, 20138.15
791.7466, 20111.22
792.2287, 20091.28
792.7108, 20077.23
793.1929, 20085.11
793.6750, 20144.45
794.1572, 20227.58
794.6393, 20295.26
795.1214, 20343.04
795.6035, 20377.60
796.0856, 20379.43
796.5677, 20383.60
797.0499, 20422.54
797.5320, 20524.15
798.0141, 20590.36
798.4962, 20608.46
798.9783, 20610.77
799.4604, 20632.20
799.9426, 20670.84
800.4247, 20696.54
800.9068, 20703.38
801.3889, 20708.84
801.8710, 20735.35
802.3531, 20771.96
802.8353, 20801.58
803.3174, 20815.12
803.7995, 20830.40
804.2816, 20859.05
804.7637, 20890.68
805.2458, 20909.89
805.7280, 20907.49
806.2101, 20914.19
806.6922, 20933.61
807.1743, 20962.62
807.6564, 20999.58
808.1385, 21042.38
808.6207, 21081.07
809.1028, 21114.72
809.5849, 21137.58
810.0670, 21136.97
810.5491, 21122.13
811.0313, 21111.34
811.5134, 21097.62
811.9955, 21104.60
812.4776, 21153.46
812.9597, 21224.72
813.4418, 21269.66
813.9240, 21285.29
814.4061, 21289.20
814.8882, 21281.22
815.3703, 21271.27
815.8524, 21284.79
816.3345, 21317.96
816.8167, 21350.75
817.2988, 21365.06
817.7809, 21383.37
818.2630, 21437.46
818.7451, 21513.84
819.2272, 21550.44
819.7094, 21500.82
820.1915, 21446.71
820.6736, 21403.19
821.1556, 21371.34
821.6378, 21363.00
822.1199, 21378.59
822.6020, 21410.02
823.0841, 21460.59
823.5662, 21520.55
824.0483, 21577.00
824.5305, 21628.15
825.0126, 21670.00
825.4947, 21697.43
825.9768, 21716.92
826.4589, 21729.35
826.9410, 21734.71
827.4232, 21745.36
827.9053, 21762.46
828.3874, 21783.51
828.8695, 21809.93
829.3516, 21840.14
829.8337, 21860.27
830.3159, 21870.38
830.7980, 21886.57
831.2801, 21943.56
831.7622, 21998.86
832.2443, 21985.10
832.7264, 21899.71
833.2086, 21858.39
833.6907, 21941.06
834.1728, 22042.58
834.6549, 22112.16
835.1370, 22149.38
835.6191, 22159.63
836.1013, 22135.19
836.5834, 22114.21
837.0655, 22125.00
837.5476, 22161.52
838.0297, 22213.68
838.5118, 22280.59
838.9940, 22333.95
839.4761, 22333.62
839.9582, 22325.84
840.4403, 22351.52
840.9224, 22426.02
841.4045, 22482.18
841.8867, 22506.74
842.3688, 22523.64
842.8509, 22549.75
843.3330, 22585.39
843.8151, 22597.14
844.2972, 22580.45
844.7794, 22582.53
845.2615, 22673.89
845.7436, 22796.89
846.2257, 22868.05
846.7078, 22871.83
847.1899, 22868.17
847.6721, 22882.81
848.1542, 22897.99
848.6363, 22898.65
849.1184, 22876.16
849.6005, 22877.76
850.0826, 22909.94
850.5648, 22950.11
851.0469, 22974.51
851.5290, 22989.97
852.0111, 23025.42
852.4932, 23085.68
852.9753, 23133.89
853.4575, 23130.20
853.9396, 23108.07
854.4217, 23098.21
854.9038, 23112.29
855.3859, 23114.48
855.8680, 23091.69
856.3502, 23069.40
856.8323, 23070.50
857.3144, 23095.38
857.7965, 23105.16
858.2786, 23095.29
858.7607, 23093.88
859.2429, 23145.74
859.7250, 23214.57
860.2071, 23252.90
860.6892, 23252.32
861.1713, 23226.29
861.6534, 23139.44
862.1356, 23059.28
862.6177, 23037.64
863.0998, 23090.58
863.5819, 23144.38
864.0640, 23205.50
864.5461, 23246.49
865.0283, 23215.62
865.5104, 23146.69
865.9925, 23144.88
866.4746, 23226.84
866.9567, 23299.71
867.4388, 23288.19
867.9210, 23250.92
868.4031, 23237.41
868.8852, 23263.43
869.3673, 23288.94
869.8494, 23317.65
870.3315, 23340.42
870.8137, 23348.12
871.2958, 23342.33
871.7779, 23333.00
872.2600, 23320.07
872.7421, 23316.25
873.2242, 23339.76
873.7064, 23373.89
874.1885, 23397.56
874.6706, 23402.43
875.1527, 23426.37
875.6348, 23497.14
876.1169, 23572.16
876.5991, 23628.65
877.0812, 23664.90
877.5633, 23693.12
878.0454, 23712.30
878.5275, 23727.51
879.0096, 23737.84
879.4918, 23748.85
879.9739, 23769.76
880.4560, 23801.44
880.9381, 23841.01
881.4202, 23900.68
881.9023, 23956.39
882.3845, 23995.08
882.8666, 24017.88
883.3487, 24009.35
883.8308, 23954.53
884.3129, 23914.56
884.7950, 23947.79
885.2772, 24027.50
885.7593, 24068.93
886.2414, 24071.94
886.7235, 24077.29
887.2056, 24127.44
887.6877, 24176.98
888.1699, 24187.02
888.6520, 24150.03
889.1341, 24144.13
889.6162, 24192.09
890.0983, 24232.61
890.5804, 24230.96
891.0626, 24195.35
891.5447, 24170.83
892.0268, 24157.93
892.5089, 24165.52
892.9910, 24225.40
893.4731, 24288.26
893.9553, 24296.91
894.4374, 24256.70
894.9195, 24249.60
895.4016, 24329.89
895.8837, 24398.52
896.3658, 24415.06
896.8480, 24392.25
897.3301, 24412.55
897.8122, 24475.58
898.2943, 24528.68
898.7764, 24527.53
899.2585, 24510.52
899.7407, 24529.15
900.2228, 24574.28
900.7049, 24610.77
901.1870, 24616.88
901.6691, 24623.79
902.1512, 24639.35
902.6334, 24663.63
903.1155, 24699.21
903.5976, 24748.59
904.0797, 24789.08
904.5618, 24812.34
905.0439, 24822.25
905.5261, 24814.81
906.0082, 24798.59
906.4903, 24796.37
906.9724, 24820.73
907.4545, 24856.28
907.9366, 24912.67
908.4188, 24972.47
908.9009, 24997.06
909.3830, 24974.63
909.8651, 24966.57
910.3472, 24989.38
910.8293, 25025.77
911.3115, 25045.41
911.7936, 25055.83
912.2757, 25075.61
912.7578, 25118.57
913.2399, 25160.09
913.7220, 25186.34
914.2042, 25205.32
914.6863, 25229.89
915.1684, 25268.53
915.6505, 25284.98
916.1326, 25266.47
916.6147, 25246.83
917.0969, 25277.41
917.5790, 25342.95
918.0611, 25399.11
918.5432, 25434.50
919.0253, 25467.12
919.5074, 25526.94
919.9896, 25578.38
920.4717, 25580.21
920.9538, 25491.38
921.4359, 25459.91
921.9180, 25502.92
922.4001, 25567.39
922.8823, 25609.01
923.3644, 25631.01
923.8465, 25639.59
924.3286, 25634.78
924.8107, 25640.24
925.2928, 25681.93
925.7750, 25734.35
926.2571, 25777.49
926.7392, 25808.04
927.2213, 25842.25
927.7034, 25890.31
928.1855, 25923.10
928.6677, 25919.09
929.1498, 25885.17
929.6319, 25838.00
930.1140, 25783.46
930.5961, 25774.48
931.0782, 25898.60
931.5604, 26036.77
932.0425, 26094.80
932.5246, 26077.74
933.0067, 26077.17
933.4888, 26108.28
933.9709, 26139.48
934.4531, 26163.27
934.9352, 26178.22
935.4173, 26169.24
935.8994, 26143.02
936.3815, 26141.63
936.8636, 26205.84
937.3458, 26281.64
937.8279, 26335.45
938.3100, 26371.07
938.7921, 26397.11
939.2742, 26405.09
939.7563, 26423.04
940.2385, 26462.37
940.7206, 26505.39
941.2027, 26515.07
941.6848, 26497.89
942.1669, 26486.63
942.6490, 26489.85
943.1312, 26501.74
943.6133, 26518.80
944.0954, 26541.33
944.5775, 26569.83
945.0596, 26604.87
945.5417, 26645.10
946.0239, 26695.67
946.5060, 26742.58
946.9881, 26770.94
947.4702, 26782.53
947.9523, 26782.74
948.4344, 26770.60
948.9166, 26768.33
949.3987, 26796.68
949.8808, 26839.55
950.3629, 26888.53
950.8450, 26947.38
951.3271, 26980.87
951.8093, 26976.59
952.2914, 26971.68
952.7735, 26990.54
953.2556, 27026.98
953.7377, 27049.87
954.2198, 27060.86
954.7020, 27075.40
955.1841, 27116.53
955.6662, 27152.35
956.1483, 27144.04
956.6304, 27103.44
957.1125, 27120.61
957.5947, 27240.24
958.0768, 27314.46
958.5589, 27283.44
959.0410, 27198.52
959.5231, 27185.05
960.0052, 27227.05
960.4874, 27265.46
960.9695, 27263.25
961.4516, 27269.55
961.9337, 27333.11
962.4158, 27416.84
962.8979, 27448.10
963.3801, 27379.40
963.8622, 27389.74
964.3443, 27523.06
964.8264, 27672.49
965.3085, 27666.14
965.7906, 27565.90
966.2728, 27536.46
966.7549, 27620.75
967.2370, 27709.33
967.7191, 27744.84
968.2012, 27757.72
968.6833, 27768.42
969.1655, 27774.05
969.6476, 27801.95
970.1297, 27859.80
970.6118, 27907.83
971.0939, 27902.04
971.5760, 27871.33
972.0582, 27878.81
972.5403, 27921.61
973.0224, 27952.02
973.5045, 27930.71
973.9866, 27910.36
974.4688, 27914.52
974.9509, 27940.02
975.4330, 27973.74
975.9151, 28017.01
976.3972, 28059.87
976.8793, 28100.25
977.3615, 28136.01
977.8436, 28166.31
978.3257, 28189.46
978.8078, 28200.48
979.2899, 28167.82
979.7720, 28162.17
980.2542, 28208.88
980.7363, 28277.74
981.2184, 28334.30
981.7005, 28378.40
982.1826, 28386.77
982.6647, 28347.86
983.1469, 28316.49
983.6290, 28365.07
984.1111, 28442.38
984.5932, 28487.03
985.0753, 28475.97
985.5574, 28481.96
986.0395, 28527.00
986.5216, 28571.02
987.0037, 28582.09
987.4858, 28566.34
987.9680, 28599.18
988.4501, 28676.54
988.9322, 28730.87
989.4143, 28686.38
989.8964, 28629.12
990.3785, 28631.58
990.8607, 28684.19
991.3428, 28708.02
991.8249, 28679.27
992.3070, 28664.53
992.7891, 28680.60
993.2712, 28721.48
993.7534, 28786.66
994.2355, 28866.38
994.7176, 28926.71
995.1997, 28943.85
995.6818, 28959.97
996.1639, 29001.13
996.6461, 29025.95
997.1282, 29059.22
997.6103, 29103.62
998.0924, 29136.57
998.5745, 29192.26
999.0566, 29250.20
999.5388, 29290.70
1000.021, 29317.26
1000.503, 29330.45
1000.985, 29329.25
1001.467, 29338.21
1001.949, 29387.55
1002.431, 29427.12
1002.914, 29428.67
1003.396, 29397.71
1003.878, 29380.70
1004.360, 29377.82
1004.842, 29403.43
1005.324, 29497.02
1005.806, 29594.51
1006.288, 29614.76
1006.771, 29586.19
1007.253, 29577.86
1007.735, 29647.58
1008.217, 29683.47
1008.699, 29662.38
1009.181, 29616.78
1009.663, 29584.34
1010.145, 29568.21
1010.627, 29596.65
1011.110, 29682.46
1011.592, 29765.70
1012.074, 29790.25
1012.556, 29795.53
1013.038, 29818.61
1013.520, 29868.26
1014.002, 29901.04
1014.484, 29911.39
1014.966, 29922.42
1015.449, 29954.18
1015.931, 29996.48
1016.413, 30034.62
1016.895, 30064.55
1017.377, 30065.93
1017.859, 29970.55
1018.341, 29911.54
1018.823, 29959.72
1019.306, 30072.27
1019.788, 30152.90
1020.270, 30201.94
1020.752, 30219.23
1021.234, 30196.70
1021.716, 30165.77
1022.198, 30158.12
1022.680, 30166.44
1023.162, 30180.86
1023.645, 30199.22
1024.127, 30224.98
1024.609, 30258.39
1025.091, 30298.87
1025.573, 30351.27
1026.055, 30412.10
1026.537, 30454.82
1027.019, 30479.71
1027.502, 30503.10
1027.984, 30525.89
1028.466, 30558.76
1028.948, 30622.54
1029.430, 30705.82
1029.912, 30741.91
1030.394, 30713.53
1030.876, 30703.83
1031.359, 30741.48
1031.841, 30798.46
1032.323, 30835.15
1032.805, 30856.23
1033.287, 30870.07
1033.769, 30865.98
1034.251, 30882.02
1034.733, 30953.04
1035.215, 31024.14
1035.698, 31046.21
1036.180, 31019.14
1036.662, 31005.03
1037.144, 31005.97
1037.626, 31010.89
1038.108, 31012.15
1038.590, 31012.72
1039.072, 31010.04
1039.554, 31006.04
1040.037, 31023.54
1040.519, 31073.18
1041.001, 31117.30
1041.483, 31138.48
1041.965, 31154.29
1042.447, 31217.85
1042.929, 31306.06
1043.411, 31354.99
1043.894, 31323.83
1044.376, 31286.64
1044.858, 31260.20
1045.340, 31249.87
1045.822, 31264.83
1046.304, 31308.49
1046.786, 31341.23
1047.268, 31361.17
1047.750, 31378.39
1048.233, 31396.69
1048.715, 31419.99
1049.197, 31458.67
1049.679, 31510.96
1050.161, 31541.17
1050.643, 31522.84
1051.125, 31530.55
1051.607, 31598.03
1052.089, 31690.79
1052.572, 31727.85
1053.054, 31721.46
1053.536, 31710.93
1054.018, 31706.76
1054.500, 31705.77
1054.982, 31698.29
1055.464, 31699.46
1055.946, 31729.84
1056.429, 31800.97
1056.911, 31817.91
1057.393, 31772.91
1057.875, 31744.19
1058.357, 31812.40
1058.839, 31918.10
1059.321, 32006.57
1059.803, 32074.15
1060.286, 32114.06
1060.768, 32112.96
1061.250, 32108.70
1061.732, 32105.61
1062.214, 32109.95
1062.696, 32142.04
1063.178, 32193.33
1063.660, 32235.87
1064.142, 32259.21
1064.625, 32280.05
1065.107, 32312.14
1065.589, 32340.99
1066.071, 32350.94
1066.553, 32336.73
1067.035, 32344.92
1067.517, 32376.63
1067.999, 32420.95
1068.481, 32486.29
1068.964, 32548.68
1069.446, 32581.01
1069.928, 32587.26
1070.410, 32584.62
1070.892, 32560.93
1071.374, 32560.07
1071.856, 32596.54
1072.338, 32648.49
1072.820, 32673.48
1073.303, 32683.07
1073.785, 32707.92
1074.267, 32755.33
1074.749, 32814.70
1075.231, 32904.26
1075.713, 32981.36
1076.195, 33011.86
1076.677, 32995.64
1077.160, 33007.83
1077.642, 33048.15
1078.124, 33090.78
1078.606, 33114.41
1079.088, 33137.71
1079.570, 33186.04
1080.052, 33246.20
1080.534, 33280.18
1081.016, 33266.78
1081.499, 33280.29
1081.981, 33343.30
1082.463, 33400.04
1082.945, 33356.94
1083.427, 33263.80
1083.909, 33219.26
1084.391, 33239.34
1084.873, 33272.70
1085.355, 33303.32
1085.838, 33341.16
1086.320, 33395.41
1086.802, 33459.09
1087.284, 33493.48
1087.766, 33501.54
1088.248, 33508.62
1088.730, 33519.60
1089.212, 33541.56
1089.695, 33604.25
1090.177, 33668.82
1090.659, 33675.23
1091.141, 33598.28
1091.623, 33550.73
1092.105, 33535.66
1092.587, 33555.55
1093.069, 33641.80
1093.552, 33746.77
1094.034, 33804.86
1094.516, 33816.69
1094.998, 33829.51
1095.480, 33842.38
1095.962, 33877.57
1096.444, 33950.63
1096.926, 34037.34
1097.408, 34082.61
1097.891, 34096.55
1098.373, 34111.07
1098.855, 34138.12
1099.337, 34155.00
1099.819, 34135.20
1100.301, 34113.49
1100.783, 34112.31
1101.265, 34131.54
1101.747, 34186.49
1102.230, 34276.60
1102.712, 34343.21
1103.194, 34319.52
1103.676, 34283.54
1104.158, 34311.61
1104.640, 34376.27
1105.122, 34394.95
1105.604, 34327.15
1106.087, 34338.29
1106.569, 34468.25
1107.051, 34611.89
1107.533, 34624.99
1108.015, 34575.48
1108.497, 34571.52
1108.979, 34628.21
1109.461, 34670.25
1109.943, 34663.66
1110.426, 34661.30
1110.908, 34677.56
1111.390, 34713.10
1111.872, 34787.18
1112.354, 34883.68
1112.836, 34942.79
1113.318, 34909.20
1113.800, 34895.25
1114.282, 34988.55
1114.765, 35097.30
1115.247, 35137.06
1115.729, 35104.14
1116.211, 35048.23
1116.693, 34970.07
1117.175, 34931.14
1117.657, 35017.63
1118.139, 35124.05
1118.622, 35160.74
1119.104, 35144.35
1119.586, 35154.06
1120.068, 35201.70
1120.550, 35237.43
1121.032, 35249.40
1121.514, 35258.09
1121.996, 35283.36
1122.479, 35324.18
1122.961, 35384.65
1123.443, 35469.75
1123.925, 35535.18
1124.407, 35576.65
1124.889, 35595.25
1125.371, 35576.52
1125.853, 35545.89
1126.335, 35594.49
1126.818, 35692.57
1127.300, 35749.21
1127.782, 35682.13
1128.264, 35643.37
1128.746, 35706.77
1129.228, 35790.91
1129.710, 35823.14
1130.192, 35806.68
1130.674, 35801.39
1131.157, 35809.52
1131.639, 35842.48
1132.121, 35936.36
1132.603, 36028.76
1133.085, 36079.60
1133.567, 36098.00
1134.049, 36106.83
1134.531, 36102.38
1135.014, 36126.13
1135.496, 36192.68
1135.978, 36252.91
1136.460, 36242.95
1136.942, 36208.14
1137.424, 36193.55
1137.906, 36207.27
1138.388, 36236.11
1138.870, 36290.84
1139.353, 36323.63
1139.835, 36304.63
1140.317, 36265.55
1140.799, 36258.48
1141.281, 36272.70
1141.763, 36287.02
1142.245, 36290.36
1142.727, 36302.54
1143.209, 36319.58
1143.692, 36353.78
1144.174, 36427.09
1144.656, 36523.87
1145.138, 36599.37
1145.620, 36652.11
1146.102, 36682.47
1146.584, 36650.91
1147.066, 36647.19
1147.549, 36706.47
1148.031, 36795.16
1148.513, 36864.71
1148.995, 36913.79
1149.477, 36927.03
1149.959, 36899.36
1150.441, 36875.21
1150.923, 36881.98
1151.406, 36905.20
1151.888, 36946.30
1152.370, 36997.32
1152.852, 37006.95
1153.334, 36976.33
1153.816, 36975.98
1154.298, 37052.28
1154.780, 37114.23
1155.262, 37036.72
1155.745, 36924.46
1156.227, 36911.54
1156.709, 37025.91
1157.191, 37087.01
1157.673, 37087.15
1158.155, 37086.98
1158.637, 37132.90
1159.119, 37192.32
1159.601, 37228.97
1160.084, 37249.81
1160.566, 37272.21
1161.048, 37300.54
1161.530, 37330.12
1162.012, 37364.96
1162.494, 37389.35
1162.976, 37370.09
1163.458, 37338.33
1163.941, 37347.71
1164.423, 37398.02
1164.905, 37442.09
1165.387, 37462.36
1165.869, 37487.13
1166.351, 37525.42
1166.833, 37566.35
1167.315, 37578.96
1167.797, 37581.76
1168.280, 37628.91
1168.762, 37744.24
1169.244, 37820.77
1169.726, 37782.92
1170.208, 37747.32
1170.690, 37766.48
1171.172, 37824.16
1171.654, 37865.41
1172.136, 37894.09
1172.619, 37927.63
1173.101, 37984.38
1173.583, 38026.26
1174.065, 38023.25
1174.547, 38011.14
1175.029, 38018.91
1175.511, 38045.09
1175.993, 38049.54
1176.476, 38035.56
1176.958, 38040.59
1177.440, 38120.97
1177.922, 38188.54
1178.404, 38185.25
1178.886, 38147.77
1179.368, 38118.46
1179.850, 38096.93
1180.333, 38151.71
1180.815, 38296.02
1181.297, 38419.59
1181.779, 38422.09
1182.261, 38387.46
1182.743, 38361.43
1183.225, 38350.20
1183.707, 38369.13
1184.189, 38419.78
1184.672, 38486.84
1185.154, 38572.79
1185.636, 38643.87
1186.118, 38633.21
1186.600, 38613.32
1187.082, 38674.87
1187.564, 38828.24
1188.046, 38896.28
1188.528, 38862.95
1189.011, 38860.92
1189.493, 38976.50
1189.975, 39099.91
1190.457, 39071.72
1190.939, 38979.61
1191.421, 38960.35
1191.903, 39075.43
1192.385, 39125.55
1192.868, 39099.66
1193.350, 39069.86
1193.832, 39093.54
1194.314, 39137.65
1194.796, 39155.07
1195.278, 39157.36
1195.760, 39175.55
1196.242, 39230.58
1196.724, 39266.71
1197.207, 39279.87
1197.689, 39274.44
1198.171, 39232.10
1198.653, 39186.17
1199.135, 39194.13
1199.617, 39250.67
1200.099, 39294.29
1200.581, 39303.75
1201.063, 39322.41
1201.546, 39361.28
1202.028, 39404.11
1202.510, 39412.90
1202.992, 39415.81
1203.474, 39473.48
1203.956, 39598.43
1204.438, 39679.03
1204.920, 39677.23
1205.403, 39673.48
1205.885, 39694.43
1206.367, 39727.98
1206.849, 39751.80
1207.331, 39768.48
1207.813, 39779.08
1208.295, 39774.86
1208.777, 39799.19
1209.260, 39877.53
1209.742, 39944.46
1210.224, 39960.19
1210.706, 39944.52
1211.188, 39940.88
1211.670, 39949.04
1212.152, 39968.02
1212.634, 40003.70
1213.116, 40042.30
1213.599, 40084.87
1214.081, 40127.13
1214.563, 40173.70
1215.045, 40216.50
1215.527, 40217.68
1216.009, 40188.57
1216.491, 40176.45
1216.973, 40220.15
1217.455, 40254.28
1217.938, 40265.96
1218.420, 40266.81
1218.902, 40261.81
1219.384, 40257.82
1219.866, 40277.96
1220.348, 40321.57
1220.830, 40367.37
1221.312, 40420.09
1221.795, 40454.59
1222.277, 40458.30
1222.759, 40452.88
1223.241, 40479.51
1223.723, 40524.73
1224.205, 40545.33
1224.687, 40533.46
1225.169, 40542.15
1225.651, 40628.16
1226.134, 40688.52
1226.616, 40682.95
1227.098, 40643.79
1227.580, 40640.04
1228.062, 40662.55
1228.544, 40690.06
1229.026, 40721.48
1229.508, 40740.45
1229.990, 40737.97
1230.473, 40728.02
1230.955, 40708.79
1231.437, 40693.50
1231.919, 40721.27
1232.401, 40784.01
1232.883, 40864.78
1233.365, 40987.86
1233.847, 41051.86
1234.329, 40994.15
1234.812, 40944.29
1235.294, 41009.33
1235.776, 41137.86
1236.258, 41144.55
1236.740, 41071.15
1237.222, 41051.78
1237.704, 41199.62
1238.186, 41314.29
1238.669, 41360.74
1239.151, 41385.73
1239.633, 41442.35
1240.115, 41506.11
1240.597, 41482.10
1241.079, 41395.34
1241.561, 41360.69
1242.043, 41479.27
1242.526, 41574.56
1243.008, 41616.76
1243.490, 41637.90
1243.972, 41674.42
1244.454, 41716.55
1244.936, 41736.68
1245.418, 41737.15
1245.900, 41747.61
1246.382, 41790.58
1246.865, 41822.66
1247.347, 41829.51
1247.829, 41838.29
1248.311, 41896.37
1248.793, 41979.29
1249.275, 42044.61
1249.757, 42088.12
1250.239, 42115.21
1250.721, 42111.21
1251.204, 42126.55
1251.686, 42178.95
1252.168, 42244.66
1252.650, 42300.42
1253.132, 42338.51
1253.614, 42338.70
1254.096, 42293.60
1254.578, 42267.13
1255.061, 42271.23
1255.543, 42274.42
1256.025, 42260.47
1256.507, 42250.86
1256.989, 42275.36
1257.471, 42327.44
1257.953, 42408.46
1258.435, 42537.42
1258.917, 42588.34
1259.400, 42538.32
1259.882, 42498.36
1260.364, 42528.85
1260.846, 42580.08
1261.328, 42578.64
1261.810, 42557.36
1262.292, 42568.87
1262.774, 42631.16
1263.256, 42682.21
1263.739, 42723.87
1264.221, 42744.54
1264.703, 42712.98
1265.185, 42685.00
1265.667, 42739.02
1266.149, 42828.04
1266.631, 42870.54
1267.113, 42845.09
1267.596, 42850.53
1268.078, 42888.75
1268.560, 42930.58
1269.042, 42954.11
1269.524, 42974.75
1270.006, 42999.75
1270.488, 43031.86
1270.970, 43078.43
1271.453, 43143.49
1271.935, 43177.66
1272.417, 43179.39
1272.899, 43194.51
1273.381, 43285.83
1273.863, 43368.08
1274.345, 43367.65
1274.827, 43332.70
1275.309, 43337.67
1275.792, 43381.34
1276.274, 43445.74
1276.756, 43528.20
1277.238, 43571.14
1277.720, 43490.09
1278.202, 43417.56
1278.684, 43421.24
1279.166, 43464.48
1279.648, 43492.72
1280.131, 43507.61
1280.613, 43508.35
1281.095, 43495.64
1281.577, 43498.53
1282.059, 43540.30
1282.541, 43592.57
1283.023, 43652.91
1283.505, 43709.88
1283.988, 43731.99
1284.470, 43735.79
1284.952, 43773.45
1285.434, 43853.18
1285.916, 43915.82
1286.398, 43927.55
1286.880, 43941.94
1287.362, 43976.60
1287.844, 43979.07
1288.327, 44016.13
1288.809, 44001.29
1289.291, 43999.94
1289.773, 44017.52
1290.255, 44042.24
1290.737, 44066.18
1291.219, 44116.94
1291.701, 44218.96
1292.183, 44317.61
1292.666, 44301.27
1293.148, 44247.27
1293.630, 44267.57
1294.112, 44391.11
1294.594, 44497.39
1295.076, 44590.79
1295.558, 44643.96
1296.040, 44634.04
1296.523, 44609.67
1297.005, 44614.70
1297.487, 44639.80
1297.969, 44680.65
1298.451, 44735.69
1298.933, 44761.98
1299.415, 44760.38
1299.897, 44762.57
1300.380, 44785.77
1300.862, 44778.73
1301.344, 44725.38
##END=



