##NAMES=Turquoise
##RRUFFID=R050418
##IDEAL CHEMISTRY=Cu^2+^Al_6_(P^5+^O_4_)_4_(OH)_8_&#183;4H_2_O
##LOCALITY=Panoche Valley, San Benito County, California, USA
##OWNER=RRUFF
##SOURCE=Marcus Origlieri
##DESCRIPTION=Pale-blue botryoidal crust on colorless quartz
##STATUS=The identification of this mineral has been determined only by Raman spectroscopy
##URL=rruff.info/R050418
98.578, 293523.688
99.060, 293255.594
99.542, 294294.406
100.024, 296359.406
100.506, 298243.500
100.988, 299806.312
101.470, 301534.000
101.953, 304112.094
102.435, 307979.594
102.917, 311076.812
103.399, 312820.406
103.881, 313175.406
104.363, 313430.000
104.845, 313512.906
105.327, 313563.312
105.810, 313773.688
106.292, 314259.188
106.774, 314734.312
107.256, 315234.094
107.738, 316056.000
108.220, 315998.594
108.702, 314520.000
109.184, 312245.406
109.666, 310428.500
110.149, 309657.688
110.631, 308842.312
111.113, 307626.594
111.595, 305721.188
112.077, 303848.406
112.559, 302007.812
113.041, 300215.312
113.523, 298571.094
114.006, 296852.812
114.488, 295442.812
114.970, 294552.000
115.452, 294600.500
115.934, 294737.594
116.416, 294903.594
116.898, 295045.000
117.380, 294879.188
117.862, 293871.906
118.345, 292701.406
118.827, 291951.188
119.309, 292442.500
119.791, 292852.312
120.273, 292284.406
120.755, 290784.188
121.237, 289455.688
121.719, 288863.000
122.201, 288854.688
122.684, 289226.406
123.166, 290270.000
123.648, 291433.812
124.130, 292352.312
124.612, 293019.906
125.094, 293221.000
125.576, 292465.406
126.058, 291064.094
126.540, 289761.812
127.023, 289032.906
127.505, 288619.906
127.987, 288166.000
128.469, 287677.188
128.951, 287018.500
129.433, 285840.594
129.915, 284246.812
130.398, 282827.094
130.880, 281964.094
131.362, 281565.500
131.844, 281357.000
132.326, 281420.312
132.808, 281460.906
133.290, 280833.312
133.772, 279520.000
134.254, 278164.812
134.736, 277145.594
135.219, 276453.312
135.701, 276139.094
136.183, 276357.812
136.665, 276856.188
137.147, 276816.688
137.629, 276134.312
138.111, 275311.688
138.594, 274757.906
139.076, 274527.312
139.558, 274218.406
140.040, 273750.094
140.522, 273138.094
141.004, 272543.812
141.486, 272009.500
141.968, 271410.688
142.450, 270569.000
142.932, 269258.906
143.415, 268282.812
143.897, 268019.688
144.379, 268530.406
144.861, 268123.812
145.343, 266346.312
145.825, 264040.812
146.307, 262136.297
146.790, 260581.500
147.272, 259485.797
147.754, 259021.297
148.236, 259401.500
148.718, 259376.703
149.200, 258673.406
149.682, 257673.797
150.164, 256862.406
150.646, 256035.297
151.128, 255602.203
151.611, 255825.297
152.093, 257184.406
152.575, 257938.406
153.057, 257807.094
153.539, 257086.094
154.021, 256254.703
154.503, 255164.203
154.985, 254112.203
155.468, 253214.406
155.950, 252571.406
156.432, 251891.594
156.914, 251030.500
157.396, 250107.000
157.878, 249361.500
158.360, 249141.203
158.842, 248888.594
159.324, 248288.094
159.807, 247001.500
160.289, 245889.000
160.771, 245267.203
161.253, 245009.203
161.735, 244778.000
162.217, 244601.797
162.699, 244328.906
163.181, 243829.500
163.663, 242843.000
164.146, 241966.406
164.628, 241445.797
165.110, 241240.703
165.592, 241208.797
166.074, 241435.203
166.556, 241734.000
167.038, 241949.000
167.520, 242055.297
168.003, 242046.703
168.485, 241869.797
168.967, 241551.797
169.449, 241230.797
169.931, 240987.203
170.413, 240788.797
170.895, 240595.297
171.377, 240317.094
171.859, 240110.703
172.342, 240155.297
172.824, 240427.594
173.306, 240730.797
173.788, 241089.406
174.270, 241365.594
174.752, 241335.203
175.234, 240706.094
175.717, 239884.203
176.199, 239336.906
176.681, 239049.406
177.163, 238826.406
177.645, 238629.797
178.127, 238377.797
178.609, 237891.797
179.091, 236844.203
179.573, 235635.203
180.055, 234990.203
180.538, 234904.594
181.020, 234919.500
181.502, 234498.000
181.984, 233800.406
182.466, 233328.500
182.948, 233365.406
183.430, 233731.297
183.913, 234081.297
184.395, 234425.203
184.877, 234695.797
185.359, 234699.203
185.841, 234519.406
186.323, 234568.000
186.805, 235243.203
187.287, 236279.500
187.769, 236768.297
188.251, 236653.797
188.734, 236319.297
189.216, 236159.797
189.698, 236168.703
190.180, 236296.203
190.662, 236646.797
191.144, 237136.297
191.626, 237267.297
192.108, 236966.594
192.591, 236573.297
193.073, 236634.203
193.555, 237141.906
194.037, 237521.406
194.519, 237395.406
195.001, 236840.203
195.483, 236641.406
195.965, 236855.203
196.447, 237291.797
196.930, 237736.000
197.412, 238196.406
197.894, 238533.297
198.376, 238643.500
198.858, 238530.297
199.340, 238414.406
199.822, 238259.406
200.304, 238173.000
200.786, 238400.406
201.269, 239000.906
201.751, 239515.406
202.233, 239693.000
202.715, 239509.094
203.197, 239494.500
203.679, 239719.797
204.161, 240008.703
204.643, 240030.094
205.126, 239726.406
205.608, 239413.797
206.090, 239235.594
206.572, 239213.203
207.054, 239133.297
207.536, 238976.500
208.018, 238785.203
208.500, 238656.094
208.982, 238630.000
209.465, 238533.000
209.947, 238252.406
210.429, 237740.406
210.911, 237383.406
211.393, 237241.797
211.875, 237195.906
212.357, 237038.000
212.839, 236768.500
213.322, 236380.094
213.804, 235868.906
214.286, 235228.203
214.768, 234467.406
215.250, 233513.203
215.732, 232500.297
216.214, 231668.797
216.696, 231078.000
217.178, 230527.297
217.661, 229898.000
218.143, 229097.797
218.625, 228636.594
219.107, 228665.797
219.589, 228926.094
220.071, 228945.297
220.553, 228659.000
221.036, 228259.500
221.518, 227827.797
222.000, 227378.703
222.482, 226785.094
222.964, 225904.203
223.446, 224977.297
223.928, 224493.406
224.410, 224663.594
224.892, 224876.297
225.374, 224902.406
225.857, 224671.906
226.339, 224549.797
226.821, 224578.406
227.303, 224689.297
227.785, 224765.406
228.267, 224788.297
228.749, 224809.500
229.231, 224850.797
229.714, 224925.797
230.196, 224965.797
230.678, 224962.797
231.160, 224929.906
231.642, 224884.797
232.124, 224815.703
232.606, 224759.000
233.088, 224776.500
233.570, 224949.703
234.053, 224792.594
234.535, 224143.094
235.017, 223273.203
235.499, 222580.094
235.981, 222092.203
236.463, 221726.703
236.945, 221509.297
237.427, 221507.406
237.910, 221299.094
238.392, 220795.500
238.874, 220150.594
239.356, 219563.297
239.838, 219026.703
240.320, 218559.906
240.802, 218171.594
241.284, 217866.203
241.766, 217614.906
242.249, 217448.297
242.731, 217310.906
243.213, 217133.406
243.695, 216893.703
244.177, 216653.703
244.659, 216438.500
245.141, 216255.297
245.623, 216009.906
246.105, 215664.500
246.588, 215289.094
247.070, 214953.000
247.552, 214629.703
248.034, 214400.797
248.516, 214337.000
248.998, 214454.703
249.480, 214382.703
249.962, 214029.703
250.445, 213582.906
250.927, 213230.094
251.409, 213020.094
251.891, 212800.297
252.373, 212514.094
252.855, 212161.797
253.337, 211968.797
253.819, 212027.297
254.301, 212137.406
254.784, 212116.000
255.266, 211902.594
255.748, 211698.000
256.230, 211557.297
256.712, 211467.797
257.194, 211261.094
257.676, 210872.000
258.158, 210459.906
258.641, 210142.500
259.123, 209937.703
259.605, 209786.906
260.087, 209711.500
260.569, 209690.094
261.051, 209568.000
261.533, 209272.297
262.015, 208993.594
262.497, 208879.594
262.980, 209013.297
263.462, 209058.203
263.944, 208965.203
264.426, 208759.594
264.908, 208536.406
265.390, 208267.797
265.872, 208032.594
266.354, 207872.703
266.837, 207796.703
267.319, 207777.797
267.801, 207848.297
268.283, 207959.703
268.765, 207944.500
269.247, 207745.203
269.729, 207568.906
270.211, 207542.406
270.694, 207701.594
271.176, 207822.297
271.658, 207898.500
272.140, 207928.406
272.622, 207889.594
273.104, 207755.297
273.586, 207644.594
274.068, 207631.406
274.550, 207734.406
275.033, 207767.500
275.515, 207697.906
275.997, 207604.203
276.479, 207644.797
276.961, 207848.797
277.443, 208037.000
277.925, 208146.297
278.407, 208177.703
278.889, 208124.094
279.372, 207965.906
279.854, 207765.406
280.336, 207579.500
280.818, 207400.094
281.300, 207325.500
281.782, 207430.594
282.264, 207687.906
282.746, 207889.594
283.228, 208046.703
283.711, 208108.906
284.193, 207953.203
284.675, 207578.797
285.157, 207302.406
285.639, 207237.500
286.121, 207338.406
286.603, 207438.297
287.086, 207540.594
287.568, 207617.406
288.050, 207590.000
288.532, 207477.406
289.014, 207504.797
289.496, 207787.703
289.978, 208201.594
290.460, 208375.500
290.942, 208307.406
291.424, 208235.906
291.907, 208397.797
292.389, 208738.500
292.871, 208973.906
293.353, 209028.094
293.835, 208996.797
294.317, 209049.000
294.799, 209178.797
295.281, 209324.000
295.764, 209426.203
296.246, 209510.797
296.728, 209660.297
297.210, 209902.297
297.692, 210168.500
298.174, 210362.094
298.656, 210493.297
299.138, 210599.297
299.621, 210681.906
300.103, 210757.094
300.585, 210859.906
301.067, 210998.406
301.549, 211136.703
302.031, 211207.797
302.513, 211242.094
302.995, 211318.203
303.477, 211553.500
303.960, 211817.297
304.442, 211909.406
304.924, 211815.203
305.406, 211719.000
305.888, 211794.297
306.370, 211975.094
306.852, 212150.203
307.334, 212342.000
307.816, 212464.406
308.299, 212359.297
308.781, 212047.797
309.263, 211811.797
309.745, 211890.500
310.227, 212138.594
310.709, 212379.797
311.191, 212558.094
311.673, 212716.500
312.155, 212875.906
312.638, 213036.797
313.120, 213201.203
313.602, 213400.703
314.084, 213589.297
314.566, 213721.094
315.048, 213740.000
315.530, 213784.906
316.013, 213978.203
316.495, 214253.406
316.977, 214448.594
317.459, 214390.797
317.941, 214309.797
318.423, 214352.906
318.905, 214588.500
319.387, 214805.000
319.869, 214898.594
320.352, 214934.094
320.834, 215011.594
321.316, 215233.906
321.798, 215438.203
322.280, 215562.406
322.762, 215598.594
323.244, 215584.297
323.726, 215465.703
324.208, 215325.500
324.691, 215246.906
325.173, 215265.906
325.655, 215323.406
326.137, 215429.406
326.619, 215583.797
327.101, 215698.203
327.583, 215703.594
328.065, 215705.406
328.547, 215774.094
329.030, 215969.703
329.512, 216160.000
329.994, 216366.703
330.476, 216570.797
330.958, 216680.906
331.440, 216622.797
331.922, 216546.094
332.404, 216520.094
332.887, 216578.203
333.369, 216623.703
333.851, 216651.797
334.333, 216668.594
334.815, 216695.703
335.297, 216770.500
335.779, 216786.500
336.261, 216689.500
336.743, 216451.297
337.226, 216255.500
337.708, 216115.000
338.190, 215999.203
338.672, 215860.703
339.154, 215689.797
339.636, 215530.406
340.118, 215396.703
340.600, 215287.000
341.083, 215173.297
341.565, 215065.297
342.047, 214927.703
342.529, 214693.703
343.011, 214356.094
343.493, 214116.797
343.975, 214044.000
344.457, 214073.594
344.940, 214046.094
345.422, 213963.094
345.904, 213806.000
346.386, 213532.500
346.868, 213160.906
347.350, 212799.703
347.832, 212441.000
348.314, 212147.797
348.796, 212072.000
349.279, 212184.203
349.761, 212289.203
350.243, 212266.203
350.725, 212164.000
351.207, 212078.297
351.689, 212012.500
352.171, 211972.703
352.653, 211961.000
353.135, 211979.703
353.618, 212036.297
354.100, 212191.000
354.582, 212347.703
355.064, 212371.000
355.546, 212271.906
356.028, 212184.797
356.510, 212248.000
356.992, 212364.500
357.474, 212404.500
357.957, 212272.203
358.439, 212145.203
358.921, 212166.000
359.403, 212297.000
359.885, 212421.203
360.367, 212484.906
360.849, 212517.797
361.332, 212538.594
361.814, 212547.406
362.296, 212552.797
362.778, 212577.094
363.260, 212596.906
363.742, 212576.703
364.224, 212451.203
364.706, 212332.797
365.188, 212265.297
365.671, 212254.594
366.153, 212261.906
366.635, 212325.797
367.117, 212380.797
367.599, 212372.000
368.081, 212074.906
368.563, 211956.703
369.045, 212207.703
369.527, 212771.094
370.010, 213108.000
370.492, 213031.703
370.974, 212899.297
371.456, 212886.797
371.938, 213098.797
372.420, 213241.094
372.902, 213286.500
373.384, 213272.000
373.866, 213268.297
374.349, 213250.703
374.831, 213293.297
375.313, 213434.906
375.795, 213687.203
376.277, 213919.703
376.759, 214121.000
377.241, 214317.703
377.723, 214552.594
378.206, 214837.297
378.688, 215081.297
379.170, 215262.094
379.652, 215387.297
380.134, 215467.406
380.616, 215496.500
381.098, 215526.500
381.580, 215621.000
382.062, 215765.203
382.545, 215830.797
383.027, 215775.297
383.509, 215693.094
383.991, 215757.000
384.473, 215947.500
384.955, 216126.406
385.437, 216232.703
385.919, 216274.297
386.402, 216245.406
386.884, 216138.000
387.366, 216049.500
387.848, 216098.594
388.330, 216230.594
388.812, 216337.703
389.294, 216353.500
389.776, 216349.000
390.259, 216382.500
390.741, 216451.594
391.223, 216544.703
391.705, 216694.594
392.187, 216844.594
392.669, 216934.297
393.151, 216916.594
393.633, 216908.203
394.115, 216993.094
394.598, 217125.594
395.080, 217214.906
395.562, 217156.906
396.044, 217111.406
396.526, 217169.000
397.008, 217364.297
397.490, 217507.297
397.972, 217467.406
398.454, 217400.297
398.937, 217455.500
399.419, 217815.094
399.901, 218108.594
400.383, 218225.406
400.865, 218200.594
401.347, 218321.797
401.829, 218675.906
402.311, 219084.297
402.793, 219460.203
403.276, 219774.594
403.758, 220123.594
404.240, 220519.703
404.722, 220943.094
405.204, 221365.500
405.686, 221796.797
406.168, 222184.203
406.651, 222486.906
407.133, 222710.703
407.615, 223025.406
408.097, 223443.094
408.579, 223916.703
409.061, 224424.797
409.543, 224965.500
410.025, 225478.500
410.507, 225945.703
410.990, 226377.000
411.472, 226790.500
411.954, 227189.203
412.436, 227589.094
412.918, 228015.906
413.400, 228457.000
413.882, 228881.500
414.364, 229298.203
414.846, 229660.500
415.329, 229888.297
415.811, 230024.203
416.293, 230155.500
416.775, 230381.297
417.257, 230575.906
417.739, 230595.000
418.221, 230454.703
418.703, 230312.094
419.185, 230289.000
419.668, 230284.797
420.150, 230199.594
420.632, 229937.203
421.114, 229718.594
421.596, 229713.000
422.078, 229808.594
422.560, 229769.500
423.042, 229393.406
423.525, 229000.500
424.007, 228706.594
424.489, 228538.094
424.971, 228386.203
425.453, 228237.000
425.935, 228102.297
426.417, 227997.500
426.899, 227985.297
427.382, 227902.406
427.864, 227693.203
428.346, 227392.406
428.828, 227175.594
429.310, 227058.500
429.792, 226996.797
430.274, 226992.094
430.756, 227071.203
431.238, 227042.297
431.721, 226859.906
432.203, 226648.797
432.685, 226627.500
433.167, 226808.406
433.649, 226934.000
434.131, 226890.094
434.613, 226742.406
435.095, 226703.594
435.578, 226774.906
436.060, 226869.703
436.542, 226934.906
437.024, 226969.906
437.506, 226967.000
437.988, 226916.594
438.470, 226853.297
438.952, 226816.297
439.434, 226797.094
439.917, 226773.297
440.399, 226744.703
440.881, 226699.797
441.363, 226605.500
441.845, 226463.297
442.327, 226362.703
442.809, 226387.000
443.291, 226460.406
443.773, 226511.203
444.256, 226483.500
444.738, 226479.000
445.220, 226536.906
445.702, 226642.406
446.184, 226753.797
446.666, 226900.797
447.148, 227018.094
447.630, 227090.000
448.112, 227125.906
448.595, 227070.000
449.077, 226812.000
449.559, 226539.000
450.041, 226449.297
450.523, 226660.703
451.005, 226801.906
451.487, 226790.406
451.970, 226672.406
452.452, 226639.094
452.934, 226695.500
453.416, 226820.906
453.898, 227040.906
454.380, 227359.000
454.862, 227563.906
455.344, 227630.500
455.826, 227658.094
456.309, 227777.000
456.791, 227976.906
457.273, 228174.594
457.755, 228334.203
458.237, 228485.297
458.719, 228697.000
459.201, 228960.406
459.683, 229223.797
460.165, 229474.703
460.648, 229692.797
461.130, 229827.094
461.612, 229845.797
462.094, 229883.297
462.576, 230050.500
463.058, 230293.500
463.540, 230528.297
464.022, 230750.203
464.504, 230933.000
464.987, 231071.000
465.469, 231161.797
465.951, 231187.297
466.433, 231021.000
466.915, 230874.797
467.397, 230882.500
467.879, 231248.297
468.361, 231438.094
468.844, 231316.594
469.326, 231060.797
469.808, 230955.797
470.290, 231117.406
470.772, 231218.500
471.254, 231146.797
471.736, 230920.703
472.218, 230836.297
472.701, 230943.406
473.183, 231060.406
473.665, 231016.406
474.147, 230808.594
474.629, 230724.297
475.111, 231055.391
475.593, 230974.797
476.075, 231037.000
476.557, 231015.000
477.039, 231002.906
477.522, 231028.094
478.004, 231094.703
478.486, 231050.234
478.968, 231046.422
479.450, 231037.922
479.932, 231033.297
480.414, 231034.078
480.897, 231037.281
481.379, 231032.844
481.861, 231025.984
482.343, 231017.344
482.825, 231005.922
483.307, 230988.594
483.789, 230980.469
484.271, 230975.344
484.753, 230969.953
485.236, 230962.234
485.718, 230954.094
486.200, 230945.109
486.682, 230935.500
487.164, 230926.750
487.646, 230913.844
488.128, 230900.016
488.610, 230886.422
489.092, 230873.484
489.575, 230860.031
490.057, 230846.141
490.539, 230831.484
491.021, 230816.547
491.503, 230901.406
491.985, 230789.594
492.467, 230814.703
492.949, 230839.703
493.431, 230707.797
493.914, 230720.594
494.396, 230705.594
494.878, 230505.500
495.360, 230689.000
495.842, 230749.000
496.324, 230707.797
496.806, 230629.000
497.289, 230514.000
497.771, 230393.594
498.253, 230288.906
498.735, 230202.000
499.217, 230151.797
499.699, 230183.000
500.181, 230232.797
500.663, 230249.000
501.145, 230206.797
501.628, 230177.000
502.110, 230182.297
502.592, 230210.297
503.074, 230245.406
503.556, 230290.094
504.038, 230337.297
504.520, 230396.406
505.002, 230461.500
505.484, 230484.000
505.967, 230430.500
506.449, 230387.594
506.931, 230404.000
507.413, 230493.297
507.895, 230569.203
508.377, 230633.797
508.859, 230680.797
509.341, 230692.703
509.823, 230671.906
510.306, 230660.203
510.788, 230664.500
511.270, 230689.094
511.752, 230751.500
512.234, 230846.594
512.716, 230943.000
513.198, 231061.906
513.680, 231151.406
514.162, 231095.906
514.645, 230876.000
515.127, 230732.500
515.609, 230966.797
516.091, 231306.000
516.573, 231446.906
517.055, 231105.594
517.537, 230803.906
518.019, 230727.703
518.502, 230814.203
518.984, 230906.797
519.466, 230939.797
519.948, 231017.500
520.430, 231221.906
520.912, 231580.000
521.394, 231713.203
521.876, 231475.297
522.359, 231200.500
522.841, 231158.906
523.323, 231411.500
523.805, 231608.500
524.287, 231710.703
524.769, 231764.297
525.251, 231818.500
525.733, 231876.203
526.216, 232034.797
526.698, 232389.297
527.180, 232842.094
527.662, 233198.297
528.144, 233461.594
528.626, 233650.000
529.108, 233739.500
529.590, 233783.406
530.072, 233822.703
530.555, 233840.797
531.037, 233968.297
531.519, 234415.703
532.001, 234983.094
532.483, 235405.906
532.965, 235499.000
533.447, 235547.094
533.929, 235597.406
534.411, 235660.703
534.894, 235785.203
535.376, 235981.594
535.858, 236233.906
536.340, 236557.500
536.822, 236971.094
537.304, 237305.797
537.786, 237533.000
538.268, 237721.297
538.750, 237932.594
539.233, 238169.594
539.715, 238394.594
540.197, 238600.594
540.679, 238791.703
541.161, 238963.203
541.643, 239119.797
542.125, 239297.406
542.607, 239564.094
543.089, 239842.594
543.572, 239992.000
544.054, 240022.000
544.536, 240030.500
545.018, 240058.797
545.500, 240111.000
545.982, 240214.203
546.464, 240414.406
546.946, 240523.203
547.429, 240375.094
547.911, 240117.703
548.393, 239939.594
548.875, 239941.203
549.357, 239949.297
549.839, 239963.406
550.321, 239966.297
550.803, 239879.297
551.286, 239638.203
551.768, 239410.594
552.250, 239277.500
552.732, 239247.703
553.214, 239148.703
553.696, 238956.000
554.178, 238772.594
554.660, 238752.906
555.143, 238861.594
555.625, 238800.203
556.107, 238469.797
556.589, 238086.594
557.071, 237937.000
557.553, 237969.000
558.035, 238034.797
558.517, 238087.797
558.999, 238129.797
559.482, 238143.797
559.964, 238139.500
560.446, 238171.703
560.928, 238302.297
561.410, 238450.406
561.892, 238571.500
562.374, 238666.906
562.856, 238716.797
563.338, 238689.203
563.821, 238630.500
564.303, 238578.297
564.785, 238509.797
565.267, 238497.094
565.749, 238570.594
566.231, 238690.594
566.713, 238746.500
567.195, 238724.594
567.677, 238731.594
568.160, 238851.094
568.642, 239029.594
569.124, 239028.703
569.606, 238850.094
570.088, 238672.406
570.570, 238673.297
571.052, 238756.094
571.534, 238749.094
572.016, 238616.406
572.499, 238461.594
572.981, 238304.000
573.463, 238186.797
573.945, 238167.906
574.427, 238387.594
574.909, 238575.203
575.391, 238641.500
575.873, 238611.594
576.356, 238572.906
576.838, 238514.703
577.320, 238466.406
577.802, 238403.297
578.284, 238321.000
578.766, 238453.297
579.248, 238891.594
579.730, 239343.000
580.213, 239558.297
580.695, 239541.297
581.177, 239553.500
581.659, 239605.703
582.141, 239718.594
582.623, 239983.000
583.105, 240340.297
583.587, 240587.000
584.070, 240578.500
584.552, 240539.297
585.034, 240745.594
585.516, 241115.203
585.998, 241414.703
586.480, 241449.500
586.962, 241454.906
587.444, 241591.797
587.927, 241872.406
588.409, 242056.703
588.891, 242051.594
589.373, 241969.703
589.855, 241863.797
590.337, 241663.797
590.819, 241618.094
591.301, 241815.297
591.783, 242066.703
592.266, 242118.797
592.748, 241949.797
593.230, 241772.703
593.712, 241629.000
594.194, 241504.297
594.676, 241382.203
595.158, 241256.203
595.640, 241088.000
596.122, 240790.094
596.605, 240472.703
597.087, 240309.094
597.569, 240286.906
598.051, 240237.906
598.533, 240009.094
599.015, 239748.094
599.497, 239591.500
599.979, 239612.203
600.461, 239559.406
600.944, 239289.594
601.426, 238965.094
601.908, 238751.094
602.390, 238720.703
602.872, 238680.000
603.354, 238629.500
603.836, 238549.297
604.318, 238366.203
604.800, 238051.906
605.283, 237811.906
605.765, 237754.703
606.247, 237816.094
606.729, 237790.203
607.211, 237680.906
607.693, 237561.297
608.175, 237467.906
608.657, 237401.297
609.140, 237369.594
609.622, 237374.594
610.104, 237389.797
610.586, 237404.500
611.068, 237418.297
611.550, 237431.406
612.032, 237451.406
612.514, 237458.906
612.997, 237409.906
613.479, 237358.594
613.961, 237395.906
614.443, 237602.594
614.925, 237751.203
615.407, 237769.703
615.889, 237706.297
616.371, 237769.703
616.854, 237979.203
617.336, 238173.594
617.818, 238252.906
618.300, 238247.906
618.782, 238269.000
619.264, 238315.906
619.746, 238370.906
620.228, 238396.906
620.710, 238431.906
621.193, 238535.594
621.675, 238732.906
622.157, 238932.000
622.639, 239106.594
623.121, 239244.594
623.603, 239331.703
624.085, 239300.203
624.567, 239295.594
625.049, 239314.703
625.532, 239376.297
626.014, 239539.297
626.496, 239888.297
626.978, 240146.000
627.460, 240194.906
627.942, 240097.594
628.424, 240177.797
628.906, 240445.203
629.388, 240718.203
629.871, 240888.297
630.353, 240979.297
630.835, 241042.203
631.317, 241079.297
631.799, 241088.906
632.281, 241003.297
632.763, 240921.203
633.245, 240961.703
633.727, 241192.703
634.210, 241429.297
634.692, 241633.000
635.174, 241797.406
635.656, 241914.297
636.138, 241982.406
636.620, 241999.406
637.102, 241937.500
637.584, 241833.703
638.067, 241782.797
638.549, 241792.594
639.031, 241823.500
639.513, 241873.797
639.995, 241930.797
640.477, 241955.797
640.959, 241948.906
641.441, 241913.000
641.924, 241836.594
642.406, 241739.203
642.888, 241650.500
643.370, 241572.500
643.852, 241477.297
644.334, 241339.406
644.816, 241181.906
645.298, 241023.703
645.781, 240879.203
646.263, 240711.906
646.745, 240490.594
647.227, 240257.406
647.709, 240057.203
648.191, 239890.203
648.673, 239750.906
649.155, 239637.203
649.637, 239551.703
650.120, 239525.906
650.602, 239558.094
651.084, 239547.500
651.566, 239456.594
652.048, 239298.797
652.530, 239056.500
653.012, 238755.203
653.494, 238509.203
653.976, 238417.594
654.459, 238393.703
654.941, 238397.094
655.423, 238424.797
655.905, 238400.297
656.387, 238254.906
656.869, 238083.797
657.351, 237938.500
657.833, 237814.906
658.315, 237745.406
658.798, 237765.297
659.280, 237792.000
659.762, 237732.703
660.244, 237580.203
660.726, 237436.906
661.208, 237316.797
661.690, 237210.797
662.172, 237124.000
662.654, 237041.500
663.137, 236908.203
663.619, 236615.297
664.101, 236367.906
664.583, 236395.203
665.065, 236614.297
665.547, 236800.594
666.029, 236884.094
666.511, 236907.000
666.994, 236863.094
667.476, 236755.297
667.958, 236678.703
668.440, 236678.297
668.922, 236640.906
669.404, 236474.906
669.886, 236170.797
670.368, 236104.703
670.851, 236323.703
671.333, 236530.906
671.815, 236393.203
672.297, 236034.203
672.779, 235830.094
673.261, 235844.703
673.743, 235907.406
674.225, 235881.797
674.708, 235812.406
675.190, 235750.500
675.672, 235671.906
676.154, 235663.797
676.636, 235855.906
677.118, 236111.406
677.600, 236187.297
678.082, 235949.000
678.564, 235746.297
679.047, 235639.094
679.529, 235603.906
680.011, 235592.500
680.493, 235612.594
680.975, 235576.000
681.457, 235393.797
681.939, 235154.000
682.421, 235119.594
682.903, 235258.203
683.386, 235342.203
683.868, 235111.000
684.350, 234836.203
684.832, 234798.094
685.314, 235016.594
685.796, 235197.500
686.278, 235214.906
686.760, 235181.797
687.242, 235178.297
687.725, 235249.406
688.207, 235203.797
688.689, 234961.000
689.171, 234716.500
689.653, 234697.797
690.135, 234916.000
690.617, 235005.500
691.099, 234901.594
691.581, 234745.797
692.064, 234702.797
692.546, 234752.703
693.028, 234852.297
693.510, 235036.594
693.992, 235184.406
694.474, 235168.906
694.956, 235057.906
695.438, 234980.500
695.921, 234989.500
696.403, 235019.797
696.885, 235054.906
697.367, 235098.203
697.849, 235171.297
698.331, 235303.297
698.813, 235393.703
699.295, 235405.203
699.778, 235345.406
700.260, 235215.703
700.742, 235017.703
701.224, 234887.203
701.706, 234970.594
702.188, 235152.797
702.670, 235274.203
703.152, 235327.094
703.635, 235334.703
704.117, 235273.500
704.599, 235197.797
705.081, 235143.406
705.563, 235112.797
706.045, 235111.500
706.527, 235150.797
707.009, 235207.406
707.491, 235270.203
707.974, 235347.203
708.456, 235392.094
708.938, 235402.000
709.420, 235380.500
709.902, 235307.594
710.384, 235201.797
710.866, 235142.500
711.348, 235159.906
711.830, 235201.000
712.313, 235191.000
712.795, 235174.500
713.277, 235225.000
713.759, 235526.594
714.241, 235722.906
714.723, 235625.703
715.205, 235347.000
715.687, 235193.203
716.169, 235219.594
716.652, 235265.797
717.134, 235293.797
717.616, 235314.406
718.098, 235367.906
718.580, 235455.000
719.062, 235556.297
719.544, 235690.406
720.026, 235818.906
720.508, 235869.703
720.991, 235850.906
721.473, 235813.406
721.955, 235770.797
722.437, 235732.406
722.919, 235698.594
723.401, 235669.203
723.883, 235667.406
724.365, 235724.906
724.848, 235782.297
725.330, 235797.500
725.812, 235752.000
726.294, 235830.406
726.776, 236082.203
727.258, 236289.594
727.740, 236177.406
728.222, 235853.906
728.705, 235757.000
729.187, 235955.203
729.669, 236162.797
730.151, 236076.297
730.633, 235882.703
731.115, 235813.000
731.597, 235972.297
732.079, 236135.297
732.562, 236230.297
733.044, 236302.203
733.526, 236410.297
734.008, 236614.000
734.490, 236706.797
734.972, 236629.797
735.454, 236492.000
735.936, 236458.203
736.419, 236525.594
736.901, 236679.797
737.383, 236971.094
737.865, 237246.797
738.347, 237319.000
738.829, 237223.406
739.311, 237041.297
739.793, 236600.500
740.275, 236293.500
740.758, 236357.906
741.240, 236697.406
741.722, 236993.094
742.204, 237290.906
742.686, 237434.594
743.168, 237337.297
743.650, 237069.906
744.132, 236921.500
744.614, 236894.594
745.097, 236943.297
745.579, 237097.000
746.061, 237285.000
746.543, 237359.703
747.025, 237339.297
747.507, 237328.406
747.989, 237470.594
748.471, 237573.297
748.953, 237451.703
749.436, 237095.594
749.918, 236890.094
750.400, 236982.297
750.882, 237125.500
751.364, 237215.906
751.846, 237249.703
752.328, 237328.797
752.810, 237462.797
753.292, 237594.703
753.775, 237661.094
754.257, 237694.406
754.739, 237836.797
755.221, 238099.406
755.703, 238223.500
756.185, 237840.703
756.667, 237340.500
757.149, 237092.500
757.632, 237227.703
758.114, 237338.203
758.596, 237256.594
759.078, 237208.797
759.560, 237385.094
760.042, 237874.500
760.524, 238212.797
761.006, 238373.797
761.489, 238430.500
761.971, 238433.297
762.453, 238400.203
762.935, 238405.297
763.417, 238479.406
763.899, 238511.594
764.381, 238302.297
764.863, 238039.000
765.346, 237963.703
765.828, 238309.297
766.310, 238565.000
766.792, 238562.000
767.274, 238474.703
767.756, 238502.297
768.238, 238675.703
768.720, 238858.906
769.202, 239047.500
769.685, 239213.406
770.167, 239297.703
770.649, 239319.203
771.131, 239352.000
771.613, 239427.406
772.095, 239503.500
772.577, 239542.797
773.059, 239556.797
773.541, 239566.203
774.024, 239565.703
774.506, 239574.500
774.988, 239593.297
775.470, 239624.594
775.952, 239673.906
776.434, 239741.406
776.916, 239829.000
777.398, 239941.406
777.880, 240068.203
778.363, 240219.500
778.845, 240375.297
779.327, 240444.594
779.809, 240290.594
780.291, 240129.906
780.773, 240162.797
781.255, 240332.203
781.737, 240495.094
782.219, 240538.703
782.702, 240659.203
783.184, 240971.703
783.666, 241392.000
784.148, 241591.297
784.630, 241522.000
785.112, 241438.406
785.594, 241424.500
786.076, 241462.500
786.559, 241512.594
787.041, 241575.500
787.523, 241651.797
788.005, 241783.594
788.487, 241894.797
788.969, 241897.406
789.451, 241819.297
789.933, 241797.000
790.416, 241896.297
790.898, 242019.703
791.380, 242148.000
791.862, 242279.500
792.344, 242388.500
792.826, 242473.906
793.308, 242555.500
793.790, 242654.094
794.273, 242752.297
794.755, 242790.406
795.237, 242782.906
795.719, 242808.797
796.201, 242939.703
796.683, 243097.906
797.165, 243240.703
797.647, 243367.094
798.129, 243479.594
798.612, 243558.000
799.094, 243653.906
799.576, 243809.797
800.058, 244007.297
800.540, 244055.203
801.022, 243939.594
801.504, 243879.203
801.986, 244049.203
802.468, 244344.500
802.951, 244577.797
803.433, 244759.906
803.915, 244982.000
804.397, 245423.000
804.879, 245803.297
805.361, 245946.000
805.843, 245828.500
806.325, 245726.703
806.807, 245617.797
807.290, 245568.000
807.772, 245607.000
808.254, 245731.703
808.736, 245969.797
809.218, 246317.500
809.700, 246597.797
810.182, 246656.906
810.664, 246603.094
811.146, 246560.703
811.629, 246530.500
812.111, 246461.797
812.593, 246249.703
813.075, 246074.500
813.557, 246045.500
814.039, 246160.094
814.521, 246187.797
815.003, 246065.406
815.486, 246048.406
815.968, 246397.906
816.450, 246963.203
816.932, 247150.406
817.414, 246979.406
817.896, 246658.797
818.378, 246187.000
818.860, 245736.000
819.343, 245441.797
819.825, 245308.594
820.307, 245243.000
820.789, 245297.000
821.271, 245338.500
821.753, 245322.703
822.235, 245251.297
822.717, 245144.297
823.200, 245000.500
823.682, 244850.000
824.164, 244698.797
824.646, 244558.797
825.128, 244448.000
825.610, 244366.797
826.092, 244310.094
826.574, 244339.906
827.056, 244337.000
827.539, 244190.000
828.021, 243901.594
828.503, 243753.000
828.985, 243788.500
829.467, 243890.203
829.949, 244065.406
830.431, 244262.406
830.913, 244154.703
831.395, 243768.297
831.878, 243473.703
832.360, 243570.203
832.842, 243825.406
833.324, 244095.500
833.806, 244341.000
834.288, 244389.797
834.770, 243959.094
835.252, 243566.094
835.734, 243390.797
836.217, 243405.906
836.699, 243460.594
837.181, 243574.297
837.663, 243618.297
838.145, 243499.500
838.627, 243296.094
839.109, 243161.000
839.591, 243091.406
840.073, 243074.703
840.556, 243169.297
841.038, 243253.297
841.520, 243239.500
842.002, 243148.594
842.484, 243093.797
842.966, 243106.094
843.448, 243109.906
843.930, 243084.703
844.413, 243037.703
844.895, 242986.297
845.377, 242931.297
845.859, 242890.000
846.341, 242887.594
846.823, 242882.297
847.305, 242790.797
847.787, 242661.703
848.269, 242615.203
848.752, 242759.906
849.234, 242915.500
849.716, 243048.500
850.198, 243156.797
850.680, 243244.000
851.162, 243320.406
851.644, 243299.500
852.127, 243123.500
852.609, 242901.094
853.091, 242816.500
853.573, 242836.000
854.055, 242878.500
854.537, 242940.000
855.019, 242980.203
855.501, 242964.406
855.983, 242918.406
856.466, 242885.094
856.948, 242849.797
857.430, 242871.703
857.912, 242986.906
858.394, 243116.406
858.876, 243107.703
859.358, 242989.094
859.840, 242926.203
860.322, 242975.203
860.805, 243035.906
861.287, 242974.094
861.769, 242888.094
862.251, 242908.500
862.733, 243186.297
863.215, 243374.406
863.697, 243422.703
864.179, 243394.203
864.661, 243329.406
865.144, 243221.594
865.626, 243213.703
866.108, 243337.703
866.590, 243455.297
867.072, 243349.203
867.554, 243167.000
868.036, 243160.703
868.518, 243418.500
869.001, 243632.500
869.483, 243657.000
869.965, 243615.094
870.447, 243601.203
870.929, 243627.297
871.411, 243625.500
871.893, 243590.500
872.375, 243545.297
872.857, 243484.203
873.340, 243430.406
873.822, 243454.500
874.304, 243558.703
874.786, 243671.906
875.268, 243772.297
875.750, 243850.000
876.232, 243883.594
876.714, 243863.906
877.197, 243913.906
877.679, 244090.094
878.161, 244215.594
878.643, 244156.094
879.125, 243969.094
879.607, 243969.094
880.089, 244137.094
880.571, 244288.500
881.054, 244290.297
881.536, 244244.094
882.018, 244227.203
882.500, 244235.594
882.982, 244234.500
883.464, 244215.797
883.946, 244186.500
884.428, 244132.000
884.911, 244074.094
885.393, 244098.000
885.875, 244200.406
886.357, 244303.906
886.839, 244373.906
887.321, 244435.906
887.803, 244538.703
888.285, 244655.297
888.767, 244727.406
889.250, 244614.406
889.732, 244613.000
890.214, 244871.297
890.696, 245222.500
891.178, 245382.203
891.660, 245336.594
892.142, 245254.906
892.624, 245155.594
893.106, 245070.797
893.589, 245078.594
894.071, 245121.703
894.553, 245089.094
895.035, 244911.297
895.517, 244759.500
895.999, 244680.094
896.481, 244666.297
896.963, 244711.406
897.445, 244830.297
897.928, 244970.000
898.410, 245147.297
898.892, 245283.094
899.374, 245249.297
899.856, 245135.406
900.338, 245142.594
900.820, 245292.594
901.302, 245462.094
901.784, 245661.000
902.267, 245791.406
902.749, 245751.406
903.231, 245532.297
903.713, 245370.094
904.195, 245260.500
904.677, 245226.406
905.159, 245327.797
905.641, 245505.203
906.124, 245540.406
906.606, 245462.797
907.088, 245434.203
907.570, 245611.000
908.052, 245802.703
908.534, 245889.703
909.016, 245890.000
909.498, 245920.094
909.981, 246011.297
910.463, 246059.797
910.945, 246021.203
911.427, 245944.594
911.909, 245941.906
912.391, 245998.797
912.873, 246059.797
913.355, 246118.703
913.838, 246153.703
914.320, 246115.000
914.802, 246055.203
915.284, 246056.000
915.766, 246160.797
916.248, 246268.703
916.730, 246391.500
917.212, 246488.297
917.694, 246450.797
918.177, 246328.297
918.659, 246403.906
919.141, 246744.906
919.623, 247038.703
920.105, 246980.297
920.587, 246794.406
921.069, 246680.297
921.551, 246679.203
922.033, 246700.906
922.516, 246751.703
922.998, 246809.203
923.480, 246861.797
923.962, 246909.703
924.444, 246936.594
924.926, 246946.906
925.408, 246997.500
925.890, 247131.500
926.372, 247315.797
926.855, 247594.406
927.337, 247930.297
927.819, 248073.094
928.301, 247872.703
928.783, 247698.797
929.265, 247631.406
929.747, 247664.094
930.229, 247839.297
930.711, 248124.906
931.194, 248300.297
931.676, 248226.500
932.158, 248114.906
932.640, 248142.406
933.122, 248244.594
933.604, 248324.000
934.086, 248326.203
934.568, 248366.000
935.051, 248470.094
935.533, 248579.500
936.015, 248624.906
936.497, 248611.703
936.979, 248558.000
937.461, 248458.406
937.943, 248403.297
938.425, 248488.906
938.907, 248635.094
939.390, 248787.203
939.872, 248949.797
940.354, 249029.703
940.836, 248983.094
941.318, 248934.797
941.800, 248958.594
942.282, 249037.203
942.765, 249084.203
943.247, 249104.406
943.729, 249138.797
944.211, 249227.094
944.693, 249324.203
945.175, 249387.594
945.657, 249431.500
946.139, 249526.406
946.621, 249773.297
947.104, 249852.094
947.586, 249639.297
948.068, 249308.297
948.550, 249170.203
949.032, 249198.594
949.514, 249305.703
949.996, 249496.000
950.478, 249679.594
950.960, 249830.906
951.443, 249925.000
951.925, 249913.500
952.407, 249677.906
952.889, 249664.703
953.371, 249938.094
953.853, 250269.297
954.335, 250460.703
954.817, 250547.594
955.299, 250639.797
955.782, 250740.906
956.264, 250800.203
956.746, 250704.203
957.228, 250630.797
957.710, 250727.000
958.192, 250970.906
958.674, 251104.203
959.156, 251095.000
959.638, 251090.406
960.121, 251150.906
960.603, 251241.000
961.085, 251258.906
961.567, 251247.797
962.049, 251329.297
962.531, 251670.406
963.013, 251961.703
963.495, 252048.797
963.978, 252042.703
964.460, 252096.297
964.942, 252235.203
965.424, 252302.797
965.906, 252272.406
966.388, 252233.297
966.870, 252249.703
967.352, 252334.797
967.834, 252535.797
968.317, 252870.000
968.799, 253174.500
969.281, 253430.906
969.763, 253597.203
970.245, 253615.406
970.727, 253505.703
971.209, 253564.797
971.692, 253796.906
972.174, 254048.406
972.656, 254224.906
973.138, 254386.500
973.620, 254624.094
974.102, 254900.094
974.584, 255124.203
975.066, 255189.500
975.548, 255306.500
976.031, 255530.594
976.513, 255793.797
976.995, 255990.203
977.477, 256125.797
977.959, 256241.797
978.441, 256340.297
978.923, 256453.297
979.405, 256585.594
979.888, 256760.203
980.370, 257028.703
980.852, 257449.703
981.334, 257713.594
981.816, 257764.000
982.298, 257751.500
982.780, 257720.000
983.262, 257698.203
983.744, 257849.797
984.227, 258144.203
984.709, 258390.703
985.191, 258474.000
985.673, 258496.703
986.155, 258474.203
986.637, 258439.797
987.119, 258480.594
987.601, 258621.906
988.083, 258760.797
988.566, 258883.297
989.048, 258990.797
989.530, 259064.703
990.012, 259131.703
990.494, 259260.203
990.976, 259483.094
991.458, 259676.594
991.940, 259796.703
992.422, 259859.406
992.905, 259843.000
993.387, 259735.500
993.869, 259850.703
994.351, 260201.297
994.833, 260568.703
995.315, 260842.406
995.797, 261034.594
996.279, 261106.094
996.761, 261100.500
997.244, 261155.594
997.726, 261375.797
998.208, 261578.203
998.690, 261734.203
999.172, 261856.703
999.654, 261929.406
1000.136, 261972.703
1000.618, 262173.406
1001.101, 262612.000
1001.583, 262991.406
1002.065, 262985.812
1002.547, 262850.312
1003.029, 262830.000
1003.511, 262981.594
1003.993, 263108.188
1004.475, 263196.500
1004.958, 263299.188
1005.440, 263470.906
1005.922, 263673.594
1006.404, 263784.312
1006.886, 263827.594
1007.368, 263914.594
1007.850, 264140.812
1008.332, 264375.688
1008.815, 264566.500
1009.297, 264729.812
1009.779, 264880.906
1010.261, 265009.594
1010.743, 265221.812
1011.225, 265552.812
1011.707, 265885.000
1012.189, 266081.812
1012.671, 266202.688
1013.154, 266305.312
1013.636, 266386.000
1014.118, 266530.594
1014.600, 266752.312
1015.082, 267043.312
1015.564, 267414.500
1016.046, 267854.500
1016.528, 268321.406
1017.010, 268810.188
1017.493, 269256.000
1017.975, 269565.500
1018.457, 269880.500
1018.939, 270314.312
1019.421, 270816.094
1019.903, 271279.000
1020.385, 271682.312
1020.867, 272087.188
1021.350, 272490.312
1021.832, 272924.594
1022.314, 273450.500
1022.796, 274027.500
1023.278, 274586.906
1023.760, 275119.406
1024.242, 275654.688
1024.724, 276176.312
1025.206, 276735.406
1025.689, 277355.188
1026.171, 278027.688
1026.653, 278751.312
1027.135, 279524.812
1027.617, 280281.312
1028.099, 280983.500
1028.581, 281655.688
1029.063, 282341.188
1029.546, 283002.188
1030.028, 283585.906
1030.510, 283960.188
1030.992, 284476.312
1031.474, 285205.000
1031.956, 285944.094
1032.438, 286443.906
1032.920, 286791.406
1033.402, 287244.000
1033.885, 287809.000
1034.367, 288373.594
1034.849, 288919.594
1035.331, 289403.594
1035.813, 289837.406
1036.295, 290195.188
1036.777, 290364.500
1037.259, 290333.406
1037.741, 290253.812
1038.224, 290175.906
1038.706, 290049.906
1039.188, 289798.188
1039.670, 289467.188
1040.152, 289134.312
1040.634, 288913.000
1041.116, 288411.406
1041.598, 287469.812
1042.081, 286509.094
1042.563, 285877.906
1043.045, 285493.188
1043.527, 284958.188
1044.009, 284290.594
1044.491, 283606.406
1044.973, 282979.000
1045.455, 282345.188
1045.938, 281622.094
1046.420, 280879.500
1046.902, 280282.594
1047.384, 279865.500
1047.866, 279349.688
1048.348, 278676.406
1048.830, 277990.688
1049.312, 277447.312
1049.794, 276992.000
1050.276, 276578.688
1050.759, 276208.000
1051.241, 275812.812
1051.723, 275359.406
1052.205, 274922.688
1052.687, 274518.812
1053.169, 274154.906
1053.651, 273891.500
1054.133, 273695.188
1054.616, 273422.312
1055.098, 272932.312
1055.580, 272457.594
1056.062, 272117.906
1056.544, 271846.094
1057.026, 271557.406
1057.508, 271247.188
1057.990, 270956.094
1058.473, 270690.406
1058.955, 270403.812
1059.437, 269988.188
1059.919, 269579.812
1060.401, 269398.688
1060.883, 269412.812
1061.365, 269264.188
1061.847, 268771.312
1062.329, 268341.500
1062.812, 268089.812
1063.294, 267920.188
1063.776, 267648.188
1064.258, 267297.594
1064.740, 266921.906
1065.222, 266520.812
1065.704, 266149.094
1066.186, 265886.094
1066.668, 265622.188
1067.151, 265278.312
1067.633, 264851.000
1068.115, 264438.812
1068.597, 264039.406
1069.079, 263692.188
1069.561, 263430.500
1070.043, 263225.312
1070.525, 263081.906
1071.008, 262973.000
1071.490, 262849.312
1071.972, 262763.188
1072.454, 262518.188
1072.936, 262047.594
1073.418, 261557.703
1073.900, 261310.203
1074.382, 261209.797
1074.865, 261034.406
1075.347, 260770.406
1075.829, 260581.703
1076.311, 260621.906
1076.793, 260653.594
1077.275, 260584.797
1077.757, 260446.000
1078.239, 260325.000
1078.721, 260220.703
1079.204, 260141.594
1079.686, 260096.500
1080.168, 260056.797
1080.650, 259993.906
1081.132, 259928.906
1081.614, 259879.203
1082.096, 259839.703
1082.578, 259854.594
1083.061, 259931.703
1083.543, 260018.797
1084.025, 260120.000
1084.507, 260185.906
1084.989, 260075.000
1085.471, 259870.906
1085.953, 259781.203
1086.435, 260064.203
1086.917, 260168.000
1087.400, 259948.094
1087.882, 259684.797
1088.364, 259723.906
1088.846, 259995.000
1089.328, 260265.094
1089.810, 260513.297
1090.292, 260701.094
1090.774, 260785.203
1091.256, 260823.406
1091.739, 260824.797
1092.221, 260808.797
1092.703, 260849.406
1093.185, 260945.500
1093.667, 260982.094
1094.149, 260901.203
1094.631, 260848.594
1095.113, 261036.203
1095.596, 261280.797
1096.078, 261370.906
1096.560, 261245.000
1097.042, 261164.406
1097.524, 261120.797
1098.006, 261154.906
1098.488, 261326.594
1098.970, 261559.594
1099.453, 261754.500
1099.935, 261895.297
1100.417, 261946.500
1100.899, 261762.594
1101.381, 261691.500
1101.863, 261834.297
1102.345, 261992.500
1102.827, 261920.203
1103.309, 261684.703
1103.792, 261612.406
1104.274, 261701.297
1104.756, 261737.906
1105.238, 261607.094
1105.720, 261385.000
1106.202, 261012.203
1106.684, 260609.094
1107.166, 260469.000
1107.648, 260592.297
1108.131, 260718.594
1108.613, 260812.406
1109.095, 260809.797
1109.577, 260595.594
1110.059, 260296.297
1110.541, 259994.094
1111.023, 259693.797
1111.505, 259584.094
1111.988, 259714.297
1112.470, 259796.406
1112.952, 259678.703
1113.434, 259495.594
1113.916, 259475.000
1114.398, 259530.203
1114.880, 259506.594
1115.362, 259305.203
1115.844, 259148.203
1116.327, 259076.906
1116.809, 258995.000
1117.291, 258779.297
1117.773, 258503.406
1118.255, 258454.797
1118.737, 258581.203
1119.219, 258648.797
1119.701, 258491.094
1120.183, 258329.500
1120.666, 258200.906
1121.148, 258122.297
1121.630, 258157.500
1122.112, 258286.703
1122.594, 258259.703
1123.076, 258051.203
1123.558, 257902.703
1124.040, 258094.000
1124.523, 258298.094
1125.005, 258276.000
1125.487, 258085.297
1125.969, 257912.797
1126.451, 257751.000
1126.933, 257726.406
1127.415, 257905.906
1127.897, 258100.906
1128.380, 258085.203
1128.862, 257997.203
1129.344, 257978.000
1129.826, 258048.203
1130.308, 258218.703
1130.790, 258547.797
1131.272, 258745.797
1131.754, 258628.203
1132.236, 258360.594
1132.719, 258161.406
1133.201, 258031.203
1133.683, 257974.094
1134.165, 258067.297
1134.647, 258085.094
1135.129, 257969.406
1135.611, 257870.594
1136.093, 257961.000
1136.575, 258149.906
1137.058, 258112.094
1137.540, 257908.594
1138.022, 257816.500
1138.504, 258053.203
1138.986, 258299.594
1139.468, 258516.594
1139.950, 258669.203
1140.432, 258683.297
1140.915, 258582.000
1141.397, 258491.297
1141.879, 258422.500
1142.361, 258388.406
1142.843, 258385.594
1143.325, 258432.906
1143.807, 258599.594
1144.289, 258804.797
1144.771, 258783.000
1145.254, 258543.906
1145.736, 258522.094
1146.218, 258862.094
1146.700, 259174.000
1147.182, 259027.797
1147.664, 258783.203
1148.146, 258781.703
1148.628, 259020.203
1149.110, 259242.094
1149.593, 259453.797
1150.075, 259573.797
1150.557, 259522.906
1151.039, 259458.297
1151.521, 259598.797
1152.003, 259819.594
1152.485, 259941.000
1152.967, 259864.500
1153.450, 259958.000
1153.932, 260272.703
1154.414, 260548.906
1154.896, 260582.094
1155.378, 260505.094
1155.860, 260525.094
1156.342, 260605.906
1156.824, 260662.203
1157.307, 260710.406
1157.789, 260647.797
1158.271, 260421.703
1158.753, 260199.594
1159.235, 260182.203
1159.717, 260271.406
1160.199, 260254.406
1160.681, 260141.797
1161.163, 260048.000
1161.646, 260047.000
1162.128, 260023.797
1162.610, 259946.500
1163.092, 259854.594
1163.574, 259827.203
1164.056, 259831.797
1164.538, 259737.406
1165.020, 259529.797
1165.502, 259395.594
1165.985, 259538.297
1166.467, 259633.500
1166.949, 259547.703
1167.431, 259348.594
1167.913, 259171.797
1168.395, 259028.000
1168.877, 258976.797
1169.359, 259037.406
1169.842, 259153.594
1170.324, 259451.297
1170.806, 259630.703
1171.288, 259481.094
1171.770, 259065.797
1172.252, 258777.594
1172.734, 258609.406
1173.216, 258524.594
1173.698, 258513.203
1174.181, 258567.094
1174.663, 258757.297
1175.145, 258954.094
1175.627, 259041.406
1176.109, 259017.797
1176.591, 258882.594
1177.073, 258638.406
1177.555, 258509.406
1178.037, 258731.594
1178.520, 258980.906
1179.002, 259025.203
1179.484, 258945.703
1179.966, 258858.203
1180.448, 258749.906
1180.930, 258740.500
1181.412, 258839.000
1181.894, 258892.500
1182.377, 258734.703
1182.859, 258531.406
1183.341, 258405.000
1183.823, 258348.094
1184.305, 258321.500
1184.787, 258322.094
1185.269, 258375.906
1185.751, 258500.297
1186.234, 258573.297
1186.716, 258418.797
1187.198, 258202.594
1187.680, 258085.000
1188.162, 258068.406
1188.644, 258105.000
1189.126, 258261.297
1189.608, 258158.406
1190.090, 257660.906
1190.573, 257165.500
1191.055, 257186.500
1191.537, 257451.406
1192.019, 257689.297
1192.501, 257864.297
1192.983, 257837.094
1193.465, 257513.094
1193.947, 257307.203
1194.429, 257368.797
1194.912, 257526.594
1195.394, 257560.297
1195.876, 257521.297
1196.358, 257469.906
1196.840, 257409.094
1197.322, 257390.297
1197.804, 257421.594
1198.286, 257478.594
1198.769, 257575.094
1199.251, 257655.906
1199.733, 257578.594
1200.215, 257439.500
1200.697, 257425.406
1201.179, 257698.000
1201.661, 257682.797
1202.143, 257218.594
1202.625, 256865.500
1203.108, 257048.703
1203.590, 257455.297
1204.072, 257499.797
1204.554, 257325.000
1205.036, 257231.797
1205.518, 257371.703
1206.000, 257492.297
1206.482, 257594.500
1206.964, 257648.906
1207.447, 257611.094
1207.929, 257520.500
1208.411, 257426.594
1208.893, 257346.203
1209.375, 257323.500
1209.857, 257460.000
1210.339, 257509.203
1210.821, 257419.500
1211.304, 257335.906
1211.786, 257445.000
1212.268, 257635.406
1212.750, 257666.203
1213.232, 257567.594
1213.714, 257515.406
1214.196, 257569.797
1214.678, 257679.094
1215.161, 257876.000
1215.643, 258036.094
1216.125, 257984.000
1216.607, 257807.000
1217.089, 257632.797
1217.571, 257481.500
1218.053, 257446.203
1218.535, 257665.500
1219.017, 257797.906
1219.500, 257774.203
1219.982, 257668.797
1220.464, 257495.797
1220.946, 257353.500
1221.428, 257483.297
1221.910, 257899.906
1222.392, 258138.297
1222.874, 257998.500
1223.357, 257896.594
1223.839, 257955.797
1224.321, 258053.000
1224.803, 257952.406
1225.285, 257770.000
1225.767, 257718.000
1226.249, 257840.406
1226.731, 257912.906
1227.214, 257860.594
1227.696, 257870.297
1228.178, 258037.297
1228.660, 258235.203
1229.142, 258241.000
1229.624, 258135.594
1230.106, 258049.594
1230.588, 258010.797
1231.070, 257961.000
1231.552, 257839.203
1232.035, 257864.203
1232.517, 258202.406
1232.999, 258611.703
1233.481, 258621.906
1233.963, 258437.000
1234.445, 258420.297
1234.927, 258747.203
1235.409, 258873.297
1235.892, 258736.203
1236.374, 258539.703
1236.856, 258333.594
1237.338, 258198.094
1237.820, 258341.203
1238.302, 258620.906
1238.784, 258790.703
1239.266, 258727.297
1239.749, 258751.000
1240.231, 258883.906
1240.713, 259017.406
1241.195, 259112.703
1241.677, 259148.094
1242.159, 259033.797
1242.641, 258853.906
1243.123, 258771.094
1243.605, 258860.906
1244.088, 258894.406
1244.570, 258862.203
1245.052, 258829.203
1245.534, 258840.203
1246.016, 258874.406
1246.498, 258943.000
1246.980, 259007.594
1247.462, 258970.797
1247.944, 258760.094
1248.427, 258702.797
1248.909, 258816.094
1249.391, 258984.094
1249.873, 259180.406
1250.355, 259331.703
1250.837, 259365.000
1251.319, 259303.000
1251.801, 259189.797
1252.284, 259001.297
1252.766, 258923.906
1253.248, 258971.906
1253.730, 259061.406
1254.212, 259183.906
##END=



