##NAMES=Turquoise
##RRUFFID=R050554
##IDEAL CHEMISTRY=Cu^2+^Al_6_(P^5+^O_4_)_4_(OH)_8_&#183;4H_2_O
##LOCALITY=Bishop mine, Lynch Station, Campbell County, Virginia, USA
##OWNER=RRUFF
##SOURCE=Dave Bunk Minerals
##DESCRIPTION=Group of blue bladed crystals
##STATUS=The identification of this mineral has been confirmed by X-ray diffraction and chemical analysis
##URL=rruff.info/R050554
##MEASURED CHEMISTRY=(Cu_0.97_Zn_0.02_Ca_0.01_)_Σ=1_Al_6.00_(P_1.00_O_4_)_4_(OH)_8_·4H_2_O
90.92609, 0.0000000E+00
91.40820, 29.24639
91.89032, 29.11044
92.37244, 29.25397
92.85455, 29.61225
93.33667, 29.79928
93.81879, 29.13181
94.30090, 28.01181
94.78302, 27.78079
95.26514, 29.21349
95.74725, 31.30377
96.22937, 31.68145
96.71149, 30.24528
97.19360, 28.21229
97.67572, 26.22826
98.15784, 24.34313
98.63995, 23.77306
99.12207, 25.46561
99.60419, 29.02863
100.0863, 30.99501
100.5684, 31.05169
101.0505, 30.13575
101.5327, 29.28984
102.0148, 28.43263
102.4969, 27.95623
102.9790, 28.16965
103.4611, 29.31992
103.9432, 29.67367
104.4253, 28.65760
104.9075, 27.15362
105.3896, 27.04763
105.8717, 29.39915
106.3538, 31.70885
106.8359, 32.95348
107.3180, 31.76815
107.8002, 31.89066
108.2823, 34.06273
108.7644, 37.67744
109.2465, 40.59474
109.7286, 41.93836
110.2107, 43.17154
110.6929, 44.95110
111.1750, 46.62951
111.6571, 49.56820
112.1392, 54.82232
112.6213, 61.96533
113.1034, 67.88808
113.5856, 70.10462
114.0677, 72.06436
114.5498, 76.19734
115.0319, 84.06699
115.5140, 93.17992
115.9961, 102.8345
116.4783, 113.0142
116.9604, 123.9565
117.4425, 134.9245
117.9246, 147.1044
118.4067, 161.6784
118.8888, 181.1963
119.3710, 201.7791
119.8531, 220.8022
120.3352, 237.7616
120.8173, 255.8601
121.2994, 277.9054
121.7815, 302.2552
122.2637, 326.1546
122.7458, 346.9836
123.2279, 367.1197
123.7100, 388.7509
124.1921, 412.1908
124.6742, 436.7784
125.1564, 461.9803
125.6385, 487.8441
126.1206, 514.6371
126.6027, 544.3102
127.0848, 574.5256
127.5669, 601.2071
128.0491, 623.9746
128.5312, 642.5588
129.0133, 655.6550
129.4954, 663.4713
129.9775, 669.0286
130.4596, 672.6219
130.9418, 675.1876
131.4239, 680.4454
131.9060, 688.9641
132.3881, 700.7311
132.8702, 715.2584
133.3523, 732.5300
133.8345, 753.3789
134.3166, 778.9320
134.7987, 809.4363
135.2808, 842.1302
135.7629, 876.5360
136.2450, 913.1726
136.7272, 953.6609
137.2093, 998.4938
137.6914, 1046.309
138.1735, 1097.079
138.6556, 1151.540
139.1377, 1203.911
139.6199, 1255.478
140.1020, 1305.762
140.5841, 1343.160
141.0662, 1367.747
141.5483, 1378.844
142.0304, 1374.127
142.5126, 1350.121
142.9947, 1317.266
143.4768, 1273.254
143.9589, 1212.744
144.4410, 1159.632
144.9231, 1112.348
145.4053, 1072.524
145.8874, 1042.222
146.3695, 1024.228
146.8516, 1011.536
147.3337, 1002.413
147.8158, 996.7929
148.2980, 994.1552
148.7801, 993.9138
149.2622, 996.6082
149.7443, 1003.356
150.2264, 1016.599
150.7085, 1031.735
151.1907, 1047.038
151.6728, 1062.188
152.1549, 1078.468
152.6370, 1096.789
153.1191, 1116.365
153.6012, 1134.789
154.0834, 1155.762
154.5655, 1172.589
155.0476, 1182.707
155.5297, 1184.907
156.0118, 1181.448
156.4939, 1171.456
156.9761, 1155.820
157.4582, 1137.680
157.9403, 1115.155
158.4224, 1092.011
158.9045, 1070.316
159.3866, 1050.626
159.8688, 1032.557
160.3509, 1015.734
160.8330, 1000.393
161.3151, 987.7258
161.7972, 979.0042
162.2793, 972.6368
162.7615, 967.4229
163.2436, 964.3475
163.7257, 961.0963
164.2078, 955.9495
164.6899, 949.2896
165.1720, 943.8810
165.6541, 940.8901
166.1363, 939.8343
166.6184, 940.2385
167.1005, 941.1319
167.5826, 944.0236
168.0647, 949.8264
168.5468, 958.4828
169.0290, 969.4750
169.5111, 982.8954
169.9932, 998.3393
170.4753, 1015.352
170.9574, 1032.224
171.4395, 1051.330
171.9217, 1074.763
172.4038, 1102.519
172.8859, 1133.767
173.3680, 1168.901
173.8501, 1206.878
174.3322, 1246.529
174.8144, 1290.380
175.2965, 1334.588
175.7786, 1376.519
176.2607, 1416.960
176.7428, 1446.774
177.2249, 1459.803
177.7071, 1456.036
178.1892, 1435.715
178.6713, 1391.545
179.1534, 1332.842
179.6355, 1272.202
180.1176, 1208.755
180.5998, 1149.068
181.0819, 1097.477
181.5640, 1054.491
182.0461, 1020.107
182.5282, 997.5462
183.0103, 983.5624
183.4925, 971.1946
183.9746, 960.1582
184.4567, 951.3430
184.9388, 946.0045
185.4209, 943.9252
185.9030, 944.1139
186.3852, 947.1916
186.8673, 952.2937
187.3494, 956.1321
187.8315, 958.1777
188.3136, 960.3450
188.7957, 965.4979
189.2779, 973.4567
189.7600, 982.3832
190.2421, 991.0315
190.7242, 999.6389
191.2063, 1009.922
191.6884, 1022.025
192.1706, 1035.486
192.6527, 1050.349
193.1348, 1066.559
193.6169, 1082.970
194.0990, 1098.631
194.5811, 1113.637
195.0633, 1130.931
195.5454, 1150.987
196.0275, 1172.642
196.5096, 1192.857
196.9917, 1211.549
197.4738, 1230.742
197.9560, 1252.353
198.4381, 1276.316
198.9202, 1297.632
199.4023, 1315.657
199.8844, 1331.462
200.3665, 1346.902
200.8487, 1362.219
201.3308, 1376.422
201.8129, 1390.829
202.2950, 1406.168
202.7771, 1412.570
203.2592, 1409.426
203.7414, 1397.549
204.2235, 1376.333
204.7056, 1343.427
205.1877, 1310.991
205.6698, 1284.724
206.1519, 1264.883
206.6341, 1249.243
207.1162, 1237.800
207.5983, 1230.564
208.0804, 1228.307
208.5625, 1231.939
209.0446, 1237.744
209.5268, 1244.481
210.0089, 1252.638
210.4910, 1259.205
210.9731, 1263.304
211.4552, 1266.367
211.9373, 1271.516
212.4195, 1278.658
212.9016, 1288.035
213.3837, 1299.901
213.8658, 1314.629
214.3479, 1330.652
214.8300, 1347.844
215.3121, 1366.464
215.7943, 1387.687
216.2764, 1412.718
216.7585, 1437.404
217.2406, 1460.688
217.7227, 1483.327
218.2048, 1501.233
218.6870, 1513.741
219.1691, 1521.751
219.6512, 1527.530
220.1333, 1530.917
220.6154, 1532.342
221.0975, 1531.236
221.5797, 1525.326
222.0618, 1523.368
222.5439, 1524.984
223.0260, 1530.747
223.5081, 1542.043
223.9902, 1558.843
224.4724, 1581.222
224.9545, 1608.413
225.4366, 1639.854
225.9187, 1678.882
226.4008, 1726.584
226.8829, 1781.739
227.3651, 1842.088
227.8472, 1909.042
228.3293, 1980.072
228.8114, 2055.458
229.2935, 2137.924
229.7757, 2216.419
230.2578, 2294.071
230.7399, 2365.419
231.2220, 2421.690
231.7041, 2465.642
232.1862, 2489.167
232.6684, 2489.376
233.1505, 2465.563
233.6326, 2419.774
234.1147, 2347.324
234.5968, 2255.353
235.0789, 2156.716
235.5611, 2045.703
236.0432, 1937.678
236.5253, 1835.080
237.0074, 1737.793
237.4895, 1652.172
237.9716, 1579.111
238.4538, 1517.163
238.9359, 1464.424
239.4180, 1421.304
239.9001, 1385.909
240.3822, 1358.516
240.8643, 1340.869
241.3465, 1324.157
241.8286, 1307.488
242.3107, 1292.370
242.7928, 1281.126
243.2749, 1275.129
243.7570, 1270.682
244.2392, 1267.471
244.7213, 1266.122
245.2034, 1261.926
245.6855, 1253.783
246.1676, 1243.700
246.6497, 1234.091
247.1319, 1225.013
247.6140, 1216.366
248.0961, 1208.333
248.5782, 1201.025
249.0603, 1193.013
249.5424, 1183.645
250.0246, 1174.151
250.5067, 1165.818
250.9888, 1159.190
251.4709, 1152.615
251.9530, 1145.411
252.4351, 1137.407
252.9173, 1131.161
253.3994, 1126.491
253.8815, 1123.582
254.3636, 1122.780
254.8457, 1124.739
255.3278, 1127.236
255.8100, 1129.381
256.2921, 1131.265
256.7742, 1136.476
257.2563, 1146.584
257.7384, 1157.879
258.2205, 1167.049
258.7026, 1173.369
259.1848, 1179.784
259.6669, 1187.724
260.1490, 1196.586
260.6311, 1200.391
261.1132, 1198.402
261.5953, 1192.654
262.0775, 1184.595
262.5596, 1174.135
263.0417, 1161.426
263.5238, 1146.167
264.0059, 1128.672
264.4880, 1109.404
264.9702, 1087.780
265.4523, 1065.707
265.9344, 1044.151
266.4165, 1022.504
266.8986, 1002.839
267.3807, 985.0212
267.8629, 969.2474
268.3450, 956.2062
268.8271, 946.3558
269.3092, 937.7953
269.7913, 929.0030
270.2734, 919.5217
270.7556, 912.5535
271.2377, 908.6872
271.7198, 907.0201
272.2019, 905.5353
272.6840, 904.2806
273.1661, 903.1146
273.6483, 902.1598
274.1304, 901.5527
274.6125, 900.0254
275.0946, 897.3612
275.5767, 894.0176
276.0588, 890.6547
276.5410, 887.1937
277.0231, 884.0369
277.5052, 881.5341
277.9873, 879.6695
278.4694, 877.3594
278.9515, 874.3806
279.4337, 871.3690
279.9158, 869.1426
280.3979, 867.7075
280.8800, 866.9680
281.3621, 866.9509
281.8442, 867.6384
282.3264, 868.9029
282.8085, 870.7927
283.2906, 873.1548
283.7727, 875.7480
284.2548, 878.5806
284.7369, 882.0751
285.2191, 886.5618
285.7012, 891.7814
286.1833, 896.8420
286.6654, 901.7300
287.1475, 906.5936
287.6296, 911.2831
288.1118, 915.8857
288.5939, 921.3289
289.0760, 928.4648
289.5581, 936.0742
290.0402, 940.8363
290.5223, 942.6777
291.0045, 944.1727
291.4866, 947.4264
291.9687, 952.1121
292.4508, 956.8068
292.9329, 961.5123
293.4150, 965.7490
293.8972, 968.4310
294.3793, 969.7070
294.8614, 971.2265
295.3435, 974.1066
295.8256, 978.0800
296.3077, 982.3260
296.7899, 986.6185
297.2720, 991.4594
297.7541, 997.6072
298.2362, 1004.872
298.7183, 1012.552
299.2004, 1021.100
299.6826, 1029.581
300.1647, 1036.151
300.6468, 1040.421
301.1289, 1044.040
301.6110, 1049.471
302.0931, 1055.695
302.5753, 1060.196
303.0574, 1061.599
303.5395, 1060.657
304.0216, 1057.798
304.5037, 1052.984
304.9858, 1047.832
305.4680, 1043.404
305.9501, 1039.604
306.4322, 1036.282
306.9143, 1033.328
307.3964, 1030.860
307.8785, 1028.762
308.3607, 1027.111
308.8428, 1026.422
309.3249, 1027.083
309.8070, 1028.881
310.2891, 1031.570
310.7712, 1035.246
311.2534, 1039.607
311.7355, 1044.486
312.2176, 1049.901
312.6997, 1055.803
313.1818, 1062.135
313.6639, 1068.856
314.1461, 1075.999
314.6282, 1083.541
315.1103, 1091.433
315.5924, 1099.909
316.0745, 1108.680
316.5566, 1117.288
317.0388, 1125.245
317.5209, 1133.120
318.0030, 1141.552
318.4851, 1150.968
318.9672, 1159.495
319.4493, 1166.608
319.9315, 1172.425
320.4136, 1177.184
320.8957, 1180.047
321.3778, 1182.621
321.8599, 1185.843
322.3420, 1189.917
322.8242, 1192.655
323.3063, 1191.747
323.7884, 1190.191
324.2705, 1190.598
324.7526, 1195.469
325.2347, 1200.139
325.7169, 1203.168
326.1990, 1204.772
326.6811, 1207.512
327.1632, 1211.703
327.6453, 1216.979
328.1274, 1223.143
328.6096, 1231.768
329.0917, 1239.341
329.5738, 1244.565
330.0559, 1248.497
330.5380, 1254.699
331.0201, 1264.502
331.5023, 1275.146
331.9844, 1285.928
332.4665, 1297.920
332.9486, 1307.103
333.4307, 1312.515
333.9128, 1315.563
334.3950, 1318.594
334.8771, 1322.291
335.3592, 1324.741
335.8413, 1325.348
336.3234, 1324.065
336.8055, 1321.652
337.2877, 1318.741
337.7698, 1313.855
338.2519, 1304.592
338.7340, 1289.771
339.2161, 1275.476
339.6982, 1263.235
340.1803, 1252.639
340.6624, 1242.099
341.1446, 1231.664
341.6267, 1220.739
342.1088, 1208.050
342.5909, 1193.604
343.0730, 1180.491
343.5551, 1169.553
344.0373, 1159.818
344.5194, 1149.159
345.0015, 1137.410
345.4836, 1126.225
345.9657, 1117.299
346.4478, 1110.029
346.9300, 1100.879
347.4121, 1089.228
347.8942, 1076.925
348.3763, 1065.742
348.8584, 1055.785
349.3405, 1047.322
349.8227, 1040.652
350.3048, 1035.538
350.7869, 1031.795
351.2690, 1029.466
351.7511, 1027.552
352.2332, 1024.541
352.7154, 1021.306
353.1975, 1019.769
353.6796, 1021.019
354.1617, 1023.709
354.6438, 1026.604
355.1259, 1029.679
355.6081, 1032.834
356.0902, 1035.933
356.5723, 1039.105
357.0544, 1042.492
357.5365, 1046.000
358.0186, 1049.866
358.5008, 1054.426
358.9829, 1059.447
359.4650, 1064.437
359.9471, 1069.829
360.4292, 1074.646
360.9113, 1078.106
361.3935, 1079.964
361.8756, 1081.589
362.3577, 1083.564
362.8398, 1085.617
363.3219, 1087.438
363.8040, 1090.655
364.2862, 1092.000
364.7683, 1089.380
365.2504, 1083.033
365.7325, 1077.873
366.2146, 1076.615
366.6967, 1075.701
367.1789, 1072.921
367.6610, 1065.801
368.1431, 1059.470
368.6252, 1054.689
369.1073, 1050.967
369.5894, 1046.824
370.0716, 1041.839
370.5537, 1036.815
371.0358, 1031.702
371.5179, 1025.704
372.0000, 1022.150
372.4821, 1022.370
372.9643, 1024.134
373.4464, 1024.281
373.9285, 1021.550
374.4106, 1019.831
374.8927, 1020.055
375.3748, 1022.182
375.8570, 1025.073
376.3391, 1028.907
376.8212, 1033.146
377.3033, 1037.411
377.7854, 1041.659
378.2675, 1045.977
378.7497, 1050.169
379.2318, 1054.669
379.7139, 1061.386
380.1960, 1070.530
380.6781, 1078.842
381.1602, 1083.541
381.6424, 1085.347
382.1245, 1089.301
382.6066, 1096.199
383.0887, 1103.078
383.5708, 1105.894
384.0529, 1105.276
384.5351, 1104.403
385.0172, 1105.484
385.4993, 1106.665
385.9814, 1104.108
386.4635, 1097.974
386.9456, 1091.307
387.4278, 1086.366
387.9099, 1082.629
388.3920, 1079.314
388.8741, 1076.583
389.3562, 1073.607
389.8383, 1069.547
390.3205, 1064.581
390.8026, 1059.329
391.2847, 1053.258
391.7668, 1047.588
392.2489, 1043.309
392.7310, 1040.734
393.2132, 1038.661
393.6953, 1037.085
394.1774, 1035.530
394.6595, 1033.400
395.1416, 1029.025
395.6237, 1025.508
396.1059, 1024.250
396.5880, 1025.155
397.0701, 1026.182
397.5522, 1027.068
398.0343, 1027.852
398.5164, 1028.544
398.9986, 1028.466
399.4807, 1029.201
399.9628, 1030.991
400.4449, 1033.612
400.9270, 1036.596
401.4091, 1040.270
401.8913, 1043.839
402.3734, 1046.882
402.8555, 1049.140
403.3376, 1052.349
403.8197, 1056.669
404.3018, 1061.742
404.7840, 1067.260
405.2661, 1073.332
405.7482, 1079.463
406.2303, 1085.501
406.7124, 1091.538
407.1945, 1098.220
407.6767, 1105.563
408.1588, 1113.406
408.6409, 1121.458
409.1230, 1129.746
409.6051, 1139.238
410.0872, 1150.073
410.5694, 1162.114
411.0515, 1175.212
411.5336, 1189.328
412.0157, 1203.878
412.4978, 1219.017
412.9799, 1234.337
413.4621, 1249.418
413.9442, 1264.377
414.4263, 1278.171
414.9084, 1290.165
415.3905, 1300.523
415.8727, 1309.882
416.3548, 1319.114
416.8369, 1326.246
417.3190, 1329.545
417.8011, 1329.442
418.2832, 1327.083
418.7654, 1321.588
419.2475, 1315.013
419.7296, 1308.195
420.2117, 1300.776
420.6938, 1295.586
421.1759, 1294.075
421.6581, 1295.197
422.1402, 1297.849
422.6223, 1302.969
423.1044, 1308.312
423.5865, 1314.091
424.0686, 1319.974
424.5508, 1323.750
425.0329, 1324.675
425.5150, 1323.824
425.9971, 1321.813
426.4792, 1319.620
426.9613, 1314.203
427.4435, 1304.384
427.9256, 1292.049
428.4077, 1279.783
428.8898, 1266.291
429.3719, 1255.487
429.8540, 1248.552
430.3362, 1245.330
430.8183, 1243.488
431.3004, 1243.145
431.7825, 1243.890
432.2646, 1245.217
432.7467, 1247.109
433.2289, 1250.916
433.7110, 1257.327
434.1931, 1264.705
434.6752, 1269.907
435.1573, 1273.087
435.6394, 1276.024
436.1216, 1279.661
436.6036, 1283.710
437.0858, 1287.502
437.5679, 1291.036
438.0500, 1294.411
438.5321, 1297.980
439.0142, 1301.406
439.4963, 1304.026
439.9785, 1305.076
440.4606, 1306.081
440.9427, 1308.112
441.4248, 1311.082
441.9069, 1314.699
442.3890, 1319.227
442.8712, 1324.098
443.3533, 1328.876
443.8354, 1333.406
444.3175, 1338.447
444.7996, 1344.597
445.2817, 1351.178
445.7639, 1357.530
446.2460, 1363.217
446.7281, 1369.006
447.2102, 1375.212
447.6923, 1381.708
448.1744, 1387.499
448.6566, 1392.926
449.1387, 1397.240
449.6208, 1399.916
450.1029, 1400.274
450.5850, 1401.127
451.0671, 1402.882
451.5493, 1404.700
452.0314, 1405.206
452.5135, 1404.044
452.9956, 1403.113
453.4777, 1402.803
453.9598, 1403.147
454.4420, 1404.162
454.9241, 1405.794
455.4062, 1408.555
455.8883, 1412.875
456.3704, 1418.650
456.8525, 1425.372
457.3347, 1432.821
457.8168, 1441.392
458.2989, 1451.084
458.7810, 1462.173
459.2631, 1475.137
459.7452, 1491.404
460.2274, 1509.165
460.7095, 1526.382
461.1916, 1543.316
461.6737, 1560.168
462.1558, 1576.920
462.6379, 1593.951
463.1201, 1611.760
463.6022, 1631.157
464.0843, 1650.063
464.5664, 1668.082
465.0485, 1684.991
465.5306, 1700.446
466.0128, 1714.837
466.4949, 1727.280
466.9770, 1737.335
467.4591, 1744.959
467.9412, 1750.822
468.4233, 1756.516
468.9055, 1759.207
469.3876, 1757.087
469.8697, 1748.236
470.3518, 1739.016
470.8339, 1730.338
471.3160, 1720.748
471.7982, 1707.107
472.2803, 1688.667
472.7624, 1669.101
473.2445, 1649.642
473.7266, 1630.157
474.2087, 1610.169
474.6909, 1589.654
475.1730, 1569.309
475.6551, 1548.949
476.1372, 1529.208
476.6193, 1513.037
477.1014, 1501.446
477.5836, 1492.174
478.0657, 1482.856
478.5478, 1473.649
479.0299, 1465.199
479.5120, 1457.227
479.9941, 1450.407
480.4763, 1445.675
480.9584, 1442.911
481.4405, 1441.064
481.9226, 1440.677
482.4047, 1440.339
482.8868, 1438.714
483.3690, 1434.547
483.8511, 1431.215
484.3332, 1431.390
484.8153, 1432.670
485.2974, 1431.135
485.7795, 1423.819
486.2617, 1416.202
486.7438, 1409.267
487.2259, 1402.990
487.7080, 1397.307
488.1901, 1392.352
488.6722, 1387.760
489.1544, 1383.302
489.6365, 1379.092
490.1186, 1374.805
490.6007, 1370.509
491.0828, 1366.013
491.5649, 1360.798
492.0471, 1354.871
492.5292, 1348.942
493.0113, 1343.323
493.4934, 1337.880
493.9755, 1331.903
494.4576, 1325.474
494.9398, 1319.552
495.4219, 1315.610
495.9040, 1312.495
496.3861, 1308.299
496.8682, 1302.687
497.3503, 1296.249
497.8325, 1288.844
498.3146, 1281.045
498.7967, 1273.588
499.2788, 1267.199
499.7609, 1260.933
500.2430, 1254.393
500.7252, 1247.652
501.2073, 1240.803
501.6894, 1233.799
502.1715, 1226.892
502.6536, 1220.078
503.1357, 1213.266
503.6179, 1207.014
504.1000, 1201.830
504.5821, 1196.874
505.0642, 1191.233
505.5463, 1184.377
506.0284, 1178.007
506.5106, 1172.527
506.9927, 1167.655
507.4748, 1162.551
507.9569, 1157.208
508.4390, 1151.564
508.9211, 1145.005
509.4033, 1137.825
509.8854, 1132.892
510.3675, 1130.409
510.8496, 1128.441
511.3317, 1125.264
511.8138, 1121.082
512.2960, 1116.404
512.7781, 1111.003
513.2602, 1105.718
513.7423, 1101.748
514.2244, 1098.594
514.7065, 1095.026
515.1887, 1090.570
515.6708, 1085.401
516.1529, 1079.223
516.6350, 1072.078
517.1171, 1065.732
517.5992, 1061.551
518.0814, 1057.944
518.5635, 1053.844
519.0456, 1048.244
519.5277, 1043.610
520.0098, 1040.618
520.4919, 1038.427
520.9741, 1035.667
521.4562, 1031.407
521.9383, 1028.549
522.4204, 1028.134
522.9025, 1029.718
523.3846, 1030.610
523.8668, 1030.791
524.3489, 1030.282
524.8310, 1028.484
525.3131, 1025.676
525.7952, 1024.423
526.2773, 1024.885
526.7595, 1026.527
527.2416, 1029.652
527.7237, 1033.489
528.2058, 1035.930
528.6879, 1035.392
529.1700, 1034.563
529.6522, 1035.906
530.1343, 1039.091
530.6164, 1043.189
531.0985, 1048.420
531.5806, 1053.875
532.0627, 1058.613
532.5449, 1062.454
533.0270, 1067.550
533.5091, 1075.263
533.9912, 1083.923
534.4733, 1092.258
534.9554, 1100.850
535.4376, 1108.169
535.9197, 1112.689
536.4018, 1116.614
536.8839, 1123.923
537.3660, 1136.028
537.8481, 1147.826
538.3303, 1157.898
538.8124, 1166.611
539.2945, 1176.141
539.7766, 1186.525
540.2587, 1197.427
540.7408, 1209.030
541.2230, 1221.078
541.7051, 1232.095
542.1872, 1241.921
542.6693, 1251.298
543.1514, 1261.391
543.6335, 1271.562
544.1157, 1280.988
544.5978, 1289.985
545.0799, 1297.344
545.5620, 1301.164
546.0441, 1302.576
546.5262, 1304.373
547.0084, 1308.650
547.4905, 1312.557
547.9726, 1315.088
548.4547, 1316.139
548.9368, 1315.882
549.4189, 1314.148
549.9011, 1311.235
550.3832, 1307.262
550.8653, 1302.080
551.3474, 1296.046
551.8295, 1289.003
552.3116, 1281.359
552.7938, 1273.933
553.2759, 1266.851
553.7580, 1258.688
554.2401, 1248.788
554.7222, 1237.813
555.2043, 1227.027
555.6865, 1216.576
556.1686, 1206.973
556.6507, 1198.843
557.1328, 1191.709
557.6149, 1184.356
558.0970, 1176.722
558.5792, 1170.521
559.0613, 1168.822
559.5434, 1168.357
560.0255, 1165.467
560.5076, 1156.783
560.9897, 1150.273
561.4719, 1149.879
561.9540, 1153.029
562.4361, 1155.431
562.9182, 1154.684
563.4003, 1155.262
563.8824, 1158.292
564.3646, 1163.427
564.8467, 1168.662
565.3288, 1174.515
565.8109, 1179.353
566.2930, 1181.768
566.7751, 1181.583
567.2573, 1183.424
567.7394, 1187.539
568.2215, 1192.555
568.7036, 1197.436
569.1857, 1202.093
569.6678, 1206.469
570.1500, 1210.666
570.6321, 1214.196
571.1142, 1216.567
571.5963, 1217.806
572.0784, 1217.970
572.5605, 1215.811
573.0427, 1213.729
573.5248, 1213.543
574.0069, 1214.956
574.4890, 1215.772
574.9711, 1214.985
575.4532, 1213.715
575.9354, 1212.186
576.4175, 1209.782
576.8996, 1209.516
577.3817, 1212.621
577.8638, 1216.654
578.3459, 1218.730
578.8281, 1217.201
579.3102, 1220.735
579.7923, 1231.362
580.2744, 1245.785
580.7565, 1257.311
581.2386, 1266.156
581.7208, 1276.227
582.2029, 1289.532
582.6850, 1304.732
583.1671, 1319.866
583.6492, 1335.015
584.1313, 1350.586
584.6134, 1366.400
585.0955, 1383.229
585.5776, 1402.416
586.0598, 1424.441
586.5419, 1445.828
587.0240, 1465.881
587.5061, 1484.461
587.9882, 1501.460
588.4703, 1517.126
588.9525, 1530.770
589.4346, 1542.179
589.9167, 1551.683
590.3988, 1560.036
590.8809, 1567.866
591.3630, 1572.689
591.8452, 1574.009
592.3273, 1571.835
592.8094, 1565.984
593.2915, 1556.375
593.7736, 1544.160
594.2557, 1529.847
594.7379, 1513.503
595.2200, 1494.616
595.7021, 1473.348
596.1842, 1450.598
596.6663, 1426.710
597.1484, 1401.992
597.6306, 1376.372
598.1127, 1349.835
598.5948, 1324.067
599.0769, 1299.469
599.5590, 1276.333
600.0411, 1254.939
600.5233, 1235.833
601.0054, 1218.283
601.4875, 1202.364
601.9696, 1187.893
602.4517, 1174.146
602.9338, 1160.791
603.4160, 1148.632
603.8981, 1137.953
604.3802, 1128.638
604.8623, 1119.947
605.3444, 1111.781
605.8265, 1104.407
606.3087, 1098.094
606.7908, 1092.719
607.2729, 1087.827
607.7550, 1083.332
608.2371, 1079.542
608.7192, 1076.926
609.2014, 1075.075
609.6835, 1073.398
610.1656, 1071.849
610.6477, 1070.303
611.1298, 1068.175
611.6119, 1066.095
612.0941, 1065.148
612.5762, 1066.877
613.0583, 1068.275
613.5404, 1068.512
614.0225, 1067.853
614.5046, 1067.753
614.9868, 1068.294
615.4689, 1069.214
615.9510, 1070.497
616.4331, 1072.116
616.9152, 1073.544
617.3973, 1074.718
617.8795, 1076.175
618.3616, 1078.460
618.8437, 1081.360
619.3258, 1084.209
619.8079, 1086.831
620.2900, 1090.042
620.7722, 1095.271
621.2543, 1101.355
621.7364, 1106.557
622.2185, 1109.210
622.7006, 1112.354
623.1827, 1117.513
623.6649, 1123.891
624.1470, 1129.616
624.6291, 1133.895
625.1112, 1138.252
625.5933, 1142.997
626.0754, 1148.076
626.5576, 1153.025
627.0397, 1157.843
627.5218, 1162.482
628.0039, 1166.773
628.4860, 1170.783
628.9681, 1175.183
629.4503, 1180.015
629.9324, 1184.902
630.4145, 1190.171
630.8966, 1195.164
631.3787, 1198.372
631.8608, 1199.028
632.3430, 1199.987
632.8251, 1204.071
633.3072, 1209.249
633.7893, 1213.077
634.2714, 1213.096
634.7535, 1213.804
635.2357, 1216.480
635.7178, 1220.432
636.1999, 1224.115
636.6820, 1227.466
637.1641, 1230.547
637.6462, 1233.198
638.1284, 1235.560
638.6105, 1238.367
639.0926, 1241.664
639.5747, 1244.939
640.0568, 1247.996
640.5389, 1250.768
641.0211, 1253.169
641.5032, 1255.176
641.9853, 1256.229
642.4674, 1255.990
642.9495, 1254.516
643.4316, 1251.731
643.9138, 1247.499
644.3959, 1242.623
644.8780, 1237.665
645.3601, 1232.216
645.8422, 1225.970
646.3243, 1218.723
646.8065, 1210.815
647.2886, 1202.205
647.7707, 1192.951
648.2528, 1182.824
648.7349, 1171.636
649.2170, 1160.443
649.6992, 1149.235
650.1813, 1138.204
650.6634, 1127.310
651.1455, 1116.662
651.6276, 1106.954
652.1097, 1099.174
652.5919, 1092.129
653.0740, 1083.477
653.5561, 1073.569
654.0382, 1065.094
654.5203, 1061.631
655.0024, 1058.686
655.4846, 1052.506
655.9667, 1041.486
656.4488, 1033.327
656.9309, 1032.261
657.4130, 1031.984
657.8951, 1028.084
658.3773, 1018.915
658.8594, 1010.945
659.3415, 1004.435
659.8236, 999.0520
660.3057, 994.6338
660.7878, 991.1300
661.2700, 987.6769
661.7521, 984.3135
662.2342, 980.4532
662.7163, 974.4062
663.1984, 967.1801
663.6805, 961.2114
664.1627, 959.0015
664.6448, 957.1718
665.1269, 953.6247
665.6090, 948.7738
666.0911, 944.3248
666.5732, 941.0764
667.0554, 937.8600
667.5375, 934.1201
668.0196, 929.8594
668.5017, 926.4689
668.9838, 924.2215
669.4659, 922.1241
669.9481, 919.4089
670.4302, 916.1630
670.9123, 913.9407
671.3944, 912.8730
671.8765, 911.4476
672.3586, 907.4913
672.8408, 902.4301
673.3229, 898.9383
673.8050, 897.7783
674.2871, 896.6243
674.7692, 893.6423
675.2513, 889.9928
675.7335, 886.9453
676.2156, 885.0741
676.6977, 883.6223
677.1798, 882.8766
677.6619, 882.3801
678.1440, 881.4227
678.6262, 879.9064
679.1083, 878.1775
679.5904, 876.2075
680.0725, 874.1332
680.5546, 872.0311
681.0367, 869.9150
681.5189, 868.3757
682.0010, 867.9647
682.4831, 868.0667
682.9652, 867.7859
683.4473, 867.1727
683.9294, 866.4732
684.4116, 865.4946
684.8937, 864.7451
685.3758, 864.6151
685.8579, 865.1521
686.3400, 865.7457
686.8221, 866.1420
687.3043, 866.7265
687.7864, 867.8320
688.2685, 869.7098
688.7506, 870.6244
689.2327, 870.2910
689.7148, 869.7800
690.1970, 870.0507
690.6791, 871.0298
691.1612, 872.3572
691.6433, 874.0499
692.1254, 875.6502
692.6075, 876.8369
693.0897, 877.5901
693.5718, 877.8651
694.0539, 877.5082
694.5360, 876.9474
695.0181, 876.0259
695.5002, 875.1202
695.9824, 874.7971
696.4645, 875.4710
696.9466, 876.3318
697.4287, 877.5831
697.9108, 878.8498
698.3929, 878.9417
698.8751, 877.5682
699.3572, 876.8361
699.8393, 877.8936
700.3214, 879.6686
700.8035, 879.3282
701.2856, 877.1808
701.7678, 875.0350
702.2499, 874.6397
702.7320, 874.2025
703.2141, 871.5319
703.6962, 866.9418
704.1783, 863.1981
704.6605, 861.9775
705.1426, 861.2742
705.6247, 860.0900
706.1068, 858.3117
706.5889, 856.8838
707.0710, 856.3437
707.5532, 855.2296
708.0353, 852.0508
708.5174, 846.8087
708.9995, 843.4575
709.4816, 842.2013
709.9637, 841.9662
710.4459, 842.3200
710.9280, 842.8193
711.4101, 842.5313
711.8922, 841.1909
712.3743, 839.7390
712.8564, 838.4512
713.3386, 837.5440
713.8207, 837.2662
714.3028, 838.9860
714.7849, 839.3560
715.2670, 837.2244
715.7491, 834.2440
716.2313, 832.4364
716.7134, 831.9187
717.1955, 832.1810
717.6776, 833.3735
718.1597, 834.8973
718.6418, 835.6996
719.1240, 835.8474
719.6061, 835.7161
720.0882, 835.4615
720.5703, 834.9481
721.0524, 833.6530
721.5345, 831.9952
722.0167, 830.9836
722.4988, 831.0759
722.9809, 831.8226
723.4630, 833.7277
723.9451, 836.3549
724.4272, 837.5552
724.9094, 836.8022
725.3915, 835.5889
725.8736, 833.9324
726.3557, 832.2586
726.8378, 833.2278
727.3199, 836.8871
727.8021, 840.8748
728.2842, 844.8768
728.7663, 847.7609
729.2484, 846.5193
729.7305, 841.5195
730.2126, 837.3528
730.6948, 836.7711
731.1769, 837.7662
731.6590, 839.3868
732.1411, 841.7309
732.6232, 843.1823
733.1053, 843.0801
733.5875, 842.7164
734.0696, 842.8535
734.5517, 843.5664
735.0338, 844.4015
735.5159, 845.5447
735.9980, 846.0637
736.4802, 844.3213
736.9623, 841.2951
737.4444, 839.8380
737.9265, 840.4549
738.4086, 841.4474
738.8907, 841.4255
739.3729, 841.1392
739.8550, 841.5074
740.3371, 843.5550
740.8192, 844.5577
741.3013, 842.9768
741.7834, 840.7804
742.2656, 839.9323
742.7477, 840.9520
743.2298, 841.4248
743.7119, 840.9427
744.1940, 840.1556
744.6761, 840.2444
745.1583, 840.9593
745.6404, 841.0723
746.1225, 840.1537
746.6046, 838.7966
747.0867, 837.4856
747.5688, 836.1565
748.0510, 834.7152
748.5331, 832.6536
749.0152, 831.0204
749.4973, 830.7501
749.9794, 830.9711
750.4615, 829.7609
750.9437, 826.1299
751.4258, 823.6771
751.9079, 823.5759
752.3900, 824.7552
752.8721, 824.5677
753.3542, 823.1185
753.8364, 821.3307
754.3185, 819.2448
754.8006, 817.3771
755.2827, 816.6503
755.7648, 816.6910
756.2469, 816.4547
756.7291, 815.0983
757.2112, 813.7809
757.6933, 813.1196
758.1754, 812.9562
758.6575, 812.2645
759.1396, 810.7299
759.6218, 809.3137
760.1039, 808.4494
760.5860, 807.9483
761.0681, 806.5010
761.5502, 804.1674
762.0323, 802.6801
762.5145, 803.6898
762.9966, 805.7755
763.4787, 807.1511
763.9608, 807.8563
764.4429, 808.3304
764.9250, 809.0165
765.4072, 809.3253
765.8893, 808.6238
766.3714, 806.8411
766.8535, 806.0840
767.3356, 806.6992
767.8177, 807.7291
768.2999, 808.9470
768.7820, 810.2490
769.2641, 810.4789
769.7462, 809.6007
770.2283, 808.3828
770.7104, 806.6633
771.1926, 805.2938
771.6747, 805.9349
772.1568, 808.5873
772.6389, 810.8174
773.1210, 811.2322
773.6031, 811.0365
774.0853, 810.8312
774.5674, 810.5943
775.0495, 810.8889
775.5316, 811.9689
776.0137, 813.1773
776.4958, 814.0499
776.9780, 814.6227
777.4601, 815.5784
777.9422, 816.9600
778.4243, 818.3165
778.9064, 819.1383
779.3885, 819.7791
779.8707, 820.8641
780.3528, 822.5201
780.8349, 823.7822
781.3170, 823.4274
781.7991, 823.0617
782.2812, 824.0264
782.7633, 826.9678
783.2454, 828.8383
783.7275, 829.0717
784.2097, 829.2412
784.6918, 830.7899
785.1739, 833.5560
785.6560, 836.2811
786.1381, 838.9533
786.6202, 840.9500
787.1024, 840.9191
787.5845, 840.2620
788.0666, 840.6765
788.5487, 842.4767
789.0308, 845.1744
789.5129, 849.7267
789.9951, 854.3522
790.4772, 857.5301
790.9593, 858.5821
791.4414, 860.2980
791.9235, 862.9604
792.4056, 865.6619
792.8878, 867.1398
793.3699, 867.7693
793.8520, 869.7635
794.3341, 873.4737
794.8162, 877.5371
795.2983, 881.4827
795.7805, 884.8503
796.2626, 886.9254
796.7447, 886.9050
797.2268, 887.7238
797.7089, 890.7974
798.1910, 894.5373
798.6732, 897.6385
799.1553, 899.7742
799.6374, 902.8451
800.1195, 907.1225
800.6016, 911.6205
801.0837, 915.2003
801.5659, 918.1826
802.0480, 921.6426
802.5301, 925.7394
803.0122, 929.9839
803.4943, 934.2274
803.9764, 938.3475
804.4586, 942.1910
804.9407, 945.4984
805.4228, 949.1133
805.9049, 953.5300
806.3870, 957.8123
806.8691, 961.2190
807.3513, 963.6233
807.8334, 966.0461
808.3155, 968.5406
808.7976, 971.0007
809.2797, 973.4333
809.7618, 975.7259
810.2440, 977.7785
810.7261, 979.6874
811.2082, 980.6497
811.6903, 979.4386
812.1724, 977.5612
812.6545, 976.3904
813.1367, 976.5834
813.6188, 976.1802
814.1009, 975.3504
814.5830, 973.6754
815.0651, 970.4551
815.5472, 965.8231
816.0294, 961.7043
816.5115, 958.3157
816.9936, 954.9431
817.4757, 951.1589
817.9578, 946.9599
818.4399, 942.1537
818.9221, 936.5814
819.4042, 931.4825
819.8863, 927.5099
820.3684, 924.0153
820.8505, 920.4562
821.3326, 916.6696
821.8148, 913.5194
822.2969, 911.1860
822.7790, 908.8731
823.2611, 905.7254
823.7432, 902.0383
824.2253, 898.7254
824.7075, 895.8520
825.1896, 893.5082
825.6717, 892.4453
826.1538, 891.4578
826.6359, 889.4241
827.1180, 885.9982
827.6002, 882.8242
828.0823, 880.4305
828.5644, 877.9046
829.0465, 874.4007
829.5286, 869.9070
830.0107, 867.4605
830.4929, 867.2298
830.9750, 867.3897
831.4571, 866.4516
831.9392, 865.0270
832.4213, 864.2281
832.9034, 864.0934
833.3856, 863.4570
833.8677, 861.4368
834.3498, 859.0515
834.8319, 856.7108
835.3140, 854.4158
835.7961, 852.5944
836.2783, 851.1666
836.7604, 850.4364
837.2425, 851.3295
837.7246, 853.0442
838.2067, 851.5173
838.6888, 847.1024
839.1710, 843.5245
839.6531, 844.1002
840.1352, 845.8138
840.6173, 846.3004
841.0994, 845.5566
841.5815, 844.8152
842.0637, 844.2735
842.5458, 843.7926
843.0279, 843.4633
843.5100, 843.1745
843.9921, 842.1913
844.4742, 840.5109
844.9564, 838.5324
845.4385, 836.2191
845.9206, 833.9262
846.4027, 831.9796
846.8848, 830.4939
847.3669, 829.8273
847.8491, 831.5057
848.3312, 832.6418
848.8133, 831.3864
849.2954, 828.6478
849.7775, 827.5223
850.2596, 828.5629
850.7418, 829.3822
851.2239, 829.1063
851.7060, 828.4372
852.1881, 828.8324
852.6702, 830.1901
853.1523, 832.2256
853.6345, 836.0615
854.1166, 838.9332
854.5987, 838.4119
855.0808, 835.6589
855.5629, 832.8787
856.0450, 829.4871
856.5272, 827.6654
857.0093, 828.3325
857.4914, 830.0010
857.9735, 830.0428
858.4556, 828.5609
858.9377, 827.2900
859.4199, 826.7556
859.9020, 826.2543
860.3841, 824.6872
860.8662, 822.7996
861.3483, 821.6633
861.8304, 821.8392
862.3126, 822.3307
862.7947, 823.3134
863.2768, 824.2356
863.7589, 824.4996
864.2410, 823.9042
864.7231, 823.7194
865.2053, 824.1036
865.6874, 824.4410
866.1695, 823.5156
866.6516, 822.1686
867.1337, 822.5372
867.6158, 825.2313
868.0980, 827.0129
868.5801, 824.5812
869.0622, 821.7149
869.5443, 821.7324
870.0264, 825.6063
870.5085, 827.9387
870.9907, 828.4792
871.4728, 828.1584
871.9549, 827.1251
872.4370, 825.7571
872.9191, 825.8690
873.4012, 827.4060
873.8834, 828.7767
874.3655, 828.5980
874.8476, 828.0533
875.3297, 827.7443
875.8118, 827.7336
876.2939, 828.8583
876.7761, 832.4603
877.2582, 834.9868
877.7403, 834.6094
878.2224, 832.1384
878.7045, 831.9636
879.1866, 833.8889
879.6688, 835.3925
880.1509, 834.1445
880.6330, 832.6539
881.1151, 833.8989
881.5972, 836.9979
882.0793, 839.3953
882.5615, 840.5585
883.0436, 840.5801
883.5257, 838.8500
884.0078, 836.3969
884.4899, 835.6885
884.9720, 836.8280
885.4542, 837.7886
885.9363, 837.8908
886.4184, 838.0174
886.9005, 839.8479
887.3826, 842.4142
887.8647, 843.9208
888.3469, 842.7990
888.8290, 842.3262
889.3111, 844.5670
889.7932, 847.2560
890.2753, 847.9089
890.7574, 845.8082
891.2396, 844.9738
891.7217, 845.7869
892.2038, 847.2272
892.6859, 848.5474
893.1680, 849.5860
893.6501, 849.9140
894.1323, 849.4160
894.6144, 848.9293
895.0965, 848.9288
895.5786, 849.0668
896.0607, 849.0578
896.5428, 848.8503
897.0250, 849.0444
897.5071, 849.7836
897.9892, 850.4840
898.4713, 850.6478
898.9534, 850.5162
899.4355, 851.0115
899.9177, 851.9846
900.3998, 852.4581
900.8819, 851.4088
901.3640, 850.0811
901.8461, 848.8858
902.3282, 847.9688
902.8104, 847.9773
903.2925, 849.4336
903.7746, 850.4659
904.2567, 850.3266
904.7388, 849.6447
905.2209, 850.2061
905.7031, 851.6146
906.1852, 852.1873
906.6673, 850.5812
907.1494, 849.0584
907.6315, 849.1746
908.1136, 850.3602
908.5958, 851.8031
909.0779, 854.4413
909.5600, 855.3134
910.0421, 853.7232
910.5242, 851.2582
911.0063, 849.4288
911.4885, 848.3688
911.9706, 849.0975
912.4527, 851.9600
912.9348, 854.6555
913.4169, 855.3038
913.8990, 854.9714
914.3812, 854.3606
914.8633, 853.2546
915.3454, 853.3832
915.8275, 855.0146
916.3096, 857.4584
916.7917, 860.9047
917.2739, 864.9533
917.7560, 866.4296
918.2381, 865.5541
918.7202, 865.1199
919.2023, 867.8626
919.6844, 870.9823
920.1666, 871.9102
920.6487, 871.1092
921.1308, 871.3998
921.6129, 874.0648
922.0950, 876.3210
922.5771, 877.2778
923.0593, 877.6483
923.5414, 879.4649
924.0235, 882.4708
924.5056, 884.8380
924.9877, 885.5319
925.4698, 886.2946
925.9520, 889.2759
926.4341, 893.0516
926.9162, 895.5938
927.3983, 894.6197
927.8804, 895.2548
928.3625, 898.1312
928.8447, 901.7422
929.3268, 904.7327
929.8089, 907.0814
930.2910, 908.5999
930.7731, 909.2234
931.2552, 910.0985
931.7374, 912.2652
932.2195, 915.0191
932.7016, 917.9212
933.1837, 920.9218
933.6658, 923.5674
934.1479, 925.8180
934.6301, 927.7466
935.1122, 929.2389
935.5943, 930.4765
936.0764, 932.6270
936.5585, 935.4852
937.0406, 937.3514
937.5228, 936.6198
938.0049, 935.2425
938.4870, 934.2197
938.9691, 933.7098
939.4512, 934.1806
939.9333, 937.1181
940.4155, 938.3895
940.8976, 937.0041
941.3797, 934.4999
941.8618, 933.6168
942.3439, 933.8504
942.8260, 932.5132
943.3082, 928.7568
943.7903, 925.2029
944.2724, 924.2484
944.7545, 924.2021
945.2366, 923.5078
945.7188, 921.7432
946.2009, 920.1532
946.6830, 919.0836
947.1651, 917.4163
947.6472, 913.7606
948.1293, 908.8943
948.6115, 906.0276
949.0936, 905.0395
949.5757, 904.7655
950.0578, 905.4020
950.5399, 905.7068
951.0220, 904.7925
951.5042, 902.8697
951.9863, 901.0087
952.4684, 899.3285
952.9505, 897.4207
953.4326, 895.0539
953.9147, 892.6627
954.3969, 890.9949
954.8790, 889.9039
955.3611, 888.9264
955.8432, 887.7783
956.3253, 887.1631
956.8074, 888.0478
957.2896, 889.2540
957.7717, 889.5667
958.2538, 888.5514
958.7359, 888.0948
959.2180, 888.2392
959.7001, 888.6925
960.1823, 889.3284
960.6644, 890.0497
961.1465, 890.6378
961.6286, 891.0928
962.1107, 891.5347
962.5928, 892.4891
963.0750, 892.9235
963.5571, 891.9432
964.0392, 890.1252
964.5213, 889.6581
965.0034, 890.6680
965.4855, 892.0681
965.9677, 893.5679
966.4498, 895.3178
966.9319, 897.6821
967.4140, 900.4102
967.8961, 903.0045
968.3782, 905.3710
968.8604, 907.5857
969.3425, 909.5626
969.8246, 911.5516
970.3067, 913.6370
970.7888, 915.7678
971.2709, 918.9761
971.7531, 923.3109
972.2352, 927.7974
972.7173, 931.3954
973.1994, 934.9062
973.6815, 939.1561
974.1636, 944.1039
974.6458, 949.0605
975.1279, 953.7634
975.6100, 958.5547
976.0921, 963.4006
976.5742, 968.4827
977.0563, 974.6221
977.5385, 981.6338
978.0206, 988.0441
978.5027, 993.2012
978.9848, 997.9373
979.4669, 1002.765
979.9490, 1007.618
980.4311, 1012.431
980.9132, 1017.461
981.3953, 1021.774
981.8774, 1024.960
982.3596, 1028.464
982.8417, 1034.696
983.3238, 1042.133
983.8059, 1045.558
984.2880, 1045.052
984.7701, 1044.485
985.2523, 1046.732
985.7344, 1048.840
986.2165, 1048.873
986.6986, 1047.356
987.1807, 1046.484
987.6628, 1046.360
988.1450, 1046.231
988.6271, 1045.740
989.1092, 1045.414
989.5913, 1046.394
990.0734, 1048.031
990.5555, 1049.123
991.0377, 1049.149
991.5198, 1048.960
992.0019, 1047.862
992.4840, 1047.493
992.9661, 1049.497
993.4482, 1053.985
993.9304, 1057.141
994.4125, 1058.913
994.8946, 1060.767
995.3767, 1063.486
995.8588, 1067.060
996.3409, 1072.258
996.8231, 1078.570
997.3052, 1083.127
997.7873, 1084.092
998.2694, 1085.990
998.7515, 1090.175
999.2336, 1095.299
999.7158, 1098.321
1000.198, 1099.819
1000.680, 1102.035
1001.162, 1105.828
1001.644, 1109.410
1002.126, 1111.995
1002.608, 1113.515
1003.091, 1113.509
1003.573, 1111.504
1004.055, 1111.214
1004.537, 1112.933
1005.019, 1114.968
1005.501, 1116.521
1005.983, 1117.486
1006.465, 1117.085
1006.948, 1115.861
1007.430, 1115.807
1007.912, 1119.264
1008.394, 1122.045
1008.876, 1122.155
1009.358, 1121.638
1009.840, 1124.348
1010.322, 1130.197
1010.804, 1136.286
1011.287, 1142.267
1011.769, 1147.916
1012.251, 1152.112
1012.733, 1156.464
1013.215, 1162.789
1013.697, 1171.685
1014.179, 1180.297
1014.661, 1188.298
1015.143, 1196.386
1015.626, 1204.478
1016.108, 1213.042
1016.590, 1223.537
1017.072, 1235.729
1017.554, 1249.071
1018.036, 1263.971
1018.518, 1279.165
1019.000, 1293.292
1019.483, 1307.736
1019.965, 1324.236
1020.447, 1342.967
1020.929, 1363.064
1021.411, 1384.522
1021.893, 1407.523
1022.375, 1432.506
1022.857, 1458.972
1023.339, 1486.346
1023.822, 1514.576
1024.304, 1543.830
1024.786, 1572.277
1025.268, 1604.162
1025.750, 1640.598
1026.232, 1681.045
1026.714, 1723.942
1027.196, 1769.250
1027.679, 1816.913
1028.161, 1866.844
1028.643, 1918.400
1029.125, 1970.824
1029.607, 2025.312
1030.089, 2083.309
1030.571, 2145.108
1031.053, 2209.355
1031.536, 2276.678
1032.018, 2345.991
1032.500, 2416.148
1032.982, 2487.977
1033.464, 2562.308
1033.946, 2638.767
1034.428, 2718.453
1034.910, 2804.458
1035.392, 2890.845
1035.875, 2977.025
1036.357, 3062.267
1036.839, 3143.499
1037.321, 3221.516
1037.803, 3298.246
1038.285, 3375.514
1038.767, 3445.447
1039.249, 3503.399
1039.731, 3550.186
1040.214, 3587.302
1040.696, 3614.568
1041.178, 3628.110
1041.660, 3627.924
1042.142, 3613.358
1042.624, 3582.939
1043.106, 3539.129
1043.588, 3483.747
1044.071, 3417.713
1044.553, 3342.973
1045.035, 3257.369
1045.517, 3165.677
1045.999, 3066.224
1046.481, 2963.579
1046.963, 2863.534
1047.445, 2765.664
1047.927, 2669.396
1048.410, 2574.001
1048.892, 2481.820
1049.374, 2392.999
1049.856, 2308.677
1050.338, 2231.035
1050.820, 2159.210
1051.302, 2091.756
1051.784, 2028.421
1052.266, 1970.175
1052.749, 1917.224
1053.231, 1869.396
1053.713, 1826.955
1054.195, 1789.549
1054.677, 1755.420
1055.159, 1724.524
1055.641, 1696.937
1056.123, 1673.526
1056.606, 1652.481
1057.088, 1632.777
1057.570, 1614.757
1058.052, 1601.928
1058.534, 1593.534
1059.016, 1584.273
1059.498, 1569.432
1059.980, 1556.032
1060.463, 1549.335
1060.945, 1546.412
1061.427, 1543.145
1061.909, 1539.597
1062.391, 1535.143
1062.873, 1529.834
1063.355, 1523.416
1063.837, 1516.223
1064.319, 1507.421
1064.802, 1494.871
1065.284, 1479.302
1065.766, 1465.063
1066.248, 1455.607
1066.730, 1444.430
1067.212, 1430.505
1067.694, 1413.896
1068.176, 1393.857
1068.658, 1371.238
1069.141, 1349.938
1069.623, 1330.923
1070.105, 1312.102
1070.587, 1292.947
1071.069, 1273.009
1071.551, 1251.117
1072.033, 1227.750
1072.515, 1207.107
1072.998, 1189.597
1073.480, 1171.914
1073.962, 1151.736
1074.444, 1132.437
1074.926, 1119.075
1075.408, 1108.757
1075.890, 1097.123
1076.372, 1080.778
1076.854, 1068.622
1077.337, 1062.024
1077.819, 1056.011
1078.301, 1045.557
1078.783, 1033.015
1079.265, 1024.683
1079.747, 1019.929
1080.229, 1014.744
1080.711, 1006.056
1081.193, 998.4417
1081.676, 993.4288
1082.158, 989.7193
1082.640, 985.0418
1083.122, 979.5948
1083.604, 975.6622
1084.086, 973.6827
1084.568, 971.5639
1085.050, 966.9019
1085.532, 962.1855
1086.015, 959.4567
1086.497, 958.5554
1086.979, 957.5940
1087.461, 956.5855
1087.943, 955.5177
1088.425, 954.4252
1088.907, 953.2252
1089.389, 950.8713
1089.872, 948.7331
1090.354, 948.9134
1090.836, 952.6769
1091.318, 956.8987
1091.800, 962.4822
1092.282, 966.1649
1092.764, 964.6497
1093.246, 960.1259
1093.729, 959.5005
1094.211, 961.8230
1094.693, 963.5980
1095.175, 962.0025
1095.657, 961.3448
1096.139, 963.5576
1096.621, 966.5641
1097.103, 968.0052
1097.585, 967.9758
1098.068, 968.5748
1098.550, 969.9208
1099.032, 971.7836
1099.514, 974.8295
1099.996, 977.5790
1100.478, 978.6854
1100.960, 980.5404
1101.442, 981.9209
1101.924, 982.0995
1102.407, 983.4394
1102.889, 983.1478
1103.371, 982.1340
1103.853, 980.3658
1104.335, 979.0668
1104.817, 980.6544
1105.299, 985.9635
1105.781, 986.8548
1106.264, 981.1852
1106.746, 975.1225
1107.228, 970.7697
1107.710, 967.6202
1108.192, 965.5320
1108.674, 963.6246
1109.156, 959.6375
1109.638, 952.0011
1110.120, 944.7054
1110.603, 939.0930
1111.085, 933.7921
1111.567, 927.7382
1112.049, 921.2009
1112.531, 915.9162
1113.013, 911.7536
1113.495, 907.4521
1113.977, 902.1086
1114.459, 896.6985
1114.942, 891.2003
1115.424, 886.1906
1115.906, 882.6625
1116.388, 880.7991
1116.870, 878.4934
1117.352, 875.6375
1117.834, 872.4259
1118.316, 868.1819
1118.799, 864.3655
1119.281, 862.4739
1119.763, 862.1478
1120.245, 861.7316
1120.727, 861.3253
1121.209, 860.0633
1121.691, 857.5538
1122.173, 855.0775
1122.656, 854.5789
1123.138, 854.8058
1123.620, 853.9820
1124.102, 851.8593
1124.584, 849.9408
1125.066, 848.1066
1125.548, 847.1650
1126.030, 847.7482
1126.512, 848.8256
1126.995, 848.1406
1127.477, 846.3506
1127.959, 844.9231
1128.441, 844.1493
1128.923, 844.0264
1129.405, 845.5103
1129.887, 846.5490
1130.369, 845.9899
1130.851, 844.1478
1131.334, 841.9899
1131.816, 839.7737
1132.298, 838.7154
1132.780, 840.1809
1133.262, 841.5472
1133.744, 841.5731
1134.226, 840.9172
1134.708, 839.9935
1135.191, 838.7286
1135.673, 838.3914
1136.155, 838.9734
1136.637, 840.2618
1137.119, 843.0395
1137.601, 845.5862
1138.083, 846.5523
1138.565, 846.4431
1139.047, 846.3810
1139.530, 846.4022
1140.012, 846.3924
1140.494, 846.3290
1140.976, 846.4249
1141.458, 846.9584
1141.940, 847.6782
1142.422, 848.3270
1142.904, 848.9150
1143.386, 849.5255
1143.869, 849.9391
1144.351, 851.0928
1144.833, 853.2748
1145.315, 855.7931
1145.797, 857.6393
1146.279, 859.2919
1146.761, 861.3446
1147.243, 863.8591
1147.726, 867.0353
1148.208, 870.9606
1148.690, 875.4337
1149.172, 880.9407
1149.654, 886.1934
1150.136, 887.4916
1150.618, 886.9496
1151.100, 889.2159
1151.583, 896.0281
1152.065, 902.3514
1152.547, 906.6711
1153.029, 910.5638
1153.511, 914.6198
1153.993, 918.7738
1154.475, 922.7745
1154.957, 926.7877
1155.439, 931.4441
1155.922, 937.4873
1156.404, 943.1298
1156.886, 947.7471
1157.368, 951.7741
1157.850, 955.4100
1158.332, 958.7073
1158.814, 962.2238
1159.296, 965.8776
1159.778, 969.1136
1160.261, 972.5608
1160.743, 974.4408
1161.225, 973.0564
1161.707, 970.1315
1162.189, 967.4772
1162.671, 965.1114
1163.153, 961.6237
1163.635, 956.9841
1164.118, 951.6484
1164.600, 945.4590
1165.082, 939.2092
1165.564, 933.8344
1166.046, 928.6484
1166.528, 922.2098
1167.010, 914.2654
1167.492, 907.4148
1167.974, 901.8537
1168.457, 897.0571
1168.939, 892.4771
1169.421, 888.5014
1169.903, 886.0240
1170.385, 884.4278
1170.867, 880.9246
1171.349, 874.9119
1171.831, 870.5792
1172.313, 868.8392
1172.796, 867.9809
1173.278, 866.1851
1173.760, 864.5203
1174.242, 864.3665
1174.724, 865.7206
1175.206, 866.0847
1175.688, 865.2065
1176.170, 864.2856
1176.653, 863.5207
1177.135, 863.2018
1177.617, 864.0912
1178.099, 865.4241
1178.581, 866.1349
1179.063, 865.9723
1179.545, 866.4598
1180.027, 867.7878
1180.510, 869.2010
1180.992, 870.5252
1181.474, 871.5530
1181.956, 871.8061
1182.438, 871.6312
1182.920, 871.6569
1183.402, 872.2253
1183.884, 871.9594
1184.366, 870.5930
1184.849, 869.1194
1185.331, 868.2628
1185.813, 867.3154
1186.295, 864.1647
1186.777, 860.1784
1187.259, 858.1307
1187.741, 860.5693
1188.223, 860.6620
1188.705, 857.6892
1189.188, 853.3336
1189.670, 847.3271
1190.152, 841.5344
1190.634, 841.1912
1191.116, 844.0931
1191.598, 844.9401
1192.080, 840.1362
1192.562, 836.0550
1193.045, 833.3268
1193.527, 830.7774
1194.009, 826.8904
1194.491, 822.7177
1194.973, 821.0766
1195.455, 821.4090
1195.937, 821.7499
1196.419, 822.0254
1196.901, 821.1749
1197.384, 818.6755
1197.866, 815.8788
1198.348, 813.9366
1198.830, 812.6907
1199.312, 811.9402
1199.794, 811.5750
1200.276, 811.1307
1200.758, 810.7611
1201.240, 809.7181
1201.723, 807.5296
1202.205, 805.3358
1202.687, 804.7030
1203.169, 805.1092
1203.651, 805.6096
1204.133, 806.0262
1204.615, 805.5664
1205.097, 802.4358
1205.580, 800.5717
1206.062, 801.1383
1206.544, 802.5074
1207.026, 802.0750
1207.508, 800.6322
1207.990, 800.4288
1208.472, 801.5897
1208.954, 802.0344
1209.437, 799.6165
1209.919, 798.3870
1210.401, 799.8552
1210.883, 802.0204
1211.365, 800.9979
1211.847, 798.1562
1212.329, 796.6873
1212.811, 797.0724
1213.293, 798.0239
1213.776, 800.2126
1214.258, 801.3471
1214.740, 800.5204
1215.222, 798.7268
1215.704, 797.5862
1216.186, 797.0602
1216.668, 797.2146
1217.150, 798.1318
1217.632, 798.8408
1218.115, 799.2574
1218.597, 799.0535
1219.079, 797.7834
1219.561, 796.2702
1220.043, 796.2362
1220.525, 797.2271
1221.007, 798.4393
1221.489, 799.8939
1221.972, 800.3206
1222.454, 798.7719
1222.936, 797.4591
1223.418, 797.4161
1223.900, 796.0290
1224.382, 796.7328
1224.864, 794.8504
1225.346, 793.8714
1225.828, 794.3770
1226.311, 795.0313
1226.793, 795.8403
1227.275, 796.3051
1227.757, 796.1472
1228.239, 795.5746
1228.721, 794.5679
1229.203, 793.5892
1229.685, 793.7225
1230.167, 795.7852
1230.650, 797.1178
1231.132, 797.2943
1231.614, 797.2935
1232.096, 797.6036
1232.578, 798.0507
1233.060, 798.7336
1233.542, 799.1744
1234.024, 798.2767
1234.507, 794.6728
1234.989, 792.8024
1235.471, 793.2369
1235.953, 794.0990
1236.435, 794.1667
1236.917, 794.1927
1237.399, 796.3625
1237.881, 795.3717
1238.364, 799.5518
1238.846, 795.0780
1239.328, 792.9162
1239.810, 793.4412
1240.292, 794.9064
1240.774, 796.8534
1241.256, 798.5488
1241.738, 798.6061
1242.220, 797.8518
1242.703, 797.8387
1243.185, 799.2106
1243.667, 800.0120
1244.149, 800.1868
1244.631, 800.0146
1245.113, 799.1822
1245.595, 798.5456
1246.077, 799.3587
1246.559, 800.9240
1247.042, 802.0851
1247.524, 802.8397
1248.006, 802.7827
1248.488, 801.8586
1248.970, 800.8583
1249.452, 800.2943
1249.934, 799.9178
1250.416, 799.5463
1250.899, 799.2533
1251.381, 799.1791
1251.863, 799.4305
1252.345, 799.4734
1252.827, 799.3160
1253.309, 798.7032
1253.791, 796.5103
1254.273, 794.8279
1254.755, 795.3252
1255.238, 797.0848
1255.720, 799.0010
1256.202, 801.1272
1256.684, 801.4451
1257.166, 800.0221
1257.648, 798.8812
1258.130, 800.0569
1258.612, 800.9082
1259.094, 798.7367
1259.577, 796.5432
1260.059, 798.1709
1260.541, 803.2017
1261.023, 805.9908
1261.505, 806.5442
1261.987, 806.0793
1262.469, 804.5365
1262.951, 802.9862
1263.434, 801.2921
1263.916, 800.2587
1264.398, 801.3626
1264.880, 803.8455
1265.362, 803.9238
1265.844, 801.9589
1266.326, 800.4822
1266.808, 800.8439
1267.291, 801.5682
1267.773, 802.6209
1268.255, 803.4883
1268.737, 803.6309
1269.219, 803.2145
1269.701, 802.2377
1270.183, 801.0291
1270.665, 800.7526
1271.147, 802.7802
1271.630, 804.3333
1272.112, 805.2756
1272.594, 805.5768
1273.076, 804.8580
1273.558, 803.6913
1274.040, 802.6039
1274.522, 801.8284
1275.004, 802.1458
1275.486, 804.6132
1275.969, 805.3594
1276.451, 803.8184
1276.933, 802.3951
1277.415, 803.9001
1277.897, 805.9499
1278.379, 805.7762
1278.861, 804.1843
1279.343, 803.2787
1279.825, 803.2004
1280.308, 803.5305
1280.790, 804.2561
1281.272, 805.1679
1281.754, 806.4685
1282.236, 807.5145
1282.718, 807.2443
1283.200, 806.7205
1283.682, 808.2625
1284.165, 812.0447
1284.647, 811.2050
1285.129, 805.8534
1285.611, 802.0691
1286.093, 805.6317
1286.575, 809.1476
1287.057, 808.4852
1287.539, 806.7321
1288.021, 807.5566
1288.504, 810.2835
1288.986, 810.7410
1289.468, 809.1573
1289.950, 807.7574
1290.432, 807.9171
1290.914, 807.9244
1291.396, 807.3151
1291.878, 806.6871
1292.360, 806.5544
1292.843, 806.8589
1293.325, 807.9961
1293.807, 809.4848
1294.289, 809.6954
1294.771, 806.2657
1295.253, 804.5095
1295.735, 804.8408
1296.217, 806.1557
1296.700, 808.0970
1297.182, 810.0277
1297.664, 810.7900
1298.146, 812.0559
1298.628, 813.0760
1299.110, 813.2012
1299.592, 814.0778
1300.074, 813.9170
1300.557, 812.8389
1301.039, 810.1017
1301.521, 807.3049
1302.003, 805.6893
1302.485, 805.0227
1302.967, 804.9484
1303.449, 805.9330
##END=



