##NAMES=Tvalchrelidzeite
##RRUFFID=R061128
##IDEAL CHEMISTRY=Hg_3_SbAsS_3_
##LOCALITY=Gomi deposit, Rioni River Valley, Caucacus Mountains, Georgia
##OWNER=RRUFF
##SOURCE=Michael Scott
##DESCRIPTION=Black submetallic with internal red hints, no distinct crystal forms
##STATUS=The identification of this mineral is confirmed by single-crystal X-ray diffraction and chemical analysis.
##URL=rruff.info/R061128
##MEASURED CHEMISTRY=Hg_3.00_Sb_1.00_As_1.00_S_3.00_ : darker inclusions are HgS.
137.0571, 3539.595
137.5392, 3640.323
138.0213, 3743.198
138.5035, 3883.134
138.9856, 4068.173
139.4677, 4302.512
139.9498, 4605.483
140.4319, 4993.281
140.9140, 5449.640
141.3961, 5934.022
141.8783, 6443.667
142.3604, 7005.558
142.8425, 7642.833
143.3246, 8354.512
143.8067, 9115.013
144.2888, 9915.429
144.7710, 10777.00
145.2531, 11723.39
145.7352, 12660.87
146.2173, 13474.20
146.6994, 14143.18
147.1815, 14766.99
147.6637, 15406.67
148.1458, 16188.84
148.6279, 16927.46
149.1100, 17535.40
149.5921, 18007.75
150.0742, 18275.69
150.5564, 18247.74
151.0385, 17912.30
151.5206, 17360.84
152.0027, 16468.23
152.4848, 15450.21
152.9669, 14396.60
153.4491, 13329.84
153.9312, 12318.00
154.4133, 11472.30
154.8954, 10812.41
155.3775, 10259.12
155.8596, 9794.231
156.3418, 9414.657
156.8239, 9129.486
157.3060, 8939.556
157.7881, 8823.578
158.2702, 8744.820
158.7523, 8697.057
159.2345, 8703.845
159.7166, 8782.203
160.1987, 8896.229
160.6808, 9016.727
161.1629, 9133.700
161.6451, 9260.886
162.1272, 9426.103
162.6093, 9646.441
163.0914, 9876.617
163.5735, 10127.64
164.0556, 10376.96
164.5378, 10616.59
165.0199, 10843.35
165.5020, 11037.25
165.9841, 11148.03
166.4662, 11134.13
166.9483, 11103.52
167.4305, 11025.84
167.9126, 10958.21
168.3947, 10948.72
168.8768, 11016.29
169.3589, 11150.23
169.8410, 11326.17
170.3232, 11541.04
170.8053, 11809.91
171.2874, 12161.60
171.7695, 12550.15
172.2516, 12931.06
172.7337, 13286.10
173.2159, 13632.28
173.6980, 14011.69
174.1801, 14433.25
174.6622, 14881.38
175.1443, 15341.95
175.6264, 15829.57
176.1085, 16340.71
176.5907, 16871.21
177.0728, 17461.46
177.5549, 18196.21
178.0370, 18969.15
178.5191, 20058.63
179.0012, 21339.77
179.4834, 22981.73
179.9655, 25126.38
180.4476, 27840.43
180.9297, 31116.12
181.4118, 34947.52
181.8939, 39500.55
182.3761, 44496.44
182.8582, 49884.88
183.3403, 55710.35
183.8224, 61955.21
184.3045, 68627.03
184.7866, 75819.01
185.2688, 83872.64
185.7509, 93178.16
186.2330, 102962.6
186.7151, 112840.3
187.1972, 123326.3
187.6793, 134765.4
188.1615, 147366.5
188.6436, 161244.7
189.1257, 176771.0
189.6078, 200402.3
190.0899, 216098.1
190.5720, 224966.3
191.0542, 225218.5
191.5363, 212900.9
192.0184, 186872.9
192.5005, 153137.2
192.9826, 122128.4
193.4647, 92343.70
193.9469, 68229.11
194.4290, 51206.91
194.9111, 39131.99
195.3932, 30446.16
195.8753, 24593.87
196.3574, 20792.11
196.8396, 17906.62
197.3217, 16309.74
197.8038, 15065.17
198.2859, 14240.41
198.7680, 13721.31
199.2501, 13426.02
199.7323, 13331.10
200.2144, 13426.14
200.6965, 13695.88
201.1786, 14163.90
201.6607, 14820.64
202.1428, 15636.50
202.6250, 16658.93
203.1071, 17918.99
203.5892, 19427.23
204.0713, 21197.33
204.5534, 23253.28
205.0355, 25691.34
205.5177, 28214.88
205.9998, 30754.08
206.4819, 33419.25
206.9640, 36250.20
207.4461, 39264.70
207.9282, 42531.80
208.4104, 46170.59
208.8925, 50315.98
209.3746, 54280.54
209.8567, 58298.35
210.3388, 61960.80
210.8209, 64858.56
211.3030, 67018.48
211.7852, 68960.30
212.2673, 71322.11
212.7494, 74284.51
213.2315, 76030.76
213.7136, 77456.36
214.1957, 77102.03
214.6779, 73707.07
215.1600, 67470.73
215.6421, 59585.77
216.1242, 50761.45
216.6063, 40882.59
217.0884, 32694.45
217.5706, 26262.40
218.0527, 21117.09
218.5348, 17285.50
219.0169, 14606.40
219.4990, 12679.49
219.9811, 11272.21
220.4633, 10382.42
220.9454, 9668.277
221.4275, 9151.192
221.9096, 8746.138
222.3917, 8443.990
222.8738, 8228.191
223.3560, 8071.575
223.8381, 7962.606
224.3202, 7895.979
224.8023, 7824.608
225.2844, 7718.183
225.7665, 7640.230
226.2487, 7623.538
226.7308, 7648.001
227.2129, 7675.498
227.6950, 7685.297
228.1771, 7683.667
228.6592, 7697.632
229.1414, 7734.467
229.6235, 7776.743
230.1056, 7814.098
230.5877, 7856.987
231.0698, 7923.034
231.5519, 8020.953
232.0341, 8139.439
232.5162, 8249.619
232.9983, 8325.290
233.4804, 8425.442
233.9625, 8556.938
234.4446, 8712.817
234.9268, 8887.583
235.4089, 9078.404
235.8910, 9284.317
236.3731, 9503.070
236.8552, 9737.051
237.3373, 9983.391
237.8195, 10231.65
238.3016, 10496.49
238.7837, 10784.99
239.2658, 11099.90
239.7479, 11452.22
240.2300, 11857.49
240.7122, 12322.48
241.1943, 12830.69
241.6764, 13371.48
242.1585, 13956.23
242.6406, 14575.10
243.1227, 15236.02
243.6049, 15969.49
244.0870, 16807.79
244.5691, 17754.25
245.0512, 18791.51
245.5333, 19887.68
246.0154, 21085.26
246.4975, 22387.77
246.9797, 23804.63
247.4618, 25345.88
247.9439, 27017.63
248.4260, 28819.19
248.9081, 30778.10
249.3902, 32879.61
249.8724, 35144.70
250.3545, 37596.26
250.8366, 40212.69
251.3187, 42995.89
251.8008, 45948.17
252.2829, 49038.03
252.7651, 52114.33
253.2472, 55183.66
253.7293, 58234.44
254.2114, 61343.55
254.6935, 64403.05
255.1756, 67353.67
255.6578, 70169.55
256.1399, 72742.06
256.6220, 74805.66
257.1041, 76479.93
257.5862, 77337.62
258.0684, 77446.60
258.5505, 76814.88
259.0326, 75393.70
259.5147, 73182.74
259.9968, 70329.38
260.4789, 67005.83
260.9611, 62995.44
261.4432, 59056.66
261.9253, 55111.34
262.4074, 51355.07
262.8895, 47863.94
263.3716, 44657.98
263.8537, 41779.78
264.3358, 39272.02
264.8180, 37156.30
265.3001, 35280.92
265.7822, 33734.02
266.2643, 32364.44
266.7464, 31147.91
267.2285, 30061.59
267.7107, 29047.32
268.1928, 28084.82
268.6749, 27168.79
269.1570, 26230.99
269.6391, 25266.21
270.1212, 24286.63
270.6034, 23287.61
271.0855, 22284.96
271.5676, 21304.34
272.0497, 20357.01
272.5318, 19448.80
273.0139, 18603.72
273.4961, 17816.45
273.9782, 17101.70
274.4603, 16446.50
274.9424, 15865.65
275.4245, 15391.88
275.9066, 15049.99
276.3888, 14789.03
276.8709, 14546.56
277.3530, 14319.62
277.8351, 14144.38
278.3172, 14043.32
278.7993, 14001.48
279.2815, 13997.70
279.7636, 14033.21
280.2457, 14098.36
280.7278, 14184.13
281.2099, 14292.93
281.6920, 14439.70
282.1742, 14638.58
282.6563, 14864.01
283.1384, 15086.97
283.6205, 15308.74
284.1026, 15522.19
284.5847, 15704.41
285.0669, 15881.61
285.5490, 16119.21
286.0311, 16438.81
286.5132, 16754.53
286.9953, 16959.63
287.4774, 17060.11
287.9596, 17190.40
288.4417, 17370.29
288.9238, 17585.45
289.4059, 17818.05
289.8880, 18069.60
290.3701, 18352.90
290.8523, 18661.28
291.3344, 19010.87
291.8165, 19511.44
292.2986, 20175.34
292.7807, 20959.51
293.2628, 21859.24
293.7450, 22868.02
294.2271, 23981.72
294.7092, 25195.86
295.1913, 26500.43
295.6734, 27877.53
296.1555, 29356.88
296.6377, 30854.60
297.1198, 32361.04
297.6019, 33874.08
298.0840, 35413.94
298.5661, 36986.00
299.0482, 38522.13
299.5304, 39930.93
300.0125, 41307.93
300.4946, 42318.16
300.9767, 43006.68
301.4588, 43347.51
301.9409, 43265.46
302.4231, 42794.34
302.9052, 42071.25
303.3873, 41198.83
303.8694, 40146.84
304.3515, 39203.01
304.8336, 38334.57
305.3158, 37607.27
305.7979, 37055.97
306.2800, 36663.82
306.7621, 36399.98
307.2442, 36249.93
307.7263, 36207.00
308.2085, 36266.08
308.6906, 36613.65
309.1727, 36750.07
309.6548, 36686.22
310.1369, 36335.95
310.6190, 35600.00
311.1012, 34436.13
311.5833, 32926.37
312.0654, 31112.55
312.5475, 28932.67
313.0296, 26777.22
313.5117, 24656.29
313.9939, 22651.04
314.4760, 20795.38
314.9581, 19101.04
315.4402, 17583.07
315.9223, 16268.24
316.4044, 15146.64
316.8866, 14155.48
317.3687, 13282.39
317.8508, 12562.02
318.3329, 12027.83
318.8150, 11652.28
319.2971, 11376.69
319.7793, 11176.51
320.2614, 11061.98
320.7435, 11055.97
321.2256, 11162.46
321.7077, 11331.53
322.1898, 11540.79
322.6720, 11795.80
323.1541, 12094.59
323.6362, 12453.29
324.1183, 12833.72
324.6004, 13228.81
325.0826, 13629.73
325.5647, 14017.74
326.0468, 14387.06
326.5289, 14734.36
327.0110, 15063.87
327.4931, 15418.88
327.9753, 15644.77
328.4574, 15744.99
328.9395, 15685.69
329.4216, 15417.41
329.9037, 14935.65
330.3858, 14288.25
330.8680, 13507.11
331.3501, 12564.79
331.8322, 11649.25
332.3143, 10720.34
332.7964, 9856.193
333.2785, 9081.878
333.7606, 8401.966
334.2427, 7827.515
334.7249, 7369.512
335.2070, 7013.457
335.6891, 6693.716
336.1712, 6412.752
336.6533, 6168.453
337.1354, 5971.326
337.6176, 5804.869
338.0997, 5652.809
338.5818, 5510.312
339.0639, 5379.227
339.5460, 5262.517
340.0281, 5156.624
340.5103, 5076.857
340.9924, 5050.888
341.4745, 5029.593
341.9566, 4988.061
342.4387, 4927.417
342.9208, 4863.677
343.4030, 4805.620
343.8851, 4754.004
344.3672, 4718.233
344.8493, 4709.547
345.3314, 4695.807
345.8135, 4653.285
346.2957, 4597.190
346.7778, 4550.976
347.2599, 4525.056
347.7420, 4508.148
348.2241, 4488.031
348.7062, 4464.841
349.1884, 4441.839
349.6705, 4420.935
350.1526, 4400.136
350.6347, 4376.590
351.1168, 4350.166
351.5989, 4321.898
352.0811, 4289.911
352.5632, 4256.939
353.0453, 4227.556
353.5274, 4202.606
354.0095, 4181.318
354.4916, 4163.798
354.9738, 4150.752
355.4559, 4133.867
355.9380, 4110.985
356.4201, 4086.071
356.9022, 4062.727
357.3843, 4039.557
357.8665, 4010.310
358.3486, 3969.839
358.8307, 3922.379
359.3128, 3886.608
359.7949, 3870.709
360.2770, 3856.509
360.7592, 3843.799
361.2413, 3831.364
361.7234, 3818.583
362.2055, 3805.105
362.6876, 3789.997
363.1697, 3773.005
363.6519, 3756.047
364.1340, 3729.811
364.6161, 3677.600
365.0982, 3631.532
365.5803, 3608.394
366.0624, 3603.150
366.5446, 3600.653
367.0267, 3592.134
367.5088, 3578.470
367.9909, 3561.929
368.4730, 3542.089
368.9551, 3520.774
369.4373, 3496.058
369.9194, 3471.680
370.4015, 3451.866
370.8836, 3438.449
371.3657, 3426.466
371.8478, 3409.649
372.3300, 3389.482
372.8121, 3375.890
373.2942, 3372.693
373.7763, 3373.900
374.2584, 3374.903
374.7405, 3375.671
375.2227, 3371.413
375.7048, 3350.501
376.1869, 3330.348
376.6690, 3332.262
377.1511, 3355.693
377.6332, 3381.905
378.1154, 3399.749
378.5975, 3409.942
379.0796, 3416.657
379.5617, 3420.330
380.0438, 3420.708
380.5259, 3411.639
381.0081, 3401.294
381.4902, 3402.304
381.9723, 3418.391
382.4544, 3440.748
382.9365, 3456.033
383.4186, 3461.329
383.9008, 3467.426
384.3829, 3482.753
384.8650, 3491.177
385.3471, 3478.310
385.8292, 3450.873
386.3113, 3428.577
386.7935, 3427.108
387.2756, 3440.120
387.7577, 3440.672
388.2398, 3424.355
388.7219, 3404.200
389.2040, 3378.531
389.6862, 3354.222
390.1683, 3340.259
390.6504, 3339.633
391.1325, 3339.342
391.6146, 3326.796
392.0967, 3303.255
392.5789, 3277.773
393.0610, 3251.246
393.5431, 3224.240
394.0252, 3191.260
394.5073, 3155.501
394.9894, 3136.829
395.4716, 3156.064
395.9537, 3183.382
396.4358, 3190.771
396.9179, 3179.341
397.4000, 3161.051
397.8821, 3139.605
398.3643, 3118.513
398.8464, 3110.432
399.3285, 3129.385
399.8106, 3138.026
400.2927, 3117.682
400.7748, 3091.027
401.2570, 3084.696
401.7391, 3102.236
402.2212, 3125.362
402.7033, 3133.720
403.1854, 3125.171
403.6675, 3119.284
404.1497, 3117.074
404.6317, 3116.509
405.1139, 3118.567
405.5960, 3121.587
406.0781, 3123.417
406.5602, 3123.209
407.0423, 3120.501
407.5244, 3113.018
408.0066, 3098.817
408.4887, 3088.645
408.9708, 3088.622
409.4529, 3090.462
409.9350, 3086.336
410.4171, 3076.722
410.8993, 3071.551
411.3814, 3082.270
411.8635, 3100.074
412.3456, 3107.009
412.8277, 3101.513
413.3098, 3089.554
413.7920, 3071.700
414.2741, 3050.613
414.7562, 3035.698
415.2383, 3029.835
415.7204, 3026.443
416.2025, 3020.739
416.6847, 3016.134
417.1668, 3020.903
417.6489, 3037.512
418.1310, 3055.621
418.6131, 3059.942
419.0952, 3043.631
419.5774, 3039.266
420.0595, 3055.241
420.5416, 3073.194
421.0237, 3086.422
421.5058, 3094.622
421.9879, 3097.873
422.4701, 3095.302
422.9522, 3091.021
423.4343, 3097.254
423.9164, 3117.913
424.3985, 3139.644
424.8806, 3164.319
425.3628, 3185.982
425.8449, 3197.632
426.3270, 3199.670
426.8091, 3203.240
427.2912, 3224.037
427.7733, 3252.628
428.2555, 3257.885
428.7376, 3234.024
429.2197, 3204.023
429.7018, 3179.103
430.1839, 3159.318
430.6660, 3144.651
431.1482, 3142.232
431.6303, 3135.040
432.1124, 3111.799
432.5945, 3078.035
433.0766, 3042.780
433.5587, 3008.350
434.0409, 2976.708
434.5230, 2951.065
435.0051, 2934.046
435.4872, 2911.829
435.9693, 2874.481
436.4514, 2842.158
436.9336, 2827.851
437.4157, 2825.500
437.8978, 2822.236
438.3799, 2811.168
438.8620, 2795.219
439.3441, 2781.238
439.8263, 2769.118
440.3084, 2759.125
440.7905, 2750.620
441.2726, 2744.852
441.7547, 2744.178
442.2368, 2747.874
442.7190, 2751.127
443.2011, 2750.380
443.6832, 2747.099
444.1653, 2745.167
444.6474, 2745.114
445.1295, 2742.906
445.6117, 2735.614
446.0938, 2724.934
446.5759, 2714.788
447.0580, 2703.357
447.5401, 2696.279
448.0222, 2696.214
448.5044, 2701.557
448.9865, 2712.414
449.4686, 2728.146
449.9507, 2742.058
450.4328, 2746.802
450.9149, 2741.673
451.3971, 2740.172
451.8792, 2744.761
452.3613, 2749.902
452.8434, 2756.580
453.3255, 2762.061
453.8076, 2761.089
454.2898, 2751.919
454.7719, 2742.032
455.2540, 2744.247
455.7361, 2760.626
456.2182, 2770.886
456.7003, 2770.794
457.1825, 2767.219
457.6646, 2763.863
458.1467, 2760.585
458.6288, 2756.832
459.1109, 2751.309
459.5930, 2746.277
460.0752, 2744.754
460.5573, 2746.317
461.0394, 2748.234
461.5215, 2749.699
462.0036, 2750.704
462.4857, 2750.751
462.9679, 2748.876
463.4500, 2749.920
463.9321, 2760.533
464.4142, 2769.175
464.8963, 2766.203
465.3784, 2753.522
465.8606, 2738.244
466.3427, 2724.090
466.8248, 2712.774
467.3069, 2710.678
467.7890, 2722.039
468.2711, 2735.049
468.7533, 2753.321
469.2354, 2768.930
469.7175, 2775.455
470.1996, 2773.087
470.6817, 2767.092
471.1638, 2761.765
471.6460, 2755.763
472.1281, 2742.330
472.6102, 2718.568
473.0923, 2703.218
473.5744, 2711.686
474.0565, 2731.639
474.5387, 2736.940
475.0208, 2721.087
475.5029, 2707.622
475.9850, 2705.653
476.4671, 2711.222
476.9492, 2721.435
477.4313, 2735.011
477.9135, 2747.998
478.3956, 2758.083
478.8777, 2764.786
479.3598, 2759.497
479.8419, 2721.961
480.3240, 2696.783
480.8062, 2697.471
481.2883, 2709.597
481.7704, 2719.938
482.2525, 2724.905
482.7346, 2726.258
483.2167, 2723.716
483.6989, 2717.871
484.1810, 2718.253
484.6631, 2727.927
485.1452, 2737.814
485.6273, 2744.193
486.1094, 2747.103
486.5916, 2745.311
487.0737, 2735.527
487.5558, 2727.519
488.0379, 2729.667
488.5200, 2737.458
489.0021, 2741.003
489.4843, 2738.108
489.9664, 2734.577
490.4485, 2735.834
490.9306, 2742.008
491.4127, 2751.410
491.8948, 2768.533
492.3770, 2783.257
492.8591, 2792.709
493.3412, 2798.184
493.8233, 2801.131
494.3054, 2802.104
494.7875, 2801.625
495.2697, 2799.005
495.7518, 2793.919
496.2339, 2794.785
496.7160, 2807.534
497.1981, 2817.355
497.6802, 2810.949
498.1624, 2797.402
498.6445, 2793.077
499.1266, 2804.645
499.6087, 2820.869
500.0908, 2834.932
500.5729, 2846.981
501.0551, 2858.454
501.5372, 2870.073
502.0193, 2876.734
502.5014, 2871.262
502.9835, 2851.965
503.4656, 2843.647
503.9478, 2853.575
504.4299, 2864.576
504.9120, 2870.385
505.3941, 2874.292
505.8762, 2882.557
506.3583, 2896.788
506.8405, 2910.485
507.3226, 2914.543
507.8047, 2908.520
508.2868, 2901.799
508.7689, 2894.543
509.2510, 2886.721
509.7332, 2871.816
510.2153, 2857.717
510.6974, 2861.059
511.1795, 2895.988
511.6616, 2926.935
512.1437, 2918.761
512.6259, 2888.608
513.1080, 2878.082
513.5901, 2896.549
514.0722, 2921.033
514.5543, 2929.877
515.0364, 2922.574
515.5186, 2915.279
516.0007, 2906.308
516.4828, 2899.288
516.9649, 2895.632
517.4470, 2894.163
517.9291, 2894.208
518.4113, 2895.307
518.8934, 2895.812
519.3755, 2892.758
519.8576, 2886.417
520.3397, 2884.714
520.8218, 2890.821
521.3040, 2894.941
521.7861, 2888.897
522.2682, 2878.612
522.7503, 2873.078
523.2324, 2875.809
523.7145, 2876.709
524.1967, 2869.212
524.6788, 2856.986
525.1609, 2843.753
525.6430, 2830.623
526.1251, 2822.732
526.6072, 2825.414
527.0894, 2836.905
527.5715, 2840.871
528.0536, 2831.715
528.5357, 2821.710
529.0178, 2815.135
529.4999, 2806.193
529.9821, 2785.627
530.4642, 2754.986
530.9463, 2729.605
531.4284, 2726.266
531.9105, 2737.279
532.3926, 2734.412
532.8748, 2714.372
533.3569, 2699.433
533.8390, 2701.829
534.3211, 2712.705
534.8032, 2717.682
535.2853, 2716.522
535.7675, 2711.188
536.2496, 2697.731
536.7317, 2683.607
537.2138, 2675.858
537.6959, 2673.948
538.1780, 2674.020
538.6602, 2674.240
539.1423, 2673.060
539.6244, 2664.643
540.1065, 2640.532
540.5886, 2628.778
541.0707, 2643.846
541.5529, 2660.677
542.0350, 2666.500
542.5171, 2662.676
542.9992, 2656.389
543.4813, 2650.721
543.9634, 2644.630
544.4456, 2634.596
544.9277, 2621.974
545.4098, 2616.199
545.8919, 2621.205
546.3740, 2630.315
546.8561, 2636.455
547.3383, 2639.519
547.8204, 2638.190
548.3025, 2629.005
548.7846, 2619.265
549.2667, 2607.563
549.7488, 2598.816
550.2310, 2602.594
550.7131, 2621.325
551.1952, 2642.652
551.6773, 2648.876
552.1594, 2639.842
552.6415, 2637.682
553.1237, 2647.301
553.6058, 2655.144
554.0879, 2651.476
554.5700, 2642.315
555.0521, 2635.634
555.5342, 2631.789
556.0164, 2632.227
556.4985, 2639.947
556.9806, 2651.295
557.4627, 2664.111
557.9448, 2676.755
558.4269, 2681.348
558.9091, 2670.671
559.3912, 2648.769
559.8733, 2635.739
560.3554, 2637.714
560.8375, 2638.331
561.3196, 2639.027
561.8018, 2635.667
562.2839, 2620.634
562.7660, 2597.498
563.2481, 2581.627
563.7302, 2584.706
564.2123, 2597.690
564.6945, 2608.712
565.1766, 2617.500
565.6587, 2620.160
566.1408, 2613.786
566.6229, 2604.642
567.1050, 2600.083
567.5872, 2600.492
568.0693, 2605.352
568.5514, 2618.594
569.0335, 2632.087
569.5156, 2644.882
569.9977, 2654.670
570.4799, 2657.708
570.9620, 2652.961
571.4441, 2644.773
571.9262, 2637.651
572.4083, 2631.587
572.8904, 2627.544
573.3726, 2625.001
573.8547, 2625.719
574.3368, 2634.213
574.8189, 2645.238
575.3010, 2649.963
575.7831, 2646.346
576.2653, 2640.911
576.7474, 2635.172
577.2295, 2629.559
577.7116, 2623.724
578.1937, 2618.275
578.6758, 2616.153
579.1580, 2619.822
579.6401, 2626.199
580.1222, 2625.282
580.6042, 2612.275
581.0864, 2603.946
581.5685, 2606.773
582.0506, 2610.444
582.5327, 2609.374
583.0148, 2604.772
583.4969, 2600.801
583.9791, 2599.115
584.4612, 2598.580
584.9433, 2597.745
585.4254, 2597.181
585.9075, 2599.241
586.3896, 2604.627
586.8718, 2609.878
587.3539, 2611.374
587.8360, 2609.167
588.3181, 2608.203
588.8002, 2611.274
589.2823, 2612.107
589.7645, 2608.591
590.2466, 2603.199
590.7287, 2597.398
591.2108, 2591.830
591.6929, 2588.035
592.1750, 2587.939
592.6572, 2590.082
593.1393, 2591.391
593.6214, 2591.860
594.1035, 2592.136
594.5856, 2592.887
595.0677, 2592.724
595.5499, 2589.184
596.0320, 2581.120
596.5141, 2574.529
596.9962, 2565.998
597.4783, 2562.641
597.9604, 2575.276
598.4426, 2592.782
598.9247, 2596.398
599.4068, 2580.254
599.8889, 2558.383
600.3710, 2544.840
600.8531, 2539.677
601.3353, 2545.385
601.8174, 2566.503
602.2995, 2583.780
602.7816, 2587.620
603.2637, 2581.139
603.7458, 2569.381
604.2280, 2546.897
604.7101, 2536.143
605.1922, 2549.826
605.6743, 2571.255
606.1564, 2590.695
606.6385, 2605.918
607.1207, 2614.728
607.6028, 2615.908
608.0849, 2611.872
608.5670, 2606.102
609.0491, 2598.010
609.5313, 2592.276
610.0134, 2588.228
610.4955, 2588.180
610.9776, 2598.518
611.4597, 2612.979
611.9418, 2618.587
612.4240, 2609.155
612.9061, 2600.204
613.3882, 2599.454
613.8703, 2602.598
614.3524, 2606.627
614.8345, 2609.896
615.3167, 2606.936
615.7988, 2592.744
616.2809, 2573.820
616.7630, 2572.016
617.2451, 2595.692
617.7272, 2609.679
618.2094, 2599.839
618.6915, 2589.714
619.1736, 2600.248
619.6557, 2622.241
620.1378, 2627.462
620.6199, 2597.446
621.1021, 2565.595
621.5842, 2553.908
622.0663, 2555.036
622.5484, 2558.126
623.0305, 2560.692
623.5126, 2561.687
623.9948, 2559.676
624.4769, 2555.970
624.9590, 2558.521
625.4411, 2573.291
625.9232, 2581.797
626.4053, 2577.302
626.8875, 2568.905
627.3696, 2559.735
627.8517, 2551.118
628.3338, 2546.837
628.8159, 2550.414
629.2980, 2556.434
629.7802, 2563.225
630.2623, 2568.600
630.7444, 2566.178
631.2265, 2554.875
631.7086, 2542.493
632.1907, 2536.416
632.6729, 2535.935
633.1550, 2533.033
633.6371, 2522.732
634.1192, 2518.863
634.6013, 2530.788
635.0834, 2544.138
635.5656, 2547.963
636.0477, 2542.928
636.5298, 2536.948
637.0119, 2533.978
637.4940, 2530.983
637.9761, 2524.217
638.4583, 2515.187
638.9404, 2507.283
639.4225, 2501.416
639.9046, 2498.709
640.3867, 2501.480
640.8688, 2509.013
641.3510, 2507.773
641.8331, 2490.727
642.3152, 2476.621
642.7973, 2469.173
643.2794, 2465.665
643.7615, 2463.590
644.2437, 2463.247
644.7258, 2467.566
645.2079, 2485.146
645.6900, 2501.773
646.1721, 2501.269
646.6542, 2489.316
647.1364, 2479.353
647.6185, 2475.051
648.1006, 2475.681
648.5827, 2482.280
649.0648, 2493.815
649.5469, 2491.112
650.0291, 2460.007
650.5112, 2439.760
650.9933, 2448.587
651.4754, 2463.173
651.9575, 2465.548
652.4396, 2456.280
652.9218, 2447.840
653.4039, 2447.500
653.8860, 2448.135
654.3681, 2443.653
654.8502, 2435.608
655.3323, 2426.786
655.8145, 2418.066
656.2966, 2410.375
656.7787, 2404.056
657.2608, 2399.615
657.7429, 2403.200
658.2250, 2420.910
658.7072, 2433.574
659.1893, 2436.397
659.6714, 2432.956
660.1535, 2421.848
660.6356, 2405.211
661.1177, 2394.736
661.5999, 2401.398
662.0820, 2407.972
662.5641, 2399.129
663.0462, 2383.380
663.5283, 2377.144
664.0104, 2382.660
664.4926, 2387.842
664.9747, 2381.619
665.4568, 2366.583
665.9389, 2355.343
666.4210, 2348.743
666.9031, 2343.007
667.3853, 2335.766
667.8674, 2330.947
668.3495, 2334.056
668.8316, 2342.867
669.3137, 2347.162
669.7958, 2339.447
670.2780, 2333.320
670.7601, 2338.103
671.2422, 2346.392
671.7243, 2348.905
672.2064, 2344.813
672.6885, 2338.327
673.1707, 2331.832
673.6528, 2326.716
674.1349, 2328.202
674.6170, 2337.372
675.0991, 2342.701
675.5812, 2341.967
676.0634, 2337.282
676.5455, 2328.263
677.0276, 2316.326
677.5097, 2307.997
677.9918, 2305.402
678.4739, 2303.634
678.9561, 2303.933
679.4382, 2302.706
679.9203, 2294.209
680.4024, 2280.954
680.8845, 2270.844
681.3666, 2267.677
681.8488, 2271.915
682.3309, 2290.822
682.8130, 2321.193
683.2951, 2330.340
683.7772, 2310.333
684.2593, 2289.223
684.7415, 2285.087
685.2236, 2293.909
685.7057, 2302.534
686.1878, 2318.374
686.6699, 2321.170
687.1520, 2295.627
687.6342, 2271.376
688.1163, 2266.697
688.5984, 2275.663
689.0805, 2285.521
689.5626, 2292.027
690.0447, 2296.151
690.5269, 2299.483
691.0090, 2300.933
691.4911, 2295.491
691.9732, 2283.732
692.4553, 2278.324
692.9374, 2287.160
693.4196, 2300.512
693.9017, 2298.231
694.3838, 2272.563
694.8659, 2259.844
695.3480, 2267.080
695.8301, 2279.469
696.3123, 2301.735
696.7944, 2321.644
697.2765, 2320.001
697.7586, 2292.928
698.2407, 2272.530
698.7228, 2283.866
699.2050, 2302.247
699.6871, 2301.845
700.1692, 2287.721
700.6513, 2275.934
701.1334, 2271.817
701.6155, 2269.423
702.0977, 2260.107
702.5798, 2245.173
703.0619, 2245.205
703.5440, 2266.224
704.0261, 2283.931
704.5082, 2291.149
704.9904, 2291.943
705.4725, 2288.729
705.9546, 2281.940
706.4367, 2278.057
706.9188, 2279.555
707.4009, 2282.222
707.8831, 2286.444
708.3652, 2289.646
708.8473, 2288.956
709.3294, 2284.139
709.8115, 2276.024
710.2936, 2263.575
710.7758, 2251.203
711.2579, 2248.354
711.7400, 2254.195
712.2221, 2260.736
712.7042, 2267.216
713.1863, 2270.368
713.6685, 2266.558
714.1506, 2257.664
714.6327, 2252.848
715.1148, 2253.023
715.5969, 2256.108
716.0790, 2264.970
716.5612, 2273.829
717.0433, 2278.271
717.5254, 2280.517
718.0075, 2286.745
718.4896, 2300.698
718.9717, 2310.526
719.4539, 2303.495
719.9360, 2288.863
720.4181, 2280.617
720.9002, 2278.816
721.3823, 2277.881
721.8644, 2275.258
722.3465, 2270.773
722.8286, 2262.203
723.3107, 2248.049
723.7928, 2246.610
724.2750, 2264.359
724.7571, 2281.021
725.2392, 2292.135
725.7213, 2295.495
726.2034, 2285.493
726.6855, 2260.664
727.1677, 2243.590
727.6498, 2244.460
728.1319, 2247.091
728.6140, 2242.124
729.0961, 2234.469
729.5782, 2231.582
730.0604, 2234.286
730.5425, 2237.188
731.0246, 2234.994
731.5067, 2231.606
731.9888, 2237.447
732.4709, 2250.766
732.9531, 2254.948
733.4352, 2245.135
733.9173, 2234.470
734.3994, 2233.820
734.8815, 2241.981
735.3636, 2252.777
735.8458, 2275.754
736.3279, 2284.254
736.8100, 2264.574
737.2921, 2242.599
737.7742, 2229.594
738.2563, 2225.097
738.7385, 2227.969
739.2206, 2240.397
739.7027, 2251.379
740.1848, 2254.706
740.6669, 2253.370
741.1490, 2255.965
741.6312, 2257.047
742.1133, 2232.955
742.5954, 2173.929
743.0775, 2115.744
743.5596, 2114.427
744.0417, 2164.290
744.5239, 2192.458
745.0060, 2194.551
745.4881, 2200.269
745.9702, 2224.168
746.4523, 2251.078
746.9344, 2260.610
747.4166, 2250.802
747.8987, 2242.491
748.3808, 2233.772
748.8629, 2228.870
749.3450, 2233.943
749.8271, 2239.455
750.3093, 2234.237
750.7914, 2220.382
751.2735, 2211.149
751.7556, 2214.282
752.2377, 2221.958
752.7198, 2228.217
753.2020, 2233.293
753.6841, 2238.057
754.1662, 2242.333
754.6483, 2244.452
755.1304, 2243.314
755.6125, 2239.619
756.0947, 2234.572
756.5768, 2228.007
757.0589, 2221.119
757.5410, 2212.008
758.0231, 2207.475
758.5052, 2214.050
758.9874, 2225.413
759.4695, 2229.088
759.9516, 2223.244
760.4337, 2219.618
760.9158, 2220.681
761.3979, 2222.419
761.8801, 2223.956
762.3622, 2224.743
762.8443, 2224.371
763.3264, 2222.721
763.8085, 2219.703
764.2906, 2216.286
764.7728, 2210.530
765.2549, 2196.737
765.7370, 2178.952
766.2191, 2167.311
766.7012, 2164.027
767.1833, 2170.422
767.6655, 2189.951
768.1476, 2214.371
768.6297, 2212.628
769.1118, 2175.960
769.5939, 2163.193
770.0760, 2190.901
770.5582, 2221.862
771.0403, 2235.483
771.5224, 2236.667
772.0045, 2236.743
772.4866, 2235.488
772.9688, 2233.859
773.4509, 2232.393
773.9330, 2230.098
774.4151, 2228.727
774.8972, 2225.129
775.3793, 2209.335
775.8615, 2181.830
776.3436, 2167.524
776.8257, 2196.488
777.3078, 2237.929
777.7899, 2254.939
778.2720, 2252.599
778.7542, 2242.013
779.2363, 2226.701
779.7184, 2212.781
780.2005, 2205.326
780.6826, 2203.089
781.1647, 2201.112
781.6469, 2198.416
782.1290, 2204.928
782.6111, 2228.021
783.0932, 2246.016
783.5753, 2243.732
784.0574, 2227.206
784.5396, 2210.684
785.0217, 2188.894
785.5038, 2180.497
785.9859, 2199.188
786.4680, 2217.002
786.9501, 2220.572
787.4323, 2216.669
787.9144, 2214.316
788.3965, 2215.255
788.8786, 2216.961
789.3607, 2219.497
789.8428, 2220.869
790.3250, 2216.538
790.8071, 2210.419
791.2892, 2213.671
791.7713, 2226.054
792.2534, 2230.520
792.7355, 2211.834
793.2177, 2183.650
793.6998, 2181.302
794.1819, 2204.129
794.6640, 2218.209
795.1461, 2218.964
795.6282, 2212.916
796.1104, 2200.427
796.5925, 2187.902
797.0746, 2191.209
797.5567, 2220.901
798.0388, 2233.435
798.5209, 2213.418
799.0031, 2194.485
799.4852, 2183.891
799.9673, 2180.085
800.4494, 2183.730
800.9315, 2193.964
801.4136, 2201.129
801.8958, 2199.927
802.3779, 2197.295
802.8600, 2197.050
803.3421, 2197.680
803.8242, 2196.192
804.3063, 2193.445
804.7885, 2194.600
805.2706, 2203.544
805.7527, 2212.842
806.2348, 2210.614
806.7169, 2200.703
807.1990, 2195.150
807.6812, 2194.787
808.1633, 2196.117
808.6454, 2197.682
809.1275, 2198.865
809.6096, 2197.840
810.0917, 2194.293
810.5739, 2199.311
811.0560, 2218.694
811.5381, 2231.185
812.0202, 2228.292
812.5023, 2219.316
812.9844, 2211.561
813.4666, 2205.265
813.9487, 2202.181
814.4308, 2207.206
814.9129, 2208.650
815.3950, 2200.702
815.8771, 2192.222
816.3593, 2189.310
816.8414, 2190.562
817.3235, 2192.610
817.8056, 2194.727
818.2877, 2195.063
818.7698, 2190.835
819.2520, 2185.393
819.7341, 2182.100
820.2162, 2180.722
820.6983, 2180.548
821.1804, 2181.231
821.6625, 2182.314
822.1447, 2184.356
822.6268, 2185.329
823.1089, 2178.077
823.5910, 2163.469
824.0731, 2152.242
824.5552, 2146.101
825.0374, 2146.289
825.5195, 2154.947
826.0016, 2168.496
826.4837, 2177.351
826.9658, 2180.181
827.4479, 2182.545
827.9301, 2184.944
828.4122, 2186.062
828.8943, 2184.223
829.3764, 2181.524
829.8585, 2180.045
830.3406, 2179.780
830.8228, 2181.969
831.3049, 2193.677
831.7870, 2199.053
832.2691, 2187.399
832.7512, 2171.443
833.2333, 2161.175
833.7155, 2157.290
834.1976, 2157.697
834.6797, 2162.445
835.1618, 2168.171
835.6439, 2171.967
836.1260, 2175.473
836.6082, 2185.014
837.0903, 2196.041
837.5724, 2191.022
838.0545, 2165.037
838.5366, 2141.805
839.0187, 2153.100
839.5009, 2183.720
839.9830, 2178.690
840.4651, 2141.740
840.9472, 2125.192
841.4293, 2142.251
841.9114, 2165.638
842.3936, 2174.874
842.8757, 2172.469
843.3578, 2165.667
843.8399, 2152.393
844.3220, 2141.504
844.8041, 2131.000
845.2863, 2127.455
845.7684, 2138.204
846.2505, 2154.842
846.7326, 2163.903
847.2147, 2164.500
847.6968, 2167.043
848.1790, 2175.807
848.6611, 2181.574
849.1432, 2178.177
849.6253, 2173.727
850.1074, 2176.174
850.5895, 2183.885
851.0717, 2190.022
851.5538, 2193.142
852.0359, 2192.166
852.5180, 2184.526
853.0001, 2174.120
853.4822, 2164.239
853.9644, 2154.808
854.4465, 2142.726
854.9286, 2127.853
855.4107, 2119.264
855.8928, 2128.867
856.3749, 2146.904
856.8571, 2157.463
857.3392, 2161.468
857.8213, 2160.686
858.3034, 2155.891
858.7855, 2151.080
859.2676, 2148.833
859.7498, 2148.999
860.2319, 2153.066
860.7140, 2161.236
861.1961, 2159.899
861.6782, 2146.021
862.1603, 2136.891
862.6425, 2141.512
863.1245, 2149.731
863.6066, 2147.303
864.0887, 2134.054
864.5709, 2128.348
865.0530, 2133.991
865.5351, 2140.190
866.0172, 2148.911
866.4993, 2153.977
866.9814, 2146.949
867.4636, 2134.135
867.9457, 2131.034
868.4278, 2141.958
868.9099, 2153.252
869.3920, 2169.297
869.8741, 2177.609
870.3563, 2163.369
870.8384, 2143.058
871.3205, 2137.836
871.8026, 2149.110
872.2847, 2161.929
872.7668, 2174.795
873.2490, 2180.015
873.7311, 2164.455
874.2132, 2143.586
874.6953, 2138.061
875.1774, 2144.886
875.6595, 2147.442
876.1417, 2138.673
876.6238, 2132.482
877.1059, 2149.851
877.5880, 2176.275
878.0701, 2182.324
878.5522, 2172.330
879.0344, 2164.387
879.5165, 2163.013
879.9986, 2163.781
880.4807, 2163.787
880.9628, 2161.597
881.4449, 2150.599
881.9271, 2131.556
882.4092, 2125.478
882.8913, 2135.685
883.3734, 2143.959
883.8555, 2141.266
884.3376, 2133.978
884.8198, 2132.114
885.3019, 2135.869
885.7840, 2129.794
886.2661, 2105.604
886.7482, 2094.575
887.2303, 2108.751
887.7125, 2129.114
888.1946, 2144.633
888.6767, 2154.663
889.1588, 2156.805
889.6409, 2148.396
890.1230, 2137.547
890.6052, 2113.360
891.0873, 2099.783
891.5694, 2114.630
892.0515, 2138.125
892.5336, 2149.840
893.0157, 2148.721
893.4979, 2143.686
893.9800, 2133.113
894.4621, 2123.975
894.9442, 2115.688
895.4263, 2112.379
895.9084, 2122.944
896.3906, 2139.701
896.8727, 2146.957
897.3548, 2140.064
897.8369, 2128.368
898.3190, 2110.821
898.8011, 2097.563
899.2833, 2100.558
899.7654, 2112.902
900.2475, 2125.752
900.7296, 2136.059
901.2117, 2140.301
901.6938, 2135.696
902.1760, 2127.825
902.6581, 2121.788
903.1402, 2118.051
903.6223, 2117.106
904.1044, 2119.277
904.5865, 2127.669
905.0687, 2142.778
905.5508, 2155.330
906.0329, 2156.061
906.5150, 2147.821
906.9971, 2135.685
907.4792, 2120.630
907.9614, 2113.415
908.4435, 2115.647
908.9256, 2116.816
909.4077, 2110.700
909.8898, 2102.439
910.3719, 2100.304
910.8541, 2104.267
911.3362, 2113.923
911.8183, 2133.129
912.3004, 2135.357
912.7825, 2105.554
913.2646, 2081.166
913.7468, 2096.808
914.2289, 2139.555
914.7110, 2163.473
915.1931, 2164.802
915.6752, 2156.669
916.1573, 2134.213
916.6395, 2110.397
917.1216, 2084.774
917.6037, 2064.628
918.0858, 2060.997
918.5679, 2073.384
919.0500, 2081.241
919.5322, 2075.988
920.0143, 2078.880
920.4964, 2104.989
920.9785, 2125.791
921.4606, 2119.090
921.9427, 2099.672
922.4249, 2094.060
922.9070, 2106.628
923.3891, 2113.577
923.8712, 2103.788
924.3533, 2094.922
924.8354, 2093.665
925.3176, 2096.453
925.7997, 2103.271
926.2818, 2110.860
926.7639, 2110.094
927.2460, 2095.491
927.7281, 2085.740
928.2103, 2097.082
928.6924, 2109.530
929.1745, 2105.238
929.6566, 2093.633
930.1387, 2088.571
930.6208, 2091.811
931.1030, 2097.709
931.5851, 2103.642
932.0672, 2110.593
932.5493, 2122.979
933.0314, 2134.244
933.5135, 2134.818
933.9957, 2127.389
934.4778, 2119.102
934.9599, 2112.436
935.4420, 2107.419
935.9241, 2104.445
936.4063, 2102.663
936.8884, 2101.154
937.3705, 2099.836
937.8526, 2099.202
938.3347, 2098.728
938.8168, 2094.757
939.2990, 2085.664
939.7811, 2079.010
940.2632, 2087.354
940.7453, 2103.407
941.2274, 2107.579
941.7095, 2101.673
942.1917, 2092.399
942.6738, 2081.674
943.1559, 2074.385
943.6380, 2074.045
944.1201, 2076.644
944.6022, 2073.713
945.0844, 2066.828
945.5665, 2068.910
946.0486, 2079.866
946.5307, 2087.032
947.0128, 2086.585
947.4949, 2085.163
947.9771, 2088.430
948.4592, 2094.817
948.9413, 2101.133
949.4234, 2107.676
949.9055, 2105.644
950.3876, 2093.467
950.8698, 2078.276
951.3519, 2059.521
951.8340, 2052.092
952.3161, 2077.550
952.7982, 2127.402
953.2803, 2145.164
953.7625, 2124.145
954.2446, 2100.514
954.7267, 2073.503
955.2088, 2057.141
955.6909, 2061.939
956.1730, 2074.907
956.6552, 2076.333
957.1373, 2066.080
957.6194, 2063.276
958.1015, 2068.789
958.5836, 2080.698
959.0657, 2105.508
959.5479, 2124.800
960.0300, 2127.052
960.5121, 2116.884
960.9942, 2101.762
961.4763, 2079.483
961.9584, 2065.242
962.4406, 2059.013
962.9227, 2061.256
963.4048, 2081.724
963.8869, 2099.636
964.3690, 2096.074
964.8511, 2079.279
965.3333, 2073.326
965.8154, 2084.473
966.2975, 2088.556
966.7796, 2074.331
967.2617, 2067.821
967.7438, 2087.888
968.2260, 2107.811
968.7081, 2099.280
969.1902, 2070.918
969.6723, 2057.855
970.1544, 2069.642
970.6365, 2080.000
971.1187, 2090.596
971.6008, 2094.874
972.0829, 2085.472
972.5650, 2072.136
973.0471, 2065.358
973.5292, 2064.389
974.0114, 2061.408
974.4935, 2051.524
974.9756, 2046.409
975.4577, 2050.955
975.9398, 2057.434
976.4219, 2060.450
976.9041, 2064.106
977.3862, 2076.127
977.8683, 2095.587
978.3504, 2108.355
978.8325, 2109.395
979.3146, 2106.140
979.7968, 2096.455
980.2789, 2087.143
980.7610, 2086.124
981.2431, 2086.375
981.7252, 2073.352
982.2073, 2046.592
982.6895, 2032.120
983.1716, 2046.229
983.6537, 2061.679
984.1358, 2071.871
984.6179, 2077.442
985.1000, 2077.962
985.5822, 2074.698
986.0643, 2068.574
986.5464, 2059.863
987.0285, 2053.209
987.5106, 2051.593
987.9927, 2050.658
988.4749, 2052.538
988.9570, 2050.724
989.4391, 2034.192
989.9212, 2011.475
990.4033, 1999.855
990.8854, 2003.158
991.3676, 2011.729
991.8497, 2024.561
992.3318, 2038.155
992.8139, 2053.087
993.2960, 2066.079
993.7781, 2074.850
994.2603, 2078.919
994.7424, 2076.502
995.2245, 2066.517
995.7066, 2059.656
996.1887, 2063.794
996.6708, 2068.540
997.1530, 2068.811
997.6351, 2066.320
998.1172, 2060.885
998.5993, 2054.663
999.0814, 2051.730
999.5635, 2053.020
1000.046, 2059.335
1000.528, 2079.888
1001.010, 2095.285
1001.492, 2088.356
1001.974, 2074.754
1002.456, 2071.851
1002.938, 2077.402
1003.420, 2079.814
1003.903, 2075.494
1004.385, 2069.779
1004.867, 2066.824
1005.349, 2061.254
1005.831, 2040.298
1006.313, 2022.077
1006.795, 2033.120
1007.277, 2064.469
1007.759, 2083.787
1008.242, 2079.563
1008.724, 2074.117
1009.206, 2081.659
1009.688, 2086.065
1010.170, 2069.644
1010.652, 2050.815
1011.134, 2054.539
1011.616, 2074.618
1012.099, 2084.629
1012.581, 2075.218
1013.063, 2065.026
1013.545, 2059.103
1014.027, 2057.918
1014.509, 2068.619
1014.991, 2079.005
1015.473, 2073.939
1015.955, 2056.710
1016.438, 2041.521
1016.920, 2032.289
1017.402, 2024.861
1017.884, 2014.813
1018.366, 2009.645
1018.848, 2017.548
1019.330, 2029.125
1019.812, 2038.675
1020.294, 2042.939
1020.777, 2032.876
1021.259, 1999.931
1021.741, 1979.643
1022.223, 1992.394
1022.705, 2009.616
1023.187, 2021.207
1023.669, 2027.788
1024.151, 2028.234
1024.634, 2024.990
1025.116, 2025.666
1025.598, 2034.231
1026.080, 2036.864
1026.562, 2017.751
1027.044, 2007.573
1027.526, 2032.347
1028.008, 2060.595
1028.490, 2057.501
1028.973, 2034.078
1029.455, 2029.487
1029.937, 2058.026
1030.419, 2071.719
1030.901, 2046.745
1031.383, 2025.940
1031.865, 2028.268
1032.347, 2036.503
1032.830, 2034.631
1033.312, 2027.175
1033.794, 2029.207
1034.276, 2046.418
1034.758, 2055.821
1035.240, 2047.918
1035.722, 2042.163
1036.204, 2044.641
1036.687, 2049.803
1037.169, 2055.892
1037.651, 2061.047
1038.133, 2060.223
1038.615, 2051.360
1039.097, 2044.440
1039.579, 2038.613
1040.061, 2036.030
1040.543, 2037.430
1041.026, 2041.977
1041.508, 2053.890
1041.990, 2066.150
1042.472, 2061.997
1042.954, 2037.152
1043.436, 2025.127
1043.918, 2032.173
1044.400, 2039.459
1044.882, 2044.812
1045.365, 2048.205
1045.847, 2049.394
1046.329, 2048.771
1046.811, 2046.874
1047.293, 2043.631
1047.775, 2040.021
1048.257, 2034.734
1048.739, 2033.046
1049.222, 2035.690
1049.704, 2042.884
1050.186, 2057.257
1050.668, 2071.149
1051.150, 2072.247
1051.632, 2061.520
1052.114, 2051.972
1052.596, 2042.784
1053.078, 2043.248
1053.561, 2057.616
1054.043, 2062.610
1054.525, 2045.414
1055.007, 2022.745
1055.489, 2015.733
1055.971, 2020.976
1056.453, 2022.128
1056.935, 2019.235
1057.417, 2017.732
1057.900, 2018.136
1058.382, 2018.241
1058.864, 2016.988
1059.346, 2018.834
1059.828, 2029.751
1060.310, 2044.188
1060.792, 2044.558
1061.274, 2034.520
1061.757, 2036.833
1062.239, 2050.635
1062.721, 2055.516
1063.203, 2045.557
1063.685, 2032.628
1064.167, 2026.038
1064.649, 2023.480
1065.131, 2021.167
1065.614, 2019.952
1066.096, 2022.089
1066.578, 2027.293
1067.060, 2037.013
1067.542, 2049.631
1068.024, 2053.142
1068.506, 2038.223
1068.988, 2022.043
1069.470, 2028.499
1069.953, 2042.479
1070.435, 2041.522
1070.917, 2031.497
1071.399, 2024.968
1071.881, 2023.358
1072.363, 2021.565
1072.845, 2017.258
1073.327, 2012.942
1073.809, 2009.431
1074.292, 2007.845
1074.774, 2012.553
1075.256, 2017.438
1075.738, 2011.506
1076.220, 1999.146
1076.702, 1995.318
1077.184, 2004.818
1077.666, 2014.536
1078.148, 2017.694
1078.631, 2020.638
1079.113, 2027.202
1079.595, 2034.269
1080.077, 2042.070
1080.559, 2047.183
1081.041, 2040.812
1081.523, 2021.528
1082.005, 2011.458
1082.488, 2023.980
1082.970, 2033.255
1083.452, 2032.288
1083.934, 2028.446
1084.416, 2021.982
1084.898, 2017.308
1085.380, 2022.772
1085.862, 2037.499
1086.344, 2044.409
1086.827, 2041.282
1087.309, 2034.203
1087.791, 2017.917
1088.273, 2007.666
1088.755, 2012.357
1089.237, 2019.659
1089.719, 2015.764
1090.201, 2005.794
1090.683, 2011.446
1091.166, 2039.892
1091.648, 2045.847
1092.130, 2022.572
1092.612, 2010.469
1093.094, 2022.093
1093.576, 2037.107
1094.058, 2041.432
1094.540, 2038.153
1095.023, 2030.979
1095.505, 2021.115
1095.987, 2022.526
1096.469, 2034.332
1096.951, 2044.984
1097.433, 2052.113
1097.915, 2051.316
1098.397, 2040.143
1098.880, 2024.712
1099.362, 2010.880
1099.844, 1999.474
1100.326, 1989.636
1100.808, 1984.433
1101.290, 1996.209
1101.772, 2020.596
1102.254, 2039.869
1102.736, 2047.657
1103.219, 2044.699
1103.701, 2025.763
1104.183, 2008.265
1104.665, 2014.359
1105.147, 2028.661
1105.629, 2032.977
1106.111, 2030.980
1106.593, 2032.954
1107.075, 2038.848
1107.558, 2037.598
1108.040, 2020.728
1108.522, 2009.473
1109.004, 2020.946
1109.486, 2033.131
1109.968, 2032.802
1110.450, 2026.433
1110.932, 2017.660
1111.415, 2009.589
1111.897, 2010.303
1112.379, 2023.905
1112.861, 2030.768
1113.343, 2021.940
1113.825, 2015.254
1114.307, 2017.220
1114.789, 2019.134
1115.271, 2014.702
1115.754, 2008.660
1116.236, 2008.717
1116.718, 2014.639
1117.200, 2017.927
1117.682, 2017.556
1118.164, 2018.424
1118.646, 2021.750
1119.128, 2023.022
1119.610, 2020.088
1120.093, 2015.976
1120.575, 2013.296
1121.057, 2012.354
1121.539, 2015.382
1122.021, 2021.738
1122.503, 2022.462
1122.985, 2017.757
1123.467, 2012.312
1123.950, 2007.428
1124.432, 2004.051
1124.914, 2002.736
1125.396, 2003.750
1125.878, 2008.795
1126.360, 2015.542
1126.842, 2020.361
1127.324, 2023.114
1127.807, 2022.708
1128.289, 2020.070
1128.771, 2018.152
1129.253, 2017.918
1129.735, 2018.061
1130.217, 2017.521
1130.699, 2017.356
1131.181, 2020.988
1131.663, 2022.754
1132.146, 2014.759
1132.628, 2002.972
1133.110, 1997.126
1133.592, 1997.358
1134.074, 1996.352
1134.556, 1989.883
1135.038, 1988.352
1135.520, 1997.247
1136.002, 2007.044
1136.485, 2015.576
1136.967, 2022.563
1137.449, 2028.408
1137.931, 2032.367
1138.413, 2032.257
1138.895, 2027.468
1139.377, 2025.756
1139.859, 2029.582
1140.342, 2027.722
1140.824, 2017.922
1141.306, 2003.879
1141.788, 1985.222
1142.270, 1971.853
1142.752, 1976.092
1143.234, 1993.505
1143.716, 2013.669
1144.198, 2034.676
1144.681, 2039.642
1145.163, 2029.970
1145.645, 2020.195
1146.127, 2014.265
1146.609, 2010.627
1147.091, 2008.456
1147.573, 2006.994
1148.055, 2003.699
1148.537, 2002.003
1149.020, 2009.391
1149.502, 2019.997
1149.984, 2023.029
1150.466, 2020.679
1150.948, 2023.147
1151.430, 2032.961
1151.912, 2039.138
1152.394, 2035.253
1152.877, 2028.200
1153.359, 2018.788
1153.841, 2009.332
1154.323, 2000.277
1154.805, 1992.835
1155.287, 1985.827
1155.769, 1981.004
1156.251, 1989.974
1156.734, 2023.997
1157.216, 2039.741
1157.698, 2029.959
1158.180, 2017.485
1158.662, 2005.841
1159.144, 1995.790
1159.626, 1987.089
1160.108, 1982.305
1160.590, 1987.077
1161.073, 1999.102
1161.555, 2003.872
1162.037, 2001.503
1162.519, 1988.127
1163.001, 1966.257
1163.483, 1969.880
1163.965, 2008.205
1164.447, 2041.383
1164.929, 2037.899
1165.412, 2018.925
1165.894, 2008.245
1166.376, 2003.010
1166.858, 1997.739
1167.340, 1995.501
1167.822, 2006.207
1168.304, 2025.214
1168.786, 2036.352
1169.269, 2034.528
1169.751, 2024.519
1170.233, 1996.516
1170.715, 1977.348
1171.197, 1985.684
1171.679, 1997.752
1172.161, 1992.941
1172.643, 1985.589
1173.125, 2001.994
1173.608, 2036.548
1174.090, 2049.070
1174.572, 2027.242
1175.054, 2020.757
1175.536, 2037.146
1176.018, 2044.847
1176.500, 2034.911
1176.982, 2020.108
1177.464, 2007.000
1177.947, 2000.053
1178.429, 2008.771
1178.911, 2027.393
1179.393, 2033.819
1179.875, 2029.714
1180.357, 2018.287
1180.839, 2003.409
1181.321, 2002.885
1181.804, 2019.020
1182.286, 2026.968
1182.768, 2008.644
1183.250, 1986.711
1183.732, 1982.144
1184.214, 1983.375
1184.696, 1978.174
1185.178, 1973.539
1185.661, 1982.862
1186.143, 1999.390
1186.625, 2003.410
1187.107, 1990.716
1187.589, 1981.586
1188.071, 1978.071
1188.553, 1981.188
1189.035, 2000.175
1189.517, 2011.909
1190.000, 2002.984
1190.482, 1990.776
1190.964, 1992.362
1191.446, 2002.622
1191.928, 2006.620
1192.410, 2004.227
1192.892, 2004.488
1193.374, 2007.313
1193.856, 2007.505
1194.339, 2004.495
1194.821, 2002.933
1195.303, 2004.876
1195.785, 2008.133
1196.267, 2011.041
1196.749, 2013.308
1197.231, 2015.467
1197.713, 2016.032
1198.196, 2010.772
1198.678, 2003.494
1199.160, 2002.929
1199.642, 2007.249
1200.124, 2004.071
1200.606, 1987.713
1201.088, 1976.938
1201.570, 1984.505
1202.052, 1988.755
1202.535, 1976.911
1203.017, 1967.423
1203.499, 1975.207
1203.981, 1985.810
1204.463, 1980.463
1204.945, 1963.384
1205.427, 1954.622
1205.909, 1953.859
1206.391, 1968.508
1206.874, 1999.874
1207.356, 2018.059
1207.838, 2016.794
1208.320, 2007.609
1208.802, 1996.368
1209.284, 1992.389
1209.766, 2013.043
1210.248, 2037.847
1210.731, 2032.269
1211.213, 2011.562
1211.695, 1992.607
1212.177, 1980.121
1212.659, 1983.309
1213.141, 1998.643
1213.623, 2004.578
1214.105, 1990.270
1214.588, 1983.660
1215.070, 2000.477
1215.552, 2016.249
1216.034, 2019.085
1216.516, 2024.276
1216.998, 2050.263
1217.480, 2072.310
1217.962, 2053.742
1218.444, 2004.979
1218.927, 1983.386
1219.409, 1990.554
1219.891, 2000.324
1220.373, 2011.843
1220.855, 2011.568
1221.337, 1997.569
1221.819, 1985.191
1222.301, 1982.571
1222.783, 1988.374
1223.266, 2006.195
1223.748, 2025.002
1224.230, 2032.003
1224.712, 2030.800
1225.194, 2018.045
1225.676, 2004.686
1226.158, 2014.431
1226.640, 2041.885
1227.122, 2050.058
1227.605, 2022.582
1228.087, 2007.169
1228.569, 2024.760
1229.051, 2035.149
1229.533, 2028.358
1230.015, 2019.244
1230.497, 2016.726
1230.979, 2010.296
1231.462, 1984.077
1231.944, 1950.412
1232.426, 1956.532
1232.908, 1995.259
1233.390, 2002.238
1233.872, 1981.851
1234.354, 1960.641
1234.836, 1946.241
1235.318, 1951.912
1235.801, 1981.565
1236.283, 2003.445
1236.765, 1989.214
1237.247, 1966.675
1237.729, 1951.308
1238.211, 1941.783
1238.693, 1935.369
1239.175, 1935.479
1239.657, 1949.403
1240.140, 1973.075
1240.622, 1993.382
1241.104, 2010.260
1241.586, 2022.103
1242.068, 2030.568
1242.550, 2026.984
1243.032, 2007.604
1243.514, 1991.015
1243.997, 1983.870
1244.479, 1983.516
1244.961, 1988.454
1245.443, 1995.274
1245.925, 1998.384
1246.407, 1999.439
1246.889, 2002.447
1247.371, 2005.628
1247.854, 2004.419
1248.336, 2000.672
1248.818, 2000.209
1249.300, 2003.890
1249.782, 2007.344
1250.264, 2010.826
1250.746, 2009.643
1251.228, 1994.766
1251.710, 1986.152
1252.193, 1994.886
1252.675, 2005.085
1253.157, 2008.635
1253.639, 2006.144
1254.121, 1997.275
1254.603, 1984.133
1255.085, 1974.734
1255.567, 1969.480
1256.049, 1975.665
1256.532, 1990.352
1257.014, 1993.914
1257.496, 1985.183
1257.978, 1982.147
1258.460, 1992.772
1258.942, 2005.195
1259.424, 2011.767
1259.906, 2015.224
1260.389, 2017.278
1260.871, 2016.958
1261.353, 2010.616
1261.835, 2003.757
1262.317, 2004.511
1262.799, 2009.824
1263.281, 2009.471
1263.763, 2002.746
1264.245, 2000.245
1264.728, 2001.771
1265.210, 2011.906
1265.692, 2031.833
1266.174, 2037.658
1266.656, 2021.980
1267.138, 2004.364
1267.620, 1998.391
1268.102, 1999.853
1268.584, 2008.465
1269.067, 2017.057
1269.549, 2017.705
1270.031, 2012.807
##END=



