##NAMES=Tweddillite
##RRUFFID=R120125
##IDEAL CHEMISTRY=CaSrMn^3+^_2_Al(Si_2_O_7_)(SiO_4_)O(OH)
##LOCALITY=Wessels mine, Kalahari manganese field, Cape Province, South Africa
##OWNER=RRUFF
##SOURCE=William W. Pinch
##DESCRIPTION=Sprays of dark red elongated crystals
##STATUS=The identification of this mineral has been confirmed only by single crystal X-ray diffraction.
##URL=rruff.info/R120125
90.74744, 205.9645
91.22955, 210.4509
91.71167, 216.6061
92.19379, 220.5003
92.67590, 222.5296
93.15802, 224.2953
93.64014, 226.9032
94.12225, 230.1881
94.60437, 233.6253
95.08649, 237.2986
95.56860, 240.8423
96.05072, 243.5934
96.53284, 245.6988
97.01495, 247.6851
97.49707, 250.0400
97.97919, 252.7460
98.46130, 255.4488
98.94342, 258.1707
99.42554, 260.8954
99.90765, 263.1979
100.3898, 265.2088
100.8719, 266.6760
101.3540, 267.2945
101.8361, 267.1400
102.3182, 266.0944
102.8004, 264.1608
103.2825, 261.4448
103.7646, 257.7233
104.2467, 252.7740
104.7288, 247.0435
105.2109, 241.5679
105.6931, 236.4699
106.1752, 231.4034
106.6573, 226.1423
107.1394, 220.5234
107.6215, 215.0850
108.1036, 209.7555
108.5858, 204.5927
109.0679, 199.9503
109.5500, 196.0033
110.0321, 192.4133
110.5142, 189.0261
110.9963, 185.5410
111.4785, 182.5579
111.9606, 180.3010
112.4427, 178.7365
112.9248, 177.1875
113.4069, 175.2865
113.8890, 173.4943
114.3712, 172.1601
114.8533, 171.7944
115.3354, 171.4959
115.8175, 170.9568
116.2996, 170.1329
116.7817, 169.3425
117.2639, 168.6336
117.7460, 168.0282
118.2281, 167.5551
118.7102, 167.1021
119.1923, 166.8609
119.6744, 166.9930
120.1566, 167.5609
120.6387, 168.2666
121.1208, 168.8459
121.6029, 169.4175
122.0850, 170.2218
122.5671, 171.6314
123.0493, 173.2176
123.5314, 174.5650
124.0135, 175.6124
124.4956, 176.3867
124.9777, 176.7540
125.4598, 176.8039
125.9420, 176.8805
126.4241, 177.2756
126.9062, 177.8377
127.3883, 178.2952
127.8704, 178.5872
128.3525, 178.7522
128.8347, 178.8469
129.3168, 178.8696
129.7989, 178.7993
130.2810, 178.5576
130.7631, 178.1909
131.2452, 177.8984
131.7274, 177.8158
132.2095, 177.8017
132.6916, 177.4324
133.1737, 176.6712
133.6558, 175.7925
134.1379, 174.9805
134.6201, 174.2379
135.1022, 173.6826
135.5843, 173.4300
136.0664, 173.4260
136.5485, 173.2586
137.0306, 172.8948
137.5128, 172.4418
137.9949, 172.0236
138.4770, 171.6524
138.9591, 171.2395
139.4412, 170.7094
139.9233, 170.0450
140.4055, 169.5788
140.8876, 169.4342
141.3697, 169.3528
141.8518, 168.8768
142.3339, 167.8562
142.8160, 166.7784
143.2982, 165.7566
143.7803, 164.6945
144.2624, 164.0474
144.7445, 163.9622
145.2266, 164.2502
145.7087, 164.4899
146.1909, 164.7059
146.6730, 164.8516
147.1551, 164.9067
147.6372, 164.8200
148.1193, 164.7254
148.6014, 164.4916
149.0836, 164.2328
149.5657, 164.3448
150.0478, 165.1340
150.5299, 166.0439
151.0120, 166.8388
151.4941, 167.3255
151.9763, 167.9124
152.4584, 168.5129
152.9405, 169.1817
153.4226, 170.2022
153.9047, 172.0860
154.3868, 174.0069
154.8690, 175.5147
155.3511, 175.8849
155.8332, 176.5554
156.3153, 177.8867
156.7974, 179.8008
157.2795, 181.6473
157.7617, 183.2206
158.2438, 184.7139
158.7259, 186.2671
159.2080, 187.7100
159.6901, 189.4143
160.1722, 191.5311
160.6544, 194.0524
161.1365, 196.7589
161.6186, 199.5146
162.1007, 202.4252
162.5828, 205.6573
163.0649, 209.7085
163.5471, 213.6855
164.0292, 217.1317
164.5113, 220.0290
164.9934, 222.8031
165.4755, 225.8518
165.9576, 228.8584
166.4398, 231.3936
166.9219, 233.3768
167.4040, 234.8101
167.8861, 235.7675
168.3682, 236.2792
168.8503, 235.9884
169.3325, 234.4039
169.8146, 231.8861
170.2967, 229.0505
170.7788, 226.3033
171.2609, 223.2494
171.7430, 219.4510
172.2252, 214.8060
172.7073, 209.9615
173.1894, 205.0382
173.6715, 200.2402
174.1536, 196.1821
174.6357, 193.4785
175.1179, 191.4509
175.6000, 189.2582
176.0821, 186.8145
176.5642, 184.4271
177.0463, 182.3783
177.5284, 180.6263
178.0106, 179.0757
178.4927, 177.6503
178.9748, 176.3898
179.4569, 175.3899
179.9390, 174.6514
180.4211, 174.1712
180.9033, 173.9014
181.3854, 173.8632
181.8675, 174.1498
182.3496, 175.1027
182.8317, 176.4060
183.3138, 177.2939
183.7960, 177.5913
184.2781, 177.7049
184.7602, 178.2131
185.2423, 179.0827
185.7244, 179.9973
186.2065, 180.9311
186.6887, 181.7898
187.1708, 182.2372
187.6529, 182.2186
188.1350, 181.8117
188.6171, 181.0350
189.0992, 179.8900
189.5814, 178.7122
190.0635, 177.8271
190.5456, 177.1450
191.0277, 176.1172
191.5098, 174.6226
191.9919, 172.8423
192.4741, 171.0545
192.9562, 169.2525
193.4383, 167.7179
193.9204, 166.6816
194.4025, 166.1294
194.8846, 165.8286
195.3668, 165.7672
195.8489, 165.9255
196.3310, 166.2966
196.8131, 166.8978
197.2952, 167.5746
197.7773, 168.1317
198.2595, 168.5532
198.7416, 169.4568
199.2237, 171.0739
199.7058, 173.0789
200.1879, 174.4737
200.6700, 175.1506
201.1522, 175.7681
201.6343, 176.8703
202.1164, 178.5330
202.5985, 179.8887
203.0806, 180.7354
203.5627, 181.2497
204.0449, 181.9976
204.5270, 183.0346
205.0091, 184.1190
205.4912, 185.0671
205.9733, 185.8450
206.4554, 186.6730
206.9376, 187.5446
207.4197, 188.4901
207.9018, 189.6430
208.3839, 190.9886
208.8660, 192.5898
209.3481, 194.5487
209.8303, 196.9843
210.3124, 199.2621
210.7945, 201.1877
211.2766, 202.9211
211.7587, 205.2659
212.2408, 208.4641
212.7230, 211.7834
213.2051, 214.7707
213.6872, 217.3460
214.1693, 219.8568
214.6514, 222.2698
215.1335, 224.6397
215.6157, 227.1692
216.0978, 230.0411
216.5799, 232.7608
217.0620, 234.9733
217.5441, 236.4747
218.0262, 238.0862
218.5084, 240.0070
218.9905, 242.1261
219.4726, 243.7951
219.9547, 244.9750
220.4368, 245.8266
220.9189, 246.4529
221.4011, 246.9071
221.8832, 246.9996
222.3653, 246.5891
222.8474, 245.8084
223.3295, 245.2513
223.8116, 245.0838
224.2938, 244.9016
224.7759, 244.4589
225.2580, 243.6885
225.7401, 242.8053
226.2222, 241.7163
226.7043, 240.5210
227.1865, 239.6332
227.6686, 239.2717
228.1507, 238.9135
228.6328, 238.2992
229.1149, 237.4844
229.5970, 236.2637
230.0792, 234.4719
230.5613, 232.2659
231.0434, 230.3228
231.5255, 228.7754
232.0076, 227.3374
232.4897, 225.9129
232.9719, 224.6319
233.4540, 223.0755
233.9361, 221.1123
234.4182, 218.8650
234.9003, 216.7383
235.3824, 214.8224
235.8646, 212.8975
236.3467, 210.8135
236.8288, 208.3417
237.3109, 206.2171
237.7930, 204.5271
238.2751, 203.1740
238.7573, 201.9122
239.2394, 200.6840
239.7215, 199.6206
240.2036, 198.7822
240.6857, 198.2422
241.1678, 197.7440
241.6500, 197.2134
242.1321, 196.7434
242.6142, 196.5906
243.0963, 196.9107
243.5784, 197.3226
244.0605, 197.6623
244.5427, 197.8804
245.0248, 198.1477
245.5069, 198.3966
245.9890, 198.7268
246.4711, 199.3890
246.9532, 200.6252
247.4354, 201.8073
247.9175, 202.6181
248.3996, 202.8155
248.8817, 203.4753
249.3638, 204.7924
249.8459, 206.4658
250.3281, 207.9665
250.8102, 209.3406
251.2923, 210.4693
251.7744, 211.2696
252.2565, 211.6262
252.7386, 212.1302
253.2208, 212.8688
253.7029, 213.6910
254.1850, 214.3783
254.6671, 214.9139
255.1492, 215.3489
255.6313, 215.7550
256.1135, 216.1959
256.5956, 216.0879
257.0777, 215.1176
257.5598, 213.8945
258.0419, 213.2905
258.5240, 213.6027
259.0062, 213.8627
259.4883, 213.7722
259.9704, 213.3018
260.4525, 212.9410
260.9346, 212.6960
261.4167, 212.5585
261.8989, 212.5827
262.3810, 212.9237
262.8631, 213.0007
263.3452, 212.5489
263.8273, 211.5714
264.3094, 211.1532
264.7916, 211.5561
265.2737, 212.0980
265.7558, 212.1021
266.2379, 211.4376
266.7200, 210.6746
267.2021, 209.9415
267.6843, 209.2149
268.1664, 208.2161
268.6485, 206.8830
269.1306, 205.4075
269.6127, 203.8965
270.0948, 202.2839
270.5770, 200.9597
271.0591, 200.0906
271.5412, 199.5600
272.0233, 198.7841
272.5054, 197.7273
272.9875, 196.5444
273.4697, 195.2811
273.9518, 193.8752
274.4339, 192.7436
274.9160, 192.0074
275.3981, 191.5378
275.8802, 190.8773
276.3624, 189.9590
276.8445, 189.1602
277.3266, 188.6458
277.8087, 188.4025
278.2908, 188.7522
278.7729, 189.9092
279.2551, 191.4551
279.7372, 192.3201
280.2193, 192.3964
280.7014, 192.5193
281.1835, 193.1774
281.6656, 194.3635
282.1478, 195.5522
282.6299, 196.7104
283.1120, 197.8900
283.5941, 199.0719
284.0762, 200.2448
284.5583, 201.7949
285.0405, 204.1468
285.5226, 207.1815
286.0047, 209.7652
286.4868, 211.8349
286.9689, 213.6412
287.4510, 215.5189
287.9332, 217.4588
288.4153, 219.3088
288.8974, 221.1271
289.3795, 222.7973
289.8616, 223.8352
290.3438, 224.2392
290.8259, 224.0148
291.3080, 223.1064
291.7901, 221.5502
292.2722, 219.4893
292.7543, 216.8817
293.2365, 213.8616
293.7186, 210.6707
294.2007, 207.3333
294.6828, 204.0073
295.1649, 200.7874
295.6470, 197.7095
296.1292, 194.7459
296.6113, 191.7988
297.0934, 189.1146
297.5755, 187.2113
298.0576, 186.0245
298.5397, 184.9489
299.0219, 183.2942
299.5040, 181.4258
299.9861, 180.1848
300.4682, 179.8386
300.9503, 179.9551
301.4324, 180.0920
301.9146, 180.2637
302.3967, 180.5319
302.8788, 180.9209
303.3609, 181.4351
303.8430, 182.0620
304.3251, 182.7869
304.8073, 183.6699
305.2894, 184.7421
305.7715, 186.0122
306.2536, 187.5351
306.7357, 189.6215
307.2178, 191.8134
307.7000, 193.5578
308.1821, 194.7717
308.6642, 195.9132
309.1463, 197.3598
309.6284, 198.9392
310.1105, 200.4061
310.5927, 201.7714
311.0748, 202.8796
311.5569, 203.5324
312.0390, 203.7307
312.5211, 203.8990
313.0032, 204.1767
313.4854, 204.5941
313.9675, 205.1803
314.4496, 206.1816
314.9317, 207.1431
315.4138, 207.7515
315.8959, 208.0808
316.3781, 208.5935
316.8602, 209.6048
317.3423, 210.8071
317.8244, 211.9671
318.3065, 212.9158
318.7886, 213.9845
319.2708, 215.3255
319.7529, 216.8696
320.2350, 218.4290
320.7171, 219.9062
321.1992, 221.3951
321.6813, 222.9672
322.1635, 224.7437
322.6456, 226.3367
323.1277, 227.6480
323.6098, 228.7299
324.0919, 229.6752
324.5740, 230.4969
325.0562, 231.1696
325.5383, 231.7142
326.0204, 232.1747
326.5025, 232.3289
326.9846, 231.9699
327.4667, 231.3797
327.9489, 230.8562
328.4310, 230.6823
328.9131, 230.2671
329.3952, 229.4315
329.8773, 228.1644
330.3594, 227.0192
330.8416, 225.9552
331.3237, 225.0609
331.8058, 224.4205
332.2879, 224.2151
332.7700, 223.9377
333.2521, 223.4219
333.7343, 222.7761
334.2164, 222.5302
334.6985, 222.7317
335.1806, 223.2552
335.6627, 224.0359
336.1448, 225.0441
336.6270, 226.3738
337.1091, 228.0195
337.5912, 229.9767
338.0733, 232.2539
338.5554, 234.8013
339.0375, 237.7624
339.5197, 241.3048
340.0018, 245.4330
340.4839, 249.4814
340.9660, 253.2888
341.4481, 257.2024
341.9302, 261.6550
342.4124, 266.7265
342.8945, 271.7301
343.3766, 276.4200
343.8587, 280.8889
344.3408, 285.8686
344.8229, 291.3952
345.3051, 297.0157
345.7872, 302.5330
346.2693, 307.8544
346.7514, 312.4848
347.2335, 316.1390
347.7156, 319.2245
348.1978, 322.6718
348.6799, 326.4043
349.1620, 329.4229
349.6441, 331.0357
350.1262, 331.4458
350.6083, 331.0589
351.0905, 329.8633
351.5726, 328.0962
352.0547, 326.2660
352.5368, 324.1371
353.0189, 320.9949
353.5010, 315.9669
353.9832, 309.9668
354.4653, 304.0768
354.9474, 298.2978
355.4295, 292.4301
355.9116, 286.2890
356.3937, 279.9196
356.8759, 273.4808
357.3580, 266.7589
357.8401, 260.1404
358.3222, 253.8884
358.8043, 247.9394
359.2864, 242.2569
359.7686, 236.8923
360.2507, 231.7135
360.7328, 226.6685
361.2149, 221.6861
361.6970, 216.8565
362.1791, 212.1701
362.6613, 207.6586
363.1434, 203.3978
363.6255, 199.4992
364.1076, 195.7836
364.5897, 192.0858
365.0718, 188.3486
365.5540, 185.0304
366.0361, 182.5055
366.5182, 180.3497
367.0003, 178.0541
367.4824, 175.3426
367.9645, 172.7163
368.4467, 170.1352
368.9288, 167.6242
369.4109, 165.7088
369.8930, 164.7626
370.3751, 164.1291
370.8572, 163.3596
371.3394, 162.2463
371.8215, 161.3691
372.3036, 160.8246
372.7857, 160.5447
373.2678, 160.2601
373.7499, 159.8721
374.2321, 159.6455
374.7142, 159.7383
375.1963, 160.2333
375.6784, 160.6769
376.1605, 161.0180
376.6426, 161.3671
377.1248, 161.8692
377.6069, 162.5290
378.0890, 163.3586
378.5711, 164.5306
379.0532, 165.9286
379.5353, 166.4778
380.0175, 166.0441
380.4996, 165.4639
380.9817, 165.6707
381.4638, 166.5459
381.9459, 167.1061
382.4280, 167.1332
382.9102, 166.7577
383.3923, 166.1949
383.8744, 165.4397
384.3565, 164.4967
384.8386, 163.3576
385.3207, 162.0367
385.8029, 160.5943
386.2850, 159.0183
386.7671, 157.3388
387.2492, 155.4800
387.7313, 153.5255
388.2134, 151.7015
388.6956, 150.3137
389.1777, 148.9962
389.6598, 147.3233
390.1419, 145.3237
390.6240, 143.4383
391.1061, 141.8372
391.5883, 140.5165
392.0704, 139.4825
392.5525, 138.9221
393.0346, 138.3975
393.5167, 137.6470
393.9988, 136.7617
394.4810, 135.9875
394.9631, 135.4074
395.4452, 134.9610
395.9273, 134.6207
396.4094, 134.3835
396.8915, 134.2497
397.3737, 134.1873
397.8558, 134.2368
398.3379, 134.4484
398.8200, 135.0036
399.3021, 135.5292
399.7842, 135.8488
400.2664, 135.9626
400.7485, 136.4721
401.2306, 137.6724
401.7127, 138.9700
402.1948, 139.9760
402.6769, 140.5228
403.1591, 141.1294
403.6412, 141.8040
404.1233, 142.5618
404.6054, 143.4696
405.0875, 144.5386
405.5696, 145.6991
406.0518, 146.9325
406.5339, 148.2410
407.0160, 149.6246
407.4981, 151.1152
407.9802, 152.5612
408.4623, 153.6132
408.9445, 154.2941
409.4266, 155.4525
409.9087, 157.4582
410.3908, 159.9561
410.8729, 162.0713
411.3550, 163.8258
411.8372, 165.5740
412.3193, 167.6392
412.8014, 169.9003
413.2835, 172.0457
413.7656, 174.0019
414.2477, 176.0265
414.7299, 178.3791
415.2120, 181.0081
415.6941, 183.7238
416.1762, 186.3142
416.6583, 189.0622
417.1404, 192.2872
417.6226, 196.0035
418.1047, 199.7951
418.5868, 203.2591
419.0689, 206.7815
419.5510, 210.7931
420.0331, 215.4757
420.5153, 220.5343
420.9974, 225.7395
421.4795, 231.2006
421.9616, 236.9915
422.4437, 243.1988
422.9258, 249.7631
423.4080, 256.7377
423.8901, 264.3587
424.3722, 271.7955
424.8543, 278.5674
425.3364, 285.3417
425.8185, 292.7713
426.3007, 301.7926
426.7828, 310.2471
427.2649, 317.8795
427.7470, 324.6855
428.2291, 330.8427
428.7112, 336.2991
429.1934, 341.1102
429.6755, 345.5551
430.1576, 349.8216
430.6397, 352.6347
431.1218, 353.9893
431.6039, 353.8349
432.0861, 351.9095
432.5682, 348.1459
433.0503, 343.3896
433.5324, 337.5940
434.0145, 331.0688
434.4966, 324.8584
434.9788, 318.9700
435.4609, 313.2794
435.9430, 307.4798
436.4251, 301.7310
436.9072, 296.4799
437.3893, 291.7370
437.8715, 287.5835
438.3536, 284.2169
438.8357, 281.5297
439.3178, 279.2224
439.7999, 276.9025
440.2820, 275.0323
440.7642, 274.2596
441.2463, 274.6095
441.7284, 275.0264
442.2105, 274.8739
442.6926, 274.5271
443.1747, 274.3482
443.6569, 274.5459
444.1390, 274.7841
444.6211, 275.0212
445.1032, 275.2273
445.5853, 275.3086
446.0674, 275.4916
446.5496, 275.3412
447.0317, 274.6357
447.5138, 273.1879
447.9959, 271.7905
448.4780, 270.5910
448.9601, 269.3441
449.4423, 267.7418
449.9244, 265.5152
450.4065, 263.5687
450.8886, 262.1993
451.3707, 261.2083
451.8528, 259.6902
452.3350, 257.5641
452.8171, 255.1037
453.2992, 252.2805
453.7813, 249.0711
454.2634, 246.2426
454.7455, 243.9194
455.2277, 241.5296
455.7098, 238.1104
456.1919, 233.8336
456.6740, 229.6492
457.1561, 225.9842
457.6382, 222.5903
458.1204, 219.2186
458.6025, 215.8338
459.0846, 212.4016
459.5667, 208.7049
460.0488, 204.9836
460.5309, 201.5345
461.0131, 198.4329
461.4952, 195.5062
461.9773, 192.5506
462.4594, 189.7550
462.9415, 187.3573
463.4236, 185.6888
463.9058, 184.2499
464.3879, 182.9586
464.8700, 181.7799
465.3521, 180.3284
465.8342, 177.9905
466.3163, 175.7167
466.7985, 174.0436
467.2806, 173.3224
467.7627, 172.6500
468.2448, 172.1135
468.7269, 171.5771
469.2090, 170.8077
469.6912, 169.5395
470.1733, 168.5213
470.6554, 168.0284
471.1375, 167.9818
471.6196, 167.5870
472.1017, 166.7508
472.5839, 165.8243
473.0660, 165.0553
473.5481, 164.4500
474.0302, 163.6596
474.5123, 162.5852
474.9944, 161.5208
475.4766, 160.9782
475.9587, 160.8846
476.4408, 160.7601
476.9229, 160.3208
477.4050, 159.7967
477.8871, 159.5989
478.3693, 159.7025
478.8514, 159.8704
479.3335, 159.9563
479.8156, 160.0045
480.2977, 160.0344
480.7798, 160.0010
481.2620, 160.1125
481.7441, 160.4955
482.2262, 161.0968
482.7083, 161.8390
483.1904, 162.6448
483.6725, 163.6369
484.1547, 164.9889
484.6368, 166.6528
485.1189, 168.0833
485.6010, 168.7674
486.0831, 169.5471
486.5652, 170.8624
487.0474, 173.0738
487.5295, 175.0619
488.0116, 176.7186
488.4937, 178.2083
488.9758, 179.7757
489.4579, 181.4531
489.9401, 183.1312
490.4222, 184.8360
490.9043, 186.5196
491.3864, 187.9573
491.8685, 189.1059
492.3506, 190.3500
492.8328, 192.1117
493.3149, 194.2294
493.7970, 195.9510
494.2791, 197.1781
494.7612, 198.2533
495.2433, 199.6743
495.7255, 201.2729
496.2076, 202.6351
496.6897, 203.5914
497.1718, 204.2704
497.6539, 204.6859
498.1360, 204.8892
498.6182, 205.0841
499.1003, 205.5233
499.5824, 205.8898
500.0645, 205.9893
500.5466, 205.8208
501.0287, 205.2935
501.5109, 204.1475
501.9930, 202.7309
502.4751, 201.4047
502.9572, 200.7273
503.4393, 199.5194
503.9214, 197.5768
504.4036, 195.0250
504.8857, 192.2341
505.3678, 189.1562
505.8499, 185.8627
506.3320, 182.2930
506.8141, 178.4106
507.2963, 174.8681
507.7784, 171.7113
508.2605, 168.6589
508.7426, 165.3043
509.2247, 161.6777
509.7068, 158.2329
510.1890, 155.0510
510.6711, 152.1010
511.1532, 149.4190
511.6353, 146.9770
512.1174, 144.7122
512.5995, 142.5781
513.0817, 140.5822
513.5638, 138.7514
514.0459, 137.0825
514.5280, 135.5080
515.0101, 133.8430
515.4922, 132.3214
515.9744, 131.2348
516.4565, 130.9328
516.9386, 130.4752
517.4207, 129.3595
517.9028, 127.9338
518.3849, 126.7679
518.8671, 126.0153
519.3492, 125.4755
519.8313, 125.3150
520.3134, 125.4705
520.7955, 124.8748
521.2776, 122.9440
521.7598, 121.1178
522.2419, 120.3595
522.7240, 120.9654
523.2061, 120.9971
523.6882, 120.3215
524.1703, 119.2903
524.6525, 118.1965
525.1346, 117.0626
525.6167, 116.3797
526.0988, 116.4443
526.5809, 116.8536
527.0630, 116.9006
527.5452, 116.6285
528.0273, 116.2872
528.5094, 115.9127
528.9915, 115.6083
529.4736, 115.5186
529.9557, 115.6593
530.4379, 115.8396
530.9200, 115.9170
531.4021, 115.9905
531.8842, 116.1596
532.3663, 116.4902
532.8484, 116.8539
533.3306, 117.3601
533.8127, 117.8662
534.2948, 118.0510
534.7769, 117.3730
535.2590, 116.9812
535.7411, 117.2848
536.2233, 118.2516
536.7054, 118.7236
537.1875, 118.4655
537.6696, 118.1654
538.1517, 118.2506
538.6339, 118.7360
539.1160, 119.4421
539.5981, 120.4060
540.0802, 121.4568
540.5623, 122.4040
541.0444, 123.2586
541.5266, 124.0897
542.0087, 124.8388
542.4908, 125.6663
542.9729, 126.8132
543.4550, 128.2305
543.9371, 129.7581
544.4193, 131.2629
544.9014, 132.8825
545.3835, 134.7602
545.8656, 136.9151
546.3477, 139.1550
546.8298, 141.4378
547.3120, 143.7830
547.7941, 146.1849
548.2762, 148.5811
548.7583, 151.1431
549.2404, 153.9289
549.7225, 156.8728
550.2047, 159.8648
550.6868, 162.8613
551.1689, 166.0095
551.6510, 169.3617
552.1331, 172.8893
552.6152, 176.2447
553.0974, 179.3555
553.5795, 182.6621
554.0616, 186.4754
554.5437, 190.7496
555.0258, 195.2244
555.5079, 199.9128
555.9901, 204.7571
556.4722, 209.8571
556.9543, 215.1104
557.4364, 220.3074
557.9185, 225.4284
558.4006, 230.4224
558.8828, 235.8760
559.3649, 241.1986
559.8470, 245.1552
560.3291, 246.9559
560.8112, 247.5187
561.2933, 247.3568
561.7755, 246.4895
562.2576, 244.1729
562.7397, 239.5816
563.2218, 234.0945
563.7039, 228.2798
564.1860, 221.9862
564.6682, 215.6736
565.1503, 209.1406
565.6324, 202.7656
566.1145, 197.0925
566.5966, 192.0938
567.0787, 187.6436
567.5609, 183.7379
568.0430, 180.3362
568.5251, 177.4155
569.0072, 174.9660
569.4893, 173.1115
569.9714, 172.0747
570.4536, 171.5763
570.9357, 171.1684
571.4178, 170.8596
571.8999, 170.9372
572.3820, 171.9550
572.8641, 173.2339
573.3463, 174.0756
573.8284, 174.0593
574.3105, 174.4381
574.7926, 175.9782
575.2747, 177.9767
575.7568, 179.5353
576.2390, 180.0159
576.7211, 180.8367
577.2032, 182.2567
577.6853, 184.1264
578.1674, 185.9011
578.6495, 187.5665
579.1317, 189.1848
579.6138, 190.8338
580.0959, 192.4790
580.5780, 193.7524
581.0601, 194.6350
581.5422, 195.4866
582.0244, 196.5631
582.5065, 197.8538
582.9886, 199.3027
583.4707, 200.9229
583.9528, 202.7084
584.4349, 204.7780
584.9171, 206.9832
585.3992, 209.1029
585.8813, 210.9933
586.3634, 212.8607
586.8455, 214.7615
587.3276, 216.6992
587.8098, 218.6147
588.2919, 220.5251
588.7740, 222.3842
589.2561, 224.3164
589.7382, 226.3333
590.2203, 227.6043
590.7025, 227.8853
591.1846, 227.8362
591.6667, 227.9117
592.1488, 228.1451
592.6309, 227.9924
593.1130, 227.3975
593.5952, 226.5668
594.0773, 225.8126
594.5594, 225.0483
595.0415, 223.9214
595.5236, 222.2256
596.0057, 220.3436
596.4879, 218.6646
596.9700, 217.1424
597.4521, 215.6852
597.9342, 213.9306
598.4163, 212.5084
598.8984, 211.9791
599.3806, 212.2349
599.8627, 212.2675
600.3448, 211.6404
600.8269, 210.9102
601.3090, 210.2349
601.7911, 209.4500
602.2733, 209.4364
602.7554, 210.5190
603.2375, 211.9131
603.7196, 212.8107
604.2017, 213.1438
604.6838, 213.8288
605.1660, 215.0913
605.6481, 216.4890
606.1302, 217.2477
606.6123, 217.4792
607.0944, 217.7013
607.5765, 218.1512
608.0587, 218.6436
608.5408, 219.0532
609.0229, 219.3425
609.5050, 219.3958
609.9871, 218.9907
610.4692, 218.4549
610.9514, 218.0222
611.4335, 217.7173
611.9156, 217.2186
612.3977, 216.5999
612.8798, 215.6495
613.3619, 214.2269
613.8441, 212.0371
614.3262, 210.0460
614.8083, 208.3104
615.2904, 206.6826
615.7725, 205.0062
616.2546, 203.2787
616.7368, 201.5918
617.2189, 199.9673
617.7010, 198.3479
618.1831, 196.5730
618.6652, 194.7038
619.1473, 192.9742
619.6295, 191.6880
620.1116, 190.4869
620.5937, 188.9648
621.0758, 187.1879
621.5579, 185.4409
622.0400, 183.8215
622.5222, 182.3463
623.0043, 181.1168
623.4864, 180.2333
623.9685, 179.0469
624.4506, 177.0886
624.9327, 175.1455
625.4149, 173.8155
625.8970, 173.5079
626.3791, 172.5343
626.8612, 170.5995
627.3433, 168.3908
627.8254, 166.9331
628.3076, 166.1906
628.7897, 165.3989
629.2718, 164.3615
629.7539, 163.1899
630.2360, 162.0704
630.7181, 160.9766
631.2003, 159.8373
631.6824, 158.4240
632.1645, 157.1004
632.6466, 156.2208
633.1287, 155.7258
633.6108, 155.2529
634.0930, 154.7528
634.5751, 154.1710
635.0572, 153.4605
635.5393, 152.5818
636.0214, 151.7508
636.5035, 150.9588
636.9857, 150.2208
637.4678, 149.5307
637.9499, 148.8707
638.4320, 148.4741
638.9141, 148.4687
639.3962, 148.4171
639.8784, 147.5537
640.3605, 146.0881
640.8426, 144.8785
641.3247, 144.1542
641.8068, 143.8179
642.2889, 144.2486
642.7711, 144.9768
643.2532, 144.9438
643.7353, 142.9366
644.2174, 140.7736
644.6995, 139.2754
645.1816, 138.3950
645.6638, 137.6046
646.1459, 136.9574
646.6280, 136.2562
647.1101, 135.4451
647.5922, 134.5337
648.0743, 133.4204
648.5565, 132.0503
649.0386, 130.6341
649.5207, 129.3537
650.0028, 128.1980
650.4849, 127.0594
650.9670, 125.9290
651.4492, 124.8889
651.9313, 124.2375
652.4134, 123.7111
652.8955, 122.7878
653.3776, 121.1591
653.8597, 119.4772
654.3419, 118.1471
654.8240, 117.0254
655.3061, 115.9145
655.7882, 114.7090
656.2703, 113.5735
656.7524, 112.5407
657.2346, 111.6054
657.7167, 110.7691
658.1988, 110.0880
658.6809, 109.3756
659.1630, 108.5271
659.6451, 107.5909
660.1273, 106.8862
660.6094, 106.4135
661.0915, 105.9815
661.5736, 105.4449
662.0557, 104.8543
662.5378, 104.3203
663.0200, 103.8472
663.5021, 103.3580
663.9842, 102.6563
664.4663, 101.9905
664.9484, 101.6443
665.4305, 101.8036
665.9127, 101.8656
666.3948, 101.6483
666.8769, 101.2842
667.3590, 100.8930
667.8411, 100.3659
668.3232, 100.0718
668.8054, 100.1309
669.2875, 100.3367
669.7696, 100.3121
670.2517, 100.0520
670.7338, 99.80329
671.2159, 99.63217
671.6981, 99.52156
672.1802, 99.47940
672.6623, 99.48226
673.1444, 99.44496
673.6265, 99.32724
674.1086, 99.15067
674.5908, 98.86459
675.0729, 98.50558
675.5550, 98.28191
676.0371, 98.36609
676.5192, 98.50586
677.0013, 98.57999
677.4835, 98.57449
677.9656, 98.66638
678.4477, 98.93098
678.9298, 99.15871
679.4119, 99.18286
679.8940, 99.00113
680.3762, 98.83505
680.8583, 98.69151
681.3404, 98.54655
681.8225, 98.35375
682.3046, 98.14268
682.7867, 97.96399
683.2689, 97.82099
683.7510, 97.74265
684.2331, 97.85355
684.7152, 98.00838
685.1973, 98.01953
685.6794, 97.59470
686.1616, 97.31499
686.6437, 97.52652
687.1258, 97.88477
687.6079, 97.70975
688.0900, 96.73312
688.5721, 95.94636
689.0543, 95.66305
689.5364, 95.68274
690.0185, 95.39329
690.5006, 94.80386
690.9827, 94.18964
691.4648, 93.66552
691.9470, 93.20858
692.4291, 92.73180
692.9112, 92.26024
693.3933, 91.93428
693.8754, 92.00980
694.3575, 92.11282
694.8397, 91.95382
695.3218, 91.48340
695.8039, 91.14877
696.2860, 91.13444
696.7681, 91.15285
697.2502, 91.06846
697.7324, 90.87275
698.2145, 90.60647
698.6966, 90.24773
699.1787, 89.88174
699.6608, 89.55636
700.1429, 89.28859
700.6251, 89.18971
701.1072, 89.30492
701.5893, 89.40842
702.0714, 89.26073
702.5535, 88.96056
703.0356, 88.64419
703.5178, 88.31502
703.9999, 88.04085
704.4820, 87.83793
704.9641, 87.70915
705.4462, 87.66220
705.9283, 87.76148
706.4105, 87.82938
706.8926, 87.81143
707.3747, 87.76964
707.8568, 87.90734
708.3389, 88.25127
708.8210, 88.41837
709.3032, 88.19731
709.7853, 87.79813
710.2674, 87.65598
710.7495, 87.72154
711.2316, 87.79224
711.7137, 87.80310
712.1959, 87.74036
712.6780, 87.57919
713.1601, 87.32616
713.6422, 87.03835
714.1243, 86.54476
714.6064, 86.20140
715.0886, 86.16365
715.5707, 86.43851
716.0528, 86.81216
716.5349, 87.39879
717.0170, 87.80148
717.4991, 87.64536
717.9813, 87.02243
718.4634, 86.65395
718.9455, 86.56235
719.4276, 86.61278
719.9097, 86.80503
720.3918, 87.01936
720.8740, 87.04964
721.3561, 86.82403
721.8382, 86.68358
722.3203, 86.88964
722.8024, 87.19289
723.2845, 87.38169
723.7667, 87.48088
724.2488, 87.35480
724.7309, 86.83434
725.2130, 86.26571
725.6951, 86.11906
726.1772, 86.43421
726.6594, 86.52290
727.1415, 86.20824
727.6236, 85.84608
728.1057, 86.09704
728.5878, 86.69442
729.0699, 86.91219
729.5521, 86.23982
730.0342, 85.55833
730.5163, 85.56156
730.9984, 85.94943
731.4805, 86.18660
731.9626, 85.88219
732.4448, 85.73613
732.9269, 85.97092
733.4090, 86.42287
733.8911, 86.64104
734.3732, 86.59144
734.8553, 86.42237
735.3375, 86.10024
735.8196, 85.75256
736.3017, 85.75210
736.7838, 86.05589
737.2659, 86.40141
737.7480, 86.76923
738.2302, 87.02039
738.7123, 86.92477
739.1944, 86.56140
739.6765, 86.32124
740.1586, 86.44224
740.6407, 86.62687
741.1229, 86.74664
741.6050, 86.80420
742.0871, 86.89651
742.5692, 87.04202
743.0513, 87.18210
743.5334, 87.31551
744.0156, 87.42818
744.4977, 87.33453
744.9798, 87.03459
745.4619, 86.81174
745.9440, 87.02328
746.4261, 87.36898
746.9083, 87.43999
747.3904, 87.19587
747.8725, 86.96877
748.3546, 86.88041
748.8367, 86.88803
749.3188, 86.95713
749.8010, 87.05776
750.2831, 87.34926
750.7652, 88.02072
751.2473, 88.58994
751.7294, 88.59702
752.2115, 88.05097
752.6937, 87.61754
753.1758, 87.32221
753.6579, 87.22591
754.1400, 87.60659
754.6221, 88.16020
755.1042, 88.33968
755.5864, 87.94439
756.0685, 87.56665
756.5506, 87.53497
757.0327, 87.67256
757.5148, 87.80458
757.9969, 87.90408
758.4791, 88.00430
758.9612, 88.08685
759.4433, 88.18948
759.9254, 88.38484
760.4075, 88.68159
760.8896, 88.87865
761.3718, 88.93287
761.8539, 88.91591
762.3360, 88.91588
762.8181, 88.91606
763.3002, 88.86841
763.7823, 88.68246
764.2645, 88.58575
764.7466, 88.78577
765.2287, 89.12920
765.7108, 89.39079
766.1929, 89.57587
766.6750, 89.59996
767.1572, 89.33819
767.6393, 89.00129
768.1214, 89.01889
768.6035, 89.41769
769.0856, 89.80188
769.5677, 90.07169
770.0499, 90.28288
770.5320, 90.52840
771.0141, 90.78471
771.4962, 90.99236
771.9783, 91.11252
772.4604, 91.19046
772.9426, 91.20846
773.4247, 91.20269
773.9068, 91.26188
774.3889, 91.50545
774.8710, 91.64871
775.3531, 91.58280
775.8353, 91.41311
776.3174, 91.47858
776.7995, 91.79239
777.2816, 92.05244
777.7637, 92.10636
778.2458, 92.09106
778.7280, 92.30033
779.2101, 92.64800
779.6922, 92.85368
780.1743, 92.60707
780.6564, 92.35847
781.1385, 92.35429
781.6207, 92.54890
782.1028, 92.72301
782.5849, 92.82705
783.0670, 92.96500
783.5491, 93.19592
784.0313, 93.47202
784.5134, 93.55105
784.9955, 93.42783
785.4776, 93.43562
785.9597, 93.88754
786.4418, 94.45180
786.9240, 94.55018
787.4061, 94.28526
787.8882, 94.03022
788.3703, 93.92875
788.8524, 93.92943
789.3345, 94.03574
789.8167, 94.23859
790.2988, 94.45950
790.7809, 94.74235
791.2630, 94.95741
791.7451, 95.01635
792.2272, 94.98278
792.7094, 95.22765
793.1915, 95.73321
793.6736, 96.08528
794.1557, 95.78206
794.6378, 95.35239
795.1199, 95.51322
795.6021, 96.16943
796.0842, 96.87930
796.5663, 97.61236
797.0484, 98.19735
797.5305, 98.46791
798.0126, 98.47055
798.4948, 98.60266
798.9769, 98.91243
799.4590, 99.23476
799.9411, 99.50349
800.4232, 99.72993
800.9053, 99.92529
801.3875, 100.0953
801.8696, 100.2924
802.3517, 100.6155
802.8338, 100.9363
803.3159, 101.0887
803.7980, 101.1046
804.2802, 101.1817
804.7623, 101.2647
805.2444, 101.5525
805.7265, 102.1911
806.2086, 103.1235
806.6907, 103.8696
807.1729, 104.4208
807.6550, 104.8111
808.1371, 104.9599
808.6192, 105.0034
809.1013, 105.2915
809.5834, 105.8093
810.0656, 106.4722
810.5477, 107.4623
811.0298, 108.3822
811.5119, 108.8940
811.9940, 109.0493
812.4761, 109.3015
812.9583, 109.6946
813.4404, 110.2400
813.9225, 111.0194
814.4046, 111.9628
814.8867, 112.6195
815.3688, 112.9658
815.8510, 113.4080
816.3331, 114.2231
816.8152, 115.2266
817.2973, 116.1525
817.7794, 116.9973
818.2615, 117.7367
818.7437, 118.1802
819.2258, 118.6752
819.7079, 119.4460
820.1900, 120.4506
820.6721, 121.3005
821.1542, 121.9067
821.6364, 122.5674
822.1185, 123.4220
822.6006, 124.3787
823.0827, 125.1126
823.5648, 125.6615
824.0469, 126.3797
824.5291, 127.6670
825.0112, 129.0404
825.4933, 129.9509
825.9754, 130.5611
826.4575, 131.3983
826.9396, 132.8578
827.4218, 134.3108
827.9039, 135.6151
828.3860, 136.7844
828.8681, 137.7500
829.3502, 138.4463
829.8323, 139.3952
830.3145, 140.8693
830.7966, 142.5802
831.2787, 143.8838
831.7608, 144.9471
832.2429, 146.2457
832.7250, 148.3032
833.2072, 150.3699
833.6893, 151.9291
834.1714, 153.1998
834.6535, 154.7838
835.1356, 156.9117
835.6177, 158.9863
836.0999, 160.8964
836.5820, 162.7294
837.0641, 164.6769
837.5462, 166.7390
838.0283, 168.9085
838.5104, 171.1597
838.9926, 173.5600
839.4747, 176.2762
839.9568, 179.1637
840.4389, 182.0113
840.9210, 184.7975
841.4031, 187.4417
841.8853, 189.6689
842.3674, 191.8485
842.8495, 194.5388
843.3316, 197.8479
843.8137, 201.1781
844.2958, 204.5310
844.7780, 207.6198
845.2601, 209.6966
845.7422, 211.1922
846.2243, 213.2742
846.7064, 216.5303
847.1885, 219.7183
847.6707, 222.0610
848.1528, 223.9747
848.6349, 225.9516
849.1170, 228.1503
849.5991, 230.2265
850.0812, 232.2912
850.5634, 234.0603
851.0455, 235.1424
851.5276, 235.6149
852.0097, 236.0655
852.4918, 236.5857
852.9739, 236.9929
853.4561, 237.1622
853.9382, 237.1064
854.4203, 236.8395
854.9024, 236.3679
855.3845, 235.6543
855.8666, 234.5716
856.3488, 233.3298
856.8309, 232.1153
857.3130, 230.9581
857.7951, 229.3838
858.2772, 227.3331
858.7593, 225.3342
859.2415, 223.6811
859.7236, 222.4646
860.2057, 222.0132
860.6878, 222.3470
861.1699, 222.4973
861.6520, 221.3365
862.1342, 220.3947
862.6163, 220.7772
863.0984, 222.5179
863.5805, 224.0101
864.0626, 224.9864
864.5447, 226.5014
865.0269, 229.4306
865.5090, 233.3476
865.9911, 236.5207
866.4732, 239.0834
866.9553, 242.0636
867.4374, 245.9714
867.9196, 250.6090
868.4017, 255.9583
868.8838, 261.9164
869.3659, 267.9085
869.8480, 273.9593
870.3301, 279.7954
870.8123, 285.2609
871.2944, 290.5360
871.7765, 296.5486
872.2586, 303.1293
872.7407, 309.2900
873.2228, 314.2126
873.7050, 318.8450
874.1871, 324.2765
874.6692, 330.1344
875.1513, 335.6970
875.6334, 340.2640
876.1155, 345.0894
876.5977, 350.8408
877.0798, 356.7357
877.5619, 361.1950
878.0440, 364.1132
878.5261, 367.1465
879.0082, 370.7055
879.4904, 374.4099
879.9725, 377.8649
880.4546, 381.1528
880.9367, 384.4084
881.4188, 387.6367
881.9009, 390.9022
882.3831, 394.4682
882.8652, 397.9480
883.3473, 400.9007
883.8294, 403.3079
884.3115, 405.3875
884.7936, 407.1411
885.2758, 408.6054
885.7579, 409.8318
886.2400, 410.7995
886.7221, 411.4237
887.2042, 411.6836
887.6863, 411.7724
888.1685, 412.0134
888.6506, 411.9628
889.1327, 411.3071
889.6148, 410.0202
890.0969, 408.1400
890.5790, 405.5127
891.0612, 402.6123
891.5433, 399.7473
892.0254, 396.8232
892.5075, 393.5291
892.9896, 389.8636
893.4717, 385.9971
893.9539, 382.1427
894.4360, 377.9617
894.9181, 373.0444
895.4002, 367.4911
895.8823, 362.2373
896.3644, 357.4078
896.8466, 352.6709
897.3287, 347.8237
897.8108, 343.0705
898.2929, 339.0169
898.7750, 335.5410
899.2571, 331.6972
899.7393, 326.8369
900.2214, 321.9240
900.7035, 317.9503
901.1856, 314.4666
901.6677, 310.8041
902.1498, 306.4276
902.6320, 302.3051
903.1141, 298.4185
903.5962, 294.8524
904.0783, 291.8968
904.5604, 289.4828
905.0425, 287.0529
905.5247, 284.5314
906.0068, 281.9456
906.4889, 279.3037
906.9710, 276.6246
907.4531, 273.9140
907.9352, 271.1025
908.4174, 268.4611
908.8995, 266.1706
909.3816, 263.8716
909.8637, 261.2631
910.3458, 258.3162
910.8279, 256.1790
911.3101, 254.8692
911.7922, 253.3970
912.2743, 250.6350
912.7564, 247.6024
913.2385, 245.5723
913.7206, 244.4329
914.2028, 243.0293
914.6849, 240.9200
915.1670, 238.5877
915.6491, 236.1063
916.1312, 233.5334
916.6133, 231.2060
917.0955, 229.1262
917.5776, 226.6056
918.0597, 223.1338
918.5418, 219.4565
919.0239, 216.7068
919.5060, 214.3916
919.9882, 211.5998
920.4703, 207.5574
920.9524, 203.5746
921.4345, 199.8552
921.9166, 196.3315
922.3987, 192.9684
922.8809, 189.7585
923.3630, 186.6294
923.8451, 183.5828
924.3272, 180.4302
924.8093, 176.7882
925.2914, 173.0322
925.7736, 169.7403
926.2557, 167.0249
926.7378, 164.4711
927.2199, 162.2265
927.7020, 159.8924
928.1841, 157.1249
928.6663, 153.9387
929.1484, 151.6237
929.6305, 150.1974
930.1126, 148.8649
930.5947, 147.1118
931.0768, 145.1397
931.5590, 143.0708
932.0411, 140.9746
932.5232, 139.2378
933.0053, 138.2261
933.4874, 137.2693
933.9695, 136.2132
934.4517, 135.0780
934.9338, 133.8658
935.4159, 132.5849
935.8980, 131.2926
936.3801, 130.0012
936.8622, 128.7852
937.3444, 127.8086
937.8265, 126.9690
938.3086, 126.0963
938.7907, 125.0948
939.2728, 124.1810
939.7549, 123.4098
940.2371, 122.7241
940.7192, 122.1309
941.2013, 121.6423
941.6834, 120.7506
942.1655, 119.4175
942.6476, 118.1724
943.1298, 117.4909
943.6119, 117.1290
944.0940, 116.9107
944.5761, 116.8036
945.0582, 116.5365
945.5403, 115.9275
946.0225, 115.2883
946.5046, 114.7045
946.9867, 114.1700
947.4688, 113.6308
947.9509, 113.0980
948.4330, 112.6356
948.9152, 112.2902
949.3973, 112.0013
949.8794, 111.7658
950.3615, 111.5327
950.8436, 111.2101
951.3257, 110.6772
951.8079, 110.2001
952.2900, 109.8140
952.7721, 109.4609
953.2542, 109.0681
953.7363, 108.6424
954.2184, 108.2191
954.7006, 107.7957
955.1827, 107.4434
955.6648, 107.2318
956.1469, 107.1034
956.6290, 107.0308
957.1111, 107.0208
957.5933, 106.9463
958.0754, 106.7043
958.5575, 106.6106
959.0396, 106.9533
959.5217, 107.5094
960.0038, 107.3582
960.4860, 106.6420
960.9681, 106.0995
961.4502, 106.1971
961.9323, 106.5144
962.4144, 106.9246
962.8965, 107.3584
963.3787, 107.6402
963.8608, 107.6412
964.3429, 107.8458
964.8250, 108.3811
965.3071, 108.9711
965.7892, 109.1793
966.2714, 109.1476
966.7535, 109.2792
967.2356, 109.6822
967.7177, 109.9326
968.1998, 109.4286
968.6819, 108.9848
969.1641, 109.3316
969.6462, 110.5688
970.1283, 111.0654
970.6104, 110.7177
971.0925, 110.2475
971.5746, 110.1182
972.0568, 110.1128
972.5389, 109.6645
973.0210, 108.9690
973.5031, 108.6873
973.9852, 109.6398
974.4673, 110.3882
974.9495, 110.3615
975.4316, 109.9783
975.9137, 110.0046
976.3958, 110.4789
976.8779, 110.6258
977.3600, 110.2504
977.8422, 109.8068
978.3243, 109.8830
978.8064, 110.1303
979.2885, 110.0621
979.7706, 109.5027
980.2527, 109.1226
980.7349, 109.1049
981.2170, 109.1778
981.6991, 109.1979
982.1812, 109.1808
982.6633, 109.2382
983.1454, 109.3710
983.6276, 109.6017
984.1097, 110.0356
984.5918, 110.4868
985.0739, 110.6998
985.5560, 110.8191
986.0381, 111.2662
986.5203, 112.2994
987.0024, 113.1450
987.4845, 113.6620
987.9666, 114.0458
988.4487, 114.5384
988.9308, 115.1318
989.4130, 115.8426
989.8951, 116.6918
990.3772, 117.5159
990.8593, 118.1909
991.3414, 118.8271
991.8235, 119.4271
992.3057, 119.9760
992.7878, 121.0992
993.2699, 122.9436
993.7520, 124.5180
994.2341, 125.1339
994.7162, 125.2641
995.1984, 125.5575
995.6805, 126.0325
996.1626, 126.7317
996.6447, 127.9005
997.1268, 129.0124
997.6089, 129.9696
998.0911, 130.8173
998.5732, 131.6219
999.0553, 132.3858
999.5374, 132.9821
1000.020, 133.3784
1000.502, 133.6655
1000.984, 133.9497
1001.466, 134.1406
1001.948, 134.1069
1002.430, 133.8118
1002.912, 133.5742
1003.394, 133.3850
1003.876, 133.3368
1004.359, 133.5919
1004.841, 133.9402
1005.323, 133.6513
1005.805, 132.8523
1006.287, 132.0757
1006.769, 131.7609
1007.251, 131.2431
1007.733, 129.8794
1008.216, 128.2541
1008.698, 127.2220
1009.180, 126.9618
1009.662, 126.6053
1010.144, 126.1030
1010.626, 125.5304
1011.108, 124.9459
1011.590, 124.3596
1012.072, 123.8427
1012.555, 123.3808
1013.037, 122.7514
1013.519, 121.6696
1014.001, 120.6477
1014.483, 119.8544
1014.965, 119.2310
1015.447, 118.5929
1015.929, 117.9399
1016.411, 117.2722
1016.894, 116.5238
1017.376, 115.9207
1017.858, 115.9020
1018.340, 116.0397
1018.822, 115.7594
1019.304, 114.6609
1019.786, 114.0361
1020.268, 114.0476
1020.751, 114.1035
1021.233, 113.6749
1021.715, 112.9564
1022.197, 112.4753
1022.679, 112.2071
1023.161, 111.9558
1023.643, 111.6589
1024.125, 111.3173
1024.607, 110.8317
1025.090, 110.3369
1025.572, 110.1466
1026.054, 110.2791
1026.536, 110.4605
1027.018, 110.6698
1027.500, 110.7777
1027.982, 110.5834
1028.464, 110.2440
1028.947, 109.9135
1029.429, 109.5967
1029.911, 109.4279
1030.393, 109.4319
1030.875, 109.5523
1031.357, 109.8861
1031.839, 110.2690
1032.321, 110.0022
1032.803, 109.2290
1033.286, 108.5423
1033.768, 108.1843
1034.250, 108.0437
1034.732, 108.3022
1035.214, 108.6375
1035.696, 108.5540
1036.178, 107.9460
1036.660, 107.5304
1037.143, 107.3869
1037.625, 107.1847
1038.107, 106.4324
1038.589, 105.5430
1039.071, 105.0782
1039.553, 105.0478
1040.035, 104.9833
1040.517, 104.7500
1041.000, 104.5402
1041.482, 104.4767
1041.964, 104.4051
1042.446, 103.7892
1042.928, 102.8057
1043.410, 102.2695
1043.892, 102.6270
1044.374, 102.8520
1044.856, 102.0785
1045.339, 101.0652
1045.821, 100.4810
1046.303, 100.3777
1046.785, 100.5013
1047.267, 100.9044
1047.749, 101.0751
1048.231, 100.3211
1048.713, 99.38525
1049.195, 99.34937
1049.677, 99.93516
1050.160, 100.3307
1050.642, 100.0803
1051.124, 99.93046
1051.606, 99.95997
1052.088, 100.1191
1052.570, 100.4071
1053.052, 100.7726
1053.534, 100.9711
1054.017, 100.9687
1054.499, 100.9823
1054.981, 100.9935
1055.463, 101.2096
1055.945, 101.9106
1056.427, 102.9659
1056.909, 103.5680
1057.391, 103.6672
1057.874, 103.9187
1058.356, 104.6176
1058.838, 105.4159
1059.320, 106.0072
1059.802, 106.3728
1060.284, 106.4552
1060.766, 105.9234
1061.248, 105.9166
1061.730, 106.6679
1062.213, 107.5508
1062.695, 108.1920
1063.177, 108.5973
1063.659, 108.7795
1064.141, 108.7515
1064.623, 108.5684
1065.105, 107.9107
1065.587, 107.4999
1066.070, 107.8999
1066.552, 108.5646
1067.034, 108.6349
1067.516, 108.0872
1067.998, 107.6980
1068.480, 107.5668
1068.962, 107.5255
1069.444, 107.5536
1069.927, 107.5073
1070.409, 107.1917
1070.891, 106.6039
1071.373, 106.1939
1071.855, 106.1009
1072.337, 105.7979
1072.819, 104.9950
1073.301, 104.0949
1073.783, 103.9832
1074.266, 104.2865
1074.748, 104.1612
1075.230, 103.1384
1075.712, 102.3747
1076.194, 102.4786
1076.676, 102.5732
1077.158, 102.0224
1077.640, 100.9301
1078.122, 100.4252
1078.604, 100.4452
1079.087, 100.4611
1079.569, 100.2626
1080.051, 99.87602
1080.533, 99.14899
1081.015, 98.30408
1081.497, 97.74262
1081.979, 97.54906
1082.461, 97.27489
1082.944, 96.87608
1083.426, 96.47787
1083.908, 96.15186
1084.390, 95.93114
1084.872, 95.94852
1085.354, 96.17099
1085.836, 96.16106
1086.318, 95.72729
1086.801, 95.31136
1087.283, 95.01469
1087.765, 94.79258
1088.247, 94.58637
1088.729, 94.38467
1089.211, 94.13711
1089.693, 93.80177
1090.175, 93.57812
1090.657, 93.66270
1091.140, 93.77535
1091.622, 93.77348
1092.104, 93.66505
1092.586, 93.49497
1093.068, 93.26875
1093.550, 93.06609
1094.032, 92.95077
1094.514, 92.82616
1094.997, 92.58239
1095.479, 92.30698
1095.961, 92.12037
1096.443, 92.06040
1096.925, 91.97735
1097.407, 91.87539
1097.889, 91.71705
1098.371, 91.45545
1098.854, 91.13499
1099.336, 90.76136
1099.818, 90.37025
1100.300, 90.09704
1100.782, 89.99501
1101.264, 89.99751
1101.746, 90.16763
1102.228, 90.29971
1102.710, 90.05507
1103.193, 89.56915
1103.675, 89.14408
1104.157, 88.81861
1104.639, 88.58430
1105.121, 88.45516
1105.603, 88.40867
1106.085, 88.49594
1106.567, 88.62316
1107.049, 88.43383
1107.531, 87.97685
1108.014, 87.67423
1108.496, 87.67843
1108.978, 87.70391
1109.460, 87.41612
1109.942, 87.16103
1110.424, 87.32268
1110.906, 87.92892
1111.388, 88.12284
1111.871, 87.87337
1112.353, 87.65816
1112.835, 87.75382
1113.317, 87.95284
1113.799, 88.08599
1114.281, 88.14843
1114.763, 88.12568
1115.245, 87.95536
1115.728, 87.85313
1116.210, 87.86297
1116.692, 87.80200
1117.174, 87.34975
1117.656, 86.80755
1118.138, 86.81502
1118.620, 87.25507
1119.102, 87.59457
1119.584, 87.53655
1120.067, 87.52394
1120.549, 87.66245
1121.031, 87.81049
1121.513, 87.76600
1121.995, 87.57010
1122.477, 87.35250
1122.959, 87.12471
1123.441, 86.91578
1123.924, 86.69790
1124.406, 86.55633
1124.888, 86.55505
1125.370, 86.63578
1125.852, 86.66859
1126.334, 86.64758
1126.816, 86.45260
1127.298, 86.00425
1127.781, 85.65354
1128.263, 85.77271
1128.745, 86.01470
1129.227, 86.07605
1129.709, 85.96251
1130.191, 86.01756
1130.673, 86.26363
1131.155, 86.30582
1131.637, 85.86254
1132.120, 85.36784
1132.602, 85.27238
1133.084, 85.41816
1133.566, 85.60063
1134.048, 85.81312
1134.530, 86.01493
1135.012, 86.24370
1135.494, 86.30354
1135.976, 85.88002
1136.458, 85.33267
1136.941, 85.31553
1137.423, 85.64135
1137.905, 85.85313
1138.387, 85.64830
1138.869, 85.61064
1139.351, 85.83463
1139.833, 86.08535
1140.315, 86.11551
1140.798, 85.99982
1141.280, 85.91497
1141.762, 85.85835
1142.244, 85.76655
1142.726, 85.45676
1143.208, 85.33427
1143.690, 85.56789
1144.172, 85.91958
1144.655, 86.04397
1145.137, 85.97173
1145.619, 85.78477
1146.101, 85.49257
1146.583, 85.29753
1147.065, 85.44436
1147.547, 85.56520
1148.029, 85.43864
1148.511, 85.18887
1148.994, 85.26927
1149.476, 85.61660
1149.958, 85.56978
1150.440, 84.86779
1150.922, 84.31150
1151.404, 84.72960
1151.886, 85.30382
1152.368, 85.35032
1152.851, 84.93840
1153.333, 84.81590
1153.815, 84.98282
1154.297, 85.25126
1154.779, 85.63737
1155.261, 85.90279
1155.743, 85.67885
1156.225, 85.29136
1156.708, 85.13831
1157.190, 85.27347
1157.672, 85.30219
1158.154, 85.19982
1158.636, 85.21402
1159.118, 85.56740
1159.600, 86.01439
1160.082, 86.43439
1160.564, 86.70891
1161.047, 86.58848
1161.529, 85.74733
1162.011, 85.25285
1162.493, 85.15710
1162.975, 85.20257
1163.457, 85.20590
1163.939, 85.21837
1164.421, 85.36238
1164.903, 85.57697
1165.385, 85.67437
1165.868, 85.51908
1166.350, 85.41348
1166.832, 85.38132
1167.314, 85.39512
1167.796, 85.38094
1168.278, 85.41415
1168.760, 85.75806
1169.242, 86.33835
1169.725, 86.61021
1170.207, 86.05421
1170.689, 85.72492
1171.171, 85.86635
1171.653, 86.13301
1172.135, 85.92873
1172.617, 85.50426
1173.099, 85.53513
1173.582, 86.08030
1174.064, 86.33691
1174.546, 85.51151
1175.028, 85.04031
1175.510, 85.44791
1175.992, 86.21434
1176.474, 86.24980
1176.956, 85.77849
1177.438, 85.40582
1177.921, 85.23411
1178.403, 85.25834
1178.885, 85.71868
1179.367, 86.09793
1179.849, 86.17944
1180.331, 86.04459
1180.813, 85.89587
1181.295, 85.74512
1181.778, 85.63541
1182.260, 85.57992
1182.742, 85.56270
1183.224, 85.56443
1183.706, 85.62328
1184.188, 85.80276
1184.670, 86.05311
1185.152, 86.01017
1185.635, 85.75156
1186.117, 85.70533
1186.599, 86.21243
1187.081, 86.58272
1187.563, 86.29073
1188.045, 85.88406
1188.527, 85.77390
1189.009, 85.93847
1189.491, 86.13069
1189.974, 86.33408
1190.456, 86.42663
1190.938, 86.32678
1191.420, 86.13115
1191.902, 85.70958
1192.384, 85.34715
1192.866, 85.37641
1193.348, 85.80974
1193.830, 85.99451
1194.313, 85.94538
1194.795, 85.86205
1195.277, 85.87392
1195.759, 85.87170
1196.241, 85.73849
1196.723, 85.59285
1197.205, 85.60373
1197.687, 85.77708
1198.169, 85.91968
1198.652, 86.01961
1199.134, 85.99326
1199.616, 85.55884
1200.098, 85.22004
1200.580, 85.47800
1201.062, 85.93922
1201.544, 85.87877
1202.026, 85.27487
1202.509, 85.04655
1202.991, 85.27692
1203.473, 85.52578
1203.955, 85.36970
1204.437, 85.22849
1204.919, 85.48537
1205.401, 85.92429
1205.883, 86.01599
1206.365, 85.74973
1206.848, 85.70628
1207.330, 85.97753
1207.812, 86.18794
1208.294, 85.96748
1208.776, 85.66005
1209.258, 85.49146
1209.740, 85.43156
1210.222, 85.39819
1210.705, 85.39178
1211.187, 85.40398
1211.669, 85.42924
1212.151, 85.51564
1212.633, 85.84584
1213.115, 86.12410
1213.597, 86.10930
1214.079, 85.85841
1214.562, 85.34246
1215.044, 84.58470
1215.526, 84.86001
1216.008, 86.71754
1216.490, 88.22676
1216.972, 87.42680
1217.454, 86.05874
1217.936, 85.41343
1218.418, 85.38081
1218.901, 85.34374
1219.383, 85.30505
1219.865, 85.37975
1220.347, 85.64121
1220.829, 85.85403
1221.311, 85.73496
1221.793, 85.59617
1222.275, 85.74401
1222.757, 86.10374
1223.240, 85.99784
1223.722, 85.47910
1224.204, 85.26649
1224.686, 85.74086
1225.168, 86.16020
1225.650, 85.93019
1226.132, 85.53020
1226.614, 85.32690
1227.096, 85.30270
1227.579, 85.29454
1228.061, 85.30325
1228.543, 85.33961
1229.025, 85.42558
1229.507, 85.49501
1229.989, 85.50203
1230.471, 85.47750
1230.953, 85.41969
1231.436, 85.34440
1231.918, 85.48684
1232.400, 85.79723
1232.882, 85.92797
1233.364, 85.64558
1233.846, 85.32715
1234.328, 85.09856
1234.810, 84.95965
1235.292, 84.93922
1235.775, 85.01623
1236.257, 84.95948
1236.739, 84.81628
1237.221, 84.83965
1237.703, 85.27878
1238.185, 85.68144
1238.667, 85.94599
1239.149, 86.03144
1239.632, 85.79898
1240.114, 85.34022
1240.596, 85.24839
1241.078, 85.43362
1241.560, 85.50977
1242.042, 85.06645
1242.524, 84.85229
1243.006, 85.18014
1243.489, 85.60471
1243.971, 85.81223
1244.453, 85.82525
1244.935, 85.64460
1245.417, 85.33475
1245.899, 85.14091
1246.381, 85.28803
1246.863, 85.38390
1247.345, 85.39065
1247.828, 85.30520
1248.310, 84.99165
1248.792, 84.62571
1249.274, 84.80630
1249.756, 85.36782
1250.238, 85.72793
1250.720, 85.46549
1251.202, 85.30204
1251.684, 85.28503
1252.167, 85.39190
1252.649, 85.74345
1253.131, 86.13460
1253.613, 86.13329
1254.095, 85.81947
1254.577, 85.46722
1255.059, 84.90681
1255.541, 84.82066
1256.023, 85.36649
1256.506, 85.96797
1256.988, 86.07482
1257.470, 85.96159
1257.952, 86.05112
1258.434, 86.24924
1258.916, 86.20972
1259.398, 85.71066
1259.880, 85.58252
1260.363, 85.93761
1260.845, 86.27592
1261.327, 86.10516
1261.809, 85.76355
1262.291, 85.49956
1262.773, 85.36732
1263.255, 85.52946
1263.737, 86.14818
1264.219, 86.16745
1264.702, 85.47388
1265.184, 84.82847
1265.666, 84.89329
1266.148, 85.16345
1266.630, 85.35262
1267.112, 85.42353
1267.594, 85.31693
1268.076, 85.01675
1268.559, 84.78045
1269.041, 84.62636
1269.523, 84.56268
1270.005, 84.72562
1270.487, 84.83821
1270.969, 84.58177
1271.451, 84.27054
1271.933, 84.41965
1272.416, 84.97506
1272.898, 85.16715
1273.380, 84.98562
1273.862, 84.92731
1274.344, 85.56516
1274.826, 86.00460
1275.308, 85.85806
1275.790, 85.47318
1276.272, 85.26205
1276.755, 85.18504
1277.237, 85.05824
1277.719, 84.89609
1278.201, 84.86333
1278.683, 85.17817
1279.165, 85.42764
1279.647, 85.53126
1280.129, 85.56209
1280.611, 85.56153
1281.094, 85.56883
1281.576, 85.69504
1282.058, 85.91689
1282.540, 86.09843
1283.022, 86.30424
1283.504, 86.22839
1283.986, 85.76189
1284.468, 85.28006
1284.950, 85.16970
1285.433, 85.25957
1285.915, 85.44979
1286.397, 85.64934
1286.879, 85.48315
1287.361, 84.68953
1287.843, 84.56968
1288.325, 85.30677
1288.807, 86.15302
1289.290, 86.57944
1289.772, 86.73006
1290.254, 86.61533
1290.736, 86.34323
1291.218, 86.12218
1291.700, 85.93679
1292.182, 86.11404
1292.664, 86.67151
1293.146, 87.05095
1293.629, 86.62985
1294.111, 86.17210
1294.593, 86.21233
1295.075, 86.40223
1295.557, 86.25508
1296.039, 85.83649
1296.521, 85.75746
1297.003, 85.99940
1297.486, 86.12720
1297.968, 85.64694
1298.450, 85.42921
1298.932, 85.85577
1299.414, 86.34612
1299.896, 86.10796
1300.378, 85.46530
1300.860, 85.35332
1301.343, 85.70673
1301.825, 86.04057
##END=



