##NAMES=Tweddillite
##RRUFFID=R120125
##IDEAL CHEMISTRY=CaSrMn^3+^_2_Al(Si_2_O_7_)(SiO_4_)O(OH)
##LOCALITY=Wessels mine, Kalahari manganese field, Cape Province, South Africa
##OWNER=RRUFF
##SOURCE=William W. Pinch
##DESCRIPTION=Sprays of dark red elongated crystals
##STATUS=The identification of this mineral has been confirmed only by single crystal X-ray diffraction.
##URL=rruff.info/R120125
91.55994, 238.8587
92.04205, 246.1259
92.52417, 257.0392
93.00629, 269.3201
93.48840, 280.6801
93.97052, 289.0862
94.45264, 293.5662
94.93475, 298.6519
95.41687, 302.0970
95.89898, 303.3741
96.38110, 303.9533
96.86321, 305.3359
97.34533, 307.9706
97.82745, 310.5704
98.30956, 311.6429
98.79168, 310.8955
99.27380, 309.7220
99.75591, 308.4122
100.2380, 306.8874
100.7201, 305.0523
101.2023, 303.0566
101.6844, 300.5117
102.1665, 296.6571
102.6486, 290.8926
103.1307, 284.1991
103.6128, 277.4541
104.0950, 270.6495
104.5771, 263.5750
105.0592, 255.7183
105.5413, 247.4591
106.0234, 239.4012
106.5055, 231.8159
106.9877, 224.6000
107.4698, 217.2164
107.9519, 208.8523
108.4340, 201.3717
108.9161, 195.6203
109.3982, 191.2845
109.8804, 187.6439
110.3625, 184.0937
110.8446, 180.6178
111.3267, 177.3891
111.8088, 174.3969
112.2909, 171.6182
112.7731, 169.0137
113.2552, 166.6031
113.7373, 164.4403
114.2194, 162.6393
114.7015, 161.3931
115.1836, 160.1892
115.6658, 159.0304
116.1479, 157.9048
116.6300, 156.7793
117.1121, 155.6338
117.5942, 154.5224
118.0763, 153.5944
118.5584, 152.8307
119.0406, 152.2124
119.5227, 151.7296
120.0048, 151.3875
120.4869, 151.2185
120.9690, 151.3018
121.4511, 151.5297
121.9333, 151.6734
122.4154, 151.7390
122.8975, 151.7091
123.3796, 151.5739
123.8617, 151.3343
124.3438, 150.9733
124.8260, 150.3446
125.3081, 149.6357
125.7902, 149.0049
126.2723, 148.5105
126.7544, 148.1261
127.2365, 147.8000
127.7187, 147.5280
128.2008, 147.3333
128.6829, 147.2984
129.1650, 147.3160
129.6471, 147.2669
130.1292, 147.1001
130.6114, 146.8046
131.0935, 146.2008
131.5756, 145.0229
132.0577, 143.7677
132.5398, 142.4247
133.0219, 141.0854
133.5041, 139.9091
133.9862, 139.0257
134.4683, 138.4527
134.9504, 138.1370
135.4325, 138.3260
135.9146, 138.5234
136.3968, 138.3857
136.8789, 137.9048
137.3610, 137.3852
137.8431, 137.2353
138.3252, 137.5889
138.8073, 137.5402
139.2895, 136.7366
139.7716, 135.6230
140.2537, 134.6855
140.7358, 134.0276
141.2179, 133.5743
141.7000, 133.3471
142.1821, 133.3298
142.6643, 133.1814
143.1464, 132.6169
143.6285, 131.7747
144.1106, 131.1759
144.5927, 131.0780
145.0748, 131.1039
145.5570, 130.8694
146.0391, 130.3735
146.5212, 129.8979
147.0033, 129.7623
147.4854, 130.0213
147.9675, 130.0819
148.4497, 129.6419
148.9318, 129.0799
149.4139, 128.5412
149.8960, 128.0695
150.3781, 127.6961
150.8602, 127.4882
151.3424, 127.5201
151.8245, 127.5628
152.3066, 127.6046
152.7887, 127.6397
153.2708, 127.6437
153.7529, 127.6109
154.2351, 127.5828
154.7172, 127.6568
155.1993, 127.6202
155.6814, 127.9956
156.1635, 128.9772
156.6456, 130.3256
157.1278, 131.7832
157.6099, 133.2290
158.0920, 134.6611
158.5741, 136.0686
159.0562, 137.4068
159.5383, 138.7736
160.0205, 140.0620
160.5026, 141.3809
160.9847, 143.0222
161.4668, 145.2131
161.9489, 147.8199
162.4310, 150.1503
162.9131, 151.9926
163.3953, 153.7778
163.8774, 155.8399
164.3595, 158.1387
164.8416, 160.2507
165.3237, 162.0450
165.8058, 163.3863
166.2880, 164.0720
166.7701, 163.8958
167.2522, 163.2007
167.7343, 162.3796
168.2164, 161.4755
168.6985, 160.2459
169.1807, 158.4571
169.6628, 156.2911
170.1449, 153.8938
170.6270, 151.3155
171.1091, 148.5511
171.5912, 145.5482
172.0734, 142.1482
172.5555, 138.7978
173.0376, 135.4322
173.5197, 132.2318
174.0018, 129.4673
174.4839, 127.3761
174.9661, 125.8511
175.4482, 124.2679
175.9303, 122.5294
176.4124, 120.8411
176.8945, 119.1479
177.3766, 117.5478
177.8588, 116.2389
178.3409, 115.4005
178.8230, 115.0362
179.3051, 114.4653
179.7872, 113.4369
180.2693, 112.4481
180.7515, 111.5613
181.2336, 110.8280
181.7157, 110.3377
182.1978, 110.1832
182.6799, 110.4004
183.1620, 110.6265
183.6441, 111.0888
184.1263, 111.3653
184.6084, 111.1505
185.0905, 110.4983
185.5726, 109.7476
186.0547, 109.2107
186.5368, 108.9263
187.0190, 108.5805
187.5011, 108.0782
187.9832, 107.5870
188.4653, 107.3084
188.9474, 107.2511
189.4296, 107.1189
189.9117, 106.5738
190.3938, 105.6250
190.8759, 104.7418
191.3580, 103.9637
191.8401, 103.2832
192.3223, 102.7183
192.8044, 102.2882
193.2865, 101.8785
193.7686, 101.3289
194.2507, 100.6922
194.7328, 100.1568
195.2150, 99.78792
195.6971, 99.55553
196.1792, 99.44200
196.6613, 99.53159
197.1434, 99.54632
197.6255, 99.18269
198.1077, 98.57299
198.5898, 98.06387
199.0719, 97.91794
199.5540, 98.03897
200.0361, 98.01292
200.5182, 97.77395
201.0004, 97.45125
201.4825, 97.08057
201.9646, 96.68901
202.4467, 96.34302
202.9288, 96.09348
203.4109, 95.93613
203.8930, 95.80495
204.3752, 95.68425
204.8573, 95.61508
205.3394, 95.62930
205.8215, 95.70851
206.3036, 95.80598
206.7857, 95.86842
207.2679, 95.88828
207.7500, 96.02457
208.2321, 96.30888
208.7142, 96.69062
209.1963, 97.17402
209.6784, 97.74695
210.1606, 98.38917
210.6427, 99.09046
211.1248, 99.85287
211.6069, 100.6177
212.0890, 101.3618
212.5711, 102.1264
213.0533, 102.8891
213.5354, 103.6780
214.0175, 104.5948
214.4996, 105.7699
214.9817, 107.2930
215.4638, 108.4165
215.9460, 108.8377
216.4281, 109.2256
216.9102, 109.9140
217.3923, 110.8941
217.8744, 111.9819
218.3565, 113.0228
218.8387, 114.0150
219.3208, 114.9119
219.8029, 115.6226
220.2850, 116.3275
220.7671, 117.1358
221.2492, 118.0500
221.7314, 119.0065
222.2135, 119.9430
222.6956, 120.8614
223.1777, 121.8768
223.6598, 123.1845
224.1419, 124.4484
224.6240, 125.3329
225.1062, 125.8423
225.5883, 126.3587
226.0704, 127.2366
226.5525, 128.4210
227.0346, 129.4401
227.5167, 130.1875
227.9989, 130.8052
228.4810, 131.5130
228.9631, 132.3333
229.4452, 132.8319
229.9273, 132.4460
230.4094, 131.4786
230.8916, 130.7815
231.3737, 130.8489
231.8558, 131.0507
232.3379, 130.6643
232.8200, 129.6415
233.3021, 128.3680
233.7843, 126.9719
234.2664, 125.4904
234.7485, 123.9740
235.2306, 122.4716
235.7127, 120.9081
236.1948, 119.0424
236.6770, 116.7123
237.1591, 114.7172
237.6412, 113.8577
238.1233, 113.4381
238.6054, 112.6846
239.0875, 111.2761
239.5697, 109.5534
240.0518, 107.9734
240.5339, 106.4423
241.0160, 105.3554
241.4981, 105.2956
241.9802, 105.5525
242.4624, 105.4137
242.9445, 104.5730
243.4266, 103.4466
243.9087, 102.7378
244.3908, 102.5371
244.8729, 102.5287
245.3550, 102.7681
245.8372, 103.0713
246.3193, 103.2743
246.8014, 103.3185
247.2835, 103.2866
247.7656, 103.3272
248.2477, 103.4804
248.7299, 103.6094
249.2120, 103.5650
249.6941, 103.5602
250.1762, 103.8102
250.6583, 104.3730
251.1404, 105.0518
251.6226, 105.4971
252.1047, 105.5394
252.5868, 105.7308
253.0689, 106.3013
253.5510, 106.8988
254.0331, 107.2673
254.5153, 107.3459
254.9974, 107.2662
255.4795, 107.2130
255.9616, 107.1646
256.4437, 107.1998
256.9258, 107.3943
257.4080, 107.6029
257.8901, 107.6845
258.3722, 107.6374
258.8543, 107.6168
259.3364, 107.8632
259.8185, 108.5808
260.3007, 109.0412
260.7828, 109.0714
261.2649, 109.0382
261.7470, 109.1155
262.2291, 109.3489
262.7112, 109.7444
263.1934, 110.3544
263.6755, 111.3424
264.1576, 111.9164
264.6397, 111.8137
265.1218, 111.6022
265.6039, 111.7073
266.0861, 112.0646
266.5682, 112.2268
267.0503, 111.7134
267.5324, 110.3795
268.0145, 109.2852
268.4966, 108.6853
268.9788, 108.0438
269.4609, 107.1168
269.9430, 105.9113
270.4251, 104.5247
270.9072, 102.9911
271.3893, 101.3051
271.8715, 99.96140
272.3536, 99.20930
272.8357, 98.47828
273.3178, 97.48199
273.7999, 96.29967
274.2820, 95.20326
274.7642, 94.39439
275.2463, 93.83843
275.7284, 93.12200
276.2105, 92.08920
276.6926, 91.10206
277.1747, 90.21364
277.6568, 89.45675
278.1389, 88.89874
278.6211, 88.58170
279.1032, 88.48080
279.5853, 88.51096
280.0674, 88.90809
280.5495, 89.13702
281.0316, 88.89364
281.5138, 88.41223
281.9959, 88.11449
282.4780, 88.19048
282.9601, 88.52244
283.4422, 88.82578
283.9243, 89.12674
284.4065, 89.36323
284.8886, 89.37975
285.3707, 89.36096
285.8528, 89.62953
286.3349, 90.31682
286.8170, 91.16601
287.2992, 91.74641
287.7813, 92.00392
288.2634, 92.20516
288.7455, 92.38577
289.2276, 92.53027
289.7097, 92.64135
290.1919, 92.72289
290.6740, 92.70214
291.1561, 92.42594
291.6382, 91.84003
292.1203, 91.44785
292.6024, 91.58562
293.0846, 91.77688
293.5667, 91.50283
294.0488, 90.70153
294.5309, 89.75420
295.0130, 88.93699
295.4951, 88.27414
295.9773, 87.89468
296.4594, 87.93737
296.9415, 88.16846
297.4236, 88.50424
297.9057, 88.91165
298.3878, 89.18874
298.8700, 89.15545
299.3521, 88.85300
299.8342, 88.63907
300.3163, 88.37968
300.7984, 88.32573
301.2805, 88.71921
301.7627, 89.48331
302.2448, 90.27421
302.7269, 90.92958
303.2090, 91.48032
303.6911, 92.02835
304.1732, 92.53488
304.6554, 93.10255
305.1375, 93.78789
305.6196, 94.57084
306.1017, 95.44675
306.5838, 96.47971
307.0659, 97.48086
307.5481, 98.01116
308.0302, 97.97385
308.5123, 97.98604
308.9944, 98.29346
309.4765, 98.76888
309.9586, 99.21977
310.4408, 99.61098
310.9229, 99.90443
311.4050, 100.0144
311.8871, 99.94307
312.3692, 99.83378
312.8513, 99.68850
313.3335, 99.53052
313.8156, 99.36898
314.2977, 99.20312
314.7798, 99.08156
315.2619, 99.03445
315.7440, 99.07069
316.2262, 99.23336
316.7083, 99.64890
317.1904, 100.1054
317.6725, 100.4247
318.1546, 100.6075
318.6367, 100.7475
319.1188, 100.8797
319.6010, 101.0246
320.0831, 101.2554
320.5652, 101.6264
321.0473, 102.0269
321.5294, 102.4145
322.0115, 102.7850
322.4937, 103.1510
322.9758, 103.5536
323.4579, 103.9065
323.9400, 103.9693
324.4221, 103.6451
324.9042, 103.3061
325.3864, 103.0628
325.8685, 102.8968
326.3506, 102.8064
326.8327, 102.8176
327.3148, 102.8053
327.7969, 102.5505
328.2791, 102.0344
328.7612, 101.4701
329.2433, 100.9243
329.7254, 100.3385
330.2075, 99.59903
330.6896, 98.68628
331.1718, 97.77722
331.6539, 97.01446
332.1360, 96.41577
332.6181, 96.02593
333.1002, 96.03962
333.5823, 96.11878
334.0645, 95.96955
334.5466, 95.61626
335.0287, 95.31471
335.5108, 95.21719
335.9929, 95.33555
336.4750, 95.66129
336.9572, 96.12847
337.4393, 96.84120
337.9214, 97.96154
338.4035, 99.36694
338.8856, 100.7582
339.3677, 101.9926
339.8499, 103.1353
340.3320, 104.3533
340.8141, 105.6239
341.2962, 106.9873
341.7783, 108.4496
342.2604, 110.0112
342.7426, 111.6933
343.2247, 113.4958
343.7068, 115.3438
344.1889, 117.1387
344.6710, 118.8843
345.1531, 120.5357
345.6353, 122.1993
346.1174, 123.6819
346.5995, 124.7869
347.0816, 125.5200
347.5637, 126.1080
348.0458, 126.7806
348.5280, 127.5582
349.0101, 127.7870
349.4922, 127.1939
349.9743, 126.4324
350.4564, 125.8420
350.9385, 125.3089
351.4207, 124.5185
351.9028, 123.2800
352.3849, 121.6744
352.8670, 120.0205
353.3491, 118.5614
353.8312, 116.7605
354.3134, 114.2915
354.7955, 111.5529
355.2776, 108.9590
355.7597, 106.6624
356.2418, 104.6075
356.7239, 102.7062
357.2061, 101.1644
357.6882, 99.33874
358.1703, 96.89517
358.6524, 94.44023
359.1345, 92.45952
359.6166, 90.93909
360.0987, 89.49673
360.5808, 87.70325
361.0630, 85.46819
361.5451, 83.77262
362.0272, 83.25485
362.5093, 82.58141
362.9914, 81.15746
363.4735, 79.25584
363.9557, 77.44694
364.4378, 76.06814
364.9199, 75.05904
365.4020, 74.16979
365.8841, 73.48739
366.3662, 72.81670
366.8484, 72.13461
367.3305, 71.45541
367.8126, 70.76472
368.2947, 70.06889
368.7768, 69.43678
369.2589, 69.00634
369.7411, 68.89849
370.2232, 68.66311
370.7053, 68.05887
371.1874, 67.51906
371.6695, 67.37180
372.1516, 67.54688
372.6338, 67.64828
373.1159, 67.18963
373.5980, 66.20761
374.0801, 65.98660
374.5622, 67.22464
375.0443, 68.40187
375.5265, 68.99399
376.0086, 69.20661
376.4907, 69.33472
376.9728, 69.48450
377.4549, 69.72321
377.9370, 70.25781
378.4192, 71.24020
378.9013, 72.08584
379.3834, 72.62449
379.8655, 72.97359
380.3476, 73.18769
380.8297, 73.27949
381.3119, 73.29354
381.7940, 73.25418
382.2761, 73.16273
382.7582, 73.08987
383.2403, 73.12022
383.7224, 73.07283
384.2046, 72.82221
384.6867, 72.40089
385.1688, 71.92197
385.6509, 71.47881
386.1330, 71.01800
386.6151, 70.39257
387.0973, 69.56783
387.5794, 68.70800
388.0615, 67.87302
388.5436, 67.06628
389.0257, 66.28893
389.5078, 65.51910
389.9900, 64.81853
390.4721, 64.29409
390.9542, 63.91670
391.4363, 63.46445
391.9184, 62.82300
392.4005, 62.12754
392.8827, 61.57500
393.3648, 61.17375
393.8469, 60.76855
394.3290, 60.18351
394.8111, 59.59529
395.2932, 59.35187
395.7754, 59.52752
396.2575, 59.76018
396.7396, 59.72450
397.2217, 59.44032
397.7038, 59.22046
398.1859, 58.99239
398.6681, 58.90556
399.1501, 59.14589
399.6323, 59.63179
400.1144, 60.06608
400.5965, 60.28972
401.0786, 60.38253
401.5607, 60.57867
402.0428, 60.98035
402.5250, 61.29033
403.0071, 61.27590
403.4892, 61.22557
403.9713, 61.53943
404.4534, 62.28718
404.9355, 63.12974
405.4177, 63.65721
405.8998, 63.77319
406.3819, 64.03299
406.8640, 64.49434
407.3461, 65.02252
407.8282, 65.56478
408.3104, 66.12059
408.7925, 66.70168
409.2746, 67.31908
409.7567, 67.97656
410.2388, 68.70522
410.7209, 69.67078
411.2031, 70.48490
411.6852, 70.99355
412.1673, 71.40682
412.6494, 71.93731
413.1315, 72.63463
413.6136, 73.38087
414.0958, 73.98159
414.5779, 74.34239
415.0600, 74.95200
415.5421, 76.16077
416.0242, 77.29433
416.5063, 77.92222
416.9885, 78.25723
417.4706, 78.81824
417.9527, 79.96325
418.4348, 81.55692
418.9169, 83.13790
419.3990, 84.58883
419.8812, 86.28063
420.3633, 88.41272
420.8454, 90.76273
421.3275, 93.15398
421.8096, 95.54324
422.2917, 97.91391
422.7739, 100.1573
423.2560, 102.2889
423.7381, 104.7299
424.2202, 107.6193
424.7023, 110.7367
425.1844, 113.9856
425.6666, 117.3224
426.1487, 120.6162
426.6308, 124.0602
427.1129, 127.3226
427.5950, 129.8281
428.0771, 131.5641
428.5593, 133.0030
429.0414, 134.4067
429.5235, 135.6271
430.0056, 136.4662
430.4877, 136.9972
430.9698, 136.9824
431.4520, 136.2561
431.9341, 134.9113
432.4162, 133.0045
432.8983, 130.5061
433.3804, 127.8230
433.8625, 125.4025
434.3447, 123.2823
434.8268, 121.2358
435.3089, 119.2340
435.7910, 117.3212
436.2731, 115.4473
436.7552, 113.6794
437.2374, 112.2386
437.7195, 111.2782
438.2016, 110.6923
438.6837, 110.0985
439.1658, 109.3908
439.6479, 108.8119
440.1301, 108.3704
440.6122, 108.0713
441.0943, 107.9189
441.5764, 107.9166
442.0585, 108.0838
442.5406, 108.4814
443.0227, 109.1715
443.5049, 109.6475
443.9870, 109.6870
444.4691, 109.7400
444.9512, 110.0313
445.4333, 110.4105
445.9154, 110.6073
446.3976, 110.4692
446.8797, 110.1357
447.3618, 109.9361
447.8439, 109.9592
448.3260, 109.8497
448.8081, 109.4343
449.2903, 108.9414
449.7724, 108.5772
450.2545, 108.3184
450.7366, 107.8864
451.2187, 106.9892
451.7008, 105.7260
452.1830, 104.5812
452.6651, 103.6812
453.1472, 102.6166
453.6293, 101.0488
454.1114, 99.18466
454.5935, 97.29319
455.0757, 95.47104
455.5578, 93.56748
456.0399, 91.32054
456.5220, 88.84616
457.0041, 86.64526
457.4862, 84.92515
457.9684, 83.38017
458.4505, 81.55265
458.9326, 79.43900
459.4147, 77.55995
459.8968, 76.16064
460.3789, 74.93183
460.8611, 73.60210
461.3432, 72.18047
461.8253, 70.83491
462.3074, 69.67871
462.7895, 68.65703
463.2716, 67.50986
463.7538, 65.97621
464.2359, 64.66589
464.7180, 63.75938
465.2001, 63.03644
465.6822, 62.27875
466.1643, 61.43950
466.6465, 60.60831
467.1286, 59.87540
467.6107, 59.23242
468.0928, 58.71597
468.5749, 58.45467
469.0570, 58.18351
469.5392, 57.85505
470.0213, 57.46616
470.5034, 57.01311
470.9855, 56.49188
471.4676, 55.93761
471.9497, 55.40360
472.4319, 54.88508
472.9140, 54.41150
473.3961, 53.99475
473.8782, 53.62464
474.3603, 53.28426
474.8424, 52.98420
475.3246, 52.75834
475.8067, 52.68996
476.2888, 52.68944
476.7709, 52.50877
477.2530, 52.10082
477.7351, 51.82389
478.2173, 51.95664
478.6994, 52.26251
479.1815, 52.34000
479.6636, 52.09899
480.1457, 51.90366
480.6278, 51.99464
481.1100, 52.23949
481.5920, 52.39462
482.0742, 52.41519
482.5563, 52.38957
483.0384, 52.35387
483.5205, 52.32178
484.0026, 52.51843
484.4847, 53.10189
484.9669, 53.72550
485.4490, 54.24188
485.9311, 54.70647
486.4132, 55.22896
486.8953, 55.85148
487.3774, 56.51711
487.8596, 57.12020
488.3417, 57.60769
488.8238, 58.19416
489.3059, 58.89011
489.7880, 59.65536
490.2701, 60.50516
490.7523, 61.40511
491.2344, 62.27339
491.7165, 63.04364
492.1986, 63.78984
492.6807, 64.74606
493.1628, 66.01839
493.6450, 67.20079
494.1271, 68.00182
494.6092, 68.82729
495.0913, 70.07095
495.5734, 71.69051
496.0555, 73.16065
496.5377, 73.92365
497.0198, 74.26768
497.5019, 75.03469
497.9840, 76.33784
498.4661, 77.61124
498.9482, 78.55005
499.4304, 79.26427
499.9125, 79.97878
500.3946, 80.73430
500.8767, 81.42421
501.3588, 82.02653
501.8409, 82.52449
502.3231, 82.94949
502.8052, 83.30936
503.2873, 83.40295
503.7694, 83.00110
504.2515, 82.07817
504.7336, 81.17606
505.2158, 80.49863
505.6979, 79.61551
506.1800, 78.28246
506.6621, 76.67124
507.1442, 75.04416
507.6263, 73.49648
508.1085, 71.96043
508.5906, 70.32210
509.0727, 68.50717
509.5548, 66.85290
510.0369, 65.49175
510.5190, 64.16337
511.0012, 62.68053
511.4833, 61.16580
511.9654, 59.88731
512.4475, 59.01423
512.9296, 58.31561
513.4117, 57.28027
513.8939, 55.81183
514.3760, 54.74857
514.8581, 54.59768
515.3402, 54.58268
515.8223, 53.99228
516.3044, 52.91108
516.7866, 51.94401
517.2687, 51.43623
517.7508, 51.12367
518.2329, 50.66087
518.7150, 50.05514
519.1971, 49.48958
519.6793, 49.06678
520.1614, 48.71532
520.6435, 48.25262
521.1256, 47.57267
521.6077, 47.09796
522.0898, 47.14372
522.5720, 47.25428
523.0541, 46.95063
523.5362, 46.27943
524.0183, 45.66536
524.5004, 45.42228
524.9825, 45.48281
525.4647, 45.49762
525.9468, 45.43653
526.4289, 45.36974
526.9110, 45.32175
527.3931, 45.25850
527.8752, 45.12651
528.3574, 44.93675
528.8395, 44.77847
529.3216, 44.76099
529.8037, 44.84843
530.2858, 44.79815
530.7679, 44.53135
531.2501, 44.31044
531.7322, 44.23791
532.2143, 44.27533
532.6964, 44.42938
533.1785, 44.72506
533.6606, 44.96818
534.1428, 45.00859
534.6249, 44.91113
535.1070, 44.78628
535.5891, 44.64111
536.0712, 44.56557
536.5533, 44.65615
537.0355, 44.87892
537.5176, 45.01211
537.9997, 44.92816
538.4818, 44.91908
538.9639, 45.10006
539.4460, 45.38643
539.9282, 45.66817
540.4103, 45.92470
540.8924, 46.22903
541.3745, 46.68606
541.8566, 47.30738
542.3387, 47.67652
542.8209, 47.45642
543.3029, 47.37895
543.7850, 47.66030
544.2672, 48.12482
544.7493, 48.56593
545.2314, 48.92950
545.7135, 49.31606
546.1956, 49.82999
546.6777, 50.46714
547.1599, 51.16176
547.6420, 51.92847
548.1241, 52.71114
548.6062, 53.46556
549.0883, 54.21387
549.5704, 54.99000
550.0526, 55.75820
550.5347, 56.63686
551.0168, 57.81158
551.4989, 59.13400
551.9810, 60.23346
552.4631, 61.02531
552.9453, 61.87082
553.4274, 63.09821
553.9095, 64.71545
554.3916, 66.48885
554.8737, 68.47127
555.3558, 70.51929
555.8380, 72.71899
556.3201, 74.91880
556.8022, 76.91480
557.2843, 78.66502
557.7664, 80.24492
558.2485, 81.78034
558.7307, 83.27308
559.2128, 84.46744
559.6949, 85.45439
560.1770, 85.95627
560.6591, 85.89991
561.1412, 85.37108
561.6234, 84.46320
562.1055, 83.19847
562.5876, 81.57702
563.0697, 79.40510
563.5518, 76.86391
564.0339, 74.56656
564.5161, 72.59164
564.9982, 70.76510
565.4803, 68.92297
565.9624, 67.13938
566.4445, 65.66582
566.9266, 64.61551
567.4088, 63.70991
567.8909, 62.83691
568.3730, 62.06548
568.8551, 61.49768
569.3372, 61.14249
569.8193, 60.89024
570.3015, 60.63453
570.7836, 60.38406
571.2657, 60.32573
571.7478, 60.54380
572.2299, 60.85588
572.7120, 61.20558
573.1942, 61.64956
573.6763, 62.32029
574.1584, 63.20007
574.6405, 64.01096
575.1226, 64.47263
575.6047, 64.66005
576.0869, 64.86196
576.5690, 65.06070
577.0511, 65.35141
577.5332, 65.84065
578.0153, 66.41231
578.4974, 66.84951
578.9796, 67.09728
579.4617, 67.44487
579.9438, 68.12965
580.4259, 68.89488
580.9080, 69.44718
581.3901, 69.77747
581.8723, 70.02683
582.3544, 70.27274
582.8365, 70.52544
583.3186, 70.82249
583.8007, 71.23479
584.2828, 71.58476
584.7650, 71.67382
585.2471, 71.86895
585.7292, 72.48465
586.2113, 73.43535
586.6934, 74.39546
587.1755, 75.15287
587.6577, 75.80770
588.1398, 76.65041
588.6219, 77.75330
589.1040, 78.54137
589.5861, 78.75903
590.0682, 78.73837
590.5504, 78.81393
591.0325, 78.95511
591.5146, 78.95213
591.9967, 78.67220
592.4788, 78.28118
592.9609, 77.89631
593.4431, 77.51788
593.9252, 77.14259
594.4073, 76.77266
594.8894, 76.38247
595.3715, 75.92671
595.8536, 75.37820
596.3358, 74.88512
596.8179, 74.59806
597.3000, 74.19255
597.7821, 73.36407
598.2642, 72.41273
598.7463, 71.79646
599.2285, 71.66308
599.7106, 71.70729
600.1927, 71.50693
600.6748, 71.07868
601.1569, 70.96040
601.6390, 71.33330
602.1212, 71.67778
602.6033, 71.56520
603.0854, 71.27502
603.5675, 71.25182
604.0496, 71.62536
604.5317, 72.03335
605.0139, 72.32883
605.4960, 72.53220
605.9781, 72.65716
606.4602, 72.71157
606.9423, 72.72767
607.4244, 72.72086
607.9066, 72.70232
608.3887, 72.72495
608.8708, 72.90186
609.3529, 72.95394
609.8350, 72.90110
610.3171, 72.70157
610.7993, 72.28533
611.2814, 71.68963
611.7635, 71.01282
612.2456, 70.26775
612.7277, 69.56020
613.2098, 69.21867
613.6920, 69.29929
614.1741, 69.02927
614.6562, 68.08480
615.1383, 66.90221
615.6204, 65.84461
616.1025, 64.90528
616.5847, 64.10148
617.0668, 63.60597
617.5489, 63.08024
618.0310, 62.24688
618.5131, 61.23743
618.9952, 60.32866
619.4774, 59.60096
619.9595, 58.91802
620.4416, 58.09969
620.9237, 57.12004
621.4058, 56.35897
621.8879, 56.03011
622.3701, 55.66435
622.8522, 55.12699
623.3343, 54.53054
623.8164, 54.00653
624.2985, 53.57721
624.7806, 53.14219
625.2628, 52.56230
625.7448, 51.92496
626.2269, 51.50767
626.7090, 51.33575
627.1912, 51.12870
627.6733, 50.72776
628.1554, 50.24573
628.6375, 49.88450
629.1196, 49.63929
629.6017, 49.49288
630.0839, 49.60431
630.5660, 49.66911
631.0481, 49.42656
631.5302, 48.96745
632.0123, 48.52140
632.4944, 48.19537
632.9766, 47.95117
633.4587, 47.74678
633.9408, 47.60493
634.4229, 47.36294
634.9050, 46.79420
635.3871, 46.43104
635.8693, 46.70577
636.3514, 47.24565
636.8335, 47.47157
637.3156, 47.21093
637.7977, 46.79343
638.2798, 46.30082
638.7620, 45.86093
639.2441, 45.80840
639.7262, 46.16276
640.2083, 46.45347
640.6904, 46.37089
641.1725, 46.00411
641.6547, 45.64565
642.1368, 45.19509
642.6189, 44.91295
643.1010, 44.88733
643.5831, 44.95046
644.0652, 45.09191
644.5474, 45.22747
645.0295, 45.19092
645.5116, 44.88583
645.9937, 44.41585
646.4758, 43.88831
646.9579, 43.30494
647.4401, 42.89571
647.9222, 42.74657
648.4043, 42.67202
648.8864, 42.59186
649.3685, 42.47435
649.8506, 42.21384
650.3328, 41.68922
650.8149, 41.19684
651.2970, 40.84299
651.7791, 40.59095
652.2612, 40.44917
652.7433, 40.38546
653.2255, 40.27842
653.7076, 40.04182
654.1897, 39.68474
654.6718, 39.21407
655.1539, 38.53899
655.6360, 37.97340
656.1182, 37.59283
656.6003, 37.30865
657.0824, 37.14959
657.5645, 37.05402
658.0466, 36.84993
658.5287, 36.42985
659.0109, 35.94438
659.4930, 35.48886
659.9751, 35.08352
660.4572, 34.77052
660.9393, 34.55910
661.4214, 34.48259
661.9036, 34.60479
662.3857, 34.89636
662.8678, 35.03629
663.3499, 34.99504
663.8320, 34.83567
664.3141, 34.42633
664.7963, 34.00510
665.2784, 33.74760
665.7605, 33.65810
666.2426, 33.66578
666.7247, 33.75949
667.2068, 33.87024
667.6890, 33.85260
668.1711, 33.71118
668.6532, 33.61915
669.1353, 33.64566
669.6174, 33.65269
670.0995, 33.44774
670.5817, 33.07313
671.0638, 32.94045
671.5459, 33.32266
672.0280, 33.61850
672.5101, 33.56294
672.9922, 33.36857
673.4744, 33.22595
673.9565, 33.18389
674.4386, 33.26036
674.9207, 33.49470
675.4028, 33.81539
675.8849, 33.98067
676.3671, 33.95900
676.8492, 33.92651
677.3313, 33.97126
677.8134, 33.94965
678.2955, 33.67601
678.7776, 33.23507
679.2598, 32.92922
679.7419, 32.75045
680.2240, 32.82109
680.7061, 33.52168
681.1882, 34.40009
681.6703, 34.64186
682.1525, 34.16943
682.6346, 33.64340
683.1167, 33.62280
683.5988, 33.97437
684.0809, 34.02507
684.5630, 33.61691
685.0452, 33.25365
685.5273, 32.87107
686.0094, 32.67062
686.4915, 32.96789
686.9736, 33.55788
687.4557, 33.83094
687.9379, 33.44612
688.4200, 32.87106
688.9021, 32.46059
689.3842, 32.18655
689.8663, 32.00890
690.3484, 31.91656
690.8306, 31.84566
691.3127, 31.74898
691.7948, 31.62895
692.2769, 31.49492
692.7590, 31.33377
693.2411, 31.17971
693.7233, 31.01904
694.2054, 30.88064
694.6875, 30.78232
695.1696, 30.72049
695.6517, 30.69748
696.1339, 30.73881
696.6160, 30.74260
697.0981, 30.56132
697.5802, 30.24533
698.0623, 29.94740
698.5444, 29.68676
699.0266, 29.53248
699.5087, 29.57534
699.9908, 29.73631
700.4729, 29.71135
700.9550, 29.26324
701.4371, 28.99228
701.9193, 29.04597
702.4014, 29.14865
702.8835, 29.17656
703.3656, 29.11296
703.8477, 28.93296
704.3298, 28.61315
704.8120, 28.30161
705.2941, 28.21960
705.7762, 28.31672
706.2583, 28.32960
706.7404, 28.21852
707.2225, 28.14106
707.7046, 28.22069
708.1867, 28.37171
708.6688, 28.36468
709.1509, 28.12032
709.6331, 27.92961
710.1152, 27.85782
710.5973, 27.79820
711.0794, 27.65674
711.5615, 27.49055
712.0436, 27.40382
712.5258, 27.43420
713.0079, 27.54515
713.4900, 27.76485
713.9721, 28.04584
714.4542, 28.08547
714.9363, 27.83149
715.4185, 27.61776
715.9006, 27.61833
716.3827, 27.72076
716.8648, 27.73619
717.3469, 27.65207
717.8290, 27.56965
718.3112, 27.49191
718.7933, 27.42361
719.2754, 27.34828
719.7575, 27.29178
720.2396, 27.29444
720.7217, 27.36402
721.2039, 27.47236
721.6860, 27.63474
722.1681, 27.80448
722.6502, 27.75341
723.1323, 27.44545
723.6144, 27.22205
724.0966, 27.22562
724.5787, 27.30599
725.0608, 27.29838
725.5429, 27.20394
726.0250, 27.08676
726.5071, 26.87047
726.9893, 26.72728
727.4714, 26.74342
727.9535, 26.85080
728.4356, 27.02209
728.9177, 27.21708
729.3998, 27.31537
729.8820, 27.19862
730.3641, 26.98302
730.8462, 26.98738
731.3283, 27.22517
731.8104, 27.24861
732.2925, 26.87047
732.7747, 26.49981
733.2568, 26.51980
733.7389, 26.84275
734.2210, 26.98137
734.7031, 26.78660
735.1852, 26.63820
735.6674, 26.66259
736.1495, 26.72190
736.6316, 26.69902
737.1137, 26.60874
737.5958, 26.51848
738.0779, 26.45815
738.5601, 26.43973
739.0422, 26.49552
739.5243, 26.61718
740.0064, 26.73273
740.4885, 26.84358
740.9706, 26.91406
741.4528, 26.91858
741.9349, 26.87376
742.4170, 26.80445
742.8991, 26.68618
743.3812, 26.62847
743.8633, 26.73326
744.3455, 26.80414
744.8276, 26.66077
745.3097, 26.44478
745.7918, 26.39805
746.2739, 26.57818
746.7560, 26.80626
747.2382, 26.94285
747.7203, 26.98707
748.2024, 26.90620
748.6845, 26.69667
749.1666, 26.49384
749.6487, 26.32406
750.1309, 26.22631
750.6130, 26.27394
751.0951, 26.47960
751.5772, 26.57926
752.0593, 26.47807
752.5414, 26.40240
753.0236, 26.42817
753.5057, 26.48071
753.9878, 26.45063
754.4699, 26.37104
754.9520, 26.42039
755.4341, 26.76951
755.9163, 27.14659
756.3984, 27.07806
756.8805, 26.68727
757.3626, 26.56807
757.8447, 26.83532
758.3268, 27.05881
758.8090, 26.90566
759.2911, 26.50846
759.7732, 26.31436
760.2553, 26.47478
760.7374, 26.56567
761.2195, 26.49510
761.7017, 26.45743
762.1838, 26.62471
762.6659, 26.85717
763.1480, 26.89597
763.6301, 26.66139
764.1122, 26.44862
764.5944, 26.51015
765.0765, 26.71362
765.5586, 26.87484
766.0407, 26.98497
766.5228, 27.03996
767.0049, 27.03541
767.4871, 27.01444
767.9692, 27.03441
768.4513, 27.09712
768.9334, 27.15360
769.4155, 27.21686
769.8976, 27.25141
770.3798, 27.23806
770.8619, 27.20317
771.3440, 27.16883
771.8261, 27.13235
772.3082, 27.07145
772.7903, 26.93094
773.2725, 26.82758
773.7546, 26.88506
774.2367, 27.01433
774.7188, 27.07457
775.2009, 27.05310
775.6830, 27.02294
776.1652, 27.03494
776.6473, 27.05542
777.1294, 26.96714
777.6115, 26.72391
778.0936, 26.70529
778.5757, 27.07879
779.0579, 27.41455
779.5400, 27.47062
780.0221, 27.34472
780.5042, 27.14516
780.9863, 26.80703
781.4684, 26.72942
781.9506, 27.30898
782.4327, 27.87737
782.9148, 27.96024
783.3969, 27.75174
783.8790, 27.60187
784.3611, 27.60200
784.8433, 27.61090
785.3254, 27.46752
785.8075, 27.25280
786.2896, 27.23391
786.7717, 27.41383
787.2538, 27.58372
787.7360, 27.69047
788.2181, 27.78015
788.7002, 27.90090
789.1823, 28.04412
789.6644, 28.13209
790.1465, 28.14859
790.6286, 28.13648
791.1107, 28.00749
791.5928, 27.93543
792.0750, 28.09937
792.5571, 28.39505
793.0392, 28.59850
793.5213, 28.62681
794.0034, 28.57026
794.4855, 28.45271
794.9677, 28.32679
795.4498, 28.31652
795.9319, 28.40842
796.4140, 28.44863
796.8961, 28.36463
797.3782, 28.29951
797.8604, 28.47019
798.3425, 28.89206
798.8246, 29.19795
799.3067, 29.36307
799.7888, 29.45842
800.2709, 29.48223
800.7531, 29.45510
801.2352, 29.32545
801.7173, 29.13919
802.1994, 29.11048
802.6815, 29.39056
803.1636, 29.69937
803.6458, 29.93005
804.1279, 30.08459
804.6100, 30.06851
805.0921, 29.96692
805.5742, 30.09550
806.0563, 30.63784
806.5385, 31.30630
807.0206, 31.64558
807.5027, 31.67447
807.9848, 31.61884
808.4669, 31.47302
808.9490, 31.30384
809.4312, 31.08746
809.9133, 30.93680
810.3954, 31.05224
810.8775, 31.48995
811.3596, 31.83227
811.8417, 32.02628
812.3239, 32.19275
812.8060, 32.31741
813.2881, 32.46207
813.7702, 32.71999
814.2523, 33.05964
814.7344, 33.32040
815.2166, 33.37133
815.6987, 33.42101
816.1808, 33.73223
816.6629, 34.19305
817.1450, 34.56104
817.6271, 34.80996
818.1093, 35.00529
818.5914, 35.17845
819.0735, 35.35383
819.5556, 35.59383
820.0377, 35.92398
820.5198, 36.13982
821.0020, 36.12970
821.4841, 36.22083
821.9662, 36.63090
822.4483, 37.13511
822.9304, 37.47919
823.4125, 37.66615
823.8947, 37.85923
824.3768, 38.01174
824.8589, 38.26985
825.3410, 38.84875
825.8231, 39.46990
826.3052, 39.75776
826.7874, 39.76449
827.2695, 39.87017
827.7516, 40.31641
828.2337, 40.81996
828.7158, 40.86969
829.1979, 40.61929
829.6801, 40.78370
830.1622, 41.42635
830.6443, 42.00688
831.1264, 42.24799
831.6085, 42.30617
832.0906, 42.42207
832.5728, 42.58485
833.0549, 42.88020
833.5370, 43.43494
834.0191, 43.93616
834.5012, 44.23165
834.9833, 44.51129
835.4655, 44.97891
835.9476, 45.58961
836.4297, 46.09095
836.9118, 46.34560
837.3939, 46.57431
837.8760, 46.84786
838.3582, 47.19502
838.8403, 47.67699
839.3224, 48.26631
839.8045, 48.87043
840.2866, 49.44474
840.7687, 50.02226
841.2509, 50.64140
841.7330, 51.29827
842.2151, 51.98737
842.6972, 52.71195
843.1793, 53.35390
843.6614, 53.86163
844.1436, 54.27652
844.6257, 54.62373
845.1078, 54.90633
845.5899, 55.24482
846.0720, 55.53568
846.5541, 56.03848
847.0363, 57.02411
847.5184, 57.98730
848.0005, 58.56721
848.4826, 58.89088
848.9647, 59.30389
849.4468, 59.93825
849.9290, 60.46366
850.4111, 60.61602
850.8932, 60.64396
851.3753, 60.84226
851.8574, 61.12173
852.3395, 61.22516
852.8217, 61.08431
853.3038, 60.85683
853.7859, 60.67877
854.2680, 60.55034
854.7501, 60.52596
855.2322, 60.60572
855.7144, 60.47081
856.1965, 60.01454
856.6786, 59.53337
857.1607, 59.26884
857.6428, 59.13429
858.1249, 58.84028
858.6071, 58.25960
859.0892, 57.79673
859.5713, 57.44308
860.0534, 57.21253
860.5355, 57.09295
861.0176, 57.10790
861.4998, 57.36356
861.9819, 57.84703
862.4640, 58.19237
862.9461, 57.97245
863.4282, 57.87131
863.9103, 58.47098
864.3925, 59.41922
864.8746, 60.23938
865.3567, 60.88591
865.8388, 61.49086
866.3209, 62.11445
866.8030, 62.86609
867.2852, 64.00410
867.7673, 65.43422
868.2494, 66.58926
868.7315, 67.42037
869.2136, 68.50793
869.6957, 70.14324
870.1779, 71.98337
870.6600, 73.56987
871.1421, 74.90437
871.6242, 76.16302
872.1063, 77.28504
872.5884, 78.43816
873.0705, 79.79569
873.5526, 81.04383
874.0347, 81.90498
874.5168, 82.51685
874.9990, 83.22539
875.4811, 84.06310
875.9632, 85.05274
876.4453, 86.35643
876.9274, 87.66070
877.4095, 88.73524
877.8917, 89.64396
878.3738, 90.51953
878.8559, 91.39266
879.3380, 92.21925
879.8201, 92.97698
880.3022, 93.65343
880.7844, 94.17262
881.2665, 94.59309
881.7486, 95.15229
882.2307, 95.87905
882.7128, 96.58412
883.1949, 97.14769
883.6771, 97.60506
884.1592, 98.00692
884.6413, 98.33572
885.1234, 98.75129
885.6055, 99.28913
886.0876, 99.84530
886.5698, 100.5653
887.0519, 101.1005
887.5340, 100.8877
888.0161, 99.99637
888.4982, 99.52083
888.9803, 99.81190
889.4625, 100.0670
889.9446, 100.1307
890.4267, 100.1338
890.9088, 100.2118
891.3909, 100.2861
891.8730, 100.1765
892.3552, 99.82813
892.8373, 99.42799
893.3194, 99.07038
893.8015, 98.74151
894.2836, 98.43839
894.7657, 98.15092
895.2479, 97.86822
895.7300, 97.58582
896.2121, 97.28614
896.6942, 96.95217
897.1763, 96.61294
897.6584, 96.24948
898.1406, 95.89709
898.6227, 95.99110
899.1048, 96.61234
899.5869, 97.15273
900.0690, 97.31606
900.5511, 97.28209
901.0333, 97.30849
901.5154, 97.39772
901.9975, 97.49497
902.4796, 97.66312
902.9617, 97.72177
903.4438, 97.53709
903.9260, 97.33128
904.4081, 97.25652
904.8902, 97.27711
905.3723, 97.28696
905.8544, 97.21921
906.3365, 97.30210
906.8187, 97.85147
907.3008, 98.29081
907.7829, 98.06132
908.2650, 97.61529
908.7471, 97.65263
909.2292, 98.22088
909.7114, 98.74634
910.1935, 98.89063
910.6756, 98.84829
911.1577, 98.81609
911.6398, 98.73980
912.1219, 98.55020
912.6041, 98.22159
913.0862, 97.65402
913.5683, 96.80018
914.0504, 95.88290
914.5325, 95.26363
915.0146, 94.84941
915.4968, 94.03629
915.9789, 92.81006
916.4610, 91.62329
916.9431, 90.64016
917.4252, 89.42636
917.9073, 87.56791
918.3895, 85.22659
918.8716, 82.97352
919.3537, 80.75806
919.8358, 78.72058
920.3179, 77.02014
920.8000, 75.26677
921.2822, 73.27573
921.7643, 71.17209
922.2464, 69.06969
922.7285, 66.97512
923.2106, 64.96520
923.6927, 63.00652
924.1749, 61.19404
924.6570, 59.62122
925.1391, 58.15167
925.6212, 56.70900
926.1033, 55.28355
926.5854, 53.85198
927.0676, 52.40344
927.5497, 51.10847
928.0318, 50.18050
928.5139, 49.38084
928.9960, 48.46737
929.4781, 47.49070
929.9603, 46.53347
930.4424, 45.62046
930.9245, 44.78609
931.4066, 44.05570
931.8887, 43.39380
932.3708, 42.74383
932.8530, 42.11842
933.3351, 41.58571
933.8172, 41.14488
934.2993, 40.71403
934.7814, 40.26877
935.2635, 39.79271
935.7457, 39.25779
936.2278, 38.68361
936.7099, 38.17836
937.1920, 37.73145
937.6741, 37.41027
938.1563, 37.27495
938.6384, 37.14776
939.1205, 36.93375
939.6026, 36.66372
940.0847, 36.39199
940.5668, 36.12448
941.0490, 35.82374
941.5311, 35.42896
942.0132, 35.08467
942.4953, 34.83448
942.9774, 34.62913
943.4595, 34.45358
943.9417, 34.29059
944.4238, 34.08881
944.9059, 33.80077
945.3880, 33.61839
945.8701, 33.76088
946.3522, 33.86980
946.8344, 33.59581
947.3165, 33.20433
947.7986, 33.09441
948.2807, 33.27659
948.7628, 33.45288
949.2449, 33.47474
949.7271, 33.40908
950.2092, 33.24232
950.6913, 33.07409
951.1734, 33.10771
951.6555, 33.28381
952.1376, 33.34841
952.6198, 33.22701
953.1019, 33.12132
953.5840, 33.23771
954.0661, 33.49105
954.5482, 33.70614
955.0303, 33.87564
955.5124, 33.92135
955.9945, 33.83323
956.4766, 33.79506
956.9587, 33.92193
957.4409, 34.05244
957.9230, 33.87180
958.4051, 33.39128
958.8872, 33.37096
959.3693, 33.93717
959.8514, 34.41553
960.3336, 34.62333
960.8157, 34.79914
961.2978, 35.12136
961.7799, 35.53974
962.2620, 35.91785
962.7441, 36.26261
963.2263, 36.54404
963.7084, 36.71928
964.1905, 36.88789
964.6726, 36.96483
965.1547, 37.13557
965.6368, 37.71113
966.1190, 38.55189
966.6011, 39.00205
967.0832, 38.73558
967.5653, 38.58001
968.0474, 38.68896
968.5295, 38.97900
969.0117, 39.66425
969.4938, 40.35329
969.9759, 40.47252
970.4580, 40.01745
970.9401, 39.54831
971.4222, 39.26860
971.9044, 39.10615
972.3865, 39.19178
972.8686, 39.23388
973.3507, 38.79016
973.8328, 38.06982
974.3149, 37.62640
974.7971, 37.60191
975.2792, 37.58715
975.7613, 37.27991
976.2434, 36.78408
976.7255, 36.11555
977.2076, 35.40551
977.6898, 34.94679
978.1719, 34.74287
978.6540, 34.65437
979.1361, 34.61287
979.6182, 34.50676
980.1003, 34.12548
980.5825, 33.59247
981.0646, 33.38097
981.5467, 33.44523
982.0288, 33.39661
982.5109, 33.15910
982.9930, 32.90834
983.4752, 32.75670
983.9573, 32.67243
984.4394, 32.60784
984.9215, 32.56359
985.4036, 32.45471
985.8857, 32.25855
986.3679, 32.14288
986.8500, 32.17225
987.3321, 32.21293
987.8142, 32.11526
988.2963, 31.98496
988.7784, 32.19930
989.2606, 32.95966
989.7427, 33.33634
990.2248, 33.18415
990.7069, 32.91175
991.1890, 32.46783
991.6711, 32.15131
992.1533, 32.34291
992.6354, 32.93932
993.1175, 33.32526
993.5996, 33.44785
994.0817, 33.45542
994.5638, 33.17826
995.0460, 32.99229
995.5281, 33.09672
996.0102, 33.32655
996.4923, 33.48634
996.9744, 33.58969
997.4565, 33.81516
997.9387, 34.40172
998.4208, 34.76790
998.9029, 34.56820
999.3850, 34.31186
999.8671, 34.37964
1000.349, 34.56026
1000.831, 34.48753
1001.313, 34.14557
1001.796, 33.89289
1002.278, 33.90671
1002.760, 33.99928
1003.242, 34.17884
1003.724, 34.29498
1004.206, 34.15400
1004.688, 33.85671
1005.170, 33.62312
1005.653, 33.49998
1006.135, 33.34521
1006.617, 33.00788
1007.099, 32.68238
1007.581, 32.60215
1008.063, 32.61707
1008.545, 32.50047
1009.027, 32.28197
1009.509, 32.11489
1009.992, 32.05202
1010.474, 32.02714
1010.956, 32.04711
1011.438, 32.00071
1011.920, 31.58250
1012.402, 31.00643
1012.884, 30.85412
1013.366, 31.08783
1013.849, 31.16407
1014.331, 30.84962
1014.813, 30.48330
1015.295, 30.48545
1015.777, 30.68508
1016.259, 30.64010
1016.741, 30.39964
1017.223, 30.17626
1017.705, 30.00680
1018.188, 29.89384
1018.670, 29.83972
1019.152, 29.83457
1019.634, 29.90855
1020.116, 30.00714
1020.598, 29.74320
1021.080, 29.14504
1021.562, 29.07473
1022.044, 29.71837
1022.527, 30.15550
1023.009, 29.82501
1023.491, 29.14973
1023.973, 28.79818
1024.455, 28.75174
1024.937, 28.72525
1025.419, 28.73010
1025.901, 28.63852
1026.384, 28.39372
1026.866, 28.19847
1027.348, 28.18066
1027.830, 28.29018
1028.312, 28.46513
1028.794, 28.71838
1029.276, 28.71588
1029.758, 28.36996
1030.240, 28.06960
1030.723, 27.86971
1031.205, 27.78196
1031.687, 27.88357
1032.169, 28.02125
1032.651, 27.83104
1033.133, 27.22412
1033.615, 27.06668
1034.097, 27.65242
1034.579, 28.04365
1035.062, 28.00901
1035.544, 27.82053
1036.026, 27.59031
1036.508, 27.36746
1036.990, 27.27090
1037.472, 27.33541
1037.954, 27.32833
1038.436, 27.16236
1038.919, 27.06664
1039.401, 27.16612
1039.883, 27.25373
1040.365, 27.20583
1040.847, 27.04995
1041.329, 26.81856
1041.811, 26.47319
1042.293, 26.25355
1042.776, 26.17057
1043.258, 26.20354
1043.740, 26.57079
1044.222, 26.83193
1044.704, 26.52406
1045.186, 25.96824
1045.668, 25.85443
1046.150, 26.32010
1046.632, 26.54849
1047.115, 26.14822
1047.597, 25.92252
1048.079, 26.23655
1048.561, 26.62260
1049.043, 26.74621
1049.525, 26.71383
1050.007, 26.75286
1050.489, 26.89381
1050.971, 27.03234
1051.454, 27.23883
1051.936, 27.31615
1052.418, 27.05668
1052.900, 26.79171
1053.382, 26.75967
1053.864, 26.89548
1054.346, 27.08370
1054.828, 27.31088
1055.311, 27.47255
1055.793, 27.52363
1056.275, 27.52899
1056.757, 27.42034
1057.239, 27.36167
1057.721, 27.52738
1058.203, 27.80840
1058.685, 27.99622
1059.167, 28.06116
1059.650, 28.17219
1060.132, 28.48011
1060.614, 28.71426
1061.096, 28.66370
1061.578, 28.60745
1062.060, 28.79619
1062.542, 29.11158
1063.024, 29.33778
1063.506, 29.44394
1063.989, 29.54194
1064.471, 29.69152
1064.953, 29.81360
1065.435, 29.87444
1065.917, 29.89667
1066.399, 29.87723
1066.881, 29.84122
1067.363, 29.81697
1067.846, 29.81165
1068.328, 29.83529
1068.810, 29.92321
1069.292, 29.98572
1069.774, 29.99143
1070.256, 29.94818
1070.738, 29.81756
1071.220, 29.66736
1071.703, 29.59002
1072.185, 29.59179
1072.667, 29.62006
1073.149, 29.69093
1073.631, 29.70409
1074.113, 29.65720
1074.595, 29.48870
1075.077, 28.98501
1075.559, 28.43846
1076.042, 28.28062
1076.524, 28.47495
1077.006, 28.60797
1077.488, 28.53405
1077.970, 28.40127
1078.452, 28.19378
1078.934, 28.04336
1079.416, 28.15371
1079.898, 28.29126
1080.380, 28.09677
1080.863, 27.66214
1081.345, 27.42183
1081.827, 27.55031
1082.309, 27.67211
1082.791, 27.60306
1083.273, 27.49424
1083.755, 27.42632
1084.237, 27.37535
1084.720, 27.30939
1085.202, 27.23436
1085.684, 27.16953
1086.166, 27.11779
1086.648, 27.09924
1087.130, 27.20435
1087.612, 27.24273
1088.094, 27.07286
1088.577, 26.82761
1089.059, 26.60981
1089.541, 26.42509
1090.023, 26.26244
1090.505, 26.11836
1090.987, 25.98217
1091.469, 25.83704
1091.951, 25.71528
1092.433, 25.66567
1092.916, 25.61117
1093.398, 25.45267
1093.880, 25.26528
1094.362, 25.21799
1094.844, 25.31575
1095.326, 25.29218
1095.808, 24.86204
1096.290, 24.59758
1096.772, 24.90262
1097.255, 25.19824
1097.737, 25.10719
1098.219, 24.78772
1098.701, 24.40695
1099.183, 24.01795
1099.665, 23.76505
1100.147, 23.72555
1100.629, 23.73123
1101.112, 23.81363
1101.594, 23.84290
1102.076, 23.71734
1102.558, 23.53503
1103.040, 23.41980
1103.522, 23.34395
1104.004, 23.15633
1104.486, 22.74987
1104.969, 22.50361
1105.451, 22.58176
1105.933, 22.70461
1106.415, 22.80611
1106.897, 22.88591
1107.379, 22.96761
1107.861, 23.02497
1108.343, 22.98303
1108.825, 22.81405
1109.307, 22.67613
1109.790, 22.60780
1110.272, 22.53599
1110.754, 22.42090
1111.236, 22.32563
1111.718, 22.27559
1112.200, 22.27527
1112.682, 22.36712
1113.164, 22.56193
1113.647, 22.61413
1114.129, 22.33504
1114.611, 22.23065
1115.093, 22.49335
1115.575, 22.71931
1116.057, 22.73083
1116.539, 22.62710
1117.021, 22.50377
1117.504, 22.36469
1117.986, 22.23292
1118.468, 22.06021
1118.950, 22.02143
1119.432, 22.21817
1119.914, 22.34314
1120.396, 22.26268
1120.878, 22.13736
1121.360, 22.08549
1121.843, 22.10905
1122.325, 22.23946
1122.807, 22.53047
1123.289, 22.57258
1123.771, 22.26107
1124.253, 22.07008
1124.735, 22.13819
1125.217, 22.22953
1125.699, 22.19697
1126.182, 22.09393
1126.664, 22.01070
1127.146, 21.94530
1127.628, 21.84927
1128.110, 21.71171
1128.592, 21.65440
1129.074, 21.70308
1129.556, 21.75308
1130.039, 21.75174
1130.521, 21.77543
1131.003, 21.94307
1131.485, 22.15681
1131.967, 21.97083
1132.449, 21.42679
1132.931, 21.31949
1133.413, 21.68337
1133.896, 22.10061
1134.378, 22.44261
1134.860, 22.52039
1135.342, 22.15043
1135.824, 21.62313
1136.306, 21.51766
1136.788, 21.69978
1137.270, 21.60325
1137.752, 21.29849
1138.234, 21.20566
1138.717, 21.36480
1139.199, 21.42865
1139.681, 21.21856
1140.163, 20.99563
1140.645, 21.06785
1141.127, 21.30625
1141.609, 21.54937
1142.091, 21.74348
1142.574, 21.70007
1143.056, 21.49175
1143.538, 21.43124
1144.020, 21.59568
1144.502, 21.72741
1144.984, 21.61701
1145.466, 21.46506
1145.948, 21.46712
1146.431, 21.56066
1146.913, 21.75581
1147.395, 21.94093
1147.877, 21.87830
1148.359, 21.59685
1148.841, 21.39750
1149.323, 21.42866
1149.805, 21.41645
1150.287, 21.04419
1150.770, 20.73051
1151.252, 20.87015
1151.734, 21.15314
1152.216, 21.23727
1152.698, 21.17686
1153.180, 21.19720
1153.662, 21.34466
1154.144, 21.40350
1154.626, 21.23835
1155.109, 21.06339
1155.591, 20.89831
1156.073, 20.80084
1156.555, 20.87835
1157.037, 20.99737
1157.519, 20.94709
1158.001, 20.75598
1158.483, 20.69753
1158.966, 20.84085
1159.448, 21.02273
1159.930, 21.46636
1160.412, 21.61935
1160.894, 20.98874
1161.376, 20.41611
1161.858, 20.65641
1162.340, 21.31602
1162.822, 21.52425
1163.305, 21.23372
1163.787, 20.99124
1164.269, 20.74771
1164.751, 20.72701
1165.233, 21.05486
1165.715, 21.32810
1166.197, 21.36126
1166.679, 21.23572
1167.161, 21.01554
1167.644, 20.75079
1168.126, 20.67013
1168.608, 20.78196
1169.090, 20.79439
1169.572, 20.69036
1170.054, 20.68658
1170.536, 20.84451
1171.018, 20.99446
1171.500, 21.01900
1171.983, 20.97515
1172.465, 20.95061
1172.947, 20.93433
1173.429, 20.91059
1173.911, 20.86085
1174.393, 20.64408
1174.875, 20.30865
1175.357, 20.20065
1175.840, 20.43151
1176.322, 20.67246
1176.804, 20.64450
1177.286, 20.51142
1177.768, 20.35883
1178.250, 20.31779
1178.732, 20.74296
1179.214, 21.36177
1179.697, 21.63049
1180.179, 21.50783
1180.661, 21.25487
1181.143, 20.96032
1181.625, 20.70723
1182.107, 20.52704
1182.589, 20.42964
1183.071, 20.45205
1183.553, 20.53421
1184.036, 20.62747
1184.518, 20.73329
1185.000, 20.89522
1185.482, 21.10929
1185.964, 21.21376
1186.446, 21.15488
1186.928, 21.01340
1187.410, 20.59885
1187.892, 20.35837
1188.375, 20.69681
1188.857, 21.10262
1189.339, 21.03695
1189.821, 20.68535
1190.303, 20.59904
1190.785, 20.84449
1191.267, 20.95182
1191.749, 20.83981
1192.232, 20.83353
1192.714, 21.04316
1193.196, 21.18734
1193.678, 21.12105
1194.160, 20.92438
1194.642, 20.66001
1195.124, 20.38954
1195.606, 20.40252
1196.089, 20.68426
1196.571, 20.84186
1197.053, 20.86109
1197.535, 20.85427
1198.017, 20.84973
1198.499, 20.81547
1198.981, 20.72871
1199.463, 20.64695
1199.945, 20.66364
1200.427, 20.72615
1200.910, 20.70999
1201.392, 20.66502
1201.874, 20.77041
1202.356, 20.94327
1202.838, 20.82305
1203.320, 20.37563
1203.802, 20.11059
1204.284, 20.39898
1204.767, 20.72744
1205.249, 20.73579
1205.731, 20.59268
1206.213, 20.29063
1206.695, 20.02934
1207.177, 20.09364
1207.659, 20.38272
1208.141, 20.57760
1208.624, 20.60868
1209.106, 20.67236
1209.588, 20.91909
1210.070, 21.04642
1210.552, 20.90522
1211.034, 20.73377
1211.516, 20.67554
1211.998, 20.61728
1212.480, 20.35882
1212.963, 20.02224
1213.445, 20.12793
1213.927, 20.85285
1214.409, 21.07566
1214.891, 20.62048
1215.373, 20.38885
1215.855, 20.60082
1216.337, 20.78950
1216.819, 20.69854
1217.302, 20.52201
1217.784, 20.49947
1218.266, 20.57555
1218.748, 20.57755
1219.230, 20.52200
1219.712, 20.50398
1220.194, 20.51241
1220.676, 20.44641
1221.159, 20.29788
1221.641, 20.17797
1222.123, 20.14750
1222.605, 20.13006
1223.087, 19.93744
1223.569, 19.82901
1224.051, 20.28368
1224.533, 20.86423
1225.016, 20.94333
1225.498, 20.70545
1225.980, 20.62562
1226.462, 20.74807
1226.944, 20.73630
1227.426, 20.40779
1227.908, 20.13449
1228.390, 20.02608
1228.872, 20.02241
1229.354, 20.20144
1229.837, 20.37475
1230.319, 20.41011
1230.801, 20.33102
1231.283, 20.13937
1231.765, 19.84436
1232.247, 19.79255
1232.729, 20.08232
1233.211, 20.31827
1233.694, 20.48388
1234.176, 20.60353
1234.658, 20.69227
1235.140, 20.68754
1235.622, 20.52365
1236.104, 20.32735
1236.586, 20.34426
1237.068, 20.50043
1237.551, 20.50265
1238.033, 20.36107
1238.515, 20.00799
1238.997, 19.53773
1239.479, 19.42973
1239.961, 19.77592
1240.443, 20.13841
1240.925, 20.23342
1241.407, 20.29069
1241.890, 20.57367
1242.372, 20.88164
1242.854, 21.09916
1243.336, 21.16294
1243.818, 20.86196
1244.300, 20.40568
1244.782, 20.27154
1245.264, 20.50838
1245.746, 20.64451
1246.229, 20.49678
1246.711, 20.35399
1247.193, 20.22022
1247.675, 20.15881
1248.157, 20.18388
1248.639, 20.30318
1249.121, 20.60608
1249.603, 20.92439
1250.085, 20.93262
1250.568, 20.65164
1251.050, 20.44990
1251.532, 20.33401
1252.014, 20.21079
1252.496, 20.06935
1252.978, 20.04414
1253.460, 20.17467
1253.942, 20.29701
1254.425, 20.29804
1254.907, 20.23496
1255.389, 20.14643
1255.871, 20.07901
1256.353, 20.17767
1256.835, 20.33136
1257.317, 20.27942
1257.799, 20.11212
1258.281, 20.12975
1258.764, 20.35357
1259.246, 20.49949
1259.728, 20.43592
1260.210, 20.32430
1260.692, 20.20508
1261.174, 20.10122
1261.656, 19.99463
1262.138, 19.93646
1262.620, 20.00158
1263.103, 20.12015
1263.585, 20.19001
1264.067, 20.21116
1264.549, 20.17697
1265.031, 20.03760
1265.513, 20.03606
1265.995, 20.23393
1266.477, 20.26561
1266.960, 20.01505
1267.442, 19.84232
1267.924, 19.95569
1268.406, 20.16581
1268.888, 20.24455
1269.370, 20.26445
1269.852, 20.45505
1270.334, 20.69613
1270.817, 20.60158
1271.299, 20.31054
1271.781, 20.25801
1272.263, 20.45837
1272.745, 20.64193
1273.227, 20.70579
1273.709, 20.71647
1274.191, 20.69395
1274.673, 20.65662
1275.156, 20.59281
1275.638, 20.54055
1276.120, 20.52879
1276.602, 20.53892
1277.084, 20.55197
1277.566, 20.56768
1278.048, 20.59608
1278.530, 20.64543
1279.012, 20.62011
1279.495, 20.47341
1279.977, 20.43416
1280.459, 20.55645
1280.941, 20.62708
1281.423, 20.56502
1281.905, 20.45797
1282.387, 20.36652
1282.869, 20.31909
1283.352, 20.40329
1283.834, 20.54410
1284.316, 20.57907
1284.798, 20.50919
##END=



