##NAMES=Tychite
##RRUFFID=R060700
##IDEAL CHEMISTRY=Na_6_Mg_2_(CO_3_)_4_(S^6+^O_4_)
##LOCALITY=Borax Lake, Lake County, California
##OWNER=RRUFF
##SOURCE=Michael Scott
##DESCRIPTION=Colorless octahedra
##STATUS=The identification of this mineral is confirmed by single-crystal X-ray diffraction and chemical analysis.
##URL=rruff.info/R060700
##MEASURED CHEMISTRY=Na_6.00_(Mg_1.99_Ca_0.01_)_Î£=2.00_(CO_3_)_4_(S_1.00_O_4_) ; C not measured but estimated by difference and stoichiometry
136.467, 21890.180
136.949, 22267.939
137.432, 22667.180
137.914, 23089.301
138.396, 23529.359
138.878, 23986.770
139.360, 24455.830
139.842, 24931.859
140.324, 25420.170
140.806, 25893.189
141.288, 26331.350
141.771, 26721.381
142.253, 27150.211
142.735, 27648.619
143.217, 28173.920
143.699, 28603.490
144.181, 28936.881
144.663, 29182.070
145.145, 29351.641
145.628, 29494.221
146.110, 29462.840
146.592, 29207.869
147.074, 28752.141
147.556, 28273.260
148.038, 27714.990
148.520, 27168.859
149.002, 26697.961
149.484, 26298.000
149.967, 25966.211
150.449, 25717.070
150.931, 25552.660
151.413, 25404.051
151.895, 25260.980
152.377, 25139.471
152.859, 25054.449
153.342, 25028.789
153.824, 25022.131
154.306, 25032.289
154.788, 25063.539
155.270, 25095.400
155.752, 25109.410
156.234, 25129.109
156.716, 25184.010
157.198, 25322.211
157.680, 25462.289
158.163, 25570.160
158.645, 25628.070
159.127, 25691.561
159.609, 25781.070
160.091, 25884.461
160.573, 25979.350
161.055, 26041.061
161.538, 26099.820
162.020, 26172.131
162.502, 26267.789
162.984, 26361.680
163.466, 26442.650
163.948, 26511.949
164.430, 26575.650
164.912, 26636.930
165.394, 26692.811
165.876, 26741.350
166.359, 26777.699
166.841, 26812.039
167.323, 26857.869
167.805, 26912.080
168.287, 26951.830
168.769, 26951.430
169.251, 26934.180
169.733, 26926.289
170.216, 26936.600
170.698, 26961.199
171.180, 27003.869
171.662, 27064.740
172.144, 27123.221
172.626, 27154.971
173.108, 27175.961
173.590, 27212.760
174.072, 27282.939
174.555, 27371.260
175.037, 27465.740
175.519, 27566.609
176.001, 27665.391
176.483, 27756.279
176.965, 27838.689
177.447, 27909.119
177.929, 27959.359
178.412, 27998.131
178.894, 28040.801
179.376, 28089.840
179.858, 28133.699
180.340, 28153.199
180.822, 28153.240
181.304, 28156.189
181.786, 28166.631
182.268, 28189.410
182.751, 28245.131
183.233, 28347.779
183.715, 28453.760
184.197, 28487.740
184.679, 28456.051
185.161, 28419.820
185.643, 28409.330
186.125, 28424.961
186.607, 28472.279
187.090, 28560.580
187.572, 28667.859
188.054, 28752.301
188.536, 28812.891
189.018, 28874.080
189.500, 28973.180
189.982, 29097.721
190.464, 29167.391
190.947, 29141.680
191.429, 29066.840
191.911, 29073.480
192.393, 29167.721
192.875, 29289.869
193.357, 29395.061
193.839, 29483.689
194.321, 29563.061
194.803, 29631.131
195.286, 29693.240
195.768, 29773.039
196.250, 29872.211
196.732, 29982.820
197.214, 30097.029
197.696, 30214.711
198.178, 30347.000
198.661, 30507.320
199.143, 30689.680
199.625, 30834.289
200.107, 30929.020
200.589, 31022.900
201.071, 31181.480
201.553, 31412.980
202.035, 31653.830
202.517, 31883.471
202.999, 32102.760
203.482, 32314.410
203.964, 32511.439
204.446, 32711.000
204.928, 32944.539
205.410, 33221.391
205.892, 33487.520
206.374, 33723.359
206.857, 33929.340
207.339, 34101.961
207.821, 34237.910
208.303, 34343.012
208.785, 34429.141
209.267, 34500.410
209.749, 34541.441
210.231, 34548.949
210.713, 34525.172
211.195, 34458.969
211.678, 34339.840
212.160, 34189.672
212.642, 34051.078
213.124, 33922.641
213.606, 33810.930
214.088, 33719.699
214.570, 33652.160
215.052, 33598.539
215.535, 33559.148
216.017, 33532.559
216.499, 33513.621
216.981, 33495.531
217.463, 33495.730
217.945, 33527.711
218.427, 33606.449
218.909, 33664.711
219.391, 33687.930
219.874, 33690.500
220.356, 33723.141
220.838, 33805.379
221.320, 33882.199
221.802, 33923.941
222.284, 33925.281
222.766, 33906.480
223.248, 33863.730
223.731, 33803.070
224.213, 33747.930
224.695, 33700.480
225.177, 33657.141
225.659, 33615.859
226.141, 33578.398
226.623, 33540.199
227.105, 33492.828
227.587, 33443.629
228.070, 33432.121
228.552, 33481.691
229.034, 33535.648
229.516, 33554.059
229.998, 33510.391
230.480, 33487.738
230.962, 33500.570
231.444, 33541.738
231.926, 33569.941
232.409, 33577.660
232.891, 33581.109
233.373, 33588.129
233.855, 33586.691
234.337, 33616.859
234.819, 33700.602
235.301, 33828.172
235.783, 33902.141
236.266, 33887.672
236.748, 33862.410
237.230, 33882.770
237.712, 33969.641
238.194, 34063.020
238.676, 34158.051
239.158, 34254.238
239.640, 34350.551
240.122, 34434.609
240.605, 34534.031
241.087, 34672.301
241.569, 34874.219
242.051, 35070.699
242.533, 35252.609
243.015, 35419.570
243.497, 35585.270
243.980, 35740.070
244.462, 35903.770
244.944, 36097.359
245.426, 36352.191
245.908, 36571.629
246.390, 36737.211
246.872, 36850.070
247.354, 36945.250
247.836, 37027.219
248.318, 37083.078
248.801, 37103.250
249.283, 37089.922
249.765, 37033.898
250.247, 36929.969
250.729, 36778.961
251.211, 36599.172
251.693, 36369.051
252.176, 36141.340
252.658, 35969.039
253.140, 35897.672
253.622, 35782.871
254.104, 35581.879
254.586, 35303.578
255.068, 35098.859
255.550, 34997.480
256.032, 34931.828
256.514, 34844.109
256.997, 34713.762
257.479, 34612.141
257.961, 34560.340
258.443, 34552.961
258.925, 34513.590
259.407, 34424.352
259.889, 34326.891
260.371, 34256.281
260.854, 34222.051
261.336, 34184.852
261.818, 34135.051
262.300, 34074.320
262.782, 34019.191
263.264, 33967.309
263.746, 33924.988
264.228, 33902.969
264.711, 33911.570
265.193, 33905.121
265.675, 33873.770
266.157, 33820.352
266.639, 33760.449
267.121, 33685.578
267.603, 33621.879
268.085, 33594.488
268.567, 33614.898
269.050, 33628.160
269.532, 33622.480
270.014, 33603.211
270.496, 33602.512
270.978, 33629.750
271.460, 33655.762
271.942, 33650.922
272.424, 33605.461
272.906, 33588.230
273.389, 33621.762
273.871, 33690.488
274.353, 33715.250
274.835, 33681.840
275.317, 33648.930
275.799, 33666.320
276.281, 33740.180
276.763, 33806.789
277.246, 33852.039
277.728, 33884.730
278.210, 33945.039
278.692, 34041.621
279.174, 34126.781
279.656, 34156.570
280.138, 34128.672
280.620, 34102.879
281.103, 34078.750
281.585, 34067.539
282.067, 34112.379
282.549, 34220.391
283.031, 34330.781
283.513, 34396.930
283.995, 34421.289
284.477, 34447.578
284.959, 34482.660
285.441, 34521.230
285.924, 34550.820
286.406, 34571.430
286.888, 34590.230
287.370, 34605.609
287.852, 34620.449
288.334, 34658.219
288.816, 34727.570
289.298, 34811.230
289.781, 34882.512
290.263, 34941.531
290.745, 34990.160
291.227, 35019.039
291.709, 35035.480
292.191, 35073.469
292.673, 35140.102
293.155, 35218.289
293.638, 35287.422
294.120, 35346.711
294.602, 35395.320
295.084, 35425.160
295.566, 35444.379
296.048, 35476.129
296.530, 35525.820
297.012, 35579.398
297.494, 35622.090
297.977, 35655.199
298.459, 35679.641
298.941, 35683.328
299.423, 35683.219
299.905, 35713.629
300.387, 35780.879
300.869, 35857.160
301.351, 35910.820
301.833, 35949.879
302.316, 35996.422
302.798, 36071.699
303.280, 36154.422
303.762, 36221.641
304.244, 36271.648
304.726, 36295.039
305.208, 36263.730
305.690, 36198.930
306.172, 36141.199
306.655, 36110.930
307.137, 36093.391
307.619, 36081.160
308.101, 36074.070
308.583, 36057.621
309.065, 36013.852
309.547, 35957.449
310.030, 35909.430
310.512, 35878.301
310.994, 35859.840
311.476, 35864.469
311.958, 35889.750
312.440, 35895.430
312.922, 35828.750
313.404, 35743.059
313.886, 35693.672
314.369, 35741.031
314.851, 35790.020
315.333, 35787.121
315.815, 35740.391
316.297, 35701.699
316.779, 35702.180
317.261, 35714.340
317.743, 35717.199
318.225, 35698.422
318.708, 35678.922
319.190, 35659.852
319.672, 35644.719
320.154, 35644.871
320.636, 35673.648
321.118, 35712.551
321.600, 35751.520
322.082, 35790.020
322.565, 35826.629
323.047, 35856.648
323.529, 35883.520
324.011, 35916.340
324.493, 35963.090
324.975, 36009.551
325.457, 36049.500
325.939, 36079.070
326.422, 36107.621
326.904, 36134.449
327.386, 36160.410
327.868, 36186.441
328.350, 36211.238
328.832, 36237.141
329.314, 36263.699
329.796, 36288.609
330.278, 36322.691
330.760, 36382.320
331.243, 36443.191
331.725, 36469.840
332.207, 36429.930
332.689, 36405.531
333.171, 36419.051
333.653, 36474.109
334.135, 36534.078
334.617, 36614.871
335.100, 36683.691
335.582, 36700.199
336.064, 36642.352
336.546, 36590.371
337.028, 36552.820
337.510, 36532.121
337.992, 36557.430
338.474, 36644.020
338.957, 36743.320
339.439, 36815.801
339.921, 36855.602
340.403, 36895.922
340.885, 36948.711
341.367, 37000.469
341.849, 36991.500
342.331, 36909.031
342.813, 36836.391
343.296, 36846.020
343.778, 36934.020
344.260, 36986.160
344.742, 36981.699
345.224, 36953.809
345.706, 36969.891
346.188, 37029.871
346.670, 37087.629
347.152, 37107.309
347.635, 37102.539
348.117, 37125.039
348.599, 37181.719
349.081, 37249.309
349.563, 37297.840
350.045, 37329.559
350.527, 37357.520
351.009, 37379.000
351.491, 37401.020
351.974, 37434.141
352.456, 37477.930
352.938, 37534.371
353.420, 37627.988
353.902, 37733.422
354.384, 37804.039
354.866, 37791.809
355.349, 37754.641
355.831, 37748.031
356.313, 37770.551
356.795, 37800.750
357.277, 37841.199
357.759, 37877.828
358.241, 37894.309
358.723, 37887.090
359.205, 37859.211
359.688, 37781.148
360.170, 37674.590
360.652, 37621.059
361.134, 37690.590
361.616, 37803.828
362.098, 37909.680
362.580, 38002.809
363.062, 38078.289
363.544, 38135.898
364.027, 38173.551
364.509, 38188.809
364.991, 38168.031
365.473, 38134.480
365.955, 38091.891
366.437, 38029.469
366.919, 37992.930
367.401, 38000.531
367.884, 38033.289
368.366, 38066.840
368.848, 38092.461
369.330, 38129.109
369.812, 38190.102
370.294, 38281.129
370.776, 38338.820
371.258, 38332.750
371.741, 38318.719
372.223, 38347.020
372.705, 38445.691
373.187, 38530.371
373.669, 38586.949
374.151, 38619.121
374.633, 38652.371
375.115, 38689.211
375.597, 38719.711
376.079, 38727.309
376.562, 38700.879
377.044, 38720.410
377.526, 38811.148
378.008, 38929.730
378.490, 38963.961
378.972, 38901.910
379.454, 38853.500
379.936, 38897.211
380.419, 39019.160
380.901, 39079.289
381.383, 39067.691
381.865, 39022.828
382.347, 38980.719
382.829, 38944.461
383.311, 38932.922
383.793, 38971.520
384.276, 39034.539
384.758, 39055.570
385.240, 39034.172
385.722, 39029.672
386.204, 39117.531
386.686, 39256.270
387.168, 39357.941
387.650, 39366.512
388.132, 39365.980
388.615, 39474.828
389.097, 39662.480
389.579, 39795.809
390.061, 39725.090
390.543, 39595.871
391.025, 39554.270
391.507, 39663.059
391.989, 39772.270
392.471, 39801.801
392.954, 39776.281
393.436, 39740.211
393.918, 39678.801
394.400, 39639.531
394.882, 39656.641
395.364, 39744.699
395.846, 39822.078
396.328, 39866.180
396.810, 39893.191
397.293, 39919.789
397.775, 39959.000
398.257, 39986.480
398.739, 39986.270
399.221, 39959.211
399.703, 39956.660
400.185, 40000.012
400.668, 40048.070
401.150, 40076.211
401.632, 40067.480
402.114, 40067.859
402.596, 40077.129
403.078, 40097.410
403.560, 40139.410
404.042, 40218.719
404.524, 40286.512
405.007, 40313.578
405.489, 40290.480
405.971, 40313.590
406.453, 40402.262
406.935, 40502.000
407.417, 40529.461
407.899, 40479.559
408.381, 40429.730
408.863, 40393.109
409.346, 40376.410
409.828, 40421.941
410.310, 40533.770
410.792, 40642.270
411.274, 40673.289
411.756, 40647.961
412.238, 40640.949
412.720, 40670.270
413.203, 40719.789
413.685, 40777.359
414.167, 40839.922
414.649, 40892.672
415.131, 40915.012
415.613, 40927.980
416.095, 40957.809
416.577, 41009.219
417.060, 41065.602
417.542, 41126.570
418.024, 41182.270
418.506, 41218.879
418.988, 41197.109
419.470, 41181.988
419.952, 41219.801
420.434, 41308.398
420.916, 41378.738
421.398, 41410.262
421.881, 41414.449
422.363, 41400.320
422.845, 41335.648
423.327, 41294.211
423.809, 41294.441
424.291, 41328.328
424.773, 41368.480
425.255, 41434.148
425.738, 41487.012
426.220, 41513.551
426.702, 41508.141
427.184, 41491.121
427.666, 41442.391
428.148, 41397.551
428.630, 41408.930
429.112, 41499.039
429.595, 41579.012
430.077, 41620.359
430.559, 41629.109
431.041, 41665.488
431.523, 41738.461
432.005, 41807.199
432.487, 41833.711
432.969, 41819.930
433.451, 41811.520
433.934, 41812.719
434.416, 41826.180
434.898, 41861.059
435.380, 41915.980
435.862, 41974.391
436.344, 42035.809
436.826, 42092.770
437.308, 42128.371
437.790, 42141.379
438.273, 42142.852
438.755, 42119.840
439.237, 42095.129
439.719, 42109.090
440.201, 42215.160
440.683, 42330.109
441.165, 42391.309
441.647, 42406.262
442.129, 42415.270
442.612, 42423.020
443.094, 42440.211
443.576, 42477.500
444.058, 42550.648
444.540, 42613.352
445.022, 42651.410
445.504, 42671.781
445.987, 42686.148
446.469, 42703.859
446.951, 42709.410
447.433, 42684.828
447.915, 42623.059
448.397, 42613.879
448.879, 42686.059
449.361, 42786.309
449.843, 42872.059
450.326, 42940.730
450.808, 43003.859
451.290, 43063.441
451.772, 43117.578
452.254, 43150.488
452.736, 43151.898
453.218, 43171.871
453.700, 43250.590
454.182, 43383.629
454.665, 43482.461
455.147, 43539.480
455.629, 43579.719
456.111, 43626.539
456.593, 43680.730
457.075, 43749.129
457.557, 43838.629
458.039, 43940.160
458.522, 44036.289
459.004, 44129.641
459.486, 44228.059
459.968, 44366.129
460.450, 44502.691
460.932, 44573.250
461.414, 44539.762
461.896, 44519.859
462.379, 44626.879
462.861, 44795.230
463.343, 44907.930
463.825, 44892.480
464.307, 44837.340
464.789, 44771.590
465.271, 44695.961
465.753, 44628.660
466.235, 44580.988
466.717, 44538.320
467.200, 44489.359
467.682, 44428.289
468.164, 44367.762
468.646, 44301.090
469.128, 44235.289
469.610, 44192.102
470.092, 44175.051
470.574, 44173.250
471.057, 44190.289
471.539, 44230.211
472.021, 44226.648
472.503, 44160.930
472.985, 44093.199
473.467, 44103.469
473.949, 44191.148
474.431, 44258.289
474.914, 44280.609
475.396, 44271.250
475.878, 44250.570
476.360, 44220.648
476.842, 44197.891
477.324, 44206.719
477.806, 44228.000
478.288, 44225.070
478.770, 44192.930
479.253, 44157.238
479.735, 44125.500
480.217, 44108.781
480.699, 44124.090
481.181, 44218.371
481.663, 44310.719
482.145, 44339.480
482.627, 44317.949
483.109, 44330.262
483.592, 44428.898
484.074, 44550.539
484.556, 44658.629
485.038, 44750.781
485.520, 44821.359
486.002, 44845.609
486.484, 44852.609
486.966, 44887.371
487.448, 44991.930
487.931, 45053.910
488.413, 45036.930
488.895, 44947.969
489.377, 44876.629
489.859, 44822.879
490.341, 44793.379
490.823, 44803.629
491.306, 44856.930
491.788, 44898.730
492.270, 44926.129
492.752, 44939.961
493.234, 44934.109
493.716, 44911.910
494.198, 44894.250
494.680, 44890.680
495.162, 44896.770
495.645, 44907.141
496.127, 44920.852
496.609, 44932.379
497.091, 44928.629
497.573, 44923.039
498.055, 44931.859
498.537, 44959.891
499.019, 44999.859
499.501, 45063.891
499.984, 45135.789
500.466, 45186.660
500.948, 45189.359
501.430, 45186.879
501.912, 45195.320
502.394, 45216.949
502.876, 45237.820
503.358, 45246.141
503.841, 45262.211
504.323, 45300.711
504.805, 45382.160
505.287, 45442.879
505.769, 45468.660
506.251, 45477.238
506.733, 45511.262
507.215, 45579.328
507.698, 45634.500
508.180, 45654.199
508.662, 45644.422
509.144, 45643.711
509.626, 45652.039
510.108, 45671.801
510.590, 45718.969
511.072, 45781.520
511.554, 45817.621
512.036, 45814.828
512.519, 45798.559
513.001, 45787.891
513.483, 45786.031
513.965, 45799.969
514.447, 45835.621
514.929, 45886.969
515.411, 45964.359
515.893, 46066.020
516.375, 46136.660
516.858, 46122.020
517.340, 46086.211
517.822, 46075.379
518.304, 46106.609
518.786, 46147.520
519.268, 46209.488
519.750, 46275.070
520.232, 46310.941
520.715, 46283.898
521.197, 46281.102
521.679, 46333.270
522.161, 46438.770
522.643, 46530.980
523.125, 46614.660
523.607, 46672.141
524.089, 46670.922
524.571, 46615.391
525.054, 46605.961
525.536, 46663.480
526.018, 46742.941
526.500, 46775.551
526.982, 46770.648
527.464, 46765.941
527.946, 46786.891
528.429, 46811.250
528.911, 46801.379
529.393, 46762.961
529.875, 46741.840
530.357, 46784.020
530.839, 46845.250
531.321, 46885.352
531.803, 46886.359
532.286, 46896.699
532.768, 46960.012
533.250, 47034.102
533.732, 47059.859
534.214, 46980.020
534.696, 46907.699
535.178, 46855.500
535.660, 46825.449
536.142, 46834.000
536.625, 46900.250
537.107, 46974.121
537.589, 47033.711
538.071, 47079.641
538.553, 47102.102
539.035, 47093.660
539.517, 47082.090
539.999, 47104.852
540.481, 47158.461
540.964, 47215.641
541.446, 47272.230
541.928, 47322.621
542.410, 47357.551
542.892, 47376.719
543.374, 47380.379
543.856, 47329.121
544.338, 47284.641
544.820, 47323.191
545.303, 47458.641
545.785, 47575.672
546.267, 47588.211
546.749, 47570.871
547.231, 47594.359
547.713, 47756.750
548.195, 47863.859
548.677, 47840.398
549.159, 47744.199
549.642, 47722.281
550.124, 47835.441
550.606, 47932.320
551.088, 47964.199
551.570, 47930.441
552.052, 47906.031
552.534, 47890.172
553.016, 47886.422
553.499, 47900.289
553.981, 47930.738
554.463, 47971.371
554.945, 48027.941
555.427, 48072.789
555.909, 48043.770
556.391, 47966.828
556.873, 47924.539
557.356, 47973.770
557.838, 48061.250
558.320, 48156.680
558.802, 48252.531
559.284, 48307.000
559.766, 48258.371
560.248, 48189.988
560.730, 48156.180
561.213, 48169.551
561.695, 48202.680
562.177, 48261.230
562.659, 48332.328
563.141, 48401.320
563.623, 48465.039
564.105, 48531.891
564.587, 48606.078
565.069, 48681.570
565.552, 48735.930
566.034, 48762.840
566.516, 48788.359
566.998, 48826.410
567.480, 48873.988
567.962, 48919.109
568.444, 48962.980
568.926, 48986.199
569.408, 48944.410
569.891, 48871.211
570.373, 48843.449
570.855, 48887.051
571.337, 48949.711
571.819, 48995.391
572.301, 49027.879
572.783, 49055.051
573.265, 49072.629
573.747, 49092.191
574.230, 49117.160
574.712, 49147.820
575.194, 49184.430
575.676, 49247.480
576.158, 49298.441
576.640, 49315.871
577.122, 49283.859
577.604, 49281.359
578.086, 49336.391
578.569, 49385.480
579.051, 49342.629
579.533, 49195.980
580.015, 49078.230
580.497, 49010.551
580.979, 48990.398
581.461, 49026.461
581.943, 49113.691
582.426, 49211.320
582.908, 49301.770
583.390, 49389.691
583.872, 49492.430
584.354, 49606.988
584.836, 49692.441
585.318, 49711.691
585.800, 49695.770
586.282, 49662.449
586.765, 49588.590
587.247, 49560.281
587.729, 49637.980
588.211, 49760.328
588.693, 49843.648
589.175, 49860.359
589.657, 49873.609
590.140, 49884.449
590.622, 49899.102
591.104, 49950.559
591.586, 50054.379
592.068, 50139.988
592.550, 50160.891
593.032, 50127.379
593.514, 50127.211
593.996, 50162.160
594.479, 50209.879
594.961, 50264.270
595.443, 50314.910
595.925, 50338.219
596.407, 50324.340
596.889, 50298.461
597.371, 50255.230
597.853, 50218.648
598.335, 50227.609
598.818, 50360.809
599.300, 50476.109
599.782, 50509.141
600.264, 50473.320
600.746, 50461.500
601.228, 50487.820
601.710, 50530.148
602.192, 50585.430
602.674, 50657.551
603.157, 50703.219
603.639, 50707.770
604.121, 50717.781
604.603, 50795.762
605.085, 50935.801
605.567, 51014.371
606.049, 50997.930
606.531, 50962.621
607.013, 51028.352
607.496, 51162.238
607.978, 51272.301
608.460, 51300.422
608.942, 51302.121
609.424, 51318.180
609.906, 51345.512
610.388, 51372.410
610.870, 51383.988
611.353, 51401.480
611.835, 51438.512
612.317, 51501.738
612.799, 51557.711
613.281, 51601.512
613.763, 51641.141
614.245, 51680.969
614.727, 51719.320
615.209, 51765.641
615.692, 51818.840
616.174, 51884.379
616.656, 51987.980
617.138, 52126.629
617.620, 52225.430
618.102, 52233.480
618.584, 52217.199
619.067, 52294.449
619.549, 52448.789
620.031, 52605.980
620.513, 52699.051
620.995, 52792.500
621.477, 52948.730
621.959, 53174.371
622.441, 53385.281
622.923, 53539.691
623.406, 53675.250
623.888, 53817.711
624.370, 53969.809
624.852, 54126.039
625.334, 54279.109
625.816, 54439.930
626.298, 54627.422
626.780, 54848.910
627.263, 55058.379
627.745, 55241.680
628.227, 55412.371
628.709, 55621.398
629.191, 55859.172
629.673, 56051.910
630.155, 56182.762
630.637, 56234.820
631.119, 56187.559
631.602, 56041.250
632.084, 55795.988
632.566, 55387.969
633.048, 54927.480
633.530, 54480.680
634.012, 54036.770
634.494, 53673.949
634.976, 53455.672
635.458, 53300.199
635.941, 53125.078
636.423, 52900.660
636.905, 52715.551
637.387, 52575.789
637.869, 52480.531
638.351, 52444.969
638.833, 52472.051
639.315, 52486.371
639.797, 52448.531
640.280, 52386.672
640.762, 52374.219
641.244, 52402.109
641.726, 52411.180
642.208, 52340.781
642.690, 52249.539
643.172, 52188.469
643.654, 52163.102
644.137, 52163.289
644.619, 52201.500
645.101, 52255.000
645.583, 52308.039
646.065, 52363.859
646.547, 52410.980
647.029, 52442.289
647.511, 52469.648
647.994, 52509.469
648.476, 52563.039
648.958, 52609.609
649.440, 52632.410
649.922, 52656.371
650.404, 52761.309
650.886, 52931.801
651.368, 53065.199
651.851, 53080.840
652.333, 53042.980
652.815, 53019.879
653.297, 53013.090
653.779, 53027.301
654.261, 53088.719
654.743, 53156.270
655.225, 53206.520
655.707, 53239.711
656.190, 53248.051
656.672, 53200.359
657.154, 53152.980
657.636, 53149.391
658.118, 53208.621
658.600, 53258.828
659.082, 53301.031
659.564, 53324.211
660.046, 53297.941
660.529, 53226.270
661.011, 53167.961
661.493, 53137.570
661.975, 53131.531
662.457, 53163.422
662.939, 53219.480
663.421, 53255.500
663.903, 53221.410
664.385, 53185.629
664.868, 53203.891
665.350, 53272.379
665.832, 53317.730
666.314, 53282.961
666.796, 53257.031
667.278, 53281.738
667.760, 53364.949
668.242, 53455.281
668.724, 53562.281
669.207, 53650.949
669.689, 53673.730
670.171, 53631.121
670.653, 53618.520
671.135, 53647.371
671.617, 53694.590
672.099, 53746.879
672.581, 53794.699
673.064, 53816.109
673.546, 53792.828
674.028, 53759.871
674.510, 53751.020
674.992, 53752.262
675.474, 53730.691
675.956, 53643.512
676.438, 53574.059
676.920, 53553.648
677.403, 53577.328
677.885, 53612.539
678.367, 53676.930
678.849, 53716.789
679.331, 53678.762
679.813, 53576.328
680.295, 53602.621
680.778, 53764.480
681.260, 53938.570
681.742, 54007.102
682.224, 54013.730
682.706, 54038.648
683.188, 54091.500
683.670, 54155.211
684.152, 54227.809
684.634, 54299.539
685.117, 54359.699
685.599, 54411.648
686.081, 54444.840
686.563, 54454.090
687.045, 54446.770
687.527, 54424.578
688.009, 54362.910
688.491, 54362.910
688.973, 54469.449
689.456, 54630.730
689.938, 54707.500
690.420, 54702.578
690.902, 54664.480
691.384, 54570.469
691.866, 54482.051
692.348, 54520.430
692.830, 54661.781
693.312, 54781.781
693.795, 54783.680
694.277, 54757.031
694.759, 54755.820
695.241, 54785.109
695.723, 54829.699
696.205, 54919.141
696.687, 54994.730
697.169, 55020.422
697.652, 54980.672
698.134, 54945.141
698.616, 54908.238
699.098, 54892.699
699.580, 54945.578
700.062, 55051.090
700.544, 55118.820
701.026, 55131.961
701.508, 55108.629
701.991, 55031.520
702.473, 54938.770
702.955, 54894.520
703.437, 54981.691
703.919, 55057.629
704.401, 55026.840
704.883, 54943.520
705.365, 54958.520
705.847, 55165.000
706.330, 55342.941
706.812, 55436.621
707.294, 55460.109
707.776, 55474.789
708.258, 55477.461
708.740, 55492.422
709.222, 55534.211
709.705, 55598.898
710.187, 55682.250
710.669, 55782.969
711.151, 55872.059
711.633, 55906.922
712.115, 55935.969
712.597, 56007.160
713.079, 56131.980
713.561, 56258.559
714.044, 56350.422
714.526, 56454.660
715.008, 56605.820
715.490, 56838.191
715.972, 57033.160
716.454, 57182.520
716.936, 57308.871
717.418, 57436.879
717.901, 57566.738
718.383, 57695.949
718.865, 57842.828
719.347, 57938.309
719.829, 57864.809
720.311, 57681.789
720.793, 57507.609
721.275, 57405.199
721.757, 57305.320
722.240, 57167.988
722.722, 57009.102
723.204, 56863.520
723.686, 56745.512
724.168, 56630.281
724.650, 56503.160
725.132, 56374.449
725.614, 56290.340
726.096, 56253.480
726.579, 56242.488
727.061, 56258.352
727.543, 56288.730
728.025, 56303.012
728.507, 56301.828
728.989, 56292.199
729.471, 56280.199
729.953, 56261.672
730.435, 56232.879
730.918, 56193.789
731.400, 56149.801
731.882, 56055.328
732.364, 55997.711
732.846, 56042.801
733.328, 56248.719
733.810, 56330.340
734.292, 56249.000
734.775, 56130.109
735.257, 56089.070
735.739, 56118.020
736.221, 56166.711
736.703, 56231.891
737.185, 56299.809
737.667, 56384.551
738.149, 56455.199
738.631, 56458.070
739.114, 56329.230
739.596, 56222.262
740.078, 56215.949
740.560, 56264.121
741.042, 56293.129
741.524, 56260.898
742.006, 56286.020
742.489, 56409.512
742.971, 56577.441
743.453, 56669.352
743.935, 56683.660
744.417, 56680.488
744.899, 56662.078
745.381, 56654.430
745.863, 56717.129
746.345, 56827.730
746.828, 56915.730
747.310, 56909.410
747.792, 56901.859
748.274, 56960.059
748.756, 57070.801
749.238, 57142.602
749.720, 57150.629
750.202, 57138.320
750.684, 57120.250
751.167, 57097.879
751.649, 57060.430
752.131, 57008.160
752.613, 56956.660
753.095, 56910.449
753.577, 56875.641
754.059, 56865.660
754.541, 56880.672
755.023, 56910.488
755.506, 56956.672
755.988, 57006.488
756.470, 57042.449
756.952, 57054.480
757.434, 57087.820
757.916, 57183.422
758.398, 57268.828
758.880, 57294.289
759.362, 57239.039
759.845, 57210.949
760.327, 57218.480
760.809, 57230.930
761.291, 57219.129
761.773, 57188.230
762.255, 57145.602
762.737, 57089.441
763.219, 57050.699
763.702, 57080.590
764.184, 57135.102
764.666, 57158.578
765.148, 57092.730
765.630, 57068.102
766.112, 57140.328
766.594, 57244.672
767.076, 57295.500
767.558, 57259.230
768.041, 57291.590
768.523, 57431.270
769.005, 57612.070
769.487, 57734.191
769.969, 57800.020
770.451, 57820.711
770.933, 57773.121
771.416, 57720.309
771.898, 57722.070
772.380, 57758.711
772.862, 57791.340
773.344, 57816.930
773.826, 57828.180
774.308, 57818.711
774.790, 57796.629
775.272, 57778.988
775.755, 57764.730
776.237, 57769.211
776.719, 57807.680
777.201, 57862.141
777.683, 57883.871
778.165, 57877.852
778.647, 57867.609
779.129, 57856.309
779.612, 57853.770
780.094, 57869.078
780.576, 57899.980
781.058, 57937.672
781.540, 57987.199
782.022, 58032.699
782.504, 58070.539
782.986, 58099.410
783.468, 58107.961
783.951, 58087.289
784.433, 58077.629
784.915, 58108.570
785.397, 58165.398
785.879, 58200.320
786.361, 58215.219
786.843, 58225.031
787.325, 58239.160
787.807, 58255.191
788.290, 58266.820
788.772, 58274.809
789.254, 58301.352
789.736, 58385.289
790.218, 58457.551
790.700, 58477.000
791.182, 58436.789
791.664, 58445.180
792.146, 58511.590
792.629, 58580.629
793.111, 58589.980
793.593, 58570.078
794.075, 58616.820
794.557, 58734.211
795.039, 58849.289
795.521, 58936.609
796.003, 58983.359
796.485, 58959.840
796.968, 58831.629
797.450, 58779.121
797.932, 58878.262
798.414, 58999.820
798.896, 59054.391
799.378, 59031.691
799.860, 59052.500
800.343, 59132.309
800.825, 59185.309
801.307, 59087.328
801.789, 58911.840
802.271, 58806.430
802.753, 58795.012
803.235, 58822.461
803.717, 58870.328
804.199, 58931.730
804.682, 59003.641
805.164, 59099.191
805.646, 59175.219
806.128, 59240.340
806.610, 59274.160
807.092, 59236.602
807.574, 59128.379
808.056, 59087.590
808.539, 59132.980
809.021, 59208.680
809.503, 59277.750
809.985, 59330.660
810.467, 59344.969
810.949, 59297.750
811.431, 59273.711
811.913, 59339.969
812.395, 59428.051
812.878, 59465.391
813.360, 59402.461
813.842, 59401.129
814.324, 59490.340
814.806, 59594.000
815.288, 59619.090
815.770, 59576.461
816.252, 59522.289
816.734, 59457.648
817.217, 59419.109
817.699, 59472.449
818.181, 59559.430
818.663, 59605.949
819.145, 59575.680
819.627, 59540.441
820.109, 59512.039
820.591, 59488.559
821.073, 59467.281
821.556, 59446.512
822.038, 59439.141
822.520, 59445.230
823.002, 59469.891
823.484, 59535.281
823.966, 59623.801
824.448, 59687.211
824.930, 59705.340
825.413, 59722.090
825.895, 59777.270
826.377, 59840.930
826.859, 59879.211
827.341, 59812.719
827.823, 59826.988
828.305, 59966.039
828.787, 60137.230
829.269, 60223.559
829.752, 60225.512
830.234, 60223.570
830.716, 60228.660
831.198, 60238.012
831.680, 60259.129
832.162, 60280.059
832.644, 60282.012
833.127, 60260.711
833.609, 60221.000
834.091, 60114.172
834.573, 60018.859
835.055, 60029.270
835.537, 60211.570
836.019, 60314.211
836.501, 60302.398
836.983, 60251.230
837.466, 60254.570
837.948, 60299.059
838.430, 60331.059
838.912, 60334.301
839.394, 60346.281
839.876, 60413.359
840.358, 60498.750
840.840, 60560.570
841.322, 60597.570
841.805, 60593.070
842.287, 60506.762
842.769, 60421.230
843.251, 60430.340
843.733, 60539.121
844.215, 60653.129
844.697, 60771.602
845.179, 60843.078
845.661, 60746.879
846.144, 60584.680
846.626, 60530.051
847.108, 60647.320
847.590, 60770.840
848.072, 60836.250
848.554, 60873.398
849.036, 60911.211
849.518, 60955.398
850.000, 60987.102
850.483, 61005.770
850.965, 61015.109
851.447, 61023.539
851.929, 61027.262
852.411, 61003.379
852.893, 60946.641
853.375, 60898.551
853.857, 60903.719
854.340, 60927.320
854.822, 60935.980
855.304, 60916.828
855.786, 60906.219
856.268, 60889.770
856.750, 60903.250
857.232, 60991.820
857.714, 61157.039
858.196, 61257.961
858.679, 61285.301
859.161, 61286.039
859.643, 61275.891
860.125, 61275.129
860.607, 61319.762
861.089, 61417.039
861.571, 61500.289
862.054, 61528.379
862.536, 61545.648
863.018, 61579.621
863.500, 61632.961
863.982, 61674.070
864.464, 61700.500
864.946, 61726.711
865.428, 61782.910
865.910, 61843.250
866.393, 61826.969
866.875, 61737.070
867.357, 61668.680
867.839, 61699.922
868.321, 61753.359
868.803, 61781.789
869.285, 61781.141
869.767, 61784.191
870.250, 61799.020
870.732, 61804.070
871.214, 61776.578
871.696, 61731.789
872.178, 61758.000
872.660, 61848.738
873.142, 61923.469
873.624, 61912.328
874.106, 61878.391
874.589, 61865.250
875.071, 61874.551
875.553, 61905.141
876.035, 61979.320
876.517, 62043.820
876.999, 62075.520
877.481, 62085.672
877.963, 62138.590
878.445, 62235.410
878.928, 62303.219
879.410, 62273.320
879.892, 62233.828
880.374, 62335.809
880.856, 62527.051
881.338, 62665.422
881.820, 62632.109
882.302, 62612.602
882.784, 62704.398
883.267, 62838.500
883.749, 62842.422
884.231, 62681.430
884.713, 62576.660
885.195, 62591.922
885.677, 62666.039
886.159, 62721.949
886.641, 62755.531
887.123, 62751.512
887.606, 62647.141
888.088, 62592.719
888.570, 62720.219
889.052, 62913.230
889.534, 62986.090
890.016, 62853.430
890.498, 62831.199
890.981, 62976.320
891.463, 63175.750
891.945, 63271.949
892.427, 63291.809
892.909, 63318.891
893.391, 63369.160
893.873, 63424.559
894.355, 63463.230
894.837, 63503.250
895.320, 63567.969
895.802, 63691.199
896.284, 63751.852
896.766, 63724.230
897.248, 63673.820
897.730, 63663.070
898.212, 63683.090
898.694, 63670.059
899.177, 63620.840
899.659, 63576.012
900.141, 63583.148
900.623, 63602.551
901.105, 63593.730
901.587, 63550.020
902.069, 63534.422
902.551, 63583.469
903.033, 63621.020
903.516, 63600.801
903.998, 63533.238
904.480, 63515.840
904.962, 63546.891
905.444, 63573.371
905.926, 63554.602
906.408, 63518.898
906.890, 63482.551
907.372, 63450.512
907.855, 63446.719
908.337, 63494.648
908.819, 63554.020
909.301, 63628.148
909.783, 63702.422
910.265, 63714.148
910.747, 63663.340
911.229, 63624.090
911.711, 63623.789
912.194, 63648.051
912.676, 63700.238
913.158, 63760.539
913.640, 63789.102
914.122, 63718.852
914.604, 63682.691
915.086, 63718.488
915.568, 63790.602
916.050, 63859.281
916.533, 63926.531
917.015, 63954.891
917.497, 63931.660
917.979, 63900.738
918.461, 63917.961
918.943, 63962.070
919.425, 64001.551
919.907, 64032.180
920.390, 64054.641
920.872, 64032.570
921.354, 64034.500
921.836, 64127.129
922.318, 64342.730
922.800, 64425.711
923.282, 64353.879
923.764, 64286.012
924.247, 64392.750
924.729, 64568.379
925.211, 64636.441
925.693, 64589.160
926.175, 64572.461
926.657, 64673.500
927.139, 64791.840
927.621, 64886.512
928.104, 64957.570
928.586, 65004.602
929.068, 65025.129
929.550, 65047.020
930.032, 65097.801
930.514, 65148.621
930.996, 65143.750
931.478, 65099.500
931.960, 65061.109
932.443, 65059.609
932.925, 65055.219
933.407, 65033.371
933.889, 65002.191
934.371, 64971.941
934.853, 64938.699
935.335, 64932.621
935.817, 64966.988
936.299, 65006.559
936.782, 64972.672
937.264, 64918.980
937.746, 64953.090
938.228, 65159.328
938.710, 65315.059
939.192, 65290.910
939.674, 65225.430
940.156, 65234.520
940.638, 65336.910
941.121, 65406.719
941.603, 65440.262
942.085, 65453.551
942.567, 65456.781
943.049, 65450.371
943.531, 65424.039
944.013, 65378.539
944.495, 65361.172
944.978, 65429.539
945.460, 65489.219
945.942, 65490.262
946.424, 65443.160
946.906, 65442.840
947.388, 65491.559
947.870, 65556.781
948.352, 65634.391
948.834, 65710.227
949.317, 65750.070
949.799, 65772.648
950.281, 65824.727
950.763, 65976.008
951.245, 66089.250
951.727, 66104.156
952.209, 66088.289
952.692, 66160.383
953.174, 66322.844
953.656, 66470.430
954.138, 66578.008
954.620, 66690.227
955.102, 66837.141
955.584, 67028.609
956.066, 67289.406
956.548, 67657.812
957.031, 67989.477
957.513, 68204.188
957.995, 68444.703
958.477, 68816.711
958.959, 69320.641
959.441, 69797.094
959.923, 70242.594
960.405, 70758.109
960.888, 71410.367
961.370, 72173.297
961.852, 73010.047
962.334, 73928.633
962.816, 74982.273
963.298, 76060.203
963.780, 77417.812
964.262, 79069.727
964.744, 81078.242
965.227, 83533.367
965.709, 86491.547
966.191, 90581.844
966.673, 97113.422
967.155, 102968.102
967.637, 106891.602
968.119, 108160.398
968.601, 105533.797
969.083, 95843.453
969.566, 87689.789
970.048, 81329.719
970.530, 76498.289
971.012, 73295.898
971.494, 71458.219
971.976, 70201.031
972.458, 69440.750
972.940, 68918.953
973.422, 68555.594
973.905, 68276.992
974.387, 68038.102
974.869, 67836.297
975.351, 67707.570
975.833, 67668.828
976.315, 67651.891
976.797, 67629.602
977.279, 67603.977
977.761, 67574.992
978.244, 67545.719
978.726, 67527.453
979.208, 67552.227
979.690, 67556.977
980.172, 67481.688
980.654, 67383.727
981.136, 67362.078
981.619, 67433.773
982.101, 67483.727
982.583, 67498.250
983.065, 67484.352
983.547, 67429.078
984.029, 67360.906
984.511, 67325.703
984.993, 67337.672
985.475, 67347.227
985.958, 67347.438
986.440, 67333.844
986.922, 67289.742
987.404, 67219.508
987.886, 67239.742
988.368, 67349.492
988.850, 67445.492
989.332, 67443.844
989.815, 67416.672
990.297, 67450.281
990.779, 67517.523
991.261, 67528.688
991.743, 67398.000
992.225, 67315.227
992.707, 67318.062
993.189, 67369.578
993.671, 67421.461
994.154, 67468.453
994.636, 67473.320
995.118, 67412.992
995.600, 67379.180
996.082, 67464.250
996.564, 67588.977
997.046, 67680.273
997.528, 67731.672
998.010, 67755.742
998.493, 67741.273
998.975, 67733.789
999.457, 67762.078
999.939, 67819.312
1000.421, 67919.773
1000.903, 68045.344
1001.385, 68108.000
1001.867, 67950.844
1002.349, 67852.227
1002.832, 67978.938
1003.314, 68215.523
1003.796, 68314.953
1004.278, 68264.117
1004.760, 68228.094
1005.242, 68244.469
1005.724, 68277.938
1006.206, 68299.273
1006.689, 68307.078
1007.171, 68294.469
1007.653, 68246.570
1008.135, 68227.523
1008.617, 68259.523
1009.099, 68300.758
1009.581, 68321.844
1010.063, 68326.969
1010.545, 68357.023
1011.028, 68409.094
1011.510, 68449.898
1011.992, 68447.141
1012.474, 68436.742
1012.956, 68444.422
1013.438, 68463.961
1013.920, 68471.219
1014.402, 68458.039
1014.885, 68451.867
1015.367, 68458.852
1015.849, 68471.094
1016.331, 68472.727
1016.813, 68471.844
1017.295, 68487.797
1017.777, 68528.703
1018.259, 68572.828
1018.741, 68615.633
1019.224, 68657.141
1019.706, 68702.953
1020.188, 68754.406
1020.670, 68765.242
1021.152, 68734.539
1021.634, 68707.453
1022.116, 68703.062
1022.598, 68723.383
1023.081, 68780.258
1023.563, 68863.633
1024.045, 68942.773
1024.527, 69002.477
1025.009, 69071.719
1025.491, 69165.203
1025.973, 69248.047
1026.455, 69235.094
1026.938, 69160.398
1027.420, 69167.922
1027.902, 69297.227
1028.384, 69407.250
1028.866, 69362.930
1029.348, 69300.438
1029.830, 69337.156
1030.312, 69480.633
1030.794, 69552.594
1031.276, 69545.141
1031.759, 69529.477
1032.241, 69552.656
1032.723, 69586.188
1033.205, 69593.352
1033.687, 69576.594
1034.169, 69539.227
1034.651, 69425.578
1035.133, 69374.070
1035.616, 69424.102
1036.098, 69515.562
1036.580, 69561.953
1037.062, 69571.469
1037.544, 69619.273
1038.026, 69713.523
1038.508, 69810.883
1038.990, 69884.594
1039.473, 69939.141
1039.955, 69974.633
1040.437, 69990.258
1040.919, 69991.211
1041.401, 69974.773
1041.883, 69956.477
1042.365, 69943.109
1042.847, 69934.477
1043.329, 69943.273
1043.812, 69956.453
1044.294, 69942.703
1044.776, 69854.789
1045.258, 69801.859
1045.740, 69816.477
1046.222, 69860.773
1046.704, 69909.320
1047.186, 69961.242
1047.668, 69977.188
1048.151, 69955.711
1048.633, 69936.547
1049.115, 69930.531
1049.597, 69951.547
1050.079, 70015.117
1050.561, 70118.852
1051.043, 70241.453
1051.525, 70404.227
1052.008, 70504.570
1052.490, 70501.703
1052.972, 70452.523
1053.454, 70415.352
1053.936, 70405.961
1054.418, 70467.273
1054.900, 70646.797
1055.382, 70776.383
1055.865, 70760.602
1056.347, 70730.633
1056.829, 70766.227
1057.311, 70860.773
1057.793, 70940.094
1058.275, 71002.758
1058.757, 71037.047
1059.239, 70999.703
1059.721, 70968.383
1060.203, 71012.656
1060.686, 71103.703
1061.168, 71168.508
1061.650, 71214.727
1062.132, 71204.461
1062.614, 71119.820
1063.096, 71032.992
1063.578, 71064.594
1064.060, 71137.773
1064.543, 71106.328
1065.025, 70942.008
1065.507, 70849.156
1065.989, 70935.523
1066.471, 71049.172
1066.953, 71150.523
1067.435, 71233.797
1067.917, 71245.430
1068.400, 71208.648
1068.882, 71262.094
1069.364, 71491.961
1069.846, 71772.641
1070.328, 72107.523
1070.810, 72409.156
1071.292, 72574.352
1071.774, 72590.750
1072.256, 72496.578
1072.739, 72272.930
1073.221, 72049.250
1073.703, 71931.406
1074.185, 71871.211
1074.667, 71813.648
1075.149, 71758.070
1075.631, 71716.211
1076.113, 71718.047
1076.596, 71688.719
1077.078, 71597.930
1077.560, 71497.070
1078.042, 71474.977
1078.524, 71515.602
1079.006, 71570.383
1079.488, 71637.078
1079.970, 71687.438
1080.453, 71687.461
1080.935, 71686.703
1081.417, 71718.523
1081.899, 71780.477
1082.381, 71829.094
1082.863, 71864.461
1083.345, 71913.617
1083.827, 71989.141
1084.309, 72081.711
1084.792, 72192.648
1085.274, 72308.438
1085.756, 72402.203
1086.238, 72443.602
1086.720, 72525.742
1087.202, 72665.727
1087.684, 72795.180
1088.166, 72839.227
1088.648, 72833.891
1089.131, 72819.508
1089.613, 72810.594
1090.095, 72881.211
1090.577, 73122.102
1091.059, 73373.938
1091.541, 73595.078
1092.023, 73808.281
1092.505, 74058.680
1092.988, 74341.477
1093.470, 74616.594
1093.952, 74868.312
1094.434, 75154.281
1094.916, 75471.258
1095.398, 75875.023
1095.880, 76409.953
1096.362, 77071.148
1096.844, 77732.250
1097.327, 78380.742
1097.809, 79202.938
1098.291, 80342.008
1098.773, 81633.188
1099.255, 82957.203
1099.737, 84286.352
1100.219, 85580.477
1100.701, 87122.078
1101.183, 88026.500
1101.666, 88184.828
1102.148, 87978.477
1102.630, 87501.789
1103.112, 86995.070
1103.594, 86908.078
1104.076, 87262.633
1104.558, 88059.797
1105.040, 89243.078
1105.523, 90973.508
1106.005, 93127.180
1106.487, 95938.148
1106.969, 99779.430
1107.451, 104621.297
1107.933, 110743.898
1108.415, 118638.602
1108.897, 124229.297
1109.380, 125290.102
1109.862, 122695.102
1110.344, 115910.602
1110.826, 105731.000
1111.308, 97258.844
1111.790, 90434.383
1112.272, 85230.070
1112.754, 81902.094
1113.236, 79664.812
1113.719, 78062.148
1114.201, 76947.141
1114.683, 76094.508
1115.165, 75488.398
1115.647, 75135.461
1116.129, 75084.688
1116.611, 75098.820
1117.093, 75020.703
1117.575, 74880.242
1118.058, 74709.750
1118.540, 74521.297
1119.022, 74361.820
1119.504, 74264.203
1119.986, 74172.062
1120.468, 74067.570
1120.950, 73983.609
1121.432, 73978.961
1121.915, 74031.406
1122.397, 74065.781
1122.879, 74075.844
1123.361, 74079.344
1123.843, 74061.031
1124.325, 74069.844
1124.807, 74128.250
1125.289, 74226.906
1125.771, 74331.172
1126.254, 74445.094
1126.736, 74618.992
1127.218, 74874.023
1127.700, 75158.844
1128.182, 75445.844
1128.664, 75729.469
1129.146, 75979.992
1129.628, 76191.406
1130.110, 76528.727
1130.593, 77000.609
1131.075, 77470.656
1131.557, 77818.156
1132.039, 78187.453
1132.521, 78735.156
1133.003, 79411.398
1133.485, 80141.109
1133.967, 80954.406
1134.450, 81736.359
1134.932, 82520.047
1135.414, 83175.203
1135.896, 83766.617
1136.378, 84082.711
1136.860, 83687.883
1137.342, 82678.188
1137.824, 81474.758
1138.307, 79951.828
1138.789, 78619.273
1139.271, 77554.812
1139.753, 76704.711
1140.235, 76013.656
1140.717, 75489.211
1141.199, 75177.820
1141.681, 75085.344
1142.163, 75045.469
1142.646, 75036.773
1143.128, 74997.977
1143.610, 74892.656
1144.092, 74751.773
1144.574, 74647.477
1145.056, 74581.258
1145.538, 74566.797
1146.020, 74632.523
1146.502, 74664.172
1146.985, 74550.633
1147.467, 74418.352
1147.949, 74360.000
1148.431, 74373.906
1148.913, 74404.211
1149.395, 74451.047
1149.877, 74494.078
1150.359, 74507.039
1150.842, 74535.242
1151.324, 74623.844
1151.806, 74740.781
1152.288, 74844.383
1152.770, 74932.461
1153.252, 74987.430
1153.734, 75003.469
1154.216, 75015.883
1154.698, 75044.062
1155.181, 75084.297
1155.663, 75129.461
1156.145, 75184.383
1156.627, 75271.039
1157.109, 75428.867
1157.591, 75520.859
1158.073, 75536.273
1158.555, 75485.523
1159.037, 75315.680
1159.520, 75125.117
1160.002, 75076.141
1160.484, 75160.312
1160.966, 75191.594
1161.448, 75085.953
1161.930, 75030.820
1162.412, 75081.922
1162.894, 75163.773
1163.377, 75161.938
1163.859, 75103.562
1164.341, 75030.508
1164.823, 74945.969
1165.305, 74892.852
1165.787, 74913.547
1166.269, 74926.227
1166.751, 74900.992
1167.234, 74854.188
1167.716, 74818.633
1168.198, 74796.461
1168.680, 74791.531
1169.162, 74812.297
1169.644, 74832.742
1170.126, 74820.727
1170.608, 74832.070
1171.090, 74907.078
1171.573, 75029.641
1172.055, 75123.547
1172.537, 75188.867
1173.019, 75233.781
1173.501, 75208.820
1173.983, 75233.328
1174.465, 75415.188
1174.947, 75617.883
1175.430, 75719.039
1175.912, 75721.188
1176.394, 75740.203
1176.876, 75775.797
1177.358, 75799.547
1177.840, 75785.758
1178.322, 75767.008
1178.804, 75744.523
1179.286, 75738.172
1179.769, 75790.594
1180.251, 75904.781
1180.733, 75961.367
1181.215, 75950.609
1181.697, 75950.781
1182.179, 76056.992
1182.661, 76160.070
1183.143, 76159.156
1183.625, 76094.812
1184.108, 76091.844
1184.590, 76152.477
1185.072, 76223.023
1185.554, 76299.180
1186.036, 76341.289
1186.518, 76266.273
1187.000, 76179.938
1187.482, 76194.023
1187.965, 76295.812
1188.447, 76330.867
1188.929, 76293.297
1189.411, 76256.453
1189.893, 76241.906
1190.375, 76237.109
1190.857, 76250.617
1191.339, 76255.250
1191.822, 76206.906
1192.304, 76096.633
1192.786, 76056.711
1193.268, 76096.844
1193.750, 76140.898
1194.232, 76158.133
1194.714, 76159.758
1195.196, 76137.320
1195.678, 76116.977
1196.161, 76145.992
1196.643, 76258.094
1197.125, 76280.688
1197.607, 76192.250
1198.089, 76129.773
1198.571, 76219.500
1199.053, 76337.953
1199.535, 76304.898
1200.017, 76197.617
1200.500, 76167.469
1200.982, 76274.672
1201.464, 76374.523
1201.946, 76471.188
1202.428, 76543.047
1202.910, 76559.203
1203.392, 76551.453
1203.874, 76563.719
1204.357, 76585.953
1204.839, 76582.148
1205.321, 76516.727
1205.803, 76499.969
1206.285, 76542.062
1206.767, 76621.883
1207.249, 76752.273
1207.731, 76885.312
1208.214, 76946.430
1208.696, 76945.500
1209.178, 76949.297
1209.660, 76958.531
1210.142, 76996.938
1210.624, 77076.453
1211.106, 77157.367
1211.588, 77197.797
1212.070, 77208.977
1212.552, 77197.750
1213.035, 77166.703
1213.517, 77150.031
1213.999, 77152.156
1214.481, 77161.133
1214.963, 77173.531
1215.445, 77193.047
1215.927, 77243.703
1216.409, 77294.656
1216.892, 77300.641
1217.374, 77254.352
1217.856, 77196.391
1218.338, 77119.617
1218.820, 77071.078
1219.302, 77071.039
1219.784, 77099.062
1220.266, 77136.469
1220.749, 77176.523
1221.231, 77205.320
1221.713, 77215.953
1222.195, 77252.000
1222.677, 77318.477
1223.159, 77400.242
1223.641, 77504.906
1224.123, 77597.023
1224.605, 77609.391
1225.088, 77577.852
1225.570, 77552.227
1226.052, 77529.320
1226.534, 77572.727
1227.016, 77711.047
1227.498, 77805.773
1227.980, 77739.320
1228.462, 77642.258
1228.944, 77730.039
1229.427, 77915.844
1229.909, 78054.008
1230.391, 78122.094
1230.873, 78113.547
1231.355, 78011.680
1231.837, 77908.023
1232.319, 77826.328
1232.801, 77805.742
1233.284, 77968.977
1233.766, 78215.273
1234.248, 78334.578
1234.730, 78205.078
1235.212, 78199.656
1235.694, 78338.719
1236.176, 78497.852
1236.658, 78594.953
1237.141, 78651.727
1237.623, 78672.000
1238.105, 78672.609
1238.587, 78703.289
1239.069, 78799.539
1239.551, 78788.094
1240.033, 78643.094
1240.515, 78527.047
1240.997, 78636.477
1241.479, 78791.789
1241.962, 78815.281
1242.444, 78740.891
1242.926, 78684.430
1243.408, 78654.688
1243.890, 78631.633
1244.372, 78612.828
1244.854, 78616.258
1245.336, 78652.633
1245.819, 78720.359
1246.301, 78844.289
1246.783, 78992.250
1247.265, 79065.453
1247.747, 79047.883
1248.229, 79067.203
1248.711, 79141.406
1249.193, 79199.562
1249.676, 79151.297
1250.158, 79091.156
1250.640, 79106.398
1251.122, 79167.828
1251.604, 79185.141
1252.086, 79160.227
1252.568, 79130.867
1253.050, 79105.094
1253.532, 79080.117
1254.015, 79035.727
1254.497, 79011.828
1254.979, 79044.508
1255.461, 79115.023
1255.943, 79181.570
1256.425, 79242.133
1256.907, 79280.367
1257.389, 79288.680
1257.871, 79299.398
1258.354, 79328.531
1258.836, 79366.219
1259.318, 79403.797
1259.800, 79443.320
1260.282, 79511.547
1260.764, 79593.523
1261.246, 79611.867
1261.728, 79544.172
1262.211, 79470.883
1262.693, 79444.688
1263.175, 79414.547
1263.657, 79356.031
1264.139, 79285.898
1264.621, 79254.953
1265.103, 79250.781
1265.585, 79224.500
1266.068, 79158.438
1266.550, 79119.906
1267.032, 79134.891
1267.514, 79181.281
1267.996, 79248.758
1268.478, 79343.953
1268.960, 79524.609
1269.442, 79732.719
1269.924, 79819.977
1270.407, 79697.594
1270.889, 79708.383
1271.371, 79961.359
1271.853, 80192.094
1272.335, 80279.188
1272.817, 80288.102
1273.299, 80319.547
1273.781, 80363.719
1274.264, 80403.367
1274.746, 80428.039
1275.228, 80490.602
1275.710, 80616.562
1276.192, 80692.141
1276.674, 80640.102
1277.156, 80561.008
1277.638, 80651.867
1278.120, 80779.656
1278.603, 80717.109
1279.085, 80386.898
1279.567, 80256.867
1280.049, 80347.258
1280.531, 80464.703
1281.013, 80534.141
1281.495, 80568.211
1281.977, 80545.992
1282.459, 80514.047
1282.942, 80532.406
1283.424, 80603.609
1283.906, 80634.156
1284.388, 80624.727
1284.870, 80650.320
1285.352, 80770.008
1285.834, 80888.930
1286.316, 80944.211
1286.799, 80966.703
1287.281, 80978.938
1287.763, 80983.242
1288.245, 81036.297
1288.727, 81122.789
1289.209, 81142.750
1289.691, 80989.922
1290.173, 80878.352
1290.656, 80928.719
1291.138, 81014.617
1291.620, 81056.562
1292.102, 81070.227
1292.584, 81126.594
1293.066, 81199.711
1293.548, 81231.672
1294.030, 81206.656
1294.512, 81192.562
1294.995, 81194.680
1295.477, 81205.922
1295.959, 81232.023
1296.441, 81256.953
1296.923, 81245.148
##END=



