##NAMES=Tyrolite
##RRUFFID=R060264
##IDEAL CHEMISTRY=Ca_2_Cu^2+^_9_(As^5+^O_4_)_4_(CO_3_)(OH)_8_&#183;11H_2_O
##LOCALITY=Lovelock mine, Bolivia, Cottonwood Canyon, Churchill County, Nevada, USA
##OWNER=RRUFF
##SOURCE=Michael Scott
##DESCRIPTION=Greenish-blue flat bladed crystals in radial aggregates
##STATUS=The identification of this mineral has been confirmed by single-crystal X-ray diffraction.
##URL=rruff.info/R060264
91.53320, 104.0008
92.01532, 100.5286
92.49744, 99.19778
92.97955, 103.6100
93.46167, 109.3725
93.94379, 110.2079
94.42590, 105.3081
94.90802, 98.31210
95.39014, 92.44071
95.87225, 87.37922
96.35437, 84.25856
96.83649, 85.35090
97.31860, 87.75344
97.80072, 88.20470
98.28284, 84.46815
98.76495, 77.60201
99.24707, 73.18930
99.72919, 72.83384
100.2113, 73.16288
100.6934, 73.70663
101.1755, 74.24529
101.6577, 74.55411
102.1398, 74.41759
102.6219, 73.75046
103.1040, 73.07645
103.5861, 73.12563
104.0682, 72.62193
104.5504, 70.00627
105.0325, 65.39169
105.5146, 61.02710
105.9967, 60.28367
106.4788, 64.99472
106.9609, 68.73808
107.4431, 71.46154
107.9252, 72.96761
108.4073, 72.66577
108.8894, 70.01855
109.3715, 66.26962
109.8536, 63.61681
110.3358, 62.13512
110.8179, 60.91827
111.3000, 59.18731
111.7821, 57.07075
112.2642, 55.95154
112.7463, 57.60038
113.2285, 59.75489
113.7106, 59.78708
114.1927, 56.68495
114.6748, 52.99783
115.1569, 52.87633
115.6390, 58.43758
116.1212, 62.06489
116.6033, 60.01308
117.0854, 55.77362
117.5675, 52.83539
118.0496, 53.05426
118.5317, 55.63775
119.0139, 56.76082
119.4960, 54.18223
119.9781, 52.44296
120.4602, 52.90062
120.9423, 54.76716
121.4244, 56.61047
121.9066, 57.32795
122.3887, 56.83580
122.8708, 56.33351
123.3529, 56.10622
123.8350, 55.63287
124.3171, 54.79819
124.7993, 53.53555
125.2814, 51.57347
125.7635, 48.19482
126.2456, 42.79329
126.7277, 40.27617
127.2098, 42.68760
127.6920, 47.13815
128.1741, 50.95031
128.6562, 53.68871
129.1383, 55.29321
129.6204, 55.12229
130.1025, 53.39738
130.5847, 51.71603
131.0668, 50.58489
131.5489, 49.97455
132.0310, 49.85217
132.5131, 50.56404
132.9952, 51.39407
133.4774, 51.92625
133.9595, 52.13820
134.4416, 51.73438
134.9237, 50.04259
135.4058, 46.74472
135.8879, 44.33854
136.3701, 43.70071
136.8522, 43.86076
137.3343, 44.39109
137.8164, 45.17906
138.2985, 46.29130
138.7806, 48.18752
139.2628, 52.74501
139.7449, 54.37389
140.2270, 50.53814
140.7091, 45.00842
141.1912, 41.14215
141.6733, 40.46745
142.1555, 42.12268
142.6376, 43.18872
143.1197, 43.14672
143.6018, 43.04356
144.0839, 43.15062
144.5660, 43.24554
145.0482, 42.88568
145.5303, 41.74070
146.0124, 39.98040
146.4945, 38.87583
146.9766, 38.60232
147.4587, 38.64045
147.9409, 38.88046
148.4230, 39.28495
148.9051, 39.75195
149.3872, 40.30204
149.8693, 40.84416
150.3514, 41.04144
150.8336, 41.02467
151.3157, 40.57762
151.7978, 39.00358
152.2799, 36.02745
152.7620, 33.78340
153.2441, 35.05195
153.7263, 38.14965
154.2084, 40.27880
154.6905, 39.53974
155.1726, 37.33548
155.6547, 37.11087
156.1368, 40.34581
156.6190, 42.85091
157.1011, 41.52738
157.5832, 37.93444
158.0653, 35.13686
158.5474, 35.83130
159.0295, 39.61354
159.5117, 40.98833
159.9938, 36.84055
160.4759, 33.23439
160.9580, 32.56493
161.4401, 34.32592
161.9222, 36.83504
162.4044, 38.62829
162.8865, 39.57914
163.3686, 40.59436
163.8507, 42.70195
164.3328, 44.02538
164.8149, 43.07436
165.2971, 40.16491
165.7792, 37.08564
166.2613, 35.98040
166.7434, 37.79806
167.2255, 38.98961
167.7076, 39.38508
168.1898, 39.38382
168.6719, 39.10950
169.1540, 38.63383
169.6361, 38.19488
170.1182, 38.14695
170.6003, 38.68697
171.0825, 39.15318
171.5646, 39.77819
172.0467, 40.21508
172.5288, 39.88425
173.0109, 38.53679
173.4930, 36.90313
173.9752, 36.33395
174.4573, 36.95811
174.9394, 37.34895
175.4215, 36.40579
175.9036, 34.93377
176.3857, 35.04301
176.8679, 38.10362
177.3500, 41.74896
177.8321, 42.67548
178.3142, 40.73158
178.7963, 38.49767
179.2784, 37.59176
179.7606, 37.83702
180.2427, 37.84729
180.7248, 37.08590
181.2069, 36.09490
181.6890, 35.36795
182.1711, 34.94503
182.6533, 34.59809
183.1354, 33.87770
183.6175, 32.62932
184.0996, 32.23554
184.5817, 33.71277
185.0638, 35.76039
185.5460, 37.99367
186.0281, 40.28205
186.5102, 42.06910
186.9923, 42.49249
187.4744, 41.16345
187.9565, 39.41752
188.4387, 36.27301
188.9208, 33.50392
189.4029, 32.76917
189.8850, 34.48370
190.3671, 37.31249
190.8492, 38.67804
191.3314, 37.29251
191.8135, 36.44618
192.2956, 37.10226
192.7777, 37.95082
193.2598, 37.42614
193.7419, 34.97598
194.2241, 31.82021
194.7062, 30.90720
195.1883, 36.33640
195.6704, 39.30652
196.1525, 37.36780
196.6346, 33.59907
197.1168, 31.87037
197.5989, 33.93181
198.0810, 38.22072
198.5631, 40.17594
199.0452, 38.02545
199.5273, 36.07549
200.0095, 34.73904
200.4916, 34.06801
200.9737, 34.49895
201.4558, 36.56076
201.9379, 39.16984
202.4200, 38.92336
202.9022, 34.16274
203.3843, 30.08257
203.8664, 29.17013
204.3485, 30.43927
204.8306, 31.06528
205.3127, 29.52647
205.7949, 26.98448
206.2770, 25.95620
206.7591, 26.66562
207.2412, 28.16099
207.7233, 30.41976
208.2054, 33.25115
208.6876, 35.38693
209.1697, 36.11354
209.6518, 35.95588
210.1339, 35.72993
210.6160, 35.36999
211.0981, 35.21315
211.5803, 35.76237
212.0624, 37.02006
212.5445, 37.91574
213.0266, 38.30272
213.5087, 37.92894
213.9908, 35.97610
214.4730, 31.94856
214.9551, 28.44731
215.4372, 29.26785
215.9193, 35.38796
216.4014, 39.74835
216.8836, 39.06458
217.3657, 36.53115
217.8478, 33.66764
218.3299, 30.82080
218.8120, 28.54420
219.2941, 27.64944
219.7763, 28.33292
220.2584, 29.81866
220.7405, 33.43753
221.2226, 36.87075
221.7047, 38.19099
222.1868, 36.93954
222.6690, 34.59754
223.1511, 33.47992
223.6332, 34.00555
224.1153, 34.88357
224.5974, 36.99590
225.0795, 38.73733
225.5617, 38.60851
226.0438, 36.29658
226.5259, 33.03926
227.0080, 30.93481
227.4901, 30.32731
227.9722, 30.43097
228.4544, 31.66288
228.9365, 33.20232
229.4186, 34.57935
229.9007, 35.60411
230.3828, 36.15747
230.8649, 35.95188
231.3471, 33.96885
231.8292, 32.88456
232.3113, 33.80246
232.7934, 34.90417
233.2755, 34.18666
233.7576, 31.25609
234.2398, 27.93260
234.7219, 27.35865
235.2040, 32.23183
235.6861, 35.10978
236.1682, 34.43909
236.6503, 32.66559
237.1325, 32.11784
237.6146, 33.38174
238.0967, 35.23137
238.5788, 35.82761
239.0609, 34.51644
239.5430, 33.33098
240.0252, 32.10320
240.5073, 31.14082
240.9894, 30.96919
241.4715, 31.70620
241.9536, 32.60481
242.4357, 32.62870
242.9179, 31.56784
243.4000, 30.52437
243.8821, 29.35389
244.3642, 28.36344
244.8463, 27.86526
245.3284, 27.91900
245.8106, 28.47607
246.2927, 29.71734
246.7748, 31.68800
247.2569, 33.20559
247.7390, 34.63261
248.2211, 35.28998
248.7033, 33.65534
249.1854, 29.17826
249.6675, 24.93328
250.1496, 24.58616
250.6317, 27.54507
251.1138, 30.12770
251.5960, 31.61868
252.0781, 32.32259
252.5602, 32.55170
253.0423, 32.29304
253.5244, 31.78164
254.0065, 30.95486
254.4887, 29.99104
254.9708, 29.45404
255.4529, 29.58975
255.9350, 30.19148
256.4171, 30.99698
256.8992, 32.00144
257.3813, 33.19671
257.8635, 35.39395
258.3456, 37.73226
258.8277, 38.52037
259.3098, 36.37339
259.7919, 32.94763
260.2740, 30.51400
260.7562, 29.16707
261.2383, 28.40789
261.7204, 27.85978
262.2025, 27.76462
262.6846, 28.71569
263.1667, 31.56539
263.6489, 34.70059
264.1310, 35.58678
264.6131, 33.71212
265.0952, 31.81312
265.5773, 31.58809
266.0594, 31.76903
266.5416, 30.94151
267.0237, 28.39514
267.5058, 25.62413
267.9879, 24.77633
268.4700, 26.23186
268.9521, 27.87130
269.4343, 29.73961
269.9164, 31.10089
270.3985, 30.98498
270.8806, 29.04486
271.3627, 26.76133
271.8448, 26.22940
272.3270, 27.90868
272.8091, 28.92446
273.2912, 27.07740
273.7733, 25.31887
274.2554, 25.91911
274.7375, 29.18873
275.2197, 32.94270
275.7018, 34.76723
276.1839, 34.42488
276.6660, 33.65752
277.1481, 31.83160
277.6302, 30.26144
278.1124, 29.84753
278.5945, 30.53655
279.0766, 31.42140
279.5587, 31.48203
280.0408, 30.57257
280.5229, 30.17699
281.0051, 31.57796
281.4872, 32.43766
281.9693, 31.07461
282.4514, 28.07758
282.9335, 25.55078
283.4156, 25.57393
283.8978, 28.21638
284.3799, 30.12510
284.8620, 31.10117
285.3441, 31.43632
285.8262, 30.86734
286.3083, 29.73118
286.7905, 28.65779
287.2726, 28.04650
287.7547, 27.89094
288.2368, 28.19134
288.7189, 29.53819
289.2010, 30.64887
289.6832, 30.81587
290.1653, 30.59550
290.6474, 31.03571
291.1295, 32.93662
291.6116, 35.60383
292.0938, 36.02021
292.5759, 31.87142
293.0580, 28.73291
293.5401, 28.57166
294.0222, 29.57200
294.5043, 29.55968
294.9865, 27.53144
295.4686, 24.45120
295.9507, 22.66492
296.4328, 22.75433
296.9149, 23.21669
297.3970, 24.09146
297.8792, 25.06600
298.3613, 25.83666
298.8434, 26.32309
299.3255, 26.71613
299.8076, 27.41007
300.2897, 28.80313
300.7719, 29.55932
301.2540, 28.94253
301.7361, 28.26267
302.2182, 28.63257
302.7003, 30.07443
303.1824, 31.49327
303.6646, 31.31511
304.1467, 28.70368
304.6288, 27.56907
305.1109, 29.34576
305.5930, 31.24759
306.0751, 31.96251
306.5573, 31.55700
307.0394, 30.84131
307.5215, 30.51313
308.0036, 30.59033
308.4857, 30.78368
308.9678, 31.29359
309.4500, 31.72647
309.9321, 32.33715
310.4142, 32.77447
310.8963, 32.17127
311.3784, 29.66104
311.8605, 25.73550
312.3427, 24.36125
312.8248, 28.93219
313.3069, 32.18151
313.7890, 31.77336
314.2711, 29.60628
314.7532, 28.33367
315.2354, 29.31564
315.7175, 31.56569
316.1996, 32.22449
316.6817, 30.43061
317.1638, 28.26047
317.6459, 24.38578
318.1281, 21.10254
318.6102, 21.23541
319.0923, 25.45427
319.5744, 30.99772
320.0565, 32.97648
320.5386, 29.02771
321.0208, 26.95926
321.5029, 28.52473
321.9850, 30.66402
322.4671, 31.57949
322.9492, 31.02817
323.4313, 29.76969
323.9135, 28.38001
324.3956, 26.57390
324.8777, 26.15909
325.3598, 29.02296
325.8419, 31.53109
326.3240, 32.23217
326.8062, 31.35035
327.2883, 29.85368
327.7704, 28.36697
328.2525, 26.91404
328.7346, 25.86393
329.2167, 25.43072
329.6989, 25.19987
330.1810, 25.24766
330.6631, 25.38889
331.1452, 25.20913
331.6273, 24.38366
332.1094, 23.43333
332.5916, 24.19960
333.0737, 28.46100
333.5558, 31.36392
334.0379, 31.40077
334.5200, 30.27711
335.0021, 29.79844
335.4843, 30.51679
335.9664, 31.18369
336.4485, 29.29241
336.9306, 23.22981
337.4127, 19.45857
337.8948, 19.52910
338.3770, 21.22647
338.8591, 24.31840
339.3412, 28.25029
339.8233, 31.21581
340.3055, 30.81192
340.7876, 26.56954
341.2697, 23.72947
341.7518, 23.30771
342.2339, 23.43345
342.7160, 23.47161
343.1982, 23.47092
343.6803, 23.74377
344.1624, 24.73508
344.6445, 26.13251
345.1266, 26.10798
345.6087, 22.95522
346.0909, 21.23727
346.5730, 23.83903
347.0551, 28.03119
347.5372, 30.12787
348.0193, 28.35345
348.5014, 24.86760
348.9836, 23.70777
349.4657, 25.57483
349.9478, 27.44031
350.4299, 29.12062
350.9120, 30.13149
351.3941, 29.87248
351.8763, 28.25915
352.3584, 26.09410
352.8405, 23.62021
353.3226, 20.76655
353.8047, 19.97278
354.2868, 23.06946
354.7690, 26.84146
355.2511, 29.73063
355.7332, 31.62730
356.2153, 32.39509
356.6974, 31.23128
357.1795, 28.75113
357.6617, 27.53782
358.1438, 28.30021
358.6259, 28.92027
359.1080, 27.59711
359.5901, 25.45534
360.0722, 24.35189
360.5544, 25.26063
361.0365, 27.12838
361.5186, 28.80305
362.0007, 30.37344
362.4828, 30.87365
362.9649, 28.53205
363.4471, 25.70047
363.9292, 25.46348
364.4113, 28.73582
364.8934, 31.86654
365.3755, 31.75088
365.8576, 28.91015
366.3398, 26.10634
366.8219, 23.67535
367.3040, 21.91589
367.7861, 21.18485
368.2682, 21.39679
368.7503, 21.97073
369.2325, 23.07465
369.7146, 24.28019
370.1967, 24.64644
370.6788, 23.93871
371.1609, 23.38101
371.6430, 24.19620
372.1252, 25.94972
372.6073, 27.15802
373.0894, 27.54384
373.5715, 27.38663
374.0536, 26.54216
374.5357, 25.17624
375.0179, 24.24855
375.5000, 24.18771
375.9821, 24.92726
376.4642, 26.41645
376.9463, 29.25860
377.4284, 31.37765
377.9106, 31.80003
378.3927, 31.03892
378.8748, 29.90034
379.3569, 28.57782
379.8390, 27.03398
380.3211, 24.91265
380.8033, 21.87295
381.2854, 20.54268
381.7675, 23.19116
382.2496, 26.13408
382.7317, 25.78508
383.2138, 22.37626
383.6960, 19.44645
384.1781, 19.84600
384.6602, 23.27147
385.1423, 25.11350
385.6244, 24.40194
386.1065, 23.52057
386.5887, 23.28063
387.0708, 23.39019
387.5529, 23.17818
388.0350, 22.32301
388.5171, 21.33767
388.9992, 21.38732
389.4814, 23.99624
389.9635, 25.27204
390.4456, 24.05478
390.9277, 22.29527
391.4098, 21.48613
391.8919, 21.86478
392.3741, 22.89112
392.8562, 24.12216
393.3383, 25.69761
393.8204, 26.40132
394.3025, 25.42269
394.7846, 24.47886
395.2668, 24.26979
395.7489, 24.50994
396.2310, 24.47721
396.7131, 23.68420
397.1952, 22.56907
397.6773, 22.79174
398.1595, 25.89363
398.6416, 27.75458
399.1237, 27.07571
399.6058, 25.56836
400.0879, 24.42658
400.5700, 24.02397
401.0522, 24.42197
401.5343, 26.31857
402.0164, 30.33783
402.4985, 31.99860
402.9806, 28.42751
403.4627, 24.96905
403.9449, 24.26766
404.4270, 25.58612
404.9091, 26.69689
405.3912, 26.07283
405.8733, 24.31833
406.3554, 23.33666
406.8376, 23.33161
407.3197, 23.58563
407.8018, 24.21667
408.2839, 24.77287
408.7660, 24.58937
409.2481, 23.35890
409.7303, 22.19664
410.2124, 22.13273
410.6945, 23.14457
411.1766, 25.09073
411.6587, 29.08470
412.1408, 32.48824
412.6230, 32.29950
413.1051, 29.02316
413.5872, 26.35532
414.0693, 26.34151
414.5514, 27.70411
415.0335, 28.69088
415.5157, 29.25222
415.9978, 28.80468
416.4799, 25.92013
416.9620, 21.92783
417.4441, 20.85353
417.9262, 25.00839
418.4084, 29.21975
418.8905, 30.60269
419.3726, 29.77536
419.8547, 28.04164
420.3368, 25.62255
420.8189, 23.21298
421.3011, 22.03758
421.7832, 22.35789
422.2653, 22.71270
422.7474, 23.28376
423.2295, 23.60308
423.7116, 22.67972
424.1938, 20.77610
424.6759, 19.89274
425.1580, 21.89279
425.6401, 26.52038
426.1222, 29.01804
426.6043, 27.67183
427.0865, 26.54041
427.5686, 27.02783
428.0507, 28.20664
428.5328, 28.56089
429.0149, 27.53392
429.4970, 26.06383
429.9792, 25.87164
430.4613, 27.86730
430.9434, 29.17001
431.4255, 29.97543
431.9076, 30.07040
432.3897, 28.80294
432.8719, 26.61768
433.3540, 24.83316
433.8361, 24.58758
434.3182, 25.62655
434.8003, 26.10668
435.2824, 25.83048
435.7646, 25.24603
436.2467, 24.11197
436.7288, 22.93694
437.2109, 22.35226
437.6930, 22.56100
438.1751, 23.00170
438.6573, 22.66821
439.1394, 21.42139
439.6215, 21.61134
440.1036, 25.69723
440.5857, 28.83685
441.0678, 26.88675
441.5500, 21.13418
442.0321, 16.54733
442.5142, 16.01567
442.9963, 18.06560
443.4784, 20.32162
443.9605, 22.85431
444.4427, 25.09049
444.9248, 27.10851
445.4069, 28.39032
445.8890, 28.03480
446.3711, 25.51614
446.8532, 22.72948
447.3354, 20.23018
447.8175, 18.27537
448.2996, 17.66850
448.7817, 18.72799
449.2638, 20.22056
449.7459, 20.60949
450.2281, 19.80676
450.7102, 20.34031
451.1923, 24.45310
451.6744, 28.01797
452.1565, 27.80322
452.6386, 24.75426
453.1208, 21.77662
453.6029, 20.25434
454.0850, 20.16714
454.5671, 21.49296
455.0492, 26.60441
455.5313, 29.87641
456.0135, 30.67079
456.4956, 29.99844
456.9777, 27.90178
457.4598, 24.87311
457.9419, 22.55730
458.4240, 22.71896
458.9062, 25.40762
459.3883, 27.04617
459.8704, 26.90538
460.3525, 26.45642
460.8346, 25.95786
461.3167, 25.35438
461.7989, 24.48414
462.2810, 23.27587
462.7631, 21.99932
463.2452, 20.87344
463.7273, 19.74123
464.2094, 19.73389
464.6916, 21.94242
465.1737, 24.45909
465.6558, 26.36810
466.1379, 27.65151
466.6200, 28.51413
467.1021, 29.46987
467.5843, 29.89206
468.0664, 27.80283
468.5485, 22.66452
469.0306, 18.93337
469.5127, 19.46622
469.9948, 22.13880
470.4770, 23.60016
470.9591, 23.57678
471.4412, 22.95797
471.9233, 21.47724
472.4054, 19.87203
472.8875, 19.89074
473.3697, 21.94462
473.8518, 23.98215
474.3339, 24.04401
474.8160, 22.11440
475.2981, 20.70596
475.7802, 19.88302
476.2624, 19.49787
476.7445, 19.66426
477.2266, 20.19034
477.7087, 20.72120
478.1908, 21.11827
478.6729, 21.51966
479.1551, 22.25082
479.6372, 23.94064
480.1193, 24.40702
480.6014, 22.56589
481.0835, 20.64485
481.5656, 19.58951
482.0478, 19.52415
482.5299, 20.50647
483.0120, 22.74589
483.4941, 25.72216
483.9762, 27.35301
484.4583, 27.10187
484.9405, 26.55944
485.4226, 25.71711
485.9047, 24.94500
486.3868, 24.57415
486.8689, 24.62920
487.3510, 24.84328
487.8332, 25.31906
488.3153, 25.84863
488.7974, 24.97556
489.2795, 21.62144
489.7616, 19.41610
490.2437, 22.65892
490.7259, 28.01414
491.2080, 30.05218
491.6901, 26.28478
492.1722, 22.07514
492.6543, 21.99263
493.1364, 24.58632
493.6186, 25.28683
494.1007, 22.56384
494.5828, 19.33417
495.0649, 19.18165
495.5470, 22.49207
496.0291, 24.64183
496.5113, 24.19917
496.9934, 23.76377
497.4755, 25.34804
497.9576, 28.15949
498.4397, 30.16477
498.9218, 30.37527
499.4040, 29.30280
499.8861, 28.00933
500.3682, 26.05863
500.8503, 24.73565
501.3324, 24.29972
501.8145, 24.18549
502.2967, 24.28729
502.7788, 24.42018
503.2609, 24.09495
503.7430, 22.74354
504.2251, 20.93872
504.7072, 21.12560
505.1894, 24.35450
505.6715, 27.17798
506.1536, 29.50099
506.6357, 30.57885
507.1178, 29.00397
507.5999, 24.81326
508.0821, 20.98014
508.5642, 20.20886
509.0463, 21.47710
509.5284, 21.52617
510.0105, 19.80967
510.4926, 18.50822
510.9748, 19.15151
511.4569, 21.15012
511.9390, 23.14656
512.4211, 25.57916
512.9032, 27.04501
513.3853, 26.10352
513.8674, 23.93082
514.3495, 22.40025
514.8317, 21.92330
515.3138, 22.43741
515.7959, 24.17521
516.2780, 27.32687
516.7601, 28.66150
517.2422, 27.06090
517.7244, 25.21606
518.2065, 24.24900
518.6886, 23.53135
519.1707, 21.45200
519.6528, 17.60023
520.1349, 14.27324
520.6171, 15.82878
521.0992, 24.45420
521.5813, 29.02445
522.0634, 25.94188
522.5455, 22.15917
523.0276, 19.59411
523.5098, 18.21610
523.9919, 17.72071
524.4740, 18.05550
524.9561, 18.95916
525.4382, 20.32651
525.9203, 22.16798
526.4025, 23.29299
526.8846, 22.88871
527.3667, 22.39118
527.8488, 23.92340
528.3309, 26.99358
528.8130, 28.20089
529.2952, 24.44021
529.7773, 20.01181
530.2594, 19.22772
530.7415, 21.46870
531.2236, 23.58929
531.7057, 24.24160
532.1879, 23.91729
532.6700, 23.49005
533.1521, 22.72174
533.6342, 22.43158
534.1163, 23.60141
534.5984, 24.43191
535.0806, 23.03454
535.5627, 20.20646
536.0448, 18.42295
536.5269, 19.29555
537.0090, 21.93011
537.4911, 23.64963
537.9733, 24.26132
538.4554, 24.37929
538.9375, 23.59792
539.4196, 22.76448
539.9017, 22.28768
540.3839, 22.22461
540.8660, 22.59643
541.3481, 23.90765
541.8302, 25.39160
542.3123, 24.85303
542.7944, 21.95563
543.2766, 20.05917
543.7587, 20.99551
544.2408, 23.21577
544.7229, 24.49921
545.2050, 24.79639
545.6871, 24.73340
546.1693, 24.51595
546.6514, 24.04473
547.1335, 22.90861
547.6156, 21.26603
548.0977, 20.22423
548.5798, 20.63170
549.0620, 21.84750
549.5441, 21.70848
550.0262, 18.16890
550.5083, 15.99522
550.9904, 15.87230
551.4725, 16.61680
551.9547, 17.68172
552.4368, 18.80636
552.9189, 19.60273
553.4010, 19.66996
553.8831, 19.30496
554.3652, 19.88011
554.8474, 22.08488
555.3295, 23.47855
555.8116, 22.27631
556.2937, 20.84043
556.7758, 21.07167
557.2579, 22.97956
557.7401, 24.86321
558.2222, 25.69783
558.7043, 25.87959
559.1864, 26.05462
559.6685, 26.23919
560.1506, 26.50325
560.6328, 27.21667
561.1149, 27.71044
561.5970, 25.99989
562.0791, 20.88726
562.5612, 17.79937
563.0433, 19.37966
563.5255, 22.13910
564.0076, 23.22870
564.4897, 22.66876
564.9718, 21.80683
565.4539, 21.44447
565.9360, 21.60145
566.4182, 22.48159
566.9003, 25.25974
567.3824, 26.50570
567.8645, 24.82775
568.3466, 22.72052
568.8287, 21.88993
569.3109, 22.10936
569.7930, 21.93610
570.2751, 19.90628
570.7572, 17.50742
571.2393, 18.59599
571.7214, 23.56791
572.2036, 27.11109
572.6857, 27.01203
573.1678, 25.30453
573.6499, 24.42084
574.1320, 24.33840
574.6141, 23.86756
575.0963, 22.34273
575.5784, 20.57366
576.0605, 18.96496
576.5426, 17.68704
577.0247, 17.52619
577.5068, 19.01932
577.9890, 20.62229
578.4711, 19.10234
578.9532, 11.65950
579.4353, 8.351036
579.9174, 12.07420
580.3995, 16.48255
580.8817, 18.95931
581.3638, 19.76783
581.8459, 19.69573
582.3280, 19.01718
582.8101, 18.41131
583.2922, 19.67699
583.7744, 23.11330
584.2565, 23.68360
584.7386, 18.93003
585.2207, 13.72294
585.7029, 11.26124
586.1850, 10.99318
586.6671, 11.72774
587.1492, 13.85969
587.6313, 15.99801
588.1135, 17.18624
588.5956, 17.60829
589.0777, 17.64206
589.5598, 17.37894
590.0419, 16.78916
590.5240, 15.54565
591.0062, 13.52471
591.4883, 13.88187
591.9704, 19.85052
592.4525, 23.99445
592.9346, 22.89992
593.4167, 19.81888
593.8989, 18.45937
594.3810, 19.65194
594.8631, 21.74870
595.3452, 23.26424
595.8273, 24.20028
596.3094, 24.65213
596.7916, 24.72753
597.2737, 24.07596
597.7558, 21.57097
598.2379, 18.73485
598.7200, 17.18236
599.2021, 17.14044
599.6843, 17.80380
600.1664, 19.42568
600.6485, 21.18410
601.1306, 21.64997
601.6127, 20.87257
602.0948, 20.38488
602.5770, 21.21348
603.0591, 22.67485
603.5412, 22.86926
604.0233, 20.79218
604.5054, 19.02978
604.9875, 17.36161
605.4697, 16.18738
605.9518, 15.82591
606.4339, 16.17809
606.9160, 17.07283
607.3981, 18.49872
607.8802, 20.01525
608.3624, 20.63600
608.8445, 20.22415
609.3266, 19.97779
609.8087, 20.07623
610.2908, 20.39582
610.7729, 21.08464
611.2551, 21.93040
611.7372, 22.23173
612.2193, 21.00226
612.7014, 20.18838
613.1835, 22.17647
613.6656, 25.46626
614.1478, 26.42899
614.6299, 24.18337
615.1120, 21.16693
615.5941, 19.80102
616.0762, 20.09232
616.5583, 20.40533
617.0405, 21.20773
617.5226, 21.44358
618.0047, 20.41327
618.4868, 19.05849
618.9689, 17.94006
619.4510, 17.34872
619.9332, 17.94256
620.4153, 21.08456
620.8974, 25.68140
621.3795, 27.47159
621.8616, 25.97195
622.3438, 24.19393
622.8259, 22.94927
623.3080, 22.23024
623.7901, 22.04428
624.2722, 22.40405
624.7543, 22.93103
625.2365, 24.04010
625.7186, 24.84834
626.2007, 24.57088
626.6828, 23.37154
627.1649, 21.40794
627.6470, 18.69819
628.1292, 16.51055
628.6113, 17.13771
629.0934, 21.56004
629.5755, 24.70671
630.0576, 26.79825
630.5397, 27.24895
631.0219, 24.72611
631.5040, 20.86641
631.9861, 17.67039
632.4682, 15.69886
632.9503, 14.84183
633.4324, 15.46062
633.9146, 17.11246
634.3967, 18.40571
634.8788, 19.21250
635.3609, 19.82008
635.8430, 20.43040
636.3251, 20.93794
636.8073, 20.99332
637.2894, 20.46587
637.7715, 19.88754
638.2536, 19.16833
638.7357, 18.56399
639.2178, 18.42768
639.7000, 18.58750
640.1821, 18.47622
640.6642, 17.75801
641.1463, 16.83675
641.6284, 16.58938
642.1105, 17.16884
642.5927, 17.65045
643.0748, 18.31836
643.5569, 18.38427
644.0390, 16.43870
644.5211, 13.79355
645.0032, 13.22073
645.4854, 15.87563
645.9675, 19.45066
646.4496, 23.85299
646.9317, 27.69056
647.4138, 27.48224
647.8959, 23.02073
648.3781, 18.66167
648.8602, 17.70485
649.3423, 19.44673
649.8244, 20.62719
650.3065, 21.21007
650.7886, 21.23756
651.2708, 19.88845
651.7529, 18.72175
652.2350, 19.13032
652.7171, 20.64338
653.1992, 21.64874
653.6813, 21.13206
654.1635, 20.12204
654.6456, 20.42723
655.1277, 21.89907
655.6098, 22.59098
656.0919, 21.96571
656.5740, 20.97244
657.0562, 20.27218
657.5383, 19.89477
658.0204, 19.85334
658.5025, 20.74296
658.9846, 21.22407
659.4667, 20.56937
659.9489, 19.52257
660.4310, 18.41703
660.9131, 17.61083
661.3952, 18.22913
661.8773, 21.45613
662.3594, 26.04135
662.8416, 27.52431
663.3237, 24.82093
663.8058, 23.06485
664.2879, 24.14297
664.7700, 25.39530
665.2521, 24.42014
665.7343, 21.97790
666.2164, 20.78031
666.6985, 22.78895
667.1806, 24.64655
667.6627, 23.34359
668.1448, 20.37339
668.6270, 18.34899
669.1091, 17.85597
669.5912, 18.89306
670.0733, 21.90020
670.5554, 26.25894
671.0375, 27.35464
671.5197, 21.78220
672.0018, 18.54261
672.4839, 20.46185
672.9660, 23.20366
673.4481, 24.05724
673.9302, 23.07266
674.4124, 21.28111
674.8945, 18.55591
675.3766, 16.31800
675.8587, 17.10431
676.3408, 20.14141
676.8229, 21.49834
677.3051, 20.05474
677.7872, 18.75675
678.2693, 20.64171
678.7514, 25.25903
679.2335, 27.34281
679.7156, 24.81688
680.1978, 22.83366
680.6799, 22.48433
681.1620, 22.68018
681.6441, 22.66063
682.1262, 22.30573
682.6083, 21.69649
683.0905, 20.82586
683.5726, 19.85927
684.0547, 18.98782
684.5368, 18.21508
685.0189, 18.05261
685.5010, 18.80484
685.9832, 19.72631
686.4653, 20.33711
686.9474, 20.59660
687.4295, 20.38028
687.9116, 19.16855
688.3937, 18.19077
688.8759, 17.80407
689.3580, 17.81781
689.8401, 18.11824
690.3222, 18.64360
690.8043, 19.40318
691.2864, 20.50079
691.7686, 21.48159
692.2507, 21.01579
692.7328, 18.79129
693.2149, 17.08996
693.6970, 16.21120
694.1791, 15.92460
694.6613, 16.40319
695.1434, 17.30991
695.6255, 17.82735
696.1076, 17.39181
696.5897, 17.45807
697.0718, 19.75101
697.5540, 22.28976
698.0361, 22.32223
698.5182, 20.01848
699.0003, 17.38593
699.4824, 15.55038
699.9645, 14.76018
700.4467, 16.12700
700.9288, 20.83171
701.4109, 23.15014
701.8930, 20.37716
702.3751, 18.10440
702.8572, 20.17403
703.3394, 24.20389
703.8215, 25.91334
704.3036, 23.86776
704.7857, 21.80330
705.2678, 22.29300
705.7499, 23.81363
706.2321, 24.48786
706.7142, 24.17371
707.1963, 23.03765
707.6784, 21.05047
708.1605, 18.97488
708.6426, 18.34566
709.1248, 19.46339
709.6069, 20.99371
710.0890, 24.42657
710.5711, 26.46940
711.0532, 24.56129
711.5353, 21.31587
712.0175, 20.53749
712.4996, 23.08140
712.9817, 25.14880
713.4638, 23.15207
713.9459, 20.00841
714.4280, 20.32017
714.9102, 23.55035
715.3923, 26.20943
715.8744, 26.84097
716.3565, 26.11733
716.8386, 24.95225
717.3207, 23.32444
717.8029, 21.43192
718.2850, 17.53956
718.7671, 15.64297
719.2492, 18.28924
719.7313, 22.27233
720.2134, 24.53115
720.6956, 24.70112
721.1777, 24.17139
721.6598, 23.41284
722.1419, 22.63605
722.6240, 22.18271
723.1061, 21.96666
723.5883, 21.54950
724.0704, 20.77611
724.5525, 20.20950
725.0346, 20.55592
725.5167, 21.77144
725.9988, 22.21257
726.4810, 21.02816
726.9631, 20.29155
727.4452, 20.47283
727.9273, 20.98658
728.4094, 21.62902
728.8915, 22.22501
729.3737, 22.29909
729.8558, 21.31281
730.3379, 20.26735
730.8200, 20.30450
731.3021, 21.12799
731.7842, 22.24417
732.2664, 23.53471
732.7485, 23.73801
733.2306, 21.57027
733.7127, 17.94076
734.1948, 16.54319
734.6769, 19.22926
735.1591, 20.78372
735.6412, 19.72518
736.1233, 18.93995
736.6054, 20.81425
737.0875, 23.78997
737.5696, 24.59933
738.0518, 21.89304
738.5339, 18.90412
739.0160, 18.35772
739.4981, 19.21811
739.9802, 19.39141
740.4623, 18.88815
740.9445, 19.39858
741.4266, 21.93943
741.9087, 25.12621
742.3908, 26.37212
742.8729, 25.10238
743.3550, 24.39713
743.8372, 24.98513
744.3193, 25.26644
744.8014, 24.70881
745.2835, 23.69267
745.7656, 22.54905
746.2477, 21.34866
746.7299, 20.25076
747.2120, 18.98965
747.6941, 18.13201
748.1762, 18.69745
748.6583, 20.24212
749.1404, 21.44573
749.6226, 21.92558
750.1047, 21.83739
750.5868, 21.23618
751.0689, 20.20763
751.5510, 19.70731
752.0331, 20.12952
752.5153, 20.32429
752.9974, 19.43822
753.4795, 18.85875
753.9616, 20.04355
754.4437, 22.30883
754.9258, 23.41245
755.4080, 22.29350
755.8901, 20.60865
756.3722, 18.85539
756.8543, 17.54781
757.3364, 17.85223
757.8185, 19.57570
758.3007, 21.05149
758.7828, 21.22296
759.2649, 20.84843
759.7470, 21.78953
760.2291, 24.60023
760.7112, 25.96418
761.1934, 24.66930
761.6755, 23.70437
762.1576, 25.62471
762.6397, 28.12359
763.1218, 27.83541
763.6039, 24.10802
764.0861, 21.18399
764.5682, 20.66110
765.0503, 21.35756
765.5324, 23.36452
766.0145, 25.64186
766.4966, 25.94448
766.9788, 23.83497
767.4609, 21.53745
767.9430, 21.43942
768.4251, 23.02670
768.9072, 23.64410
769.3893, 23.10232
769.8715, 22.47385
770.3536, 21.58730
770.8357, 21.30839
771.3178, 22.75618
771.7999, 25.61286
772.2820, 28.26529
772.7642, 31.76743
773.2463, 33.50386
773.7284, 31.52177
774.2105, 28.44869
774.6926, 26.41559
775.1747, 25.43925
775.6569, 24.68881
776.1390, 23.73452
776.6211, 22.97178
777.1032, 23.05461
777.5853, 23.84297
778.0674, 24.62916
778.5496, 25.40382
779.0317, 25.78437
779.5138, 25.44926
779.9959, 24.81830
780.4780, 24.63253
780.9601, 25.01016
781.4423, 25.37627
781.9244, 25.85611
782.4065, 26.17410
782.8886, 25.78843
783.3707, 25.47582
783.8528, 26.73790
784.3350, 29.28616
784.8171, 30.33683
785.2992, 27.26900
785.7813, 22.87033
786.2634, 20.01992
786.7455, 18.88098
787.2277, 21.07117
787.7098, 26.79872
788.1919, 31.12390
788.6740, 29.87161
789.1561, 24.63820
789.6382, 21.23276
790.1204, 20.22448
790.6025, 19.71292
791.0846, 20.06382
791.5667, 20.41814
792.0488, 20.23593
792.5309, 19.87830
793.0131, 19.92392
793.4952, 20.49669
793.9773, 21.26214
794.4594, 22.20924
794.9415, 23.15737
795.4236, 24.01164
795.9058, 24.71558
796.3879, 25.23654
796.8700, 25.54102
797.3521, 25.39489
797.8342, 24.37403
798.3163, 22.76700
798.7985, 22.18103
799.2806, 22.80432
799.7627, 23.37301
800.2448, 23.70224
800.7269, 23.71805
801.2090, 22.92097
801.6912, 21.67311
802.1733, 21.88697
802.6554, 25.62078
803.1375, 27.54578
803.6196, 24.51715
804.1017, 21.30491
804.5839, 21.81492
805.0660, 24.79754
805.5481, 27.10850
806.0302, 27.58974
806.5123, 27.48039
806.9944, 28.66696
807.4766, 30.02110
807.9587, 27.48102
808.4408, 21.50946
808.9229, 19.40167
809.4050, 24.35781
809.8871, 30.59210
810.3693, 30.79807
810.8514, 25.06241
811.3335, 22.65900
811.8156, 26.30219
812.2977, 28.73952
812.7798, 27.93179
813.2620, 26.51150
813.7441, 26.12304
814.2262, 26.54333
814.7083, 26.87526
815.1904, 26.82059
815.6725, 26.80027
816.1547, 27.13470
816.6368, 27.57051
817.1189, 27.75790
817.6010, 27.77552
818.0831, 27.99833
818.5652, 28.57880
819.0474, 29.16633
819.5295, 29.34580
820.0116, 29.12283
820.4937, 28.36609
820.9758, 26.88477
821.4579, 26.07724
821.9401, 26.62905
822.4222, 27.61395
822.9043, 28.31295
823.3864, 28.67705
823.8685, 27.87524
824.3506, 23.51246
824.8328, 21.39057
825.3149, 23.93639
825.7970, 27.62526
826.2791, 30.59124
826.7612, 32.50235
827.2433, 33.23155
827.7255, 32.68511
828.2076, 31.36506
828.6897, 28.52061
829.1718, 25.77622
829.6539, 26.84338
830.1360, 30.84319
830.6182, 32.92332
831.1003, 31.23008
831.5824, 28.35521
832.0645, 27.32111
832.5466, 28.01358
833.0287, 29.39536
833.5109, 32.26197
833.9930, 33.24355
834.4751, 29.92259
834.9572, 26.59669
835.4393, 27.59618
835.9214, 31.38519
836.4036, 33.49800
836.8857, 33.03362
837.3678, 32.03618
837.8499, 30.21262
838.3320, 28.75845
838.8141, 28.81331
839.2963, 29.80678
839.7784, 30.80478
840.2605, 31.46233
840.7426, 31.48460
841.2247, 29.88480
841.7068, 27.80526
842.1890, 28.17974
842.6711, 30.38613
843.1532, 30.41932
843.6353, 27.15640
844.1174, 24.18485
844.5995, 24.89635
845.0817, 28.29716
845.5638, 29.86348
846.0459, 29.02382
846.5280, 27.92655
847.0101, 26.60338
847.4922, 25.19839
847.9744, 23.15602
848.4565, 21.33422
848.9386, 21.12135
849.4207, 22.74899
849.9028, 25.04767
850.3849, 29.38537
850.8671, 32.49674
851.3492, 31.52929
851.8313, 28.63331
852.3134, 26.44885
852.7955, 25.56448
853.2776, 25.56303
853.7598, 26.39252
854.2419, 27.46266
854.7240, 27.82232
855.2061, 27.63974
855.6882, 27.73210
856.1703, 28.18290
856.6525, 27.90090
857.1346, 26.08663
857.6167, 23.91821
858.0988, 23.87621
858.5809, 26.52709
859.0630, 27.51098
859.5452, 26.27799
860.0273, 24.33719
860.5094, 20.73007
860.9915, 17.73136
861.4736, 17.70276
861.9557, 20.24985
862.4379, 22.83933
862.9200, 25.75617
863.4021, 27.62205
863.8842, 27.41852
864.3663, 26.40739
864.8484, 25.56820
865.3306, 24.87990
865.8127, 23.87136
866.2948, 22.37443
866.7769, 21.01670
867.2590, 20.36550
867.7411, 20.32895
868.2233, 20.90326
868.7054, 21.97283
869.1875, 23.03083
869.6696, 23.93892
870.1517, 24.43612
870.6339, 24.23630
871.1160, 23.46412
871.5981, 22.49088
872.0802, 20.85324
872.5623, 20.88922
873.0444, 24.30394
873.5266, 26.94823
874.0087, 26.04070
874.4908, 23.06530
874.9729, 20.58962
875.4550, 18.53605
875.9371, 17.45263
876.4193, 17.56389
876.9014, 18.48586
877.3835, 21.12898
877.8656, 23.78243
878.3477, 24.08119
878.8298, 22.47106
879.3120, 21.88262
879.7941, 24.14782
880.2762, 26.90784
880.7583, 28.67245
881.2404, 29.00324
881.7225, 25.85361
882.2047, 20.18258
882.6868, 16.91842
883.1689, 18.18070
883.6510, 20.96301
884.1331, 21.46066
884.6152, 20.00594
885.0974, 18.99223
885.5795, 18.39382
886.0616, 18.54843
886.5437, 19.80548
887.0258, 21.19257
887.5079, 22.08362
887.9901, 22.42159
888.4722, 21.92373
888.9543, 19.40137
889.4364, 18.32482
889.9185, 20.17107
890.4006, 21.72157
890.8828, 21.41968
891.3649, 20.29301
891.8470, 19.66316
892.3291, 19.64762
892.8112, 19.41702
893.2933, 17.88595
893.7755, 16.89552
894.2576, 18.39481
894.7397, 20.59481
895.2218, 21.12672
895.7039, 20.13272
896.1860, 19.09866
896.6682, 18.72062
897.1503, 18.79951
897.6324, 19.58442
898.1145, 20.53785
898.5966, 19.30445
899.0787, 16.23680
899.5609, 15.64034
900.0430, 19.03131
900.5251, 22.77799
901.0072, 23.24461
901.4893, 21.22915
901.9714, 20.80685
902.4536, 22.85802
902.9357, 23.10572
903.4178, 19.95553
903.8999, 17.19953
904.3820, 17.56874
904.8641, 19.14770
905.3463, 18.11491
905.8284, 13.87676
906.3105, 12.04083
906.7926, 15.45416
907.2747, 18.17607
907.7568, 17.32208
908.2390, 15.89617
908.7211, 17.14152
909.2032, 20.20402
909.6853, 21.62341
910.1674, 19.72571
910.6495, 17.87636
911.1317, 18.73313
911.6138, 20.47710
912.0959, 21.36658
912.5780, 21.35224
913.0601, 20.29066
913.5422, 18.35431
914.0244, 16.94689
914.5065, 17.42649
914.9886, 18.96310
915.4707, 19.87232
915.9528, 20.23350
916.4349, 20.61680
916.9171, 21.09986
917.3992, 21.19324
917.8813, 20.56376
918.3634, 19.68431
918.8455, 19.51746
919.3276, 20.18964
919.8098, 18.94234
920.2919, 14.15243
920.7740, 11.68705
921.2561, 14.15004
921.7382, 17.78259
922.2203, 19.88601
922.7025, 20.62961
923.1846, 20.70475
923.6667, 19.37929
924.1488, 18.98890
924.6309, 21.21565
925.1130, 22.75040
925.5952, 21.06286
926.0773, 18.46216
926.5594, 18.05707
927.0415, 19.91212
927.5236, 21.33070
928.0057, 20.99197
928.4879, 20.17966
928.9700, 19.81448
929.4521, 19.37490
929.9342, 17.63259
930.4163, 15.31547
930.8984, 14.88625
931.3806, 17.15637
931.8627, 19.21566
932.3448, 17.10867
932.8269, 13.36056
933.3090, 13.95220
933.7911, 17.71697
934.2733, 19.53664
934.7554, 18.47253
935.2375, 16.88436
935.7196, 16.33690
936.2017, 16.36574
936.6838, 15.99299
937.1660, 15.19004
937.6481, 14.39931
938.1302, 13.38271
938.6123, 13.61435
939.0944, 16.08521
939.5765, 18.92965
940.0587, 20.19433
940.5408, 20.13453
941.0229, 20.56983
941.5050, 22.31570
941.9871, 23.06304
942.4692, 22.58603
942.9514, 21.26186
943.4335, 17.73690
943.9156, 14.29193
944.3977, 14.40712
944.8798, 18.18788
945.3619, 20.87377
945.8441, 21.07786
946.3262, 20.53645
946.8083, 18.92846
947.2904, 17.63497
947.7725, 18.14669
948.2546, 19.83498
948.7368, 21.28650
949.2189, 22.09139
949.7010, 22.12087
950.1831, 20.83324
950.6652, 19.14779
951.1473, 17.44658
951.6295, 16.24796
952.1116, 17.11417
952.5937, 19.63649
953.0758, 20.91550
953.5579, 19.16559
954.0400, 16.65289
954.5222, 16.76769
955.0043, 18.53537
955.4864, 18.87780
955.9685, 17.93433
956.4506, 17.78720
956.9327, 19.05331
957.4149, 20.02421
957.8970, 19.07286
958.3791, 16.91770
958.8612, 15.82891
959.3433, 15.90875
959.8254, 15.38176
960.3076, 13.71185
960.7897, 13.54473
961.2718, 16.67037
961.7539, 20.43003
962.2360, 21.36540
962.7181, 19.60722
963.2003, 18.05558
963.6824, 16.08813
964.1645, 15.65808
964.6466, 18.17200
965.1287, 20.73225
965.6108, 21.78963
966.0930, 21.94423
966.5751, 22.09323
967.0572, 22.30303
967.5393, 21.96997
968.0214, 20.00807
968.5035, 18.86685
968.9857, 20.47687
969.4678, 21.99799
969.9499, 20.52933
970.4320, 17.41361
970.9141, 15.97458
971.3962, 17.14131
971.8784, 18.59699
972.3605, 19.69426
972.8426, 20.28446
973.3247, 19.89613
973.8068, 19.17111
974.2889, 19.06726
974.7711, 19.45561
975.2532, 19.34526
975.7353, 18.20942
976.2174, 16.96924
976.6995, 16.33369
977.1816, 16.18389
977.6638, 16.38565
978.1459, 16.92694
978.6280, 18.15766
979.1101, 19.91304
979.5922, 20.78186
980.0743, 19.67772
980.5565, 17.60568
981.0386, 15.54387
981.5207, 13.93601
982.0028, 15.14107
982.4849, 18.84561
982.9670, 21.05751
983.4492, 20.41313
983.9313, 19.52565
984.4134, 21.05743
984.8955, 23.93173
985.3776, 24.65765
985.8597, 23.18256
986.3419, 20.96267
986.8240, 17.83756
987.3061, 15.77666
987.7882, 15.83577
988.2703, 16.70127
988.7524, 16.80582
989.2346, 16.22744
989.7167, 15.72676
990.1988, 15.09120
990.6809, 15.22123
991.1630, 16.51652
991.6451, 17.99394
992.1273, 19.21201
992.6094, 20.31039
993.0915, 21.75153
993.5736, 23.64046
994.0557, 23.90033
994.5378, 20.96939
995.0200, 18.69920
995.5021, 17.05599
995.9842, 16.57255
996.4663, 18.43227
996.9484, 21.25690
997.4305, 23.25993
997.9127, 24.43232
998.3948, 22.92148
998.8769, 14.33775
999.3590, 8.485078
999.8411, 10.47612
1000.323, 14.35722
1000.805, 15.50992
1001.287, 14.93993
1001.770, 15.67714
1002.252, 18.48792
1002.734, 20.31785
1003.216, 18.88129
1003.698, 17.28381
1004.180, 17.38016
1004.662, 18.24031
1005.144, 19.43842
1005.627, 20.36120
1006.109, 19.51612
1006.591, 16.28821
1007.073, 13.36967
1007.555, 12.79911
1008.037, 13.24718
1008.519, 13.32245
1009.001, 13.61164
1009.483, 15.53593
1009.966, 18.70900
1010.448, 21.41830
1010.930, 22.87394
1011.412, 22.98108
1011.894, 20.33453
1012.376, 17.15875
1012.858, 17.22066
1013.340, 19.55470
1013.823, 22.44263
1014.305, 24.97135
1014.787, 24.24191
1015.269, 18.34790
1015.751, 12.17813
1016.233, 13.88019
1016.715, 20.13861
1017.197, 21.22754
1017.679, 18.02425
1018.162, 15.20897
1018.644, 13.86129
1019.126, 13.40402
1019.608, 13.46810
1020.090, 14.12048
1020.572, 15.62319
1021.054, 17.86507
1021.536, 20.42703
1022.018, 23.24716
1022.501, 24.81048
1022.983, 24.74428
1023.465, 23.39245
1023.947, 20.76397
1024.429, 17.91463
1024.911, 17.45094
1025.393, 19.45239
1025.875, 19.68125
1026.358, 17.82724
1026.840, 16.87983
1027.322, 17.78753
1027.804, 18.99691
1028.286, 19.37551
1028.768, 19.08456
1029.250, 18.52647
1029.732, 17.72578
1030.214, 16.19913
1030.697, 13.14974
1031.179, 12.49534
1031.661, 16.47600
1032.143, 20.24077
1032.625, 19.66730
1033.107, 16.28437
1033.589, 14.35359
1034.071, 13.97597
1034.553, 14.76273
1035.036, 17.82988
1035.518, 19.61203
1036.000, 18.76097
1036.482, 16.96618
1036.964, 15.11203
1037.446, 13.49623
1037.928, 13.11980
1038.410, 14.48339
1038.893, 15.30509
1039.375, 14.99168
1039.857, 15.07000
1040.339, 15.57733
1040.821, 16.94343
1041.303, 20.61155
1041.785, 25.24045
1042.267, 26.90026
1042.750, 25.04045
1043.232, 22.09411
1043.714, 14.83264
1044.196, 10.90217
1044.678, 15.73431
1045.160, 21.04765
1045.642, 19.37467
1046.124, 13.82203
1046.606, 12.54501
1047.089, 17.46270
1047.571, 20.45852
1048.053, 19.22556
1048.535, 17.95275
1049.017, 17.63933
1049.499, 17.81626
1049.981, 18.26845
1050.463, 18.87709
1050.945, 19.53426
1051.428, 20.32319
1051.910, 20.52875
1052.392, 19.88152
1052.874, 18.81399
1053.356, 16.63763
1053.838, 14.86059
1054.320, 15.27327
1054.802, 16.75230
1055.285, 16.58417
1055.767, 14.13093
1056.249, 13.21439
1056.731, 17.02623
1057.213, 19.62671
1057.695, 16.78283
1058.177, 13.86539
1058.659, 16.37310
1059.141, 21.38769
1059.624, 22.64417
1060.106, 19.06411
1060.588, 16.30330
1061.070, 16.88825
1061.552, 17.64180
1062.034, 16.79453
1062.516, 16.13907
1062.998, 17.53857
1063.480, 19.93811
1063.963, 21.64902
1064.445, 22.33372
1064.927, 21.92949
1065.409, 19.78732
1065.891, 17.40095
1066.373, 14.32913
1066.855, 12.28006
1067.337, 13.32678
1067.820, 15.91566
1068.302, 17.97611
1068.784, 19.02825
1069.266, 18.64029
1069.748, 15.28821
1070.230, 12.84919
1070.712, 13.73287
1071.194, 15.45338
1071.677, 16.95454
1072.159, 17.61733
1072.641, 15.81013
1073.123, 12.16823
1073.605, 11.01865
1074.087, 15.19649
1074.569, 19.01338
1075.051, 19.98939
1075.533, 19.48996
1076.016, 17.38119
1076.498, 15.10600
1076.980, 14.81271
1077.462, 16.14126
1077.944, 16.68704
1078.426, 15.56641
1078.908, 13.87803
1079.390, 10.17353
1079.873, 8.255230
1080.355, 12.66413
1080.837, 18.81565
1081.319, 21.58199
1081.801, 21.06154
1082.283, 19.46450
1082.765, 17.25869
1083.247, 15.12217
1083.729, 12.37452
1084.212, 10.96068
1084.694, 13.22380
1085.176, 16.41583
1085.658, 17.97695
1086.140, 18.01020
1086.622, 17.22681
1087.104, 15.74201
1087.586, 14.90236
1088.068, 15.96730
1088.551, 16.92775
1089.033, 16.15216
1089.515, 15.41808
1089.997, 17.10757
1090.479, 19.70460
1090.961, 19.96658
1091.443, 17.43326
1091.925, 15.11372
1092.408, 13.73749
1092.890, 13.32694
1093.372, 14.39471
1093.854, 15.90969
1094.336, 17.61609
1094.818, 19.01759
1095.300, 19.13520
1095.782, 18.13241
1096.265, 18.02305
1096.747, 20.69296
1097.229, 21.77654
1097.711, 17.99399
1098.193, 14.27832
1098.675, 13.97569
1099.157, 15.01212
1099.639, 14.73999
1100.121, 13.35369
1100.604, 12.74802
1101.086, 13.39340
1101.568, 14.59960
1102.050, 16.50348
1102.532, 18.53905
1103.014, 21.64759
1103.496, 23.76851
1103.978, 22.12409
1104.460, 18.16527
1104.943, 15.84699
1105.425, 15.96525
1105.907, 16.23281
1106.389, 16.14608
1106.871, 16.28189
1107.353, 17.08940
1107.835, 17.89077
1108.317, 18.19506
1108.800, 18.18376
1109.282, 18.17515
1109.764, 18.19301
1110.246, 18.17241
1110.728, 18.52388
1111.210, 18.20687
1111.692, 15.60570
1112.174, 14.01260
1112.656, 16.18953
1113.139, 19.45126
1113.621, 20.34780
1114.103, 19.07997
1114.585, 18.31422
1115.067, 18.43752
1115.549, 18.41873
1116.031, 18.85901
1116.513, 18.23696
1116.995, 14.31917
1117.478, 11.06141
1117.960, 12.96971
1118.442, 18.03659
1118.924, 19.65094
1119.406, 16.53292
1119.888, 15.09372
1120.370, 16.40426
1120.852, 17.12055
1121.335, 16.15971
1121.817, 15.10749
1122.299, 14.88652
1122.781, 15.35547
1123.263, 16.42795
1123.745, 18.13105
1124.227, 18.71716
1124.709, 17.51132
1125.192, 17.92014
1125.674, 21.41923
1126.156, 23.16145
1126.638, 20.52273
1127.120, 15.96080
1127.602, 11.91241
1128.084, 8.790150
1128.566, 9.291092
1129.048, 14.10688
1129.531, 16.01639
1130.013, 14.30250
1130.495, 12.46861
1130.977, 11.45887
1131.459, 11.86874
1131.941, 14.58109
1132.423, 17.75901
1132.905, 16.55235
1133.387, 11.43515
1133.870, 10.34530
1134.352, 13.12138
1134.834, 15.48005
1135.316, 16.58396
1135.798, 16.81747
1136.280, 16.33238
1136.762, 15.99368
1137.244, 17.21428
1137.727, 19.17233
1138.209, 19.20427
1138.691, 17.74011
1139.173, 16.26143
1139.655, 15.10459
1140.137, 15.35408
1140.619, 17.25298
1141.101, 18.97330
1141.583, 18.98740
1142.066, 18.13749
1142.548, 17.75360
1143.030, 17.43211
1143.512, 15.91568
1143.994, 13.83228
1144.476, 12.96144
1144.958, 13.53321
1145.440, 14.87230
1145.922, 16.71397
1146.405, 18.09310
1146.887, 17.90198
1147.369, 16.97003
1147.851, 15.51499
1148.333, 14.40577
1148.815, 15.97055
1149.297, 18.80193
1149.779, 18.67677
1150.262, 14.70064
1150.744, 10.94479
1151.226, 9.276423
1151.708, 9.261847
1152.190, 12.03154
1152.672, 14.94129
1153.154, 15.34591
1153.636, 14.67156
1154.119, 15.35453
1154.601, 17.26780
1155.083, 18.29780
1155.565, 17.54220
1156.047, 17.03981
1156.529, 18.05208
1157.011, 18.69298
1157.493, 17.18602
1157.975, 15.84726
1158.458, 17.37499
1158.940, 20.28454
1159.422, 21.36639
1159.904, 20.26362
1160.386, 18.65778
1160.868, 15.35079
1161.350, 13.62139
1161.832, 15.19728
1162.314, 16.60006
1162.797, 16.10869
1163.279, 15.07594
1163.761, 15.12134
1164.243, 15.85352
1164.725, 15.28327
1165.207, 12.56685
1165.689, 11.54206
1166.171, 12.56377
1166.654, 14.46597
1167.136, 17.62121
1167.618, 19.46451
1168.100, 17.84680
1168.582, 15.00943
1169.064, 14.97458
1169.546, 17.29130
1170.028, 17.42649
1170.510, 15.29061
1170.993, 15.40596
1171.475, 18.30460
1171.957, 19.55253
1172.439, 17.43374
1172.921, 14.79109
1173.403, 14.18208
1173.885, 14.76502
1174.367, 14.78837
1174.849, 14.61245
1175.332, 15.98307
1175.814, 18.29126
1176.296, 19.03573
1176.778, 17.89361
1177.260, 15.67114
1177.742, 12.77529
1178.224, 10.71338
1178.706, 11.26414
1179.189, 13.04470
1179.671, 15.20315
1180.153, 16.78424
1180.635, 15.29812
1181.117, 12.38055
1181.599, 12.43757
1182.081, 15.66091
1182.563, 17.26021
1183.046, 14.27451
1183.528, 11.71909
1184.010, 13.48348
1184.492, 15.60544
1184.974, 14.60732
1185.456, 13.22785
1185.938, 15.48271
1186.420, 19.53026
1186.902, 20.18096
1187.385, 16.41403
1187.867, 13.50687
1188.349, 12.26886
1188.831, 12.29076
1189.313, 14.77884
1189.795, 16.97473
1190.277, 17.05381
1190.759, 16.63144
1191.241, 17.61907
1191.724, 19.43414
1192.206, 19.66323
1192.688, 17.69200
1193.170, 16.83388
1193.652, 17.58490
1194.134, 17.97501
1194.616, 17.69874
1195.098, 16.49625
1195.581, 13.74533
1196.063, 11.63914
1196.545, 13.78156
1197.027, 18.53951
1197.509, 17.87513
1197.991, 12.30706
1198.473, 10.60359
1198.955, 13.01389
1199.438, 15.27456
1199.920, 16.17606
1200.402, 16.39114
1200.884, 16.30870
1201.366, 16.28124
1201.848, 17.00015
1202.330, 17.95021
1202.812, 18.04734
1203.294, 17.66618
1203.776, 17.72569
1204.259, 18.02250
1204.741, 17.52060
1205.223, 16.06877
1205.705, 14.96357
1206.187, 15.30427
1206.669, 15.22886
1207.151, 11.82520
1207.633, 9.268271
1208.116, 12.06885
1208.598, 16.62615
1209.080, 18.89251
1209.562, 19.11722
1210.044, 19.23672
1210.526, 19.65281
1211.008, 18.97810
1211.490, 14.50895
1211.973, 12.61807
1212.455, 17.88422
1212.937, 21.65816
1213.419, 18.47309
1213.901, 13.91280
1214.383, 13.58809
1214.865, 16.36168
1215.347, 18.45597
1215.829, 19.84699
1216.312, 20.85388
1216.794, 21.73573
1217.276, 20.45760
1217.758, 16.17241
1218.240, 13.12073
1218.722, 13.52855
1219.204, 14.78105
1219.686, 13.89047
1220.168, 11.78894
1220.651, 10.40646
1221.133, 9.937827
1221.615, 11.80019
1222.097, 15.34313
1222.579, 18.03057
1223.061, 19.31021
1223.543, 19.24433
1224.025, 17.87634
1224.508, 16.55642
1224.990, 16.48781
1225.472, 17.00932
1225.954, 17.84946
1226.436, 18.58070
1226.918, 18.65537
1227.400, 18.29032
1227.882, 17.48127
1228.365, 16.60719
1228.847, 17.34364
1229.329, 21.03655
1229.811, 22.57757
1230.293, 18.80801
1230.775, 15.10656
1231.257, 12.91251
1231.739, 11.67436
1232.221, 10.93358
1232.703, 11.02281
1233.186, 12.86583
1233.668, 16.02742
1234.150, 17.55768
1234.632, 17.09847
1235.114, 16.22091
1235.596, 14.63554
1236.078, 14.32996
1236.560, 16.03014
1237.043, 16.95265
1237.525, 15.28819
1238.007, 13.49497
1238.489, 15.00054
1238.971, 18.45485
1239.453, 20.19338
1239.935, 20.71149
1240.417, 21.86130
1240.900, 23.30795
1241.382, 23.33793
1241.864, 21.79496
1242.346, 19.73856
1242.828, 17.63356
1243.310, 16.33003
1243.792, 16.55146
1244.274, 17.78963
1244.756, 21.31198
1245.239, 24.06063
1245.721, 21.88195
1246.203, 17.62579
1246.685, 15.93647
1247.167, 16.80616
1247.649, 17.21859
1248.131, 16.57209
1248.613, 15.75536
1249.095, 14.26744
1249.578, 13.56009
1250.060, 14.09972
1250.542, 15.18190
1251.024, 16.90221
1251.506, 18.25554
1251.988, 17.86694
1252.470, 16.25659
1252.952, 15.49362
1253.435, 15.60204
1253.917, 15.24153
1254.399, 14.43533
1254.881, 14.61841
1255.363, 15.99178
1255.845, 17.58339
1256.327, 18.92260
1256.809, 19.62896
1257.292, 19.06995
1257.774, 18.32904
1258.256, 19.81324
1258.738, 21.32362
1259.220, 18.36210
1259.702, 13.88585
1260.184, 13.87892
1260.666, 17.32754
1261.148, 18.31538
1261.630, 15.21101
1262.113, 13.59813
1262.595, 17.85305
1263.077, 20.37304
1263.559, 17.60016
1264.041, 14.34942
1264.523, 12.47472
1265.005, 11.61365
1265.487, 11.37460
1265.970, 11.89125
1266.452, 13.54769
1266.934, 16.36135
1267.416, 19.68589
1267.898, 23.99739
1268.380, 24.37510
1268.862, 20.03857
1269.344, 18.19220
1269.827, 21.20403
1270.309, 23.64462
1270.791, 21.48542
1271.273, 17.50138
1271.755, 15.02788
1272.237, 13.84854
1272.719, 13.81606
1273.201, 14.66582
1273.683, 16.53567
1274.166, 18.66210
1274.648, 19.31187
1275.130, 18.41217
1275.612, 17.56045
1276.094, 17.38242
1276.576, 17.13904
1277.058, 16.42916
1277.540, 15.75196
1278.022, 15.13870
1278.505, 14.79917
1278.987, 14.97996
1279.469, 15.44753
1279.951, 16.11962
1280.433, 16.80641
1280.915, 16.62927
1281.397, 15.41461
1281.879, 14.52946
1282.362, 13.87819
1282.844, 15.17088
1283.326, 18.73144
1283.808, 20.79097
1284.290, 19.78247
1284.772, 17.58422
1285.254, 15.69893
1285.736, 14.11701
##END=



