##NAMES=Tyrolite
##RRUFFID=R060264
##IDEAL CHEMISTRY=Ca_2_Cu^2+^_9_(As^5+^O_4_)_4_(CO_3_)(OH)_8_&#183;11H_2_O
##LOCALITY=Lovelock mine, Bolivia, Cottonwood Canyon, Churchill County, Nevada, USA
##OWNER=RRUFF
##SOURCE=Michael Scott
##DESCRIPTION=Greenish-blue flat bladed crystals in radial aggregates
##STATUS=The identification of this mineral has been confirmed by single-crystal X-ray diffraction.
##URL=rruff.info/R060264
90.49219, 12.32530
90.97430, 11.91753
91.45642, 11.77294
91.93854, 12.21818
92.42065, 12.83072
92.90277, 12.95950
93.38489, 12.51779
93.86700, 11.81440
94.34912, 11.03986
94.83124, 10.24349
95.31335, 9.737103
95.79547, 9.887868
96.27759, 10.53778
96.75970, 11.06542
97.24182, 11.41576
97.72394, 11.56462
98.20605, 11.29884
98.68817, 10.54802
99.17029, 9.952875
99.65240, 10.18760
100.1345, 11.32923
100.6166, 12.18516
101.0988, 12.55960
101.5809, 12.45937
102.0630, 11.85839
102.5451, 10.51412
103.0272, 9.090958
103.5093, 8.340541
103.9915, 8.470672
104.4736, 8.765199
104.9557, 9.129719
105.4378, 9.650876
105.9199, 9.728306
106.4020, 9.146054
106.8842, 8.227191
107.3663, 7.528498
107.8484, 7.269971
108.3305, 6.981720
108.8126, 6.431603
109.2947, 4.836621
109.7769, 4.286552
110.2590, 5.572171
110.7411, 8.045086
111.2232, 9.655305
111.7053, 9.461808
112.1874, 9.038749
112.6696, 9.092255
113.1517, 11.12643
113.6338, 12.09320
114.1159, 10.75628
114.5980, 7.531755
115.0801, 5.368178
115.5623, 5.993519
116.0444, 7.458946
116.5265, 8.254759
117.0086, 7.051547
117.4907, 5.941871
117.9728, 5.903058
118.4550, 6.996217
118.9371, 7.937068
119.4192, 8.229793
119.9013, 8.026122
120.3834, 7.512679
120.8655, 6.271576
121.3477, 5.058014
121.8298, 4.530658
122.3119, 4.849763
122.7940, 5.217873
123.2761, 4.928454
123.7582, 4.251600
124.2404, 3.788809
124.7225, 3.974945
125.2046, 4.515547
125.6867, 5.055837
126.1688, 5.546962
126.6509, 6.104896
127.1331, 6.580764
127.6152, 7.179640
128.0973, 7.712355
128.5794, 8.229676
129.0615, 8.627038
129.5436, 8.574752
130.0258, 7.749063
130.5079, 6.717359
130.9900, 6.591022
131.4721, 7.370390
131.9542, 8.303211
132.4363, 8.468580
132.9185, 8.051661
133.4006, 8.408914
133.8827, 10.37996
134.3648, 13.31350
134.8469, 14.83034
135.3290, 14.71945
135.8112, 14.11647
136.2933, 14.13483
136.7754, 14.77121
137.2575, 16.02508
137.7396, 17.92461
138.2217, 20.43405
138.7039, 23.71880
139.1860, 28.15329
139.6681, 32.78096
140.1502, 36.02556
140.6323, 37.39974
141.1144, 38.91603
141.5966, 41.63133
142.0787, 46.09798
142.5608, 49.08976
143.0429, 50.01455
143.5250, 49.79765
144.0071, 50.58991
144.4893, 52.90931
144.9714, 55.38649
145.4535, 57.24427
145.9356, 57.51671
146.4177, 59.25182
146.8998, 63.55360
147.3820, 69.49147
147.8641, 73.25410
148.3462, 72.72208
148.8283, 71.96177
149.3104, 73.14571
149.7925, 77.58107
150.2747, 82.27565
150.7568, 87.25566
151.2389, 92.46212
151.7210, 97.13689
152.2031, 101.5830
152.6852, 105.2767
153.1674, 107.9364
153.6495, 107.6584
154.1316, 108.2928
154.6137, 110.9038
155.0958, 115.5465
155.5779, 119.4027
156.0601, 121.7299
156.5422, 123.3283
157.0243, 124.8517
157.5064, 126.3154
157.9885, 127.8098
158.4706, 129.3345
158.9528, 130.8797
159.4349, 132.5533
159.9170, 134.4402
160.3991, 136.4533
160.8812, 138.4915
161.3633, 140.7980
161.8455, 142.9056
162.3276, 144.2330
162.8097, 144.3294
163.2918, 145.5721
163.7739, 149.8211
164.2560, 155.5337
164.7382, 159.5547
165.2203, 161.6935
165.7024, 163.1444
166.1845, 164.3858
166.6666, 165.4664
167.1487, 166.4365
167.6309, 167.4128
168.1130, 168.3202
168.5951, 168.9798
169.0772, 169.1832
169.5593, 169.1872
170.0414, 169.2786
170.5236, 169.6808
171.0057, 169.7769
171.4878, 168.9169
171.9699, 167.3388
172.4520, 165.7822
172.9341, 165.0222
173.4163, 164.3734
173.8984, 162.8996
174.3805, 159.9004
174.8626, 156.8417
175.3447, 155.0191
175.8268, 154.2913
176.3090, 154.0424
176.7911, 154.3417
177.2732, 154.7611
177.7553, 154.4965
178.2374, 152.8190
178.7195, 150.9621
179.2017, 150.9203
179.6838, 152.4910
180.1659, 153.7571
180.6480, 152.5637
181.1301, 149.9375
181.6122, 148.2932
182.0944, 148.6661
182.5765, 150.1277
183.0586, 151.2279
183.5407, 151.9529
184.0228, 152.5206
184.5049, 153.1740
184.9871, 153.8427
185.4692, 154.2271
185.9513, 154.0809
186.4334, 153.6518
186.9155, 153.5429
187.3976, 153.7731
187.8798, 154.1030
188.3619, 154.5082
188.8440, 154.9106
189.3261, 154.7401
189.8082, 153.4515
190.2903, 151.4492
190.7725, 150.2133
191.2546, 149.7956
191.7367, 149.7799
192.2188, 149.9369
192.7009, 150.2344
193.1830, 149.9711
193.6652, 148.2699
194.1473, 145.5599
194.6294, 145.0033
195.1115, 147.0190
195.5936, 149.7742
196.0757, 150.8719
196.5579, 150.2744
197.0400, 149.2492
197.5221, 148.0880
198.0042, 146.8272
198.4863, 146.0640
198.9684, 145.9243
199.4506, 146.0140
199.9327, 145.6259
200.4148, 144.6692
200.8969, 144.0400
201.3790, 144.3781
201.8611, 145.7421
202.3433, 146.2399
202.8254, 145.7600
203.3075, 144.5898
203.7896, 142.9312
204.2717, 140.5420
204.7538, 138.8191
205.2360, 138.7403
205.7181, 140.5973
206.2002, 141.2826
206.6823, 140.4633
207.1644, 138.8768
207.6465, 137.8782
208.1287, 137.5968
208.6108, 137.4788
209.0929, 137.2772
209.5750, 136.9501
210.0571, 136.8285
210.5392, 137.0714
211.0214, 137.3834
211.5035, 137.0455
211.9856, 135.8119
212.4677, 134.6295
212.9498, 133.9655
213.4319, 133.9702
213.9140, 133.8834
214.3962, 133.6778
214.8783, 133.3875
215.3604, 133.0912
215.8425, 132.7809
216.3246, 132.4702
216.8067, 132.1416
217.2889, 131.7567
217.7710, 131.5071
218.2531, 131.4812
218.7352, 131.5444
219.2173, 131.2544
219.6994, 130.1847
220.1816, 129.5736
220.6637, 130.2542
221.1458, 133.1954
221.6279, 134.5196
222.1100, 133.4847
222.5921, 131.0862
223.0743, 129.9512
223.5564, 130.6193
224.0385, 131.6226
224.5206, 132.3465
225.0027, 132.8764
225.4848, 132.8584
225.9670, 131.8333
226.4491, 130.4082
226.9312, 130.3462
227.4133, 132.6083
227.8954, 134.6775
228.3775, 135.1613
228.8597, 132.9378
229.3418, 131.9675
229.8239, 132.8315
230.3060, 134.8233
230.7881, 135.9692
231.2702, 136.0154
231.7524, 135.6059
232.2345, 134.8708
232.7166, 133.1442
233.1987, 132.6920
233.6808, 134.1332
234.1629, 136.6871
234.6451, 138.2522
235.1272, 138.2666
235.6093, 138.1176
236.0914, 138.4484
236.5735, 139.6098
237.0556, 140.4663
237.5378, 140.9985
238.0199, 141.2394
238.5020, 141.2312
238.9841, 140.7931
239.4662, 140.3783
239.9483, 140.1338
240.4305, 139.9242
240.9126, 140.2424
241.3947, 141.3708
241.8768, 142.9358
242.3589, 144.0045
242.8410, 144.3485
243.3232, 144.5414
243.8053, 144.8596
244.2874, 145.5507
244.7695, 145.6887
245.2516, 144.7916
245.7337, 143.5287
246.2159, 143.5668
246.6980, 146.0203
247.1801, 148.0227
247.6622, 148.2980
248.1443, 145.9443
248.6264, 144.3732
249.1086, 143.5784
249.5907, 143.5523
250.0728, 144.4040
250.5549, 146.6984
251.0370, 148.9209
251.5191, 150.5086
252.0013, 151.3217
252.4834, 151.9237
252.9655, 152.3543
253.4476, 152.5426
253.9297, 152.1868
254.4118, 150.6283
254.8940, 149.7651
255.3761, 150.4939
255.8582, 153.4021
256.3403, 155.5701
256.8224, 156.8872
257.3046, 157.5568
257.7867, 157.7739
258.2688, 157.1898
258.7509, 156.8994
259.2330, 157.3209
259.7151, 158.5820
260.1973, 159.8681
260.6794, 161.2868
261.1615, 162.6058
261.6436, 163.3974
262.1257, 163.4682
262.6078, 163.4966
263.0900, 163.6573
263.5721, 163.9513
264.0542, 164.3933
264.5363, 165.0597
265.0184, 165.7828
265.5005, 166.3822
265.9827, 166.8527
266.4648, 167.1993
266.9469, 167.4622
267.4290, 167.6469
267.9111, 167.3927
268.3932, 166.4909
268.8754, 165.4744
269.3575, 165.0312
269.8396, 165.3648
270.3217, 165.4849
270.8038, 164.9952
271.2859, 163.9531
271.7681, 163.6965
272.2502, 164.5375
272.7323, 165.5193
273.2144, 165.4850
273.6965, 164.1723
274.1786, 163.3173
274.6608, 163.5146
275.1429, 164.5383
275.6250, 164.6558
276.1071, 163.6606
276.5892, 162.3578
277.0714, 161.5264
277.5535, 161.2251
278.0356, 160.8019
278.5177, 160.0800
278.9998, 159.1606
279.4819, 158.3984
279.9641, 157.7497
280.4462, 157.4177
280.9283, 157.7736
281.4104, 158.8502
281.8925, 159.4914
282.3746, 159.4263
282.8568, 158.8869
283.3389, 158.5122
283.8210, 158.3181
284.3031, 158.1588
284.7852, 157.9752
285.2673, 157.7608
285.7495, 157.3398
286.2316, 156.5753
286.7137, 155.7530
287.1958, 155.8157
287.6779, 156.8097
288.1600, 157.1788
288.6422, 155.2462
289.1243, 151.4561
289.6064, 149.2856
290.0885, 149.2496
290.5706, 150.2446
291.0527, 150.5060
291.5349, 150.0915
292.0170, 149.8314
292.4991, 150.4023
292.9812, 151.5356
293.4633, 152.2371
293.9454, 152.4384
294.4276, 152.3134
294.9097, 151.9066
295.3918, 151.2931
295.8739, 150.8790
296.3560, 150.9252
296.8381, 151.3053
297.3203, 151.8487
297.8024, 152.5880
298.2845, 153.1258
298.7666, 152.8235
299.2487, 151.9305
299.7308, 151.2058
300.2130, 151.0160
300.6951, 151.1651
301.1772, 151.4768
301.6593, 151.9506
302.1414, 152.2031
302.6235, 151.7113
303.1057, 150.7620
303.5878, 149.9351
304.0699, 149.3809
304.5520, 149.0712
305.0341, 148.9780
305.5162, 149.0993
305.9984, 149.4243
306.4805, 150.2347
306.9626, 151.1680
307.4447, 151.6681
307.9268, 151.3506
308.4089, 150.8731
308.8911, 150.9139
309.3732, 151.3315
309.8553, 151.5473
310.3374, 150.8057
310.8195, 149.8828
311.3016, 149.6268
311.7838, 150.4711
312.2659, 151.4539
312.7480, 152.0545
313.2301, 152.3177
313.7122, 152.3698
314.1943, 152.2592
314.6765, 151.9686
315.1586, 151.3719
315.6407, 150.2818
316.1228, 149.5001
316.6049, 149.6194
317.0870, 150.2781
317.5692, 150.8768
318.0513, 151.1417
318.5334, 151.3453
319.0155, 151.6845
319.4976, 152.2291
319.9797, 152.5113
320.4619, 152.2292
320.9440, 151.6505
321.4261, 151.0807
321.9082, 150.0864
322.3903, 149.5903
322.8724, 150.2183
323.3546, 152.0080
323.8367, 153.2148
324.3188, 152.8960
324.8009, 152.2098
325.2830, 152.0446
325.7651, 153.2959
326.2473, 154.2043
326.7294, 154.2489
327.2115, 153.5802
327.6936, 153.3887
328.1757, 154.0830
328.6578, 155.0253
329.1400, 155.9135
329.6221, 157.0231
330.1042, 157.6868
330.5863, 157.6980
331.0684, 157.2516
331.5505, 156.9269
332.0327, 156.8456
332.5148, 156.7348
332.9969, 156.4913
333.4790, 156.1103
333.9611, 155.6096
334.4432, 154.9291
334.9254, 154.1591
335.4075, 153.4665
335.8896, 152.8799
336.3717, 152.3047
336.8538, 151.7361
337.3359, 151.1792
337.8180, 150.5112
338.3001, 149.6760
338.7823, 148.8209
339.2644, 148.1554
339.7465, 147.7337
340.2286, 147.2058
340.7107, 146.2905
341.1928, 145.1532
341.6750, 145.2932
342.1571, 147.0660
342.6392, 148.7927
343.1213, 148.9555
343.6034, 147.5309
344.0855, 145.9679
344.5677, 144.3295
345.0498, 142.8788
345.5319, 142.3887
346.0140, 142.8794
346.4961, 143.7502
346.9782, 144.8434
347.4604, 146.0616
347.9425, 146.8769
348.4246, 147.2388
348.9067, 147.2272
349.3888, 146.6065
349.8709, 145.5531
350.3531, 145.0415
350.8352, 146.1640
351.3173, 148.0286
351.7994, 148.6481
352.2815, 147.8452
352.7636, 147.1329
353.2458, 148.4343
353.7279, 150.9131
354.2100, 152.7549
354.6921, 152.8531
355.1742, 152.2643
355.6563, 151.9155
356.1385, 151.8185
356.6206, 152.0701
357.1027, 153.0162
357.5848, 154.2437
358.0669, 155.2752
358.5490, 155.9178
359.0312, 156.4290
359.5133, 157.1189
359.9954, 157.8414
360.4775, 158.1580
360.9596, 157.2643
361.4417, 156.2795
361.9239, 156.0579
362.4060, 157.0300
362.8881, 157.8849
363.3702, 158.0637
363.8523, 157.8297
364.3344, 157.5866
364.8166, 157.6941
365.2987, 157.5907
365.7808, 156.7456
366.2629, 154.9325
366.7450, 154.1340
367.2271, 156.0205
367.7093, 158.3900
368.1914, 159.3071
368.6735, 156.7554
369.1556, 154.7912
369.6377, 154.2173
370.1198, 154.8593
370.6020, 155.2955
371.0841, 155.4479
371.5662, 155.4677
372.0483, 155.4195
372.5304, 155.2046
373.0125, 155.0791
373.4947, 154.8825
373.9768, 154.8352
374.4589, 155.6441
374.9410, 158.0073
375.4231, 159.7837
375.9052, 159.9457
376.3874, 158.2070
376.8695, 157.0903
377.3516, 156.6207
377.8337, 156.7137
378.3158, 157.3531
378.7979, 158.6041
379.2801, 159.9848
379.7622, 161.5753
380.2443, 163.1753
380.7264, 163.6605
381.2085, 162.8542
381.6906, 162.1637
382.1728, 163.2471
382.6549, 165.7335
383.1370, 167.0142
383.6191, 166.2487
384.1012, 164.8237
384.5833, 165.3961
385.0655, 167.6865
385.5476, 169.5724
386.0297, 169.3002
386.5118, 167.9390
386.9939, 167.4632
387.4760, 168.1005
387.9582, 169.1585
388.4403, 170.4385
388.9224, 171.6551
389.4045, 172.2179
389.8866, 170.9483
390.3687, 169.5773
390.8509, 169.8203
391.3330, 171.5497
391.8151, 173.2741
392.2972, 174.3763
392.7793, 174.9109
393.2614, 174.8631
393.7436, 173.6349
394.2257, 172.6765
394.7078, 172.7077
395.1899, 173.4906
395.6720, 174.4011
396.1541, 175.2616
396.6363, 176.1913
397.1184, 177.2978
397.6005, 178.7143
398.0826, 179.9259
398.5647, 180.8596
399.0468, 181.5481
399.5290, 182.0309
400.0111, 181.7490
400.4932, 181.8770
400.9753, 182.8353
401.4574, 184.6233
401.9395, 185.8576
402.4217, 185.9318
402.9038, 186.0981
403.3859, 187.3334
403.8680, 190.4528
404.3501, 192.6543
404.8322, 193.4451
405.3144, 193.3341
405.7965, 193.5360
406.2786, 193.9788
406.7607, 194.9734
407.2428, 196.9387
407.7249, 199.9334
408.2071, 202.1388
408.6892, 203.4853
409.1713, 204.2923
409.6534, 204.7231
410.1355, 204.8120
410.6176, 205.3013
411.0998, 206.5904
411.5819, 208.3078
412.0640, 209.3662
412.5461, 209.7947
413.0282, 210.5750
413.5103, 213.0154
413.9925, 216.2664
414.4746, 218.4403
414.9567, 218.9484
415.4388, 219.1662
415.9209, 220.7581
416.4030, 223.2073
416.8852, 225.2751
417.3673, 226.4647
417.8494, 226.9025
418.3315, 226.5388
418.8136, 225.3671
419.2957, 223.9793
419.7779, 222.0639
420.2600, 220.3738
420.7421, 219.6981
421.2242, 222.5149
421.7063, 224.0143
422.1884, 221.7788
422.6706, 216.7712
423.1527, 212.5440
423.6348, 210.2834
424.1169, 208.7326
424.5990, 207.4104
425.0811, 206.6039
425.5633, 205.3027
426.0454, 203.2544
426.5275, 200.8012
427.0096, 198.2716
427.4917, 195.0780
427.9738, 192.7699
428.4560, 192.0379
428.9381, 192.7694
429.4202, 192.4716
429.9023, 190.8206
430.3844, 188.7498
430.8665, 186.8946
431.3487, 185.2684
431.8308, 183.7074
432.3129, 182.0723
432.7950, 180.6556
433.2771, 180.1994
433.7592, 180.7333
434.2414, 181.5294
434.7235, 182.6074
435.2056, 183.7192
435.6877, 183.4245
436.1698, 181.5827
436.6519, 180.0664
437.1341, 181.6301
437.6162, 185.0339
438.0983, 186.9370
438.5804, 185.7378
439.0625, 183.6654
439.5446, 183.0467
440.0268, 183.6912
440.5089, 184.9016
440.9910, 187.2891
441.4731, 189.4660
441.9552, 189.8148
442.4373, 187.7326
442.9195, 186.2056
443.4016, 187.1602
443.8837, 189.3945
444.3658, 191.4471
444.8479, 193.0270
445.3300, 194.2202
445.8122, 194.8567
446.2943, 195.0163
446.7764, 195.4274
447.2585, 195.8789
447.7406, 196.8483
448.2227, 198.6785
448.7049, 202.1274
449.1870, 204.9304
449.6691, 206.8666
450.1512, 208.2533
450.6333, 209.4765
451.1154, 210.3137
451.5976, 211.5203
452.0797, 213.5170
452.5618, 216.2035
453.0439, 217.8796
453.5260, 218.3065
454.0081, 218.3738
454.4903, 218.5733
454.9724, 218.9093
455.4545, 220.0036
455.9366, 222.1316
456.4187, 224.6110
456.9008, 226.3515
457.3830, 227.3981
457.8651, 227.9397
458.3472, 228.0074
458.8293, 227.6698
459.3114, 226.7888
459.7935, 225.3860
460.2757, 224.3282
460.7578, 224.6367
461.2399, 225.6371
461.7220, 226.4525
462.2041, 227.0732
462.6862, 227.0919
463.1684, 225.6821
463.6505, 223.4466
464.1326, 221.8155
464.6147, 222.0837
465.0968, 222.4975
465.5789, 222.2441
466.0611, 221.2397
466.5432, 219.7285
467.0253, 217.1958
467.5074, 214.4812
467.9895, 212.2951
468.4716, 210.6071
468.9538, 209.5297
469.4359, 209.5238
469.9180, 210.1327
470.4001, 209.8447
470.8822, 208.2993
471.3643, 206.5020
471.8465, 204.8284
472.3286, 203.2930
472.8107, 201.7074
473.2928, 200.0229
473.7749, 198.4611
474.2570, 197.5513
474.7392, 197.2853
475.2213, 196.2146
475.7034, 193.6163
476.1855, 190.5313
476.6676, 189.4119
477.1497, 190.0578
477.6319, 190.6174
478.1140, 189.7838
478.5961, 188.2012
479.0782, 186.9214
479.5603, 186.0244
480.0424, 185.2557
480.5246, 184.3850
481.0067, 183.5178
481.4888, 182.8029
481.9709, 182.3385
482.4530, 181.9697
482.9352, 181.6690
483.4173, 181.4086
483.8994, 181.1024
484.3815, 180.7516
484.8636, 180.3210
485.3457, 179.6927
485.8279, 178.6776
486.3100, 178.1528
486.7921, 178.6606
487.2742, 179.4355
487.7563, 179.8153
488.2384, 179.6279
488.7206, 179.3106
489.2027, 178.7416
489.6848, 178.1047
490.1669, 178.1745
490.6490, 179.1984
491.1311, 180.1778
491.6133, 180.5086
492.0954, 180.2097
492.5775, 180.3954
493.0596, 181.1418
493.5417, 182.0540
494.0238, 182.7900
494.5060, 183.3448
494.9881, 183.5766
495.4702, 183.1699
495.9523, 182.8660
496.4344, 184.1529
496.9165, 186.5910
497.3987, 188.5231
497.8808, 188.5866
498.3629, 187.9833
498.8450, 187.6358
499.3271, 187.5913
499.8092, 188.3138
500.2914, 190.8962
500.7735, 193.9487
501.2556, 196.2188
501.7377, 196.9166
502.2198, 197.3392
502.7019, 197.6118
503.1841, 197.8047
503.6662, 198.1131
504.1483, 198.5557
504.6304, 199.1256
505.1125, 199.9058
505.5946, 200.9428
506.0768, 201.5613
506.5589, 201.4329
507.0410, 201.3731
507.5231, 202.2959
508.0052, 204.4906
508.4873, 205.7065
508.9695, 205.5406
509.4516, 204.5077
509.9337, 203.2835
510.4158, 201.8999
510.8979, 200.9707
511.3800, 200.8776
511.8622, 201.3789
512.3443, 202.0400
512.8264, 202.8432
513.3085, 203.5873
513.7906, 204.4811
514.2728, 205.0858
514.7549, 204.7333
515.2370, 203.0885
515.7191, 201.1200
516.2012, 199.1736
516.6833, 197.3591
517.1655, 195.8108
517.6476, 194.6086
518.1297, 193.6492
518.6118, 193.3326
519.0939, 193.5101
519.5760, 192.5720
520.0582, 189.1552
520.5403, 185.5898
521.0224, 182.9550
521.5045, 181.7212
521.9866, 179.9165
522.4688, 177.0778
522.9509, 174.1756
523.4330, 172.5322
523.9151, 172.4220
524.3972, 172.0600
524.8793, 171.0813
525.3615, 169.6089
525.8436, 167.7489
526.3257, 165.5036
526.8078, 163.5232
527.2899, 162.5155
527.7720, 161.9688
528.2542, 160.6524
528.7363, 158.5035
529.2184, 156.1772
529.7005, 153.8973
530.1826, 151.9085
530.6647, 150.6369
531.1469, 150.7061
531.6290, 150.6914
532.1111, 149.5790
532.5932, 147.8324
533.0753, 146.4018
533.5574, 145.8972
534.0396, 145.4187
534.5217, 144.6205
535.0038, 143.4754
535.4859, 142.3797
535.9680, 141.1692
536.4501, 140.1872
536.9323, 139.7218
537.4144, 140.1504
537.8965, 140.0076
538.3786, 139.1721
538.8607, 137.8943
539.3428, 136.3535
539.8250, 134.4738
540.3071, 133.2665
540.7892, 133.3047
541.2713, 133.9827
541.7534, 133.7839
542.2355, 132.7734
542.7177, 131.6340
543.1998, 130.6837
543.6819, 129.9111
544.1640, 129.3498
544.6461, 129.0086
545.1282, 128.6867
545.6104, 128.5503
546.0925, 128.2335
546.5746, 127.2818
547.0567, 124.9141
547.5388, 122.8138
548.0209, 121.6400
548.5031, 121.1447
548.9852, 120.7521
549.4673, 120.1351
549.9494, 119.8847
550.4315, 120.3079
550.9136, 121.4004
551.3958, 122.1614
551.8779, 122.7593
552.3600, 122.7413
552.8421, 121.4888
553.3242, 118.7648
553.8063, 117.0917
554.2885, 116.6586
554.7706, 117.0494
555.2527, 118.3182
555.7348, 120.1818
556.2169, 120.7337
556.6990, 118.7953
557.1812, 116.0519
557.6633, 114.8583
558.1454, 114.9378
558.6275, 115.2507
559.1096, 115.3486
559.5917, 115.3363
560.0739, 115.2868
560.5560, 115.2060
561.0381, 115.0935
561.5202, 114.7959
562.0023, 114.5621
562.4844, 114.6044
562.9666, 115.5254
563.4487, 115.8329
563.9308, 114.9742
564.4129, 113.6741
564.8950, 113.1183
565.3771, 113.8302
565.8593, 114.0874
566.3414, 113.3352
566.8235, 111.8557
567.3056, 110.8317
567.7877, 110.2716
568.2698, 110.1531
568.7520, 110.7608
569.2341, 111.8315
569.7162, 112.3271
570.1983, 112.1911
570.6804, 111.8404
571.1625, 111.6015
571.6447, 111.4238
572.1268, 111.2129
572.6089, 110.8976
573.0910, 110.6488
573.5731, 110.8481
574.0552, 111.1462
574.5374, 110.9360
575.0195, 108.9749
575.5016, 107.5337
575.9837, 107.8083
576.4658, 109.6168
576.9479, 110.4890
577.4301, 109.7914
577.9122, 108.8314
578.3943, 108.0872
578.8764, 107.5385
579.3585, 107.4024
579.8406, 107.7979
580.3228, 108.3400
580.8049, 108.6856
581.2870, 108.8333
581.7691, 108.7393
582.2512, 108.3369
582.7333, 107.8243
583.2155, 107.4284
583.6975, 107.1608
584.1796, 107.0446
584.6617, 107.2195
585.1439, 107.4584
585.6260, 107.4796
586.1081, 107.3485
586.5902, 107.3985
587.0723, 108.1224
587.5544, 108.8074
588.0366, 108.9973
588.5187, 108.5067
589.0008, 108.1206
589.4829, 107.9272
589.9650, 107.8788
590.4471, 108.0001
590.9293, 108.5804
591.4114, 108.5920
591.8935, 107.6998
592.3756, 106.5037
592.8577, 106.1087
593.3398, 106.5514
593.8220, 107.2563
594.3041, 108.2463
594.7862, 109.2218
595.2683, 109.2946
595.7504, 108.5827
596.2325, 107.9570
596.7147, 108.2776
597.1968, 108.8140
597.6789, 108.5945
598.1610, 107.5372
598.6431, 106.6054
599.1252, 106.5122
599.6074, 106.6798
600.0895, 106.5962
600.5716, 105.7679
601.0537, 105.3913
601.5358, 106.1072
602.0179, 107.1913
602.5001, 107.7228
602.9822, 107.5666
603.4643, 107.0706
603.9464, 106.0794
604.4285, 104.8703
604.9106, 104.4388
605.3928, 104.8725
605.8749, 105.3053
606.3570, 105.1707
606.8391, 104.7150
607.3212, 104.7800
607.8033, 105.3495
608.2855, 106.0822
608.7676, 107.1927
609.2497, 108.1033
609.7318, 107.8011
610.2139, 105.8317
610.6960, 104.1872
611.1782, 104.1635
611.6603, 104.9416
612.1424, 105.6540
612.6245, 106.3867
613.1066, 106.6960
613.5887, 106.1929
614.0709, 105.2994
614.5530, 104.8735
615.0351, 105.1703
615.5172, 105.3975
615.9993, 105.2851
616.4814, 104.9316
616.9636, 104.8684
617.4457, 105.1065
617.9278, 105.5044
618.4099, 106.0310
618.8920, 106.6415
619.3741, 107.3695
619.8563, 108.2297
620.3384, 108.6773
620.8205, 107.6590
621.3026, 106.2341
621.7847, 105.8152
622.2668, 107.1223
622.7490, 108.2675
623.2311, 108.2406
623.7132, 107.6445
624.1953, 107.2505
624.6774, 107.7090
625.1595, 107.7155
625.6417, 106.8668
626.1238, 105.5049
626.6059, 104.5498
627.0880, 103.9579
627.5701, 103.9087
628.0522, 104.6451
628.5344, 105.9735
629.0165, 107.0733
629.4986, 107.9531
629.9807, 108.2505
630.4628, 107.1267
630.9449, 105.4047
631.4271, 104.6897
631.9092, 105.1268
632.3913, 105.8397
632.8734, 106.3974
633.3555, 106.8031
633.8376, 107.0681
634.3198, 107.1893
634.8019, 107.1710
635.2840, 106.9290
635.7661, 106.5744
636.2482, 106.2428
636.7303, 105.7384
637.2125, 105.6123
637.6946, 106.1218
638.1767, 106.9820
638.6588, 107.3489
639.1409, 107.1561
639.6230, 106.9670
640.1052, 107.0822
640.5873, 107.3413
641.0694, 107.2322
641.5515, 106.7787
642.0336, 106.2428
642.5157, 105.5164
642.9979, 104.9598
643.4800, 105.2422
643.9621, 106.4688
644.4442, 107.2933
644.9263, 106.4912
645.4084, 105.3521
645.8906, 104.9352
646.3727, 105.8572
646.8548, 106.6913
647.3369, 107.5601
647.8190, 108.1654
648.3011, 108.0207
648.7833, 106.7709
649.2654, 105.9564
649.7475, 105.8701
650.2296, 106.2537
650.7117, 106.6817
651.1938, 107.1389
651.6760, 107.3878
652.1581, 107.0725
652.6402, 106.7033
653.1223, 107.2375
653.6044, 108.4627
654.0865, 109.5109
654.5687, 109.9619
655.0508, 110.0124
655.5329, 109.6413
656.0150, 108.8360
656.4971, 108.2423
656.9792, 108.0553
657.4614, 108.0863
657.9435, 108.2995
658.4256, 108.8781
658.9077, 108.9561
659.3898, 108.3787
659.8719, 107.5710
660.3541, 106.8752
660.8362, 106.2982
661.3183, 106.0915
661.8004, 106.3663
662.2825, 106.7943
662.7646, 106.8355
663.2468, 106.6913
663.7289, 106.8927
664.2110, 108.0990
664.6931, 109.1228
665.1752, 108.8165
665.6573, 107.6971
666.1395, 106.9826
666.6216, 107.6703
667.1037, 108.1694
667.5858, 107.5899
668.0679, 106.1912
668.5500, 105.9353
669.0322, 107.3914
669.5143, 108.8678
669.9964, 109.6507
670.4785, 109.7697
670.9606, 109.6342
671.4427, 109.2156
671.9249, 108.8079
672.4070, 108.6779
672.8891, 108.7205
673.3712, 108.7252
673.8533, 108.6700
674.3354, 108.5712
674.8176, 108.3832
675.2997, 108.1847
675.7818, 108.0688
676.2639, 108.1226
676.7460, 108.1327
677.2281, 108.0069
677.7103, 107.8332
678.1924, 107.7066
678.6745, 107.5812
679.1566, 107.6217
679.6387, 107.9074
680.1208, 108.3179
680.6030, 108.6244
681.0851, 108.8217
681.5672, 108.8748
682.0493, 108.5914
682.5314, 108.3247
683.0135, 108.9873
683.4957, 110.2996
683.9778, 111.1367
684.4599, 110.5598
684.9420, 109.5629
685.4241, 108.7451
685.9063, 108.1356
686.3884, 107.5901
686.8705, 106.9215
687.3526, 106.4638
687.8347, 106.3558
688.3168, 106.6234
688.7990, 107.1895
689.2811, 108.3076
689.7632, 109.1859
690.2453, 108.9140
690.7274, 107.6278
691.2095, 107.2873
691.6917, 108.1317
692.1738, 109.0758
692.6559, 108.7577
693.1380, 107.7980
693.6201, 107.2573
694.1022, 107.4581
694.5844, 107.8792
695.0665, 108.2828
695.5486, 108.7086
696.0307, 109.2100
696.5128, 110.1559
696.9949, 110.6915
697.4771, 110.5304
697.9592, 110.0109
698.4413, 109.8767
698.9234, 110.3085
699.4055, 110.3743
699.8876, 109.7080
700.3698, 108.6328
700.8519, 107.8956
701.3340, 107.4842
701.8161, 107.3448
702.2982, 107.5993
702.7803, 108.0132
703.2625, 108.2875
703.7446, 108.4741
704.2267, 108.8307
704.7088, 109.8143
705.1909, 110.7025
705.6730, 111.0461
706.1552, 110.7713
706.6373, 110.6501
707.1194, 110.7579
707.6015, 110.9192
708.0836, 111.0643
708.5657, 111.1964
709.0479, 111.2164
709.5300, 111.1245
710.0121, 110.9028
710.4942, 110.1539
710.9763, 109.3133
711.4584, 109.6874
711.9406, 111.6320
712.4227, 113.2462
712.9048, 112.4754
713.3869, 110.9796
713.8690, 110.5896
714.3511, 112.7518
714.8333, 114.1565
715.3154, 113.3480
715.7975, 111.9284
716.2796, 111.6624
716.7617, 113.0794
717.2438, 114.0917
717.7260, 114.3744
718.2081, 114.2668
718.6902, 114.3666
719.1723, 114.6336
719.6544, 114.7133
720.1365, 114.3687
720.6187, 113.9860
721.1008, 114.1579
721.5829, 114.6446
722.0650, 114.8890
722.5471, 114.3296
723.0292, 113.7938
723.5114, 113.6272
723.9935, 113.7839
724.4756, 114.0489
724.9577, 114.5024
725.4398, 114.9037
725.9219, 115.1453
726.4041, 115.2717
726.8862, 115.5788
727.3683, 116.0914
727.8504, 116.5489
728.3325, 117.0282
728.8146, 117.2918
729.2968, 116.3585
729.7789, 114.4271
730.2610, 113.2649
730.7431, 115.0975
731.2252, 117.2900
731.7073, 117.7574
732.1895, 116.1748
732.6716, 114.7687
733.1537, 113.9015
733.6358, 113.3441
734.1179, 113.0057
734.6000, 112.9013
735.0822, 112.8997
735.5643, 112.9490
736.0464, 113.2683
736.5285, 114.1989
737.0106, 115.5832
737.4927, 116.9284
737.9749, 118.2217
738.4570, 119.1181
738.9391, 118.9813
739.4212, 118.4322
739.9033, 118.1793
740.3854, 118.4669
740.8676, 118.8291
741.3497, 119.1918
741.8318, 119.5405
742.3139, 119.8510
742.7960, 120.0434
743.2781, 120.4457
743.7603, 121.2286
744.2424, 121.9726
744.7245, 121.8981
745.2066, 121.1222
745.6887, 120.6729
746.1708, 120.8801
746.6530, 121.2487
747.1351, 121.0037
747.6172, 120.5503
748.0993, 120.6107
748.5814, 122.2031
749.0635, 123.4781
749.5457, 123.6757
750.0278, 123.1403
750.5099, 122.6146
750.9920, 122.1121
751.4741, 121.6042
751.9562, 120.9446
752.4384, 120.3902
752.9205, 120.6891
753.4026, 121.8235
753.8847, 123.2011
754.3668, 124.8238
754.8489, 126.2949
755.3311, 126.9857
755.8132, 127.0413
756.2953, 126.8653
756.7774, 126.1407
757.2595, 125.7253
757.7416, 126.2252
758.2238, 127.4659
758.7059, 128.4736
759.1880, 129.2762
759.6701, 129.6967
760.1522, 129.5633
760.6343, 129.0075
761.1165, 128.6667
761.5986, 128.5392
762.0807, 128.7172
762.5628, 129.4631
763.0449, 130.4537
763.5270, 131.0379
764.0092, 131.3052
764.4913, 131.7596
764.9734, 133.0151
765.4555, 134.2538
765.9376, 134.7152
766.4197, 134.3848
766.9019, 134.9561
767.3840, 136.7913
767.8661, 139.1329
768.3482, 141.9240
768.8303, 145.1270
769.3124, 146.9622
769.7946, 147.3009
770.2767, 147.6762
770.7588, 149.4008
771.2409, 151.8048
771.7230, 153.5767
772.2051, 154.7056
772.6873, 156.0982
773.1694, 158.7885
773.6515, 161.5404
774.1336, 163.3283
774.6157, 163.7615
775.0978, 165.1498
775.5800, 167.7707
776.0621, 171.0642
776.5442, 174.9740
777.0263, 179.5796
777.5084, 182.9982
777.9905, 185.1018
778.4727, 187.3975
778.9548, 191.4961
779.4369, 196.5574
779.9190, 200.9661
780.4011, 204.4761
780.8832, 208.5364
781.3654, 214.3449
781.8475, 220.7042
782.3296, 226.6462
782.8117, 231.5976
783.2938, 237.5733
783.7759, 245.1824
784.2581, 252.9968
784.7402, 259.8578
785.2223, 265.7422
785.7044, 271.5078
786.1865, 277.1011
786.6686, 282.9077
787.1508, 289.6509
787.6329, 296.6741
788.1150, 303.1166
788.5971, 308.8862
789.0792, 314.0171
789.5613, 318.2134
790.0435, 322.0923
790.5256, 326.2135
791.0077, 330.6762
791.4898, 335.1933
791.9719, 340.0244
792.4540, 344.4186
792.9362, 347.4247
793.4183, 349.1815
793.9004, 350.9546
794.3825, 352.9178
794.8646, 354.3896
795.3467, 354.8224
795.8289, 354.3436
796.3110, 353.0185
796.7931, 350.6862
797.2752, 348.2516
797.7573, 345.7782
798.2394, 343.4962
798.7216, 341.6769
799.2037, 340.8453
799.6858, 338.8611
800.1679, 335.2516
800.6500, 331.5507
801.1321, 329.8590
801.6143, 329.5259
802.0964, 326.9648
802.5785, 321.5888
803.0606, 315.8804
803.5427, 312.3625
804.0248, 309.5943
804.5070, 305.8047
804.9891, 300.1531
805.4712, 295.1049
805.9533, 291.6163
806.4354, 288.5609
806.9175, 285.1315
807.3997, 281.2065
807.8818, 277.3717
808.3639, 273.6125
808.8460, 270.1887
809.3281, 267.3723
809.8102, 265.1173
810.2924, 263.4814
810.7745, 262.5562
811.2566, 261.4430
811.7387, 258.6978
812.2208, 255.9837
812.7029, 254.9971
813.1851, 257.0068
813.6672, 257.9056
814.1493, 256.7710
814.6314, 255.3692
815.1135, 255.2203
815.5956, 256.3903
816.0778, 257.0891
816.5599, 257.2005
817.0420, 257.2171
817.5241, 257.2643
818.0062, 257.6603
818.4883, 259.1538
818.9705, 262.0063
819.4526, 264.5307
819.9347, 265.4519
820.4168, 266.0905
820.8989, 267.3431
821.3810, 269.1522
821.8632, 271.8780
822.3453, 275.8028
822.8274, 280.0558
823.3095, 283.7826
823.7916, 287.1626
824.2737, 290.8569
824.7559, 294.9098
825.2380, 299.3533
825.7201, 304.0828
826.2022, 309.2618
826.6843, 315.1824
827.1664, 321.9844
827.6486, 328.4419
828.1307, 333.9554
828.6128, 339.4006
829.0949, 345.1456
829.5770, 351.1136
830.0591, 357.9391
830.5413, 365.6720
831.0234, 373.7816
831.5055, 381.6844
831.9876, 389.7124
832.4697, 399.2762
832.9518, 410.1513
833.4340, 419.8191
833.9161, 425.2172
834.3982, 430.1261
834.8803, 437.5342
835.3624, 447.8700
835.8445, 455.3159
836.3267, 458.9404
836.8088, 461.4703
837.2909, 464.2305
837.7730, 466.9956
838.2551, 468.3287
838.7372, 468.2783
839.2194, 467.5423
839.7015, 466.5202
840.1836, 465.0762
840.6657, 462.7735
841.1478, 459.7862
841.6299, 457.2519
842.1121, 455.1573
842.5942, 454.0436
843.0763, 454.3220
843.5584, 455.7143
844.0405, 456.5731
844.5226, 456.7680
845.0048, 457.3566
845.4869, 459.2060
845.9690, 461.3930
846.4511, 462.1444
846.9332, 461.6683
847.4153, 460.6346
847.8975, 459.9903
848.3796, 458.2284
848.8617, 453.9888
849.3438, 447.9642
849.8259, 442.7161
850.3080, 438.9664
850.7902, 434.5143
851.2723, 428.9835
851.7544, 422.4521
852.2365, 414.9016
852.7186, 406.4542
853.2007, 397.6724
853.6829, 388.3117
854.1650, 379.5862
854.6471, 372.9178
855.1292, 367.4621
855.6113, 361.7748
856.0934, 355.4588
856.5756, 348.9778
857.0577, 342.3291
857.5398, 335.6129
858.0219, 328.7310
858.5040, 321.6415
858.9861, 314.6228
859.4683, 307.6789
859.9504, 300.7686
860.4325, 294.1396
860.9146, 287.4725
861.3967, 280.2809
861.8788, 272.2502
862.3610, 264.2596
862.8431, 256.5335
863.3252, 249.1472
863.8073, 242.3036
864.2894, 236.2413
864.7715, 229.6513
865.2537, 222.2454
865.7358, 215.2035
866.2179, 209.9890
866.7000, 205.9924
867.1821, 201.3867
867.6642, 195.9164
868.1464, 190.7182
868.6285, 186.3451
869.1106, 182.6187
869.5927, 179.4035
870.0748, 176.7297
870.5569, 174.3432
871.0391, 172.4863
871.5212, 170.4610
872.0033, 167.6488
872.4854, 164.2292
872.9675, 161.8369
873.4496, 160.3779
873.9318, 158.9010
874.4139, 156.3911
874.8960, 153.8454
875.3781, 152.4084
875.8602, 151.9099
876.3423, 150.8750
876.8245, 148.4656
877.3066, 146.0286
877.7887, 143.7381
878.2708, 141.7282
878.7529, 140.8265
879.2350, 141.0396
879.7172, 140.8867
880.1993, 139.5006
880.6814, 137.7083
881.1635, 136.6840
881.6456, 136.1026
882.1277, 135.2039
882.6099, 132.8662
883.0920, 131.1823
883.5741, 131.2042
884.0562, 131.9936
884.5383, 132.1116
885.0204, 131.5057
885.5026, 130.4251
885.9847, 128.7093
886.4668, 127.1334
886.9489, 127.1695
887.4310, 128.0634
887.9131, 128.2210
888.3953, 126.9911
888.8774, 125.7215
889.3595, 124.9654
889.8416, 124.4719
890.3237, 123.9945
890.8058, 123.5109
891.2880, 123.1106
891.7701, 122.8195
892.2522, 122.5366
892.7343, 122.1601
893.2164, 121.7178
893.6985, 121.2782
894.1807, 120.8504
894.6628, 120.4291
895.1449, 120.1578
895.6270, 119.7799
896.1091, 118.9856
896.5912, 117.7185
897.0734, 116.9481
897.5555, 116.7938
898.0376, 116.8905
898.5197, 117.2801
899.0018, 117.7232
899.4839, 117.0683
899.9661, 115.5340
900.4482, 114.3962
900.9303, 114.6589
901.4124, 115.2635
901.8945, 115.8214
902.3766, 116.1776
902.8588, 115.7963
903.3409, 113.9014
903.8230, 112.7246
904.3051, 112.9174
904.7872, 113.7232
905.2693, 113.4320
905.7515, 112.2827
906.2336, 111.8075
906.7157, 112.6525
907.1978, 113.6475
907.6799, 113.8888
908.1620, 113.6492
908.6442, 113.2450
909.1263, 112.5713
909.6084, 112.0176
910.0905, 111.5163
910.5726, 111.2471
911.0547, 111.6916
911.5369, 112.7068
912.0190, 112.3241
912.5011, 110.3799
912.9832, 108.5600
913.4653, 108.4606
913.9474, 109.0057
914.4296, 109.1023
914.9117, 108.6152
915.3938, 108.6435
915.8759, 109.8393
916.3580, 110.8772
916.8401, 111.1616
917.3223, 110.8386
917.8044, 110.7222
918.2865, 110.8076
918.7686, 111.0153
919.2507, 111.6417
919.7328, 112.0790
920.2150, 111.5013
920.6971, 110.2722
921.1792, 109.2831
921.6613, 108.3206
922.1434, 108.3302
922.6255, 109.9517
923.1077, 112.1229
923.5898, 112.9269
924.0719, 112.4294
924.5540, 111.7799
925.0361, 111.0753
925.5182, 110.8209
926.0004, 112.1638
926.4825, 113.9313
926.9646, 114.6852
927.4467, 113.8695
927.9288, 112.7490
928.4109, 110.8347
928.8931, 109.4609
929.3752, 109.9641
929.8573, 112.2839
930.3394, 112.9608
930.8215, 111.9909
931.3036, 111.0630
931.7858, 111.8148
932.2679, 112.9174
932.7500, 113.0432
933.2321, 112.2449
933.7142, 111.4075
934.1964, 110.5942
934.6785, 109.9287
935.1606, 109.3795
935.6427, 109.0411
936.1248, 109.4991
936.6069, 110.6488
937.0891, 111.0434
937.5712, 109.7728
938.0533, 108.3965
938.5354, 108.7524
939.0175, 109.8759
939.4996, 110.3470
939.9818, 109.0260
940.4639, 108.2384
940.9460, 108.2580
941.4281, 108.5797
941.9102, 108.7882
942.3923, 108.8707
942.8745, 108.5760
943.3566, 107.8661
943.8387, 107.3608
944.3208, 107.9659
944.8029, 108.7061
945.2850, 108.5907
945.7672, 107.5022
946.2493, 106.9160
946.7314, 107.0364
947.2135, 107.5089
947.6956, 108.4569
948.1777, 109.5424
948.6599, 109.2328
949.1420, 107.7736
949.6241, 106.5562
950.1062, 106.3323
950.5883, 106.4488
951.0704, 106.6195
951.5526, 106.7794
952.0347, 106.7908
952.5168, 106.5480
952.9989, 106.3738
953.4810, 106.3291
953.9631, 106.2849
954.4453, 106.0973
954.9274, 105.7752
955.4095, 105.2689
955.8916, 104.5514
956.3737, 104.0198
956.8558, 103.9022
957.3380, 104.0995
957.8201, 104.7468
958.3022, 105.9009
958.7843, 106.2084
959.2664, 105.4431
959.7485, 104.5245
960.2307, 103.8276
960.7128, 103.3381
961.1949, 103.1216
961.6770, 103.1065
962.1591, 103.0441
962.6412, 102.8646
963.1234, 102.5631
963.6055, 101.9735
964.0876, 101.3239
964.5697, 101.0131
965.0518, 101.1381
965.5339, 101.1626
966.0161, 101.0105
966.4982, 100.7889
966.9803, 100.5002
967.4624, 100.2737
967.9445, 100.4567
968.4266, 101.1871
968.9088, 101.5610
969.3909, 100.7342
969.8730, 99.95611
970.3551, 99.99374
970.8372, 100.7725
971.3193, 100.8763
971.8015, 100.2811
972.2836, 99.64800
972.7657, 99.36087
973.2478, 99.21574
973.7299, 98.92706
974.2120, 98.58690
974.6942, 98.42020
975.1763, 98.70675
975.6584, 98.89671
976.1405, 98.96752
976.6226, 98.86588
977.1047, 98.34663
977.5869, 97.48269
978.0690, 97.28444
978.5511, 97.99086
979.0332, 98.46753
979.5153, 97.30986
979.9974, 95.78307
980.4796, 95.09758
980.9617, 95.51370
981.4438, 95.76472
981.9259, 95.55847
982.4080, 95.76285
982.8901, 97.17154
983.3723, 99.08900
983.8544, 99.00450
984.3365, 97.36568
984.8186, 96.03150
985.3007, 96.15261
985.7828, 96.53513
986.2650, 96.65892
986.7471, 96.65683
987.2292, 96.83192
987.7113, 97.41511
988.1934, 97.19234
988.6755, 95.86278
989.1577, 94.48239
989.6398, 94.32187
990.1219, 94.88225
990.6040, 95.34506
991.0861, 95.61462
991.5682, 95.95171
992.0504, 96.85478
992.5325, 97.41078
993.0146, 97.06955
993.4967, 96.04720
993.9788, 95.47995
994.4609, 95.36816
994.9431, 95.59261
995.4252, 96.40722
995.9073, 97.08118
996.3894, 96.52058
996.8715, 95.36487
997.3536, 94.65335
997.8358, 95.48641
998.3179, 95.42908
998.8000, 93.84457
999.2821, 92.27071
999.7642, 92.41236
1000.246, 93.93632
1000.728, 95.11826
1001.211, 95.87086
1001.693, 96.14857
1002.175, 95.23521
1002.657, 94.45891
1003.139, 95.10629
1003.621, 96.86599
1004.103, 97.21448
1004.585, 95.66496
1005.068, 94.57636
1005.550, 94.71330
1006.032, 95.38945
1006.514, 95.56386
1006.996, 95.42933
1007.478, 95.42187
1007.960, 95.85487
1008.442, 95.92525
1008.924, 94.92600
1009.407, 93.87434
1009.889, 93.49468
1010.371, 93.82148
1010.853, 93.69248
1011.335, 93.09886
1011.817, 92.96468
1012.299, 94.64561
1012.781, 96.44802
1013.263, 96.54345
1013.746, 95.41125
1014.228, 94.82069
1014.710, 94.88602
1015.192, 95.93183
1015.674, 98.59234
1016.156, 101.2645
1016.638, 101.0412
1017.120, 98.84031
1017.603, 97.59562
1018.085, 97.88770
1018.567, 98.31013
1019.049, 97.96629
1019.531, 97.51730
1020.013, 97.41892
1020.495, 97.66128
1020.977, 97.89201
1021.459, 98.09227
1021.942, 98.46510
1022.424, 99.29837
1022.906, 100.1306
1023.388, 100.2039
1023.870, 99.83244
1024.352, 99.63078
1024.834, 100.0701
1025.316, 100.2676
1025.799, 100.0042
1026.281, 99.68306
1026.763, 99.74091
1027.245, 100.1250
1027.727, 100.4843
1028.209, 100.8032
1028.691, 101.1957
1029.173, 102.3459
1029.656, 103.0484
1030.138, 101.8781
1030.620, 99.37577
1031.102, 98.55488
1031.584, 99.90688
1032.066, 100.9808
1032.548, 101.1838
1033.030, 100.8208
1033.512, 100.0671
1033.995, 99.15202
1034.477, 98.42439
1034.959, 97.87038
1035.441, 97.87641
1035.923, 99.34177
1036.405, 100.4651
1036.887, 100.1191
1037.369, 98.50027
1037.851, 97.10640
1038.334, 96.00333
1038.816, 95.59512
1039.298, 96.71471
1039.780, 98.00929
1040.262, 98.79605
1040.744, 99.05797
1041.226, 98.74268
1041.708, 97.57269
1042.191, 96.72854
1042.673, 96.33640
1043.155, 96.07307
1043.637, 95.54261
1044.119, 94.92742
1044.601, 94.61944
1045.083, 94.61992
1045.565, 94.43346
1046.047, 93.76443
1046.530, 92.98946
1047.012, 92.11910
1047.494, 91.29617
1047.976, 91.05196
1048.458, 91.29553
1048.940, 91.23433
1049.422, 90.46123
1049.904, 89.94468
1050.386, 90.90137
1050.869, 92.18063
1051.351, 92.49345
1051.833, 91.56230
1052.315, 91.16528
1052.797, 91.44596
1053.279, 91.58729
1053.761, 90.66941
1054.243, 89.60007
1054.726, 90.39738
1055.208, 92.32815
1055.690, 93.45298
1056.172, 92.46133
1056.654, 91.39699
1057.136, 90.26372
1057.618, 89.53052
1058.100, 90.16225
1058.583, 91.83050
1059.065, 92.15734
1059.547, 90.99358
1060.029, 89.88748
1060.511, 90.13473
1060.993, 90.58684
1061.475, 90.51990
1061.957, 90.04251
1062.439, 89.66635
1062.922, 89.37899
1063.404, 89.37228
1063.886, 89.87267
1064.368, 90.13046
1064.850, 88.46648
1065.332, 86.33141
1065.814, 85.90854
1066.296, 88.13779
1066.778, 89.67410
1067.261, 90.14658
1067.743, 89.99784
1068.225, 89.25787
1068.707, 88.15923
1069.189, 87.47494
1069.671, 87.13195
1070.153, 86.87803
1070.635, 86.52070
1071.118, 86.34695
1071.600, 86.51614
1072.082, 86.91093
1072.564, 87.49216
1073.046, 88.29250
1073.528, 88.77842
1074.010, 88.92281
1074.492, 88.96816
1074.974, 89.34879
1075.457, 89.49894
1075.939, 88.50634
1076.421, 86.78639
1076.903, 86.09830
1077.385, 86.91117
1077.867, 87.72372
1078.349, 88.31723
1078.831, 88.75359
1079.313, 89.19067
1079.796, 89.50095
1080.278, 89.36345
1080.760, 88.70815
1081.242, 88.17159
1081.724, 87.84249
1082.206, 87.86302
1082.688, 88.48880
1083.170, 89.39407
1083.652, 89.36415
1084.135, 88.59550
1084.617, 88.13135
1085.099, 88.47424
1085.581, 88.76731
1086.063, 88.12424
1086.545, 87.46658
1087.027, 87.86663
1087.509, 89.57889
1087.992, 89.42393
1088.474, 87.26463
1088.956, 85.36568
1089.438, 85.19901
1089.920, 85.90351
1090.402, 87.08300
1090.884, 88.35141
1091.366, 88.83975
1091.849, 87.82433
1092.331, 87.28988
1092.813, 87.53318
1093.295, 87.70778
1093.777, 86.41840
1094.259, 84.65227
1094.741, 84.81799
1095.223, 86.71692
1095.705, 88.04271
1096.188, 87.42699
1096.670, 86.60747
1097.152, 85.87126
1097.634, 85.35099
1098.116, 85.39211
1098.598, 85.89261
1099.080, 86.29264
1099.562, 86.50356
1100.044, 86.61116
1100.527, 86.73803
1101.009, 86.71702
1101.491, 86.41577
1101.973, 85.86769
1102.455, 85.10178
1102.937, 84.08781
1103.419, 83.69004
1103.901, 84.45309
1104.384, 85.30154
1104.866, 84.95176
1105.348, 84.12850
1105.830, 83.74017
1106.312, 84.09995
1106.794, 84.00817
1107.276, 83.31102
1107.758, 82.69553
1108.240, 82.50613
1108.723, 82.67971
1109.205, 83.29038
1109.687, 84.14879
1110.169, 84.82186
1110.651, 85.50241
1111.133, 85.41394
1111.615, 84.18909
1112.097, 82.76291
1112.579, 81.95131
1113.062, 81.64925
1113.544, 81.53712
1114.026, 81.58313
1114.508, 81.66711
1114.990, 81.52241
1115.472, 81.67197
1115.954, 82.57774
1116.436, 83.66792
1116.919, 84.06100
1117.401, 83.79432
1117.883, 83.34898
1118.365, 82.76751
1118.847, 82.32623
1119.329, 82.30550
1119.811, 82.43057
1120.293, 82.61222
1120.776, 82.77950
1121.258, 82.62267
1121.740, 82.08808
1122.222, 81.74959
1122.704, 81.77567
1123.186, 81.88801
1123.668, 81.72232
1124.150, 81.52708
1124.632, 81.59935
1125.115, 82.01286
1125.597, 82.44068
1126.079, 83.02410
1126.561, 83.07394
1127.043, 82.03651
1127.525, 80.77852
1128.007, 80.96022
1128.489, 81.86368
1128.971, 82.22762
1129.454, 81.51170
1129.936, 80.87788
1130.418, 80.29159
1130.900, 80.08746
1131.382, 80.61124
1131.864, 81.59305
1132.346, 82.58421
1132.828, 83.37751
1133.311, 83.30533
1133.793, 80.93935
1134.275, 79.32059
1134.757, 79.39185
1135.239, 80.08210
1135.721, 80.66219
1136.203, 81.09309
1136.685, 80.87542
1137.167, 80.10452
1137.650, 79.67405
1138.132, 80.57862
1138.614, 81.40358
1139.096, 81.31795
1139.578, 80.86240
1140.060, 80.77784
1140.542, 81.06920
1141.024, 81.34585
1141.506, 81.58047
1141.989, 81.56536
1142.471, 80.81200
1142.953, 80.06359
1143.435, 80.00413
1143.917, 79.54543
1144.399, 79.18672
1144.881, 79.33909
1145.363, 78.88257
1145.846, 79.02122
1146.328, 79.60348
1146.810, 80.96221
1147.292, 82.33556
1147.774, 83.04545
1148.256, 82.99004
1148.738, 82.32387
1149.220, 80.76631
1149.703, 79.82075
1150.185, 80.08927
1150.667, 80.58986
1151.149, 79.67269
1151.631, 78.34949
1152.113, 78.20058
1152.595, 79.72279
1153.077, 80.36253
1153.559, 79.46810
1154.042, 79.09126
1154.524, 80.45471
1155.006, 82.21270
1155.488, 81.52789
1155.970, 79.46841
1156.452, 78.14645
1156.934, 78.29859
1157.416, 78.52271
1157.898, 78.60284
1158.381, 78.78711
1158.863, 79.46071
1159.345, 80.19138
1159.827, 79.24903
1160.309, 77.32936
1160.791, 76.38610
1161.273, 77.82559
1161.755, 79.04511
1162.238, 79.44672
1162.720, 79.58753
1163.202, 79.95251
1163.684, 80.41290
1164.166, 80.04210
1164.648, 79.07353
1165.130, 78.55100
1165.612, 79.56081
1166.094, 80.35181
1166.577, 80.36220
1167.059, 79.93315
1167.541, 79.09367
1168.023, 77.97679
1168.505, 78.19881
1168.987, 79.61679
1169.469, 80.60983
1169.951, 79.49812
1170.433, 78.59473
1170.916, 79.45242
1171.398, 80.78460
1171.880, 80.77027
1172.362, 79.50109
1172.844, 78.85796
1173.326, 78.97546
1173.808, 79.25178
1174.290, 79.46487
1174.773, 79.51980
1175.255, 79.20186
1175.737, 78.74533
1176.219, 78.63642
1176.701, 78.87723
1177.183, 78.86414
1177.665, 78.48567
1178.147, 78.47695
1178.630, 80.03331
1179.112, 81.59644
1179.594, 82.12336
1180.076, 81.72817
1180.558, 80.68616
1181.040, 78.93950
1181.522, 77.42941
1182.004, 76.28321
1182.486, 75.75221
1182.969, 76.70573
1183.451, 77.83627
1183.933, 77.89290
1184.415, 77.04292
1184.897, 76.74720
1185.379, 77.04182
1185.861, 77.49218
1186.343, 78.01498
1186.825, 78.52756
1187.308, 79.25066
1187.790, 79.70780
1188.272, 79.10583
1188.754, 77.49838
1189.236, 77.08383
1189.718, 78.01472
1190.200, 78.70883
1190.682, 78.53645
1191.165, 78.30615
1191.647, 79.32555
1192.129, 80.46482
1192.611, 80.29073
1193.093, 78.58137
1193.575, 77.50744
1194.057, 77.13034
1194.539, 76.92128
1195.021, 76.65055
1195.504, 76.48985
1195.986, 76.84151
1196.468, 77.30838
1196.950, 77.22591
1197.432, 76.32577
1197.914, 76.58657
1198.396, 78.24620
1198.878, 79.42408
1199.360, 78.93208
1199.843, 77.96617
1200.325, 77.95891
1200.807, 78.36362
1201.289, 78.37430
1201.771, 77.77660
1202.253, 77.38509
1202.735, 77.21306
1203.217, 77.16973
1203.700, 77.22398
1204.182, 77.35979
1204.664, 77.72253
1205.146, 78.09282
1205.628, 78.04660
1206.110, 77.26155
1206.592, 77.08241
1207.074, 77.57204
1207.557, 78.26348
1208.039, 79.28979
1208.521, 79.94679
1209.003, 78.87605
1209.485, 77.04678
1209.967, 76.36092
1210.449, 77.67570
1210.931, 77.79585
1211.413, 76.46410
1211.896, 75.57521
1212.378, 77.31178
1212.860, 79.41309
1213.342, 79.28397
1213.824, 77.74642
1214.306, 76.44326
1214.788, 75.46886
1215.270, 74.81464
1215.752, 74.45222
1216.235, 74.64147
1216.717, 76.18520
1217.199, 77.84592
1217.681, 78.41099
1218.163, 78.13120
1218.645, 77.53526
1219.127, 76.49587
1219.609, 75.90467
1220.092, 75.82307
1220.574, 75.91713
1221.056, 75.87917
1221.538, 75.93320
1222.020, 76.45262
1222.502, 77.18283
1222.984, 77.57656
1223.466, 77.62552
1223.948, 77.14199
1224.431, 76.04855
1224.913, 75.29726
1225.395, 76.20493
1225.877, 77.26052
1226.359, 76.98611
1226.841, 75.94393
1227.323, 75.65909
1227.805, 76.29456
1228.287, 76.56039
1228.770, 76.34734
1229.252, 76.12964
1229.734, 76.54029
1230.216, 76.84095
1230.698, 76.02525
1231.180, 74.83366
1231.662, 75.07614
1232.144, 76.90079
1232.627, 78.13961
1233.109, 78.61272
1233.591, 78.52247
1234.073, 77.39941
1234.555, 76.40343
1235.037, 76.50768
1235.519, 77.18875
1236.001, 77.50834
1236.484, 77.46521
1236.966, 77.18714
1237.448, 76.68800
1237.930, 76.15227
1238.412, 75.48722
1238.894, 75.05239
1239.376, 75.24902
1239.858, 75.70456
1240.340, 75.82106
1240.823, 75.62885
1241.305, 75.48746
1241.787, 75.43132
1242.269, 75.41075
1242.751, 75.37869
1243.233, 75.40303
1243.715, 75.57911
1244.197, 75.76794
1244.679, 75.65469
1245.162, 75.33999
1245.644, 75.47390
1246.126, 76.07710
1246.608, 76.48183
1247.090, 76.00949
1247.572, 75.72782
1248.054, 76.10556
1248.536, 75.75653
1249.019, 76.46741
1249.501, 75.83376
1249.983, 75.71183
1250.465, 76.12366
1250.947, 76.27757
1251.429, 75.39861
1251.911, 74.87389
1252.393, 75.15927
1252.875, 75.59738
1253.358, 75.04942
1253.840, 74.05739
1254.322, 74.01460
1254.804, 74.89263
1255.286, 75.39392
1255.768, 74.70656
1256.250, 74.42445
1256.732, 74.88109
1257.214, 75.57299
1257.697, 76.00491
1258.179, 76.19628
1258.661, 76.20571
1259.143, 76.01700
1259.625, 75.40549
1260.107, 73.95950
1260.589, 73.27952
1261.071, 73.76895
1261.554, 74.32050
1262.036, 73.29323
1262.518, 71.99949
1263.000, 72.17636
1263.482, 73.54642
1263.964, 74.30642
1264.446, 74.24744
1264.928, 74.15617
1265.411, 74.13084
1265.893, 74.07082
1266.375, 73.79777
1266.857, 73.52728
1267.339, 73.30861
1267.821, 73.28331
1268.303, 73.94364
1268.785, 75.40873
1269.267, 75.90957
1269.750, 75.23007
1270.232, 74.43001
1270.714, 74.17056
1271.196, 74.17791
1271.678, 74.46311
1272.160, 74.81213
1272.642, 74.89837
1273.124, 74.73139
1273.606, 74.39528
1274.089, 73.91415
1274.571, 73.52824
1275.053, 73.18182
1275.535, 73.24583
1276.017, 74.05836
1276.499, 75.08747
1276.981, 75.68621
1277.463, 75.89799
1277.946, 75.94039
1278.428, 75.79256
1278.910, 75.21449
1279.392, 73.33354
1279.874, 72.13689
1280.356, 72.01854
1280.838, 72.53022
1281.320, 73.62657
1281.802, 74.79223
1282.285, 74.71672
1282.767, 73.65786
1283.249, 72.96674
1283.731, 73.46826
1284.213, 73.21544
1284.695, 71.72935
1285.177, 70.74372
1285.659, 72.79037
1286.141, 75.54753
1286.624, 75.84754
1287.106, 74.40086
1287.588, 73.40156
1288.070, 73.04215
1288.552, 73.15198
1289.034, 73.77461
1289.516, 74.26692
1289.998, 73.95887
1290.481, 73.49923
1290.963, 73.38872
1291.445, 73.49313
1291.927, 73.56880
1292.409, 73.61765
1292.891, 73.60041
1293.373, 73.51389
1293.855, 73.32352
1294.338, 72.60197
1294.820, 72.26366
1295.302, 73.17121
1295.784, 74.30403
1296.266, 74.79580
1296.748, 74.72015
1297.230, 74.36012
1297.712, 73.85703
1298.194, 73.78816
1298.677, 75.51467
1299.159, 75.85683
1299.641, 73.69883
1300.123, 71.50090
1300.605, 71.33818
1301.087, 72.36422
1301.569, 72.57861
1302.051, 72.31096
1302.533, 72.32978
1303.016, 72.75607
##END=



