##NAMES=Tyrolite
##RRUFFID=R050571
##IDEAL CHEMISTRY=Ca_2_Cu^2+^_9_(As^5+^O_4_)_4_(CO_3_)(OH)_8_&#183;11H_2_O
##LOCALITY=Penamellera, Spain
##OWNER=RRUFF
##SOURCE=University of Arizona Mineral Museum
##DESCRIPTION=Pale blue foliated coating, tyrolite-2M polytype
##STATUS=The identification of this mineral is confirmed by single-crystal X-ray diffraction and chemical analysis.
##URL=rruff.info/R050571
##MEASURED CHEMISTRY=Ca_1.00_(Cu_4.95_Fe_0.03_Zn_0.02_)_Σ=5_(As_1.00_O_4_)_2_(CO_3_)(OH)_4_·6H_2_O
91.11523, 27.21272
91.59735, 26.04658
92.07947, 26.95387
92.56158, 29.34880
93.04370, 31.39078
93.52582, 31.71640
94.00793, 30.97159
94.49006, 30.50568
94.97218, 30.46237
95.45429, 30.71535
95.93641, 31.19787
96.41853, 31.90185
96.90064, 32.49814
97.38276, 32.78810
97.86488, 32.77571
98.34699, 32.45336
98.82911, 31.70794
99.31123, 30.71136
99.79334, 29.97177
100.2755, 29.45999
100.7576, 29.32993
101.2397, 29.89545
101.7218, 31.36863
102.2039, 32.55958
102.6861, 33.25416
103.1682, 33.45776
103.6503, 33.15050
104.1324, 32.05189
104.6145, 30.74969
105.0966, 29.82748
105.5788, 28.95117
106.0609, 29.09118
106.5430, 30.91469
107.0251, 35.43026
107.5072, 38.01057
107.9893, 37.31802
108.4715, 35.03263
108.9536, 34.16502
109.4357, 35.33772
109.9178, 37.37471
110.3999, 39.96345
110.8820, 43.23618
111.3642, 46.80178
111.8463, 50.96868
112.3284, 55.47230
112.8105, 59.61242
113.2926, 62.04407
113.7747, 65.00134
114.2569, 69.60273
114.7390, 77.35217
115.2211, 85.26036
115.7032, 92.11938
116.1853, 98.30785
116.6674, 105.7139
117.1496, 114.8268
117.6317, 125.6059
118.1138, 137.9118
118.5959, 151.5615
119.0780, 166.9521
119.5602, 184.5984
120.0423, 204.5747
120.5244, 225.3565
121.0065, 246.2363
121.4886, 267.4121
121.9707, 289.2391
122.4529, 312.6747
122.9350, 336.0952
123.4171, 358.1234
123.8992, 378.6777
124.3813, 398.1372
124.8634, 417.4565
125.3456, 435.9748
125.8277, 452.2574
126.3098, 462.7932
126.7919, 471.3265
127.2740, 483.3750
127.7561, 499.6556
128.2383, 518.3409
128.7204, 537.6981
129.2025, 557.7244
129.6846, 578.4067
130.1667, 599.8750
130.6488, 621.8059
131.1310, 644.5348
131.6131, 668.1132
132.0952, 692.4368
132.5773, 717.9117
133.0594, 744.6795
133.5415, 770.5707
134.0237, 793.9973
134.5058, 815.1992
134.9879, 836.3371
135.4700, 858.2196
135.9521, 880.1276
136.4343, 900.1068
136.9164, 917.8116
137.3985, 935.2645
137.8806, 954.9440
138.3627, 977.5853
138.8448, 998.2986
139.3270, 1016.251
139.8091, 1031.715
140.2912, 1046.129
140.7733, 1058.872
141.2554, 1071.896
141.7375, 1087.106
142.2197, 1105.192
142.7018, 1124.043
143.1839, 1143.122
143.6660, 1162.274
144.1481, 1182.953
144.6302, 1206.052
145.1124, 1229.773
145.5945, 1251.382
146.0766, 1270.019
146.5587, 1288.198
147.0408, 1306.336
147.5230, 1324.011
148.0051, 1342.681
148.4872, 1357.039
148.9693, 1364.119
149.4514, 1370.603
149.9335, 1377.474
150.4157, 1382.976
150.8978, 1386.524
151.3799, 1387.697
151.8620, 1388.235
152.3441, 1387.737
152.8262, 1386.712
153.3084, 1386.102
153.7905, 1388.577
154.2726, 1389.341
154.7547, 1386.373
155.2368, 1376.497
155.7189, 1368.087
156.2011, 1362.319
156.6832, 1358.591
157.1653, 1355.667
157.6474, 1352.352
158.1295, 1350.341
158.6116, 1350.580
159.0938, 1354.764
159.5759, 1358.942
160.0580, 1361.735
160.5401, 1363.612
161.0222, 1366.210
161.5044, 1370.358
161.9865, 1375.201
162.4686, 1380.207
162.9507, 1386.245
163.4328, 1391.302
163.9149, 1394.217
164.3971, 1395.359
164.8792, 1396.376
165.3613, 1399.499
165.8434, 1402.250
166.3255, 1402.355
166.8076, 1397.599
167.2898, 1391.387
167.7719, 1385.437
168.2540, 1379.698
168.7361, 1373.632
169.2182, 1366.729
169.7003, 1359.389
170.1825, 1352.088
170.6646, 1345.109
171.1467, 1338.156
171.6288, 1330.763
172.1109, 1323.000
172.5931, 1315.320
173.0752, 1307.349
173.5573, 1299.745
174.0394, 1293.569
174.5215, 1290.855
175.0036, 1288.975
175.4858, 1285.022
175.9679, 1278.897
176.4500, 1272.007
176.9321, 1265.050
177.4142, 1258.127
177.8963, 1251.593
178.3785, 1245.990
178.8606, 1240.636
179.3427, 1234.651
179.8248, 1227.955
180.3069, 1220.817
180.7890, 1213.170
181.2712, 1205.255
181.7533, 1197.925
182.2354, 1191.413
182.7175, 1185.796
183.1996, 1181.601
183.6818, 1178.902
184.1639, 1176.956
184.6460, 1174.617
185.1281, 1172.090
185.6102, 1170.358
186.0923, 1171.058
186.5745, 1173.067
187.0566, 1172.309
187.5387, 1168.100
188.0208, 1163.041
188.5029, 1160.524
188.9850, 1160.429
189.4672, 1161.053
189.9493, 1162.142
190.4314, 1163.439
190.9135, 1163.356
191.3956, 1161.515
191.8777, 1159.083
192.3599, 1158.069
192.8420, 1158.486
193.3241, 1158.516
193.8062, 1157.010
194.2883, 1154.080
194.7704, 1151.207
195.2526, 1148.403
195.7347, 1145.729
196.2168, 1143.493
196.6989, 1141.735
197.1810, 1139.625
197.6632, 1136.788
198.1453, 1133.189
198.6274, 1128.941
199.1095, 1124.171
199.5916, 1118.556
200.0737, 1111.240
200.5559, 1101.983
201.0380, 1092.467
201.5201, 1083.704
202.0022, 1075.704
202.4843, 1067.385
202.9664, 1058.460
203.4486, 1049.457
203.9307, 1041.632
204.4128, 1035.239
204.8949, 1029.333
205.3770, 1023.504
205.8591, 1017.763
206.3413, 1011.856
206.8234, 1005.459
207.3055, 999.0858
207.7876, 994.3605
208.2697, 991.8821
208.7519, 989.2785
209.2340, 984.9933
209.7161, 978.5140
210.1982, 972.9084
210.6803, 968.5260
211.1624, 965.0027
211.6446, 961.2355
212.1267, 956.9681
212.6088, 953.1923
213.0909, 950.5632
213.5730, 949.4527
214.0551, 948.1365
214.5373, 946.5498
215.0194, 944.7293
215.5015, 942.5207
215.9836, 939.4109
216.4657, 936.9760
216.9478, 936.2638
217.4300, 938.1036
217.9121, 938.9396
218.3942, 938.3958
218.8763, 936.8071
219.3584, 934.9304
219.8405, 932.1176
220.3227, 930.1786
220.8048, 930.4451
221.2869, 934.3651
221.7690, 936.0749
222.2511, 934.1765
222.7333, 930.2841
223.2154, 929.5010
223.6975, 933.7367
224.1796, 937.8705
224.6617, 939.1938
225.1438, 936.2756
225.6260, 934.4017
226.1081, 933.8619
226.5902, 934.4366
227.0723, 935.5176
227.5544, 937.2119
228.0365, 939.2969
228.5187, 941.7106
229.0008, 944.5793
229.4829, 947.4913
229.9650, 950.7429
230.4471, 953.9368
230.9292, 956.0440
231.4114, 956.7375
231.8935, 956.8085
232.3756, 956.3864
232.8577, 954.6316
233.3398, 954.3950
233.8220, 956.4167
234.3041, 959.7001
234.7862, 961.7552
235.2683, 962.1628
235.7504, 962.0079
236.2325, 961.6645
236.7147, 960.9890
237.1968, 960.5886
237.6789, 960.5277
238.1610, 960.7667
238.6431, 961.1573
239.1252, 961.5344
239.6074, 962.3918
240.0895, 964.0105
240.5716, 966.6791
241.0537, 969.2538
241.5358, 971.6317
242.0179, 973.9619
242.5001, 976.5490
242.9822, 979.4951
243.4643, 982.4938
243.9464, 985.5642
244.4285, 989.0323
244.9106, 991.2488
245.3928, 991.2585
245.8749, 990.5518
246.3570, 991.9276
246.8391, 996.7321
247.3212, 1001.253
247.8034, 1004.076
248.2855, 1004.580
248.7676, 1006.079
249.2497, 1008.942
249.7318, 1012.560
250.2139, 1016.099
250.6961, 1019.815
251.1782, 1023.034
251.6603, 1025.521
252.1424, 1027.176
252.6245, 1028.818
253.1066, 1030.472
253.5888, 1032.128
254.0709, 1033.856
254.5530, 1035.904
255.0351, 1037.469
255.5172, 1037.848
255.9993, 1036.716
256.4815, 1038.079
256.9636, 1043.230
257.4457, 1049.453
257.9278, 1053.518
258.4099, 1054.323
258.8921, 1055.544
259.3742, 1058.447
259.8563, 1063.059
260.3384, 1065.759
260.8205, 1065.639
261.3026, 1064.786
261.7848, 1065.404
262.2669, 1068.155
262.7490, 1070.527
263.2311, 1071.931
263.7132, 1072.436
264.1953, 1073.011
264.6775, 1073.763
265.1596, 1074.399
265.6417, 1074.846
266.1238, 1075.413
266.6059, 1074.625
267.0880, 1071.775
267.5702, 1067.245
268.0523, 1063.951
268.5344, 1062.270
269.0165, 1060.973
269.4986, 1059.008
269.9807, 1056.101
270.4629, 1053.643
270.9450, 1051.787
271.4271, 1050.509
271.9092, 1050.008
272.3913, 1050.657
272.8734, 1051.020
273.3556, 1049.884
273.8377, 1046.950
274.3198, 1044.621
274.8019, 1043.295
275.2840, 1042.550
275.7661, 1041.064
276.2483, 1038.617
276.7304, 1036.356
277.2125, 1034.910
277.6946, 1034.276
278.1768, 1034.546
278.6589, 1036.073
279.1410, 1038.065
279.6231, 1038.931
280.1052, 1038.610
280.5873, 1037.656
281.0695, 1036.105
281.5516, 1033.966
282.0337, 1032.303
282.5158, 1031.211
282.9979, 1030.454
283.4800, 1029.676
283.9622, 1028.866
284.4443, 1028.097
284.9264, 1027.209
285.4085, 1026.281
285.8906, 1026.093
286.3727, 1026.709
286.8549, 1027.785
287.3370, 1029.275
287.8191, 1031.116
288.3012, 1032.037
288.7833, 1030.888
289.2654, 1028.471
289.7476, 1027.932
290.2297, 1029.438
290.7118, 1031.557
291.1939, 1032.874
291.6760, 1033.493
292.1581, 1034.096
292.6403, 1035.139
293.1224, 1036.180
293.6045, 1035.744
294.0866, 1033.826
294.5687, 1032.308
295.0508, 1033.028
295.5330, 1035.536
296.0151, 1038.339
296.4972, 1041.373
296.9793, 1044.238
297.4614, 1045.891
297.9435, 1046.486
298.4257, 1047.196
298.9078, 1049.303
299.3899, 1052.108
299.8720, 1053.971
300.3541, 1054.404
300.8362, 1054.289
301.3184, 1054.512
301.8005, 1055.074
302.2826, 1055.956
302.7647, 1056.680
303.2469, 1057.865
303.7290, 1060.746
304.2111, 1065.767
304.6932, 1071.176
305.1753, 1075.985
305.6574, 1079.879
306.1396, 1081.919
306.6217, 1079.799
307.1038, 1076.565
307.5859, 1075.464
308.0680, 1076.816
308.5501, 1079.076
309.0323, 1081.169
309.5144, 1083.379
309.9965, 1086.146
310.4786, 1090.964
310.9607, 1095.506
311.4428, 1097.448
311.9250, 1096.864
312.4071, 1096.849
312.8892, 1100.364
313.3713, 1104.971
313.8534, 1108.120
314.3355, 1107.171
314.8177, 1106.168
315.2998, 1107.303
315.7819, 1110.248
316.2640, 1113.302
316.7461, 1115.863
317.2282, 1118.109
317.7104, 1120.187
318.1925, 1122.015
318.6746, 1123.826
319.1567, 1125.555
319.6388, 1127.312
320.1209, 1129.348
320.6031, 1132.504
321.0852, 1135.389
321.5673, 1137.182
322.0494, 1137.163
322.5315, 1137.506
323.0136, 1138.547
323.4958, 1140.261
323.9779, 1142.602
324.4600, 1146.410
324.9421, 1150.119
325.4242, 1153.013
325.9064, 1154.765
326.3885, 1157.176
326.8706, 1160.859
327.3527, 1165.084
327.8348, 1169.124
328.3170, 1171.823
328.7991, 1175.578
329.2812, 1181.439
329.7633, 1189.523
330.2454, 1195.621
330.7275, 1197.898
331.2097, 1199.557
331.6918, 1202.823
332.1739, 1208.492
332.6560, 1214.539
333.1381, 1221.260
333.6202, 1228.242
334.1024, 1232.968
334.5845, 1233.551
335.0666, 1234.580
335.5487, 1238.836
336.0308, 1247.934
336.5129, 1255.437
336.9951, 1260.886
337.4772, 1264.916
337.9593, 1269.020
338.4414, 1273.345
338.9235, 1277.474
339.4056, 1281.147
339.8878, 1284.271
340.3699, 1287.912
340.8520, 1291.833
341.3341, 1296.812
341.8162, 1304.443
342.2983, 1314.889
342.7805, 1325.477
343.2626, 1335.216
343.7447, 1344.373
344.2268, 1353.988
344.7089, 1364.204
345.1910, 1374.397
345.6732, 1383.198
346.1553, 1391.033
346.6374, 1400.693
347.1195, 1413.275
347.6016, 1427.509
348.0837, 1440.955
348.5659, 1453.778
349.0480, 1466.648
349.5301, 1479.959
350.0122, 1493.706
350.4944, 1507.156
350.9765, 1519.954
351.4586, 1533.352
351.9407, 1550.429
352.4228, 1569.678
352.9049, 1586.048
353.3871, 1594.601
353.8692, 1599.822
354.3513, 1607.861
354.8334, 1619.139
355.3155, 1630.335
355.7976, 1639.264
356.2798, 1646.318
356.7619, 1652.244
357.2440, 1657.208
357.7261, 1661.106
358.2082, 1664.150
358.6903, 1666.188
359.1725, 1666.298
359.6546, 1663.031
360.1367, 1658.066
360.6188, 1652.971
361.1009, 1648.931
361.5830, 1643.639
362.0652, 1634.983
362.5473, 1624.275
363.0294, 1614.740
363.5115, 1609.174
363.9936, 1603.738
364.4757, 1596.651
364.9579, 1587.497
365.4400, 1577.291
365.9221, 1564.757
366.4042, 1551.716
366.8863, 1540.467
367.3684, 1532.533
367.8506, 1525.228
368.3327, 1517.836
368.8148, 1510.321
369.2969, 1503.728
369.7790, 1498.534
370.2611, 1493.881
370.7433, 1489.098
371.2254, 1483.313
371.7075, 1478.785
372.1896, 1475.427
372.6717, 1473.408
373.1538, 1473.794
373.6360, 1478.107
374.1181, 1482.306
374.6002, 1484.182
375.0823, 1482.775
375.5645, 1482.379
376.0466, 1482.799
376.5287, 1484.434
377.0108, 1488.451
377.4929, 1495.329
377.9750, 1502.014
378.4572, 1507.654
378.9393, 1512.258
379.4214, 1515.192
379.9035, 1516.159
380.3856, 1516.656
380.8677, 1518.571
381.3499, 1521.710
381.8320, 1523.456
382.3141, 1523.016
382.7962, 1521.133
383.2783, 1519.451
383.7604, 1517.900
384.2426, 1515.547
384.7247, 1511.345
385.2068, 1505.909
385.6889, 1500.553
386.1710, 1495.551
386.6531, 1490.212
387.1353, 1484.039
387.6174, 1476.932
388.0995, 1468.611
388.5816, 1457.619
389.0637, 1446.079
389.5458, 1436.269
390.0280, 1428.118
390.5101, 1419.945
390.9922, 1410.330
391.4743, 1400.233
391.9564, 1390.580
392.4385, 1381.761
392.9207, 1373.406
393.4028, 1364.965
393.8849, 1356.823
394.3670, 1350.133
394.8491, 1347.495
395.3312, 1344.905
395.8134, 1339.743
396.2955, 1330.350
396.7776, 1322.076
397.2597, 1317.173
397.7418, 1313.785
398.2239, 1309.451
398.7061, 1302.141
399.1882, 1295.665
399.6703, 1291.493
400.1524, 1289.782
400.6346, 1286.549
401.1167, 1280.365
401.5988, 1273.944
402.0809, 1269.217
402.5630, 1267.472
403.0451, 1264.789
403.5273, 1260.339
404.0094, 1254.951
404.4915, 1251.042
404.9736, 1248.798
405.4557, 1247.527
405.9378, 1247.134
406.4200, 1247.717
406.9021, 1248.201
407.3842, 1248.900
407.8663, 1248.792
408.3484, 1245.850
408.8305, 1240.003
409.3127, 1235.396
409.7948, 1233.463
410.2769, 1233.421
410.7590, 1233.334
411.2411, 1233.222
411.7232, 1233.034
412.2054, 1233.293
412.6875, 1233.468
413.1696, 1231.794
413.6517, 1227.605
414.1338, 1222.829
414.6159, 1220.104
415.0981, 1218.667
415.5802, 1216.482
416.0623, 1212.501
416.5444, 1207.231
417.0265, 1200.932
417.5086, 1193.575
417.9908, 1186.294
418.4729, 1180.221
418.9550, 1174.460
419.4371, 1168.150
419.9192, 1160.459
420.4013, 1152.774
420.8835, 1146.242
421.3656, 1140.300
421.8477, 1133.100
422.3298, 1122.474
422.8119, 1111.906
423.2940, 1103.127
423.7762, 1097.206
424.2583, 1090.562
424.7404, 1081.798
425.2225, 1072.643
425.7047, 1064.832
426.1868, 1059.237
426.6689, 1053.969
427.1510, 1048.713
427.6331, 1043.510
428.1152, 1038.541
428.5974, 1033.688
429.0795, 1029.158
429.5616, 1024.991
430.0437, 1021.173
430.5258, 1017.899
431.0079, 1015.446
431.4901, 1013.221
431.9722, 1009.740
432.4543, 1004.769
432.9364, 1000.949
433.4185, 999.6642
433.9006, 1000.415
434.3828, 1001.180
434.8649, 1001.981
435.3470, 1002.567
435.8291, 1002.395
436.3112, 1001.794
436.7933, 1001.868
437.2755, 1002.997
437.7576, 1004.566
438.2397, 1005.728
438.7218, 1006.658
439.2039, 1007.912
439.6860, 1009.562
440.1682, 1011.845
440.6503, 1015.033
441.1324, 1019.172
441.6145, 1023.752
442.0966, 1029.062
442.5787, 1034.387
443.0609, 1038.950
443.5430, 1041.361
444.0251, 1044.145
444.5072, 1048.700
444.9893, 1054.442
445.4714, 1059.342
445.9536, 1061.635
446.4357, 1064.132
446.9178, 1068.285
447.3999, 1075.210
447.8820, 1081.048
448.3641, 1085.018
448.8463, 1088.342
449.3284, 1092.441
449.8105, 1097.902
450.2926, 1103.033
450.7747, 1107.408
451.2569, 1111.211
451.7390, 1115.451
452.2211, 1120.288
452.7032, 1125.216
453.1853, 1130.007
453.6674, 1134.697
454.1496, 1138.896
454.6317, 1142.536
455.1138, 1145.822
455.5959, 1149.123
456.0780, 1152.408
456.5602, 1155.119
457.0423, 1157.207
457.5244, 1158.525
458.0065, 1158.699
458.4886, 1157.780
458.9707, 1156.186
459.4529, 1154.534
459.9350, 1152.335
460.4171, 1148.705
460.8992, 1143.164
461.3813, 1137.348
461.8634, 1132.748
462.3456, 1128.676
462.8277, 1124.066
463.3098, 1117.441
463.7919, 1111.004
464.2740, 1106.315
464.7561, 1103.222
465.2383, 1099.288
465.7204, 1093.236
466.2025, 1086.450
466.6846, 1079.800
467.1667, 1073.263
467.6488, 1067.047
468.1310, 1060.763
468.6131, 1054.875
469.0952, 1050.085
469.5773, 1047.356
470.0594, 1044.182
470.5415, 1039.694
471.0237, 1033.985
471.5058, 1029.071
471.9879, 1025.133
472.4700, 1021.594
472.9521, 1017.903
473.4342, 1013.990
473.9164, 1011.241
474.3985, 1010.044
474.8806, 1009.467
475.3627, 1007.917
475.8448, 1005.475
476.3270, 1002.963
476.8091, 1000.628
477.2912, 998.5211
477.7733, 996.8372
478.2554, 995.5569
478.7375, 994.3848
479.2197, 993.1448
479.7018, 991.8536
480.1839, 990.4207
480.6660, 988.5832
481.1481, 987.3074
481.6302, 987.5361
482.1124, 988.7133
482.5945, 989.8974
483.0766, 990.9063
483.5587, 991.7029
484.0408, 991.9149
484.5229, 991.5916
485.0051, 992.1818
485.4872, 995.1431
485.9693, 998.2522
486.4514, 1000.067
486.9335, 998.7267
487.4156, 999.3666
487.8978, 1002.969
488.3799, 1008.032
488.8620, 1012.175
489.3441, 1014.727
489.8262, 1018.183
490.3083, 1023.769
490.7905, 1030.997
491.2726, 1035.700
491.7547, 1037.482
492.2368, 1038.871
492.7189, 1041.520
493.2010, 1045.368
493.6832, 1049.859
494.1653, 1055.023
494.6474, 1060.617
495.1295, 1065.983
495.6116, 1071.511
496.0938, 1078.551
496.5759, 1088.966
497.0580, 1100.038
497.5401, 1108.793
498.0222, 1115.522
498.5044, 1121.276
498.9865, 1125.221
499.4686, 1129.441
499.9507, 1136.252
500.4328, 1147.110
500.9149, 1156.145
501.3971, 1160.124
501.8792, 1161.779
502.3613, 1164.292
502.8434, 1169.469
503.3255, 1174.119
503.8076, 1178.323
504.2898, 1181.748
504.7719, 1182.665
505.2540, 1179.863
505.7361, 1176.315
506.2182, 1173.463
506.7003, 1171.729
507.1825, 1167.728
507.6646, 1160.902
508.1467, 1153.021
508.6288, 1146.080
509.1109, 1140.082
509.5930, 1133.747
510.0752, 1126.841
510.5573, 1119.470
511.0394, 1111.558
511.5215, 1103.231
512.0037, 1095.241
512.4858, 1088.295
512.9679, 1081.816
513.4500, 1075.073
513.9321, 1068.032
514.4142, 1060.658
514.8964, 1052.948
515.3785, 1044.830
515.8606, 1036.358
516.3427, 1027.638
516.8248, 1018.252
517.3069, 1007.242
517.7891, 995.5438
518.2712, 984.8544
518.7533, 976.4064
519.2354, 968.2406
519.7175, 959.9911
520.1996, 951.6247
520.6818, 943.1395
521.1639, 934.3436
521.6460, 925.6383
522.1281, 917.3622
522.6102, 909.5573
523.0923, 901.8840
523.5745, 894.3724
524.0566, 886.8774
524.5387, 879.0938
525.0208, 870.9885
525.5029, 863.0078
525.9850, 855.0238
526.4672, 847.4742
526.9493, 841.6717
527.4314, 837.3364
527.9135, 832.5211
528.3956, 825.0233
528.8777, 816.5940
529.3599, 809.9227
529.8420, 805.2728
530.3241, 800.8112
530.8062, 794.8860
531.2883, 788.5591
531.7704, 783.1845
532.2526, 779.7274
532.7347, 776.3358
533.2168, 772.0392
533.6989, 767.4023
534.1810, 763.6264
534.6631, 762.7125
535.1453, 760.8026
535.6274, 756.4248
536.1095, 749.4228
536.5916, 744.0173
537.0737, 740.5818
537.5558, 738.0800
538.0380, 735.9961
538.5201, 734.4232
539.0022, 732.4498
539.4843, 730.0031
539.9664, 727.2385
540.4485, 724.2850
540.9307, 721.1967
541.4128, 718.3754
541.8949, 716.1371
542.3770, 714.0839
542.8591, 711.3204
543.3412, 708.0394
543.8234, 705.0967
544.3055, 703.5070
544.7876, 702.2049
545.2697, 700.0682
545.7518, 696.9207
546.2339, 693.8707
546.7161, 691.8909
547.1982, 690.0511
547.6803, 687.4645
548.1624, 682.7634
548.6445, 678.8616
549.1266, 676.6537
549.6088, 675.4543
550.0909, 673.8590
550.5730, 671.4550
551.0551, 669.3846
551.5372, 668.1732
552.0193, 667.6774
552.5015, 666.3377
552.9836, 663.9608
553.4657, 661.4329
553.9478, 659.1315
554.4299, 657.0975
554.9120, 656.0034
555.3942, 656.0206
555.8763, 656.2326
556.3584, 655.7738
556.8405, 654.6858
557.3226, 653.0693
557.8047, 650.8459
558.2869, 648.2341
558.7690, 645.0633
559.2511, 641.6346
559.7332, 638.7496
560.2154, 637.0060
560.6975, 635.7113
561.1796, 634.5914
561.6617, 633.6361
562.1439, 632.6686
562.6260, 631.6215
563.1081, 630.5960
563.5902, 629.6613
564.0723, 629.0424
564.5544, 627.9703
565.0366, 626.0468
565.5187, 624.0399
566.0008, 623.1225
566.4829, 623.4911
566.9650, 623.7977
567.4471, 623.7973
567.9293, 623.4960
568.4114, 622.6689
568.8935, 621.3688
569.3756, 620.4711
569.8577, 621.2435
570.3398, 622.4803
570.8220, 621.7235
571.3041, 619.0061
571.7862, 616.2891
572.2683, 614.9975
572.7504, 614.3520
573.2325, 613.5204
573.7147, 612.1805
574.1968, 611.1123
574.6789, 610.6984
575.1610, 610.6993
575.6431, 610.8007
576.1252, 611.8198
576.6074, 611.9019
577.0895, 610.5245
577.5716, 608.0245
578.0537, 605.5118
578.5358, 602.6240
579.0179, 600.5921
579.5001, 600.1847
579.9822, 601.2701
580.4643, 601.6501
580.9464, 601.1992
581.4285, 600.8814
581.9106, 601.7205
582.3928, 603.3848
582.8749, 605.0137
583.3570, 606.6950
583.8391, 607.3827
584.3212, 605.0850
584.8033, 601.2562
585.2855, 598.3782
585.7676, 598.1571
586.2497, 598.2408
586.7318, 597.0309
587.2139, 595.1541
587.6960, 594.4016
588.1782, 596.6094
588.6603, 598.6627
589.1424, 599.5004
589.6245, 599.0945
590.1066, 598.1884
590.5887, 596.4840
591.0709, 594.7070
591.5530, 593.2325
592.0351, 592.0453
592.5172, 591.2226
592.9993, 590.7362
593.4814, 590.7039
593.9636, 591.7983
594.4457, 593.6744
594.9278, 594.4188
595.4099, 593.2080
595.8920, 591.3043
596.3741, 590.2450
596.8563, 589.8063
597.3384, 589.4037
597.8205, 588.5524
598.3026, 587.8317
598.7847, 587.7301
599.2668, 588.1861
599.7490, 588.5659
600.2311, 588.8830
600.7132, 588.9011
601.1953, 588.3840
601.6774, 587.0458
602.1595, 586.1149
602.6417, 585.7200
603.1238, 585.5322
603.6059, 585.2538
604.0880, 584.8488
604.5701, 584.5358
605.0522, 584.3998
605.5344, 584.2462
606.0165, 583.6469
606.4986, 582.6838
606.9807, 581.8893
607.4628, 581.4854
607.9449, 581.3578
608.4271, 581.5884
608.9092, 582.0414
609.3913, 582.1489
609.8735, 581.3502
610.3556, 580.3044
610.8377, 579.1902
611.3198, 578.0137
611.8019, 577.7032
612.2841, 579.7881
612.7662, 581.8854
613.2483, 582.3188
613.7304, 579.7783
614.2125, 578.5594
614.6946, 579.1385
615.1768, 580.4969
615.6589, 581.6504
616.1410, 582.7066
616.6231, 582.6796
617.1052, 581.1208
617.5873, 578.8200
618.0695, 577.0688
618.5516, 575.9111
619.0337, 575.6576
619.5158, 577.3277
619.9979, 579.4189
620.4800, 579.8650
620.9622, 578.9553
621.4443, 578.1602
621.9264, 578.6963
622.4085, 579.2562
622.8906, 578.7028
623.3727, 576.6342
623.8549, 575.6415
624.3370, 577.3735
624.8191, 579.4820
625.3012, 580.4597
625.7833, 580.0896
626.2654, 578.8746
626.7476, 576.1230
627.2297, 573.4533
627.7118, 573.6046
628.1939, 576.6688
628.6760, 578.8572
629.1581, 579.2327
629.6403, 578.4669
630.1224, 577.4971
630.6045, 576.3497
631.0866, 575.0958
631.5687, 573.0403
632.0508, 571.4457
632.5330, 571.9863
633.0151, 574.2541
633.4972, 576.0466
633.9793, 576.2205
634.4614, 575.8696
634.9435, 575.5541
635.4257, 575.3762
635.9078, 574.8506
636.3899, 573.2841
636.8720, 572.0528
637.3541, 572.3260
637.8362, 574.5988
638.3184, 576.0741
638.8005, 576.5438
639.2826, 576.3934
639.7647, 575.9099
640.2468, 575.1589
640.7289, 574.6102
641.2111, 574.3633
641.6932, 574.3879
642.1753, 574.8918
642.6574, 575.6445
643.1395, 576.0822
643.6216, 575.2823
644.1038, 574.7161
644.5859, 575.5159
645.0680, 577.3648
645.5501, 578.7618
646.0322, 579.2608
646.5143, 579.3212
646.9965, 578.9124
647.4786, 577.9688
647.9607, 577.8869
648.4428, 579.2308
648.9249, 580.2881
649.4070, 579.4306
649.8892, 576.7371
650.3713, 575.9193
650.8534, 577.3732
651.3355, 579.1719
651.8176, 579.0554
652.2997, 577.7668
652.7819, 577.0261
653.2640, 577.5014
653.7461, 577.8121
654.2282, 576.3035
654.7103, 574.1194
655.1924, 572.9661
655.6746, 574.4413
656.1567, 575.7875
656.6388, 576.2486
657.1209, 576.0455
657.6030, 575.7541
658.0851, 575.0676
658.5673, 574.8976
659.0494, 575.8043
659.5316, 577.4805
660.0137, 577.9453
660.4958, 577.1171
660.9779, 575.9561
661.4600, 574.7009
661.9421, 573.5906
662.4243, 573.3633
662.9064, 574.0176
663.3885, 574.8557
663.8706, 575.6454
664.3527, 576.1815
664.8348, 576.1185
665.3170, 575.1984
665.7991, 574.5652
666.2812, 574.8291
666.7633, 575.4304
667.2454, 575.8389
667.7275, 575.8425
668.2097, 576.0380
668.6918, 576.7580
669.1739, 577.3831
669.6560, 576.6013
670.1381, 574.1996
670.6202, 572.8151
671.1024, 573.3719
671.5845, 574.8440
672.0666, 575.4069
672.5487, 575.2275
673.0308, 574.9367
673.5129, 574.8875
673.9951, 574.8303
674.4772, 574.2953
674.9593, 573.4832
675.4414, 573.2696
675.9235, 575.3339
676.4056, 576.8552
676.8878, 576.1561
677.3699, 573.0084
677.8520, 570.7758
678.3341, 569.7902
678.8162, 569.2527
679.2983, 568.7155
679.7805, 568.1530
680.2626, 567.9896
680.7447, 568.2463
681.2268, 568.7859
681.7089, 569.7101
682.1910, 570.7980
682.6732, 571.4633
683.1553, 571.6047
683.6374, 571.3777
684.1195, 570.6191
684.6016, 569.6780
685.0837, 568.9732
685.5659, 568.6545
686.0480, 568.5576
686.5301, 568.4876
687.0122, 568.6800
687.4943, 569.6542
687.9764, 572.5607
688.4586, 573.7781
688.9407, 572.0399
689.4228, 568.6907
689.9049, 567.4594
690.3870, 568.3729
690.8691, 569.3441
691.3513, 569.5440
691.8334, 569.2203
692.3155, 568.5647
692.7976, 567.6879
693.2797, 567.1102
693.7618, 567.3828
694.2440, 567.8575
694.7261, 567.8380
695.2082, 567.3535
695.6903, 567.7468
696.1724, 571.0125
696.6545, 573.7011
697.1367, 573.9461
697.6188, 571.2234
698.1009, 569.9009
698.5830, 570.3658
699.0651, 571.3897
699.5472, 572.0165
700.0294, 572.3027
700.5115, 572.8289
700.9936, 573.6783
701.4757, 574.3675
701.9578, 573.9990
702.4399, 573.2617
702.9221, 573.3301
703.4042, 574.7947
703.8863, 576.1478
704.3684, 576.3544
704.8505, 576.1112
705.3326, 576.2413
705.8148, 577.0875
706.2969, 578.0672
706.7790, 579.3084
707.2611, 580.5677
707.7432, 581.3677
708.2253, 581.6741
708.7075, 581.8436
709.1896, 581.9720
709.6718, 582.0285
710.1539, 581.8017
710.6360, 581.4053
711.1181, 581.2852
711.6002, 581.8712
712.0823, 582.6632
712.5645, 583.4804
713.0466, 584.2029
713.5287, 584.3734
714.0108, 582.8969
714.4929, 581.7366
714.9750, 581.8199
715.4572, 583.0381
715.9393, 584.2725
716.4214, 585.5494
716.9035, 586.7991
717.3856, 588.1999
717.8677, 589.6500
718.3499, 589.5126
718.8320, 587.7278
719.3141, 586.2449
719.7962, 586.9177
720.2783, 588.7025
720.7604, 590.0096
721.2426, 590.6769
721.7247, 591.3455
722.2068, 592.6707
722.6889, 593.9561
723.1710, 594.5803
723.6531, 593.9879
724.1353, 594.0626
724.6174, 595.5559
725.0995, 597.0543
725.5816, 597.1387
726.0637, 595.4651
726.5458, 594.6751
727.0280, 594.9943
727.5101, 596.0595
727.9922, 597.8556
728.4743, 600.0273
728.9564, 601.5844
729.4385, 602.2053
729.9207, 602.3013
730.4028, 601.7179
730.8849, 600.9582
731.3670, 600.7328
731.8491, 601.7797
732.3312, 602.7357
732.8134, 603.4044
733.2955, 603.8165
733.7776, 603.8044
734.2597, 602.8488
734.7418, 603.1549
735.2239, 603.1166
735.7061, 606.4509
736.1882, 608.6035
736.6703, 609.6384
737.1524, 606.2073
737.6345, 608.5431
738.1166, 608.5677
738.5988, 608.4977
739.0809, 608.7627
739.5630, 608.7010
740.0451, 610.8448
740.5272, 612.7794
741.0093, 612.8666
741.4915, 611.5910
741.9736, 612.1769
742.4557, 615.8704
742.9378, 618.9728
743.4199, 619.8813
743.9020, 619.0711
744.3842, 619.3713
744.8663, 620.7847
745.3484, 622.3035
745.8305, 623.1439
746.3126, 623.8052
746.7947, 625.2357
747.2769, 627.3392
747.7590, 629.0890
748.2411, 629.7178
748.7232, 630.0113
749.2053, 630.1198
749.6874, 629.9142
750.1696, 631.3183
750.6517, 635.4260
751.1338, 639.6833
751.6159, 642.5146
752.0980, 643.8574
752.5801, 645.8792
753.0623, 648.6418
753.5444, 651.4965
754.0265, 653.9256
754.5086, 656.0719
754.9907, 657.9482
755.4728, 659.5247
755.9550, 661.7875
756.4371, 666.5383
756.9192, 671.4658
757.4013, 674.5033
757.8835, 674.2333
758.3656, 675.2037
758.8477, 678.3358
759.3298, 682.0328
759.8120, 684.9432
760.2941, 686.8517
760.7762, 689.5836
761.2583, 693.3063
761.7404, 697.6888
762.2225, 702.6754
762.7047, 708.0359
763.1868, 713.1146
763.6689, 717.7660
764.1510, 722.2813
764.6331, 726.2811
765.1152, 730.5311
765.5974, 735.8455
766.0795, 743.0465
766.5616, 750.3987
767.0437, 757.9244
767.5258, 765.4362
768.0079, 772.5102
768.4901, 779.0280
768.9722, 785.9186
769.4543, 793.1598
769.9364, 801.0284
770.4185, 810.1381
770.9006, 820.1628
771.3828, 830.2894
771.8649, 840.0268
772.3470, 850.1458
772.8291, 860.9872
773.3112, 872.5667
773.7933, 884.9070
774.2755, 898.9659
774.7576, 912.5215
775.2397, 924.7836
775.7218, 936.8956
776.2039, 950.9637
776.6860, 967.1530
777.1682, 983.8632
777.6503, 1000.624
778.1324, 1018.113
778.6145, 1037.422
779.0966, 1058.323
779.5787, 1080.344
780.0609, 1103.740
780.5430, 1127.820
781.0251, 1151.997
781.5072, 1176.696
781.9893, 1202.323
782.4714, 1227.528
782.9536, 1256.186
783.4357, 1289.783
783.9178, 1326.073
784.3999, 1360.392
784.8820, 1392.608
785.3641, 1426.971
785.8463, 1465.310
786.3284, 1506.114
786.8105, 1545.641
787.2926, 1584.917
787.7747, 1625.875
788.2568, 1670.326
788.7390, 1714.994
789.2211, 1757.806
789.7032, 1799.425
790.1853, 1842.705
790.6674, 1888.859
791.1495, 1934.681
791.6317, 1979.586
792.1138, 2023.906
792.5959, 2067.228
793.0780, 2109.910
793.5601, 2151.696
794.0422, 2193.046
794.5244, 2233.687
795.0065, 2274.536
795.4886, 2315.280
795.9707, 2354.019
796.4528, 2390.294
796.9349, 2424.758
797.4171, 2458.377
797.8992, 2490.571
798.3813, 2518.658
798.8634, 2542.124
799.3455, 2562.853
799.8276, 2581.008
800.3098, 2596.580
800.7919, 2610.507
801.2740, 2622.478
801.7561, 2628.706
802.2382, 2627.494
802.7203, 2620.133
803.2025, 2606.216
803.6846, 2587.220
804.1667, 2566.437
804.6488, 2545.673
805.1309, 2522.629
805.6130, 2496.233
806.0952, 2467.352
806.5773, 2436.536
807.0594, 2403.964
807.5416, 2369.088
808.0237, 2330.837
808.5058, 2291.417
808.9879, 2255.603
809.4700, 2222.724
809.9521, 2190.638
810.4343, 2156.710
810.9164, 2124.945
811.3985, 2099.153
811.8806, 2077.707
812.3627, 2057.196
812.8448, 2036.741
813.3270, 2017.026
813.8091, 1997.928
814.2912, 1980.050
814.7733, 1965.599
815.2554, 1954.926
815.7375, 1943.804
816.2197, 1930.502
816.7018, 1917.195
817.1839, 1907.968
817.6660, 1901.762
818.1481, 1896.369
818.6302, 1892.072
819.1124, 1886.968
819.5945, 1878.666
820.0766, 1869.233
820.5587, 1862.693
821.0408, 1859.712
821.5229, 1858.731
822.0051, 1859.725
822.4872, 1862.422
822.9693, 1866.707
823.4514, 1872.479
823.9335, 1878.269
824.4156, 1883.334
824.8978, 1889.230
825.3799, 1897.257
825.8620, 1907.506
826.3441, 1920.021
826.8262, 1936.656
827.3083, 1953.236
827.7905, 1967.733
828.2726, 1982.297
828.7547, 2000.102
829.2368, 2021.387
829.7189, 2043.828
830.2010, 2067.415
830.6832, 2090.856
831.1653, 2112.231
831.6474, 2132.117
832.1295, 2152.649
832.6116, 2173.831
833.0938, 2196.253
833.5759, 2221.322
834.0580, 2247.582
834.5401, 2273.417
835.0222, 2299.160
835.5043, 2324.088
835.9865, 2348.526
836.4686, 2371.768
836.9507, 2392.197
837.4328, 2409.996
837.9149, 2430.215
838.3970, 2453.917
838.8792, 2477.966
839.3613, 2498.934
839.8434, 2518.499
840.3255, 2539.093
840.8076, 2561.994
841.2897, 2582.702
841.7719, 2599.540
842.2540, 2613.376
842.7361, 2624.867
843.2182, 2633.749
843.7003, 2641.834
844.1824, 2649.841
844.6646, 2654.101
845.1467, 2650.607
845.6288, 2640.852
846.1109, 2628.934
846.5930, 2615.204
847.0751, 2597.441
847.5573, 2575.535
848.0394, 2548.039
848.5215, 2512.925
849.0036, 2468.958
849.4857, 2423.059
849.9678, 2375.375
850.4500, 2325.916
850.9321, 2273.969
851.4142, 2219.503
851.8963, 2164.365
852.3784, 2108.388
852.8605, 2053.086
853.3427, 1999.967
853.8248, 1948.485
854.3069, 1898.479
854.7890, 1849.878
855.2711, 1801.797
855.7532, 1754.258
856.2354, 1708.274
856.7175, 1664.445
857.1996, 1622.813
857.6818, 1581.135
858.1639, 1539.185
858.6460, 1497.654
859.1281, 1456.260
859.6102, 1415.297
860.0923, 1375.059
860.5745, 1335.288
861.0566, 1296.534
861.5387, 1257.922
862.0208, 1221.075
862.5029, 1186.181
862.9850, 1153.499
863.4672, 1123.124
863.9493, 1095.259
864.4314, 1068.511
864.9135, 1041.957
865.3956, 1016.700
865.8777, 995.7239
866.3599, 977.9229
866.8420, 959.8693
867.3241, 939.3337
867.8062, 919.2927
868.2883, 901.1362
868.7704, 885.0389
869.2526, 871.5666
869.7347, 863.4055
870.2168, 854.1895
870.6989, 843.0865
871.1810, 831.7321
871.6631, 821.8918
872.1453, 813.6230
872.6274, 807.4557
873.1095, 803.7631
873.5916, 800.5960
874.0737, 796.2296
874.5558, 791.1668
875.0380, 785.8456
875.5201, 780.1251
876.0022, 774.9933
876.4843, 770.2393
876.9664, 766.6299
877.4485, 765.2112
877.9307, 766.5927
878.4128, 765.3887
878.8949, 761.3069
879.3770, 756.9887
879.8591, 754.2341
880.3412, 752.8610
880.8234, 753.3588
881.3055, 755.6043
881.7876, 756.4487
882.2697, 753.4912
882.7518, 749.6395
883.2339, 746.3251
883.7161, 743.5351
884.1982, 740.6254
884.6803, 737.6480
885.1624, 734.3173
885.6445, 730.4479
886.1266, 726.1600
886.6088, 721.6682
887.0909, 716.9242
887.5730, 711.8391
888.0551, 705.4605
888.5372, 699.5956
889.0193, 695.8390
889.5015, 693.3756
889.9836, 689.4579
890.4657, 683.5424
890.9478, 677.3778
891.4299, 671.3418
891.9120, 665.1875
892.3942, 657.6331
892.8763, 649.2323
893.3584, 642.7704
893.8405, 639.6015
894.3226, 637.0150
894.8047, 633.5292
895.2869, 629.2900
895.7690, 624.4501
896.2511, 618.2502
896.7332, 612.7552
897.2153, 608.2092
897.6974, 604.1459
898.1796, 600.2510
898.6617, 596.4850
899.1438, 592.7341
899.6259, 588.9426
900.1080, 585.4562
900.5901, 583.0261
901.0723, 580.7358
901.5544, 577.6119
902.0365, 573.4398
902.5186, 569.4376
903.0007, 565.6627
903.4828, 562.2170
903.9650, 559.0428
904.4471, 556.1896
904.9292, 554.3680
905.4113, 553.5000
905.8935, 552.3664
906.3756, 549.6237
906.8577, 546.6859
907.3398, 545.2630
907.8220, 544.9548
908.3041, 544.1406
908.7862, 541.7623
909.2683, 539.5682
909.7504, 537.9127
910.2325, 536.6674
910.7147, 535.4734
911.1968, 534.3254
911.6789, 533.6600
912.1610, 533.7839
912.6431, 534.0133
913.1252, 533.7619
913.6074, 533.0389
914.0895, 531.8103
914.5716, 529.3604
915.0537, 527.6353
915.5358, 527.4485
916.0179, 527.5554
916.5001, 526.6004
916.9822, 524.4859
917.4643, 523.4824
917.9464, 523.8348
918.4285, 524.2477
918.9106, 523.4339
919.3928, 522.0303
919.8749, 520.7668
920.3570, 519.7316
920.8391, 518.6971
921.3212, 517.1855
921.8033, 516.1443
922.2855, 516.2480
922.7676, 517.3058
923.2497, 516.9721
923.7318, 515.2062
924.2139, 513.9225
924.6960, 514.5531
925.1782, 515.8740
925.6603, 516.3766
926.1424, 516.2621
926.6245, 516.0599
927.1066, 516.3353
927.5887, 516.0029
928.0709, 514.4484
928.5530, 512.4267
929.0351, 511.3785
929.5172, 511.3308
929.9993, 511.3499
930.4814, 511.2939
930.9636, 511.1272
931.4457, 510.6517
931.9278, 510.1107
932.4099, 509.8425
932.8920, 509.9652
933.3741, 510.2489
933.8563, 511.1821
934.3384, 511.7417
934.8205, 511.1086
935.3026, 509.2074
935.7847, 507.8279
936.2668, 506.9816
936.7490, 506.1397
937.2311, 504.7430
937.7132, 503.2327
938.1953, 502.1920
938.6774, 501.5587
939.1595, 500.9391
939.6417, 500.7203
940.1238, 499.8427
940.6059, 497.8534
941.0880, 495.1204
941.5701, 492.6486
942.0522, 490.4354
942.5344, 488.2435
943.0165, 485.8321
943.4986, 483.6875
943.9807, 482.6176
944.4628, 482.0603
944.9449, 481.1751
945.4271, 479.3685
945.9092, 477.9193
946.3913, 477.4528
946.8734, 476.7164
947.3555, 474.1169
947.8376, 469.8390
948.3198, 466.7592
948.8019, 465.0614
949.2840, 464.1996
949.7661, 464.7668
950.2482, 465.2240
950.7303, 463.8074
951.2125, 460.4419
951.6946, 457.8745
952.1767, 456.6402
952.6588, 455.8696
953.1409, 455.5519
953.6230, 455.3363
954.1052, 453.8254
954.5873, 451.2115
955.0695, 448.6660
955.5516, 446.4102
956.0337, 444.7729
956.5158, 444.6461
956.9979, 445.1264
957.4800, 444.6927
957.9622, 442.4336
958.4443, 440.7249
958.9264, 439.8888
959.4085, 439.1890
959.8906, 437.5970
960.3727, 435.4150
960.8549, 433.8935
961.3370, 433.1559
961.8191, 432.3901
962.3012, 431.2609
962.7833, 429.7331
963.2654, 427.4824
963.7476, 424.5032
964.2297, 422.7202
964.7118, 422.5960
965.1939, 422.1729
965.6760, 420.3087
966.1581, 417.8894
966.6403, 417.0245
967.1224, 417.2453
967.6045, 417.1296
968.0866, 415.7476
968.5687, 414.2818
969.0508, 413.3125
969.5330, 412.4254
970.0151, 410.8492
970.4972, 408.2180
970.9793, 406.9870
971.4614, 407.6394
971.9435, 408.4870
972.4257, 407.3832
972.9078, 405.4446
973.3899, 404.3836
973.8720, 404.4370
974.3541, 404.5573
974.8362, 404.6259
975.3184, 404.3885
975.8005, 403.6568
976.2826, 402.5109
976.7647, 401.5896
977.2468, 400.8936
977.7289, 400.1845
978.2111, 399.2031
978.6932, 398.3627
979.1753, 398.6375
979.6574, 399.2885
980.1395, 398.9099
980.6216, 395.8131
981.1038, 393.6083
981.5859, 392.8626
982.0680, 392.6265
982.5501, 391.6987
983.0322, 390.2380
983.5143, 389.5240
983.9965, 389.6935
984.4786, 389.7126
984.9607, 388.1996
985.4428, 386.7006
985.9249, 386.7203
986.4070, 388.3833
986.8892, 388.8816
987.3713, 387.8374
987.8534, 386.6108
988.3355, 385.7707
988.8176, 385.0114
989.2997, 383.3453
989.7819, 381.1600
990.2640, 379.6179
990.7461, 379.5827
991.2282, 379.6866
991.7103, 379.6084
992.1924, 379.2367
992.6746, 378.4410
993.1567, 377.1489
993.6388, 375.8126
994.1209, 374.4491
994.6030, 373.0470
995.0851, 371.3184
995.5673, 369.7023
996.0494, 368.8882
996.5315, 368.8691
997.0136, 368.9667
997.4957, 369.4156
997.9778, 369.3676
998.4600, 368.3503
998.9421, 366.7871
999.4242, 365.9282
999.9063, 365.7461
1000.388, 365.9871
1000.871, 366.7178
1001.353, 367.4888
1001.835, 367.9873
1002.317, 368.2538
1002.799, 368.3224
1003.281, 368.0920
1003.763, 367.8867
1004.245, 367.6384
1004.728, 367.5809
1005.210, 368.1381
1005.692, 369.0038
1006.174, 369.0072
1006.656, 368.2961
1007.138, 367.9933
1007.620, 369.2209
1008.102, 370.4447
1008.584, 370.7446
1009.067, 370.5707
1009.549, 370.9333
1010.031, 371.8561
1010.513, 373.2221
1010.995, 375.1176
1011.477, 377.0136
1011.959, 378.3056
1012.441, 379.1414
1012.924, 379.5939
1013.406, 379.4841
1013.888, 379.9059
1014.370, 381.1661
1014.852, 382.7936
1015.334, 384.8638
1015.816, 387.1320
1016.298, 387.7096
1016.780, 386.8726
1017.263, 386.6999
1017.745, 388.9272
1018.227, 391.5648
1018.709, 393.3862
1019.191, 394.7062
1019.673, 396.2429
1020.155, 398.4677
1020.637, 399.5210
1021.120, 399.0212
1021.602, 398.1653
1022.084, 398.4118
1022.566, 399.1921
1023.048, 399.2326
1023.530, 398.4250
1024.012, 398.2904
1024.494, 400.8092
1024.976, 402.5724
1025.458, 401.7758
1025.941, 399.2695
1026.423, 398.7905
1026.905, 400.2180
1027.387, 401.3851
1027.869, 401.3694
1028.351, 401.1498
1028.833, 402.0714
1029.316, 403.1261
1029.798, 402.9816
1030.280, 400.9088
1030.762, 398.6711
1031.244, 395.9684
1031.726, 393.8912
1032.208, 393.7729
1032.690, 394.7810
1033.172, 394.5344
1033.655, 393.2209
1034.137, 392.0443
1034.619, 392.4366
1035.101, 392.1154
1035.583, 389.6705
1036.065, 386.2596
1036.547, 383.9604
1037.029, 382.8232
1037.511, 381.9415
1037.994, 381.2421
1038.476, 380.3834
1038.958, 378.6886
1039.440, 376.8948
1039.922, 375.9326
1040.404, 376.0359
1040.886, 375.6611
1041.368, 374.5053
1041.851, 373.3571
1042.333, 372.4761
1042.815, 371.8755
1043.297, 371.6504
1043.779, 371.7319
1044.261, 371.9476
1044.743, 372.4846
1045.225, 372.7368
1045.708, 371.9769
1046.190, 371.1613
1046.672, 371.2354
1047.154, 372.2812
1047.636, 373.1332
1048.118, 373.7301
1048.600, 375.0039
1049.082, 378.5445
1049.564, 382.4293
1050.047, 384.0937
1050.529, 384.2293
1051.011, 386.5196
1051.493, 393.3302
1051.975, 397.8767
1052.457, 398.7544
1052.939, 397.3063
1053.421, 395.6149
1053.903, 393.2460
1054.386, 388.4865
1054.868, 380.6293
1055.350, 373.9940
1055.832, 371.7877
1056.314, 370.1672
1056.796, 367.0732
1057.278, 362.6810
1057.760, 358.4298
1058.243, 354.3068
1058.725, 350.3805
1059.207, 346.5475
1059.689, 343.1250
1060.171, 340.1905
1060.653, 337.8772
1061.135, 336.4317
1061.617, 336.0811
1062.099, 336.2723
1062.582, 337.3463
1063.064, 337.8733
1063.546, 335.9442
1064.028, 332.9514
1064.510, 332.1422
1064.992, 333.0866
1065.474, 333.0768
1065.956, 330.1799
1066.438, 327.2119
1066.921, 324.6089
1067.403, 322.5744
1067.885, 321.4904
1068.367, 321.3006
1068.849, 321.8443
1069.331, 323.2431
1069.813, 323.7513
1070.295, 321.2650
1070.778, 318.0310
1071.260, 315.6829
1071.742, 314.2444
1072.224, 313.3299
1072.706, 313.0565
1073.188, 312.5479
1073.670, 311.2772
1074.152, 310.0031
1074.635, 310.1373
1075.117, 310.8542
1075.599, 310.8094
1076.081, 309.3798
1076.563, 307.7462
1077.045, 305.6197
1077.527, 304.0268
1078.009, 304.0294
1078.491, 305.1371
1078.974, 305.5467
1079.456, 305.2915
1079.938, 304.5761
1080.420, 303.0856
1080.902, 301.6283
1081.384, 300.3581
1081.866, 299.4023
1082.348, 299.0552
1082.831, 299.3517
1083.313, 299.4555
1083.795, 299.2992
1084.277, 298.9554
1084.759, 298.5609
1085.241, 297.9456
1085.723, 296.7526
1086.205, 295.1021
1086.688, 294.0236
1087.170, 293.6442
1087.652, 293.5192
1088.134, 293.6286
1088.616, 293.7369
1089.098, 293.6549
1089.580, 293.2776
1090.062, 292.1617
1090.544, 289.8897
1091.026, 288.8934
1091.509, 290.8619
1091.991, 292.2849
1092.473, 291.2871
1092.955, 288.6817
1093.437, 287.2349
1093.919, 286.8046
1094.401, 286.8432
1094.883, 287.3469
1095.366, 287.9004
1095.848, 288.6207
1096.330, 289.0700
1096.812, 288.7274
1097.294, 287.4622
1097.776, 286.8082
1098.258, 286.7750
1098.740, 286.7481
1099.223, 286.6253
1099.705, 286.0445
1100.187, 284.1048
1100.669, 281.5380
1101.151, 280.3681
1101.633, 281.2920
1102.115, 281.6588
1102.597, 281.1454
1103.079, 280.3593
1103.562, 279.8695
1104.044, 279.5729
1104.526, 279.3146
1105.008, 279.0928
1105.490, 279.0653
1105.972, 279.4906
1106.454, 279.7737
1106.936, 279.7820
1107.418, 279.5736
1107.901, 279.3029
1108.383, 278.9033
1108.865, 278.1844
1109.347, 277.0977
1109.829, 275.7578
1110.311, 272.9980
1110.793, 271.3438
1111.275, 272.6878
1111.758, 276.1955
1112.240, 276.6177
1112.722, 274.2995
1113.204, 272.5479
1113.686, 272.9146
1114.168, 273.6068
1114.650, 273.4586
1115.132, 272.9325
1115.615, 272.4778
1116.097, 272.0696
1116.579, 272.2469
1117.061, 273.1030
1117.543, 273.3134
1118.025, 271.1504
1118.507, 268.6305
1118.989, 267.9755
1119.471, 268.5712
1119.953, 269.1082
1120.436, 269.5529
1120.918, 269.4352
1121.400, 268.5017
1121.882, 267.7731
1122.364, 268.9091
1122.846, 270.5661
1123.328, 270.0042
1123.810, 267.5583
1124.293, 265.9683
1124.775, 267.1571
1125.257, 267.7311
1125.739, 266.8975
1126.221, 265.5779
1126.703, 265.1353
1127.185, 265.3696
1127.667, 265.8954
1128.150, 266.6786
1128.632, 266.8348
1129.114, 264.7532
1129.596, 263.3668
1130.078, 264.3602
1130.560, 266.6349
1131.042, 266.4606
1131.524, 264.2633
1132.006, 262.8427
1132.489, 263.0153
1132.971, 263.6476
1133.453, 264.5478
1133.935, 265.1063
1134.417, 264.7526
1134.899, 263.5376
1135.381, 262.4152
1135.863, 261.3724
1136.346, 260.7978
1136.828, 261.0414
1137.310, 261.4877
1137.792, 261.8298
1138.274, 261.9145
1138.756, 261.4359
1139.238, 260.2003
1139.720, 259.3177
1140.203, 258.7735
1140.685, 258.6536
1141.167, 259.4816
1141.649, 260.3821
1142.131, 260.1647
1142.613, 259.1970
1143.095, 258.2324
1143.577, 257.2213
1144.059, 256.7065
1144.542, 256.8930
1145.024, 257.0142
1145.506, 255.7082
1145.988, 254.2079
1146.470, 255.3535
1146.952, 258.4618
1147.434, 260.2459
1147.916, 258.3188
1148.398, 256.9221
1148.881, 256.7715
1149.363, 256.9897
1149.845, 256.4543
1150.327, 255.4094
1150.809, 254.2430
1151.291, 253.0493
1151.773, 252.4947
1152.255, 253.8425
1152.738, 254.6204
1153.220, 253.8988
1153.702, 252.4508
1154.184, 251.6433
1154.666, 251.4154
1155.148, 251.7116
1155.630, 252.5907
1156.112, 253.0260
1156.594, 251.8593
1157.077, 250.7501
1157.559, 250.6658
1158.041, 251.2138
1158.523, 250.9158
1159.005, 249.8813
1159.487, 248.9194
1159.969, 248.1918
1160.451, 247.8074
1160.933, 248.0358
1161.416, 248.4980
1161.898, 249.0888
1162.380, 249.7241
1162.862, 249.2708
1163.344, 247.7825
1163.826, 246.6266
1164.308, 246.5871
1164.790, 246.5675
1165.273, 245.2088
1165.755, 243.7484
1166.237, 243.5795
1166.719, 244.8396
1167.201, 246.1598
1167.683, 247.5778
1168.165, 248.3996
1168.647, 247.9521
1169.130, 247.1435
1169.612, 246.7915
1170.094, 246.6436
1170.576, 246.2518
1171.058, 245.3140
1171.540, 245.3858
1172.022, 246.6828
1172.504, 247.3646
1172.986, 245.0677
1173.469, 242.3708
1173.951, 242.6257
1174.433, 244.6425
1174.915, 245.4476
1175.397, 244.1528
1175.879, 243.5389
1176.361, 243.8968
1176.843, 244.1664
1177.326, 243.0049
1177.808, 241.5028
1178.290, 241.3791
1178.772, 242.1972
1179.254, 241.9216
1179.736, 239.2012
1180.218, 238.2782
1180.700, 240.0384
1181.182, 242.1270
1181.665, 241.7965
1182.147, 240.2926
1182.629, 239.2868
1183.111, 238.8690
1183.593, 238.8304
1184.075, 239.4440
1184.557, 239.7426
1185.039, 239.5073
1185.521, 239.0624
1186.004, 238.7089
1186.486, 238.5105
1186.968, 238.6266
1187.450, 239.0582
1187.932, 239.5334
1188.414, 240.4420
1188.896, 240.4443
1189.378, 238.9294
1189.861, 236.9391
1190.343, 235.9581
1190.825, 235.8078
1191.307, 236.4527
1191.789, 237.9704
1192.271, 238.7629
1192.753, 238.2354
1193.235, 237.4307
1193.718, 236.5592
1194.200, 235.7778
1194.682, 235.5458
1195.164, 235.5906
1195.646, 235.1749
1196.128, 233.9256
1196.610, 233.7285
1197.092, 235.8970
1197.574, 237.5460
1198.057, 237.3704
1198.539, 236.1962
1199.021, 235.8796
1199.503, 236.0301
1199.985, 235.6819
1200.467, 234.3298
1200.949, 233.4619
1201.431, 233.5957
1201.913, 233.7969
1202.396, 233.5410
1202.878, 233.1125
1203.360, 233.4570
1203.842, 234.2107
1204.324, 234.3744
1204.806, 233.3026
1205.288, 232.5819
1205.770, 232.5583
1206.253, 232.8093
1206.735, 233.2498
1207.217, 233.7024
1207.699, 233.8180
1208.181, 233.5174
1208.663, 232.4980
1209.145, 229.6129
1209.627, 228.2179
1210.109, 229.4259
1210.592, 230.9252
1211.074, 231.1086
1211.556, 230.4057
1212.038, 229.7874
1212.520, 229.4045
1213.002, 229.7349
1213.484, 232.1337
1213.966, 233.2717
1214.448, 232.4328
1214.931, 231.0411
1215.413, 229.9968
1215.895, 229.3244
1216.377, 229.2774
1216.859, 229.6455
1217.341, 229.7589
1217.823, 229.2937
1218.305, 228.5613
1218.788, 227.2440
1219.270, 226.3675
1219.752, 227.4573
1220.234, 229.4182
1220.716, 229.0042
1221.198, 226.9272
1221.680, 225.7876
1222.162, 227.7043
1222.645, 228.8111
1223.127, 228.6129
1223.609, 227.9131
1224.091, 227.3370
1224.573, 226.8798
1225.055, 226.6327
1225.537, 226.5124
1226.019, 226.1985
1226.501, 225.3297
1226.984, 224.6476
1227.466, 224.1999
1227.948, 223.9726
1228.430, 224.0921
1228.912, 224.3496
1229.394, 224.2442
1229.876, 223.8964
1230.358, 223.9123
1230.841, 224.8203
1231.323, 225.3884
1231.805, 225.5241
1232.287, 225.2313
1232.769, 224.1257
1233.251, 222.8126
1233.733, 222.3518
1234.215, 222.6109
1234.698, 222.8044
1235.180, 222.8758
1235.662, 222.6423
1236.144, 221.9668
1236.626, 221.4475
1237.108, 222.1238
1237.590, 223.0493
1238.072, 222.8963
1238.554, 221.8344
1239.036, 221.1358
1239.519, 221.1819
1240.001, 220.5806
1240.483, 219.0084
1240.965, 217.4934
1241.447, 216.9546
1241.929, 217.1052
1242.411, 217.9763
1242.893, 219.3274
1243.376, 220.0669
1243.858, 220.0521
1244.340, 219.9765
1244.822, 219.9380
1245.304, 219.8279
1245.786, 219.5846
1246.268, 219.1887
1246.750, 218.5721
1247.233, 217.7746
1247.715, 216.9167
1248.197, 215.9300
1248.679, 215.5773
1249.161, 216.0027
1249.643, 216.6218
1250.125, 217.1990
1250.607, 217.5233
1251.089, 217.1775
1251.572, 216.4897
1252.054, 216.4441
1252.536, 217.0385
1253.018, 217.3257
1253.500, 217.1689
1253.982, 216.8124
1254.464, 216.4284
1254.946, 215.8982
1255.428, 214.9566
1255.911, 213.9252
1256.393, 213.5574
1256.875, 213.7789
1257.357, 213.8466
1257.839, 213.6585
1258.321, 213.4685
1258.803, 213.4248
1259.285, 213.4535
1259.768, 213.6865
1260.250, 213.8255
1260.732, 212.9839
1261.214, 211.5239
1261.696, 211.0899
1262.178, 211.8745
1262.660, 212.4937
1263.142, 211.8941
1263.625, 211.6351
1264.107, 212.4299
1264.589, 213.3776
1265.071, 212.6866
1265.553, 211.0661
1266.035, 210.2981
1266.517, 210.5415
1266.999, 210.9715
1267.481, 211.6764
1267.964, 211.9243
1268.446, 211.4457
1268.928, 210.7218
1269.410, 210.4271
1269.892, 210.3621
1270.374, 210.2843
1270.856, 210.1533
1271.338, 209.7147
1271.820, 208.7863
1272.303, 207.9445
1272.785, 207.1668
1273.267, 206.9907
1273.749, 208.9157
1274.231, 211.1788
1274.713, 211.6332
1275.195, 210.3329
1275.677, 208.9205
1276.160, 207.2294
1276.642, 206.6988
1277.124, 207.6907
1277.606, 208.9689
1278.088, 209.8759
1278.570, 210.1230
1279.052, 209.0199
1279.534, 207.1014
1280.016, 205.8961
1280.499, 205.4152
1280.981, 205.7374
1281.463, 206.9222
1281.945, 207.6839
1282.427, 206.5531
1282.909, 205.3121
1283.391, 205.1051
1283.873, 205.3746
1284.356, 204.7088
1284.838, 203.4712
1285.320, 204.3602
1285.802, 207.5550
1286.284, 210.3437
1286.766, 211.5479
1287.248, 211.5711
1287.730, 210.3028
1288.213, 208.4803
1288.695, 206.7319
1289.177, 205.3553
1289.659, 205.6555
1290.141, 207.4356
1290.623, 208.1421
1291.105, 206.0200
1291.587, 204.0701
1292.069, 202.5623
1292.552, 201.7010
1293.034, 201.9856
1293.516, 202.9069
1293.998, 204.1725
1294.480, 205.4779
1294.962, 205.2204
1295.444, 202.4785
1295.926, 201.2948
1296.408, 202.3092
1296.891, 203.5708
1297.373, 202.9802
1297.855, 202.0573
1298.337, 202.5949
1298.819, 203.9107
1299.301, 203.8609
1299.783, 202.2858
1300.265, 201.0808
1300.748, 200.3898
1301.230, 200.0419
1301.712, 200.1112
1302.194, 200.2837
1302.676, 200.4735
##END=



