##NAMES=Ulexite
##RRUFFID=R050062
##IDEAL CHEMISTRY=NaCaB_5_O_6_(OH)_6_&#183;5H_2_O
##LOCALITY=California, USA
##OWNER=RRUFF
##SOURCE=Rock Currier
##DESCRIPTION=Compact parallel fibrous group
##STATUS=The identification of this mineral has been confirmed by X-ray diffraction and chemical analysis
##URL=rruff.info/R050062
##MEASURED CHEMISTRY=(Na_0.60_Ca_0.20_[box]_20_)_Σ=1_Ca_1.00_B_5.00_O_6_(OH)_6_·5H_2_O ; B not measured but assumed by stoichiometry and charge balance.
163.1611, 28769.95
163.6432, 29103.88
164.1253, 29442.62
164.6075, 29771.09
165.0896, 30088.95
165.5717, 30389.34
166.0538, 30677.99
166.5359, 30945.09
167.0180, 31177.76
167.5002, 31361.53
167.9823, 31516.86
168.4644, 31659.85
168.9465, 31792.76
169.4286, 31905.75
169.9107, 31998.61
170.3929, 32066.10
170.8750, 32099.47
171.3571, 32072.96
171.8392, 32018.75
172.3213, 31969.74
172.8034, 31930.83
173.2856, 31896.20
173.7677, 31852.44
174.2498, 31805.93
174.7319, 31779.04
175.2140, 31797.14
175.6961, 31840.50
176.1783, 31875.79
176.6604, 31887.58
177.1425, 31905.78
177.6246, 31966.03
178.1067, 32065.59
178.5888, 32191.22
179.0710, 32345.51
179.5531, 32517.09
180.0352, 32676.51
180.5173, 32805.95
180.9994, 32929.46
181.4815, 33084.00
181.9637, 33270.35
182.4458, 33469.44
182.9279, 33685.34
183.4100, 33907.02
183.8921, 34096.04
184.3742, 34233.46
184.8564, 34335.10
185.3385, 34434.87
185.8206, 34534.60
186.3027, 34620.64
186.7848, 34665.27
187.2669, 34675.71
187.7491, 34708.66
188.2312, 34792.07
188.7133, 34913.26
189.1954, 35033.06
189.6775, 35152.98
190.1596, 35261.11
190.6418, 35339.43
191.1239, 35388.18
191.6060, 35432.79
192.0881, 35480.74
192.5702, 35532.31
193.0524, 35597.41
193.5345, 35684.27
194.0166, 35763.03
194.4987, 35788.91
194.9808, 35760.96
195.4629, 35693.90
195.9451, 35585.50
196.4272, 35435.23
196.9093, 35291.24
197.3914, 35164.94
197.8735, 35029.32
198.3556, 34814.40
198.8378, 34505.91
199.3199, 34213.61
199.8020, 34006.39
200.2841, 33891.92
200.7662, 33773.09
201.2483, 33639.32
201.7305, 33502.88
202.2126, 33395.64
202.6947, 33321.84
203.1768, 33261.38
203.6589, 33194.13
204.1410, 33113.52
204.6232, 33079.96
205.1053, 33108.66
205.5874, 33183.55
206.0695, 33251.26
206.5516, 33307.77
207.0337, 33367.59
207.5159, 33442.23
207.9980, 33532.86
208.4801, 33623.82
208.9622, 33705.01
209.4443, 33785.17
209.9264, 33915.13
210.4086, 34115.42
210.8907, 34325.00
211.3728, 34494.28
211.8549, 34616.07
212.3370, 34728.81
212.8191, 34847.85
213.3013, 34966.07
213.7834, 35026.15
214.2655, 35008.86
214.7476, 34964.20
215.2297, 34945.55
215.7118, 34985.42
216.1940, 34956.66
216.6761, 34816.75
217.1582, 34571.72
217.6403, 34369.66
218.1224, 34230.02
218.6045, 34110.41
219.0867, 33965.39
219.5688, 33773.32
220.0509, 33608.96
220.5330, 33488.61
221.0151, 33410.76
221.4972, 33375.50
221.9794, 33402.16
222.4615, 33449.44
222.9436, 33469.71
223.4257, 33439.60
223.9078, 33430.97
224.3899, 33461.66
224.8721, 33534.26
225.3542, 33618.50
225.8363, 33721.37
226.3184, 33829.91
226.8005, 33932.14
227.2827, 34031.12
227.7648, 34116.58
228.2469, 34186.75
228.7290, 34241.79
229.2111, 34279.77
229.6932, 34303.34
230.1754, 34307.31
230.6575, 34282.98
231.1396, 34220.77
231.6217, 34147.20
232.1038, 34069.50
232.5859, 33988.96
233.0681, 33895.76
233.5502, 33780.29
234.0323, 33659.48
234.5144, 33555.84
234.9965, 33472.24
235.4786, 33403.04
235.9608, 33354.21
236.4429, 33338.70
236.9250, 33283.64
237.4071, 33165.98
237.8892, 33023.41
238.3713, 32914.18
238.8535, 32842.89
239.3356, 32797.73
239.8177, 32780.57
240.2998, 32802.03
240.7819, 32810.10
241.2640, 32799.87
241.7462, 32779.21
242.2283, 32760.50
242.7104, 32740.40
243.1925, 32727.22
243.6746, 32715.93
244.1567, 32688.52
244.6389, 32733.38
245.1210, 32895.08
245.6031, 33102.20
246.0852, 33220.60
246.5673, 33196.43
247.0494, 33175.24
247.5316, 33209.82
248.0137, 33317.02
248.4958, 33425.31
248.9779, 33539.86
249.4600, 33652.04
249.9421, 33739.98
250.4243, 33787.70
250.9064, 33840.80
251.3885, 33915.41
251.8706, 34014.78
252.3527, 34126.96
252.8348, 34253.25
253.3170, 34391.12
253.7991, 34539.02
254.2812, 34707.41
254.7633, 34862.70
255.2454, 34989.85
255.7275, 35079.21
256.2097, 35172.17
256.6918, 35269.92
257.1739, 35369.39
257.6560, 35469.57
258.1381, 35581.15
258.6202, 35671.50
259.1024, 35723.68
259.5845, 35724.94
260.0666, 35740.61
260.5487, 35780.00
261.0308, 35826.68
261.5129, 35854.52
261.9951, 35866.02
262.4772, 35851.73
262.9593, 35799.49
263.4414, 35695.26
263.9235, 35620.25
264.4056, 35584.12
264.8878, 35567.38
265.3699, 35535.26
265.8520, 35484.30
266.3341, 35427.08
266.8162, 35368.23
267.2983, 35309.29
267.7805, 35238.39
268.2626, 35145.58
268.7447, 35052.61
269.2268, 35002.97
269.7089, 35009.04
270.1910, 35014.06
270.6732, 34993.75
271.1553, 34944.83
271.6374, 34898.29
272.1195, 34844.91
272.6016, 34807.42
273.0837, 34833.51
273.5659, 34935.50
274.0480, 35037.96
274.5301, 35110.63
275.0122, 35151.89
275.4943, 35201.14
275.9764, 35261.25
276.4586, 35323.93
276.9407, 35374.36
277.4228, 35409.89
277.9049, 35450.21
278.3870, 35496.77
278.8691, 35550.52
279.3513, 35639.34
279.8334, 35770.61
280.3155, 35917.87
280.7976, 36048.67
281.2798, 36161.62
281.7619, 36264.36
282.2440, 36347.52
282.7261, 36417.70
283.2082, 36531.57
283.6903, 36696.29
284.1725, 36878.37
284.6546, 37032.60
285.1367, 37159.23
285.6188, 37300.15
286.1009, 37481.79
286.5830, 37690.68
287.0652, 37863.60
287.5473, 37994.13
288.0294, 38117.64
288.5115, 38273.59
288.9936, 38459.48
289.4757, 38648.29
289.9579, 38839.69
290.4400, 39026.25
290.9221, 39187.59
291.4042, 39322.04
291.8863, 39451.88
292.3684, 39589.91
292.8506, 39739.29
293.3327, 39917.90
293.8148, 40157.64
294.2969, 40416.08
294.7790, 40611.73
295.2611, 40745.16
295.7433, 40852.65
296.2254, 40957.09
296.7075, 41061.87
297.1896, 41174.25
297.6717, 41311.89
298.1538, 41447.72
298.6360, 41546.12
299.1181, 41607.64
299.6002, 41628.43
300.0823, 41593.20
300.5644, 41516.82
301.0465, 41427.11
301.5287, 41331.78
302.0108, 41225.67
302.4929, 41102.11
302.9750, 40961.79
303.4571, 40815.63
303.9392, 40676.45
304.4214, 40533.30
304.9035, 40359.41
305.3856, 40119.96
305.8677, 39900.83
306.3498, 39799.84
306.8319, 39791.75
307.3141, 39785.69
307.7962, 39715.64
308.2783, 39628.01
308.7604, 39566.70
309.2425, 39543.78
309.7246, 39544.21
310.2068, 39577.28
310.6889, 39628.66
311.1710, 39661.59
311.6531, 39626.95
312.1352, 39586.28
312.6173, 39588.53
313.0995, 39652.89
313.5816, 39726.83
314.0637, 39790.07
314.5458, 39845.88
315.0279, 39900.95
315.5100, 39972.73
315.9922, 40033.27
316.4743, 40058.49
316.9564, 40032.00
317.4385, 39861.52
317.9206, 40016.73
318.4027, 40109.58
318.8849, 40143.44
319.3670, 39941.59
319.8491, 40044.10
320.3312, 40024.64
320.8133, 40000.18
321.2954, 40145.53
321.7776, 39977.96
322.2597, 40120.62
322.7418, 40139.44
323.2239, 40214.93
323.7060, 40167.70
324.1881, 40158.38
324.6703, 40265.54
325.1524, 40325.86
325.6345, 40402.21
326.1166, 40472.84
326.5987, 40520.55
327.0808, 40504.52
327.5630, 40513.84
328.0451, 40575.68
328.5272, 40686.08
329.0093, 40759.32
329.4914, 40784.22
329.9735, 40780.80
330.4557, 40755.74
330.9378, 40664.83
331.4199, 40629.76
331.9020, 40666.39
332.3841, 40766.93
332.8662, 40907.17
333.3484, 41142.34
333.8305, 41331.29
334.3126, 41378.46
334.7947, 41216.86
335.2768, 41121.25
335.7589, 41121.61
336.2411, 41186.44
336.7232, 41237.72
337.2053, 41270.14
337.6874, 41303.41
338.1695, 41346.18
338.6516, 41398.20
339.1338, 41460.27
339.6159, 41534.94
340.0980, 41614.77
340.5801, 41686.43
341.0622, 41750.53
341.5443, 41808.65
342.0265, 41871.08
342.5086, 41933.30
342.9907, 41953.00
343.4728, 41924.95
343.9549, 41874.13
344.4370, 41819.92
344.9192, 41764.77
345.4013, 41731.64
345.8834, 41739.59
346.3655, 41772.82
346.8476, 41793.88
347.3297, 41802.89
347.8119, 41796.28
348.2940, 41765.68
348.7761, 41715.78
349.2582, 41660.32
349.7403, 41595.35
350.2225, 41533.25
350.7046, 41490.22
351.1867, 41465.38
351.6688, 41454.91
352.1509, 41457.59
352.6331, 41472.38
353.1152, 41499.34
353.5973, 41543.37
354.0794, 41590.42
354.5615, 41626.51
355.0436, 41655.00
355.5258, 41686.14
356.0079, 41715.66
356.4900, 41755.76
356.9721, 41819.43
357.4542, 41913.23
357.9363, 42015.20
358.4185, 42110.79
358.9006, 42206.45
359.3827, 42313.32
359.8648, 42453.25
360.3469, 42591.64
360.8290, 42717.67
361.3112, 42833.91
361.7933, 42912.94
362.2754, 42913.24
362.7575, 42885.03
363.2396, 42882.88
363.7217, 42933.31
364.2039, 42996.79
364.6860, 43071.82
365.1681, 43158.47
365.6502, 43227.13
366.1323, 43275.90
366.6144, 43305.45
367.0966, 43315.66
367.5787, 43251.14
368.0608, 43236.39
368.5429, 43316.89
369.0250, 43465.54
369.5071, 43539.41
369.9893, 43489.80
370.4714, 43422.15
370.9535, 43387.68
371.4356, 43405.48
371.9177, 43414.67
372.3998, 43417.14
372.8820, 43409.20
373.3641, 43378.04
373.8462, 43311.55
374.3283, 43253.96
374.8104, 43234.01
375.2925, 43258.59
375.7747, 43227.66
376.2568, 43121.51
376.7389, 42998.41
377.2210, 42945.63
377.7031, 42968.48
378.1852, 42985.35
378.6674, 42969.45
379.1495, 42927.72
379.6316, 42883.55
380.1137, 42835.77
380.5958, 42799.40
381.0779, 42793.05
381.5601, 42812.25
382.0422, 42836.52
382.5243, 42865.68
383.0064, 42892.51
383.4885, 42896.41
383.9706, 42881.67
384.4528, 42879.42
384.9349, 42926.23
385.4170, 42995.54
385.8991, 43044.60
386.3812, 43066.06
386.8633, 43071.41
387.3455, 43073.68
387.8276, 43068.37
388.3097, 43044.97
388.7918, 42986.47
389.2739, 42915.30
389.7560, 42846.08
390.2382, 42779.36
390.7203, 42721.45
391.2024, 42685.78
391.6845, 42657.57
392.1666, 42619.30
392.6487, 42550.48
393.1309, 42484.54
393.6130, 42442.47
394.0951, 42421.13
394.5772, 42384.56
395.0593, 42304.97
395.5414, 42219.01
396.0236, 42150.31
396.5057, 42106.38
396.9878, 42074.57
397.4699, 42049.27
397.9520, 42035.03
398.4341, 42047.24
398.9163, 42127.79
399.3984, 42191.16
399.8805, 42200.69
400.3626, 42129.04
400.8447, 42083.28
401.3268, 42059.60
401.8090, 42064.75
402.2911, 42118.14
402.7732, 42247.33
403.2553, 42350.04
403.7374, 42388.16
404.2195, 42366.79
404.7017, 42382.85
405.1838, 42446.39
405.6659, 42520.74
406.1480, 42560.71
406.6301, 42565.29
407.1122, 42618.68
407.5944, 42756.17
408.0765, 42930.71
408.5586, 43019.43
409.0407, 43024.26
409.5228, 43020.63
410.0049, 43054.47
410.4871, 43118.04
410.9692, 43190.36
411.4513, 43269.07
411.9334, 43358.66
412.4155, 43480.73
412.8976, 43622.19
413.3798, 43740.77
413.8619, 43785.69
414.3440, 43818.65
414.8261, 43916.42
415.3082, 44080.65
415.7903, 44238.67
416.2725, 44351.46
416.7546, 44429.75
417.2367, 44487.25
417.7188, 44516.63
418.2009, 44536.98
418.6830, 44554.97
419.1652, 44570.41
419.6473, 44581.94
420.1294, 44563.66
420.6115, 44560.15
421.0937, 44603.95
421.5758, 44739.77
422.0579, 44833.55
422.5400, 44825.61
423.0221, 44774.27
423.5042, 44775.44
423.9864, 44875.01
424.4685, 44978.47
424.9506, 45056.38
425.4327, 45101.73
425.9148, 45201.85
426.3969, 45377.00
426.8791, 45583.63
427.3612, 45791.08
427.8433, 46013.13
428.3254, 46185.36
428.8075, 46274.64
429.2896, 46316.63
429.7718, 46432.58
430.2539, 46630.27
430.7360, 46859.26
431.2181, 47101.03
431.7002, 47353.32
432.1823, 47577.84
432.6645, 47766.82
433.1466, 47948.52
433.6287, 48174.94
434.1108, 48432.71
434.5929, 48655.52
435.0750, 48801.59
435.5572, 48899.56
436.0393, 49004.74
436.5214, 49115.47
437.0035, 49196.99
437.4856, 49221.02
437.9677, 49198.68
438.4499, 49145.14
438.9320, 49066.50
439.4141, 48953.78
439.8962, 48785.31
440.3783, 48576.93
440.8604, 48364.43
441.3426, 48169.03
441.8247, 47972.80
442.3068, 47762.41
442.7889, 47531.26
443.2710, 47311.06
443.7531, 47115.15
444.2353, 46933.15
444.7174, 46750.17
445.1995, 46530.89
445.6816, 46349.91
446.1637, 46239.02
446.6458, 46190.57
447.1280, 46111.93
447.6101, 45979.91
448.0922, 45842.79
448.5743, 45726.38
449.0564, 45629.59
449.5385, 45554.14
450.0207, 45501.97
450.5028, 45469.42
450.9849, 45453.22
451.4670, 45456.17
451.9491, 45461.63
452.4312, 45458.31
452.9134, 45450.12
453.3955, 45476.80
453.8776, 45543.86
454.3597, 45605.97
454.8418, 45610.88
455.3239, 45570.42
455.8061, 45532.34
456.2882, 45504.70
456.7703, 45487.79
457.2524, 45469.62
457.7345, 45457.99
458.2166, 45485.36
458.6988, 45619.49
459.1809, 45778.43
459.6630, 45862.38
460.1451, 45852.79
460.6272, 45837.49
461.1093, 45867.00
461.5915, 45924.71
462.0736, 45989.61
462.5557, 46025.55
463.0378, 46096.07
463.5199, 46260.09
464.0020, 46498.40
464.4842, 46674.16
464.9663, 46673.32
465.4484, 46664.30
465.9305, 46739.68
466.4126, 46974.84
466.8947, 47168.52
467.3769, 47292.88
467.8590, 47387.31
468.3411, 47520.69
468.8232, 47715.59
469.3053, 47903.09
469.7874, 48061.61
470.2696, 48193.59
470.7517, 48344.06
471.2338, 48513.87
471.7159, 48698.07
472.1980, 48887.48
472.6801, 49083.37
473.1623, 49305.95
473.6444, 49566.70
474.1265, 49841.42
474.6086, 50109.36
475.0907, 50363.78
475.5728, 50561.25
476.0550, 50625.05
476.5371, 50636.27
477.0192, 50734.69
477.5013, 50926.23
477.9834, 51127.83
478.4655, 51284.31
478.9477, 51410.18
479.4298, 51522.31
479.9119, 51625.71
480.3940, 51718.67
480.8761, 51799.50
481.3582, 51868.72
481.8404, 51926.64
482.3225, 51999.28
482.8046, 52039.15
483.2867, 52020.27
483.7688, 51926.82
484.2509, 51821.95
484.7331, 51698.17
485.2152, 51572.20
485.6973, 51458.18
486.1794, 51370.33
486.6615, 51269.42
487.1436, 51146.45
487.6258, 51005.59
488.1079, 50860.88
488.5900, 50704.34
489.0721, 50568.52
489.5542, 50483.08
490.0363, 50448.23
490.5185, 50386.96
491.0006, 50294.99
491.4827, 50186.04
491.9648, 50068.50
492.4470, 49946.40
492.9291, 49843.86
493.4112, 49769.19
493.8933, 49720.72
494.3754, 49713.76
494.8575, 49740.86
495.3397, 49755.56
495.8218, 49729.77
496.3039, 49674.23
496.7860, 49590.77
497.2681, 49464.76
497.7502, 49365.88
498.2324, 49352.18
498.7145, 49381.28
499.1966, 49395.27
499.6787, 49353.98
500.1608, 49318.41
500.6429, 49310.82
501.1251, 49329.65
501.6072, 49343.78
502.0893, 49333.66
502.5714, 49333.95
503.0535, 49366.03
503.5356, 49460.91
504.0178, 49510.51
504.4999, 49496.44
504.9820, 49453.24
505.4641, 49426.95
505.9462, 49414.97
506.4283, 49437.22
506.9105, 49520.24
507.3926, 49637.11
507.8747, 49661.63
508.3568, 49588.36
508.8389, 49523.96
509.3210, 49560.25
509.8032, 49666.17
510.2853, 49757.67
510.7674, 49823.68
511.2495, 49877.66
511.7316, 49911.84
512.2137, 49945.54
512.6959, 50017.05
513.1780, 50170.57
513.6601, 50344.21
514.1422, 50503.60
514.6243, 50649.02
515.1064, 50786.23
515.5886, 50896.22
516.0707, 51014.13
516.5528, 51162.74
517.0349, 51364.87
517.5170, 51558.47
517.9991, 51721.67
518.4813, 51878.20
518.9634, 52056.81
519.4455, 52260.34
519.9276, 52482.16
520.4097, 52729.91
520.8918, 52994.55
521.3740, 53248.38
521.8561, 53494.75
522.3382, 53719.12
522.8203, 53901.59
523.3024, 54044.04
523.7845, 54204.34
524.2667, 54387.32
524.7488, 54585.96
525.2309, 54818.39
525.7130, 55069.08
526.1951, 55280.36
526.6772, 55439.24
527.1594, 55545.64
527.6415, 55596.09
528.1236, 55592.11
528.6057, 55540.00
529.0878, 55433.82
529.5699, 55286.98
530.0521, 55109.08
530.5342, 54898.14
531.0163, 54664.13
531.4984, 54367.48
531.9805, 54065.32
532.4626, 53816.97
532.9448, 53697.62
533.4269, 53551.65
533.9090, 53347.63
534.3911, 53102.91
534.8732, 52892.19
535.3553, 52718.25
535.8375, 52568.91
536.3196, 52443.93
536.8017, 52342.54
537.2838, 52242.73
537.7659, 52138.15
538.2480, 52053.14
538.7302, 52022.25
539.2123, 52038.48
539.6944, 52060.32
540.1765, 52090.06
540.6586, 52100.79
541.1407, 52020.71
541.6229, 51880.39
542.1050, 51788.20
542.5871, 51851.45
543.0692, 51956.59
543.5513, 51983.92
544.0334, 51928.11
544.5156, 51916.13
544.9977, 52073.75
545.4798, 52261.56
545.9619, 52364.73
546.4440, 52280.73
546.9261, 52232.14
547.4083, 52252.72
547.8904, 52327.58
548.3725, 52434.46
548.8546, 52622.43
549.3367, 52760.92
549.8188, 52799.66
550.3010, 52750.40
550.7831, 52757.47
551.2652, 52836.43
551.7473, 52920.09
552.2294, 52948.97
552.7115, 52931.13
553.1937, 52952.72
553.6758, 53027.63
554.1579, 53112.62
554.6400, 53168.95
555.1221, 53193.49
555.6042, 53172.70
556.0864, 53046.00
556.5685, 52928.32
557.0506, 52960.90
557.5327, 53105.58
558.0148, 53220.19
558.4969, 53192.79
558.9791, 53146.18
559.4612, 53158.01
559.9433, 53247.09
560.4254, 53337.89
560.9075, 53410.42
561.3896, 53482.45
561.8718, 53571.46
562.3539, 53696.34
562.8360, 53804.55
563.3181, 53879.46
563.8002, 53940.36
564.2823, 54041.38
564.7645, 54192.19
565.2466, 54335.31
565.7287, 54438.98
566.2108, 54514.95
566.6929, 54620.86
567.1750, 54756.66
567.6572, 54904.78
568.1393, 55034.30
568.6214, 55166.13
569.1035, 55339.80
569.5856, 55566.61
570.0677, 55820.95
570.5499, 56111.65
571.0320, 56412.34
571.5141, 56683.32
571.9962, 56838.05
572.4783, 57031.92
572.9604, 57348.04
573.4426, 57763.13
573.9247, 58163.42
574.4068, 58488.50
574.8889, 58831.43
575.3710, 59227.58
575.8531, 59679.51
576.3353, 60141.81
576.8174, 60600.84
577.2995, 61083.91
577.7816, 61629.13
578.2637, 62238.91
578.7458, 62855.76
579.2280, 63461.80
579.7101, 64088.96
580.1922, 64796.04
580.6743, 65577.13
581.1564, 66398.73
581.6385, 67285.73
582.1207, 68184.46
582.6028, 68975.77
583.0849, 69673.73
583.5670, 70441.60
584.0491, 71445.41
584.5313, 72511.20
585.0134, 73502.93
585.4955, 74377.87
585.9776, 75242.59
586.4597, 76141.38
586.9418, 77031.93
587.4240, 77856.55
587.9061, 78613.45
588.3882, 79317.63
588.8703, 79980.72
589.3524, 80589.41
589.8345, 81110.33
590.3167, 81548.95
590.7988, 81882.31
591.2809, 82115.34
591.7630, 82235.21
592.2451, 82148.85
592.7272, 81854.11
593.2094, 81404.96
593.6915, 80857.49
594.1736, 80185.27
594.6557, 79311.56
595.1378, 78216.69
595.6199, 77024.84
596.1021, 75773.79
596.5842, 74503.77
597.0663, 73267.15
597.5485, 72105.19
598.0306, 70971.99
598.5127, 69822.33
598.9948, 68683.51
599.4769, 67659.38
599.9590, 66796.61
600.4412, 65980.35
600.9233, 65180.34
601.4054, 64390.53
601.8875, 63649.71
602.3696, 62961.45
602.8517, 62326.18
603.3339, 61775.27
603.8160, 61298.77
604.2981, 60822.63
604.7802, 60335.87
605.2623, 59872.70
605.7444, 59484.76
606.2266, 59158.80
606.7087, 58878.09
607.1908, 58646.97
607.6729, 58439.20
608.1550, 58231.89
608.6371, 58029.46
609.1193, 57838.99
609.6014, 57662.43
610.0835, 57500.77
610.5656, 57355.55
611.0477, 57225.42
611.5298, 57123.93
612.0120, 57081.25
612.4941, 57038.02
612.9762, 56952.21
613.4583, 56808.95
613.9404, 56675.41
614.4225, 56550.33
614.9047, 56443.69
615.3868, 56375.97
615.8689, 56343.76
616.3510, 56308.09
616.8331, 56251.89
617.3152, 56193.88
617.7974, 56172.11
618.2795, 56176.37
618.7616, 56165.77
619.2437, 56083.88
619.7258, 56003.97
620.2079, 56000.35
620.6901, 56075.44
621.1722, 56111.23
621.6543, 56036.13
622.1364, 55929.66
622.6185, 55842.50
623.1006, 55780.58
623.5828, 55731.95
624.0649, 55709.16
624.5470, 55688.14
625.0291, 55626.46
625.5112, 55505.59
625.9933, 55453.32
626.4755, 55519.08
626.9576, 55630.59
627.4397, 55632.97
627.9218, 55537.02
628.4039, 55425.06
628.8860, 55324.90
629.3682, 55238.38
629.8503, 55170.23
630.3324, 55119.45
630.8145, 55081.26
631.2966, 55056.68
631.7787, 55041.48
632.2609, 55039.11
632.7430, 55059.93
633.2251, 55053.68
633.7072, 54981.38
634.1893, 54896.09
634.6714, 54841.84
635.1536, 54833.04
635.6357, 54823.56
636.1178, 54809.43
636.5999, 54794.02
637.0820, 54779.96
637.5641, 54766.79
638.0463, 54771.20
638.5284, 54808.97
639.0105, 54858.58
639.4926, 54872.83
639.9747, 54857.32
640.4568, 54844.32
640.9390, 54861.30
641.4211, 54884.57
641.9032, 54889.64
642.3853, 54874.82
642.8674, 54863.22
643.3495, 54866.13
643.8317, 54874.13
644.3138, 54878.53
644.7959, 54857.87
645.2780, 54878.44
645.7601, 54978.24
646.2422, 55085.88
646.7244, 55105.45
647.2065, 55013.51
647.6886, 54954.84
648.1707, 54958.87
648.6528, 55003.18
649.1349, 55055.49
649.6171, 55112.66
650.0992, 55154.63
650.5813, 55157.61
651.0634, 55149.15
651.5455, 55169.20
652.0276, 55211.50
652.5098, 55241.45
652.9919, 55216.41
653.4740, 55192.11
653.9561, 55216.74
654.4382, 55311.10
654.9203, 55353.07
655.4025, 55263.86
655.8846, 55169.88
656.3667, 55163.73
656.8488, 55290.69
657.3309, 55361.00
657.8130, 55345.16
658.2952, 55313.84
658.7773, 55383.95
659.2594, 55545.56
659.7415, 55670.14
660.2236, 55714.23
660.7057, 55722.93
661.1879, 55764.40
661.6700, 55823.71
662.1521, 55858.59
662.6342, 55814.99
663.1163, 55769.40
663.5984, 55776.09
664.0806, 55829.30
664.5627, 55872.54
665.0448, 55900.69
665.5269, 55906.58
666.0090, 55879.38
666.4911, 55810.74
666.9733, 55771.05
667.4554, 55759.12
667.9375, 55778.54
668.4196, 55848.75
668.9017, 55967.34
669.3839, 56047.65
669.8660, 56077.85
670.3481, 56087.82
670.8302, 56103.94
671.3123, 56126.49
671.7944, 56159.05
672.2766, 56218.93
672.7587, 56262.07
673.2408, 56223.35
673.7229, 56151.58
674.2050, 56141.49
674.6871, 56300.27
675.1693, 56436.39
675.6514, 56494.09
676.1335, 56485.61
676.6156, 56470.32
677.0977, 56448.41
677.5798, 56418.11
678.0620, 56362.32
678.5441, 56289.99
679.0262, 56314.69
679.5083, 56443.04
679.9904, 56562.81
680.4725, 56560.77
680.9547, 56496.09
681.4368, 56474.36
681.9189, 56510.84
682.4010, 56561.45
682.8831, 56609.56
683.3652, 56650.31
683.8474, 56678.00
684.3295, 56687.96
684.8116, 56690.23
685.2937, 56678.89
685.7758, 56663.97
686.2579, 56657.60
686.7401, 56658.50
687.2222, 56673.34
687.7043, 56709.86
688.1864, 56754.75
688.6685, 56774.91
689.1506, 56771.42
689.6328, 56760.99
690.1149, 56734.00
690.5970, 56715.57
691.0791, 56764.58
691.5612, 56865.16
692.0433, 56935.57
692.5255, 56888.37
693.0076, 56833.25
693.4897, 56845.51
693.9718, 56936.92
694.4539, 57020.20
694.9360, 57090.38
695.4182, 57142.83
695.9003, 57173.23
696.3824, 57176.44
696.8645, 57176.08
697.3466, 57170.36
697.8287, 57165.75
698.3109, 57161.54
698.7930, 57162.11
699.2751, 57199.10
699.7572, 57288.45
700.2393, 57375.34
700.7214, 57378.47
701.2036, 57344.67
701.6857, 57352.58
702.1678, 57469.64
702.6499, 57587.09
703.1320, 57676.61
703.6141, 57736.46
704.0963, 57759.00
704.5784, 57692.29
705.0605, 57671.66
705.5426, 57744.27
706.0247, 57883.93
706.5068, 57967.64
706.9890, 57989.63
707.4711, 58007.80
707.9532, 58053.06
708.4353, 58116.06
708.9174, 58160.78
709.3995, 58191.73
709.8817, 58252.93
710.3638, 58407.38
710.8459, 58583.77
711.3280, 58724.76
711.8101, 58826.14
712.2922, 58883.50
712.7744, 58828.28
713.2565, 58779.27
713.7386, 58817.50
714.2207, 58979.38
714.7028, 59141.07
715.1849, 59316.61
715.6671, 59470.21
716.1492, 59539.95
716.6313, 59536.32
717.1134, 59602.30
717.5955, 59775.36
718.0776, 59979.61
718.5598, 60133.68
719.0419, 60248.00
719.5240, 60340.90
720.0061, 60388.72
720.4882, 60454.78
720.9703, 60570.05
721.4525, 60725.21
721.9346, 60899.30
722.4167, 61088.57
722.8988, 61303.83
723.3809, 61570.17
723.8630, 61861.96
724.3452, 62061.20
724.8273, 62152.80
725.3094, 62256.27
725.7915, 62443.41
726.2736, 62675.55
726.7557, 62844.39
727.2379, 62957.88
727.7200, 63078.57
728.2021, 63223.97
728.6842, 63409.29
729.1663, 63683.92
729.6484, 64054.52
730.1306, 64344.36
730.6127, 64428.63
731.0948, 64478.66
731.5769, 64591.86
732.0590, 64789.39
732.5411, 64965.77
733.0233, 65116.57
733.5054, 65256.16
733.9875, 65403.16
734.4696, 65554.11
734.9517, 65677.76
735.4338, 65770.52
735.9160, 65841.52
736.3981, 65889.16
736.8802, 65924.45
737.3623, 65966.45
737.8444, 66036.40
738.3266, 66082.13
738.8087, 66061.30
739.2908, 66012.20
739.7729, 65991.27
740.2551, 66014.52
740.7372, 66043.02
741.2193, 66084.64
741.7014, 66118.94
742.1835, 66084.03
742.6656, 65979.02
743.1478, 65916.59
743.6299, 65959.19
744.1120, 66030.23
744.5941, 65994.03
745.0762, 65881.95
745.5583, 65790.27
746.0405, 65801.23
746.5226, 65814.23
747.0047, 65795.03
747.4868, 65736.70
747.9689, 65604.72
748.4510, 65354.45
748.9332, 65085.68
749.4153, 64826.72
749.8974, 64576.71
750.3795, 64308.57
750.8616, 64019.74
751.3438, 63740.54
751.8259, 63505.61
752.3080, 63292.68
752.7901, 63023.96
753.2722, 62703.48
753.7543, 62417.20
754.2365, 62267.95
754.7186, 62144.81
755.2007, 61947.20
755.6828, 61640.37
756.1649, 61391.88
756.6470, 61274.27
757.1292, 61180.29
757.6113, 61043.31
758.0934, 60847.86
758.5755, 60678.29
759.0576, 60533.59
759.5397, 60413.25
760.0219, 60319.05
760.5040, 60247.85
760.9861, 60199.63
761.4682, 60180.80
761.9503, 60151.80
762.4324, 60053.49
762.9146, 59938.85
763.3967, 59873.44
763.8788, 59929.66
764.3609, 59943.17
764.8430, 59840.60
765.3251, 59708.71
765.8073, 59654.39
766.2894, 59710.13
766.7715, 59709.46
767.2536, 59612.93
767.7357, 59482.10
768.2178, 59416.65
768.7000, 59406.64
769.1821, 59415.53
769.6642, 59450.66
770.1463, 59468.86
770.6284, 59408.17
771.1105, 59306.97
771.5927, 59239.44
772.0748, 59243.98
772.5569, 59267.71
773.0390, 59314.68
773.5211, 59368.73
774.0032, 59381.23
774.4854, 59335.33
774.9675, 59316.29
775.4496, 59371.91
775.9317, 59451.12
776.4138, 59388.44
776.8959, 59215.61
777.3781, 59101.81
777.8602, 59193.89
778.3423, 59336.06
778.8244, 59411.72
779.3065, 59427.01
779.7886, 59415.97
780.2708, 59320.32
780.7529, 59274.88
781.2350, 59348.55
781.7171, 59522.28
782.1992, 59614.04
782.6813, 59611.53
783.1635, 59571.90
783.6456, 59492.98
784.1277, 59403.95
784.6098, 59426.76
785.0919, 59548.59
785.5740, 59642.69
786.0562, 59590.26
786.5383, 59502.82
787.0204, 59464.26
787.5025, 59480.40
787.9846, 59536.25
788.4667, 59685.52
788.9489, 59818.40
789.4310, 59890.01
789.9131, 59897.69
790.3952, 59878.54
790.8773, 59827.60
791.3594, 59773.53
791.8416, 59727.62
792.3237, 59696.71
792.8058, 59704.15
793.2879, 59750.67
793.7700, 59809.14
794.2521, 59865.05
794.7343, 59922.13
795.2164, 59985.42
795.6985, 60060.65
796.1806, 60120.43
796.6627, 60148.62
797.1448, 60176.54
797.6270, 60226.26
798.1091, 60301.77
798.5912, 60369.57
799.0733, 60431.61
799.5554, 60477.37
800.0375, 60470.10
800.5197, 60445.89
801.0018, 60481.77
801.4839, 60593.86
801.9660, 60716.01
802.4481, 60836.96
802.9302, 60932.58
803.4124, 60978.28
803.8945, 60938.95
804.3766, 60918.41
804.8587, 60917.99
805.3408, 60934.65
805.8229, 60965.12
806.3051, 61009.42
806.7872, 61078.68
807.2693, 61178.71
807.7514, 61275.16
808.2335, 61334.07
808.7156, 61366.82
809.1978, 61379.85
809.6799, 61354.13
810.1620, 61378.05
810.6441, 61556.81
811.1262, 61764.23
811.6083, 61873.23
812.0905, 61839.77
812.5726, 61800.58
813.0547, 61746.10
813.5368, 61710.22
814.0189, 61751.31
814.5010, 61853.69
814.9832, 61925.46
815.4653, 61950.06
815.9474, 61949.89
816.4295, 61942.06
816.9116, 61923.46
817.3937, 61886.12
817.8759, 61802.30
818.3580, 61751.58
818.8401, 61783.22
819.3222, 61833.85
819.8043, 61843.77
820.2864, 61804.47
820.7686, 61763.25
821.2507, 61724.98
821.7328, 61684.29
822.2149, 61618.66
822.6970, 61546.78
823.1791, 61524.29
823.6613, 61582.05
824.1434, 61629.78
824.6255, 61591.67
825.1076, 61517.78
825.5897, 61464.25
826.0718, 61433.80
826.5540, 61439.66
827.0361, 61506.67
827.5182, 61581.17
828.0003, 61596.33
828.4824, 61552.67
828.9645, 61497.74
829.4467, 61432.37
829.9288, 61383.71
830.4109, 61385.42
830.8930, 61423.36
831.3751, 61480.32
831.8572, 61566.60
832.3394, 61636.47
832.8215, 61668.51
833.3036, 61678.98
833.7857, 61690.59
834.2678, 61716.54
834.7499, 61695.47
835.2321, 61603.57
835.7142, 61511.02
836.1963, 61527.64
836.6784, 61621.16
837.1605, 61662.25
837.6426, 61611.32
838.1248, 61573.29
838.6069, 61663.47
839.0890, 61794.99
839.5711, 61868.34
840.0532, 61815.54
840.5353, 61792.36
841.0175, 61826.67
841.4996, 61874.76
841.9817, 61885.37
842.4638, 61855.94
842.9459, 61859.84
843.4280, 61908.88
843.9102, 61966.04
844.3923, 61999.04
844.8744, 62010.22
845.3565, 61989.00
845.8386, 61908.93
846.3207, 61888.86
846.8029, 62032.79
847.2850, 62222.52
847.7671, 62356.86
848.2492, 62427.70
848.7313, 62456.91
849.2134, 62435.22
849.6956, 62394.91
850.1777, 62363.39
850.6598, 62339.64
851.1419, 62317.67
851.6240, 62295.64
852.1061, 62286.85
852.5883, 62314.78
853.0704, 62352.28
853.5525, 62376.26
854.0346, 62383.63
854.5167, 62371.42
854.9988, 62318.51
855.4810, 62274.01
855.9631, 62280.45
856.4452, 62339.00
856.9273, 62371.71
857.4094, 62375.00
857.8915, 62375.41
858.3737, 62418.86
858.8558, 62461.58
859.3379, 62424.75
859.8200, 62291.11
860.3021, 62211.98
860.7842, 62314.61
861.2664, 62428.38
861.7485, 62451.93
862.2306, 62374.06
862.7127, 62314.70
863.1948, 62269.22
863.6769, 62260.49
864.1591, 62328.84
864.6412, 62440.30
865.1233, 62524.27
865.6054, 62578.16
866.0875, 62595.37
866.5696, 62533.51
867.0518, 62466.40
867.5339, 62449.62
868.0160, 62489.47
868.4981, 62492.32
868.9802, 62435.80
869.4623, 62389.44
869.9445, 62394.82
870.4266, 62436.79
870.9087, 62439.08
871.3908, 62405.72
871.8729, 62379.06
872.3550, 62394.18
872.8372, 62419.14
873.3193, 62418.61
873.8014, 62400.05
874.2835, 62409.01
874.7656, 62489.98
875.2477, 62558.90
875.7299, 62592.33
876.2120, 62598.32
876.6941, 62607.22
877.1762, 62618.97
877.6583, 62633.91
878.1404, 62661.75
878.6226, 62682.59
879.1047, 62652.79
879.5869, 62594.52
880.0690, 62564.10
880.5511, 62626.52
881.0332, 62669.05
881.5153, 62639.85
881.9974, 62575.69
882.4796, 62551.78
882.9617, 62575.11
883.4438, 62599.59
883.9259, 62614.50
884.4080, 62625.12
884.8901, 62633.57
885.3723, 62644.63
885.8544, 62670.34
886.3365, 62721.94
886.8186, 62777.00
887.3007, 62831.46
887.7828, 62880.55
888.2650, 62916.88
888.7471, 62933.71
889.2292, 62956.09
889.7113, 62988.62
890.1934, 63021.37
890.6755, 63026.58
891.1577, 63021.21
891.6398, 63077.25
892.1219, 63227.35
892.6040, 63335.56
893.0861, 63240.50
893.5682, 63097.00
894.0504, 63055.18
894.5325, 63181.89
895.0146, 63302.20
895.4967, 63435.11
895.9788, 63526.38
896.4609, 63494.74
896.9431, 63368.52
897.4252, 63337.47
897.9073, 63412.58
898.3894, 63493.85
898.8715, 63470.30
899.3536, 63445.88
899.8358, 63540.29
900.3179, 63779.49
900.8000, 63908.93
901.2821, 63828.78
901.7642, 63748.76
902.2463, 63776.84
902.7285, 63891.75
903.2106, 63924.59
903.6927, 63878.20
904.1748, 63833.34
904.6569, 63855.11
905.1390, 63890.51
905.6212, 63868.97
906.1033, 63808.95
906.5854, 63793.09
907.0675, 63892.65
907.5496, 63984.11
908.0317, 64050.22
908.5139, 64083.58
908.9960, 64035.09
909.4781, 63904.48
909.9602, 63830.01
910.4423, 63872.56
910.9244, 63974.70
911.4066, 64112.42
911.8887, 64250.75
912.3708, 64326.72
912.8529, 64242.85
913.3350, 64191.16
913.8171, 64224.27
914.2993, 64292.17
914.7814, 64331.27
915.2635, 64340.01
915.7456, 64338.93
916.2277, 64329.43
916.7098, 64317.04
917.1920, 64279.75
917.6741, 64254.72
918.1562, 64314.36
918.6383, 64509.90
919.1204, 64654.03
919.6025, 64658.00
920.0847, 64615.86
920.5668, 64577.75
921.0489, 64536.28
921.5310, 64563.32
922.0131, 64665.51
922.4952, 64778.72
922.9774, 64845.18
923.4595, 64892.37
923.9416, 64965.72
924.4237, 65065.30
924.9058, 65154.84
925.3879, 65229.79
925.8701, 65280.65
926.3522, 65297.93
926.8343, 65287.16
927.3164, 65287.94
927.7985, 65298.70
928.2806, 65336.73
928.7628, 65428.35
929.2449, 65533.79
929.7270, 65585.55
930.2091, 65599.70
930.6912, 65621.31
931.1733, 65663.04
931.6555, 65721.54
932.1376, 65812.97
932.6197, 65912.91
933.1018, 65981.76
933.5839, 66018.71
934.0660, 66025.91
934.5482, 65991.42
935.0303, 65966.38
935.5124, 66047.88
935.9945, 66176.85
936.4766, 66237.57
936.9587, 66160.22
937.4409, 66136.21
937.9230, 66310.04
938.4051, 66497.70
938.8872, 66543.01
939.3693, 66406.73
939.8514, 66371.70
940.3336, 66449.80
940.8157, 66547.80
941.2978, 66611.79
941.7799, 66635.55
942.2620, 66572.26
942.7441, 66430.41
943.2263, 66371.59
943.7084, 66572.38
944.1905, 66749.57
944.6726, 66772.39
945.1547, 66671.64
945.6368, 66643.37
946.1190, 66691.13
946.6011, 66748.36
947.0832, 66786.35
947.5653, 66816.73
948.0474, 66859.12
948.5295, 66906.43
949.0117, 66942.13
949.4938, 66925.30
949.9759, 66943.26
950.4580, 67029.37
950.9401, 67144.16
951.4222, 67226.91
951.9044, 67277.44
952.3865, 67328.86
952.8686, 67386.61
953.3507, 67445.38
953.8328, 67485.40
954.3149, 67529.77
954.7971, 67597.17
955.2792, 67670.30
955.7613, 67851.16
956.2434, 68259.77
956.7255, 68649.60
957.2076, 68850.66
957.6898, 68870.62
958.1719, 68978.18
958.6540, 69172.70
959.1361, 69352.16
959.6182, 69400.48
960.1003, 69439.44
960.5825, 69577.70
961.0646, 69810.16
961.5467, 70086.02
962.0288, 70446.98
962.5109, 70769.88
962.9930, 71016.00
963.4752, 71207.52
963.9573, 71373.13
964.4394, 71520.64
964.9215, 71711.30
965.4036, 71984.65
965.8857, 72269.52
966.3679, 72506.57
966.8500, 72721.43
967.3321, 72953.57
967.8142, 73276.80
968.2963, 73479.62
968.7784, 73525.64
969.2606, 73519.59
969.7427, 73565.74
970.2248, 73647.57
970.7069, 73703.62
971.1890, 73729.25
971.6711, 73749.27
972.1533, 73803.41
972.6354, 73837.30
973.1175, 73813.08
973.5996, 73729.50
974.0817, 73605.13
974.5638, 73423.98
975.0460, 73262.43
975.5281, 73173.25
976.0102, 73102.05
976.4923, 72904.41
976.9744, 72623.90
977.4565, 72388.44
977.9387, 72313.27
978.4208, 72223.05
978.9029, 72029.81
979.3850, 71799.96
979.8671, 71622.02
980.3492, 71505.61
980.8314, 71395.91
981.3135, 71291.59
981.7956, 71170.45
982.2777, 70983.84
982.7598, 70773.97
983.2419, 70614.14
983.7241, 70525.75
984.2062, 70394.73
984.6883, 70094.77
985.1704, 69841.74
985.6525, 69751.79
986.1346, 69804.86
986.6168, 69782.37
987.0989, 69686.65
987.5810, 69590.82
988.0631, 69529.19
988.5452, 69492.95
989.0273, 69486.96
989.5095, 69499.69
989.9916, 69501.88
990.4737, 69479.79
990.9558, 69456.19
991.4379, 69422.77
991.9200, 69404.75
992.4022, 69461.12
992.8843, 69571.02
993.3664, 69639.40
993.8485, 69640.96
994.3306, 69645.86
994.8127, 69726.02
995.2949, 69814.79
995.7770, 69839.63
996.2591, 69780.41
996.7412, 69793.04
997.2233, 69892.84
997.7054, 70008.20
998.1876, 70102.21
998.6697, 70178.44
999.1518, 70245.46
999.6339, 70303.20
1000.116, 70352.50
1000.598, 70390.08
1001.080, 70423.30
1001.562, 70429.49
1002.044, 70444.54
1002.527, 70566.06
1003.009, 70807.87
1003.491, 70921.39
1003.973, 70832.05
1004.455, 70722.54
1004.937, 70834.77
1005.419, 71027.52
1005.901, 71109.09
1006.384, 71006.79
1006.866, 70962.95
1007.348, 71031.84
1007.830, 71123.17
1008.312, 71199.63
1008.794, 71256.47
1009.276, 71249.77
1009.758, 71187.66
1010.240, 71138.02
1010.723, 71158.57
1011.205, 71186.20
1011.687, 71188.50
1012.169, 71165.92
1012.651, 71119.81
1013.133, 71031.09
1013.615, 70980.85
1014.097, 70991.98
1014.580, 71016.23
1015.062, 70993.05
1015.544, 70933.11
1016.026, 70850.57
1016.508, 70743.91
1016.990, 70641.98
1017.472, 70577.77
1017.954, 70499.80
1018.436, 70362.73
1018.919, 70173.53
1019.401, 70076.51
1019.883, 70071.90
1020.365, 70070.53
1020.847, 70016.38
1021.329, 69944.77
1021.811, 69890.18
1022.293, 69846.08
1022.776, 69795.14
1023.258, 69736.23
1023.740, 69663.53
1024.222, 69566.73
1024.704, 69471.99
1025.186, 69433.38
1025.668, 69428.03
1026.150, 69360.84
1026.632, 69210.85
1027.115, 69103.70
1027.597, 69169.77
1028.079, 69258.88
1028.561, 69260.58
1029.043, 69178.79
1029.525, 69130.46
1030.007, 69118.13
1030.489, 69125.95
1030.972, 69157.73
1031.454, 69193.41
1031.936, 69196.31
1032.418, 69183.02
1032.900, 69189.02
1033.382, 69264.95
1033.864, 69302.80
1034.346, 69279.03
1034.828, 69232.64
1035.311, 69205.75
1035.793, 69195.51
1036.275, 69183.49
1036.757, 69168.07
1037.239, 69158.42
1037.721, 69157.94
1038.203, 69168.09
1038.685, 69189.47
1039.167, 69222.45
1039.650, 69274.33
1040.132, 69351.80
1040.614, 69417.81
1041.096, 69459.70
1041.578, 69481.75
1042.060, 69482.94
1042.542, 69469.98
1043.024, 69454.84
1043.507, 69437.67
1043.989, 69425.82
1044.471, 69425.94
1044.953, 69425.30
1045.435, 69416.23
1045.917, 69398.42
1046.399, 69353.58
1046.881, 69284.17
1047.364, 69242.54
1047.846, 69302.48
1048.328, 69366.85
1048.810, 69358.27
1049.292, 69294.19
1049.774, 69261.23
1050.256, 69262.93
1050.738, 69290.96
1051.220, 69353.74
1051.703, 69414.77
1052.185, 69402.12
1052.667, 69356.64
1053.149, 69349.10
1053.631, 69399.94
1054.113, 69458.05
1054.595, 69522.22
1055.077, 69575.91
1055.559, 69603.78
1056.042, 69612.33
1056.524, 69653.72
1057.006, 69723.75
1057.488, 69788.10
1057.970, 69808.23
1058.452, 69837.29
1058.934, 69943.56
1059.416, 70071.01
1059.899, 70107.16
1060.381, 70013.99
1060.863, 69963.64
1061.345, 69975.55
1061.827, 70007.41
1062.309, 70019.49
1062.791, 70021.36
1063.273, 70028.83
1063.755, 70042.95
1064.238, 70048.32
1064.720, 70026.90
1065.202, 70012.80
1065.684, 70009.11
1066.166, 70024.53
1066.648, 70105.84
1067.130, 70233.79
1067.612, 70324.53
1068.094, 70345.17
1068.577, 70337.18
1069.059, 70296.30
1069.541, 70259.09
1070.023, 70268.09
1070.505, 70340.41
1070.987, 70359.02
1071.469, 70322.12
1071.951, 70252.73
1072.434, 70106.95
1072.916, 69980.46
1073.398, 70027.95
1073.880, 70196.39
1074.362, 70294.71
1074.844, 70220.37
1075.326, 70181.20
1075.808, 70209.78
1076.291, 70269.14
1076.773, 70313.03
1077.255, 70344.95
1077.737, 70378.24
1078.219, 70415.65
1078.701, 70429.99
1079.183, 70357.49
1079.665, 70311.30
1080.147, 70369.33
1080.630, 70502.45
1081.112, 70516.38
1081.594, 70416.28
1082.076, 70365.65
1082.558, 70448.17
1083.040, 70560.44
1083.522, 70632.85
1084.004, 70668.61
1084.486, 70665.50
1084.969, 70598.62
1085.451, 70562.74
1085.933, 70555.93
1086.415, 70588.48
1086.897, 70713.04
1087.379, 70859.95
1087.861, 70889.95
1088.343, 70826.41
1088.826, 70778.89
1089.308, 70778.62
1089.790, 70814.12
1090.272, 70897.27
1090.754, 70996.08
1091.236, 71062.64
1091.718, 71100.90
1092.200, 71122.70
1092.682, 71127.59
1093.165, 71145.00
1093.647, 71218.13
1094.129, 71286.44
1094.611, 71299.71
1095.093, 71270.48
1095.575, 71294.63
1096.057, 71374.29
1096.539, 71455.74
1097.022, 71522.07
1097.504, 71573.11
1097.986, 71607.59
1098.468, 71626.51
1098.950, 71629.16
1099.432, 71607.61
1099.914, 71587.67
1100.396, 71563.89
1100.879, 71560.39
1101.361, 71608.09
1101.843, 71682.06
1102.325, 71746.19
1102.807, 71795.90
1103.289, 71815.55
1103.771, 71772.05
1104.253, 71732.20
1104.735, 71696.25
1105.218, 71682.21
1105.700, 71728.19
1106.182, 71820.80
1106.664, 71900.02
1107.146, 71960.24
1107.628, 71992.09
1108.110, 71950.94
1108.592, 71919.51
1109.074, 71947.80
1109.557, 72023.66
1110.039, 72116.95
1110.521, 72229.30
1111.003, 72269.57
1111.485, 72188.11
1111.967, 72096.36
1112.449, 72098.56
1112.931, 72149.79
1113.414, 72205.62
1113.896, 72262.84
1114.378, 72315.48
1114.860, 72366.45
1115.342, 72399.06
1115.824, 72386.43
1116.306, 72364.45
1116.788, 72396.10
1117.271, 72462.44
1117.753, 72521.83
1118.235, 72573.71
1118.717, 72588.96
1119.199, 72533.20
1119.681, 72503.27
1120.163, 72653.51
1120.645, 72898.09
1121.127, 72954.49
1121.609, 72831.23
1122.092, 72729.09
1122.574, 72796.63
1123.056, 72841.45
1123.538, 72778.02
1124.020, 72671.77
1124.502, 72659.57
1124.984, 72730.52
1125.466, 72796.16
1125.949, 72840.98
1126.431, 72868.63
1126.913, 72873.20
1127.395, 72868.09
1127.877, 72862.13
1128.359, 72855.47
1128.841, 72846.49
1129.323, 72835.50
1129.806, 72812.33
1130.288, 72762.90
1130.770, 72722.38
1131.252, 72739.34
1131.734, 72780.86
1132.216, 72804.16
1132.698, 72801.78
1133.180, 72788.32
1133.662, 72760.48
1134.145, 72736.02
1134.627, 72724.38
1135.109, 72724.13
1135.591, 72741.88
1136.073, 72768.79
1136.555, 72782.02
1137.037, 72760.74
1137.519, 72748.55
1138.001, 72754.41
1138.484, 72756.25
1138.966, 72720.88
1139.448, 72666.49
1139.930, 72630.00
1140.412, 72615.44
1140.894, 72637.47
1141.376, 72722.27
1141.858, 72824.50
1142.341, 72955.34
1142.823, 73072.17
1143.305, 73065.88
1143.787, 72972.14
1144.269, 72972.70
1144.751, 73110.02
1145.233, 73203.60
1145.715, 73089.01
1146.198, 72964.51
1146.680, 72947.31
1147.162, 73010.28
1147.644, 73015.02
1148.126, 72968.18
1148.608, 72962.05
1149.090, 73037.96
1149.572, 73129.86
1150.054, 73218.01
1150.536, 73276.36
1151.019, 73271.08
1151.501, 73196.44
1151.983, 73154.33
1152.465, 73145.52
1152.947, 73144.60
1153.429, 73145.41
1153.911, 73139.52
1154.393, 73098.29
1154.876, 73051.24
1155.358, 73057.03
1155.840, 73146.68
1156.322, 73191.58
1156.804, 73179.43
1157.286, 73177.16
1157.768, 73262.28
1158.250, 73371.76
1158.733, 73434.51
1159.215, 73452.27
1159.697, 73440.80
1160.179, 73397.61
1160.661, 73325.70
1161.143, 73198.70
1161.625, 73119.38
1162.107, 73281.13
1162.589, 73536.32
1163.072, 73616.64
1163.554, 73513.01
1164.036, 73433.97
1164.518, 73424.98
1165.000, 73460.38
1165.482, 73554.04
1165.964, 73658.66
1166.446, 73657.63
1166.928, 73607.02
1167.411, 73651.50
1167.893, 73837.60
1168.375, 73970.17
1168.857, 73940.84
1169.339, 73905.47
1169.821, 73939.37
1170.303, 73995.69
1170.785, 73893.03
1171.268, 73692.15
1171.750, 73598.13
1172.232, 73716.76
1172.714, 73843.30
1173.196, 73909.70
1173.678, 73943.52
1174.160, 73939.80
1174.642, 73913.55
1175.125, 73991.62
1175.607, 74151.52
1176.089, 74265.72
1176.571, 74252.88
1177.053, 74210.72
1177.535, 74152.75
1178.017, 74107.66
1178.499, 74098.15
1178.981, 74124.32
1179.464, 74225.70
1179.946, 74394.23
1180.428, 74499.13
1180.910, 74357.43
1181.392, 74240.34
1181.874, 74352.05
1182.356, 74550.82
1182.838, 74592.92
1183.320, 74469.17
1183.803, 74519.12
1184.285, 74775.95
1184.767, 74975.46
1185.249, 74818.53
1185.731, 74633.52
1186.213, 74671.05
1186.695, 74858.86
1187.177, 74981.50
1187.660, 75034.72
1188.142, 75081.80
1188.624, 75129.23
1189.106, 75198.39
1189.588, 75356.52
1190.070, 75503.94
1190.552, 75536.63
1191.034, 75472.59
1191.516, 75466.27
1191.999, 75523.88
1192.481, 75576.19
1192.963, 75597.50
1193.445, 75640.73
1193.927, 75818.66
1194.409, 76004.60
1194.891, 76035.29
1195.373, 75897.78
1195.855, 75915.05
1196.338, 76112.27
1196.820, 76242.85
1197.302, 76189.92
1197.784, 76073.26
1198.266, 75984.75
1198.748, 75930.59
1199.230, 75923.34
1199.712, 75966.89
1200.195, 76040.36
1200.677, 76151.28
1201.159, 76239.46
1201.641, 76268.14
1202.123, 76262.69
1202.605, 76216.91
1203.087, 76169.33
1203.569, 76195.12
1204.052, 76367.44
1204.534, 76394.34
1205.016, 76253.53
1205.498, 76101.86
1205.980, 76049.24
1206.462, 76041.53
1206.944, 75998.93
1207.426, 75954.80
1207.908, 76001.52
1208.391, 76211.77
1208.873, 76308.82
1209.355, 76266.72
1209.837, 76193.72
1210.319, 76199.08
1210.801, 76211.02
1211.283, 76096.95
1211.765, 75915.67
1212.247, 75903.31
1212.730, 76166.36
1213.212, 76288.86
1213.694, 76210.77
1214.176, 76069.33
1214.658, 75920.74
1215.140, 75836.09
1215.622, 75966.84
1216.104, 76260.70
1216.587, 76368.79
1217.069, 76195.32
1217.551, 76117.01
1218.033, 76211.11
1218.515, 76342.99
1218.997, 76362.27
1219.479, 76336.87
1219.961, 76350.13
1220.443, 76402.86
1220.926, 76408.25
1221.408, 76347.14
1221.890, 76303.55
1222.372, 76296.73
1222.854, 76314.66
1223.336, 76365.08
1223.818, 76418.17
1224.300, 76419.19
1224.782, 76361.71
1225.265, 76416.66
1225.747, 76619.54
1226.229, 76763.09
1226.711, 76774.23
1227.193, 76727.21
1227.675, 76692.07
1228.157, 76661.79
1228.639, 76621.00
1229.122, 76564.29
1229.604, 76560.77
1230.086, 76617.02
1230.568, 76681.88
1231.050, 76734.77
1231.532, 76789.70
1232.014, 76898.86
1232.496, 76999.05
1232.979, 76990.65
1233.461, 76847.94
1233.943, 76808.59
1234.425, 76883.14
1234.907, 76960.90
1235.389, 77002.27
1235.871, 77004.26
1236.353, 76900.25
1236.835, 76790.33
1237.318, 76826.78
1237.800, 77037.05
1238.282, 77188.05
1238.764, 77277.94
1239.246, 77322.84
1239.728, 77319.98
1240.210, 77288.34
1240.692, 77209.05
1241.175, 77129.59
1241.657, 77118.91
1242.139, 77190.59
1242.621, 77240.21
1243.103, 77268.07
1243.585, 77301.40
1244.067, 77382.77
1244.549, 77448.57
1245.031, 77431.55
1245.514, 77386.42
1245.996, 77400.75
1246.478, 77485.21
1246.960, 77477.15
1247.442, 77379.40
1247.924, 77305.10
1248.406, 77343.36
1248.888, 77408.32
1249.370, 77466.80
1249.853, 77515.39
1250.335, 77545.06
1250.817, 77556.69
1251.299, 77600.36
1251.781, 77674.16
1252.263, 77721.58
1252.745, 77680.92
1253.227, 77637.20
1253.710, 77619.93
1254.192, 77626.84
1254.674, 77665.84
1255.156, 77730.78
1255.638, 77784.80
1256.120, 77823.77
1256.602, 77748.86
1257.084, 77904.77
1257.567, 77998.36
1258.049, 78032.92
1258.531, 77831.78
1259.013, 77935.00
1259.495, 77916.25
1259.977, 77892.50
1260.459, 78038.56
1260.941, 77871.71
1261.423, 78015.08
1261.906, 78034.64
1262.388, 78110.85
1262.870, 78064.34
1263.352, 78001.34
1263.834, 78017.27
1264.316, 78085.87
1264.798, 78200.39
1265.280, 78251.38
1265.762, 78146.20
1266.245, 78067.71
1266.727, 78041.66
1267.209, 78068.30
1267.691, 78193.78
1268.173, 78350.20
1268.655, 78412.68
1269.137, 78377.34
1269.619, 78369.27
1270.102, 78411.77
1270.584, 78463.48
1271.066, 78524.52
1271.548, 78561.93
1272.030, 78481.65
1272.512, 78388.04
1272.994, 78430.42
1273.476, 78608.05
1273.958, 78708.84
1274.441, 78711.63
1274.923, 78708.10
1275.405, 78714.45
1275.887, 78736.34
1276.369, 78796.23
1276.851, 78861.53
1277.333, 78899.48
1277.815, 78912.09
1278.297, 78913.56
1278.780, 78901.22
1279.262, 78947.00
1279.744, 79078.95
1280.226, 79195.41
1280.708, 79182.22
1281.190, 79152.78
1281.672, 79194.61
1282.154, 79287.42
1282.637, 79365.56
1283.119, 79427.41
1283.601, 79448.01
1284.083, 79416.17
1284.565, 79391.37
1285.047, 79410.72
1285.529, 79447.35
1286.011, 79494.42
1286.494, 79542.25
1286.976, 79548.55
1287.458, 79530.89
1287.940, 79547.39
1288.422, 79610.55
1288.904, 79703.88
1289.386, 79893.65
1289.868, 80005.91
1290.350, 79953.70
1290.833, 79832.31
1291.315, 79828.55
1291.797, 79899.62
1292.279, 79970.27
1292.761, 80030.52
1293.243, 80047.45
1293.725, 79980.82
1294.207, 79987.50
1294.689, 80158.28
1295.172, 80333.09
1295.654, 80204.65
1296.136, 79977.34
1296.618, 79941.02
1297.100, 80158.60
1297.582, 80296.47
1298.064, 80348.63
1298.546, 80354.29
1299.029, 80308.09
1299.511, 80276.59
1299.993, 80361.68
1300.475, 80471.93
1300.957, 80513.87
1301.439, 80494.61
1301.921, 80459.52
1302.403, 80410.53
1302.885, 80411.89
1303.368, 80493.80
1303.850, 80573.75
1304.332, 80590.34
##END=



