##NAMES=Ulexite
##RRUFFID=R050491
##IDEAL CHEMISTRY=NaCaB_5_O_6_(OH)_6_&#183;5H_2_O
##LOCALITY=Open Pit mine, Boron, Kern County, California, USA
##OWNER=RRUFF
##SOURCE=California Institute of Technology
##DESCRIPTION=Colorless fragment
##STATUS=The identification of this mineral has been confirmed by X-ray diffraction.
##URL=rruff.info/R050491
93.30109, 0.0000000E+00
93.78320, 552.0020
94.26532, 547.8395
94.74744, 549.5812
95.22955, 555.8982
95.71167, 565.6141
96.19379, 574.1216
96.67590, 582.7502
97.15802, 590.1611
97.64014, 596.8155
98.12225, 602.1379
98.60437, 604.5657
99.08649, 602.4468
99.56860, 599.4686
100.0507, 600.9176
100.5328, 606.0633
101.0150, 612.9215
101.4971, 621.2894
101.9792, 631.4627
102.4613, 639.6120
102.9434, 641.8334
103.4255, 642.4680
103.9077, 644.2376
104.3898, 647.7273
104.8719, 653.2162
105.3540, 661.1996
105.8361, 671.4114
106.3182, 685.0811
106.8004, 702.8691
107.2825, 723.4811
107.7646, 746.2371
108.2467, 771.2629
108.7288, 797.9324
109.2109, 817.1911
109.6931, 832.1349
110.1752, 837.0773
110.6573, 829.1130
111.1394, 809.3854
111.6215, 780.3254
112.1036, 743.1569
112.5858, 695.9890
113.0679, 653.1431
113.5500, 613.2149
114.0321, 578.0765
114.5142, 549.4000
114.9964, 527.4328
115.4785, 510.6898
115.9606, 498.6026
116.4427, 490.8347
116.9248, 486.1805
117.4069, 484.8862
117.8891, 486.5212
118.3712, 490.7834
118.8533, 499.1796
119.3354, 507.7412
119.8175, 512.9684
120.2996, 515.0880
120.7818, 515.6512
121.2639, 514.8465
121.7460, 512.5563
122.2281, 512.0994
122.7102, 514.8155
123.1923, 519.2238
123.6745, 525.5100
124.1566, 533.4924
124.6387, 541.4675
125.1208, 547.3969
125.6029, 552.0870
126.0850, 552.3699
126.5672, 547.4623
127.0493, 539.4114
127.5314, 529.1660
128.0135, 517.1547
128.4956, 504.3521
128.9777, 493.2366
129.4599, 484.9396
129.9420, 477.3858
130.4241, 470.5695
130.9062, 464.3748
131.3883, 458.5762
131.8704, 452.9720
132.3526, 447.7353
132.8347, 443.7630
133.3168, 440.1443
133.7989, 438.2675
134.2810, 438.6198
134.7632, 441.1929
135.2453, 445.8568
135.7274, 452.8060
136.2095, 462.0590
136.6916, 472.5800
137.1737, 485.6443
137.6559, 499.2041
138.1380, 512.1181
138.6201, 524.9340
139.1022, 534.4825
139.5843, 539.1214
140.0664, 539.3134
140.5486, 534.3282
141.0307, 522.1022
141.5128, 504.7244
141.9949, 488.3566
142.4770, 472.9400
142.9591, 458.7271
143.4413, 444.9962
143.9234, 432.3848
144.4055, 421.9701
144.8876, 414.7253
145.3697, 410.6665
145.8518, 407.9955
146.3340, 407.6059
146.8161, 407.9543
147.2982, 409.0958
147.7803, 410.7018
148.2624, 412.1945
148.7445, 413.1169
149.2267, 413.6830
149.7088, 412.4978
150.1909, 409.1332
150.6730, 404.8203
151.1551, 399.8146
151.6372, 394.3335
152.1194, 388.9951
152.6015, 384.5304
153.0836, 381.3187
153.5657, 378.2394
154.0478, 375.3246
154.5299, 372.5207
155.0121, 369.8030
155.4942, 367.1722
155.9763, 364.5880
156.4584, 361.9059
156.9405, 359.0494
157.4226, 356.6110
157.9048, 354.6104
158.3869, 353.1442
158.8690, 352.3608
159.3511, 352.1769
159.8332, 352.9958
160.3153, 355.1290
160.7975, 358.5294
161.2796, 362.8174
161.7617, 367.7872
162.2438, 373.4724
162.7259, 379.8919
163.2081, 387.4244
163.6902, 395.5234
164.1723, 403.7710
164.6544, 412.1938
165.1365, 420.6913
165.6186, 429.5633
166.1008, 439.1532
166.5829, 447.3606
167.0650, 454.2052
167.5471, 459.3754
168.0292, 462.3094
168.5113, 462.9183
168.9935, 461.7617
169.4756, 459.6266
169.9577, 455.9785
170.4398, 452.2792
170.9219, 448.8677
171.4040, 445.3636
171.8862, 441.3626
172.3683, 436.7314
172.8504, 431.7663
173.3325, 427.1266
173.8146, 423.3074
174.2967, 419.2941
174.7789, 414.5519
175.2610, 409.7564
175.7431, 405.7505
176.2252, 402.8894
176.7073, 400.9337
177.1894, 399.1442
177.6716, 396.9572
178.1537, 395.5606
178.6358, 394.9530
179.1179, 395.2923
179.6000, 397.0225
180.0821, 400.5606
180.5643, 405.4081
181.0464, 409.9215
181.5285, 413.7698
182.0106, 417.8750
182.4927, 422.7372
182.9748, 428.2594
183.4570, 434.0919
183.9391, 440.4097
184.4212, 446.6848
184.9033, 451.9746
185.3854, 456.2231
185.8675, 459.5582
186.3497, 461.8534
186.8318, 463.0856
187.3139, 464.0811
187.7960, 464.8941
188.2781, 465.8138
188.7602, 467.1954
189.2424, 469.1994
189.7245, 471.4855
190.2066, 473.5233
190.6887, 475.1328
191.1708, 477.1825
191.6530, 480.7884
192.1351, 484.5922
192.6172, 487.3511
193.0993, 488.5525
193.5814, 488.7693
194.0635, 489.1652
194.5457, 490.1034
195.0278, 490.4411
195.5099, 490.7273
195.9920, 490.1113
196.4741, 487.6665
196.9562, 482.9530
197.4384, 476.4268
197.9205, 469.2957
198.4026, 461.2725
198.8847, 452.9826
199.3668, 444.4304
199.8489, 435.7137
200.3311, 426.7759
200.8132, 417.5664
201.2953, 408.3401
201.7774, 400.2151
202.2595, 393.6400
202.7416, 387.7632
203.2238, 382.5968
203.7059, 378.0389
204.1880, 373.8882
204.6701, 370.0523
205.1522, 366.5797
205.6343, 363.7578
206.1165, 361.8321
206.5986, 360.1495
207.0807, 358.4665
207.5628, 356.9375
208.0449, 355.8299
208.5270, 355.2654
209.0092, 355.2577
209.4913, 355.8966
209.9734, 357.2159
210.4555, 358.9566
210.9376, 361.2094
211.4197, 363.8379
211.9019, 366.4801
212.3840, 368.9005
212.8661, 371.2384
213.3482, 373.9219
213.8303, 377.3690
214.3124, 380.4723
214.7946, 382.9370
215.2767, 384.6640
215.7588, 385.0361
216.2409, 383.6846
216.7230, 380.6822
217.2052, 376.5997
217.6873, 371.2262
218.1694, 365.2664
218.6515, 358.9659
219.1336, 352.3284
219.6157, 346.1368
220.0979, 340.7550
220.5800, 335.9413
221.0621, 331.2848
221.5442, 326.6432
222.0263, 322.5836
222.5084, 319.7455
222.9906, 318.1830
223.4727, 317.1268
223.9548, 316.6069
224.4369, 316.3891
224.9190, 316.2523
225.4011, 316.1429
225.8833, 316.3606
226.3654, 317.3275
226.8475, 319.1557
227.3296, 321.1791
227.8117, 323.5896
228.2938, 325.9392
228.7760, 327.9295
229.2581, 329.5071
229.7402, 330.7774
230.2223, 332.0887
230.7044, 333.8997
231.1865, 334.2167
231.6687, 331.8765
232.1508, 328.7809
232.6329, 326.0951
233.1150, 324.0138
233.5971, 321.9384
234.0792, 318.9540
234.5614, 314.5984
235.0435, 310.4562
235.5256, 306.4897
236.0077, 302.7570
236.4898, 299.3203
236.9719, 296.1973
237.4541, 293.3305
237.9362, 290.6296
238.4183, 288.0154
238.9004, 285.8540
239.3825, 284.3063
239.8646, 283.0078
240.3468, 281.7639
240.8289, 280.5289
241.3110, 279.3567
241.7931, 278.2674
242.2752, 277.1435
242.7573, 276.5514
243.2395, 276.5185
243.7216, 276.8998
244.2037, 277.7892
244.6858, 279.1042
245.1679, 280.4474
245.6501, 281.3294
246.1322, 281.5171
246.6143, 282.2469
247.0964, 283.8034
247.5785, 285.6266
248.0606, 287.3998
248.5428, 289.0710
249.0249, 290.7000
249.5070, 292.2763
249.9891, 293.7690
250.4712, 295.8077
250.9533, 298.6988
251.4355, 301.8644
251.9176, 304.9252
252.3997, 307.8709
252.8818, 310.9377
253.3639, 314.3208
253.8460, 318.0544
254.3282, 321.7992
254.8103, 325.4918
255.2924, 329.2455
255.7745, 333.1494
256.2566, 337.1867
256.7387, 341.1723
257.2209, 344.8949
257.7030, 348.4395
258.1851, 352.3606
258.6672, 357.7382
259.1493, 362.6020
259.6314, 365.4109
260.1136, 366.2999
260.5957, 366.6541
261.0778, 367.4259
261.5599, 368.1154
262.0420, 367.5207
262.5241, 365.1648
263.0063, 362.0736
263.4884, 358.9742
263.9705, 355.8101
264.4526, 352.0299
264.9347, 347.1554
265.4168, 341.6150
265.8990, 336.4208
266.3811, 331.7216
266.8632, 326.9705
267.3453, 321.5752
267.8274, 315.6599
268.3095, 310.1032
268.7917, 305.3213
269.2738, 301.0317
269.7559, 296.7668
270.2380, 292.4708
270.7201, 288.4751
271.2022, 285.1553
271.6844, 282.4225
272.1665, 279.5561
272.6486, 276.0726
273.1307, 272.7834
273.6128, 270.4474
274.0949, 269.0465
274.5771, 267.9690
275.0592, 266.9029
275.5413, 265.8404
276.0234, 264.7077
276.5055, 263.2725
276.9876, 262.0807
277.4698, 261.5757
277.9519, 261.6620
278.4340, 261.8500
278.9161, 261.7543
279.3982, 261.4897
279.8803, 261.5985
280.3625, 262.2490
280.8446, 263.0801
281.3267, 263.7978
281.8088, 264.4905
282.2909, 265.3841
282.7730, 266.6762
283.2552, 268.2554
283.7373, 269.7749
284.2194, 271.2697
284.7015, 272.6225
285.1836, 273.7130
285.6658, 274.6677
286.1479, 275.6698
286.6300, 276.7743
287.1121, 277.9950
287.5942, 279.3655
288.0764, 280.9057
288.5585, 282.5618
289.0406, 284.2748
289.5227, 286.0937
290.0048, 288.0758
290.4869, 290.2740
290.9691, 292.6063
291.4512, 294.9681
291.9333, 297.3822
292.4154, 299.7477
292.8975, 302.3037
293.3796, 304.6510
293.8618, 306.2456
294.3439, 306.9548
294.8260, 307.5913
295.3081, 309.3304
295.7902, 312.4450
296.2723, 315.3492
296.7545, 317.4105
297.2366, 319.4518
297.7187, 322.1917
298.2008, 325.5751
298.6829, 328.6710
299.1650, 330.3204
299.6472, 330.3556
300.1293, 330.5719
300.6114, 331.8748
301.0935, 332.6026
301.5756, 331.9584
302.0577, 330.0576
302.5399, 327.4508
303.0220, 324.3902
303.5041, 320.9138
303.9862, 317.7435
304.4683, 314.9962
304.9504, 312.4592
305.4326, 310.1786
305.9147, 308.0320
306.3968, 305.7768
306.8789, 303.1935
307.3610, 300.4317
307.8431, 298.1743
308.3253, 296.5056
308.8074, 295.2841
309.2895, 294.5195
309.7716, 294.0811
310.2537, 293.8219
310.7358, 293.6707
311.2180, 293.6800
311.7001, 293.9691
312.1822, 294.5780
312.6643, 295.4043
313.1464, 296.5024
313.6285, 297.7315
314.1107, 299.0197
314.5928, 300.3400
315.0749, 301.6466
315.5570, 302.8428
316.0391, 303.8715
316.5212, 304.9932
317.0034, 306.5055
317.4855, 307.9171
317.9676, 308.9281
318.4497, 309.5311
318.9318, 309.9347
319.4139, 310.3523
319.8961, 310.8033
320.3782, 311.0827
320.8603, 311.0115
321.3424, 310.9281
321.8245, 311.1229
322.3066, 311.4282
322.7888, 311.3941
323.2709, 310.5377
323.7530, 309.0332
324.2351, 308.2549
324.7172, 308.8692
325.1993, 309.2940
325.6815, 308.9289
326.1636, 308.1211
326.6457, 307.3259
327.1278, 306.7427
327.6099, 306.3643
328.0920, 306.2631
328.5742, 306.7711
329.0563, 306.8093
329.5384, 305.9818
330.0205, 304.7207
330.5026, 303.3892
330.9847, 302.0862
331.4669, 300.6566
331.9490, 298.8896
332.4311, 296.7699
332.9132, 294.3831
333.3953, 291.4683
333.8774, 288.4738
334.3596, 285.5533
334.8417, 282.7635
335.3238, 280.2427
335.8059, 278.2390
336.2880, 276.7574
336.7701, 275.1322
337.2523, 273.0555
337.7344, 271.1801
338.2165, 269.7833
338.6986, 268.8008
339.1807, 268.0443
339.6628, 267.4070
340.1450, 266.9073
340.6271, 266.6338
341.1092, 266.6937
341.5913, 266.7785
342.0735, 266.8629
342.5556, 266.8705
343.0377, 266.6349
343.5198, 266.0165
344.0019, 265.3687
344.4840, 265.4208
344.9662, 266.4305
345.4483, 267.0076
345.9304, 266.3235
346.4125, 265.2709
346.8946, 264.4163
347.3767, 263.8475
347.8589, 263.3981
348.3410, 262.9123
348.8231, 262.3907
349.3052, 261.9610
349.7873, 261.7610
350.2694, 261.5124
350.7516, 260.9918
351.2337, 260.2491
351.7158, 259.5156
352.1979, 258.9523
352.6800, 258.5027
353.1621, 257.9200
353.6443, 257.0298
354.1264, 256.4077
354.6085, 256.4488
355.0906, 256.9510
355.5727, 257.6766
356.0548, 258.6724
356.5370, 259.7108
357.0191, 260.3347
357.5012, 260.4666
357.9833, 261.0234
358.4654, 262.6628
358.9475, 264.7832
359.4297, 266.6587
359.9118, 268.2012
360.3939, 269.6526
360.8760, 271.0922
361.3581, 272.5551
361.8402, 274.3341
362.3224, 276.7233
362.8045, 279.0646
363.2866, 280.5979
363.7687, 281.4020
364.2508, 282.1652
364.7329, 283.4865
365.2151, 284.8383
365.6972, 285.3104
366.1793, 284.7752
366.6614, 283.6640
367.1435, 281.9670
367.6256, 279.9254
368.1078, 278.2990
368.5899, 277.4964
369.0720, 276.8750
369.5541, 275.8397
370.0362, 274.4688
370.5183, 273.3135
371.0005, 272.6998
371.4826, 272.4049
371.9647, 271.9424
372.4468, 271.3614
372.9289, 270.5374
373.4110, 269.3364
373.8932, 267.8735
374.3753, 266.3510
374.8574, 264.8113
375.3395, 263.2844
375.8216, 261.8373
376.3037, 260.4861
376.7859, 259.0664
377.2680, 257.5203
377.7501, 255.9249
378.2322, 254.3786
378.7143, 252.8690
379.1964, 251.2349
379.6786, 249.2787
380.1607, 247.0677
380.6428, 245.2877
381.1249, 244.0072
381.6070, 243.0192
382.0891, 242.3881
382.5713, 241.9803
383.0534, 241.5603
383.5355, 241.0253
384.0176, 240.4238
384.4997, 239.8444
384.9818, 239.1249
385.4640, 238.7230
385.9461, 238.7552
386.4282, 239.0457
386.9103, 239.5731
387.3924, 240.2663
387.8745, 240.8845
388.3567, 241.1814
388.8388, 241.1593
389.3209, 240.7651
389.8030, 239.7386
390.2851, 238.6678
390.7672, 237.7978
391.2494, 237.0527
391.7315, 236.2775
392.2136, 235.3946
392.6957, 234.3649
393.1778, 233.0175
393.6599, 230.6867
394.1421, 229.0127
394.6242, 228.6695
395.1063, 228.6895
395.5884, 228.1617
396.0706, 226.8802
396.5527, 225.3615
397.0348, 224.2793
397.5169, 223.7441
397.9990, 223.2249
398.4811, 222.7401
398.9633, 222.2580
399.4454, 221.6718
399.9275, 221.0711
400.4096, 220.6663
400.8917, 220.6321
401.3738, 220.8937
401.8560, 221.1546
402.3381, 221.4983
402.8202, 221.6734
403.3023, 221.3965
403.7844, 221.0348
404.2665, 220.9924
404.7487, 221.4006
405.2308, 221.9942
405.7129, 222.4075
406.1950, 222.6221
406.6771, 223.0783
407.1592, 224.0928
407.6414, 225.1239
408.1235, 225.6759
408.6056, 225.8422
409.0877, 226.1674
409.5698, 227.0584
410.0519, 228.3109
410.5341, 229.4066
411.0162, 230.2481
411.4983, 231.2446
411.9804, 232.7149
412.4625, 234.4915
412.9446, 236.2977
413.4268, 238.0650
413.9089, 239.8931
414.3910, 241.8489
414.8731, 243.9253
415.3552, 246.1040
415.8373, 248.4110
416.3195, 250.7654
416.8016, 253.1194
417.2837, 255.5076
417.7658, 257.6123
418.2479, 259.4016
418.7300, 260.8355
419.2122, 261.8642
419.6943, 262.4857
420.1764, 262.7438
420.6585, 262.5891
421.1406, 262.0623
421.6227, 261.7057
422.1049, 261.7931
422.5870, 261.7303
423.0691, 261.0598
423.5512, 260.1129
424.0333, 259.5121
424.5154, 259.5142
424.9976, 259.8684
425.4797, 260.0910
425.9618, 259.8761
426.4439, 260.1941
426.9260, 261.2773
427.4081, 262.6942
427.8903, 264.1459
428.3724, 265.6316
428.8545, 267.3195
429.3366, 269.3634
429.8187, 271.7654
430.3008, 274.2498
430.7830, 276.4453
431.2651, 279.1987
431.7472, 282.9832
432.2293, 287.2730
432.7114, 291.3705
433.1935, 295.0185
433.6757, 298.5519
434.1578, 302.5780
434.6399, 307.3422
435.1220, 311.6783
435.6041, 315.5449
436.0862, 318.8696
436.5684, 321.3791
437.0505, 323.2446
437.5326, 325.0634
438.0147, 327.5751
438.4968, 330.2435
438.9789, 331.1603
439.4611, 330.1321
439.9432, 327.8121
440.4253, 323.8342
440.9074, 318.9862
441.3895, 314.0120
441.8716, 309.0604
442.3538, 303.9458
442.8359, 298.4573
443.3180, 292.6227
443.8001, 286.8804
444.2822, 281.3038
444.7643, 275.7998
445.2465, 270.1341
445.7286, 264.3589
446.2107, 259.0423
446.6928, 254.2550
447.1749, 250.0395
447.6570, 246.7381
448.1392, 244.2487
448.6213, 241.5711
449.1034, 238.0306
449.5855, 234.1074
450.0677, 231.1837
450.5498, 229.5388
451.0319, 228.0742
451.5140, 226.5596
451.9961, 225.0605
452.4782, 223.6247
452.9604, 222.2695
453.4425, 221.0976
453.9246, 220.2512
454.4067, 219.7792
454.8888, 219.1193
455.3709, 218.0181
455.8531, 217.0424
456.3352, 216.4176
456.8173, 216.0562
457.2994, 215.7604
457.7815, 215.4398
458.2636, 215.2154
458.7458, 215.3913
459.2279, 216.3112
459.7100, 216.9111
460.1921, 216.7881
460.6742, 216.6929
461.1563, 217.1094
461.6385, 217.9831
462.1206, 218.9366
462.6027, 219.6817
463.0848, 220.2652
463.5669, 220.9304
464.0490, 221.6770
464.5312, 222.4977
465.0133, 223.4223
465.4954, 224.3909
465.9775, 225.3236
466.4596, 226.1991
466.9417, 227.1452
467.4239, 228.2849
467.9060, 229.6067
468.3881, 231.0355
468.8702, 232.5345
469.3523, 234.2053
469.8344, 236.2266
470.3166, 238.4998
470.7987, 240.7280
471.2808, 242.7892
471.7629, 244.8194
472.2450, 246.8750
472.7271, 248.9788
473.2093, 251.2748
473.6914, 253.8799
474.1735, 256.6039
474.6556, 259.0634
475.1377, 261.1599
475.6198, 263.3703
476.1020, 265.9366
476.5841, 268.5331
477.0662, 270.9447
477.5483, 273.1134
478.0304, 275.0152
478.5125, 276.5837
478.9947, 277.8702
479.4768, 279.2780
479.9589, 280.6966
480.4410, 282.3972
480.9231, 284.9224
481.4052, 287.4839
481.8874, 289.2078
482.3695, 289.9204
482.8516, 290.1381
483.3337, 290.5380
483.8158, 291.2129
484.2979, 291.2718
484.7801, 290.3869
485.2622, 289.2091
485.7443, 288.1235
486.2264, 286.8717
486.7085, 284.9249
487.1906, 281.9360
487.6728, 278.6261
488.1549, 276.1655
488.6370, 274.6367
489.1191, 272.5636
489.6012, 269.2298
490.0833, 265.6749
490.5655, 262.8141
491.0476, 260.5716
491.5297, 258.4616
492.0118, 256.3158
492.4939, 254.1796
492.9760, 252.1516
493.4582, 250.2200
493.9403, 248.2478
494.4224, 246.0963
494.9045, 243.9204
495.3866, 242.1671
495.8687, 240.9429
496.3509, 239.7582
496.8330, 238.5123
497.3151, 237.2388
497.7972, 235.9990
498.2793, 234.7883
498.7614, 233.5289
499.2436, 232.1571
499.7257, 230.6808
500.2078, 229.1603
500.6899, 227.1877
501.1720, 225.6663
501.6541, 225.0769
502.1363, 224.8471
502.6184, 224.2889
503.1005, 223.2534
503.5826, 222.2033
504.0647, 221.7878
504.5468, 222.0958
505.0290, 222.1457
505.5111, 221.7317
505.9932, 221.3087
506.4753, 221.0099
506.9575, 220.8327
507.4396, 220.7653
507.9217, 220.8040
508.4038, 220.9487
508.8859, 221.1397
509.3680, 221.3918
509.8502, 221.9872
510.3323, 223.0965
510.8144, 224.3940
511.2965, 225.5555
511.7786, 226.6089
512.2607, 227.7685
512.7429, 229.1482
513.2250, 230.6020
513.7071, 231.9841
514.1892, 233.3293
514.6713, 234.8090
515.1534, 236.5078
515.6356, 238.3833
516.1177, 240.3582
516.5998, 242.4874
517.0819, 244.6520
517.5640, 246.8031
518.0461, 249.0293
518.5283, 251.4149
519.0104, 253.9406
519.4925, 256.4239
519.9746, 258.6921
520.4567, 260.9843
520.9388, 264.2132
521.4210, 268.6805
521.9031, 273.5699
522.3852, 278.7838
522.8673, 284.3348
523.3494, 290.3882
523.8315, 296.8331
524.3137, 303.1977
524.7958, 308.9281
525.2779, 314.2758
525.7600, 320.1551
526.2421, 326.7747
526.7242, 333.1133
527.2064, 338.9815
527.6885, 344.1288
528.1706, 348.4544
528.6527, 352.0489
529.1348, 354.1747
529.6169, 354.4745
530.0991, 353.0683
530.5812, 349.9791
531.0633, 345.2269
531.5454, 339.4088
532.0275, 332.9321
532.5096, 325.7528
532.9918, 317.6828
533.4739, 307.8398
533.9560, 298.4429
534.4381, 289.7904
534.9202, 281.8916
535.4023, 274.8246
535.8845, 268.5842
536.3666, 262.8979
536.8487, 257.5230
537.3308, 252.4485
537.8129, 248.0331
538.2950, 244.6585
538.7772, 241.4787
539.2593, 238.2123
539.7414, 235.0750
540.2235, 232.2583
540.7056, 229.8259
541.1877, 227.8268
541.6699, 226.4403
542.1520, 225.5895
542.6341, 224.7031
543.1162, 223.6879
543.5983, 222.7757
544.0804, 222.0843
544.5626, 221.6144
545.0447, 221.3767
545.5268, 221.3194
546.0089, 221.6033
546.4910, 222.5750
546.9731, 223.8997
547.4553, 224.8599
547.9374, 225.3068
548.4195, 225.6972
548.9016, 226.4338
549.3837, 227.5203
549.8658, 228.9538
550.3480, 231.5157
550.8301, 233.4440
551.3122, 233.8276
551.7943, 233.4954
552.2764, 233.3877
552.7585, 233.7872
553.2407, 234.5219
553.7228, 235.5291
554.2049, 236.8602
554.6870, 237.4959
555.1691, 237.1823
555.6512, 236.4876
556.1334, 235.4491
556.6155, 234.2684
557.0976, 233.2245
557.5797, 232.4134
558.0618, 231.5713
558.5439, 230.3555
559.0261, 228.8994
559.5082, 227.7010
559.9903, 226.8645
560.4724, 226.1330
560.9545, 225.2329
561.4366, 224.2786
561.9188, 223.7529
562.4009, 223.9693
562.8830, 224.2297
563.3651, 224.1983
563.8472, 224.0890
564.3293, 224.1781
564.8115, 224.5302
565.2936, 225.0573
565.7757, 225.6179
566.2578, 226.2125
566.7399, 227.5353
567.2220, 230.5376
567.7042, 233.1422
568.1863, 234.6695
568.6684, 235.8140
569.1505, 237.1520
569.6326, 238.8502
570.1147, 240.9743
570.5969, 243.6867
571.0790, 246.9122
571.5611, 250.1662
572.0432, 253.4563
572.5253, 256.7403
573.0074, 259.7560
573.4896, 262.8596
573.9717, 266.5945
574.4538, 271.0056
574.9359, 275.9793
575.4180, 281.8369
575.9001, 288.0545
576.3823, 293.8099
576.8644, 299.0763
577.3465, 304.3951
577.8286, 310.1131
578.3107, 316.2383
578.7928, 322.8104
579.2750, 330.0736
579.7571, 337.5110
580.2392, 344.8828
580.7213, 352.5281
581.2034, 360.7523
581.6855, 369.5197
582.1677, 378.7309
582.6498, 388.2744
583.1319, 398.1634
583.6140, 408.2281
584.0961, 418.3799
584.5782, 429.1279
585.0604, 440.6935
585.5425, 452.9605
586.0246, 465.9629
586.5067, 479.6917
586.9889, 493.5309
587.4710, 507.0456
587.9531, 520.6596
588.4352, 535.2861
588.9174, 550.6239
589.3995, 565.1547
589.8816, 578.2186
590.3637, 590.0472
590.8458, 601.2297
591.3279, 612.1564
591.8101, 620.9821
592.2922, 628.0386
592.7743, 632.7409
593.2564, 635.2170
593.7385, 635.0118
594.2206, 631.1859
594.7028, 623.3203
595.1849, 612.1973
595.6670, 598.9421
596.1491, 583.4449
596.6312, 566.6600
597.1133, 548.2050
597.5955, 528.7380
598.0776, 507.8374
598.5597, 486.3920
599.0418, 466.1710
599.5239, 447.7946
600.0060, 430.1574
600.4882, 411.9755
600.9703, 393.9094
601.4524, 377.3803
601.9345, 362.6987
602.4166, 349.3384
602.8987, 337.0140
603.3809, 325.6879
603.8630, 315.6013
604.3451, 307.2806
604.8272, 299.2796
605.3093, 291.2723
605.7914, 283.5033
606.2736, 276.1440
606.7557, 269.2439
607.2378, 262.7217
607.7199, 256.3965
608.2020, 250.3987
608.6841, 245.5218
609.1663, 242.0473
609.6484, 238.8927
610.1305, 235.7515
610.6126, 232.7936
611.0947, 230.1728
611.5768, 227.8864
612.0590, 225.8210
612.5411, 224.1025
613.0232, 222.4396
613.5053, 220.4045
613.9874, 218.0944
614.4695, 215.9604
614.9517, 214.1788
615.4338, 212.6561
615.9159, 211.2188
616.3980, 209.8513
616.8801, 208.6580
617.3622, 207.4741
617.8444, 206.6023
618.3265, 206.5113
618.8086, 206.7055
619.2907, 206.3632
619.7728, 205.1909
620.2549, 203.7635
620.7371, 202.7962
621.2192, 202.2733
621.7013, 201.8647
622.1834, 201.7016
622.6655, 201.3148
623.1476, 200.1568
623.6298, 198.6865
624.1119, 197.7376
624.5940, 197.6239
625.0761, 197.2793
625.5582, 196.0282
626.0403, 194.3894
626.5225, 193.1183
627.0046, 192.1954
627.4867, 190.9666
627.9688, 188.9361
628.4509, 186.4336
628.9330, 184.5042
629.4152, 183.4583
629.8973, 182.4571
630.3794, 181.6009
630.8615, 180.6575
631.3436, 179.5793
631.8257, 178.2983
632.3079, 176.6114
632.7900, 174.2697
633.2721, 171.8681
633.7542, 170.2920
634.2363, 169.4665
634.7184, 168.7601
635.2006, 168.0704
635.6827, 167.4369
636.1648, 166.9876
636.6469, 166.6574
637.1290, 166.0082
637.6111, 164.5708
638.0933, 163.3826
638.5754, 163.1826
639.0575, 163.1926
639.5396, 162.3495
640.0217, 160.6327
640.5038, 158.9669
640.9860, 158.1102
641.4681, 157.9170
641.9502, 157.6604
642.4323, 157.3116
642.9144, 156.9705
643.3965, 156.8303
643.8787, 156.5585
644.3608, 155.8253
644.8429, 154.7164
645.3250, 153.6904
645.8071, 152.9127
646.2892, 152.3189
646.7714, 151.8606
647.2535, 151.5338
647.7356, 151.3499
648.2177, 151.3198
648.6998, 151.3643
649.1819, 151.4243
649.6641, 151.5112
650.1462, 151.3927
650.6283, 150.7904
651.1104, 150.3415
651.5925, 150.4557
652.0746, 150.6130
652.5568, 150.1416
653.0389, 149.0489
653.5210, 148.0870
654.0031, 147.9267
654.4852, 148.3161
654.9673, 148.5908
655.4495, 148.7490
655.9316, 148.7981
656.4137, 148.7346
656.8958, 148.5678
657.3779, 148.2865
657.8600, 147.8976
658.3422, 147.4748
658.8243, 146.7875
659.3064, 146.3186
659.7885, 146.5077
660.2706, 147.0374
660.7527, 147.3753
661.2349, 147.3717
661.7170, 147.2785
662.1991, 147.4111
662.6812, 147.7499
663.1633, 147.7829
663.6454, 147.2830
664.1276, 146.9250
664.6097, 147.0929
665.0918, 147.3876
665.5739, 147.4041
666.0560, 147.1328
666.5381, 147.0150
667.0203, 147.5085
667.5024, 148.0589
667.9845, 147.9566
668.4666, 147.3790
668.9487, 146.9947
669.4308, 147.0545
669.9130, 147.3117
670.3951, 147.4674
670.8772, 147.5377
671.3593, 147.3820
671.8414, 146.5307
672.3235, 146.0130
672.8057, 146.3270
673.2878, 146.9207
673.7699, 147.2145
674.2520, 147.1195
674.7341, 146.9520
675.2162, 147.0208
675.6984, 147.1553
676.1805, 146.9292
676.6626, 146.3581
677.1447, 145.9146
677.6268, 145.7890
678.1089, 145.8287
678.5911, 145.8159
679.0732, 145.7192
679.5553, 145.7744
680.0374, 146.1434
680.5195, 146.4736
681.0016, 146.6706
681.4838, 146.7339
681.9659, 146.6745
682.4480, 146.4924
682.9301, 146.1620
683.4122, 145.5520
683.8943, 144.7921
684.3765, 144.3781
684.8586, 144.3221
685.3407, 144.6105
685.8228, 145.4980
686.3049, 146.4382
686.7870, 146.6194
687.2692, 146.0723
687.7513, 145.7371
688.2334, 145.9704
688.7155, 146.2190
689.1976, 146.2512
689.6797, 146.0803
690.1619, 145.6544
690.6440, 145.0083
691.1261, 144.4205
691.6082, 144.1811
692.0903, 144.2472
692.5724, 144.2940
693.0546, 144.2585
693.5367, 144.4041
694.0188, 145.1031
694.5009, 145.7508
694.9830, 145.7046
695.4651, 145.0516
695.9473, 144.5266
696.4294, 144.2911
696.9116, 144.3027
697.3937, 144.6138
697.8758, 145.1282
698.3579, 145.7670
698.8400, 146.4724
699.3221, 146.9611
699.8043, 146.8910
700.2864, 146.3845
700.7685, 146.4217
701.2506, 147.3283
701.7327, 148.0821
702.2148, 148.3396
702.6970, 148.4969
703.1791, 148.8289
703.6612, 149.2864
704.1433, 149.6339
704.6254, 149.7184
705.1075, 149.7480
705.5897, 149.9150
706.0718, 150.1467
706.5539, 150.2106
707.0360, 150.0889
707.5181, 150.1593
708.0002, 150.7735
708.4824, 151.7951
708.9645, 152.5172
709.4466, 152.6840
709.9287, 153.0500
710.4108, 153.8205
710.8929, 154.6704
711.3751, 155.4987
711.8572, 156.2593
712.3393, 156.8244
712.8214, 157.0525
713.3035, 157.3350
713.7856, 158.0980
714.2678, 159.1401
714.7499, 159.9917
715.2320, 160.6038
715.7141, 161.4038
716.1962, 162.7383
716.6783, 164.3229
717.1605, 165.2462
717.6426, 164.7753
718.1247, 165.0789
718.6068, 166.5805
719.0889, 168.3689
719.5710, 170.3745
720.0532, 172.2929
720.5353, 173.5438
721.0174, 173.8699
721.4995, 174.2619
721.9816, 175.6101
722.4637, 177.5558
722.9459, 179.4906
723.4280, 181.3553
723.9101, 182.9974
724.3922, 184.3027
724.8743, 185.5297
725.3564, 187.1753
725.8386, 189.3843
726.3207, 191.5084
726.8028, 193.4209
727.2849, 195.4206
727.7670, 197.6852
728.2491, 200.0540
728.7313, 202.3142
729.2134, 204.4483
729.6955, 206.6021
730.1776, 208.7279
730.6597, 211.0231
731.1418, 213.9397
731.6240, 217.3643
732.1061, 220.7110
732.5882, 223.7839
733.0703, 226.5870
733.5524, 229.1173
734.0345, 231.3720
734.5167, 233.4333
734.9988, 235.0511
735.4809, 236.8059
735.9630, 238.9038
736.4451, 241.0685
736.9272, 243.2534
737.4094, 245.3247
737.8915, 246.8846
738.3736, 247.4961
738.8557, 247.8050
739.3378, 248.6668
739.8199, 249.8236
740.3021, 250.4421
740.7842, 250.3572
741.2663, 250.0478
741.7484, 249.8639
742.2305, 249.7997
742.7126, 249.8308
743.1948, 249.9809
743.6769, 250.1845
744.1590, 250.5358
744.6411, 250.8376
745.1232, 251.1299
745.6053, 251.2659
746.0875, 250.9058
746.5696, 249.8476
747.0517, 248.7079
747.5338, 248.2684
748.0159, 247.9341
748.4980, 246.8026
748.9802, 244.7834
749.4623, 241.8555
749.9444, 237.9055
750.4265, 233.4671
750.9086, 229.5409
751.3907, 226.3223
751.8729, 222.7048
752.3550, 218.4677
752.8371, 214.0596
753.3192, 209.2840
753.8013, 204.6162
754.2834, 200.6935
754.7656, 197.5462
755.2477, 194.4067
755.7298, 190.7743
756.2119, 187.0824
756.6940, 183.8228
757.1761, 180.8238
757.6583, 177.5370
758.1404, 173.8430
758.6225, 170.3727
759.1046, 167.7796
759.5867, 165.9344
760.0688, 163.7950
760.5510, 161.1361
761.0331, 158.8305
761.5152, 157.3291
761.9973, 155.9308
762.4794, 154.0154
762.9615, 151.7879
763.4437, 149.9223
763.9258, 148.6707
764.4079, 147.5957
764.8900, 146.5743
765.3721, 145.5696
765.8542, 144.4987
766.3364, 143.3952
766.8185, 142.3983
767.3006, 141.5850
767.7827, 140.8901
768.2648, 140.2290
768.7469, 139.6075
769.2291, 138.8654
769.7112, 137.9000
770.1933, 137.0693
770.6754, 136.7191
771.1575, 136.4882
771.6396, 135.6234
772.1218, 133.9421
772.6039, 132.9181
773.0860, 133.4866
773.5681, 134.0146
774.0502, 133.5850
774.5323, 132.6022
775.0145, 131.5544
775.4966, 130.6209
775.9787, 129.9706
776.4608, 129.8605
776.9429, 130.0230
777.4250, 129.7635
777.9072, 129.0950
778.3893, 128.5158
778.8714, 128.1192
779.3535, 127.9216
779.8356, 128.0307
780.3177, 128.3625
780.7999, 128.3395
781.2820, 127.5721
781.7641, 127.0179
782.2462, 126.7964
782.7283, 126.7282
783.2104, 126.6991
783.6926, 126.7363
784.1747, 127.0137
784.6568, 127.6456
785.1389, 128.0346
785.6210, 127.3462
786.1031, 126.1600
786.5853, 125.6243
787.0674, 125.7410
787.5495, 126.0495
788.0316, 126.3833
788.5137, 126.5673
788.9958, 126.3031
789.4780, 125.5433
789.9601, 124.9967
790.4422, 124.5008
790.9243, 124.4938
791.4064, 125.5368
791.8885, 126.7324
792.3707, 127.3565
792.8528, 127.4556
793.3349, 127.5429
793.8170, 127.8729
794.2991, 128.1179
794.7813, 127.9970
795.2634, 127.7093
795.7455, 127.4938
796.2276, 127.3940
796.7097, 127.3934
797.1918, 127.4825
797.6740, 127.6584
798.1561, 128.0026
798.6382, 128.5340
799.1203, 128.6230
799.6024, 128.0276
800.0845, 127.5890
800.5667, 127.7758
801.0488, 128.3264
801.5309, 128.8085
802.0130, 129.2365
802.4951, 129.5496
802.9772, 129.5019
803.4594, 129.6157
803.9415, 130.3327
804.4236, 131.2112
804.9057, 131.5182
805.3878, 131.3064
805.8699, 131.5768
806.3521, 133.4075
806.8342, 135.5018
807.3163, 135.6128
807.7985, 134.1989
808.2806, 133.0590
808.7627, 132.5141
809.2448, 132.6278
809.7269, 133.5612
810.2090, 135.0066
810.6912, 136.0009
811.1733, 136.3313
811.6554, 136.7257
812.1375, 137.2411
812.6196, 137.7584
813.1017, 138.3700
813.5839, 138.8887
814.0660, 138.9780
814.5481, 138.5780
815.0302, 138.2917
815.5123, 138.4039
815.9944, 138.6985
816.4766, 139.1697
816.9587, 139.6434
817.4408, 139.7744
817.9229, 139.5185
818.4050, 139.1419
818.8871, 138.8409
819.3693, 138.6221
819.8514, 138.5708
820.3335, 138.7045
820.8156, 138.5632
821.2977, 138.0379
821.7798, 137.3352
822.2620, 136.5220
822.7441, 135.6564
823.2262, 134.9117
823.7083, 134.3136
824.1904, 133.7701
824.6725, 133.5347
825.1547, 133.0676
825.6368, 131.8169
826.1189, 130.3461
826.6010, 129.4975
827.0831, 129.3737
827.5652, 129.1780
828.0474, 128.1278
828.5295, 126.9409
829.0116, 126.6635
829.4937, 126.9245
829.9758, 126.6733
830.4579, 125.7262
830.9401, 124.7884
831.4222, 124.4140
831.9043, 124.4158
832.3864, 124.2202
832.8685, 123.7737
833.3506, 123.4126
833.8328, 123.2247
834.3149, 123.0086
834.7970, 122.6334
835.2791, 122.1730
835.7612, 121.7155
836.2433, 121.2110
836.7255, 120.9979
837.2076, 121.4271
837.6897, 121.8281
838.1718, 121.8907
838.6539, 121.7338
839.1360, 121.3814
839.6182, 120.9391
840.1003, 120.8027
840.5824, 121.3718
841.0645, 122.1158
841.5466, 122.2604
842.0287, 121.9759
842.5109, 121.8042
842.9930, 121.8183
843.4751, 121.8125
843.9572, 121.6409
844.4393, 121.4546
844.9214, 121.6069
845.4036, 122.1894
845.8857, 122.6708
846.3678, 123.1902
846.8499, 123.3559
847.3320, 122.5683
847.8141, 121.6789
848.2963, 121.6784
848.7784, 122.5311
849.2605, 123.2615
849.7426, 123.5444
850.2247, 123.8522
850.7068, 124.5042
851.1890, 125.1742
851.6711, 125.4510
852.1532, 125.4298
852.6353, 125.5104
853.1174, 125.8842
853.5995, 126.4374
854.0817, 127.1981
854.5638, 128.0081
855.0459, 128.3594
855.5280, 128.2720
856.0101, 128.2188
856.4922, 128.3912
856.9744, 128.6508
857.4565, 128.8152
857.9386, 128.8907
858.4207, 129.0737
858.9028, 129.5126
859.3849, 129.6853
859.8671, 129.2480
860.3492, 128.7808
860.8313, 128.8428
861.3134, 129.2008
861.7955, 129.1842
862.2776, 128.5110
862.7598, 127.9795
863.2419, 128.0001
863.7240, 128.0302
864.2061, 127.5734
864.6882, 126.9162
865.1703, 126.6726
865.6525, 126.9442
866.1346, 127.0532
866.6167, 126.2451
867.0988, 125.1323
867.5809, 124.7920
868.0630, 124.9838
868.5452, 124.8502
869.0273, 124.2331
869.5094, 123.6071
869.9915, 123.3436
870.4736, 123.2237
870.9557, 122.6130
871.4379, 121.3698
871.9200, 120.3989
872.4021, 119.6727
872.8842, 119.3688
873.3663, 119.8516
873.8484, 120.5819
874.3306, 120.7597
874.8127, 120.3808
875.2948, 119.9142
875.7769, 119.1752
876.2590, 118.6314
876.7411, 118.7899
877.2233, 118.9049
877.7054, 118.0635
878.1875, 116.6142
878.6696, 115.7280
879.1517, 115.9902
879.6339, 116.3530
880.1160, 115.8416
880.5981, 115.0131
881.0802, 114.6751
881.5623, 114.7386
882.0444, 114.7220
882.5266, 114.4627
883.0087, 114.1171
883.4908, 113.7800
883.9729, 113.5452
884.4550, 113.9793
884.9371, 115.1520
885.4193, 115.6639
885.9014, 115.1129
886.3835, 114.3920
886.8656, 114.0889
887.3477, 114.0901
887.8298, 114.0960
888.3120, 114.1645
888.7941, 114.0819
889.2762, 113.7094
889.7583, 113.3563
890.2404, 113.1291
890.7225, 112.9568
891.2047, 112.7552
891.6868, 112.5280
892.1689, 112.3497
892.6510, 112.1410
893.1331, 112.1245
893.6152, 112.7284
894.0974, 113.3536
894.5795, 113.0372
895.0616, 112.1756
895.5437, 112.1322
896.0258, 113.4674
896.5079, 115.0216
896.9901, 115.5860
897.4722, 115.4346
897.9543, 114.9996
898.4364, 114.3842
898.9185, 114.1199
899.4006, 114.3572
899.8828, 114.8492
900.3649, 115.4379
900.8470, 116.0145
901.3291, 116.1142
901.8112, 115.5753
902.2933, 115.3922
902.7755, 115.8115
903.2576, 116.2034
903.7397, 116.2440
904.2218, 116.0830
904.7039, 115.9558
905.1860, 115.8750
905.6682, 115.7401
906.1503, 115.4500
906.6324, 115.2402
907.1145, 115.1890
907.5966, 115.2220
908.0787, 115.3018
908.5609, 115.4113
909.0430, 115.5547
909.5251, 115.7870
910.0072, 115.8346
910.4893, 115.4450
910.9714, 114.8698
911.4536, 114.2065
911.9357, 113.6001
912.4178, 113.3774
912.8999, 113.5670
913.3820, 113.7618
913.8641, 113.6274
914.3463, 113.2987
914.8284, 112.9591
915.3105, 112.6404
915.7926, 112.5102
916.2748, 112.5878
916.7569, 112.7173
917.2390, 112.8148
917.7211, 112.9114
918.2032, 113.0363
918.6854, 113.1819
919.1675, 113.6350
919.6496, 114.6242
920.1317, 115.1678
920.6138, 114.7217
921.0959, 114.1971
921.5781, 114.4834
922.0602, 115.3726
922.5423, 115.8294
923.0244, 115.5173
923.5065, 115.4231
923.9886, 115.6592
924.4708, 116.0355
924.9529, 116.5001
925.4350, 117.0395
925.9171, 117.7058
926.3992, 118.4735
926.8813, 119.0833
927.3635, 119.2712
927.8456, 119.4688
928.3277, 119.9697
928.8098, 120.5775
929.2919, 121.1616
929.7740, 121.6437
930.2562, 121.8381
930.7383, 121.6691
931.2204, 121.5577
931.7025, 122.0359
932.1846, 122.7915
932.6667, 123.1620
933.1489, 123.2812
933.6310, 123.7169
934.1131, 124.5770
934.5952, 125.4925
935.0773, 126.2046
935.5594, 126.7204
936.0416, 126.9821
936.5237, 126.9866
937.0058, 127.2036
937.4879, 127.7326
937.9700, 127.9530
938.4521, 127.4697
938.9343, 126.9510
939.4164, 127.2960
939.8985, 128.4217
940.3806, 128.8219
940.8627, 127.9179
941.3448, 127.4342
941.8270, 127.8322
942.3091, 128.3271
942.7912, 128.6061
943.2733, 128.6759
943.7554, 128.5081
944.2375, 128.0739
944.7197, 127.6469
945.2018, 127.2206
945.6839, 126.8727
946.1660, 126.5778
946.6481, 126.4179
947.1302, 126.5515
947.6124, 126.8803
948.0945, 127.1508
948.5766, 127.3102
949.0587, 127.2353
949.5408, 126.5147
950.0229, 125.8146
950.5051, 125.8930
950.9872, 126.4594
951.4693, 126.9291
951.9514, 127.1870
952.4335, 127.4427
952.9156, 127.8432
953.3978, 128.3109
953.8799, 128.6403
954.3620, 128.9668
954.8441, 129.7583
955.3262, 130.9713
955.8083, 132.0757
956.2905, 132.8614
956.7726, 133.5335
957.2547, 134.3103
957.7368, 135.1864
958.2189, 136.0868
958.7010, 136.9931
959.1832, 138.4217
959.6653, 140.5496
960.1474, 142.7641
960.6295, 144.7466
961.1116, 146.5576
961.5938, 148.2798
962.0759, 149.8840
962.5580, 151.7022
963.0401, 153.6853
963.5222, 155.9879
964.0043, 158.7971
964.4865, 161.7485
964.9686, 164.5473
965.4507, 167.2602
965.9328, 170.1150
966.4149, 173.1946
966.8970, 176.1777
967.3792, 178.7726
967.8613, 181.5874
968.3434, 185.0997
968.8255, 188.7609
969.3076, 192.1745
969.7897, 195.2451
970.2719, 197.7498
970.7540, 199.4421
971.2361, 200.9994
971.7182, 203.2667
972.2003, 204.9780
972.6824, 204.8856
973.1646, 203.6570
973.6467, 202.3509
974.1288, 201.2057
974.6109, 199.9303
975.0930, 198.1489
975.5751, 196.5170
976.0573, 195.9903
976.5394, 195.7921
977.0215, 194.7704
977.5036, 192.9730
977.9857, 190.9371
978.4678, 188.8558
978.9500, 186.6376
979.4321, 184.0314
979.9142, 181.3936
980.3963, 179.6892
980.8784, 178.5958
981.3605, 176.8697
981.8427, 174.3866
982.3248, 171.9646
982.8069, 170.0501
983.2890, 168.2516
983.7711, 165.9250
984.2532, 163.1686
984.7354, 160.7243
985.2175, 158.6100
985.6996, 155.9905
986.1817, 152.5160
986.6638, 149.6735
987.1459, 148.6878
987.6281, 148.6442
988.1102, 147.3635
988.5923, 144.5476
989.0744, 142.7262
989.5565, 142.1761
990.0386, 141.7881
990.5208, 141.2543
991.0029, 140.8097
991.4850, 140.7430
991.9671, 140.9150
992.4492, 140.7486
992.9313, 139.8508
993.4135, 139.5692
993.8956, 140.4465
994.3777, 141.2117
994.8598, 141.1617
995.3419, 141.0633
995.8240, 141.8152
996.3062, 143.2260
996.7883, 144.1329
997.2704, 143.9350
997.7525, 144.1420
998.2346, 145.1416
998.7167, 146.3852
999.1989, 147.8822
999.6810, 149.3001
1000.163, 150.0635
1000.645, 150.2628
1001.127, 150.8962
1001.609, 152.7263
1002.092, 154.2944
1002.574, 154.6169
1003.056, 154.8382
1003.538, 155.9559
1004.020, 157.5603
1004.502, 158.9162
1004.984, 159.8710
1005.466, 160.6455
1005.948, 161.1364
1006.431, 161.7926
1006.913, 163.1496
1007.395, 164.7018
1007.877, 165.9373
1008.359, 166.8260
1008.841, 167.3803
1009.323, 167.6396
1009.805, 167.9048
1010.288, 168.4904
1010.770, 169.0986
1011.252, 169.4065
1011.734, 169.4570
1012.216, 169.3043
1012.698, 168.9692
1013.180, 168.4824
1013.662, 167.8574
1014.144, 167.0864
1014.627, 166.1815
1015.109, 165.1081
1015.591, 163.7581
1016.073, 162.1902
1016.555, 160.6248
1017.037, 159.0701
1017.519, 157.2330
1018.001, 154.9634
1018.484, 152.8052
1018.966, 151.6780
1019.448, 151.1649
1019.930, 149.6167
1020.412, 147.1670
1020.894, 144.9950
1021.376, 143.3087
1021.858, 141.6684
1022.340, 139.8255
1022.823, 137.8569
1023.305, 135.7756
1023.787, 133.6479
1024.269, 132.2732
1024.751, 131.7149
1025.233, 130.3872
1025.715, 127.8074
1026.197, 125.7935
1026.680, 125.6968
1027.162, 126.2691
1027.644, 125.0109
1028.126, 121.8617
1028.608, 119.7313
1029.090, 118.8192
1029.572, 118.0447
1030.054, 117.2364
1030.536, 116.3494
1031.019, 115.2790
1031.501, 114.2072
1031.983, 113.5512
1032.465, 113.3962
1032.947, 112.9987
1033.429, 112.2846
1033.911, 111.5067
1034.393, 110.6702
1034.875, 109.8472
1035.358, 108.9937
1035.840, 108.2549
1036.322, 108.0148
1036.804, 108.3965
1037.286, 108.6977
1037.768, 109.0770
1038.250, 109.0777
1038.732, 108.3803
1039.215, 107.5387
1039.697, 106.8294
1040.179, 106.3052
1040.661, 106.1581
1041.143, 106.5687
1041.625, 106.6850
1042.107, 106.2694
1042.589, 105.8864
1043.072, 105.7017
1043.554, 105.5317
1044.036, 105.1968
1044.518, 104.7931
1045.000, 104.5569
1045.482, 104.5228
1045.964, 104.5491
1046.446, 104.9255
1046.928, 104.9596
1047.411, 104.0609
1047.893, 103.1474
1048.375, 102.8971
1048.857, 103.1526
1049.339, 103.5521
1049.821, 104.1480
1050.303, 104.4352
1050.785, 104.3702
1051.267, 103.9403
1051.750, 102.6478
1052.232, 101.4377
1052.714, 101.2130
1053.196, 101.6116
1053.678, 101.7119
1054.160, 101.3062
1054.642, 101.1283
1055.124, 101.4648
1055.607, 101.9038
1056.089, 102.4604
1056.571, 102.9079
1057.053, 103.0235
1057.535, 102.9017
1058.017, 102.7046
1058.499, 102.4339
1058.981, 102.4068
1059.464, 103.0058
1059.946, 103.4950
1060.428, 103.5425
1060.910, 103.3874
1061.392, 103.0547
1061.874, 102.7418
1062.356, 102.9063
1062.838, 103.6638
1063.320, 104.0925
1063.802, 103.5601
1064.285, 103.0244
1064.767, 102.8676
1065.249, 102.9254
1065.731, 103.2827
1066.213, 103.6604
1066.695, 103.4485
1067.177, 102.5446
1067.659, 101.9012
1068.142, 102.1174
1068.624, 102.3911
1069.106, 102.3535
1069.588, 102.2139
1070.070, 102.0841
1070.552, 102.0122
1071.034, 102.1137
1071.516, 102.3851
1071.999, 102.4823
1072.481, 102.0557
1072.963, 101.6957
1073.445, 101.9107
1073.927, 102.0773
1074.409, 101.5681
1074.891, 100.6994
1075.373, 100.0225
1075.855, 99.62461
1076.338, 99.25945
1076.820, 98.79967
1077.302, 98.39660
1077.784, 98.16270
1078.266, 97.97705
1078.748, 97.76187
1079.230, 97.52332
1079.712, 97.25822
1080.194, 96.98473
1080.677, 96.79233
1081.159, 96.71922
1081.641, 96.72477
1082.123, 96.83577
1082.605, 96.97176
1083.087, 97.03029
1083.569, 97.10338
1084.052, 97.50179
1084.534, 98.08097
1085.016, 98.02113
1085.498, 96.70855
1085.980, 95.73492
1086.462, 96.15615
1086.944, 96.74586
1087.426, 96.71520
1087.908, 96.39239
1088.391, 96.03920
1088.873, 95.81049
1089.355, 96.09972
1089.837, 97.19773
1090.319, 98.02707
1090.801, 98.12415
1091.283, 97.87768
1091.765, 97.25844
1092.247, 96.60035
1092.730, 96.19310
1093.212, 96.03382
1093.694, 96.04542
1094.176, 96.23296
1094.658, 96.40591
1095.140, 96.62952
1095.622, 96.65308
1096.104, 96.15904
1096.587, 95.59803
1097.069, 95.34155
1097.551, 95.32774
1098.033, 95.40211
1098.515, 95.54240
1098.997, 95.60532
1099.479, 95.53252
1099.961, 95.39907
1100.443, 95.25610
1100.926, 95.03539
1101.408, 94.50893
1101.890, 93.96256
1102.372, 93.93064
1102.854, 94.43724
1103.336, 94.77850
1103.818, 94.67939
1104.300, 94.57895
1104.782, 94.49851
1105.265, 94.52348
1105.747, 94.69252
1106.229, 94.99780
1106.711, 95.68919
1107.193, 96.60790
1107.675, 96.61316
1108.157, 94.78368
1108.639, 93.54453
1109.122, 93.38705
1109.604, 93.63653
1110.086, 94.50593
1110.568, 95.27353
1111.050, 95.10400
1111.532, 94.23991
1112.014, 93.68375
1112.496, 93.65966
1112.979, 93.44891
1113.461, 92.86490
1113.943, 92.31172
1114.425, 91.94250
1114.907, 91.57725
1115.389, 90.91301
1115.871, 90.22202
1116.353, 90.19703
1116.835, 91.01354
1117.318, 91.44582
1117.800, 91.22726
1118.282, 91.11479
1118.764, 91.23244
1119.246, 91.46725
1119.728, 91.86064
1120.210, 92.23473
1120.692, 92.28138
1121.174, 92.00977
1121.657, 91.88391
1122.139, 91.97354
1122.621, 92.01720
1123.103, 91.99789
1123.585, 91.90486
1124.067, 91.66236
1124.549, 91.48742
1125.031, 91.65623
1125.514, 92.08051
1125.996, 92.36227
1126.478, 92.50658
1126.960, 92.47248
1127.442, 92.25510
1127.924, 91.78496
1128.406, 90.90427
1128.888, 90.35529
1129.370, 90.82064
1129.853, 91.81648
1130.335, 92.21767
1130.817, 92.02666
1131.299, 91.79330
1131.781, 91.51952
1132.263, 91.12256
1132.745, 90.57993
1133.227, 89.96677
1133.709, 89.30753
1134.192, 88.74741
1134.674, 88.50686
1135.156, 88.54147
1135.638, 88.75814
1136.120, 89.10755
1136.602, 89.11198
1137.084, 88.76807
1137.566, 88.71972
1138.049, 89.20985
1138.531, 89.63880
1139.013, 89.37228
1139.495, 88.83518
1139.977, 88.93885
1140.459, 89.42766
1140.941, 89.55567
1141.423, 89.37247
1141.906, 89.29723
1142.388, 89.39996
1142.870, 89.33204
1143.352, 88.84010
1143.834, 88.32793
1144.316, 88.45940
1144.798, 88.73489
1145.280, 88.17060
1145.762, 87.25581
1146.245, 87.03402
1146.727, 87.49503
1147.209, 88.05560
1147.691, 88.48635
1148.173, 88.71863
1148.655, 88.73915
1149.137, 88.50181
1149.619, 87.72390
1150.101, 86.86243
1150.584, 86.44495
1151.066, 86.37572
1151.548, 86.46727
1152.030, 86.61877
1152.512, 86.47462
1152.994, 85.58288
1153.476, 84.97979
1153.958, 85.40987
1154.441, 86.03564
1154.923, 86.37981
1155.405, 86.53505
1155.887, 86.65004
1156.369, 86.71956
1156.851, 86.66180
1157.333, 86.45129
1157.815, 86.15189
1158.297, 85.57040
1158.780, 85.18530
1159.262, 85.33646
1159.744, 85.54964
1160.226, 85.44336
1160.708, 85.17974
1161.190, 85.08280
1161.672, 85.16992
1162.154, 85.23595
1162.636, 85.35057
1163.119, 85.30434
1163.601, 84.97740
1164.083, 84.67495
1164.565, 84.55046
1165.047, 84.45226
1165.529, 84.18748
1166.011, 83.83147
1166.493, 83.70474
1166.976, 83.85701
1167.458, 83.97293
1167.940, 84.02249
1168.422, 84.21082
1168.904, 84.61864
1169.386, 85.02248
1169.868, 85.29231
1170.350, 85.38405
1170.833, 85.16244
1171.315, 84.71258
1171.797, 84.49123
1172.279, 84.50539
1172.761, 84.98033
1173.243, 85.87650
1173.725, 86.28389
1174.207, 85.87126
1174.689, 85.56448
1175.172, 86.33171
1175.654, 87.31496
1176.136, 86.76273
1176.618, 85.42550
1177.100, 85.00112
1177.582, 85.32374
1178.064, 85.77932
1178.546, 86.17329
1179.028, 86.35316
1179.511, 86.23502
1179.993, 86.06844
1180.475, 85.95219
1180.957, 86.01045
1181.439, 86.60505
1181.921, 87.26527
1182.403, 87.36968
1182.885, 87.05606
1183.368, 86.63887
1183.850, 86.23338
1184.332, 86.12911
1184.814, 86.70139
1185.296, 87.12355
1185.778, 86.80117
1186.260, 86.52352
1186.742, 87.01546
1187.224, 87.60741
1187.707, 87.48325
1188.189, 86.80170
1188.671, 86.24004
1189.153, 85.78959
1189.635, 85.73952
1190.117, 86.40771
1190.599, 87.03328
1191.081, 87.59510
1191.564, 87.95955
1192.046, 87.98518
1192.528, 87.85180
1193.010, 87.77390
1193.492, 87.76157
1193.974, 87.92178
1194.456, 88.31228
1194.938, 88.56054
1195.421, 88.62643
1195.903, 88.67840
1196.385, 88.76386
1196.867, 88.86291
1197.349, 88.96399
1197.831, 89.05525
1198.313, 89.10509
1198.795, 89.12727
1199.277, 89.19405
1199.760, 89.29670
1200.242, 89.35930
1200.724, 89.39725
1201.206, 89.66977
1201.688, 90.22794
1202.170, 90.42429
1202.652, 89.57739
1203.134, 88.48985
1203.616, 88.03388
1204.099, 88.08189
1204.581, 88.83885
1205.063, 89.77702
1205.545, 89.86282
1206.027, 89.17451
1206.509, 88.57546
1206.991, 88.37151
1207.473, 88.32496
1207.956, 88.55785
1208.438, 88.59275
1208.920, 87.91787
1209.402, 87.21246
1209.884, 87.00565
1210.366, 87.13386
1210.848, 87.40714
1211.330, 87.76406
1211.813, 87.86951
1212.295, 87.59197
1212.777, 87.24795
1213.259, 86.63837
1213.741, 86.32809
1214.223, 86.75514
1214.705, 87.02410
1215.187, 86.36240
1215.669, 85.35764
1216.151, 85.14034
1216.634, 85.64683
1217.116, 85.77914
1217.598, 85.49980
1218.080, 85.30500
1218.562, 85.24332
1219.044, 85.25719
1219.526, 85.32863
1220.008, 85.39773
1220.491, 85.41723
1220.973, 85.39983
1221.455, 85.38667
1221.937, 85.34529
1222.419, 85.10081
1222.901, 84.78214
1223.383, 84.82713
1223.865, 85.15845
1224.348, 85.22980
1224.830, 84.88181
1225.312, 84.63011
1225.794, 84.82292
1226.276, 85.23242
1226.758, 85.73537
1227.240, 86.32602
1227.722, 87.22872
1228.204, 88.05053
1228.687, 88.26897
1229.169, 87.93858
1229.651, 87.36858
1230.133, 86.55833
1230.615, 85.86533
1231.097, 85.16325
1231.579, 84.87267
1232.061, 85.53149
1232.543, 86.03316
1233.026, 85.75223
1233.508, 85.21727
1233.990, 84.99291
1234.472, 85.02617
1234.954, 85.09746
1235.436, 85.19658
1235.918, 85.43919
1236.400, 85.84831
1236.883, 86.17929
1237.365, 86.38566
1237.847, 86.32394
1238.329, 85.89812
1238.811, 85.54585
1239.293, 85.83516
1239.775, 86.42681
1240.257, 86.69530
1240.740, 86.67911
1241.222, 86.25967
1241.704, 85.69084
1242.186, 85.74425
1242.668, 86.38480
1243.150, 86.73819
1243.632, 86.40112
1244.114, 86.08138
1244.596, 86.45264
1245.078, 86.73425
1245.561, 86.39021
1246.043, 85.78545
1246.525, 84.94120
1247.007, 84.22241
1247.489, 84.24223
1247.971, 84.91671
1248.453, 85.37987
1248.935, 85.46806
1249.418, 85.53490
1249.900, 85.64800
1250.382, 85.62321
1250.864, 85.45049
1251.346, 85.03452
1251.828, 84.19310
1252.310, 83.39883
1252.792, 83.34970
1253.275, 83.80179
1253.757, 83.58768
1254.239, 82.81221
1254.721, 83.03076
1255.203, 84.12752
1255.685, 84.42671
1256.167, 83.66603
1256.649, 83.06853
1257.131, 83.27155
1257.614, 83.56705
1258.096, 83.13216
1258.578, 82.57085
1259.060, 82.61665
1259.542, 82.92444
1260.024, 83.11343
1260.506, 83.22127
1260.988, 83.36388
1261.470, 83.55696
1261.953, 83.77305
1262.435, 84.00366
1262.917, 84.26171
1263.399, 84.80145
1263.881, 85.00667
1264.363, 84.42908
1264.845, 83.82112
1265.327, 83.62090
1265.810, 83.49763
1266.292, 82.99864
1266.774, 82.29726
1267.256, 82.13403
1267.738, 82.57253
1268.220, 82.90202
1268.702, 83.12033
1269.184, 83.27339
1269.667, 83.36668
1270.149, 83.28337
1270.631, 82.97205
1271.113, 82.68359
1271.595, 82.67934
1272.077, 82.77108
1272.559, 82.62432
1273.041, 82.43435
1273.523, 82.51293
1274.005, 82.75871
1274.488, 83.08118
1274.970, 83.35728
1275.452, 83.25359
1275.934, 82.68128
1276.416, 82.32626
1276.898, 82.66626
1277.380, 82.92207
1277.862, 82.66466
1278.345, 82.55125
1278.827, 83.14526
1279.309, 83.75700
1279.791, 83.75930
1280.273, 83.42850
1280.755, 83.36974
1281.237, 83.58040
1281.719, 83.85396
1282.202, 84.19688
1282.684, 84.48284
1283.166, 84.70100
1283.648, 84.83997
1284.130, 84.89948
1284.612, 85.00681
1285.094, 85.26029
1285.576, 85.50925
1286.058, 85.54544
1286.541, 85.47210
1287.023, 85.43035
##END=



