##NAMES=Ullmannite
##RRUFFID=R050247
##IDEAL CHEMISTRY=NiSbS
##LOCALITY=Salchendorf, Siegerland, North Rhine-Westphalia, Germany
##OWNER=RRUFF
##SOURCE=Marcus Origlieri
##DESCRIPTION=Steel gray massive
##STATUS=The identification of this mineral has been confirmed by X-ray diffraction and chemical analysis
##URL=rruff.info/R050247
##MEASURED CHEMISTRY=Ni_1.00_(Sb_0.78_As_0.22_)S_1.00_
109.956, 4097.643
110.439, 4075.874
110.921, 4069.597
111.403, 4080.751
111.885, 4117.731
112.367, 4171.678
112.849, 4199.749
113.331, 4173.173
113.813, 4146.093
114.296, 4150.947
114.778, 4187.319
115.260, 4242.891
115.742, 4316.361
116.224, 4403.852
116.706, 4491.279
117.188, 4589.620
117.670, 4680.708
118.152, 4750.477
118.635, 4801.078
119.117, 4818.149
119.599, 4768.042
120.081, 4676.136
120.563, 4585.063
121.045, 4503.954
121.527, 4432.907
122.009, 4372.314
122.492, 4322.656
122.974, 4283.374
123.456, 4247.638
123.938, 4220.165
124.420, 4213.514
124.902, 4237.298
125.384, 4287.863
125.866, 4350.134
126.349, 4423.050
126.831, 4511.638
127.313, 4616.816
127.795, 4736.755
128.277, 4869.131
128.759, 5008.849
129.241, 5156.813
129.723, 5324.901
130.205, 5530.487
130.688, 5740.097
131.170, 5940.583
131.652, 6132.766
132.134, 6325.833
132.616, 6541.262
133.098, 6789.866
133.580, 6978.085
134.062, 7087.536
134.544, 7148.250
135.027, 7170.395
135.509, 7153.596
135.991, 7090.179
136.473, 6969.250
136.955, 6781.006
137.437, 6561.630
137.919, 6281.104
138.401, 5996.573
138.884, 5728.278
139.366, 5483.346
139.848, 5265.298
140.330, 5079.171
140.812, 4921.999
141.294, 4808.557
141.776, 4750.465
142.258, 4717.714
142.740, 4693.717
143.223, 4674.104
143.705, 4662.930
144.187, 4666.458
144.669, 4690.508
145.151, 4720.941
145.633, 4760.531
146.115, 4804.038
146.597, 4847.212
147.079, 4888.962
147.562, 4931.367
148.044, 4978.359
148.526, 5040.016
149.008, 5089.545
149.490, 5128.634
149.972, 5155.442
150.454, 5164.810
150.936, 5155.375
151.419, 5136.277
151.901, 5124.309
152.383, 5126.564
152.865, 5124.775
153.347, 5124.519
153.829, 5117.495
154.311, 5092.290
154.793, 5044.573
155.275, 4981.915
155.758, 4917.706
156.240, 4847.490
156.722, 4783.629
157.204, 4725.474
157.686, 4675.323
158.168, 4638.313
158.650, 4617.185
159.133, 4605.775
159.615, 4590.588
160.097, 4567.271
160.579, 4549.714
161.061, 4546.565
161.543, 4550.759
162.025, 4550.272
162.507, 4541.048
162.989, 4524.202
163.471, 4500.972
163.954, 4470.735
164.436, 4437.891
164.918, 4405.827
165.400, 4372.190
165.882, 4329.842
166.364, 4272.846
166.846, 4211.761
167.328, 4168.718
167.811, 4146.937
168.293, 4129.171
168.775, 4107.504
169.257, 4084.280
169.739, 4066.640
170.221, 4059.366
170.703, 4056.096
171.185, 4046.446
171.667, 4030.589
172.150, 4009.992
172.632, 3978.545
173.114, 3941.456
173.596, 3919.003
174.078, 3924.258
174.560, 3940.063
175.042, 3939.556
175.524, 3919.723
176.007, 3897.545
176.489, 3882.516
176.971, 3873.185
177.453, 3862.390
177.935, 3845.792
178.417, 3829.341
178.899, 3816.199
179.381, 3803.192
179.863, 3807.894
180.346, 3857.273
180.828, 3940.880
181.310, 4000.052
181.792, 4010.508
182.274, 3995.622
182.756, 3981.390
183.238, 3965.613
183.720, 3965.170
184.202, 3995.060
184.685, 4052.027
185.167, 4116.736
185.649, 4190.263
186.131, 4263.638
186.613, 4326.018
187.095, 4376.040
187.577, 4426.958
188.059, 4491.008
188.542, 4565.627
189.024, 4634.228
189.506, 4698.625
189.988, 4747.499
190.470, 4773.136
190.952, 4775.420
191.434, 4762.393
191.916, 4741.467
192.398, 4711.192
192.881, 4659.192
193.363, 4572.709
193.845, 4474.289
194.327, 4382.734
194.809, 4298.355
195.291, 4221.483
195.773, 4150.167
196.255, 4085.528
196.738, 4036.371
197.220, 4012.383
197.702, 3995.222
198.184, 3968.379
198.666, 3933.157
199.148, 3900.487
199.630, 3881.100
200.112, 3872.053
200.594, 3854.615
201.077, 3818.963
201.559, 3784.977
202.041, 3767.341
202.523, 3764.069
203.005, 3764.579
203.487, 3767.757
203.969, 3770.908
204.451, 3759.155
204.934, 3720.615
205.416, 3682.295
205.898, 3666.420
206.380, 3667.038
206.862, 3663.552
207.344, 3640.253
207.826, 3602.562
208.308, 3572.029
208.790, 3552.119
209.273, 3535.157
209.755, 3518.706
210.237, 3501.398
210.719, 3479.563
211.201, 3448.484
211.683, 3411.322
212.165, 3378.329
212.647, 3351.509
213.130, 3324.756
213.612, 3292.625
214.094, 3258.157
214.576, 3227.469
215.058, 3207.080
215.540, 3191.287
216.022, 3166.109
216.504, 3128.073
216.986, 3089.462
217.469, 3056.085
217.951, 3026.598
218.433, 3000.249
218.915, 2978.233
219.397, 2958.143
219.879, 2934.508
220.361, 2905.249
220.843, 2879.954
221.326, 2869.412
221.808, 2864.424
222.290, 2853.490
222.772, 2831.163
223.254, 2804.193
223.736, 2779.813
224.218, 2757.216
224.700, 2741.784
225.182, 2742.836
225.665, 2749.857
226.147, 2751.029
226.629, 2742.123
227.111, 2730.415
227.593, 2724.810
228.075, 2725.769
228.557, 2723.797
229.039, 2710.819
229.521, 2695.697
230.004, 2688.370
230.486, 2690.927
230.968, 2697.920
231.450, 2707.994
231.932, 2720.643
232.414, 2725.971
232.896, 2717.292
233.378, 2702.643
233.861, 2690.156
234.343, 2679.590
234.825, 2674.324
235.307, 2680.294
235.789, 2694.925
236.271, 2705.054
236.753, 2706.653
237.235, 2703.695
237.717, 2700.454
238.200, 2696.945
238.682, 2693.403
239.164, 2687.221
239.646, 2681.021
240.128, 2683.654
240.610, 2700.537
241.092, 2718.487
241.574, 2724.793
242.057, 2720.842
242.539, 2710.859
243.021, 2686.002
243.503, 2658.726
243.985, 2655.884
244.467, 2686.090
244.949, 2716.086
245.431, 2707.081
245.913, 2669.462
246.396, 2647.619
246.878, 2666.031
247.360, 2697.023
247.842, 2708.685
248.324, 2698.599
248.806, 2682.410
249.288, 2668.249
249.770, 2657.053
250.253, 2651.207
250.735, 2655.977
251.217, 2662.369
251.699, 2662.456
252.181, 2656.931
252.663, 2653.241
253.145, 2657.306
253.627, 2665.892
254.109, 2666.837
254.592, 2651.572
255.074, 2638.482
255.556, 2637.605
256.038, 2646.337
256.520, 2657.256
257.002, 2667.693
257.484, 2677.357
257.966, 2685.262
258.448, 2690.336
258.931, 2695.958
259.413, 2707.414
259.895, 2719.251
260.377, 2719.761
260.859, 2703.637
261.341, 2682.408
261.823, 2677.140
262.306, 2692.996
262.788, 2711.416
263.270, 2737.082
263.752, 2761.305
264.234, 2773.338
264.716, 2771.212
265.198, 2762.993
265.680, 2758.496
266.162, 2759.728
266.645, 2757.702
267.127, 2747.188
267.609, 2737.502
268.091, 2738.602
268.573, 2748.835
269.055, 2755.548
269.537, 2746.472
270.019, 2719.643
270.501, 2698.894
270.984, 2688.568
271.466, 2678.794
271.948, 2664.288
272.430, 2646.969
272.912, 2631.559
273.394, 2621.163
273.876, 2615.555
274.358, 2613.344
274.841, 2623.963
275.323, 2627.265
275.805, 2613.866
276.287, 2592.775
276.769, 2576.292
277.251, 2570.210
277.733, 2570.931
278.215, 2568.637
278.697, 2556.377
279.180, 2552.406
279.662, 2565.224
280.144, 2581.890
280.626, 2589.780
281.108, 2585.981
281.590, 2579.305
282.072, 2583.511
282.554, 2603.809
283.036, 2620.100
283.519, 2630.073
284.001, 2637.294
284.483, 2641.562
284.965, 2644.060
285.447, 2648.483
285.929, 2659.102
286.411, 2676.278
286.893, 2692.372
287.375, 2709.636
287.858, 2722.958
288.340, 2730.654
288.822, 2732.932
289.304, 2730.124
289.786, 2720.542
290.268, 2706.672
290.750, 2697.123
291.233, 2693.686
291.715, 2691.160
292.197, 2692.065
292.679, 2691.203
293.161, 2679.425
293.643, 2648.800
294.125, 2615.680
294.607, 2608.805
295.089, 2632.840
295.572, 2642.443
296.054, 2608.668
296.536, 2560.221
297.018, 2527.782
297.500, 2515.895
297.982, 2510.511
298.464, 2501.042
298.946, 2488.966
299.428, 2483.515
299.911, 2491.708
300.393, 2499.289
300.875, 2485.567
301.357, 2451.286
301.839, 2424.820
302.321, 2425.435
302.803, 2437.063
303.285, 2434.492
303.767, 2413.815
304.250, 2386.036
304.732, 2358.855
305.214, 2332.538
305.696, 2309.671
306.178, 2289.365
306.660, 2273.413
307.142, 2263.872
307.624, 2260.299
308.107, 2262.431
308.589, 2273.772
309.071, 2289.123
309.553, 2280.356
310.035, 2219.867
310.517, 2172.088
310.999, 2166.116
311.481, 2181.831
311.964, 2186.724
312.446, 2168.003
312.928, 2136.808
313.410, 2114.982
313.892, 2106.569
314.374, 2102.364
314.856, 2111.123
315.338, 2118.316
315.820, 2109.864
316.302, 2085.169
316.785, 2055.943
317.267, 2034.220
317.749, 2020.475
318.231, 2012.946
318.713, 2020.608
319.195, 2025.336
319.677, 2018.588
320.159, 2003.218
320.642, 1987.058
321.124, 1975.531
321.606, 1967.212
322.088, 1953.638
322.570, 1926.643
323.052, 1907.094
323.534, 1902.531
324.016, 1905.698
324.499, 1909.360
324.981, 1911.029
325.463, 1911.268
325.945, 1912.254
326.427, 1915.423
326.909, 1911.389
327.391, 1888.735
327.873, 1865.195
328.355, 1852.574
328.838, 1851.592
329.320, 1855.709
329.802, 1862.692
330.284, 1871.368
330.766, 1876.797
331.248, 1878.663
331.730, 1876.834
332.212, 1866.866
332.694, 1852.663
333.177, 1845.369
333.659, 1853.062
334.141, 1866.772
334.623, 1877.441
335.105, 1884.978
335.587, 1889.013
336.069, 1888.636
336.551, 1884.672
337.034, 1880.170
337.516, 1875.148
337.998, 1869.631
338.480, 1861.875
338.962, 1853.816
339.444, 1849.742
339.926, 1851.309
340.408, 1855.730
340.891, 1858.146
341.373, 1855.123
341.855, 1846.890
342.337, 1855.656
342.819, 1860.296
343.301, 1861.031
343.783, 1846.166
344.265, 1851.446
344.747, 1848.652
345.230, 1845.527
345.712, 1849.197
346.194, 1850.286
346.676, 1852.060
347.158, 1836.234
347.640, 1812.848
348.122, 1800.617
348.604, 1809.304
349.086, 1829.121
349.569, 1835.346
350.051, 1819.042
350.533, 1806.925
351.015, 1804.557
351.497, 1805.320
351.979, 1803.935
352.461, 1799.858
352.943, 1797.197
353.426, 1803.290
353.908, 1817.970
354.390, 1821.146
354.872, 1803.022
355.354, 1784.934
355.836, 1779.610
356.318, 1783.471
356.800, 1788.059
357.283, 1792.369
357.765, 1793.535
358.247, 1784.394
358.729, 1763.735
359.211, 1746.166
359.693, 1740.091
360.175, 1740.663
360.657, 1738.100
361.139, 1730.116
361.621, 1723.754
362.104, 1722.908
362.586, 1726.364
363.068, 1733.104
363.550, 1743.872
364.032, 1752.400
364.514, 1749.450
364.996, 1731.932
365.478, 1718.865
365.961, 1712.080
366.443, 1709.275
366.925, 1710.875
367.407, 1715.510
367.889, 1719.214
368.371, 1719.410
368.853, 1716.134
369.335, 1709.581
369.818, 1692.064
370.300, 1680.417
370.782, 1680.119
371.264, 1685.732
371.746, 1690.952
372.228, 1693.743
372.710, 1696.584
373.192, 1703.853
373.674, 1717.405
374.157, 1729.274
374.639, 1742.893
375.121, 1751.422
375.603, 1748.686
376.085, 1737.259
376.567, 1725.943
377.049, 1720.801
377.531, 1720.286
378.013, 1718.086
378.496, 1711.569
378.978, 1710.390
379.460, 1725.751
379.942, 1746.808
380.424, 1760.822
380.906, 1764.492
381.388, 1763.487
381.870, 1761.652
382.353, 1758.917
382.835, 1754.502
383.317, 1747.299
383.799, 1740.295
384.281, 1738.751
384.763, 1742.968
385.245, 1743.429
385.727, 1735.071
386.210, 1724.637
386.692, 1718.051
387.174, 1715.376
387.656, 1713.926
388.138, 1712.163
388.620, 1709.950
389.102, 1706.234
389.584, 1701.546
390.066, 1694.857
390.548, 1679.716
391.031, 1665.188
391.513, 1663.741
391.995, 1678.441
392.477, 1699.297
392.959, 1713.190
393.441, 1721.022
393.923, 1718.604
394.405, 1691.626
394.888, 1667.521
395.370, 1658.310
395.852, 1661.214
396.334, 1667.679
396.816, 1674.156
397.298, 1679.264
397.780, 1679.173
398.262, 1673.180
398.745, 1664.335
399.227, 1647.454
399.709, 1631.676
400.191, 1628.548
400.673, 1641.645
401.155, 1654.108
401.637, 1651.994
402.119, 1640.905
402.601, 1637.171
403.084, 1645.367
403.566, 1652.745
404.048, 1644.257
404.530, 1620.499
405.012, 1607.474
405.494, 1613.072
405.976, 1623.689
406.458, 1637.026
406.940, 1649.209
407.423, 1649.218
407.905, 1630.493
408.387, 1602.422
408.869, 1588.436
409.351, 1601.515
409.833, 1610.242
410.315, 1612.004
410.797, 1611.574
411.280, 1610.646
411.762, 1610.497
412.244, 1614.046
412.726, 1625.810
413.208, 1644.643
413.690, 1653.394
414.172, 1645.337
414.654, 1637.369
415.137, 1636.537
415.619, 1638.385
416.101, 1636.429
416.583, 1627.732
417.065, 1619.510
417.547, 1621.734
418.029, 1633.048
418.511, 1639.273
418.993, 1635.442
419.475, 1629.109
419.958, 1628.503
420.440, 1632.874
420.922, 1636.676
421.404, 1640.430
421.886, 1641.768
422.368, 1637.126
422.850, 1627.530
423.332, 1617.749
423.815, 1609.716
424.297, 1604.381
424.779, 1604.817
425.261, 1616.555
425.743, 1626.640
426.225, 1637.155
426.707, 1643.966
427.189, 1641.377
427.672, 1629.930
428.154, 1616.843
428.636, 1608.555
429.118, 1605.091
429.600, 1606.064
430.082, 1618.395
430.564, 1625.791
431.046, 1620.625
431.528, 1609.158
432.011, 1599.551
432.493, 1594.712
432.975, 1591.510
433.457, 1586.604
433.939, 1580.061
434.421, 1572.188
434.903, 1561.372
435.385, 1551.892
435.867, 1548.442
436.350, 1550.169
436.832, 1552.917
437.314, 1558.659
437.796, 1562.712
438.278, 1559.937
438.760, 1551.311
439.242, 1540.698
439.724, 1528.769
440.207, 1518.861
440.689, 1520.041
441.171, 1543.538
441.653, 1561.291
442.135, 1573.238
442.617, 1578.805
443.099, 1574.056
443.581, 1561.216
444.064, 1549.687
444.546, 1548.317
445.028, 1555.525
445.510, 1555.919
445.992, 1542.182
446.474, 1533.875
446.956, 1541.694
447.438, 1554.217
447.920, 1559.214
448.402, 1553.608
448.885, 1544.439
449.367, 1536.622
449.849, 1530.358
450.331, 1527.282
450.813, 1529.015
451.295, 1529.752
451.777, 1521.060
452.259, 1506.309
452.742, 1501.841
453.224, 1523.155
453.706, 1541.400
454.188, 1533.416
454.670, 1510.782
455.152, 1500.240
455.634, 1511.907
456.116, 1532.590
456.599, 1541.368
457.081, 1533.334
457.563, 1526.714
458.045, 1518.896
458.527, 1514.700
459.009, 1521.229
459.491, 1532.979
459.973, 1536.865
460.455, 1523.821
460.938, 1503.223
461.420, 1498.204
461.902, 1513.097
462.384, 1525.383
462.866, 1529.716
463.348, 1529.558
463.830, 1525.743
464.312, 1518.838
464.794, 1514.852
465.277, 1520.979
465.759, 1529.679
466.241, 1527.477
466.723, 1514.562
467.205, 1505.972
467.687, 1511.893
468.169, 1526.801
468.651, 1532.796
469.134, 1523.479
469.616, 1517.100
470.098, 1520.096
470.580, 1524.734
471.062, 1523.410
471.544, 1515.759
472.026, 1506.682
472.508, 1500.459
472.991, 1496.761
473.473, 1491.906
473.955, 1485.021
474.437, 1478.256
474.919, 1468.655
475.401, 1461.242
475.883, 1463.807
476.365, 1478.060
476.847, 1489.971
477.329, 1483.032
477.812, 1463.396
478.294, 1454.271
478.776, 1459.314
479.258, 1468.966
479.740, 1479.025
480.222, 1488.274
480.704, 1492.119
481.186, 1487.607
481.669, 1481.140
482.151, 1472.239
482.633, 1463.999
483.115, 1462.592
483.597, 1469.123
484.079, 1476.958
484.561, 1478.103
485.043, 1471.589
485.526, 1467.461
486.008, 1466.948
486.490, 1467.671
486.972, 1471.002
487.454, 1474.541
487.936, 1474.590
488.418, 1469.689
488.900, 1463.602
489.382, 1460.556
489.865, 1460.410
490.347, 1462.359
490.829, 1468.706
491.311, 1472.271
491.793, 1461.627
492.275, 1442.527
492.757, 1434.246
493.239, 1449.814
493.721, 1466.930
494.204, 1472.573
494.686, 1470.361
495.168, 1467.714
495.650, 1466.996
496.132, 1465.889
496.614, 1461.185
497.096, 1452.134
497.578, 1442.911
498.060, 1429.318
498.543, 1420.027
499.025, 1420.224
499.507, 1426.082
499.989, 1432.212
500.471, 1436.681
500.953, 1438.608
501.435, 1434.886
501.918, 1425.608
502.400, 1421.638
502.882, 1427.489
503.364, 1433.918
503.846, 1432.092
504.328, 1424.387
504.810, 1418.427
505.292, 1416.976
505.774, 1416.383
506.257, 1416.407
506.739, 1415.349
507.221, 1408.103
507.703, 1392.990
508.185, 1376.113
508.667, 1365.328
509.149, 1360.902
509.631, 1361.781
510.113, 1378.639
510.596, 1388.973
511.078, 1376.335
511.560, 1354.943
512.042, 1349.488
512.524, 1370.558
513.006, 1396.799
513.488, 1396.546
513.970, 1371.555
514.453, 1360.045
514.935, 1373.415
515.417, 1387.757
515.899, 1379.297
516.381, 1355.601
516.863, 1341.321
517.345, 1345.542
517.827, 1353.894
518.309, 1361.688
518.792, 1367.860
519.274, 1369.884
519.756, 1367.209
520.238, 1362.567
520.720, 1359.187
521.202, 1357.279
521.684, 1354.381
522.166, 1348.467
522.648, 1343.840
523.131, 1341.506
523.613, 1341.044
524.095, 1343.304
524.577, 1348.639
525.059, 1351.388
525.541, 1342.640
526.023, 1325.738
526.505, 1316.336
526.987, 1317.028
527.470, 1321.301
527.952, 1326.278
528.434, 1331.246
528.916, 1333.785
529.398, 1333.470
529.880, 1331.338
530.362, 1326.277
530.844, 1320.356
531.327, 1315.375
531.809, 1311.931
532.291, 1310.525
532.773, 1311.796
533.255, 1315.540
533.737, 1320.268
534.219, 1330.483
534.701, 1333.650
535.183, 1322.460
535.666, 1306.265
536.148, 1291.270
536.630, 1278.582
537.112, 1271.312
537.594, 1274.980
538.076, 1283.975
538.558, 1286.789
539.041, 1283.273
539.523, 1285.071
540.005, 1300.624
540.487, 1322.626
540.969, 1332.422
541.451, 1321.360
541.933, 1314.189
542.415, 1313.244
542.897, 1315.509
543.380, 1323.014
543.862, 1332.092
544.344, 1332.449
544.826, 1315.902
545.308, 1293.058
545.790, 1290.697
546.272, 1313.210
546.754, 1328.161
547.237, 1326.426
547.719, 1318.482
548.201, 1311.864
548.683, 1306.663
549.165, 1303.458
549.647, 1306.007
550.129, 1307.348
550.611, 1299.646
551.093, 1287.000
551.576, 1279.792
552.058, 1281.475
552.540, 1285.835
553.022, 1283.811
553.504, 1273.277
553.986, 1270.127
554.468, 1282.232
554.950, 1293.427
555.432, 1301.275
555.915, 1305.152
556.397, 1303.500
556.879, 1295.697
557.361, 1286.862
557.843, 1282.882
558.325, 1281.680
558.807, 1274.305
559.289, 1258.653
559.771, 1249.306
560.254, 1260.235
560.736, 1283.548
561.218, 1287.183
561.700, 1251.598
562.182, 1229.804
562.664, 1239.175
563.146, 1258.997
563.628, 1275.043
564.110, 1284.571
564.593, 1287.656
565.075, 1283.432
565.557, 1274.588
566.039, 1269.550
566.521, 1269.610
567.003, 1267.340
567.485, 1259.080
567.968, 1249.903
568.450, 1244.633
568.932, 1242.784
569.414, 1240.600
569.896, 1233.354
570.378, 1228.756
570.860, 1236.898
571.342, 1251.771
571.824, 1258.254
572.307, 1251.424
572.789, 1240.617
573.271, 1238.130
573.753, 1244.994
574.235, 1252.085
574.717, 1265.000
575.199, 1270.826
575.681, 1258.740
576.164, 1241.317
576.646, 1234.455
577.128, 1241.998
577.610, 1252.648
578.092, 1259.599
578.574, 1263.066
579.056, 1262.726
579.538, 1258.632
580.020, 1253.383
580.503, 1247.646
580.985, 1242.703
581.467, 1242.236
581.949, 1250.559
582.431, 1256.479
582.913, 1261.698
583.395, 1262.953
583.877, 1253.529
584.359, 1238.583
584.842, 1231.497
585.324, 1240.923
585.806, 1255.821
586.288, 1256.530
586.770, 1243.791
587.252, 1237.035
587.734, 1241.100
588.216, 1248.240
588.698, 1253.180
589.181, 1255.709
589.663, 1255.438
590.145, 1249.682
590.627, 1244.343
591.109, 1241.246
591.591, 1239.688
592.073, 1239.999
592.555, 1241.485
593.038, 1240.425
593.520, 1231.599
594.002, 1218.672
594.484, 1222.466
594.966, 1251.252
595.448, 1267.929
595.930, 1253.007
596.412, 1229.338
596.894, 1218.580
597.377, 1220.557
597.859, 1227.038
598.341, 1243.263
598.823, 1256.268
599.305, 1252.949
599.787, 1239.318
600.269, 1228.428
600.752, 1224.795
601.234, 1225.588
601.716, 1227.743
602.198, 1231.546
602.680, 1232.761
603.162, 1228.691
603.644, 1226.167
604.126, 1228.427
604.608, 1232.796
605.091, 1236.351
605.573, 1238.641
606.055, 1240.845
606.537, 1244.424
607.019, 1247.809
607.501, 1249.407
607.983, 1248.964
608.465, 1245.407
608.947, 1237.899
609.430, 1228.568
609.912, 1221.532
610.394, 1216.657
610.876, 1214.462
611.358, 1219.780
611.840, 1222.709
612.322, 1216.006
612.804, 1205.514
613.286, 1201.682
613.769, 1208.750
614.251, 1216.496
614.733, 1214.577
615.215, 1207.696
615.697, 1206.645
616.179, 1212.408
616.661, 1218.772
617.143, 1222.234
617.625, 1222.870
618.108, 1220.636
618.590, 1211.507
619.072, 1206.225
619.554, 1204.075
620.036, 1206.131
620.518, 1218.843
621.000, 1235.685
621.482, 1240.341
621.965, 1221.733
622.447, 1201.780
622.929, 1209.913
623.411, 1237.636
623.893, 1254.853
624.375, 1256.695
624.857, 1249.055
625.339, 1233.636
625.821, 1213.041
626.304, 1202.235
626.786, 1211.265
627.268, 1216.552
627.750, 1216.063
628.232, 1212.396
628.714, 1204.300
629.196, 1194.533
629.679, 1190.626
630.161, 1198.846
630.643, 1209.984
631.125, 1210.458
631.607, 1201.962
632.089, 1194.062
632.571, 1188.502
633.053, 1184.574
633.535, 1181.924
634.018, 1180.453
634.500, 1179.025
634.982, 1173.902
635.464, 1173.833
635.946, 1168.001
636.428, 1180.400
636.910, 1188.374
637.392, 1192.160
637.875, 1179.217
638.357, 1187.876
638.839, 1187.878
639.321, 1187.525
639.803, 1194.458
640.285, 1195.757
640.767, 1195.526
641.249, 1194.048
641.731, 1191.210
642.214, 1187.138
642.696, 1184.252
643.178, 1186.212
643.660, 1184.406
644.142, 1171.794
644.624, 1159.093
645.106, 1156.984
645.588, 1164.311
646.070, 1171.108
646.553, 1170.214
647.035, 1166.844
647.517, 1170.471
647.999, 1179.837
648.481, 1186.307
648.963, 1187.771
649.445, 1186.052
649.927, 1181.874
650.409, 1175.530
650.892, 1173.272
651.374, 1181.059
651.856, 1184.912
652.338, 1178.808
652.820, 1171.145
653.302, 1169.519
653.784, 1173.380
654.266, 1176.523
654.748, 1174.732
655.231, 1171.251
655.713, 1171.726
656.195, 1174.909
656.677, 1173.963
657.159, 1166.919
657.641, 1158.751
658.123, 1153.432
658.606, 1151.032
659.088, 1152.607
659.570, 1168.217
660.052, 1173.970
660.534, 1158.866
661.016, 1140.382
661.498, 1129.596
661.980, 1127.452
662.462, 1132.070
662.945, 1145.016
663.427, 1160.462
663.909, 1174.483
664.391, 1185.608
664.873, 1188.538
665.355, 1182.208
665.837, 1169.629
666.319, 1150.942
666.802, 1129.184
667.284, 1124.606
667.766, 1155.132
668.248, 1171.302
668.730, 1157.602
669.212, 1138.866
669.694, 1129.798
670.176, 1128.781
670.658, 1127.296
671.141, 1119.848
671.623, 1115.278
672.105, 1123.595
672.587, 1139.013
673.069, 1153.130
673.551, 1163.696
674.033, 1164.084
674.515, 1147.256
674.997, 1121.483
675.480, 1117.550
675.962, 1146.532
676.444, 1165.381
676.926, 1163.961
677.408, 1157.904
677.890, 1155.099
678.372, 1154.598
678.854, 1154.072
679.336, 1153.062
679.819, 1151.923
680.301, 1150.577
680.783, 1149.359
681.265, 1148.070
681.747, 1147.186
682.229, 1148.750
682.711, 1154.164
683.193, 1160.904
683.675, 1164.621
684.158, 1165.438
684.640, 1161.152
685.122, 1149.683
685.604, 1136.684
686.086, 1119.838
686.568, 1105.511
687.050, 1109.287
687.532, 1141.382
688.015, 1163.790
688.497, 1161.628
688.979, 1152.493
689.461, 1148.213
689.943, 1147.543
690.425, 1144.020
690.907, 1135.080
691.389, 1128.065
691.872, 1136.385
692.354, 1155.717
692.836, 1161.068
693.318, 1150.115
693.800, 1136.966
694.282, 1126.227
694.764, 1119.799
695.246, 1122.287
695.729, 1138.242
696.211, 1147.110
696.693, 1141.283
697.175, 1137.204
697.657, 1144.709
698.139, 1155.568
698.621, 1158.422
699.103, 1151.380
699.585, 1143.641
700.068, 1142.300
700.550, 1144.150
701.032, 1143.187
701.514, 1140.485
701.996, 1144.185
702.478, 1157.631
702.960, 1166.986
703.442, 1153.379
703.924, 1117.177
704.407, 1103.505
704.889, 1131.329
705.371, 1149.558
705.853, 1139.824
706.335, 1123.218
706.817, 1113.177
707.299, 1110.362
707.781, 1112.979
708.263, 1126.669
708.746, 1138.625
709.228, 1138.460
709.710, 1132.321
710.192, 1128.769
710.674, 1129.216
711.156, 1131.083
711.638, 1132.363
712.120, 1134.028
712.602, 1139.961
713.085, 1151.045
713.567, 1156.873
714.049, 1155.293
714.531, 1149.393
715.013, 1138.519
715.495, 1125.253
715.977, 1118.690
716.459, 1122.109
716.942, 1126.049
717.424, 1129.265
717.906, 1132.416
718.388, 1138.170
718.870, 1143.810
719.352, 1142.506
719.834, 1131.121
720.316, 1119.595
720.799, 1120.288
721.281, 1128.047
721.763, 1128.132
722.245, 1120.437
722.727, 1116.992
723.209, 1123.789
723.691, 1135.552
724.173, 1143.950
724.656, 1149.072
725.138, 1150.255
725.620, 1140.437
726.102, 1145.387
726.584, 1146.753
727.066, 1144.726
727.548, 1129.146
728.030, 1131.067
728.512, 1125.974
728.995, 1120.594
729.477, 1124.978
729.959, 1111.370
730.441, 1115.599
730.923, 1112.708
731.405, 1113.076
731.887, 1106.386
732.369, 1101.691
732.851, 1110.832
733.334, 1124.484
733.816, 1143.610
734.298, 1148.279
734.780, 1129.153
735.262, 1110.492
735.744, 1115.337
736.226, 1137.027
736.708, 1140.031
737.190, 1100.924
737.673, 1078.687
738.155, 1088.350
738.637, 1104.539
739.119, 1114.797
739.601, 1119.046
740.083, 1119.355
740.565, 1116.025
741.047, 1111.860
741.529, 1108.837
742.012, 1106.572
742.494, 1104.763
742.976, 1103.207
743.458, 1100.933
743.940, 1097.493
744.422, 1094.024
744.904, 1091.483
745.386, 1089.780
745.869, 1095.796
746.351, 1116.859
746.833, 1125.889
747.315, 1102.781
747.797, 1073.902
748.279, 1072.685
748.761, 1097.542
749.243, 1114.302
749.726, 1112.605
750.208, 1110.357
750.690, 1115.673
751.172, 1122.327
751.654, 1122.154
752.136, 1116.358
752.618, 1113.937
753.100, 1121.610
753.583, 1131.155
754.065, 1130.727
754.547, 1123.342
755.029, 1117.995
755.511, 1115.910
755.993, 1116.199
756.475, 1118.448
756.957, 1122.376
757.439, 1128.313
757.922, 1138.951
758.404, 1141.458
758.886, 1128.183
759.368, 1118.136
759.850, 1124.435
760.332, 1136.278
760.814, 1140.569
761.296, 1136.142
761.778, 1128.397
762.261, 1114.969
762.743, 1102.520
763.225, 1094.816
763.707, 1090.386
764.189, 1085.873
764.671, 1081.391
765.153, 1082.216
765.635, 1096.292
766.117, 1113.257
766.600, 1111.760
767.082, 1095.886
767.564, 1085.382
768.046, 1084.182
768.528, 1087.860
769.010, 1093.802
769.492, 1100.942
769.974, 1105.431
770.456, 1106.228
770.939, 1107.387
771.421, 1111.629
771.903, 1113.029
772.385, 1105.954
772.867, 1095.172
773.349, 1087.856
773.831, 1084.392
774.313, 1085.220
774.796, 1093.722
775.278, 1103.267
775.760, 1111.539
776.242, 1117.137
776.724, 1118.322
777.206, 1114.772
777.688, 1107.281
778.170, 1091.808
778.653, 1076.554
779.135, 1080.182
779.617, 1098.171
780.099, 1109.174
780.581, 1108.314
781.063, 1105.667
781.545, 1109.697
782.027, 1118.372
782.510, 1124.204
782.992, 1127.923
783.474, 1126.154
783.956, 1115.392
784.438, 1103.736
784.920, 1094.809
785.402, 1088.452
785.884, 1083.838
786.366, 1079.385
786.849, 1082.167
787.331, 1101.781
787.813, 1120.133
788.295, 1126.998
788.777, 1126.340
789.259, 1123.257
789.741, 1119.404
790.223, 1116.591
790.705, 1117.481
791.188, 1118.978
791.670, 1117.159
792.152, 1112.553
792.634, 1105.929
793.116, 1097.666
793.598, 1089.694
794.080, 1083.102
794.562, 1078.878
795.044, 1080.407
795.527, 1088.358
796.009, 1097.785
796.491, 1111.348
796.973, 1117.776
797.455, 1106.770
797.937, 1087.193
798.419, 1079.025
798.901, 1089.424
799.383, 1089.081
799.866, 1062.727
800.348, 1043.587
800.830, 1048.537
801.312, 1063.559
801.794, 1073.479
802.276, 1076.646
802.758, 1079.039
803.240, 1086.555
803.723, 1090.909
804.205, 1081.993
804.687, 1067.700
805.169, 1058.944
805.651, 1057.260
806.133, 1060.822
806.615, 1069.131
807.097, 1078.514
807.580, 1082.670
808.062, 1082.400
808.544, 1083.277
809.026, 1085.837
809.508, 1085.975
809.990, 1081.471
810.472, 1074.499
810.954, 1067.802
811.437, 1060.916
811.919, 1059.518
812.401, 1066.360
812.883, 1073.881
813.365, 1083.593
813.847, 1090.420
814.329, 1086.987
814.811, 1076.038
815.293, 1071.891
815.776, 1080.381
816.258, 1090.337
816.740, 1104.954
817.222, 1114.407
817.704, 1105.921
818.186, 1086.899
818.668, 1074.144
819.150, 1073.631
819.632, 1077.336
820.115, 1080.433
820.597, 1082.711
821.079, 1083.950
821.561, 1084.092
822.043, 1082.849
822.525, 1080.178
823.007, 1076.119
823.489, 1069.171
823.971, 1062.652
824.454, 1072.257
824.936, 1099.109
825.418, 1109.926
825.900, 1095.531
826.382, 1079.589
826.864, 1079.209
827.346, 1087.690
827.828, 1085.391
828.310, 1064.030
828.793, 1053.880
829.275, 1062.165
829.757, 1072.769
830.239, 1080.608
830.721, 1087.735
831.203, 1099.504
831.685, 1115.806
832.167, 1120.286
832.650, 1095.908
833.132, 1074.944
833.614, 1075.043
834.096, 1082.691
834.578, 1083.739
835.060, 1078.806
835.542, 1076.832
836.024, 1082.799
836.506, 1088.977
836.989, 1088.008
837.471, 1082.370
837.953, 1073.847
838.435, 1064.325
838.917, 1059.908
839.399, 1062.773
839.881, 1068.721
840.364, 1073.213
840.846, 1076.577
841.328, 1081.506
841.810, 1088.231
842.292, 1087.239
842.774, 1074.542
843.256, 1062.415
843.738, 1060.643
844.220, 1066.947
844.703, 1073.035
845.185, 1078.421
845.667, 1085.259
846.149, 1100.395
846.631, 1107.532
847.113, 1088.255
847.595, 1062.836
848.077, 1060.750
848.559, 1084.914
849.042, 1098.644
849.524, 1086.491
850.006, 1075.920
850.488, 1078.931
850.970, 1085.995
851.452, 1088.913
851.934, 1087.342
852.416, 1083.663
852.898, 1077.610
853.381, 1073.372
853.863, 1075.240
854.345, 1079.521
854.827, 1083.433
855.309, 1085.688
855.791, 1082.156
856.273, 1072.214
856.755, 1065.097
857.237, 1072.949
857.720, 1087.739
858.202, 1091.956
858.684, 1086.358
859.166, 1071.615
859.648, 1048.077
860.130, 1030.475
860.612, 1029.961
861.094, 1039.894
861.577, 1043.799
862.059, 1040.621
862.541, 1040.719
863.023, 1044.517
863.505, 1051.734
863.987, 1064.407
864.469, 1077.348
864.951, 1083.898
865.433, 1083.974
865.916, 1080.269
866.398, 1067.511
866.880, 1058.986
867.362, 1057.311
867.844, 1059.216
868.326, 1064.582
868.808, 1071.668
869.291, 1077.094
869.773, 1081.784
870.255, 1080.474
870.737, 1063.594
871.219, 1049.200
871.701, 1050.192
872.183, 1058.785
872.665, 1064.635
873.147, 1066.057
873.630, 1066.315
874.112, 1065.681
874.594, 1066.607
875.076, 1075.044
875.558, 1084.107
876.040, 1082.398
876.522, 1071.418
877.004, 1059.569
877.487, 1050.614
877.969, 1045.745
878.451, 1049.655
878.933, 1057.597
879.415, 1055.903
879.897, 1046.530
880.379, 1040.992
880.861, 1042.310
881.343, 1047.301
881.826, 1053.823
882.308, 1060.614
882.790, 1063.601
883.272, 1062.630
883.754, 1062.520
884.236, 1064.359
884.718, 1063.212
885.200, 1055.908
885.682, 1046.059
886.165, 1039.078
886.647, 1035.028
887.129, 1033.005
887.611, 1033.435
888.093, 1035.106
888.575, 1038.762
889.057, 1042.428
889.539, 1043.456
890.021, 1043.320
890.504, 1047.684
890.986, 1062.385
891.468, 1068.574
891.950, 1053.429
892.432, 1042.863
892.914, 1055.085
893.396, 1072.985
893.878, 1073.921
894.360, 1057.724
894.843, 1046.209
895.325, 1052.091
895.807, 1056.574
896.289, 1049.790
896.771, 1039.496
897.253, 1031.251
897.735, 1025.694
898.218, 1021.695
898.700, 1018.822
899.182, 1020.207
899.664, 1033.950
900.146, 1047.949
900.628, 1046.909
901.110, 1037.409
901.592, 1031.273
902.074, 1030.731
902.557, 1033.509
903.039, 1038.851
903.521, 1043.912
904.003, 1041.906
904.485, 1037.308
904.967, 1044.284
905.449, 1061.022
905.931, 1072.793
906.414, 1074.302
906.896, 1069.587
907.378, 1061.912
907.860, 1052.331
908.342, 1043.140
908.824, 1034.522
909.306, 1033.635
909.788, 1042.306
910.270, 1048.521
910.753, 1044.384
911.235, 1036.871
911.717, 1040.123
912.199, 1055.269
912.681, 1057.682
913.163, 1042.196
913.645, 1033.665
914.127, 1041.588
914.609, 1051.573
915.092, 1050.843
915.574, 1042.160
916.056, 1036.951
916.538, 1036.541
917.020, 1036.552
917.502, 1034.264
917.984, 1036.438
918.466, 1050.173
918.948, 1066.544
919.431, 1076.531
919.913, 1080.102
920.395, 1075.409
920.877, 1051.221
921.359, 1034.895
921.841, 1035.417
922.323, 1039.584
922.805, 1039.438
923.288, 1037.275
923.770, 1037.606
924.252, 1041.044
924.734, 1047.158
925.216, 1064.279
925.698, 1073.783
926.180, 1059.376
926.662, 1039.316
927.144, 1031.409
927.627, 1034.781
928.109, 1040.489
928.591, 1046.160
929.073, 1051.399
929.555, 1059.695
930.037, 1063.923
930.519, 1052.539
931.002, 1035.440
931.484, 1029.472
931.966, 1036.189
932.448, 1044.308
932.930, 1048.746
933.412, 1049.070
933.894, 1039.222
934.376, 1028.525
934.858, 1032.926
935.341, 1048.124
935.823, 1059.963
936.305, 1063.628
936.787, 1063.022
937.269, 1060.421
937.751, 1056.866
938.233, 1054.742
938.715, 1052.790
939.197, 1045.706
939.680, 1034.574
940.162, 1029.073
940.644, 1034.081
941.126, 1042.298
941.608, 1045.220
942.090, 1043.492
942.572, 1036.229
943.054, 1025.389
943.536, 1025.476
944.019, 1038.833
944.501, 1044.969
944.983, 1028.157
945.465, 1004.153
945.947, 1008.457
946.429, 1037.206
946.911, 1046.278
947.393, 1034.239
947.875, 1023.438
948.358, 1020.531
948.840, 1022.544
949.322, 1027.294
949.804, 1033.799
950.286, 1038.858
950.768, 1042.467
951.250, 1045.029
951.732, 1046.779
952.215, 1045.539
952.697, 1038.977
953.179, 1033.615
953.661, 1039.072
954.143, 1053.357
954.625, 1055.765
955.107, 1042.164
955.589, 1033.538
956.071, 1034.035
956.554, 1035.495
957.036, 1034.069
957.518, 1030.386
958.000, 1024.500
958.482, 1015.922
958.964, 1014.523
959.446, 1025.982
959.929, 1031.118
960.411, 1022.888
960.893, 1013.510
961.375, 1010.229
961.857, 1011.737
962.339, 1015.576
962.821, 1022.818
963.303, 1027.933
963.785, 1032.391
964.268, 1032.259
964.750, 1022.577
965.232, 1011.989
965.714, 1005.440
966.196, 1003.365
966.678, 1008.089
967.160, 1025.421
967.642, 1035.501
968.125, 1032.000
968.607, 1029.023
969.089, 1032.684
969.571, 1037.246
970.053, 1036.861
970.535, 1032.427
971.017, 1029.076
971.499, 1025.838
971.981, 1026.255
972.464, 1034.523
972.946, 1042.035
973.428, 1044.268
973.910, 1044.332
974.392, 1047.482
974.874, 1052.940
975.356, 1051.663
975.838, 1035.130
976.320, 1022.517
976.803, 1019.521
977.285, 1018.894
977.767, 1013.519
978.249, 1009.605
978.731, 1019.930
979.213, 1044.345
979.695, 1057.937
980.177, 1045.243
980.659, 1034.166
981.142, 1033.986
981.624, 1036.785
982.106, 1039.082
982.588, 1039.698
983.070, 1035.929
983.552, 1027.467
984.034, 1023.366
984.516, 1031.293
984.998, 1037.692
985.481, 1037.020
985.963, 1033.098
986.445, 1025.262
986.927, 1017.812
987.409, 1020.584
987.891, 1036.267
988.373, 1045.781
988.856, 1036.744
989.338, 1026.866
989.820, 1026.267
990.302, 1027.161
990.784, 1022.039
991.266, 1012.402
991.748, 1001.906
992.230, 990.751
992.712, 986.263
993.195, 998.223
993.677, 1009.578
994.159, 1011.638
994.641, 1008.013
995.123, 997.593
995.605, 985.661
996.087, 987.338
996.569, 1009.992
997.052, 1023.479
997.534, 1000.208
998.016, 980.094
998.498, 993.786
998.980, 1018.618
999.462, 1032.310
999.944, 1033.226
1000.426, 1023.990
1000.908, 1001.573
1001.391, 988.844
1001.873, 1003.753
1002.355, 1023.332
1002.837, 1036.902
1003.319, 1044.509
1003.801, 1044.579
1004.283, 1039.547
1004.765, 1036.723
1005.247, 1038.915
1005.730, 1041.322
1006.212, 1042.524
1006.694, 1042.333
1007.176, 1040.749
1007.658, 1037.630
1008.140, 1031.973
1008.622, 1024.594
1009.104, 1017.240
1009.586, 1007.919
1010.069, 1007.768
1010.551, 1036.847
1011.033, 1060.152
1011.515, 1046.049
1011.997, 1019.330
1012.479, 1010.798
1012.961, 1019.595
1013.443, 1026.651
1013.926, 1026.086
1014.408, 1016.374
1014.890, 1024.367
1015.372, 1028.063
1015.854, 1027.691
1016.336, 1011.072
1016.818, 1015.434
1017.300, 1011.387
1017.782, 1006.996
1018.265, 1014.306
1018.747, 1000.050
1019.229, 1007.179
1019.711, 1005.772
1020.193, 1008.271
1020.675, 1002.310
1021.157, 998.740
1021.639, 1025.259
1022.122, 1036.407
1022.604, 1016.742
1023.086, 999.637
1023.568, 995.162
1024.050, 996.037
1024.532, 1001.653
1025.014, 1008.359
1025.496, 1013.765
1025.978, 1016.940
1026.461, 1014.863
1026.943, 1002.485
1027.425, 996.471
1027.907, 1007.109
1028.389, 1017.290
1028.871, 1021.570
1029.353, 1019.867
1029.835, 1007.554
1030.318, 989.072
1030.800, 981.473
1031.282, 990.097
1031.764, 1001.918
1032.246, 1023.403
1032.728, 1037.057
1033.210, 1030.478
1033.692, 1017.798
1034.174, 1009.564
1034.656, 1006.589
1035.139, 1010.531
1035.621, 1027.233
1036.103, 1036.091
1036.585, 1031.783
1037.067, 1024.537
1037.549, 1011.956
1038.031, 1002.383
1038.513, 1004.819
1038.996, 1016.061
1039.478, 1025.165
1039.960, 1033.016
1040.442, 1036.187
1040.924, 1034.005
1041.406, 1027.811
1041.888, 1010.216
1042.370, 997.832
1042.853, 1007.598
1043.335, 1030.753
1043.817, 1042.814
1044.299, 1041.774
1044.781, 1037.557
1045.263, 1025.686
1045.745, 1021.007
1046.227, 1032.164
1046.709, 1041.998
1047.192, 1037.452
1047.674, 1023.998
1048.156, 1013.266
1048.638, 1005.309
1049.120, 999.831
1049.602, 995.906
1050.084, 998.174
1050.566, 1008.994
1051.048, 1023.084
1051.531, 1040.024
1052.013, 1052.145
1052.495, 1042.276
1052.977, 1010.736
1053.459, 997.504
1053.941, 1004.363
1054.423, 1016.893
1054.905, 1034.335
1055.388, 1045.923
1055.870, 1045.031
1056.352, 1037.689
1056.834, 1032.484
1057.316, 1029.030
1057.798, 1024.524
1058.280, 1019.065
1058.762, 1016.265
1059.245, 1016.589
1059.727, 1019.558
1060.209, 1025.359
1060.691, 1026.076
1061.173, 1007.392
1061.655, 982.152
1062.137, 996.886
1062.619, 1040.259
1063.101, 1053.156
1063.583, 1034.211
1064.066, 1020.157
1064.548, 1024.607
1065.030, 1032.528
1065.512, 1029.250
1065.994, 1022.127
1066.476, 1026.457
1066.958, 1036.052
1067.440, 1035.329
1067.923, 1026.121
1068.405, 1018.257
1068.887, 1014.550
1069.369, 1012.112
1069.851, 1008.699
1070.333, 1006.224
1070.815, 1003.861
1071.297, 1005.936
1071.780, 1027.080
1072.262, 1054.369
1072.744, 1058.083
1073.226, 1037.272
1073.708, 1017.017
1074.190, 1008.778
1074.672, 1008.612
1075.154, 1020.938
1075.636, 1032.828
1076.119, 1029.797
1076.601, 1021.403
1077.083, 1024.038
1077.565, 1034.600
1078.047, 1033.239
1078.529, 1009.156
1079.011, 996.221
1079.493, 1022.207
1079.976, 1045.952
1080.458, 1043.094
1080.940, 1031.396
1081.422, 1025.764
1081.904, 1025.869
1082.386, 1027.909
1082.868, 1031.809
1083.350, 1034.477
1083.833, 1036.326
1084.315, 1035.594
1084.797, 1028.344
1085.279, 1022.076
1085.761, 1022.709
1086.243, 1026.866
1086.725, 1029.493
1087.207, 1030.658
1087.689, 1028.958
1088.172, 1023.595
1088.654, 1017.210
1089.136, 1011.219
1089.618, 1000.765
1090.100, 977.591
1090.582, 959.234
1091.064, 970.119
1091.546, 1003.502
1092.028, 1016.632
1092.511, 1004.929
1092.993, 1003.197
1093.475, 1015.474
1093.957, 1022.169
1094.439, 1015.641
1094.921, 1009.851
1095.403, 1018.062
1095.885, 1033.138
1096.368, 1038.034
1096.850, 1033.888
1097.332, 1029.931
1097.814, 1026.292
1098.296, 1021.427
1098.778, 1015.121
1099.260, 1007.893
1099.742, 999.509
1100.224, 996.292
1100.707, 987.461
1101.189, 998.720
1101.671, 1005.103
1102.153, 1006.871
1102.635, 990.203
1103.117, 997.341
1103.599, 994.939
1104.081, 992.146
1104.563, 1002.635
1105.046, 988.649
1105.528, 998.927
1106.010, 999.519
1106.492, 997.866
1106.974, 997.634
1107.456, 998.216
1107.938, 1006.031
1108.420, 1020.560
1108.903, 1026.866
1109.385, 1012.886
1109.867, 1000.242
1110.349, 999.106
1110.831, 1000.655
1111.313, 997.929
1111.795, 995.842
1112.277, 1002.976
1112.760, 1016.896
1113.242, 1024.376
1113.724, 1022.215
1114.206, 1017.909
1114.688, 1006.361
1115.170, 1000.735
1115.652, 1007.264
1116.134, 1016.633
1116.616, 1023.487
1117.099, 1027.804
1117.581, 1029.302
1118.063, 1027.831
1118.545, 1025.935
1119.027, 1023.219
1119.509, 1021.884
1119.991, 1022.306
1120.473, 1024.224
1120.955, 1027.927
1121.438, 1031.222
1121.920, 1031.648
1122.402, 1029.213
1122.884, 1022.931
1123.366, 1013.447
1123.848, 1003.537
1124.330, 994.606
1124.812, 998.017
1125.295, 1015.807
1125.777, 1031.193
1126.259, 1031.529
1126.741, 1024.927
1127.223, 1018.229
1127.705, 1014.585
1128.187, 1024.948
1128.669, 1040.090
1129.151, 1037.808
1129.634, 1020.666
1130.116, 1011.993
1130.598, 1021.426
1131.080, 1029.353
1131.562, 1018.246
1132.044, 1007.834
1132.526, 1015.840
1133.008, 1026.183
1133.490, 1018.173
1133.973, 1003.665
1134.455, 1009.718
1134.937, 1038.661
1135.419, 1055.284
1135.901, 1045.214
1136.383, 1034.259
1136.865, 1024.071
1137.347, 1015.524
1137.830, 1008.271
1138.312, 1003.311
1138.794, 1000.917
1139.276, 1001.849
1139.758, 1010.715
1140.240, 1032.037
1140.722, 1034.459
1141.204, 1012.773
1141.687, 995.922
1142.169, 989.963
1142.651, 991.325
1143.133, 999.089
1143.615, 1006.397
1144.097, 1000.594
1144.579, 987.799
1145.061, 994.614
1145.543, 1015.518
1146.026, 1025.890
1146.508, 1024.191
1146.990, 1016.942
1147.472, 1006.991
1147.954, 998.051
1148.436, 992.907
1148.918, 990.001
1149.400, 987.759
1149.882, 986.637
1150.365, 984.734
1150.847, 985.742
1151.329, 1000.568
1151.811, 1024.009
1152.293, 1035.031
1152.775, 1025.974
1153.257, 1013.352
1153.739, 998.003
1154.222, 987.970
1154.704, 991.797
1155.186, 996.608
1155.668, 990.957
1156.150, 981.263
1156.632, 979.105
1157.114, 984.210
1157.596, 988.594
1158.078, 993.438
1158.561, 993.651
1159.043, 985.452
1159.525, 983.390
1160.007, 993.890
1160.489, 1006.543
1160.971, 1013.371
1161.453, 1015.388
1161.935, 1015.001
1162.417, 1011.929
1162.900, 1001.219
1163.382, 984.737
1163.864, 978.053
1164.346, 981.613
1164.828, 978.684
1165.310, 962.574
1165.792, 951.145
1166.274, 962.443
1166.757, 983.295
1167.239, 1002.134
1167.721, 1017.227
1168.203, 1028.528
1168.685, 1033.279
1169.167, 1020.879
1169.649, 995.835
1170.131, 985.080
1170.614, 1002.716
1171.096, 1014.982
1171.578, 1001.051
1172.060, 991.280
1172.542, 1002.479
1173.024, 1017.693
1173.506, 1026.213
1173.988, 1028.770
1174.470, 1026.521
1174.953, 1019.547
1175.435, 1012.038
1175.917, 1003.644
1176.399, 994.633
1176.881, 982.770
1177.363, 982.948
1177.845, 1002.219
1178.327, 1021.641
1178.809, 1025.512
1179.292, 1019.083
1179.774, 1009.016
1180.256, 998.052
1180.738, 999.326
1181.220, 1008.078
1181.702, 1007.146
1182.184, 996.563
1182.666, 986.405
1183.149, 980.836
1183.631, 982.587
1184.113, 999.142
1184.595, 1014.438
1185.077, 1012.787
1185.559, 1007.869
1186.041, 1014.020
1186.523, 1023.024
1187.005, 1021.877
1187.488, 1011.959
1187.970, 1004.089
1188.452, 999.601
1188.934, 998.230
1189.416, 1000.661
1189.898, 1005.559
1190.380, 1018.204
1190.862, 1022.143
1191.344, 1004.649
1191.827, 981.907
1192.309, 975.164
1192.791, 981.089
1193.273, 985.300
1193.755, 987.986
1194.237, 993.558
1194.719, 1001.597
1195.201, 1006.221
1195.684, 1006.001
1196.166, 1001.634
1196.648, 993.309
1197.130, 984.127
1197.612, 973.370
1198.094, 967.517
1198.576, 976.170
1199.058, 992.599
1199.541, 1016.592
1200.023, 1037.877
1200.505, 1031.379
1200.987, 998.658
1201.469, 985.877
1201.951, 1021.825
1202.433, 1043.396
1202.915, 1027.841
1203.397, 1011.119
1203.880, 1001.713
1204.362, 998.379
1204.844, 1004.044
1205.326, 1010.562
1205.808, 1000.991
1206.290, 978.175
1206.772, 979.656
1207.254, 1005.751
1207.736, 1013.539
1208.219, 1000.260
1208.701, 984.534
1209.183, 972.757
1209.665, 970.187
1210.147, 981.491
1210.629, 996.698
1211.111, 1003.239
1211.593, 1007.016
1212.076, 1018.992
1212.558, 1030.734
1213.040, 1027.041
1213.522, 1013.645
1214.004, 1006.719
1214.486, 1008.932
1214.968, 1008.284
1215.450, 996.168
1215.932, 989.752
1216.415, 995.056
1216.897, 1002.416
1217.379, 1010.815
1217.861, 1017.231
1218.343, 1018.723
1218.825, 1017.800
1219.307, 1020.258
1219.789, 1025.107
##END=



