##NAMES=Ulrichite
##RRUFFID=R070748
##IDEAL CHEMISTRY=CaCu^2+^(U^6+^O_2_)(P^5+^O_4_)_2_&#183;4H_2_O
##LOCALITY=Lake Boga Quarry, Lake Boga, Victoria, Australia
##OWNER=RRUFF
##SOURCE=Royal Ontario Museum
##DESCRIPTION=Radiating aggregates of light green acicular crystals associated with quartz
##STATUS=The identification of this mineral has been confirmed by single-crystal X-ray diffraction.
##URL=rruff.info/R070748
127.4942, 705.8170
127.9763, 711.4848
128.4584, 735.2885
128.9406, 753.0367
129.4227, 758.8386
129.9048, 760.7340
130.3869, 766.5317
130.8690, 779.6343
131.3511, 796.6459
131.8333, 805.3463
132.3154, 793.0365
132.7975, 785.7761
133.2796, 790.0704
133.7617, 801.2661
134.2438, 811.6660
134.7260, 816.4799
135.2081, 815.8434
135.6902, 813.7281
136.1723, 808.2455
136.6544, 803.2964
137.1365, 799.8867
137.6187, 798.3351
138.1008, 800.2635
138.5829, 809.7444
139.0650, 826.1487
139.5471, 832.1404
140.0292, 818.3006
140.5114, 797.4164
140.9935, 782.7702
141.4756, 776.2777
141.9577, 775.0194
142.4398, 777.8013
142.9219, 783.8351
143.4041, 790.4882
143.8862, 795.5973
144.3683, 800.2570
144.8504, 809.5616
145.3325, 831.1454
145.8146, 848.8171
146.2968, 849.6315
146.7789, 834.1107
147.2610, 813.3531
147.7431, 796.1240
148.2252, 782.6754
148.7073, 768.8997
149.1895, 753.7224
149.6716, 738.1781
150.1537, 721.9740
150.6358, 705.1649
151.1179, 689.5767
151.6000, 678.7421
152.0821, 675.7509
152.5643, 670.8740
153.0464, 660.3582
153.5285, 648.9609
154.0106, 641.2192
154.4927, 639.0677
154.9748, 640.4417
155.4570, 638.8929
155.9391, 628.9565
156.4212, 622.2615
156.9033, 622.9237
157.3854, 626.9341
157.8675, 628.0602
158.3497, 622.1227
158.8318, 610.3104
159.3139, 606.5280
159.7960, 618.3284
160.2781, 629.2105
160.7602, 632.6168
161.2424, 630.4674
161.7245, 629.4808
162.2066, 635.6732
162.6887, 649.2093
163.1708, 654.4568
163.6529, 642.5288
164.1351, 630.0208
164.6172, 629.0241
165.0993, 640.0508
165.5814, 653.9186
166.0635, 663.5743
166.5456, 668.7571
167.0278, 668.4613
167.5099, 656.8638
167.9920, 641.9025
168.4741, 633.1119
168.9562, 632.1379
169.4383, 636.0953
169.9205, 645.4608
170.4026, 658.9927
170.8847, 668.2375
171.3668, 666.6428
171.8489, 657.9509
172.3310, 653.0837
172.8132, 654.9868
173.2953, 659.5795
173.7774, 662.3443
174.2595, 663.5389
174.7416, 666.5344
175.2237, 676.2764
175.7059, 692.4817
176.1880, 702.3478
176.6701, 696.4613
177.1522, 689.1719
177.6343, 690.3083
178.1164, 700.6373
178.5986, 713.2483
179.0807, 718.8162
179.5628, 714.0158
180.0449, 716.4455
180.5270, 738.2011
181.0091, 761.7835
181.4913, 775.5502
181.9734, 776.4668
182.4555, 771.3781
182.9376, 772.3549
183.4197, 785.0190
183.9018, 792.4443
184.3840, 788.4719
184.8661, 781.6885
185.3482, 778.9925
185.8303, 783.2072
186.3124, 792.9156
186.7945, 804.8692
187.2767, 824.7092
187.7588, 839.3442
188.2409, 841.1741
188.7230, 839.4655
189.2051, 846.5027
189.6872, 869.1398
190.1694, 902.5867
190.6515, 924.7496
191.1336, 925.4426
191.6157, 926.1205
192.0978, 925.3745
192.5799, 927.3644
193.0621, 941.2224
193.5442, 974.7666
194.0263, 1024.108
194.5084, 1050.390
194.9905, 1040.488
195.4726, 1027.012
195.9548, 1019.959
196.4369, 1018.844
196.9190, 1020.095
197.4011, 1021.097
197.8832, 1022.410
198.3653, 1028.375
198.8475, 1044.467
199.3296, 1060.051
199.8117, 1068.674
200.2938, 1070.545
200.7759, 1069.826
201.2580, 1067.813
201.7402, 1065.570
202.2223, 1069.201
202.7044, 1086.800
203.1865, 1105.467
203.6686, 1111.396
204.1507, 1103.255
204.6329, 1095.103
205.1150, 1101.341
205.5971, 1117.394
206.0792, 1126.510
206.5613, 1118.201
207.0434, 1104.033
207.5256, 1100.598
208.0077, 1110.890
208.4898, 1123.751
208.9719, 1129.935
209.4540, 1131.796
209.9361, 1134.471
210.4183, 1142.818
210.9004, 1152.927
211.3825, 1154.494
211.8646, 1142.065
212.3467, 1131.362
212.8288, 1136.905
213.3110, 1152.873
213.7931, 1164.795
214.2752, 1161.829
214.7573, 1147.737
215.2394, 1137.991
215.7215, 1132.912
216.2037, 1133.035
216.6858, 1141.399
217.1679, 1155.041
217.6500, 1165.464
218.1321, 1167.933
218.6142, 1162.543
219.0964, 1149.289
219.5785, 1119.062
220.0606, 1090.480
220.5427, 1076.619
221.0248, 1072.907
221.5069, 1064.513
221.9891, 1033.839
222.4712, 979.1372
222.9533, 941.6513
223.4354, 935.5255
223.9175, 935.8757
224.3996, 938.0453
224.8818, 939.4402
225.3639, 935.7242
225.8460, 921.0672
226.3281, 893.4171
226.8102, 869.5192
227.2923, 852.3229
227.7745, 836.5689
228.2566, 819.1659
228.7387, 800.9633
229.2208, 785.8284
229.7029, 779.8273
230.1850, 787.3562
230.6672, 783.6335
231.1493, 754.7090
231.6314, 727.0654
232.1135, 714.6047
232.5956, 716.6812
233.0777, 723.0551
233.5599, 722.5564
234.0420, 713.1565
234.5241, 703.9653
235.0062, 694.3381
235.4883, 685.3560
235.9704, 678.5251
236.4526, 673.4397
236.9347, 667.8710
237.4168, 658.9610
237.8989, 644.7897
238.3810, 633.6542
238.8631, 627.5821
239.3453, 622.4182
239.8274, 616.8403
240.3095, 610.1199
240.7916, 600.7954
241.2737, 586.0436
241.7558, 560.6019
242.2380, 547.3449
242.7201, 557.2969
243.2022, 569.4135
243.6843, 570.4150
244.1664, 558.6379
244.6485, 540.5822
245.1307, 522.8658
245.6128, 503.6503
246.0949, 492.4022
246.5770, 493.8322
247.0591, 499.0151
247.5412, 503.5690
248.0234, 506.1667
248.5055, 504.9261
248.9876, 496.6425
249.4697, 477.0991
249.9518, 466.1940
250.4339, 471.1103
250.9161, 479.2725
251.3982, 481.8102
251.8803, 477.4433
252.3624, 469.5634
252.8445, 461.7370
253.3266, 454.1447
253.8088, 445.6322
254.2909, 433.3518
254.7730, 422.0638
255.2551, 415.2883
255.7372, 413.5455
256.2193, 415.9149
256.7014, 423.0383
257.1836, 437.1051
257.6657, 441.6874
258.1478, 426.8350
258.6299, 408.9080
259.1120, 402.0202
259.5941, 407.5085
260.0763, 416.2217
260.5584, 419.3011
261.0405, 415.6025
261.5226, 413.9651
262.0047, 417.9154
262.4868, 421.7314
262.9690, 419.2200
263.4511, 410.1431
263.9332, 401.4277
264.4153, 383.0680
264.8974, 402.9744
265.3795, 413.8914
265.8617, 416.3019
266.3438, 384.7286
266.8259, 397.0385
267.3080, 391.7619
267.7901, 385.7643
268.2722, 404.2505
268.7544, 377.6200
269.2365, 395.7179
269.7186, 395.9611
270.2007, 404.3760
270.6828, 395.0959
271.1649, 391.2812
271.6471, 405.1670
272.1292, 409.2519
272.6113, 397.9348
273.0934, 406.8691
273.5755, 379.6206
274.0576, 393.6743
274.5398, 389.8452
275.0219, 376.9897
275.5040, 367.8727
275.9861, 374.2166
276.4682, 392.4901
276.9503, 398.4629
277.4325, 376.5644
277.9146, 354.8888
278.3967, 357.1680
278.8788, 380.5819
279.3609, 400.7036
279.8430, 401.1366
280.3252, 386.1533
280.8073, 377.3961
281.2894, 379.7616
281.7715, 383.6888
282.2536, 383.7191
282.7357, 380.2222
283.2179, 374.9259
283.7000, 367.4056
284.1821, 359.4714
284.6642, 356.2273
285.1463, 361.6285
285.6284, 366.5574
286.1106, 364.9663
286.5927, 358.2787
287.0748, 352.3239
287.5569, 349.9722
288.0390, 349.7988
288.5211, 347.7355
289.0033, 341.3322
289.4854, 337.4586
289.9675, 342.3863
290.4496, 352.9748
290.9317, 359.6440
291.4138, 358.6402
291.8960, 351.6352
292.3781, 341.1085
292.8602, 324.2216
293.3423, 311.3274
293.8244, 309.5042
294.3065, 314.6665
294.7887, 317.5419
295.2708, 315.0271
295.7529, 309.2939
296.2350, 303.1615
296.7171, 295.6702
297.1992, 291.3045
297.6814, 296.3251
298.1635, 304.5001
298.6456, 303.1275
299.1277, 287.1268
299.6098, 267.2184
300.0919, 258.5190
300.5741, 261.0083
301.0562, 267.1540
301.5383, 282.9662
302.0204, 298.7852
302.5025, 297.4234
302.9846, 273.9278
303.4668, 248.2137
303.9489, 246.0617
304.4310, 269.2191
304.9131, 282.4907
305.3952, 274.0051
305.8773, 257.3853
306.3595, 245.3426
306.8416, 239.4992
307.3237, 237.9196
307.8058, 239.7516
308.2879, 245.1960
308.7701, 249.9488
309.2522, 255.8445
309.7343, 259.5914
310.2164, 256.8177
310.6985, 248.0189
311.1806, 239.9491
311.6628, 238.4370
312.1449, 242.9551
312.6270, 243.0209
313.1091, 232.5622
313.5912, 223.2333
314.0733, 223.9751
314.5555, 232.6215
315.0376, 238.9559
315.5197, 235.6197
316.0018, 225.0660
316.4839, 221.8030
316.9660, 232.5539
317.4482, 242.1810
317.9303, 245.3561
318.4124, 243.1241
318.8945, 237.0933
319.3766, 227.1405
319.8587, 215.6143
320.3409, 211.0410
320.8230, 220.4890
321.3051, 226.1571
321.7872, 220.6073
322.2693, 209.8955
322.7514, 203.5402
323.2336, 205.3265
323.7157, 211.1591
324.1978, 212.7033
324.6799, 205.9056
325.1620, 202.0023
325.6441, 202.7852
326.1263, 206.3722
326.6084, 212.0404
327.0905, 219.3639
327.5726, 225.7497
328.0547, 227.2164
328.5368, 219.9568
329.0190, 217.4254
329.5011, 225.5641
329.9832, 233.9798
330.4653, 233.8476
330.9474, 224.9967
331.4295, 214.8109
331.9117, 211.2891
332.3938, 216.4937
332.8759, 216.5652
333.3580, 205.6094
333.8401, 195.9056
334.3222, 194.2607
334.8044, 199.3924
335.2865, 206.0162
335.7686, 210.2764
336.2507, 212.1916
336.7328, 212.7117
337.2149, 209.8186
337.6971, 207.7627
338.1792, 206.7209
338.6613, 207.3957
339.1434, 211.6026
339.6255, 220.8197
340.1076, 232.9891
340.5898, 239.2200
341.0719, 233.5543
341.5540, 229.0430
342.0361, 226.2399
342.5182, 225.6328
343.0003, 228.4641
343.4825, 235.1510
343.9646, 243.3680
344.4467, 248.2198
344.9288, 247.1449
345.4109, 247.5854
345.8930, 250.3131
346.3752, 254.2651
346.8573, 259.5387
347.3394, 262.9464
347.8215, 269.9314
348.3036, 275.2817
348.7857, 279.0855
349.2679, 276.7111
349.7500, 282.3146
350.2321, 284.7206
350.7142, 286.9957
351.1963, 293.7221
351.6784, 292.2458
352.1606, 298.9024
352.6427, 302.3119
353.1248, 308.1279
353.6069, 308.0259
354.0890, 308.7842
354.5711, 314.3949
355.0533, 322.9518
355.5354, 330.7115
356.0175, 335.7206
356.4996, 338.3570
356.9817, 340.0872
357.4638, 342.2868
357.9460, 340.2409
358.4281, 331.1407
358.9102, 317.4913
359.3923, 301.1545
359.8744, 281.7726
360.3565, 262.2541
360.8387, 245.6697
361.3208, 231.7073
361.8029, 223.0405
362.2850, 223.1853
362.7671, 227.6220
363.2492, 233.5898
363.7314, 241.5779
364.2135, 245.4829
364.6956, 236.9285
365.1777, 218.8114
365.6598, 207.5553
366.1419, 209.6446
366.6241, 215.2904
367.1062, 213.2340
367.5883, 204.1651
368.0704, 197.5238
368.5525, 199.7687
369.0346, 206.1877
369.5168, 208.3605
369.9989, 204.8195
370.4810, 200.2331
370.9631, 198.3723
371.4452, 198.8656
371.9273, 199.5302
372.4095, 200.3757
372.8916, 201.0930
373.3737, 201.8465
373.8558, 202.4740
374.3379, 201.9359
374.8200, 199.8218
375.3022, 195.8821
375.7843, 189.4997
376.2664, 178.0605
376.7485, 167.4267
377.2306, 157.0455
377.7127, 149.1801
378.1949, 150.3714
378.6770, 164.2221
379.1591, 183.0962
379.6412, 190.5620
380.1233, 178.2488
380.6054, 170.0064
381.0876, 170.7511
381.5697, 174.3202
382.0518, 175.0213
382.5339, 171.7596
383.0160, 166.6580
383.4981, 161.9393
383.9803, 157.1978
384.4624, 154.7922
384.9445, 157.1498
385.4266, 159.1803
385.9087, 156.6598
386.3908, 151.3956
386.8730, 149.0903
387.3551, 154.4971
387.8372, 166.5534
388.3193, 173.5703
388.8014, 170.3506
389.2835, 167.6961
389.7657, 168.0598
390.2478, 169.7986
390.7299, 170.6752
391.2120, 169.7030
391.6941, 167.7496
392.1762, 166.1014
392.6584, 163.4953
393.1405, 164.5185
393.6226, 176.9408
394.1047, 188.0105
394.5868, 186.4933
395.0689, 171.7351
395.5511, 155.7383
396.0332, 152.5362
396.5153, 162.2765
396.9974, 164.8605
397.4795, 152.6488
397.9616, 140.6229
398.4438, 138.0600
398.9259, 142.6548
399.4080, 147.3593
399.8901, 146.9891
400.3722, 144.6667
400.8543, 149.4420
401.3365, 164.3120
401.8186, 174.3788
402.3007, 166.3204
402.7828, 149.6522
403.2649, 138.5007
403.7470, 136.2812
404.2292, 138.2643
404.7113, 141.7929
405.1934, 146.5734
405.6755, 151.6180
406.1576, 158.0384
406.6397, 162.4965
407.1219, 157.3059
407.6040, 139.5404
408.0861, 128.0233
408.5682, 133.0603
409.0503, 146.0177
409.5324, 155.4905
410.0146, 159.4091
410.4967, 161.4702
410.9788, 166.2659
411.4609, 174.6254
411.9430, 174.4884
412.4251, 153.3206
412.9073, 135.3890
413.3894, 138.1837
413.8715, 156.4309
414.3536, 172.6632
414.8357, 176.0483
415.3178, 169.2515
415.8000, 164.8542
416.2821, 163.9615
416.7642, 164.2461
417.2463, 165.4685
417.7284, 167.7795
418.2105, 172.5644
418.6927, 179.8792
419.1748, 186.4378
419.6569, 186.1976
420.1390, 174.6799
420.6211, 168.7745
421.1032, 173.7432
421.5854, 179.3906
422.0675, 180.0043
422.5496, 176.5440
423.0317, 174.0462
423.5138, 177.2616
423.9959, 184.8093
424.4781, 187.7588
424.9602, 183.1289
425.4423, 178.8367
425.9244, 177.3629
426.4065, 178.0717
426.8886, 180.4319
427.3708, 184.5410
427.8529, 189.4364
428.3350, 195.4345
428.8171, 202.6747
429.2992, 204.2355
429.7813, 193.8463
430.2635, 180.9590
430.7456, 176.2790
431.2277, 180.1342
431.7098, 185.7438
432.1919, 191.4557
432.6740, 196.3809
433.1562, 198.0275
433.6383, 195.6116
434.1204, 193.7788
434.6025, 197.5281
435.0846, 206.2059
435.5667, 210.7737
436.0489, 206.7016
436.5310, 202.3350
437.0131, 204.0739
437.4952, 209.7358
437.9773, 211.7440
438.4594, 205.5725
438.9416, 195.7063
439.4237, 194.4758
439.9058, 212.3576
440.3879, 224.1961
440.8700, 225.7662
441.3521, 222.6363
441.8343, 218.3421
442.3164, 214.2480
442.7985, 212.0337
443.2806, 213.9509
443.7627, 220.7321
444.2448, 226.3733
444.7270, 231.7207
445.2091, 235.0046
445.6912, 234.7373
446.1733, 232.0330
446.6554, 228.5675
447.1375, 224.9081
447.6197, 221.8591
448.1018, 222.1736
448.5839, 228.0242
449.0660, 231.1395
449.5481, 225.9751
450.0302, 219.3769
450.5124, 216.7899
450.9945, 219.0776
451.4766, 222.1164
451.9587, 222.9296
452.4408, 221.7644
452.9229, 219.4654
453.4051, 215.4719
453.8872, 211.7650
454.3693, 209.4781
454.8514, 208.6632
455.3335, 210.2007
455.8156, 219.3466
456.2978, 227.1074
456.7799, 221.7625
457.2620, 206.0803
457.7441, 196.6745
458.2262, 202.9445
458.7083, 218.6258
459.1904, 226.9174
459.6725, 225.0665
460.1547, 222.4937
460.6368, 220.0014
461.1189, 217.9916
461.6010, 217.1684
462.0831, 217.5414
462.5652, 218.3148
463.0474, 219.0000
463.5295, 219.9919
464.0116, 217.3123
464.4937, 205.0274
464.9758, 195.6391
465.4579, 195.2027
465.9401, 199.9946
466.4222, 203.3899
466.9043, 193.6784
467.3864, 202.9444
467.8685, 207.7156
468.3506, 208.2337
468.8328, 191.7595
469.3149, 197.2272
469.7970, 193.9017
470.2791, 190.2156
470.7612, 198.7714
471.2433, 184.7690
471.7255, 193.1305
472.2076, 192.5648
472.6897, 196.0850
473.1718, 190.7576
473.6539, 188.1631
474.1360, 194.4188
474.6182, 195.7738
475.1003, 189.4279
475.5824, 186.7378
476.0645, 189.3605
476.5466, 191.5833
477.0287, 193.4554
477.5109, 195.1950
477.9930, 196.9297
478.4751, 198.3438
478.9572, 198.8936
479.4393, 198.3754
479.9214, 197.5799
480.4036, 194.1675
480.8857, 192.3389
481.3678, 197.9614
481.8499, 208.8409
482.3320, 215.7072
482.8141, 211.2654
483.2963, 197.6188
483.7784, 188.6985
484.2605, 186.5247
484.7426, 186.8668
485.2247, 191.0166
485.7068, 196.3083
486.1890, 200.5671
486.6711, 203.1289
487.1532, 204.1553
487.6353, 202.9093
488.1174, 199.1968
488.5995, 198.4277
489.0817, 204.3635
489.5638, 208.4956
490.0459, 205.0693
490.5280, 196.5480
491.0101, 188.5075
491.4922, 182.1747
491.9744, 178.2044
492.4565, 178.2860
492.9386, 182.1419
493.4207, 185.9544
493.9028, 188.5263
494.3849, 190.0209
494.8671, 190.3870
495.3492, 189.2430
495.8313, 188.8679
496.3134, 190.8419
496.7955, 193.1935
497.2776, 194.6931
497.7598, 194.8743
498.2419, 191.8414
498.7240, 182.9512
499.2061, 169.2230
499.6882, 164.1408
500.1703, 177.1243
500.6525, 187.4785
501.1346, 189.9481
501.6167, 188.9771
502.0988, 189.9956
502.5809, 194.5042
503.0630, 199.4914
503.5452, 201.0470
504.0273, 198.7920
504.5094, 195.6378
504.9915, 190.5114
505.4736, 185.8340
505.9557, 182.2314
506.4379, 179.9331
506.9200, 179.5361
507.4021, 182.2949
507.8842, 185.8263
508.3663, 184.8817
508.8484, 179.8003
509.3306, 174.0255
509.8127, 184.3174
510.2948, 190.1146
510.7769, 191.6586
511.2590, 176.2106
511.7411, 182.7043
512.2233, 180.4047
512.7054, 177.7446
513.1875, 187.3264
513.6696, 174.3499
514.1517, 183.7376
514.6339, 179.4590
515.1160, 167.7027
515.5981, 161.5586
516.0802, 165.0274
516.5623, 169.3803
517.0444, 176.4286
517.5266, 182.5176
518.0087, 182.7460
518.4908, 176.8729
518.9729, 170.7280
519.4550, 172.0343
519.9371, 181.1091
520.4193, 184.0988
520.9014, 175.7350
521.3835, 169.0570
521.8656, 173.1788
522.3477, 181.6503
522.8298, 183.4608
523.3120, 172.7767
523.7941, 160.5122
524.2762, 157.2185
524.7583, 161.8322
525.2404, 170.1322
525.7225, 183.1031
526.2047, 194.2098
526.6868, 193.8619
527.1689, 181.5215
527.6510, 172.6731
528.1331, 172.2968
528.6152, 172.6778
529.0974, 167.8597
529.5795, 159.5005
530.0616, 152.6395
530.5437, 149.8276
531.0258, 150.0725
531.5079, 150.8520
531.9901, 150.7557
532.4722, 153.9804
532.9543, 164.9192
533.4364, 175.1449
533.9185, 179.8504
534.4006, 178.9950
534.8828, 174.1226
535.3649, 163.9642
535.8470, 151.9603
536.3291, 150.5844
536.8112, 163.0617
537.2933, 173.9460
537.7755, 177.6397
538.2576, 176.5214
538.7397, 172.3793
539.2218, 164.7229
539.7039, 158.3302
540.1860, 155.9546
540.6682, 156.1826
541.1503, 157.2170
541.6324, 158.7994
542.1145, 160.6728
542.5966, 163.1324
543.0787, 165.7666
543.5609, 164.8724
544.0430, 155.0242
544.5251, 148.8906
545.0072, 150.8828
545.4893, 156.8173
545.9714, 163.9464
546.4536, 170.7825
546.9357, 174.1640
547.4178, 168.8664
547.8999, 154.3742
548.3820, 147.2603
548.8641, 152.9023
549.3463, 158.3710
549.8284, 157.6444
550.3105, 154.3304
550.7926, 153.7744
551.2747, 158.1582
551.7568, 162.8313
552.2390, 163.7657
552.7211, 161.4208
553.2032, 156.6388
553.6853, 148.5444
554.1674, 142.0115
554.6495, 142.3034
555.1317, 149.4284
555.6138, 155.1728
556.0959, 158.3376
556.5780, 161.2185
557.0601, 166.3665
557.5422, 171.6079
558.0244, 171.6190
558.5065, 164.7214
558.9886, 157.2287
559.4707, 151.6886
559.9528, 162.1132
560.4349, 168.0431
560.9171, 169.7198
561.3992, 154.4046
561.8813, 161.0309
562.3634, 158.8641
562.8455, 156.3366
563.3276, 166.0511
563.8098, 153.2074
564.2919, 162.7278
564.7740, 163.3208
565.2561, 167.9996
565.7382, 163.8310
566.2203, 162.3950
566.7025, 169.8094
567.1846, 172.3233
567.6667, 167.1362
568.1488, 172.0747
568.6309, 158.9219
569.1130, 161.6445
569.5952, 171.2167
570.0773, 166.4744
570.5594, 171.5747
571.0415, 172.9264
571.5236, 157.2423
572.0057, 171.1852
572.4879, 172.3154
572.9700, 160.2897
573.4521, 173.2175
573.9342, 163.0055
574.4163, 161.0529
574.8984, 165.3162
575.3806, 163.0998
575.8627, 170.1837
576.3448, 165.5929
576.8269, 151.3637
577.3090, 144.0113
577.7911, 150.1382
578.2733, 160.1830
578.7554, 164.9923
579.2375, 165.0527
579.7196, 162.4470
580.2017, 152.1716
580.6838, 144.2374
581.1660, 149.0158
581.6481, 161.6256
582.1302, 168.6926
582.6123, 164.4530
583.0944, 155.5675
583.5765, 154.0632
584.0587, 164.1495
584.5408, 169.6072
585.0229, 168.9608
585.5050, 165.4731
585.9871, 157.3055
586.4692, 147.7220
586.9514, 134.4217
587.4335, 145.3039
587.9156, 151.6915
588.3977, 153.8259
588.8798, 138.9684
589.3619, 146.0523
589.8441, 144.3433
590.3262, 142.2735
590.8083, 152.4456
591.2904, 140.0595
591.7725, 150.0375
592.2546, 151.0881
592.7368, 156.2248
593.2189, 152.5137
593.7010, 151.5354
594.1831, 147.3508
594.6652, 154.2037
595.1473, 164.7875
595.6295, 168.5792
596.1116, 164.7877
596.5937, 158.0091
597.0758, 140.1703
597.5579, 128.0016
598.0400, 130.9478
598.5222, 141.8158
599.0043, 149.4406
599.4864, 149.5513
599.9685, 147.1627
600.4506, 148.0141
600.9327, 151.1431
601.4149, 151.2854
601.8970, 146.8922
602.3791, 142.1940
602.8612, 140.7315
603.3433, 142.3001
603.8254, 143.6101
604.3076, 144.3588
604.7897, 145.2084
605.2718, 145.7930
605.7539, 146.8670
606.2360, 150.6886
606.7181, 157.1134
607.2003, 161.6744
607.6824, 158.6817
608.1645, 148.3770
608.6466, 142.3964
609.1287, 142.6372
609.6108, 144.1300
610.0930, 147.2247
610.5751, 149.6270
611.0572, 148.2714
611.5393, 142.4051
612.0214, 136.2472
612.5035, 132.0454
612.9857, 129.6062
613.4678, 128.0226
613.9499, 127.2931
614.4320, 130.4615
614.9141, 141.3812
615.3962, 156.1322
615.8784, 160.5236
616.3605, 140.9378
616.8426, 129.9624
617.3247, 135.8093
617.8068, 145.4490
618.2889, 148.6341
618.7711, 145.9211
619.2532, 144.2710
619.7353, 149.2715
620.2174, 157.4655
620.6995, 158.7859
621.1816, 151.7934
621.6638, 146.5288
622.1459, 146.8141
622.6280, 148.5635
623.1101, 147.4165
623.5922, 143.5735
624.0743, 139.9876
624.5565, 137.7195
625.0386, 135.7565
625.5207, 131.2768
626.0028, 126.4857
626.4849, 128.3352
626.9670, 139.6849
627.4492, 153.9935
627.9313, 160.4375
628.4134, 156.8283
628.8955, 154.2475
629.3776, 154.4050
629.8597, 153.8352
630.3419, 150.3075
630.8240, 145.6939
631.3061, 142.6483
631.7882, 141.9224
632.2703, 143.5110
632.7524, 149.8641
633.2346, 158.6855
633.7167, 161.0577
634.1988, 155.0087
634.6809, 148.7918
635.1630, 148.7661
635.6451, 153.8643
636.1273, 157.2127
636.6094, 159.2535
637.0915, 159.2323
637.5736, 156.5181
638.0557, 152.0161
638.5378, 145.0088
639.0200, 136.5623
639.5021, 130.5461
639.9842, 130.0973
640.4663, 134.2246
640.9484, 139.9254
641.4305, 147.6091
641.9127, 155.1904
642.3948, 163.0894
642.8769, 169.6436
643.3590, 173.4819
643.8411, 174.6228
644.3232, 173.2406
644.8054, 164.7855
645.2875, 157.7906
645.7696, 162.9069
646.2517, 174.8728
646.7338, 179.6597
647.2159, 171.7695
647.6981, 157.4821
648.1802, 144.8943
648.6623, 132.6823
649.1444, 129.6156
649.6265, 143.9942
650.1086, 157.9330
650.5908, 167.8092
651.0729, 172.8943
651.5550, 170.6163
652.0371, 159.0005
652.5192, 149.3261
653.0013, 153.1871
653.4835, 164.6664
653.9656, 171.3257
654.4477, 171.8229
654.9298, 168.6040
655.4119, 162.3722
655.8940, 154.3650
656.3762, 149.3932
656.8583, 147.7334
657.3404, 149.0042
657.8225, 155.8214
658.3046, 163.3783
658.7867, 169.9285
659.2689, 174.3810
659.7510, 174.4381
660.2331, 167.5630
660.7152, 158.2707
661.1973, 153.8444
661.6794, 154.2136
662.1616, 158.8711
662.6437, 170.2861
663.1258, 179.8557
663.6079, 176.6034
664.0900, 161.4850
664.5721, 155.1540
665.0543, 168.2532
665.5364, 178.3375
666.0185, 174.0029
666.5006, 163.6052
666.9827, 157.1776
667.4648, 156.9032
667.9470, 159.5432
668.4291, 162.8785
668.9112, 166.4377
669.3933, 166.8689
669.8754, 162.8899
670.3575, 160.1100
670.8397, 162.0101
671.3218, 164.6454
671.8039, 162.4268
672.2860, 155.0686
672.7681, 151.0942
673.2502, 157.1787
673.7324, 163.8725
674.2145, 162.7357
674.6966, 156.2930
675.1787, 150.0188
675.6608, 146.1341
676.1429, 146.7538
676.6251, 157.5682
677.1072, 181.5582
677.5893, 191.0249
678.0714, 176.2139
678.5535, 161.0864
679.0356, 153.2712
679.5178, 151.1025
679.9999, 154.4869
680.4820, 164.6721
680.9641, 171.0700
681.4462, 162.4840
681.9283, 149.5368
682.4105, 149.2407
682.8926, 160.0864
683.3747, 165.3670
683.8568, 155.0621
684.3389, 137.7879
684.8210, 134.6893
685.3032, 155.0369
685.7853, 167.5066
686.2674, 166.8086
686.7495, 163.4480
687.2316, 160.6328
687.7137, 158.3697
688.1959, 155.7545
688.6780, 151.8008
689.1601, 149.9703
689.6422, 155.4287
690.1243, 164.6871
690.6064, 169.5630
691.0886, 169.0850
691.5707, 167.7765
692.0528, 168.7031
692.5349, 171.3129
693.0170, 173.5591
693.4991, 176.7075
693.9813, 177.3038
694.4634, 172.8610
694.9455, 168.1945
695.4276, 167.1993
695.9097, 168.4122
696.3918, 166.9222
696.8740, 158.6766
697.3561, 151.0348
697.8382, 155.5102
698.3203, 168.0661
698.8024, 173.4238
699.2845, 168.3688
699.7667, 159.8149
700.2488, 152.1413
700.7309, 145.9503
701.2130, 146.0925
701.6951, 165.1987
702.1772, 173.7014
702.6594, 160.0561
703.1415, 142.6399
703.6236, 134.6035
704.1057, 135.7809
704.5878, 139.1819
705.0699, 141.3726
705.5521, 143.0079
706.0342, 144.5412
706.5163, 146.1968
706.9984, 149.7436
707.4805, 155.9193
707.9626, 162.2586
708.4448, 167.0547
708.9269, 170.1995
709.4090, 168.6827
709.8911, 155.7612
710.3732, 147.3172
710.8553, 148.0346
711.3375, 152.4366
711.8196, 157.6351
712.3017, 162.2098
712.7838, 163.3830
713.2659, 157.5636
713.7480, 149.5513
714.2302, 147.1295
714.7123, 149.8291
715.1944, 154.5016
715.6765, 160.8838
716.1586, 166.6387
716.6407, 169.4876
717.1229, 169.4220
717.6050, 168.3712
718.0871, 164.6603
718.5692, 162.2083
719.0513, 161.5554
719.5334, 162.5377
720.0156, 165.9296
720.4977, 171.0880
720.9798, 175.3473
721.4619, 177.2518
721.9440, 177.0249
722.4261, 173.8083
722.9083, 168.2351
723.3904, 165.6187
723.8725, 168.0242
724.3546, 170.1819
724.8367, 165.7568
725.3188, 154.7532
725.8010, 149.8514
726.2831, 156.9043
726.7652, 162.2425
727.2473, 161.9454
727.7294, 160.2967
728.2115, 160.5116
728.6937, 163.0912
729.1758, 167.8750
729.6579, 177.7382
730.1400, 186.6083
730.6221, 183.1318
731.1042, 169.9549
731.5864, 160.4481
732.0685, 158.1020
732.5506, 159.2530
733.0327, 161.0632
733.5148, 163.3721
733.9969, 161.9434
734.4791, 149.7823
734.9612, 143.2094
735.4433, 147.6978
735.9254, 155.6336
736.4075, 162.2885
736.8896, 166.8233
737.3718, 168.9762
737.8539, 167.6313
738.3360, 165.0765
738.8181, 163.4131
739.3002, 162.6888
739.7823, 163.4881
740.2645, 165.9515
740.7466, 168.0279
741.2287, 167.3925
741.7108, 164.7457
742.1929, 166.5340
742.6750, 177.3590
743.1572, 184.6808
743.6393, 183.2788
744.1214, 181.2967
744.6035, 185.7970
745.0856, 194.7630
745.5677, 199.7210
746.0499, 196.3238
746.5320, 189.6142
747.0141, 181.1955
747.4962, 173.1381
747.9783, 170.2559
748.4604, 172.9748
748.9426, 177.5492
749.4247, 181.6448
749.9068, 184.4212
750.3889, 181.8813
750.8710, 171.4001
751.3531, 162.8851
751.8353, 155.6993
752.3174, 152.8456
752.7995, 157.6579
753.2816, 167.9585
753.7637, 178.0421
754.2458, 188.2041
754.7280, 195.3535
755.2101, 196.7805
755.6922, 195.0092
756.1743, 191.1161
756.6564, 186.6567
757.1385, 187.0454
757.6207, 196.3459
758.1028, 208.4901
758.5849, 208.2092
759.0670, 193.4486
759.5491, 187.6360
760.0313, 197.0824
760.5134, 207.6295
760.9955, 211.8181
761.4776, 210.2663
761.9597, 204.0365
762.4418, 188.0457
762.9240, 179.2015
763.4061, 188.4359
763.8882, 200.0273
764.3703, 199.8382
764.8524, 192.4819
765.3345, 191.2113
765.8167, 201.8564
766.2988, 216.7262
766.7809, 225.9410
767.2630, 230.6357
767.7451, 238.2241
768.2272, 250.0704
768.7094, 255.6338
769.1915, 247.3553
769.6736, 232.5320
770.1557, 224.9675
770.6378, 225.4202
771.1199, 231.6075
771.6021, 252.0266
772.0842, 268.5242
772.5663, 270.4817
773.0484, 265.6069
773.5305, 264.9534
774.0126, 270.9361
774.4948, 276.4807
774.9769, 273.4264
775.4590, 268.1754
775.9411, 273.1054
776.4232, 286.1178
776.9053, 295.1443
777.3875, 295.7058
777.8696, 292.3388
778.3517, 289.4719
778.8338, 286.8866
779.3159, 294.3226
779.7980, 320.4345
780.2802, 342.2763
780.7623, 352.8824
781.2444, 358.3294
781.7265, 361.6401
782.2086, 363.6071
782.6907, 367.7388
783.1729, 374.4802
783.6550, 384.5108
784.1371, 403.6288
784.6192, 424.1237
785.1013, 431.3979
785.5834, 424.9844
786.0656, 419.1999
786.5477, 425.0235
787.0298, 439.9739
787.5119, 457.9260
787.9940, 479.2293
788.4761, 500.0818
788.9583, 519.6911
789.4404, 538.6579
789.9225, 555.2506
790.4046, 571.3315
790.8867, 595.7633
791.3688, 637.5806
791.8510, 672.9558
792.3331, 693.0444
792.8152, 709.9856
793.2973, 728.6887
793.7794, 751.8847
794.2615, 784.1085
794.7437, 827.6957
795.2258, 876.6161
795.7079, 926.6547
796.1900, 976.7679
796.6721, 1022.486
797.1542, 1064.191
797.6364, 1110.115
798.1185, 1164.669
798.6006, 1224.616
799.0827, 1282.783
799.5648, 1336.762
800.0469, 1402.140
800.5291, 1485.163
801.0112, 1570.975
801.4933, 1660.350
801.9754, 1746.429
802.4575, 1817.267
802.9396, 1872.146
803.4218, 1931.953
803.9039, 2005.815
804.3860, 2086.168
804.8681, 2173.581
805.3502, 2260.721
805.8323, 2337.307
806.3145, 2400.390
806.7966, 2448.297
807.2787, 2478.260
807.7608, 2493.417
808.2429, 2504.178
808.7250, 2510.889
809.2072, 2507.330
809.6893, 2492.171
810.1714, 2466.586
810.6535, 2432.554
811.1356, 2389.432
811.6177, 2329.873
812.0999, 2242.434
812.5820, 2155.713
813.0641, 2075.062
813.5462, 1993.090
814.0283, 1903.210
814.5104, 1808.285
814.9926, 1715.372
815.4747, 1626.459
815.9568, 1542.506
816.4389, 1464.037
816.9210, 1390.730
817.4031, 1322.893
817.8853, 1259.770
818.3674, 1198.019
818.8495, 1136.156
819.3316, 1075.365
819.8137, 1017.651
820.2958, 962.8434
820.7780, 912.9315
821.2601, 869.3917
821.7422, 826.5140
822.2243, 780.3142
822.7064, 735.7310
823.1885, 700.0735
823.6707, 673.3088
824.1528, 647.6818
824.6349, 623.4404
825.1170, 598.8353
825.5991, 572.8904
826.0812, 546.4558
826.5634, 518.1756
827.0455, 489.6027
827.5276, 467.5737
828.0097, 458.7539
828.4918, 454.0179
828.9739, 440.5558
829.4560, 420.8958
829.9381, 404.2921
830.4202, 391.9883
830.9023, 377.2935
831.3845, 354.6215
831.8666, 328.9498
832.3487, 315.5789
832.8308, 320.5438
833.3129, 316.5158
833.7950, 295.2857
834.2772, 275.5690
834.7593, 267.9669
835.2414, 267.0154
835.7235, 265.1220
836.2056, 261.5205
836.6877, 258.8751
837.1699, 261.4105
837.6520, 261.4200
838.1341, 251.4992
838.6162, 237.2157
839.0983, 226.6378
839.5804, 221.6700
840.0626, 219.4062
840.5447, 219.0335
841.0268, 218.6326
841.5089, 213.8726
841.9910, 205.6324
842.4731, 198.8029
842.9553, 194.5947
843.4374, 190.1922
843.9195, 182.8616
844.4016, 173.6766
844.8837, 167.5917
845.3658, 166.0261
845.8480, 163.7064
846.3301, 158.7852
846.8122, 154.6816
847.2943, 154.6522
847.7764, 148.0818
848.2585, 157.3323
848.7407, 162.0876
849.2228, 162.5902
849.7049, 146.1007
850.1870, 151.5528
850.6691, 148.2116
851.1512, 144.5101
851.6334, 153.0501
852.1155, 139.0321
852.5976, 147.3782
853.0797, 146.7970
853.5618, 150.3016
854.0439, 144.9588
854.5261, 142.3483
855.0082, 144.6321
855.4903, 144.9328
855.9724, 144.6711
856.4545, 145.3794
856.9366, 146.6325
857.4188, 146.0145
857.9009, 142.8664
858.3830, 139.8852
858.8651, 136.8916
859.3472, 134.8388
859.8293, 135.5277
860.3115, 137.4382
860.7936, 136.4888
861.2757, 130.2340
861.7578, 126.9230
862.2399, 133.8413
862.7220, 138.2841
863.2042, 126.6398
863.6863, 109.6932
864.1684, 107.9634
864.6505, 125.6100
865.1326, 141.0037
865.6147, 134.5374
866.0969, 119.1939
866.5790, 110.9169
867.0611, 108.9721
867.5432, 111.9052
868.0253, 118.8781
868.5074, 124.7755
868.9896, 124.7700
869.4717, 120.8884
869.9538, 120.7656
870.4359, 125.1450
870.9180, 126.9986
871.4001, 124.3092
871.8823, 121.7651
872.3644, 122.8542
872.8465, 126.0556
873.3286, 127.1216
873.8107, 124.5554
874.2928, 123.1728
874.7750, 124.6718
875.2571, 125.4587
875.7392, 123.8163
876.2213, 120.7587
876.7034, 117.0531
877.1855, 112.9654
877.6677, 110.4263
878.1498, 109.4153
878.6319, 111.2073
879.1140, 119.9741
879.5961, 130.8769
880.0782, 135.6821
880.5604, 133.7328
881.0425, 130.1346
881.5246, 128.3216
882.0067, 126.9905
882.4888, 123.2800
882.9709, 117.7239
883.4531, 113.2432
883.9352, 110.0660
884.4173, 110.4869
884.8994, 116.5218
885.3815, 124.7822
885.8636, 128.9631
886.3458, 128.5889
886.8279, 126.6171
887.3100, 121.2061
887.7921, 117.3453
888.2742, 117.7870
888.7563, 119.5530
889.2385, 111.3351
889.7206, 121.3897
890.2027, 126.9495
890.6848, 128.2562
891.1669, 112.5709
891.6490, 118.8272
892.1312, 116.2902
892.6133, 113.3927
893.0954, 122.7372
893.5775, 109.5233
894.0596, 118.6737
894.5417, 118.8966
895.0239, 123.2053
895.5060, 118.6666
895.9881, 116.8606
896.4702, 123.9050
896.9523, 126.0488
897.4344, 120.4916
897.9166, 115.3912
898.3987, 121.9611
898.8808, 132.5131
899.3629, 133.2842
899.8450, 123.7311
900.3271, 116.4744
900.8093, 114.2826
901.2914, 115.3708
901.7735, 119.1673
902.2556, 124.6023
902.7377, 127.2885
903.2198, 127.0173
903.7020, 124.3352
904.1841, 114.2081
904.6662, 107.7063
905.1483, 113.2163
905.6304, 123.2792
906.1125, 127.1036
906.5947, 123.3128
907.0768, 118.9816
907.5589, 114.7751
908.0410, 111.5691
908.5231, 108.9878
909.0052, 108.1496
909.4874, 112.0807
909.9695, 119.4724
910.4516, 123.7043
910.9337, 119.8274
911.4158, 114.6548
911.8979, 116.0298
912.3801, 120.3225
912.8622, 120.5023
913.3443, 116.9732
913.8264, 115.1002
914.3085, 117.3987
914.7906, 120.9942
915.2728, 121.9043
915.7549, 120.5418
916.2370, 119.1693
916.7191, 117.7119
917.2012, 119.0334
917.6833, 125.0334
918.1655, 129.2414
918.6476, 123.7880
919.1297, 111.3266
919.6118, 111.0577
920.0939, 132.7122
920.5760, 142.7507
921.0582, 129.8404
921.5403, 115.7591
922.0224, 114.5078
922.5045, 119.2953
922.9866, 117.7140
923.4688, 106.9864
923.9509, 100.5393
924.4330, 100.9029
924.9151, 105.0810
925.3972, 117.2849
925.8793, 129.0715
926.3615, 129.4428
926.8436, 119.3774
927.3257, 111.0175
927.8078, 110.8397
928.2899, 112.2986
928.7720, 110.3615
929.2542, 107.4315
929.7363, 105.9645
930.2184, 106.4241
930.7005, 109.7254
931.1826, 116.2447
931.6647, 122.3793
932.1469, 122.3925
932.6290, 119.4205
933.1111, 123.3493
933.5932, 132.7500
934.0753, 137.3917
934.5574, 134.4540
935.0396, 129.1002
935.5217, 125.4738
936.0038, 123.8406
936.4859, 126.7192
936.9680, 135.4719
937.4501, 136.1473
937.9323, 124.6689
938.4144, 113.3945
938.8965, 108.4924
939.3786, 108.3548
939.8607, 110.4682
940.3428, 107.8923
940.8250, 118.7407
941.3071, 125.0942
941.7892, 127.1944
942.2713, 112.3028
942.7534, 119.3527
943.2355, 117.6094
943.7177, 115.5057
944.1998, 125.6438
944.6819, 113.2235
945.1640, 123.1675
945.6461, 124.1841
946.1282, 117.4988
946.6104, 121.7554
947.0925, 129.1553
947.5746, 127.3692
948.0567, 113.9012
948.5388, 104.3050
949.0209, 111.1510
949.5031, 122.4222
949.9852, 126.8776
950.4673, 128.6783
950.9494, 137.4876
951.4315, 151.9918
951.9136, 159.1629
952.3958, 150.4194
952.8779, 136.5257
953.3600, 130.5220
953.8421, 130.9079
954.3242, 135.7336
954.8063, 143.7578
955.2885, 148.5110
955.7706, 147.5982
956.2527, 144.2038
956.7348, 141.6062
957.2169, 139.7064
957.6990, 137.4665
958.1812, 134.6940
958.6633, 135.6541
959.1454, 141.5531
959.6275, 149.2262
960.1096, 157.3644
960.5917, 164.6827
961.0739, 167.9325
961.5560, 166.3355
962.0381, 163.8970
962.5202, 158.3850
963.0023, 156.5353
963.4844, 163.2388
963.9666, 171.7409
964.4487, 174.2221
964.9308, 171.3633
965.4129, 172.0242
965.8950, 177.4413
966.3771, 184.5485
966.8593, 196.8495
967.3414, 206.7919
967.8235, 207.4900
968.3056, 204.1262
968.7877, 204.6581
969.2698, 210.2536
969.7520, 220.3731
970.2341, 239.3473
970.7162, 257.4811
971.1983, 270.2689
971.6804, 279.1538
972.1625, 283.9597
972.6447, 286.5401
973.1268, 292.2178
973.6089, 303.9612
974.0910, 316.6588
974.5731, 329.8214
975.0552, 339.2537
975.5374, 335.6489
976.0195, 325.1185
976.5016, 321.2945
976.9837, 328.0156
977.4658, 341.6424
977.9479, 363.3042
978.4301, 384.3791
978.9122, 389.2072
979.3943, 382.2165
979.8764, 376.1956
980.3585, 372.2544
980.8406, 364.1977
981.3228, 348.6266
981.8049, 331.7258
982.2870, 323.5904
982.7691, 322.3511
983.2512, 316.8075
983.7333, 306.9828
984.2155, 297.9981
984.6976, 291.6577
985.1797, 280.6305
985.6618, 257.3004
986.1439, 227.5390
986.6260, 209.4711
987.1082, 204.8021
987.5903, 200.7032
988.0724, 197.1436
988.5545, 192.1435
989.0366, 183.6229
989.5187, 175.5833
990.0009, 173.9971
990.4830, 178.5901
990.9651, 176.5548
991.4472, 159.1194
991.9293, 153.4715
992.4114, 171.8311
992.8936, 191.1089
993.3757, 199.0797
993.8578, 198.2341
994.3399, 192.3696
994.8220, 179.2423
995.3041, 170.9907
995.7863, 172.2086
996.2684, 173.0091
996.7505, 169.3920
997.2326, 165.4313
997.7147, 164.3568
998.1968, 165.9955
998.6790, 169.0444
999.1611, 174.0997
999.6432, 178.5436
1000.125, 182.3317
1000.607, 184.6199
1001.090, 183.2649
1001.572, 181.0332
1002.054, 182.6449
1002.536, 187.9602
1003.018, 190.4818
1003.500, 182.3808
1003.982, 178.0221
1004.464, 191.8909
1004.946, 208.6517
1005.429, 211.4007
1005.911, 204.1953
1006.393, 199.0981
1006.875, 199.8471
1007.357, 201.8542
1007.839, 202.7143
1008.321, 202.3628
1008.803, 199.2792
1009.286, 195.6286
1009.768, 195.5295
1010.250, 198.6923
1010.732, 201.1789
1011.214, 200.8554
1011.696, 200.9543
1012.178, 205.6049
1012.660, 212.7950
1013.142, 220.1627
1013.625, 226.7746
1014.107, 230.1677
1014.589, 229.8762
1015.071, 226.4767
1015.553, 219.1223
1016.035, 213.3354
1016.517, 222.4501
1016.999, 241.2108
1017.482, 248.1317
1017.964, 243.6922
1018.446, 245.9707
1018.928, 261.6361
1019.410, 278.9175
1019.892, 285.3417
1020.374, 284.2743
1020.856, 287.0931
1021.338, 293.4069
1021.821, 297.1787
1022.303, 297.5173
1022.785, 298.8298
1023.267, 303.5898
1023.749, 309.2168
1024.231, 311.9256
1024.713, 311.8893
1025.195, 311.0987
1025.677, 309.4088
1026.160, 308.8884
1026.642, 310.6712
1027.124, 309.7679
1027.606, 301.6856
1028.088, 290.8547
1028.570, 287.7980
1029.052, 293.7924
1029.534, 297.9079
1030.017, 302.7935
1030.499, 294.7928
1030.981, 264.0027
1031.463, 233.1963
1031.945, 223.6707
1032.427, 229.6035
1032.909, 228.8952
1033.391, 219.8575
1033.874, 208.3859
1034.356, 190.1670
1034.838, 178.6747
1035.320, 182.0654
1035.802, 190.3047
1036.284, 193.6192
1036.766, 192.0835
1037.248, 186.2827
1037.730, 171.1225
1038.213, 161.7273
1038.695, 163.8076
1039.177, 164.8499
1039.659, 156.6029
1040.141, 145.9890
1040.623, 131.8626
1041.105, 141.8652
1041.587, 147.3730
1042.069, 148.6277
1042.552, 132.8898
1043.034, 139.0941
1043.516, 136.5052
1043.998, 133.5556
1044.480, 142.8482
1044.962, 129.5823
1045.444, 138.6806
1045.926, 138.8515
1046.409, 140.0534
1046.891, 141.5647
1047.373, 147.8124
1047.855, 152.0707
1048.337, 145.7854
1048.819, 134.7399
1049.301, 133.5289
1049.783, 146.9648
1050.266, 155.3322
1050.748, 151.4237
1051.230, 147.1282
1051.712, 147.4591
1052.194, 148.5039
1052.676, 146.2009
1053.158, 141.5684
1053.640, 138.7291
1054.122, 139.6855
1054.604, 138.3783
1055.087, 128.2546
1055.569, 121.5691
1056.051, 129.0013
1056.533, 139.2461
1057.015, 138.6168
1057.497, 129.0940
1057.979, 123.9198
1058.461, 128.0928
1058.944, 132.6579
1059.426, 136.0700
1059.908, 137.6707
1060.390, 136.8301
1060.872, 134.1070
1061.354, 128.2969
1061.836, 120.7054
1062.318, 118.3692
1062.801, 127.6090
1063.283, 134.6603
1063.765, 131.6685
1064.247, 127.4465
1064.729, 128.2098
1065.211, 131.5480
1065.693, 133.9693
1066.175, 134.8142
1066.657, 134.1618
1067.140, 131.9092
1067.622, 128.3590
1068.104, 122.0014
1068.586, 116.0039
1069.068, 112.1124
1069.550, 110.6467
1070.032, 113.1435
1070.514, 119.2894
1070.996, 122.6680
1071.479, 115.0170
1071.961, 111.3192
1072.443, 123.9165
1072.925, 138.6072
1073.407, 143.1392
1073.889, 140.6639
1074.371, 138.3496
1074.853, 137.7200
1075.335, 136.7500
1075.818, 134.3618
1076.300, 131.6718
1076.782, 129.8513
1077.264, 127.4300
1077.746, 119.9066
1078.228, 111.7508
1078.710, 113.3572
1079.192, 127.0503
1079.675, 138.8880
1080.157, 142.8649
1080.639, 143.0789
1081.121, 138.8492
1081.603, 134.2393
1082.085, 132.0438
1082.567, 132.8450
1083.049, 138.8848
1083.531, 151.0312
1084.014, 149.0287
1084.496, 160.5430
1084.978, 167.5629
1085.460, 170.3292
1085.942, 156.1040
1086.424, 163.8200
1086.906, 162.7432
1087.388, 161.3055
1087.870, 172.1100
1088.353, 160.3588
1088.835, 170.9689
1089.317, 172.6520
1089.799, 178.4206
1090.281, 175.3420
1090.763, 174.9958
1091.245, 183.5003
1091.727, 187.1043
1092.210, 183.6984
1092.692, 188.9723
1093.174, 186.4951
1093.656, 189.9107
1094.138, 216.1038
1094.620, 242.4513
1095.102, 244.7068
1095.584, 230.2655
1096.067, 219.9707
1096.549, 218.0086
1097.031, 221.8064
1097.513, 236.9828
1097.995, 249.5829
1098.477, 250.3141
1098.959, 248.6250
1099.441, 254.4858
1099.923, 264.6078
1100.406, 267.6506
1100.888, 258.8382
1101.370, 259.6986
1101.852, 287.8757
1102.334, 310.6788
1102.816, 313.2543
1103.298, 308.1046
1103.780, 303.6857
1104.262, 300.5301
1104.745, 298.6487
1105.227, 298.9928
1105.709, 295.4930
1106.191, 279.2917
1106.673, 269.5360
1107.155, 279.9986
1107.637, 291.6104
1108.119, 287.2709
1108.602, 273.3449
1109.084, 266.8904
1109.566, 271.8632
1110.048, 271.2698
1110.530, 258.5537
1111.012, 247.1175
1111.494, 241.4782
1111.976, 236.6375
1112.458, 227.4732
1112.941, 216.9208
1113.423, 213.0278
1113.905, 219.0062
1114.387, 217.0376
1114.869, 198.0811
1115.351, 185.0102
1115.833, 184.5826
1116.315, 187.5545
1116.797, 190.6161
1117.280, 191.8413
1117.762, 186.3290
1118.244, 172.4318
1118.726, 164.1012
1119.208, 164.7910
1119.690, 163.6249
1120.172, 157.0627
1120.654, 151.4603
1121.137, 151.1038
1121.619, 153.5803
1122.101, 154.6627
1122.583, 154.2530
1123.065, 154.5293
1123.547, 155.9243
1124.029, 156.8900
1124.511, 158.0037
1124.994, 156.0947
1125.476, 148.2169
1125.958, 138.6846
1126.440, 134.1229
1126.922, 134.3258
1127.404, 135.6125
1127.886, 138.3887
1128.368, 139.6198
1128.850, 138.8979
1129.333, 136.1641
1129.815, 130.6617
1130.297, 126.3426
1130.779, 129.2785
1131.261, 137.5761
1131.743, 140.3566
1132.225, 137.6573
1132.707, 134.0590
1133.189, 130.0185
1133.672, 129.3042
1134.154, 133.7969
1134.636, 138.5412
1135.118, 137.9505
1135.600, 133.6478
1136.082, 128.9984
1136.564, 124.6679
1137.046, 125.8419
1137.529, 131.9835
1138.011, 134.8705
1138.493, 131.7697
1138.975, 128.0235
1139.457, 128.1321
1139.939, 131.2507
1140.421, 138.1803
1140.903, 146.1669
1141.385, 148.4500
1141.868, 144.9832
1142.350, 134.8199
1142.832, 119.3990
1143.314, 110.0900
1143.796, 116.3708
1144.278, 127.3301
1144.760, 129.7017
1145.242, 128.6262
1145.724, 133.8252
1146.207, 141.1931
1146.689, 138.8263
1147.171, 127.0825
1147.653, 120.0301
1148.135, 126.3357
1148.617, 132.7323
1149.099, 126.5109
1149.581, 117.8303
1150.064, 116.4200
1150.546, 118.5798
1151.028, 118.0317
1151.510, 115.2372
1151.992, 115.7339
1152.474, 122.5135
1152.956, 126.3771
1153.438, 121.0178
1153.921, 113.8225
1154.403, 106.8711
1154.885, 101.8562
1155.367, 100.5775
1155.849, 102.4489
1156.331, 106.0667
1156.813, 111.4773
1157.295, 116.5894
1157.777, 123.4303
1158.260, 126.5053
1158.742, 123.6637
1159.224, 117.1366
1159.706, 102.6525
1160.188, 87.77524
1160.670, 88.84435
1161.152, 108.1912
1161.634, 118.6023
1162.116, 113.5448
1162.599, 111.5346
1163.081, 117.0295
1163.563, 121.3635
1164.045, 119.7035
1164.527, 115.7195
1165.009, 113.9897
1165.491, 114.3178
1165.973, 115.2196
1166.456, 117.3652
1166.938, 116.4122
1167.420, 110.7480
1167.902, 108.7138
1168.384, 114.5578
1168.866, 119.9907
1169.348, 116.4439
1169.830, 107.2177
1170.313, 101.0953
1170.795, 98.17715
1171.277, 101.5349
1171.759, 110.9277
1172.241, 120.0146
1172.723, 126.9359
1173.205, 126.8131
1173.687, 115.0232
1174.169, 101.7317
1174.651, 105.5189
1175.134, 119.3966
1175.616, 125.5848
1176.098, 125.7173
1176.580, 125.0928
1177.062, 124.9387
1177.544, 125.3223
1178.026, 126.2710
1178.508, 128.1903
1178.991, 132.8772
1179.473, 137.3764
1179.955, 139.4643
1180.437, 138.4874
1180.919, 132.1457
1181.401, 122.2714
1181.883, 112.2162
1182.365, 103.2391
1182.848, 98.98510
1183.330, 104.1251
1183.812, 110.7956
1184.294, 117.8733
1184.776, 121.9914
1185.258, 117.3468
1185.740, 109.8638
1186.222, 108.4831
1186.704, 113.5425
1187.187, 118.9294
1187.669, 125.3527
1188.151, 128.7052
1188.633, 124.9125
1189.115, 122.4159
1189.597, 128.2357
1190.079, 133.1455
1190.561, 126.8724
1191.043, 113.7721
1191.526, 108.0529
1192.008, 110.8471
1192.490, 116.7205
1192.972, 128.6232
1193.454, 134.1970
1193.936, 129.1670
1194.418, 122.5400
1194.900, 119.7770
1195.383, 119.1259
1195.865, 117.7108
1196.347, 115.6715
1196.829, 113.8943
1197.311, 112.4201
1197.793, 112.4236
1198.275, 113.9210
1198.757, 113.8707
1199.240, 111.0289
1199.722, 109.0475
1200.204, 112.0221
1200.686, 117.0644
1201.168, 119.4425
1201.650, 119.6188
1202.132, 116.9104
1202.614, 113.1971
1203.096, 114.6571
1203.578, 121.4310
1204.061, 125.6137
1204.543, 122.0108
1205.025, 118.2341
1205.507, 122.9232
1205.989, 127.3988
1206.471, 120.1648
1206.953, 110.8021
1207.435, 115.1628
1207.918, 128.2291
1208.400, 130.9457
1208.882, 117.3932
1209.364, 106.0566
1209.846, 100.2442
1210.328, 100.1073
1210.810, 112.7381
1211.292, 123.5549
1211.775, 121.7964
1212.257, 113.1415
1212.739, 105.4682
1213.221, 98.88445
1213.703, 96.60727
1214.185, 100.5024
1214.667, 103.9451
1215.149, 107.3653
1215.631, 107.4928
1216.114, 101.7305
1216.596, 97.15667
1217.078, 100.8149
1217.560, 108.7023
1218.042, 110.0909
1218.524, 105.6093
1219.006, 104.2267
1219.488, 105.9704
1219.970, 112.6526
1220.453, 123.4677
1220.935, 125.2120
1221.417, 110.6460
1221.899, 94.41821
1222.381, 93.11902
1222.863, 100.2702
1223.345, 109.4636
1223.827, 117.4660
1224.310, 116.5775
1224.792, 110.0066
1225.274, 107.0216
1225.756, 109.6493
1226.238, 113.3582
1226.720, 117.2007
1227.202, 118.6999
1227.684, 113.4329
1228.167, 108.8305
1228.649, 111.7968
1229.131, 116.6475
1229.613, 116.0645
1230.095, 111.3272
1230.577, 109.1550
1231.059, 111.8275
1231.541, 111.1689
1232.023, 104.8812
1232.505, 98.80268
1232.988, 92.73595
1233.470, 89.18678
1233.952, 89.88441
1234.434, 93.43532
1234.916, 98.59135
1235.398, 104.5644
1235.880, 104.8528
1236.362, 99.21407
1236.845, 99.98786
1237.327, 107.9179
1237.809, 113.5934
1238.291, 114.1043
1238.773, 111.6890
1239.255, 107.6287
1239.737, 103.8338
1240.219, 103.9280
1240.702, 105.7644
1241.184, 104.7311
1241.666, 102.5779
1242.148, 103.1034
1242.630, 106.2866
1243.112, 110.7031
1243.594, 115.8172
1244.076, 118.9110
1244.558, 117.9566
1245.041, 115.1993
1245.523, 110.4645
1246.005, 105.7434
1246.487, 100.7475
1246.969, 97.81336
1247.451, 102.2664
1247.933, 112.7298
1248.415, 116.6789
1248.897, 110.0498
1249.380, 105.2172
1249.862, 101.3718
1250.344, 101.5094
1250.826, 108.0664
1251.308, 114.5999
1251.790, 116.8794
1252.272, 116.7679
1252.754, 117.9345
1253.237, 119.3805
1253.719, 112.7472
1254.201, 99.44614
1254.683, 92.81474
1255.165, 93.72570
1255.647, 98.68796
1256.129, 106.0898
1256.611, 112.5832
1257.094, 115.7231
1257.576, 116.6977
1258.058, 116.9316
1258.540, 115.7438
1259.022, 110.2782
1259.504, 104.1085
1259.986, 103.2218
1260.468, 106.6502
1260.950, 109.5128
1261.432, 110.5553
1261.915, 111.1305
1262.397, 112.3520
1262.879, 112.1389
1263.361, 107.0767
1263.843, 103.8466
1264.325, 108.2928
1264.807, 114.0986
1265.289, 113.3247
1265.772, 108.1898
1266.254, 109.1444
1266.736, 117.7851
1267.218, 123.5067
1267.700, 126.3803
1268.182, 124.0636
1268.664, 115.8026
1269.146, 108.5227
1269.629, 106.1099
1270.111, 106.5855
1270.593, 107.4071
1271.075, 109.5925
1271.557, 118.4033
1272.039, 128.2872
1272.521, 126.2194
1273.003, 116.2558
1273.485, 109.4213
1273.968, 108.3413
##END=



