##NAMES=Umangite
##RRUFFID=R070019
##IDEAL CHEMISTRY=Cu_3_Se_2_
##LOCALITY=Ato Bay, Beaverlodge Lake, Saskatchewan, Canada
##OWNER=RRUFF
##SOURCE=Mark Mauthner
##DESCRIPTION=Metallic dark blue to black blebs underneath green glassy material
##STATUS=The identification of this mineral has been confirmed by X-ray diffraction and chemical analysis
##URL=rruff.info/R070019
##MEASURED CHEMISTRY=Cu_3.00_Se_2.00_
161.3254, 1446.660
161.8075, 1458.015
162.2896, 1474.175
162.7718, 1487.615
163.2539, 1497.495
163.7360, 1506.201
164.2181, 1513.907
164.7002, 1521.144
165.1823, 1529.098
165.6645, 1538.406
166.1466, 1549.267
166.6287, 1562.934
167.1108, 1584.355
167.5929, 1603.637
168.0750, 1613.033
168.5572, 1615.018
169.0393, 1619.992
169.5214, 1635.947
170.0035, 1661.616
170.4856, 1682.216
170.9677, 1697.240
171.4499, 1708.315
171.9320, 1713.366
172.4141, 1713.927
172.8962, 1717.644
173.3783, 1731.449
173.8604, 1752.547
174.3426, 1763.831
174.8247, 1749.735
175.3068, 1739.910
175.7889, 1758.710
176.2710, 1801.441
176.7531, 1838.105
177.2353, 1848.358
177.7174, 1838.038
178.1995, 1837.415
178.6816, 1854.312
179.1637, 1873.668
179.6458, 1885.979
180.1280, 1892.011
180.6101, 1897.598
181.0922, 1906.166
181.5743, 1916.554
182.0564, 1924.725
182.5385, 1926.474
183.0207, 1930.651
183.5028, 1945.861
183.9849, 1970.693
184.4670, 1993.541
184.9491, 2008.779
185.4312, 2017.552
185.9134, 2023.967
186.3955, 2024.614
186.8776, 2018.390
187.3597, 2033.001
187.8418, 2043.331
188.3239, 2049.610
188.8061, 2039.708
189.2882, 2050.701
189.7703, 2053.319
190.2524, 2055.595
190.7345, 2069.529
191.2166, 2068.148
191.6988, 2071.905
192.1809, 2077.115
192.6630, 2084.871
193.1451, 2092.912
193.6272, 2098.356
194.1093, 2101.394
194.5915, 2101.123
195.0736, 2095.004
195.5557, 2083.908
196.0378, 2074.802
196.5199, 2071.798
197.0020, 2070.328
197.4842, 2064.069
197.9663, 2052.045
198.4484, 2039.551
198.9305, 2031.798
199.4126, 2027.645
199.8947, 2019.286
200.3769, 2002.289
200.8590, 1982.476
201.3411, 1964.990
201.8232, 1941.672
202.3053, 1943.531
202.7874, 1941.110
203.2696, 1934.637
203.7517, 1911.983
204.2338, 1910.225
204.7159, 1900.093
205.1980, 1889.617
205.6801, 1890.800
206.1623, 1870.498
206.6444, 1871.496
207.1265, 1863.992
207.6086, 1860.380
208.0907, 1848.341
208.5728, 1838.905
209.0550, 1840.079
209.5371, 1837.256
210.0192, 1833.382
210.5013, 1829.773
210.9834, 1826.316
211.4656, 1822.912
211.9477, 1820.382
212.4298, 1816.287
212.9119, 1807.550
213.3940, 1795.472
213.8761, 1784.683
214.3583, 1777.685
214.8404, 1773.441
215.3225, 1768.766
215.8046, 1762.087
216.2867, 1749.835
216.7688, 1758.686
217.2510, 1763.257
217.7331, 1763.777
218.2152, 1748.115
218.6973, 1753.349
219.1794, 1750.208
219.6615, 1746.725
220.1437, 1754.900
220.6258, 1741.591
221.1079, 1749.581
221.5900, 1749.069
222.0721, 1752.449
222.5542, 1744.616
223.0364, 1744.422
223.5185, 1747.403
224.0006, 1749.408
224.4827, 1747.199
224.9648, 1742.900
225.4469, 1739.126
225.9291, 1736.183
226.4112, 1734.226
226.8933, 1733.270
227.3754, 1733.278
227.8575, 1735.016
228.3396, 1741.775
228.8218, 1748.849
229.3039, 1749.307
229.7860, 1739.928
230.2681, 1730.146
230.7502, 1729.661
231.2323, 1737.903
231.7145, 1743.871
232.1966, 1742.584
232.6787, 1738.271
233.1608, 1735.318
233.6429, 1733.374
234.1250, 1735.364
234.6072, 1747.659
235.0893, 1767.368
235.5714, 1778.503
236.0535, 1773.789
236.5356, 1763.001
237.0177, 1756.292
237.4999, 1753.532
237.9820, 1754.322
238.4641, 1757.267
238.9462, 1763.560
239.4283, 1777.996
239.9104, 1804.706
240.3926, 1832.819
240.8747, 1851.221
241.3568, 1861.332
241.8389, 1870.175
242.3210, 1878.519
242.8031, 1887.680
243.2853, 1899.561
243.7674, 1914.142
244.2495, 1932.331
244.7316, 1958.982
245.2137, 1990.868
245.6958, 2017.018
246.1780, 2029.504
246.6601, 2038.188
247.1422, 2054.061
247.6243, 2077.786
248.1064, 2104.117
248.5885, 2129.697
249.0707, 2155.335
249.5528, 2182.973
250.0349, 2216.115
250.5170, 2248.560
250.9991, 2274.223
251.4812, 2293.973
251.9634, 2314.341
252.4455, 2337.797
252.9276, 2364.708
253.4097, 2394.774
253.8918, 2428.353
254.3739, 2464.207
254.8561, 2503.438
255.3382, 2544.587
255.8203, 2583.450
256.3024, 2617.484
256.7845, 2649.755
257.2667, 2688.691
257.7488, 2739.753
258.2309, 2779.939
258.7130, 2801.182
259.1951, 2807.711
259.6772, 2804.093
260.1594, 2790.780
260.6415, 2772.985
261.1236, 2759.834
261.6057, 2755.253
262.0878, 2734.597
262.5699, 2690.241
263.0521, 2631.294
263.5342, 2565.553
264.0163, 2494.087
264.4984, 2416.399
264.9805, 2328.765
265.4626, 2229.312
265.9448, 2144.668
266.4269, 2077.447
266.9090, 2021.583
267.3911, 1976.796
267.8732, 1940.993
268.3553, 1907.619
268.8375, 1872.173
269.3196, 1834.912
269.8017, 1802.574
270.2838, 1774.357
270.7659, 1750.662
271.2480, 1734.026
271.7302, 1721.634
272.2123, 1708.131
272.6944, 1690.460
273.1765, 1671.003
273.6586, 1657.104
274.1407, 1651.593
274.6229, 1648.527
275.1050, 1650.041
275.5871, 1652.784
276.0692, 1651.976
276.5513, 1646.370
277.0334, 1640.487
277.5156, 1642.691
277.9977, 1662.939
278.4798, 1670.668
278.9619, 1658.207
279.4440, 1640.563
279.9261, 1624.968
280.4083, 1613.716
280.8904, 1608.078
281.3725, 1610.276
281.8546, 1621.928
282.3367, 1630.940
282.8188, 1639.102
283.3010, 1643.120
283.7831, 1638.094
284.2652, 1627.717
284.7473, 1620.944
285.2294, 1625.310
285.7115, 1638.218
286.1937, 1639.127
286.6758, 1613.292
287.1579, 1594.037
287.6400, 1590.172
288.1221, 1595.813
288.6042, 1605.157
289.0864, 1616.086
289.5685, 1625.785
290.0506, 1627.603
290.5327, 1618.333
291.0148, 1608.954
291.4969, 1599.586
291.9791, 1592.032
292.4612, 1587.377
292.9433, 1585.920
293.4254, 1587.953
293.9075, 1595.554
294.3896, 1609.462
294.8718, 1619.666
295.3539, 1623.492
295.8360, 1624.580
296.3181, 1624.468
296.8002, 1623.399
297.2823, 1621.826
297.7645, 1620.631
298.2466, 1619.293
298.7287, 1615.550
299.2108, 1608.987
299.6929, 1600.726
300.1750, 1588.792
300.6572, 1575.986
301.1393, 1567.282
301.6214, 1563.500
302.1035, 1565.511
302.5856, 1578.249
303.0677, 1602.906
303.5499, 1621.559
304.0320, 1623.354
304.5141, 1615.446
304.9962, 1609.593
305.4783, 1607.093
305.9604, 1604.978
306.4426, 1599.720
306.9247, 1592.963
307.4068, 1591.561
307.8889, 1599.691
308.3710, 1609.660
308.8531, 1608.501
309.3353, 1595.627
309.8174, 1586.823
310.2995, 1590.260
310.7816, 1598.310
311.2637, 1601.447
311.7458, 1598.307
312.2280, 1593.156
312.7101, 1589.242
313.1922, 1586.730
313.6743, 1585.917
314.1564, 1589.234
314.6385, 1592.007
315.1207, 1590.350
315.6028, 1585.647
316.0849, 1582.394
316.5670, 1583.191
317.0491, 1587.337
317.5313, 1592.022
318.0134, 1600.444
318.4955, 1605.388
318.9776, 1605.038
319.4597, 1600.977
319.9418, 1593.504
320.4240, 1583.075
320.9061, 1573.202
321.3882, 1569.969
321.8703, 1577.781
322.3524, 1582.104
322.8345, 1579.498
323.3167, 1576.794
323.7988, 1578.919
324.2809, 1585.247
324.7630, 1591.507
325.2451, 1594.015
325.7272, 1592.810
326.2094, 1590.881
326.6915, 1587.346
327.1736, 1584.047
327.6557, 1581.635
328.1378, 1579.689
328.6199, 1577.170
329.1021, 1573.301
329.5842, 1569.759
330.0663, 1570.247
330.5484, 1575.327
331.0305, 1582.923
331.5126, 1597.794
331.9948, 1611.588
332.4769, 1617.040
332.9590, 1613.201
333.4411, 1606.721
333.9232, 1603.652
334.4053, 1603.672
334.8875, 1602.775
335.3696, 1599.796
335.8517, 1596.920
336.3338, 1596.796
336.8159, 1598.287
337.2980, 1597.537
337.7802, 1589.804
338.2623, 1580.197
338.7444, 1576.120
339.2265, 1577.717
339.7086, 1584.333
340.1907, 1600.730
340.6729, 1620.142
341.1550, 1626.759
341.6371, 1613.618
342.1192, 1598.269
342.6013, 1589.548
343.0834, 1586.226
343.5656, 1586.016
344.0477, 1588.808
344.5298, 1592.309
345.0119, 1592.677
345.4940, 1589.079
345.9761, 1585.958
346.4583, 1581.425
346.9404, 1579.109
347.4225, 1583.492
347.9046, 1594.203
348.3867, 1606.470
348.8688, 1617.097
349.3510, 1626.113
349.8331, 1628.011
350.3152, 1614.999
350.7973, 1604.631
351.2794, 1603.435
351.7615, 1607.776
352.2437, 1612.261
352.7258, 1614.437
353.2079, 1614.619
353.6900, 1613.416
354.1721, 1610.587
354.6542, 1606.693
355.1364, 1598.986
355.6185, 1592.482
356.1006, 1591.584
356.5827, 1595.943
357.0648, 1600.975
357.5469, 1602.186
358.0291, 1599.654
358.5112, 1598.142
358.9933, 1598.495
359.4754, 1598.756
359.9575, 1596.819
360.4396, 1594.538
360.9218, 1595.703
361.4039, 1603.743
361.8860, 1612.434
362.3681, 1609.696
362.8502, 1593.960
363.3323, 1584.060
363.8145, 1590.418
364.2966, 1602.116
364.7787, 1605.648
365.2608, 1599.641
365.7430, 1596.092
366.2251, 1605.786
366.7072, 1621.678
367.1893, 1629.328
367.6714, 1626.341
368.1535, 1616.784
368.6357, 1600.061
369.1178, 1577.826
369.5999, 1567.477
370.0820, 1580.852
370.5641, 1596.382
371.0462, 1601.159
371.5284, 1597.184
372.0105, 1590.225
372.4926, 1582.184
372.9747, 1575.445
373.4568, 1576.245
373.9389, 1590.838
374.4211, 1603.896
374.9032, 1616.241
375.3853, 1625.962
375.8674, 1631.465
376.3495, 1632.514
376.8316, 1629.645
377.3138, 1622.482
377.7959, 1610.381
378.2780, 1603.322
378.7601, 1608.276
379.2422, 1611.113
379.7243, 1606.474
380.2065, 1597.913
380.6886, 1590.639
381.1707, 1586.831
381.6528, 1586.200
382.1349, 1589.293
382.6170, 1597.888
383.0992, 1603.108
383.5813, 1596.273
384.0634, 1590.692
384.5455, 1599.134
385.0276, 1620.540
385.5097, 1636.938
385.9919, 1630.134
386.4740, 1609.668
386.9561, 1603.548
387.4382, 1616.670
387.9203, 1631.384
388.4024, 1637.083
388.8846, 1635.726
389.3667, 1631.719
389.8488, 1621.155
390.3309, 1613.577
390.8130, 1618.212
391.2951, 1630.840
391.7773, 1640.259
392.2594, 1642.892
392.7415, 1640.200
393.2236, 1633.469
393.7057, 1619.836
394.1878, 1611.250
394.6700, 1611.370
395.1521, 1614.168
395.6342, 1616.256
396.1163, 1617.086
396.5984, 1616.783
397.0805, 1615.415
397.5627, 1613.008
398.0448, 1609.699
398.5269, 1601.698
399.0090, 1597.852
399.4911, 1603.110
399.9732, 1610.769
400.4554, 1614.117
400.9375, 1611.509
401.4196, 1606.394
401.9017, 1602.141
402.3838, 1598.594
402.8659, 1597.882
403.3481, 1602.607
403.8302, 1607.217
404.3123, 1609.352
404.7944, 1609.301
405.2765, 1607.855
405.7586, 1605.723
406.2408, 1601.939
406.7229, 1592.311
407.2050, 1576.800
407.6871, 1569.063
408.1692, 1577.982
408.6513, 1593.888
409.1335, 1602.078
409.6156, 1601.713
410.0977, 1599.778
410.5798, 1595.901
411.0619, 1593.078
411.5440, 1596.196
412.0262, 1605.440
412.5083, 1615.884
412.9904, 1624.671
413.4725, 1631.487
413.9546, 1631.274
414.4367, 1616.355
414.9189, 1604.807
415.4010, 1603.563
415.8831, 1607.485
416.3652, 1609.701
416.8473, 1607.988
417.3294, 1604.984
417.8116, 1604.320
418.2937, 1606.117
418.7758, 1609.876
419.2579, 1619.003
419.7400, 1626.857
420.2221, 1630.106
420.7043, 1630.115
421.1864, 1630.710
421.6685, 1635.357
422.1506, 1639.460
422.6327, 1630.639
423.1148, 1605.490
423.5970, 1588.293
424.0791, 1591.172
424.5612, 1602.096
425.0433, 1608.962
425.5254, 1611.268
426.0075, 1612.883
426.4897, 1616.084
426.9718, 1619.606
427.4539, 1621.348
427.9360, 1621.099
428.4181, 1619.873
428.9002, 1617.495
429.3824, 1614.768
429.8645, 1616.109
430.3466, 1626.039
430.8287, 1634.070
431.3108, 1637.692
431.7929, 1637.668
432.2751, 1634.165
432.7572, 1627.515
433.2393, 1619.720
433.7214, 1612.659
434.2035, 1605.475
434.6856, 1604.071
435.1678, 1616.343
435.6499, 1626.108
436.1320, 1625.661
436.6141, 1619.849
437.0962, 1617.738
437.5783, 1624.030
438.0605, 1632.413
438.5426, 1631.038
439.0247, 1618.355
439.5068, 1608.345
439.9889, 1603.544
440.4710, 1602.618
440.9532, 1606.919
441.4353, 1615.039
441.9174, 1618.386
442.3995, 1607.522
442.8816, 1593.169
443.3637, 1589.454
443.8459, 1596.115
444.3280, 1605.463
444.8101, 1614.276
445.2922, 1622.785
445.7743, 1632.028
446.2564, 1644.968
446.7386, 1652.466
447.2207, 1650.862
447.7028, 1644.609
448.1849, 1636.160
448.6670, 1626.793
449.1491, 1618.966
449.6313, 1614.844
450.1134, 1614.190
450.5955, 1614.073
451.0776, 1614.711
451.5597, 1615.639
452.0418, 1616.179
452.5240, 1617.282
453.0061, 1620.617
453.4882, 1626.359
453.9703, 1631.617
454.4524, 1633.365
454.9345, 1631.847
455.4167, 1629.394
455.8988, 1626.042
456.3809, 1621.937
456.8630, 1615.966
457.3451, 1609.458
457.8272, 1604.996
458.3094, 1603.583
458.7915, 1603.525
459.2736, 1604.226
459.7557, 1605.370
460.2378, 1605.964
460.7199, 1605.641
461.2021, 1605.583
461.6842, 1607.471
462.1663, 1611.943
462.6484, 1614.351
463.1305, 1611.188
463.6126, 1609.720
464.0948, 1615.064
464.5769, 1623.988
465.0590, 1631.107
465.5411, 1633.989
466.0232, 1633.238
466.5053, 1628.989
466.9875, 1619.316
467.4696, 1613.081
467.9517, 1612.265
468.4338, 1613.935
468.9159, 1619.321
469.3980, 1626.231
469.8802, 1628.796
470.3623, 1621.606
470.8444, 1611.564
471.3265, 1609.642
471.8086, 1615.490
472.2907, 1620.017
472.7729, 1618.848
473.2550, 1616.862
473.7371, 1624.112
474.2192, 1642.215
474.7013, 1651.229
475.1834, 1641.085
475.6656, 1625.652
476.1477, 1613.064
476.6298, 1604.767
477.1119, 1602.750
477.5940, 1608.610
478.0761, 1619.468
478.5583, 1627.475
479.0404, 1632.988
479.5225, 1634.606
480.0046, 1628.141
480.4867, 1621.760
480.9688, 1621.056
481.4510, 1625.399
481.9331, 1630.448
482.4152, 1633.581
482.8973, 1635.201
483.3794, 1636.532
483.8615, 1637.820
484.3437, 1637.237
484.8258, 1632.034
485.3079, 1626.353
485.7900, 1625.814
486.2721, 1630.946
486.7542, 1635.527
487.2364, 1635.894
487.7185, 1635.353
488.2006, 1638.663
488.6827, 1645.324
489.1649, 1650.138
489.6470, 1649.812
490.1291, 1645.679
490.6112, 1642.164
491.0933, 1639.485
491.5754, 1637.188
492.0576, 1636.655
492.5397, 1635.461
493.0218, 1629.337
493.5039, 1620.216
493.9860, 1616.147
494.4681, 1625.539
494.9503, 1642.683
495.4324, 1644.989
495.9145, 1626.199
496.3966, 1613.573
496.8787, 1620.008
497.3608, 1633.430
497.8430, 1644.543
498.3251, 1652.834
498.8072, 1654.584
499.2893, 1639.965
499.7714, 1622.223
500.2535, 1620.592
500.7357, 1634.608
501.2178, 1651.064
501.6999, 1664.315
502.1820, 1672.602
502.6641, 1670.628
503.1462, 1647.396
503.6284, 1630.633
504.1105, 1620.413
504.5926, 1617.110
505.0747, 1625.566
505.5568, 1641.861
506.0389, 1654.258
506.5211, 1653.987
507.0032, 1645.080
507.4853, 1639.379
507.9674, 1636.580
508.4495, 1638.171
508.9316, 1648.047
509.4138, 1659.788
509.8959, 1668.935
510.3780, 1675.254
510.8601, 1678.816
511.3422, 1679.410
511.8243, 1677.420
512.3065, 1672.189
512.7886, 1664.299
513.2707, 1656.534
513.7528, 1649.550
514.2349, 1645.064
514.7170, 1646.906
515.1992, 1659.527
515.6813, 1669.149
516.1634, 1677.050
516.6455, 1680.818
517.1276, 1676.831
517.6097, 1667.627
518.0919, 1658.633
518.5740, 1652.622
519.0561, 1649.303
519.5382, 1649.147
520.0203, 1653.073
520.5024, 1653.825
520.9846, 1645.556
521.4667, 1639.275
521.9488, 1646.256
522.4309, 1662.700
522.9130, 1673.531
523.3951, 1669.911
523.8773, 1662.547
524.3594, 1660.204
524.8415, 1661.327
525.3236, 1661.735
525.8057, 1660.121
526.2878, 1656.546
526.7700, 1650.163
527.2521, 1638.857
527.7342, 1636.225
528.2163, 1652.335
528.6984, 1664.847
529.1805, 1663.327
529.6627, 1654.431
530.1448, 1647.759
530.6269, 1646.691
531.1090, 1647.558
531.5911, 1644.054
532.0732, 1636.886
532.5554, 1639.444
533.0375, 1657.836
533.5196, 1674.062
534.0017, 1672.423
534.4838, 1661.287
534.9659, 1659.090
535.4481, 1674.585
535.9302, 1685.699
536.4123, 1679.598
536.8944, 1664.166
537.3765, 1647.633
537.8586, 1632.423
538.3408, 1622.242
538.8229, 1621.025
539.3050, 1627.483
539.7871, 1630.918
540.2692, 1627.433
540.7513, 1626.852
541.2335, 1635.061
541.7156, 1643.156
542.1977, 1641.633
542.6798, 1631.396
543.1619, 1623.648
543.6440, 1627.931
544.1262, 1639.341
544.6083, 1649.025
545.0904, 1657.040
545.5725, 1659.474
546.0546, 1652.322
546.5367, 1641.991
547.0189, 1639.497
547.5010, 1646.160
547.9831, 1652.472
548.4652, 1661.529
548.9473, 1666.257
549.4294, 1657.868
549.9116, 1642.038
550.3937, 1631.922
550.8758, 1633.751
551.3579, 1640.064
551.8400, 1635.044
552.3221, 1614.001
552.8043, 1609.245
553.2864, 1637.661
553.7685, 1662.954
554.2506, 1661.790
554.7327, 1646.020
555.2148, 1638.741
555.6970, 1649.868
556.1791, 1660.888
556.6612, 1654.162
557.1433, 1638.414
557.6254, 1632.307
558.1075, 1638.999
558.5897, 1650.469
559.0718, 1661.489
559.5539, 1671.324
560.0360, 1672.992
560.5181, 1654.010
561.0002, 1642.703
561.4824, 1648.673
561.9645, 1658.309
562.4466, 1660.346
562.9287, 1654.211
563.4108, 1645.849
563.8929, 1638.512
564.3751, 1632.665
564.8572, 1628.960
565.3393, 1627.260
565.8214, 1630.553
566.3035, 1642.255
566.7856, 1656.238
567.2678, 1664.288
567.7499, 1666.490
568.2320, 1667.441
568.7141, 1667.846
569.1962, 1667.026
569.6783, 1664.638
570.1605, 1660.724
570.6426, 1653.993
571.1247, 1644.343
571.6068, 1636.330
572.0889, 1637.188
572.5710, 1647.750
573.0532, 1656.815
573.5353, 1665.657
574.0174, 1670.761
574.4995, 1670.069
574.9816, 1665.290
575.4637, 1656.018
575.9459, 1640.194
576.4280, 1632.259
576.9101, 1650.571
577.3922, 1676.742
577.8743, 1681.455
578.3564, 1665.039
578.8386, 1649.439
579.3207, 1647.775
579.8028, 1654.792
580.2849, 1655.732
580.7670, 1644.510
581.2491, 1638.421
581.7313, 1639.839
582.2134, 1643.511
582.6955, 1646.580
583.1776, 1649.739
583.6597, 1655.652
584.1418, 1666.499
584.6240, 1677.248
585.1061, 1682.641
585.5882, 1682.776
586.0703, 1676.074
586.5524, 1660.696
587.0345, 1647.090
587.5167, 1643.769
587.9988, 1649.994
588.4809, 1659.271
588.9630, 1682.164
589.4451, 1693.862
589.9272, 1679.008
590.4094, 1658.513
590.8915, 1653.663
591.3736, 1663.530
591.8557, 1671.266
592.3378, 1663.765
592.8199, 1647.063
593.3021, 1635.588
593.7842, 1629.271
594.2663, 1629.941
594.7484, 1643.793
595.2305, 1657.222
595.7126, 1651.884
596.1948, 1631.417
596.6769, 1620.549
597.1590, 1632.005
597.6411, 1643.976
598.1232, 1642.701
598.6053, 1635.887
599.0875, 1636.877
599.5696, 1647.973
600.0517, 1659.084
600.5338, 1659.523
601.0159, 1650.631
601.4980, 1645.148
601.9802, 1643.771
602.4623, 1644.192
602.9444, 1648.353
603.4265, 1652.200
603.9086, 1651.881
604.3907, 1647.398
604.8729, 1642.398
605.3550, 1636.150
605.8371, 1631.697
606.3192, 1631.209
606.8013, 1634.769
607.2834, 1644.303
607.7656, 1660.383
608.2477, 1676.079
608.7298, 1682.128
609.2119, 1677.922
609.6940, 1671.793
610.1761, 1658.413
610.6583, 1650.838
611.1404, 1656.272
611.6225, 1666.458
612.1046, 1674.725
612.5867, 1679.794
613.0688, 1678.961
613.5510, 1666.764
614.0331, 1650.037
614.5152, 1634.410
614.9973, 1621.664
615.4794, 1622.467
615.9615, 1643.045
616.4437, 1668.078
616.9258, 1672.401
617.4079, 1649.572
617.8900, 1634.938
618.3721, 1634.806
618.8542, 1635.593
619.3364, 1633.368
619.8185, 1629.973
620.3006, 1627.382
620.7827, 1626.114
621.2648, 1627.177
621.7469, 1633.623
622.2291, 1642.115
622.7112, 1646.261
623.1933, 1645.897
623.6754, 1642.731
624.1575, 1636.934
624.6396, 1630.332
625.1218, 1625.755
625.6039, 1622.330
626.0860, 1624.150
626.5681, 1640.599
627.0502, 1651.332
627.5323, 1642.544
628.0145, 1625.832
628.4966, 1618.109
628.9787, 1624.088
629.4608, 1633.245
629.9429, 1637.323
630.4250, 1637.359
630.9072, 1635.390
631.3893, 1631.499
631.8714, 1628.146
632.3535, 1626.391
632.8356, 1625.990
633.3177, 1626.847
633.7999, 1630.295
634.2820, 1630.800
634.7641, 1625.847
635.2462, 1620.831
635.7283, 1615.770
636.2104, 1612.985
636.6926, 1617.454
637.1747, 1630.252
637.6568, 1642.131
638.1389, 1642.263
638.6210, 1634.651
639.1031, 1630.474
639.5853, 1630.128
640.0674, 1633.243
640.5495, 1640.769
641.0316, 1649.902
641.5137, 1655.962
641.9958, 1658.770
642.4780, 1658.644
642.9601, 1654.194
643.4422, 1648.445
643.9243, 1639.906
644.4064, 1632.014
644.8885, 1629.952
645.3707, 1634.897
645.8528, 1642.042
646.3349, 1650.728
646.8170, 1657.634
647.2991, 1650.106
647.7813, 1627.800
648.2634, 1608.931
648.7455, 1600.266
649.2276, 1600.920
649.7097, 1611.237
650.1918, 1635.410
650.6740, 1651.285
651.1561, 1658.309
651.6382, 1658.126
652.1203, 1643.681
652.6024, 1626.126
653.0845, 1621.682
653.5667, 1632.631
654.0488, 1641.866
654.5309, 1630.766
655.0130, 1609.297
655.4951, 1599.628
655.9772, 1601.463
656.4594, 1606.692
656.9415, 1613.406
657.4236, 1619.167
657.9057, 1620.598
658.3878, 1617.128
658.8699, 1613.394
659.3521, 1605.120
659.8342, 1601.837
660.3163, 1609.937
660.7984, 1621.729
661.2805, 1629.608
661.7626, 1632.534
662.2448, 1633.705
662.7269, 1636.061
663.2090, 1637.425
663.6911, 1633.427
664.1732, 1624.918
664.6553, 1615.495
665.1375, 1605.534
665.6196, 1600.026
666.1017, 1605.902
666.5838, 1622.979
667.0659, 1632.228
667.5480, 1626.458
668.0302, 1622.319
668.5123, 1625.482
668.9944, 1628.298
669.4765, 1622.211
669.9586, 1609.298
670.4407, 1600.823
670.9229, 1603.981
671.4050, 1611.673
671.8871, 1618.720
672.3692, 1624.072
672.8513, 1623.543
673.3334, 1616.505
673.8156, 1609.198
674.2977, 1607.144
674.7798, 1608.901
675.2620, 1606.249
675.7441, 1591.923
676.2262, 1587.775
676.7083, 1611.817
677.1904, 1631.758
677.6725, 1624.334
678.1547, 1599.218
678.6368, 1582.262
679.1189, 1582.693
679.6010, 1588.870
680.0831, 1597.595
680.5652, 1605.106
681.0474, 1602.686
681.5295, 1591.896
682.0116, 1585.672
682.4937, 1592.176
682.9758, 1605.724
683.4579, 1613.770
683.9401, 1615.356
684.4222, 1616.102
684.9043, 1617.430
685.3864, 1616.116
685.8685, 1603.799
686.3506, 1590.172
686.8328, 1592.777
687.3149, 1618.536
687.7970, 1637.469
688.2791, 1635.313
688.7612, 1625.890
689.2433, 1618.508
689.7255, 1613.664
690.2076, 1609.715
690.6897, 1606.141
691.1718, 1605.083
691.6539, 1611.018
692.1360, 1622.930
692.6182, 1629.280
693.1003, 1628.987
693.5824, 1628.044
694.0645, 1629.278
694.5466, 1630.328
695.0287, 1626.874
695.5109, 1618.297
695.9930, 1613.401
696.4751, 1614.839
696.9572, 1617.592
697.4393, 1621.465
697.9214, 1624.625
698.4036, 1624.804
698.8857, 1621.903
699.3678, 1617.609
699.8499, 1611.701
700.3320, 1606.711
700.8141, 1609.193
701.2963, 1617.859
701.7784, 1622.480
702.2605, 1620.504
702.7426, 1615.187
703.2247, 1608.493
703.7068, 1601.000
704.1890, 1596.651
704.6711, 1595.360
705.1532, 1597.582
705.6353, 1607.424
706.1174, 1616.832
706.5995, 1620.161
707.0817, 1619.121
707.5638, 1618.756
708.0459, 1621.333
708.5280, 1623.043
709.0101, 1619.373
709.4922, 1613.685
709.9744, 1611.341
710.4565, 1612.520
710.9386, 1615.745
711.4207, 1620.570
711.9028, 1624.151
712.3849, 1620.076
712.8671, 1606.381
713.3492, 1598.077
713.8313, 1597.489
714.3134, 1598.201
714.7955, 1599.252
715.2776, 1599.133
715.7598, 1593.434
716.2419, 1580.760
716.7240, 1577.700
717.2061, 1601.414
717.6882, 1622.150
718.1703, 1617.667
718.6525, 1600.452
719.1346, 1590.225
719.6167, 1590.951
720.0988, 1593.362
720.5809, 1588.394
721.0630, 1580.468
721.5452, 1582.979
722.0273, 1595.621
722.5094, 1603.884
722.9915, 1603.484
723.4736, 1601.817
723.9557, 1606.660
724.4379, 1616.232
724.9200, 1617.363
725.4021, 1597.865
725.8842, 1586.956
726.3663, 1594.605
726.8484, 1602.966
727.3306, 1598.547
727.8127, 1586.613
728.2948, 1580.333
728.7769, 1585.064
729.2590, 1592.067
729.7411, 1596.564
730.2233, 1598.174
730.7054, 1593.771
731.1875, 1585.167
731.6696, 1581.393
732.1517, 1586.729
732.6339, 1595.886
733.1160, 1601.388
733.5981, 1603.200
734.0802, 1601.824
734.5623, 1594.730
735.0444, 1590.666
735.5266, 1593.864
736.0087, 1600.475
736.4908, 1608.555
736.9729, 1617.889
737.4550, 1618.177
737.9371, 1598.465
738.4193, 1580.885
738.9014, 1573.852
739.3835, 1573.856
739.8656, 1579.019
740.3477, 1587.462
740.8298, 1595.289
741.3120, 1600.576
741.7941, 1602.817
742.2762, 1600.141
742.7583, 1593.610
743.2404, 1587.132
743.7225, 1581.214
744.2047, 1577.325
744.6868, 1576.618
745.1689, 1578.092
745.6510, 1579.594
746.1331, 1582.363
746.6152, 1581.420
747.0974, 1570.201
747.5795, 1563.478
748.0616, 1568.955
748.5437, 1580.379
749.0258, 1590.755
749.5079, 1599.280
749.9901, 1605.753
750.4722, 1612.933
750.9543, 1615.304
751.4364, 1604.287
751.9185, 1587.497
752.4006, 1577.313
752.8828, 1576.070
753.3649, 1578.708
753.8470, 1582.018
754.3291, 1584.937
754.8112, 1584.126
755.2933, 1579.796
755.7755, 1577.305
756.2576, 1578.012
756.7397, 1578.791
757.2218, 1577.576
757.7039, 1574.566
758.1860, 1570.257
758.6682, 1561.838
759.1503, 1557.465
759.6324, 1559.466
760.1145, 1562.680
760.5966, 1565.083
761.0787, 1567.242
761.5609, 1570.543
762.0430, 1575.328
762.5251, 1578.949
763.0072, 1579.553
763.4893, 1578.886
763.9714, 1579.084
764.4536, 1579.161
764.9357, 1575.802
765.4178, 1568.856
765.8999, 1563.575
766.3820, 1565.257
766.8641, 1571.453
767.3463, 1576.110
767.8284, 1579.350
768.3105, 1574.312
768.7926, 1556.254
769.2747, 1542.266
769.7568, 1547.281
770.2390, 1565.251
770.7211, 1574.336
771.2032, 1569.320
771.6853, 1564.589
772.1674, 1558.641
772.6495, 1554.581
773.1317, 1554.475
773.6138, 1556.798
774.0959, 1559.869
774.5780, 1563.372
775.0601, 1565.514
775.5422, 1565.608
776.0244, 1563.720
776.5065, 1556.318
776.9886, 1548.007
777.4707, 1551.254
777.9528, 1566.559
778.4349, 1576.310
778.9171, 1562.677
779.3992, 1538.664
779.8813, 1543.030
780.3634, 1575.280
780.8455, 1591.251
781.3276, 1581.399
781.8098, 1567.210
782.2919, 1562.469
782.7740, 1563.991
783.2561, 1563.232
783.7382, 1559.734
784.2203, 1555.015
784.7025, 1547.454
785.1846, 1540.599
785.6667, 1533.219
786.1488, 1528.538
786.6309, 1531.801
787.1130, 1543.281
787.5952, 1553.939
788.0773, 1561.354
788.5594, 1565.595
789.0415, 1564.569
789.5236, 1561.439
790.0057, 1559.814
790.4879, 1560.786
790.9700, 1566.017
791.4521, 1577.689
791.9342, 1590.044
792.4163, 1592.405
792.8984, 1586.320
793.3806, 1578.577
793.8627, 1569.578
794.3448, 1568.762
794.8269, 1583.505
795.3090, 1602.338
795.7911, 1603.570
796.2733, 1583.634
796.7554, 1569.256
797.2375, 1560.396
797.7196, 1557.164
798.2017, 1562.428
798.6838, 1571.347
799.1660, 1583.935
799.6481, 1598.092
800.1302, 1601.115
800.6123, 1578.001
801.0944, 1559.512
801.5765, 1561.140
802.0587, 1568.303
802.5408, 1567.949
803.0229, 1561.463
803.5050, 1555.456
803.9871, 1552.357
804.4692, 1553.789
804.9514, 1566.629
805.4335, 1582.808
805.9156, 1585.709
806.3977, 1576.657
806.8798, 1564.040
807.3619, 1550.819
807.8441, 1540.760
808.3262, 1537.835
808.8083, 1541.863
809.2904, 1554.079
809.7725, 1577.991
810.2546, 1591.514
810.7368, 1587.572
811.2189, 1579.004
811.7010, 1575.005
812.1831, 1573.441
812.6652, 1566.697
813.1473, 1549.508
813.6295, 1538.457
814.1116, 1536.953
814.5937, 1538.244
815.0758, 1539.992
815.5579, 1542.600
816.0400, 1547.591
816.5222, 1554.891
817.0043, 1560.613
817.4864, 1564.415
817.9685, 1564.463
818.4506, 1554.996
818.9327, 1543.141
819.4149, 1541.229
819.8970, 1548.435
820.3791, 1552.960
820.8612, 1547.280
821.3433, 1539.648
821.8254, 1545.523
822.3076, 1560.053
822.7897, 1560.964
823.2718, 1547.472
823.7539, 1539.259
824.2360, 1545.613
824.7181, 1554.378
825.2003, 1548.185
825.6824, 1527.686
826.1645, 1518.447
826.6466, 1524.682
827.1287, 1531.048
827.6108, 1535.411
828.0930, 1537.973
828.5751, 1537.159
829.0572, 1534.640
829.5393, 1536.584
830.0214, 1546.728
830.5035, 1553.697
830.9857, 1556.193
831.4678, 1555.044
831.9499, 1546.392
832.4320, 1536.446
832.9141, 1535.726
833.3962, 1545.205
833.8784, 1551.477
834.3605, 1544.215
834.8426, 1533.983
835.3247, 1526.122
835.8068, 1522.829
836.2889, 1533.051
836.7711, 1552.874
837.2532, 1561.404
837.7353, 1545.159
838.2174, 1521.607
838.6995, 1517.870
839.1816, 1528.676
839.6638, 1531.331
840.1459, 1525.232
840.6280, 1526.202
841.1101, 1541.489
841.5922, 1556.971
842.0743, 1554.289
842.5565, 1535.874
843.0386, 1530.675
843.5207, 1545.195
844.0028, 1550.455
844.4849, 1534.533
844.9670, 1520.429
845.4492, 1528.120
845.9313, 1548.430
846.4134, 1554.439
846.8955, 1539.783
847.3776, 1528.704
847.8597, 1524.006
848.3419, 1520.942
848.8240, 1515.742
849.3061, 1512.444
849.7882, 1519.511
850.2703, 1535.104
850.7524, 1541.291
851.2346, 1521.609
851.7167, 1503.937
852.1988, 1507.345
852.6809, 1519.053
853.1630, 1528.339
853.6451, 1532.675
854.1273, 1529.165
854.6094, 1516.535
855.0915, 1503.191
855.5736, 1494.861
856.0557, 1492.807
856.5378, 1503.890
857.0200, 1523.862
857.5021, 1535.285
857.9842, 1534.089
858.4663, 1529.991
858.9484, 1531.119
859.4305, 1534.778
859.9127, 1532.593
860.3948, 1524.377
860.8769, 1520.348
861.3590, 1521.647
861.8411, 1526.436
862.3232, 1535.803
862.8054, 1544.104
863.2875, 1541.533
863.7696, 1526.893
864.2517, 1519.689
864.7338, 1525.587
865.2159, 1528.610
865.6981, 1521.798
866.1802, 1515.226
866.6623, 1516.368
867.1444, 1523.318
867.6265, 1531.512
868.1086, 1544.249
868.5908, 1549.144
869.0729, 1539.833
869.5550, 1527.121
870.0371, 1509.711
870.5192, 1496.037
871.0013, 1500.415
871.4835, 1521.575
871.9656, 1536.301
872.4477, 1530.516
872.9298, 1520.116
873.4119, 1513.119
873.8940, 1509.345
874.3762, 1511.336
874.8583, 1516.265
875.3404, 1515.175
875.8225, 1504.575
876.3046, 1495.628
876.7867, 1501.929
877.2689, 1516.226
877.7510, 1527.347
878.2331, 1534.623
878.7152, 1534.913
879.1973, 1528.105
879.6794, 1519.705
880.1616, 1513.513
880.6437, 1509.408
881.1258, 1506.322
881.6079, 1504.492
882.0900, 1511.436
882.5721, 1529.152
883.0543, 1536.754
883.5364, 1523.546
884.0185, 1505.493
884.5006, 1502.815
884.9827, 1514.109
885.4648, 1519.982
885.9470, 1519.548
886.4291, 1515.621
886.9112, 1503.889
887.3933, 1496.616
887.8754, 1504.615
888.3575, 1520.501
888.8397, 1528.350
889.3218, 1526.077
889.8039, 1523.214
890.2860, 1514.872
890.7681, 1512.291
891.2502, 1525.027
891.7324, 1539.275
892.2145, 1544.986
892.6966, 1541.915
893.1787, 1530.914
893.6608, 1505.466
894.1429, 1487.775
894.6251, 1489.104
895.1072, 1496.465
895.5893, 1504.456
896.0714, 1511.041
896.5535, 1513.379
897.0356, 1511.585
897.5178, 1510.443
897.9999, 1514.735
898.4820, 1517.508
898.9641, 1507.885
899.4462, 1496.564
899.9283, 1501.488
900.4105, 1518.175
900.8926, 1528.843
901.3747, 1526.538
901.8568, 1519.724
902.3389, 1517.258
902.8210, 1515.732
903.3032, 1505.768
903.7853, 1491.567
904.2674, 1487.995
904.7495, 1496.672
905.2316, 1506.162
905.7137, 1509.442
906.1959, 1507.839
906.6780, 1501.411
907.1601, 1491.557
907.6422, 1490.449
908.1243, 1498.291
908.6064, 1499.037
909.0886, 1486.762
909.5707, 1473.236
910.0528, 1469.242
910.5349, 1473.680
911.0170, 1484.773
911.4991, 1505.335
911.9813, 1511.480
912.4634, 1495.915
912.9455, 1484.883
913.4276, 1492.372
913.9097, 1507.426
914.3918, 1515.833
914.8740, 1517.609
915.3561, 1513.981
915.8382, 1500.263
916.3203, 1490.723
916.8024, 1486.857
917.2845, 1488.168
917.7667, 1499.355
918.2488, 1513.788
918.7309, 1516.321
919.2130, 1503.174
919.6951, 1496.058
920.1772, 1501.836
920.6594, 1505.613
921.1415, 1497.846
921.6237, 1491.581
922.1058, 1500.417
922.5879, 1519.355
923.0700, 1533.099
923.5521, 1540.422
924.0342, 1538.343
924.5164, 1513.464
924.9985, 1493.215
925.4806, 1497.541
925.9627, 1511.582
926.4448, 1517.186
926.9269, 1513.720
927.4091, 1511.869
927.8912, 1517.895
928.3733, 1521.495
928.8554, 1517.521
929.3375, 1507.983
929.8196, 1487.822
930.3018, 1466.092
930.7839, 1461.147
931.2660, 1474.809
931.7481, 1486.470
932.2302, 1480.952
932.7123, 1471.617
933.1945, 1469.350
933.6766, 1472.837
934.1587, 1483.728
934.6408, 1498.416
935.1229, 1507.443
935.6050, 1507.418
936.0872, 1501.900
936.5693, 1491.257
937.0514, 1479.640
937.5335, 1472.744
938.0156, 1470.604
938.4977, 1475.242
938.9799, 1485.389
939.4620, 1494.691
939.9441, 1499.880
940.4262, 1500.876
940.9083, 1494.368
941.3904, 1484.316
941.8726, 1483.958
942.3547, 1491.954
942.8368, 1503.510
943.3189, 1516.770
943.8010, 1518.067
944.2831, 1496.544
944.7653, 1468.254
945.2474, 1466.465
945.7295, 1487.577
946.2116, 1495.269
946.6937, 1489.047
947.1758, 1481.719
947.6580, 1476.362
948.1401, 1477.068
948.6222, 1489.074
949.1043, 1505.272
949.5864, 1502.722
950.0685, 1479.381
950.5507, 1467.780
951.0328, 1470.030
951.5149, 1478.936
951.9970, 1494.429
952.4791, 1507.411
952.9612, 1507.940
953.4434, 1498.683
953.9255, 1491.946
954.4076, 1487.993
954.8897, 1485.921
955.3718, 1486.682
955.8539, 1486.670
956.3361, 1484.974
956.8182, 1480.265
957.3003, 1467.436
957.7824, 1448.832
958.2645, 1455.354
958.7466, 1508.478
959.2288, 1530.848
959.7109, 1497.850
960.1930, 1466.139
960.6751, 1464.374
961.1572, 1476.908
961.6393, 1483.091
962.1215, 1482.860
962.6036, 1478.679
963.0857, 1465.018
963.5678, 1457.232
964.0499, 1461.699
964.5320, 1466.430
965.0142, 1465.434
965.4963, 1460.641
965.9784, 1453.334
966.4605, 1442.377
966.9426, 1439.678
967.4247, 1456.431
967.9069, 1465.483
968.3890, 1451.656
968.8711, 1440.957
969.3532, 1455.519
969.8353, 1481.231
970.3174, 1490.245
970.7996, 1478.094
971.2817, 1471.567
971.7638, 1479.080
972.2459, 1484.426
972.7280, 1480.858
973.2101, 1476.631
973.6923, 1479.192
974.1744, 1485.053
974.6565, 1486.096
975.1386, 1480.689
975.6207, 1475.277
976.1028, 1469.515
976.5850, 1465.878
977.0671, 1466.974
977.5492, 1468.900
978.0313, 1467.292
978.5134, 1464.208
978.9955, 1465.638
979.4777, 1473.725
979.9598, 1479.828
980.4419, 1481.118
980.9240, 1480.744
981.4061, 1481.130
981.8882, 1479.504
982.3704, 1470.919
982.8525, 1458.473
983.3346, 1450.113
983.8167, 1447.048
984.2988, 1450.304
984.7809, 1467.856
985.2631, 1482.598
985.7452, 1481.644
986.2273, 1477.196
986.7094, 1486.444
987.1915, 1502.726
987.6736, 1501.313
988.1558, 1470.546
988.6379, 1447.944
989.1200, 1451.969
989.6021, 1463.008
990.0842, 1475.361
990.5663, 1485.295
991.0485, 1488.713
991.5306, 1486.688
992.0127, 1482.851
992.4948, 1477.323
992.9769, 1474.283
993.4590, 1477.166
993.9412, 1481.090
994.4233, 1483.306
994.9054, 1484.893
995.3875, 1489.550
995.8696, 1494.773
996.3517, 1491.197
996.8339, 1473.582
997.3160, 1458.710
997.7981, 1452.232
998.2802, 1452.995
998.7623, 1470.651
999.2444, 1487.699
999.7266, 1477.931
1000.209, 1449.390
1000.691, 1435.916
1001.173, 1451.474
1001.655, 1463.988
1002.137, 1450.520
1002.619, 1438.511
1003.101, 1452.005
1003.583, 1471.362
1004.066, 1470.618
1004.548, 1454.535
1005.030, 1447.589
1005.512, 1459.352
1005.994, 1468.367
1006.476, 1461.576
1006.958, 1453.085
1007.440, 1449.488
1007.923, 1450.379
1008.405, 1458.106
1008.887, 1469.299
1009.369, 1474.682
1009.851, 1471.012
1010.333, 1465.152
1010.815, 1456.894
1011.297, 1451.000
1011.779, 1450.354
1012.262, 1453.410
1012.744, 1460.521
1013.226, 1469.509
1013.708, 1476.234
1014.190, 1480.190
1014.672, 1477.628
1015.154, 1457.805
1015.636, 1442.361
1016.119, 1448.255
1016.601, 1459.155
1017.083, 1457.913
1017.565, 1448.139
1018.047, 1442.328
1018.529, 1443.434
1019.011, 1446.857
1019.493, 1456.125
1019.975, 1460.864
1020.458, 1448.913
1020.940, 1437.042
1021.422, 1443.178
1021.904, 1460.366
1022.386, 1471.746
1022.868, 1474.262
1023.350, 1471.660
1023.832, 1462.374
1024.314, 1451.580
1024.797, 1437.384
1025.279, 1425.964
1025.761, 1420.031
1026.243, 1420.953
1026.725, 1434.173
1027.207, 1461.730
1027.689, 1477.851
1028.171, 1469.561
1028.654, 1459.945
1029.136, 1451.565
1029.618, 1447.595
1030.100, 1453.646
1030.582, 1463.755
1031.064, 1467.999
1031.546, 1465.391
1032.028, 1462.577
1032.510, 1458.243
1032.993, 1456.929
1033.475, 1465.150
1033.957, 1470.260
1034.439, 1460.589
1034.921, 1446.508
1035.403, 1444.452
1035.885, 1454.655
1036.367, 1457.980
1036.849, 1444.855
1037.332, 1438.441
1037.814, 1449.442
1038.296, 1456.223
1038.778, 1442.171
1039.260, 1425.307
1039.742, 1429.962
1040.224, 1452.793
1040.706, 1461.541
1041.189, 1444.589
1041.671, 1436.565
1042.153, 1443.454
1042.635, 1450.318
1043.117, 1453.930
1043.599, 1452.806
1044.081, 1443.107
1044.563, 1427.753
1045.046, 1420.711
1045.528, 1425.798
1046.010, 1426.640
1046.492, 1418.203
1046.974, 1419.467
1047.456, 1442.561
1047.938, 1462.745
1048.420, 1456.206
1048.902, 1435.192
1049.385, 1435.592
1049.867, 1462.767
1050.349, 1469.547
1050.831, 1450.459
1051.313, 1435.880
1051.795, 1433.142
1052.277, 1434.351
1052.759, 1434.136
1053.242, 1434.826
1053.724, 1442.494
1054.206, 1456.412
1054.688, 1457.566
1055.170, 1445.074
1055.652, 1434.708
1056.134, 1429.087
1056.616, 1427.141
1057.099, 1428.718
1057.581, 1430.877
1058.063, 1428.328
1058.545, 1423.813
1059.027, 1432.231
1059.509, 1451.295
1059.991, 1458.321
1060.473, 1451.602
1060.955, 1445.286
1061.438, 1445.197
1061.920, 1449.447
1062.402, 1457.999
1062.884, 1465.930
1063.366, 1460.215
1063.848, 1445.373
1064.330, 1434.160
1064.812, 1427.929
1065.294, 1429.658
1065.777, 1438.769
1066.259, 1443.407
1066.741, 1433.479
1067.223, 1420.168
1067.705, 1418.597
1068.187, 1423.505
1068.669, 1426.282
1069.151, 1427.880
1069.634, 1432.877
1070.116, 1440.818
1070.598, 1445.331
1071.080, 1442.685
1071.562, 1439.256
1072.044, 1440.126
1072.526, 1443.284
1073.008, 1448.870
1073.490, 1454.049
1073.973, 1452.069
1074.455, 1446.316
1074.937, 1451.293
1075.419, 1472.429
1075.901, 1481.088
1076.383, 1444.563
1076.865, 1412.620
1077.347, 1423.740
1077.829, 1443.805
1078.312, 1437.266
1078.794, 1417.643
1079.276, 1416.789
1079.758, 1438.631
1080.240, 1452.388
1080.722, 1445.433
1081.204, 1435.273
1081.686, 1420.736
1082.169, 1410.441
1082.651, 1411.800
1083.133, 1418.233
1083.615, 1421.362
1084.097, 1421.641
1084.579, 1425.252
1085.061, 1436.587
1085.543, 1443.228
1086.026, 1445.421
1086.508, 1441.858
1086.990, 1422.272
1087.472, 1409.952
1087.954, 1431.135
1088.436, 1468.906
1088.918, 1476.635
1089.400, 1448.567
1089.882, 1430.715
1090.365, 1424.334
1090.847, 1425.244
1091.329, 1435.529
1091.811, 1442.665
1092.293, 1438.626
1092.775, 1429.738
1093.257, 1425.293
1093.739, 1424.506
1094.221, 1422.325
1094.704, 1418.764
1095.186, 1412.807
1095.668, 1404.454
1096.150, 1402.925
1096.632, 1411.858
1097.114, 1420.207
1097.596, 1417.717
1098.078, 1407.648
1098.561, 1389.377
1099.043, 1370.691
1099.525, 1383.370
1100.007, 1418.646
1100.489, 1439.193
1100.971, 1438.125
1101.453, 1431.114
1101.935, 1426.723
1102.417, 1423.374
1102.900, 1419.460
1103.382, 1415.627
1103.864, 1414.137
1104.346, 1412.488
1104.828, 1402.681
1105.310, 1389.529
1105.792, 1390.250
1106.274, 1409.462
1106.756, 1424.257
1107.239, 1415.938
1107.721, 1406.868
1108.203, 1411.931
1108.685, 1418.965
1109.167, 1416.396
1109.649, 1409.939
1110.131, 1409.610
1110.613, 1415.557
1111.096, 1419.793
1111.578, 1420.910
1112.060, 1419.805
1112.542, 1414.781
1113.024, 1409.929
1113.506, 1405.576
1113.988, 1403.189
1114.470, 1405.691
1114.953, 1410.402
1115.435, 1410.061
1115.917, 1403.434
1116.399, 1400.157
1116.881, 1401.288
1117.363, 1402.703
1117.845, 1403.345
1118.327, 1406.149
1118.809, 1414.172
1119.292, 1420.504
1119.774, 1415.200
1120.256, 1401.389
1120.738, 1393.239
1121.220, 1390.681
1121.702, 1394.315
1122.184, 1403.676
1122.666, 1407.025
1123.148, 1400.992
1123.631, 1392.073
1124.113, 1384.442
1124.595, 1380.580
1125.077, 1388.378
1125.559, 1400.662
1126.041, 1399.845
1126.523, 1391.244
1127.005, 1388.643
1127.488, 1392.735
1127.970, 1397.152
1128.452, 1399.442
1128.934, 1401.576
1129.416, 1408.261
1129.898, 1411.129
1130.380, 1398.173
1130.862, 1383.019
1131.344, 1377.362
1131.827, 1380.021
1132.309, 1389.636
1132.791, 1404.251
1133.273, 1416.512
1133.755, 1428.247
1134.237, 1428.039
1134.719, 1399.970
1135.201, 1376.565
1135.683, 1370.284
1136.166, 1373.394
1136.648, 1385.749
1137.130, 1400.157
1137.612, 1399.707
1138.094, 1382.211
1138.576, 1380.535
1139.058, 1403.397
1139.540, 1415.755
1140.023, 1412.513
1140.505, 1401.433
1140.987, 1383.136
1141.469, 1368.198
1141.951, 1369.013
1142.433, 1378.888
1142.915, 1377.117
1143.397, 1365.689
1143.880, 1363.887
1144.362, 1370.862
1144.844, 1375.229
1145.326, 1375.001
1145.808, 1376.634
1146.290, 1383.688
1146.772, 1390.172
1147.254, 1390.273
1147.736, 1385.267
1148.219, 1369.675
1148.701, 1355.000
1149.183, 1365.828
1149.665, 1390.595
1150.147, 1399.323
1150.629, 1387.471
1151.111, 1373.782
1151.593, 1362.286
1152.075, 1361.114
1152.558, 1386.703
1153.040, 1408.325
1153.522, 1407.798
1154.004, 1395.858
1154.486, 1376.565
1154.968, 1356.195
1155.450, 1350.799
1155.932, 1364.483
1156.415, 1368.835
1156.897, 1356.310
1157.379, 1351.092
1157.861, 1359.046
1158.343, 1366.861
1158.825, 1369.684
1159.307, 1368.024
1159.789, 1361.162
1160.271, 1352.137
1160.754, 1351.956
1161.236, 1359.697
1161.718, 1354.161
1162.200, 1337.278
1162.682, 1339.371
1163.164, 1363.842
1163.646, 1384.007
1164.128, 1386.481
1164.610, 1379.892
1165.093, 1369.463
1165.575, 1360.010
1166.057, 1357.655
1166.539, 1360.919
1167.021, 1371.173
1167.503, 1383.674
1167.985, 1389.756
1168.467, 1388.681
1168.950, 1385.951
1169.432, 1384.290
1169.914, 1378.374
1170.396, 1358.668
1170.878, 1343.912
1171.360, 1343.895
1171.842, 1350.740
1172.324, 1363.786
1172.807, 1376.596
1173.289, 1377.031
1173.771, 1365.722
1174.253, 1358.990
1174.735, 1356.445
1175.217, 1360.927
1175.699, 1375.764
1176.181, 1385.265
1176.663, 1384.316
1177.146, 1378.293
1177.628, 1370.245
1178.110, 1363.549
1178.592, 1365.175
1179.074, 1372.765
1179.556, 1378.944
1180.038, 1382.825
1180.520, 1379.117
1181.002, 1369.611
1181.485, 1364.010
1181.967, 1364.637
1182.449, 1364.221
1182.931, 1357.736
1183.413, 1350.007
1183.895, 1339.534
1184.377, 1335.460
1184.859, 1352.366
1185.342, 1374.534
1185.824, 1384.537
1186.306, 1384.121
1186.788, 1380.468
1187.270, 1374.196
1187.752, 1372.179
1188.234, 1380.828
1188.716, 1384.709
1189.198, 1382.563
1189.681, 1375.413
1190.163, 1360.323
1190.645, 1346.606
1191.127, 1342.177
1191.609, 1345.294
1192.091, 1354.003
1192.573, 1367.320
1193.055, 1368.986
1193.537, 1360.630
1194.020, 1360.874
1194.502, 1370.832
1194.984, 1378.956
1195.466, 1380.667
1195.948, 1375.506
1196.430, 1361.258
1196.912, 1345.870
1197.394, 1334.565
1197.877, 1330.186
1198.359, 1339.620
1198.841, 1355.500
1199.323, 1371.641
1199.805, 1384.142
1200.287, 1386.074
1200.769, 1375.820
1201.251, 1363.947
1201.734, 1346.600
1202.216, 1337.833
1202.698, 1347.333
1203.180, 1355.491
1203.662, 1354.085
1204.144, 1351.672
1204.626, 1356.423
1205.108, 1364.036
1205.590, 1363.781
1206.073, 1356.284
1206.555, 1355.852
1207.037, 1361.994
1207.519, 1363.393
##END=



