##NAMES=Umohoite
##RRUFFID=R061135
##IDEAL CHEMISTRY=(U^6+^O_2_)Mo^6+^O_4_&#183;2H_2_O
##LOCALITY=Kyzulsai Mo-U deposit, south Kazakhstan
##OWNER=RRUFF
##SOURCE=Michael Scott
##DESCRIPTION=Patches of dark green platy crystals
##STATUS=The identification of this mineral has been confirmed by single-crystal X-ray diffraction.
##URL=rruff.info/R061135
195.9820, 4980.821
196.4641, 4944.363
196.9462, 4914.845
197.4284, 4910.354
197.9105, 4931.783
198.3926, 4948.847
198.8747, 4959.123
199.3568, 4962.929
199.8389, 4959.214
200.3211, 4946.184
200.8032, 4933.036
201.2853, 4927.419
201.7674, 4930.517
202.2495, 4930.710
202.7316, 4925.768
203.2138, 4916.875
203.6959, 4907.756
204.1780, 4896.782
204.6601, 4890.074
205.1422, 4895.254
205.6243, 4915.653
206.1065, 4930.872
206.5886, 4935.964
207.0707, 4932.171
207.5528, 4930.630
208.0349, 4931.923
208.5170, 4934.345
208.9992, 4937.602
209.4813, 4943.741
209.9634, 4942.829
210.4455, 4928.188
210.9276, 4900.434
211.4097, 4890.732
211.8919, 4905.417
212.3740, 4929.173
212.8561, 4945.113
213.3382, 4951.308
213.8203, 4954.871
214.3024, 4956.552
214.7846, 4955.888
215.2667, 4958.666
215.7488, 4964.568
216.2309, 4974.255
216.7130, 4990.252
217.1951, 5017.179
217.6773, 5039.960
218.1594, 5052.826
218.6415, 5053.349
219.1236, 5057.428
219.6057, 5064.588
220.0878, 5075.741
220.5700, 5093.674
221.0521, 5124.124
221.5342, 5150.444
222.0163, 5165.773
222.4984, 5165.697
222.9805, 5169.915
223.4627, 5177.849
223.9448, 5190.356
224.4269, 5209.949
224.9090, 5241.803
225.3911, 5272.084
225.8732, 5294.102
226.3554, 5300.907
226.8375, 5319.339
227.3196, 5356.769
227.8017, 5402.738
228.2838, 5431.360
228.7659, 5431.201
229.2481, 5431.041
229.7302, 5444.407
230.2123, 5479.917
230.6944, 5508.598
231.1765, 5525.404
231.6587, 5535.738
232.1408, 5557.428
232.6229, 5604.253
233.1050, 5642.695
233.5871, 5652.101
234.0692, 5605.624
234.5514, 5588.915
235.0335, 5617.625
235.5156, 5677.487
235.9977, 5718.843
236.4798, 5734.460
236.9619, 5741.817
237.4441, 5749.525
237.9262, 5756.709
238.4083, 5766.313
238.8904, 5780.170
239.3725, 5796.785
239.8546, 5808.994
240.3368, 5814.493
240.8189, 5818.543
241.3010, 5824.720
241.7831, 5836.349
242.2652, 5842.705
242.7473, 5838.774
243.2295, 5827.814
243.7116, 5830.524
244.1937, 5858.184
244.6758, 5885.027
245.1579, 5892.066
245.6400, 5862.418
246.1222, 5794.739
246.6043, 5874.290
247.0864, 5924.613
247.5685, 5947.278
248.0506, 5859.452
248.5327, 5914.304
249.0149, 5911.979
249.4970, 5907.307
249.9791, 5982.239
250.4612, 5910.484
250.9433, 5984.154
251.4254, 5999.773
251.9076, 6041.963
252.3897, 6026.619
252.8718, 6029.044
253.3539, 6089.020
253.8360, 6117.130
254.3181, 6095.163
254.8003, 6139.042
255.2824, 6065.276
255.7645, 6094.743
256.2466, 6168.750
256.7287, 6149.675
257.2108, 6194.604
257.6930, 6215.159
258.1751, 6124.934
258.6572, 6227.361
259.1393, 6246.474
259.6214, 6180.038
260.1035, 6275.864
260.5857, 6221.225
261.0678, 6220.292
261.5499, 6259.776
262.0320, 6257.126
262.5141, 6320.907
262.9962, 6320.689
263.4784, 6314.757
263.9605, 6333.776
264.4426, 6345.518
264.9247, 6361.943
265.4068, 6370.161
265.8889, 6366.686
266.3711, 6353.928
266.8532, 6349.085
267.3353, 6352.293
267.8174, 6363.331
268.2995, 6385.222
268.7816, 6422.021
269.2638, 6452.137
269.7459, 6471.921
270.2280, 6481.960
270.7101, 6484.282
271.1922, 6476.057
271.6743, 6466.637
272.1565, 6466.196
272.6386, 6477.836
273.1207, 6478.869
273.6028, 6459.065
274.0849, 6426.272
274.5670, 6420.666
275.0492, 6448.434
275.5313, 6485.522
276.0134, 6514.469
276.4955, 6535.434
276.9776, 6546.962
277.4597, 6545.567
277.9419, 6535.392
278.4240, 6532.636
278.9061, 6538.270
279.3882, 6547.264
279.8703, 6558.164
280.3524, 6571.254
280.8346, 6575.584
281.3167, 6565.768
281.7988, 6548.164
282.2809, 6542.884
282.7630, 6551.092
283.2451, 6563.603
283.7273, 6576.638
284.2094, 6589.654
284.6915, 6591.978
285.1736, 6575.995
285.6557, 6553.688
286.1378, 6562.569
286.6200, 6605.072
287.1021, 6641.200
287.5842, 6632.028
288.0663, 6584.725
288.5484, 6550.023
289.0305, 6536.809
289.5127, 6539.212
289.9948, 6552.856
290.4769, 6577.429
290.9590, 6591.887
291.4411, 6569.894
291.9232, 6522.152
292.4054, 6494.598
292.8875, 6498.934
293.3696, 6517.009
293.8517, 6522.747
294.3338, 6516.338
294.8159, 6498.625
295.2981, 6454.815
295.7802, 6399.634
296.2623, 6378.190
296.7444, 6406.499
297.2265, 6447.259
297.7086, 6446.789
298.1908, 6411.832
298.6729, 6377.109
299.1550, 6368.716
299.6371, 6374.315
300.1192, 6370.218
300.6013, 6351.686
301.0835, 6328.573
301.5656, 6311.223
302.0477, 6298.328
302.5298, 6286.166
303.0119, 6272.383
303.4940, 6258.047
303.9762, 6241.995
304.4583, 6221.822
304.9404, 6209.754
305.4225, 6228.615
305.9046, 6265.009
306.3867, 6288.132
306.8689, 6269.235
307.3510, 6235.914
307.8331, 6215.717
308.3152, 6212.329
308.7973, 6213.250
309.2794, 6208.797
309.7616, 6202.740
310.2437, 6201.556
310.7258, 6217.229
311.2079, 6232.685
311.6900, 6230.849
312.1721, 6207.782
312.6543, 6193.991
313.1364, 6220.246
313.6185, 6262.414
314.1006, 6287.770
314.5827, 6266.727
315.0648, 6239.779
315.5470, 6229.157
316.0291, 6236.873
316.5112, 6242.490
316.9933, 6231.894
317.4754, 6217.396
317.9576, 6211.706
318.4397, 6232.042
318.9218, 6249.021
319.4039, 6248.468
319.8860, 6230.357
320.3681, 6219.021
320.8503, 6220.184
321.3324, 6230.767
321.8145, 6248.346
322.2966, 6288.961
322.7787, 6319.147
323.2608, 6325.848
323.7430, 6311.569
324.2251, 6305.389
324.7072, 6320.112
325.1893, 6337.966
325.6714, 6348.214
326.1535, 6336.235
326.6357, 6332.708
327.1178, 6340.313
327.5999, 6358.486
328.0820, 6383.553
328.5641, 6422.288
329.0462, 6461.857
329.5284, 6495.985
330.0105, 6519.617
330.4926, 6545.696
330.9747, 6574.838
331.4568, 6606.623
331.9389, 6640.247
332.4211, 6677.524
332.9032, 6713.655
333.3853, 6746.190
333.8674, 6772.471
334.3495, 6802.283
334.8316, 6834.695
335.3138, 6871.574
335.7959, 6916.726
336.2780, 6971.757
336.7601, 7030.868
337.2422, 7094.306
337.7243, 7164.862
338.2065, 7217.921
338.6886, 7245.840
339.1707, 7268.898
339.6528, 7315.670
340.1349, 7388.924
340.6170, 7475.181
341.0992, 7584.524
341.5813, 7710.345
342.0634, 7782.554
342.5455, 7791.223
343.0276, 7779.511
343.5097, 7791.351
343.9919, 7826.694
344.4740, 7874.651
344.9561, 7936.706
345.4382, 8007.928
345.9203, 8071.147
346.4024, 8126.576
346.8846, 8179.475
347.3667, 8232.519
347.8488, 8286.918
348.3309, 8345.984
348.8130, 8410.864
349.2951, 8479.482
349.7773, 8549.654
350.2594, 8620.676
350.7415, 8686.128
351.2236, 8732.258
351.7057, 8771.895
352.1878, 8830.332
352.6700, 8917.690
353.1521, 9013.143
353.6342, 9094.017
354.1163, 9164.044
354.5984, 9235.173
355.0806, 9320.922
355.5627, 9407.802
356.0448, 9477.854
356.5269, 9523.011
357.0090, 9574.661
357.4911, 9664.262
357.9733, 9774.078
358.4554, 9872.396
358.9375, 9946.068
359.4196, 10003.69
359.9017, 10048.44
360.3839, 10079.45
360.8660, 10104.53
361.3481, 10123.09
361.8302, 10138.63
362.3123, 10155.10
362.7944, 10162.47
363.2766, 10181.51
363.7587, 10228.80
364.2408, 10304.06
364.7229, 10361.58
365.2050, 10384.47
365.6871, 10390.85
366.1693, 10394.08
366.6514, 10394.08
367.1335, 10392.66
367.6156, 10385.75
368.0977, 10375.52
368.5798, 10377.04
369.0620, 10406.27
369.5441, 10432.70
370.0262, 10442.56
370.5083, 10436.82
370.9904, 10411.22
371.4725, 10353.63
371.9547, 10278.84
372.4368, 10227.26
372.9189, 10212.87
373.4010, 10195.89
373.8831, 10161.34
374.3652, 10108.36
374.8474, 10040.46
375.3295, 9946.601
375.8116, 9852.043
376.2937, 9801.130
376.7758, 9805.418
377.2579, 9792.826
377.7401, 9733.482
378.2222, 9633.836
378.7043, 9550.438
379.1864, 9485.579
379.6685, 9430.132
380.1506, 9379.724
380.6328, 9333.412
381.1149, 9280.185
381.5970, 9212.855
382.0791, 9139.951
382.5612, 9079.594
383.0433, 9031.045
383.5255, 8989.214
384.0076, 8958.837
384.4897, 8931.734
384.9718, 8884.171
385.4539, 8805.476
385.9360, 8721.182
386.4182, 8658.339
386.9003, 8613.658
387.3824, 8575.042
387.8645, 8546.060
388.3466, 8514.150
388.8287, 8459.910
389.3109, 8377.194
389.7930, 8299.518
390.2751, 8252.603
390.7572, 8225.684
391.2393, 8202.235
391.7214, 8179.623
392.2036, 8155.210
392.6857, 8128.238
393.1678, 8098.657
393.6499, 8063.805
394.1320, 8025.070
394.6141, 7979.423
395.0963, 7924.697
395.5784, 7834.009
396.0605, 7762.334
396.5426, 7734.631
397.0247, 7741.758
397.5068, 7733.034
397.9890, 7689.552
398.4711, 7639.699
398.9532, 7596.226
399.4353, 7557.379
399.9174, 7528.329
400.3995, 7515.853
400.8817, 7511.443
401.3638, 7498.060
401.8459, 7474.058
402.3280, 7443.563
402.8101, 7405.077
403.2922, 7355.977
403.7744, 7318.923
404.2565, 7297.172
404.7386, 7282.617
405.2207, 7265.708
405.7028, 7246.131
406.1849, 7226.333
406.6671, 7207.852
407.1492, 7189.442
407.6313, 7163.663
408.1134, 7128.978
408.5955, 7096.710
409.0776, 7077.782
409.5598, 7070.081
410.0419, 7061.215
410.5240, 7050.258
411.0061, 7035.209
411.4882, 7008.596
411.9703, 6973.146
412.4525, 6942.691
412.9346, 6930.339
413.4167, 6926.762
413.8988, 6919.556
414.3809, 6908.287
414.8630, 6889.447
415.3452, 6853.903
415.8273, 6809.427
416.3094, 6770.102
416.7915, 6739.681
417.2736, 6717.897
417.7557, 6709.345
418.2379, 6712.805
418.7200, 6712.966
419.2021, 6707.375
419.6842, 6692.932
420.1663, 6666.533
420.6484, 6611.839
421.1306, 6564.622
421.6127, 6537.627
422.0948, 6525.794
422.5769, 6513.122
423.0590, 6498.074
423.5411, 6481.048
424.0233, 6462.741
424.5054, 6445.478
424.9875, 6421.247
425.4696, 6381.668
425.9517, 6339.680
426.4338, 6313.832
426.9160, 6318.391
427.3981, 6313.235
427.8802, 6285.180
428.3623, 6235.496
428.8444, 6198.991
429.3265, 6178.809
429.8087, 6165.022
430.2908, 6151.162
430.7729, 6137.719
431.2550, 6119.578
431.7371, 6095.727
432.2192, 6067.011
432.7014, 6032.754
433.1835, 5993.035
433.6656, 5958.359
434.1477, 5934.122
434.6298, 5920.043
435.1119, 5921.330
435.5941, 5941.860
436.0762, 5955.650
436.5583, 5925.860
437.0404, 5867.276
437.5225, 5815.810
438.0046, 5791.343
438.4868, 5777.318
438.9689, 5757.604
439.4510, 5732.779
439.9331, 5709.142
440.4152, 5691.674
440.8973, 5676.358
441.3795, 5659.153
441.8616, 5637.001
442.3437, 5616.419
442.8258, 5601.146
443.3079, 5589.494
443.7900, 5577.895
444.2722, 5562.264
444.7543, 5549.368
445.2364, 5544.150
445.7185, 5551.098
446.2006, 5549.056
446.6827, 5524.081
447.1649, 5495.989
447.6470, 5484.881
448.1291, 5508.318
448.6112, 5519.729
449.0933, 5506.685
449.5754, 5474.585
450.0576, 5456.843
450.5397, 5457.903
451.0218, 5464.205
451.5039, 5470.249
451.9860, 5477.260
452.4681, 5472.443
452.9503, 5451.760
453.4324, 5425.395
453.9145, 5409.451
454.3966, 5403.779
454.8787, 5401.721
455.3608, 5398.309
455.8430, 5396.778
456.3251, 5410.150
456.8072, 5438.514
457.2893, 5465.564
457.7714, 5478.016
458.2535, 5478.690
458.7357, 5471.348
459.2178, 5451.828
459.6999, 5433.114
460.1820, 5429.193
460.6641, 5435.722
461.1462, 5439.663
461.6284, 5433.588
462.1105, 5423.311
462.5926, 5412.343
463.0747, 5400.837
463.5568, 5389.423
464.0389, 5373.909
464.5211, 5360.371
465.0032, 5355.683
465.4853, 5389.939
465.9674, 5402.054
466.4495, 5364.034
466.9316, 5282.930
467.4138, 5231.274
467.8959, 5228.627
468.3780, 5234.549
468.8601, 5227.607
469.3422, 5196.053
469.8243, 5184.635
470.3065, 5204.397
470.7886, 5233.392
471.2707, 5230.416
471.7528, 5188.418
472.2349, 5150.802
472.7170, 5133.907
473.1992, 5132.979
473.6813, 5123.882
474.1634, 5106.221
474.6455, 5084.457
475.1276, 5059.477
475.6097, 5033.038
476.0919, 5012.523
476.5740, 5000.978
477.0561, 4991.403
477.5382, 4975.574
478.0203, 4954.729
478.5024, 4932.600
478.9846, 4915.314
479.4667, 4894.885
479.9488, 4858.413
480.4309, 4804.170
480.9130, 4761.769
481.3951, 4762.970
481.8773, 4776.296
482.3594, 4772.029
482.8415, 4719.689
483.3236, 4673.813
483.8057, 4653.271
484.2878, 4650.719
484.7700, 4639.464
485.2521, 4605.185
485.7342, 4572.772
486.2163, 4552.193
486.6984, 4548.313
487.1805, 4536.425
487.6627, 4511.233
488.1448, 4483.745
488.6269, 4468.942
489.1090, 4473.021
489.5911, 4463.133
490.0732, 4424.702
490.5554, 4371.345
491.0375, 4354.833
491.5196, 4378.701
492.0017, 4400.623
492.4838, 4388.167
492.9659, 4351.123
493.4481, 4325.375
493.9302, 4315.168
494.4123, 4309.328
494.8944, 4295.706
495.3765, 4277.200
495.8586, 4260.162
496.3408, 4249.859
496.8229, 4239.629
497.3050, 4220.829
497.7871, 4195.743
498.2692, 4175.766
498.7513, 4173.648
499.2335, 4174.380
499.7156, 4166.153
500.1977, 4141.262
500.6798, 4122.221
501.1619, 4120.759
501.6440, 4126.428
502.1262, 4124.417
502.6083, 4101.153
503.0904, 4084.626
503.5725, 4083.113
504.0546, 4095.123
504.5367, 4098.597
505.0189, 4091.715
505.5010, 4079.447
505.9831, 4061.781
506.4652, 4036.273
506.9473, 4023.553
507.4294, 4027.544
507.9116, 4039.079
508.3937, 4046.039
508.8758, 4048.371
509.3579, 4045.965
509.8400, 4037.695
510.3221, 4025.191
510.8043, 4009.039
511.2864, 3989.998
511.7685, 3975.786
512.2506, 3977.615
512.7327, 3985.501
513.2148, 3984.640
513.6970, 3968.157
514.1791, 3955.914
514.6612, 3971.798
515.1433, 3997.902
515.6254, 4005.764
516.1075, 3962.855
516.5897, 3922.482
517.0718, 3905.040
517.5539, 3910.624
518.0360, 3917.166
518.5181, 3919.632
519.0002, 3924.624
519.4824, 3937.155
519.9645, 3970.559
520.4466, 3981.518
520.9287, 3960.141
521.4108, 3924.783
521.8929, 3904.681
522.3751, 3902.305
522.8572, 3904.308
523.3393, 3907.424
523.8214, 3911.760
524.3035, 3919.702
524.7856, 3931.585
525.2678, 3939.156
525.7499, 3934.142
526.2320, 3920.136
526.7141, 3903.904
527.1962, 3885.036
527.6783, 3871.263
528.1605, 3876.184
528.6426, 3890.888
529.1247, 3899.200
529.6068, 3883.391
530.0889, 3868.918
530.5710, 3875.898
531.0532, 3900.148
531.5353, 3914.946
532.0174, 3900.416
532.4995, 3882.270
532.9816, 3875.432
533.4637, 3889.554
533.9459, 3895.966
534.4280, 3888.536
534.9101, 3876.281
535.3922, 3869.667
535.8743, 3870.005
536.3564, 3873.583
536.8386, 3882.869
537.3207, 3894.284
537.8028, 3888.141
538.2849, 3860.159
538.7670, 3840.796
539.2491, 3856.726
539.7313, 3899.076
540.2134, 3924.909
540.6955, 3932.137
541.1776, 3927.103
541.6597, 3906.148
542.1418, 3878.690
542.6240, 3865.622
543.1061, 3882.346
543.5882, 3903.619
544.0703, 3908.746
544.5524, 3902.083
545.0345, 3896.131
545.5167, 3899.274
545.9988, 3902.160
546.4809, 3897.508
546.9630, 3882.481
547.4451, 3875.842
547.9272, 3882.745
548.4094, 3897.679
548.8915, 3917.811
549.3736, 3955.928
549.8557, 3974.473
550.3378, 3962.470
550.8199, 3934.407
551.3021, 3924.565
551.7842, 3937.524
552.2663, 3946.720
552.7484, 3938.765
553.2305, 3918.412
553.7126, 3910.769
554.1948, 3916.390
554.6769, 3924.244
555.1590, 3919.089
555.6411, 3910.373
556.1232, 3921.691
556.6053, 3962.759
557.0875, 4003.043
557.5696, 4013.435
558.0517, 4005.036
558.5338, 3997.363
559.0159, 4000.514
559.4980, 4003.499
559.9802, 3999.327
560.4623, 3989.343
560.9444, 3984.424
561.4265, 3991.832
561.9086, 4000.513
562.3907, 4004.822
562.8729, 4002.455
563.3550, 4003.340
563.8371, 4009.368
564.3192, 4016.597
564.8013, 4019.667
565.2834, 4017.005
565.7656, 4019.280
566.2477, 4030.168
566.7298, 4045.321
567.2119, 4056.947
567.6940, 4064.895
568.1761, 4066.399
568.6583, 4052.007
569.1404, 4032.882
569.6225, 4031.865
570.1046, 4049.296
570.5867, 4066.017
571.0688, 4062.761
571.5510, 4053.860
572.0331, 4035.165
572.5152, 4062.382
572.9973, 4079.856
573.4794, 4088.110
573.9615, 4059.535
574.4437, 4078.520
574.9258, 4078.443
575.4079, 4077.586
575.8900, 4103.263
576.3721, 4080.044
576.8542, 4105.300
577.3364, 4111.208
577.8185, 4125.970
578.3006, 4121.555
578.7827, 4123.062
579.2648, 4143.754
579.7469, 4153.823
580.2291, 4147.202
580.7112, 4162.526
581.1933, 4138.638
581.6754, 4160.114
582.1575, 4197.380
582.6396, 4234.218
583.1218, 4230.094
583.6039, 4198.291
584.0860, 4176.350
584.5681, 4190.452
585.0502, 4214.039
585.5323, 4231.594
586.0145, 4242.014
586.4966, 4251.072
586.9787, 4263.380
587.4608, 4272.611
587.9429, 4273.760
588.4250, 4257.563
588.9072, 4251.371
589.3893, 4256.951
589.8714, 4271.108
590.3535, 4292.780
590.8356, 4325.695
591.3177, 4346.869
591.7999, 4347.081
592.2820, 4334.895
592.7641, 4334.899
593.2462, 4346.578
593.7283, 4357.623
594.2104, 4362.442
594.6926, 4361.263
595.1747, 4348.382
595.6568, 4323.516
596.1389, 4310.083
596.6210, 4340.320
597.1031, 4383.058
597.5853, 4403.945
598.0674, 4377.831
598.5495, 4362.335
599.0316, 4389.933
599.5137, 4435.242
599.9958, 4454.606
600.4780, 4419.678
600.9601, 4392.340
601.4423, 4382.584
601.9244, 4389.271
602.4065, 4409.120
602.8886, 4448.455
603.3707, 4481.578
603.8528, 4490.264
604.3350, 4477.272
604.8171, 4475.130
605.2992, 4485.334
605.7813, 4496.955
606.2634, 4496.955
606.7455, 4491.046
607.2277, 4491.589
607.7098, 4503.104
608.1919, 4517.485
608.6740, 4527.712
609.1561, 4536.456
609.6382, 4548.102
610.1204, 4567.278
610.6025, 4586.773
611.0846, 4603.782
611.5667, 4618.684
612.0488, 4634.769
612.5309, 4662.161
613.0131, 4678.986
613.4952, 4670.402
613.9773, 4629.541
614.4594, 4618.434
614.9415, 4644.410
615.4236, 4680.941
615.9058, 4702.109
616.3879, 4709.298
616.8700, 4715.583
617.3521, 4723.129
617.8342, 4730.223
618.3163, 4730.924
618.7985, 4729.261
619.2806, 4735.128
619.7627, 4761.813
620.2448, 4790.004
620.7269, 4804.489
621.2090, 4808.087
621.6912, 4814.534
622.1733, 4835.188
622.6554, 4853.830
623.1375, 4858.792
623.6196, 4843.304
624.1017, 4849.627
624.5839, 4894.258
625.0660, 4941.424
625.5481, 4960.629
626.0302, 4945.097
626.5123, 4943.788
626.9944, 4963.790
627.4766, 4991.865
627.9587, 5007.705
628.4408, 5013.286
628.9229, 5019.807
629.4050, 5030.275
629.8871, 5044.382
630.3693, 5063.169
630.8514, 5085.561
631.3335, 5107.972
631.8156, 5131.258
632.2977, 5151.977
632.7798, 5164.493
633.2620, 5168.187
633.7441, 5179.908
634.2262, 5212.548
634.7083, 5246.780
635.1904, 5270.499
635.6725, 5276.967
636.1547, 5292.491
636.6368, 5322.591
637.1189, 5353.479
637.6010, 5364.067
638.0831, 5353.881
638.5652, 5353.693
639.0474, 5369.500
639.5295, 5399.034
640.0116, 5449.142
640.4937, 5511.827
640.9758, 5559.740
641.4579, 5559.751
641.9401, 5553.172
642.4222, 5578.171
642.9043, 5630.965
643.3864, 5680.227
643.8685, 5719.792
644.3506, 5747.847
644.8328, 5759.204
645.3149, 5743.231
645.7970, 5750.479
646.2791, 5793.420
646.7612, 5846.159
647.2433, 5885.471
647.7255, 5907.709
648.2076, 5940.097
648.6897, 5987.983
649.1718, 6039.083
649.6539, 6068.448
650.1360, 6081.418
650.6182, 6105.145
651.1003, 6152.177
651.5824, 6210.244
652.0645, 6271.092
652.5466, 6331.106
653.0287, 6378.369
653.5109, 6391.409
653.9930, 6404.548
654.4751, 6441.049
654.9572, 6501.918
655.4393, 6550.723
655.9214, 6566.545
656.4036, 6583.269
656.8857, 6616.769
657.3678, 6669.518
657.8499, 6728.087
658.3320, 6793.554
658.8141, 6861.825
659.2963, 6933.532
659.7784, 7007.132
660.2605, 7059.472
660.7426, 7079.864
661.2247, 7099.425
661.7068, 7165.570
662.1890, 7260.167
662.6711, 7343.572
663.1532, 7384.548
663.6353, 7423.661
664.1174, 7487.009
664.5995, 7567.599
665.0817, 7642.491
665.5638, 7693.624
666.0459, 7751.347
666.5280, 7830.177
667.0101, 7930.032
667.4922, 8012.404
667.9744, 8072.021
668.4565, 8124.457
668.9386, 8172.616
669.4207, 8217.942
669.9028, 8293.277
670.3849, 8402.556
670.8671, 8521.258
671.3492, 8629.521
671.8313, 8726.116
672.3134, 8805.088
672.7955, 8861.328
673.2776, 8910.647
673.7598, 8943.726
674.2419, 8982.664
674.7240, 9058.999
675.2061, 9236.392
675.6882, 9388.872
676.1703, 9477.817
676.6525, 9524.964
677.1346, 9584.217
677.6167, 9655.264
678.0988, 9738.100
678.5809, 9835.689
679.0630, 9945.016
679.5452, 10052.49
680.0273, 10157.64
680.5094, 10264.57
680.9915, 10383.48
681.4736, 10502.62
681.9557, 10590.51
682.4379, 10645.90
682.9200, 10713.31
683.4021, 10841.29
683.8842, 10982.35
684.3663, 11096.15
684.8484, 11163.54
685.3306, 11229.37
685.8127, 11292.60
686.2948, 11362.77
686.7769, 11453.40
687.2590, 11578.85
687.7411, 11681.24
688.2233, 11744.74
688.7054, 11794.62
689.1875, 11886.26
689.6696, 12014.59
690.1517, 12124.24
690.6339, 12182.07
691.1160, 12221.89
691.5981, 12291.20
692.0802, 12382.80
692.5623, 12470.21
693.0444, 12532.44
693.5266, 12593.16
694.0087, 12669.15
694.4908, 12760.36
694.9729, 12842.59
695.4550, 12909.36
695.9371, 12969.31
696.4193, 13024.10
696.9014, 13072.23
697.3835, 13128.80
697.8656, 13197.80
698.3477, 13263.44
698.8298, 13305.16
699.3120, 13329.19
699.7941, 13364.91
700.2762, 13416.84
700.7583, 13474.30
701.2404, 13534.35
701.7225, 13590.92
702.2047, 13634.40
702.6868, 13653.32
703.1689, 13671.58
703.6510, 13702.82
704.1331, 13738.28
704.6152, 13761.73
705.0974, 13759.61
705.5795, 13764.50
706.0616, 13781.02
706.5437, 13808.11
707.0258, 13850.00
707.5079, 13910.54
707.9901, 13950.98
708.4722, 13941.32
708.9543, 13907.71
709.4364, 13922.05
709.9185, 13976.18
710.4006, 14012.51
710.8828, 13967.24
711.3649, 13908.91
711.8470, 13899.30
712.3291, 13943.40
712.8112, 13986.40
713.2933, 14019.16
713.7755, 14039.82
714.2576, 14045.79
714.7397, 14032.60
715.2218, 14021.95
715.7039, 14014.30
716.1860, 14008.51
716.6682, 13997.97
717.1503, 13984.70
717.6324, 13999.50
718.1145, 14051.68
718.5966, 14107.93
719.0787, 14126.51
719.5609, 14124.26
720.0430, 14132.99
720.5251, 14177.54
721.0072, 14210.98
721.4893, 14190.76
721.9714, 14147.86
722.4536, 14137.62
722.9357, 14194.67
723.4178, 14249.68
723.8999, 14297.21
724.3820, 14334.28
724.8641, 14347.10
725.3463, 14331.17
725.8284, 14320.63
726.3105, 14324.94
726.7926, 14345.62
727.2747, 14394.11
727.7568, 14466.03
728.2390, 14535.01
728.7211, 14584.53
729.2032, 14625.91
729.6853, 14668.11
730.1674, 14711.66
730.6495, 14751.30
731.1317, 14763.18
731.6138, 14791.82
732.0959, 14867.33
732.5780, 15003.34
733.0601, 15095.94
733.5422, 15131.21
734.0244, 15155.17
734.5065, 15206.81
734.9886, 15281.73
735.4707, 15350.39
735.9528, 15410.16
736.4349, 15466.48
736.9171, 15515.22
737.3992, 15566.69
737.8813, 15637.10
738.3634, 15738.91
738.8455, 15838.19
739.3276, 15930.55
739.8098, 16009.50
740.2919, 16065.28
740.7740, 16084.55
741.2561, 16104.81
741.7382, 16126.14
742.2203, 16152.61
742.7025, 16201.62
743.1846, 16273.28
743.6667, 16312.24
744.1488, 16291.85
744.6309, 16248.17
745.1130, 16230.18
745.5952, 16232.20
746.0773, 16238.88
746.5594, 16249.16
747.0415, 16256.27
747.5236, 16261.93
748.0057, 16262.71
748.4879, 16243.23
748.9700, 16159.37
749.4521, 16111.34
749.9342, 16136.93
750.4163, 16224.99
750.8984, 16288.65
751.3806, 16326.44
751.8627, 16354.77
752.3448, 16381.18
752.8269, 16405.83
753.3090, 16430.51
753.7911, 16455.00
754.2733, 16474.53
754.7554, 16487.05
755.2375, 16492.89
755.7196, 16495.14
756.2017, 16495.72
756.6838, 16477.19
757.1660, 16424.88
757.6481, 16363.46
758.1302, 16303.08
758.6123, 16242.89
759.0944, 16194.74
759.5765, 16164.07
760.0587, 16127.21
760.5408, 16056.52
761.0229, 15960.84
761.5050, 15867.35
761.9871, 15779.02
762.4692, 15690.79
762.9514, 15599.29
763.4335, 15505.04
763.9156, 15407.48
764.3977, 15298.18
764.8798, 15201.56
765.3619, 15144.30
765.8441, 15087.70
766.3262, 14984.90
766.8083, 14816.25
767.2904, 14675.56
767.7725, 14576.17
768.2546, 14503.13
768.7368, 14443.96
769.2189, 14392.38
769.7010, 14320.63
770.1831, 14210.82
770.6652, 14097.09
771.1473, 14011.79
771.6295, 13943.46
772.1116, 13870.19
772.5937, 13786.05
773.0758, 13695.44
773.5579, 13594.98
774.0400, 13489.77
774.5222, 13392.25
775.0043, 13306.37
775.4864, 13213.05
775.9685, 13105.24
776.4506, 12989.95
776.9327, 12879.73
777.4149, 12774.66
777.8970, 12675.15
778.3791, 12580.46
778.8612, 12491.85
779.3433, 12418.68
779.8254, 12355.04
780.3076, 12277.89
780.7897, 12166.91
781.2718, 12055.38
781.7539, 11957.08
782.2360, 11868.73
782.7181, 11767.16
783.2003, 11646.23
783.6824, 11533.19
784.1645, 11443.98
784.6466, 11369.27
785.1287, 11280.48
785.6108, 11178.81
786.0930, 11076.20
786.5751, 10974.98
787.0572, 10881.14
787.5393, 10809.00
788.0214, 10757.05
788.5035, 10682.79
788.9857, 10562.02
789.4678, 10429.70
789.9499, 10295.30
790.4320, 10156.13
790.9141, 10051.36
791.3962, 9986.653
791.8784, 9922.150
792.3605, 9824.497
792.8426, 9705.670
793.3247, 9592.396
793.8068, 9486.401
794.2889, 9388.877
794.7711, 9302.454
795.2532, 9223.914
795.7353, 9152.142
796.2174, 9089.750
796.6995, 9020.986
797.1816, 8937.789
797.6638, 8853.686
798.1459, 8775.119
798.6280, 8702.745
799.1101, 8638.744
799.5922, 8584.035
800.0743, 8534.382
800.5565, 8489.619
801.0386, 8446.061
801.5207, 8394.913
802.0028, 8333.736
802.4849, 8277.763
802.9670, 8247.491
803.4492, 8218.420
803.9313, 8168.407
804.4134, 8077.891
804.8955, 8006.194
805.3776, 7958.338
805.8597, 7922.999
806.3419, 7894.920
806.8240, 7873.795
807.3061, 7837.896
807.7882, 7782.694
808.2703, 7732.791
808.7524, 7720.522
809.2346, 7727.543
809.7167, 7728.957
810.1988, 7723.230
810.6809, 7698.946
811.1630, 7624.301
811.6451, 7544.849
812.1273, 7505.271
812.6094, 7532.149
813.0915, 7539.759
813.5736, 7522.603
814.0557, 7494.474
814.5378, 7467.178
815.0200, 7441.682
815.5021, 7423.805
815.9842, 7414.168
816.4663, 7413.680
816.9484, 7435.141
817.4305, 7461.074
817.9127, 7468.852
818.3948, 7441.308
818.8769, 7419.573
819.3590, 7413.435
819.8411, 7415.864
820.3232, 7422.506
820.8054, 7435.591
821.2875, 7440.926
821.7696, 7434.678
822.2517, 7428.569
822.7338, 7444.616
823.2159, 7471.957
823.6981, 7479.225
824.1802, 7452.551
824.6623, 7428.866
825.1444, 7444.050
825.6265, 7470.639
826.1086, 7478.411
826.5908, 7424.845
827.0729, 7409.603
827.5550, 7453.677
828.0371, 7513.431
828.5192, 7532.725
829.0013, 7511.594
829.4835, 7501.755
829.9656, 7512.353
830.4477, 7525.832
830.9298, 7524.916
831.4119, 7512.616
831.8940, 7492.319
832.3762, 7460.408
832.8583, 7431.288
833.3404, 7412.004
833.8225, 7397.220
834.3046, 7381.060
834.7867, 7363.979
835.2689, 7343.402
835.7510, 7317.052
836.2331, 7292.171
836.7152, 7285.422
837.1973, 7289.228
837.6794, 7274.586
838.1616, 7234.027
838.6437, 7185.564
839.1258, 7140.971
839.6079, 7098.056
840.0900, 7054.222
840.5721, 7009.075
841.0543, 6962.920
841.5364, 6908.809
842.0185, 6861.090
842.5006, 6838.830
842.9827, 6844.539
843.4648, 6834.367
843.9470, 6802.883
844.4291, 6762.030
844.9112, 6721.738
845.3933, 6681.487
845.8754, 6640.079
846.3575, 6596.456
846.8397, 6554.364
847.3218, 6512.666
847.8039, 6474.478
848.2860, 6442.782
848.7681, 6418.494
849.2502, 6399.352
849.7324, 6389.032
850.2145, 6374.635
850.6966, 6335.499
851.1787, 6280.528
851.6608, 6243.444
852.1429, 6228.728
852.6251, 6220.328
853.1072, 6217.101
853.5893, 6207.636
854.0714, 6178.858
854.5535, 6120.187
855.0356, 6068.958
855.5178, 6023.429
855.9999, 5990.378
856.4820, 5982.204
856.9641, 5999.688
857.4462, 5986.583
857.9283, 5939.716
858.4105, 5886.194
858.8926, 5841.920
859.3747, 5809.515
859.8568, 5796.001
860.3389, 5803.720
860.8210, 5804.760
861.3032, 5789.614
861.7853, 5763.469
862.2674, 5723.626
862.7495, 5665.956
863.2316, 5644.023
863.7137, 5664.340
864.1959, 5691.424
864.6780, 5705.167
865.1601, 5705.376
865.6422, 5684.556
866.1243, 5644.805
866.6064, 5611.765
867.0886, 5608.976
867.5707, 5612.267
868.0528, 5604.740
868.5349, 5584.592
869.0170, 5575.444
869.4991, 5581.353
869.9813, 5590.242
870.4634, 5595.994
870.9455, 5600.170
871.4276, 5612.347
871.9097, 5631.624
872.3918, 5648.906
872.8740, 5651.774
873.3561, 5655.698
873.8382, 5681.793
874.3203, 5724.164
874.8024, 5747.873
875.2845, 5723.191
875.7667, 5705.295
876.2488, 5708.727
876.7309, 5729.261
877.2130, 5753.158
877.6951, 5780.611
878.1772, 5797.258
878.6594, 5787.197
879.1415, 5773.054
879.6236, 5787.892
880.1057, 5822.812
880.5878, 5854.889
881.0699, 5881.950
881.5521, 5897.193
882.0342, 5896.417
882.5163, 5883.205
882.9984, 5863.458
883.4805, 5837.200
883.9626, 5803.286
884.4448, 5759.022
884.9269, 5711.702
885.4090, 5672.162
885.8911, 5638.270
886.3732, 5603.548
886.8553, 5560.222
887.3375, 5524.778
887.8196, 5518.219
888.3017, 5518.641
888.7838, 5493.083
889.2659, 5422.939
889.7480, 5375.362
890.2302, 5361.250
890.7123, 5355.563
891.1944, 5319.267
891.6765, 5263.869
892.1586, 5226.786
892.6407, 5217.297
893.1229, 5213.978
893.6050, 5212.381
894.0871, 5203.304
894.5692, 5174.895
895.0513, 5107.014
895.5334, 5067.254
896.0156, 5062.604
896.4977, 5073.113
896.9798, 5091.418
897.4619, 5113.006
897.9440, 5105.862
898.4261, 5068.393
898.9083, 5027.090
899.3904, 5000.395
899.8725, 4981.009
900.3546, 4963.652
900.8367, 4947.584
901.3188, 4932.749
901.8010, 4914.707
902.2831, 4904.024
902.7652, 4907.565
903.2473, 4923.343
903.7294, 4938.933
904.2115, 4953.921
904.6937, 4957.616
905.1758, 4938.676
905.6579, 4908.878
906.1400, 4869.282
906.6221, 4826.432
907.1042, 4807.548
907.5864, 4853.264
908.0685, 4883.820
908.5506, 4874.706
909.0327, 4839.866
909.5148, 4821.881
909.9969, 4820.732
910.4791, 4818.785
910.9612, 4809.278
911.4433, 4797.390
911.9254, 4790.419
912.4075, 4785.774
912.8896, 4778.369
913.3718, 4759.709
913.8539, 4747.205
914.3360, 4748.517
914.8181, 4753.929
915.3002, 4751.497
915.7823, 4741.001
916.2645, 4722.125
916.7466, 4692.289
917.2287, 4665.258
917.7108, 4659.277
918.1929, 4665.320
918.6750, 4670.500
919.1572, 4672.358
919.6393, 4672.770
920.1214, 4665.828
920.6035, 4663.225
921.0856, 4676.099
921.5677, 4708.835
922.0499, 4719.126
922.5320, 4703.807
923.0141, 4689.716
923.4962, 4706.035
923.9783, 4733.980
924.4604, 4742.640
924.9426, 4732.210
925.4247, 4728.688
925.9068, 4755.548
926.3889, 4778.161
926.8710, 4777.908
927.3531, 4759.072
927.8353, 4755.026
928.3174, 4767.045
928.7995, 4781.892
929.2816, 4794.929
929.7637, 4806.159
930.2459, 4811.061
930.7280, 4814.195
931.2101, 4827.840
931.6923, 4872.576
932.1744, 4910.233
932.6565, 4922.982
933.1386, 4924.754
933.6207, 4939.889
934.1028, 4971.099
934.5850, 4994.823
935.0671, 5004.910
935.5492, 5011.229
936.0313, 5028.340
936.5134, 5049.649
936.9955, 5062.709
937.4777, 5059.163
937.9598, 5063.124
938.4419, 5089.439
938.9240, 5121.244
939.4061, 5145.594
939.8882, 5159.576
940.3704, 5186.962
940.8525, 5231.058
941.3346, 5265.926
941.8167, 5256.283
942.2988, 5231.068
942.7809, 5232.912
943.2631, 5263.147
943.7452, 5296.021
944.2273, 5331.203
944.7094, 5356.357
945.1915, 5364.111
945.6736, 5357.702
946.1558, 5358.317
946.6379, 5366.286
947.1200, 5375.371
947.6021, 5383.154
948.0842, 5390.354
948.5663, 5405.986
949.0485, 5421.179
949.5306, 5415.922
950.0127, 5348.724
950.4948, 5305.870
950.9769, 5318.165
951.4590, 5350.500
951.9412, 5351.244
952.4233, 5319.586
952.9054, 5289.667
953.3875, 5266.468
953.8696, 5245.371
954.3517, 5221.668
954.8339, 5196.796
955.3160, 5171.610
955.7981, 5144.809
956.2802, 5124.367
956.7623, 5120.182
957.2444, 5112.300
957.7266, 5085.036
958.2087, 5039.892
958.6908, 5016.387
959.1729, 5014.120
959.6550, 5009.147
960.1371, 4979.611
960.6193, 4944.053
961.1014, 4922.563
961.5835, 4912.145
962.0656, 4893.370
962.5477, 4853.615
963.0298, 4819.080
963.5120, 4795.834
963.9941, 4780.327
964.4762, 4766.731
964.9583, 4754.011
965.4404, 4736.455
965.9225, 4710.635
966.4047, 4682.672
966.8868, 4653.529
967.3689, 4626.388
967.8510, 4606.049
968.3331, 4599.365
968.8152, 4587.323
969.2974, 4568.904
969.7795, 4546.965
970.2616, 4522.332
970.7437, 4496.171
971.2258, 4473.802
971.7079, 4455.205
972.1901, 4433.943
972.6722, 4397.405
973.1543, 4364.024
973.6364, 4349.542
974.1185, 4352.785
974.6006, 4348.402
975.0828, 4335.950
975.5649, 4317.368
976.0470, 4292.211
976.5291, 4262.806
977.0112, 4229.624
977.4933, 4195.471
977.9755, 4168.937
978.4576, 4160.367
978.9397, 4151.843
979.4218, 4136.814
979.9039, 4118.481
980.3860, 4099.863
980.8682, 4079.553
981.3503, 4069.784
981.8324, 4074.198
982.3145, 4076.383
982.7966, 4048.640
983.2787, 4012.119
983.7609, 4002.786
984.2430, 4028.075
984.7251, 4043.167
985.2072, 4025.405
985.6893, 4003.516
986.1714, 3987.916
986.6536, 3978.500
987.1357, 3976.421
987.6178, 3981.372
988.0999, 3985.012
988.5820, 3982.582
989.0641, 3977.125
989.5463, 3972.111
990.0284, 3966.258
990.5105, 3956.578
990.9926, 3941.064
991.4747, 3923.490
991.9568, 3903.311
992.4390, 3882.286
992.9211, 3866.927
993.4032, 3853.703
993.8853, 3825.691
994.3674, 3778.230
994.8495, 3729.754
995.3317, 3682.857
995.8138, 3646.313
996.2959, 3633.229
996.7780, 3647.622
997.2601, 3643.374
997.7422, 3617.981
998.2244, 3582.411
998.7065, 3538.406
999.1886, 3490.352
999.6707, 3443.290
1000.153, 3399.287
1000.635, 3366.994
1001.117, 3362.698
1001.599, 3355.456
1002.081, 3333.162
1002.563, 3302.988
1003.046, 3273.822
1003.528, 3244.970
1004.010, 3224.136
1004.492, 3212.437
1004.974, 3208.249
1005.456, 3218.018
1005.938, 3229.779
1006.420, 3227.361
1006.902, 3205.152
1007.385, 3187.551
1007.867, 3179.893
1008.349, 3173.092
1008.831, 3161.814
1009.313, 3147.513
1009.795, 3139.865
1010.277, 3137.698
1010.759, 3132.696
1011.242, 3114.399
1011.724, 3097.892
1012.206, 3094.993
1012.688, 3100.165
1013.170, 3100.019
1013.652, 3090.375
1014.134, 3087.418
1014.616, 3094.036
1015.098, 3104.820
1015.581, 3115.245
1016.063, 3124.065
1016.545, 3129.294
1017.027, 3130.775
1017.509, 3127.122
1017.991, 3110.558
1018.473, 3096.031
1018.955, 3092.521
1019.438, 3098.503
1019.920, 3097.752
1020.402, 3090.265
1020.884, 3081.959
1021.366, 3074.265
1021.848, 3068.927
1022.330, 3067.848
1022.812, 3070.446
1023.294, 3075.986
1023.777, 3095.807
1024.259, 3096.982
1024.741, 3069.091
1025.223, 3037.163
1025.705, 3034.987
1026.187, 3053.440
1026.669, 3062.201
1027.151, 3057.750
1027.633, 3050.792
1028.116, 3048.199
1028.598, 3044.442
1029.080, 3033.485
1029.562, 3017.093
1030.044, 3011.332
1030.526, 3017.300
1031.008, 3025.023
1031.490, 3031.202
1031.973, 3036.296
1032.455, 3042.808
1032.937, 3048.277
1033.419, 3048.276
1033.901, 3040.365
1034.383, 3027.435
1034.865, 3004.293
1035.347, 2984.074
1035.829, 2981.079
1036.312, 2992.662
1036.794, 3003.599
1037.276, 3012.931
1037.758, 3019.182
1038.240, 3015.915
1038.722, 3014.071
1039.204, 3024.945
1039.686, 3044.670
1040.168, 3052.061
1040.651, 3045.982
1041.133, 3031.179
1041.615, 3004.685
1042.097, 2979.342
1042.579, 2980.395
1043.061, 2993.774
1043.543, 2992.429
1044.025, 2956.934
1044.508, 2943.224
1044.990, 2980.958
1045.472, 3018.584
1045.954, 3019.719
1046.436, 2988.008
1046.918, 2963.134
1047.400, 2945.872
1047.882, 2941.517
1048.365, 2967.969
1048.847, 2994.382
1049.329, 2996.179
1049.811, 2982.826
1050.293, 2984.286
1050.775, 3009.568
1051.257, 3016.413
1051.739, 2994.582
1052.221, 2967.002
1052.703, 2962.968
1053.186, 2971.835
1053.668, 2977.499
1054.150, 2977.269
1054.632, 2975.971
1055.114, 2972.109
1055.596, 2970.943
1056.078, 2975.126
1056.560, 2983.684
1057.043, 2995.595
1057.525, 3009.220
1058.007, 3013.397
1058.489, 2998.340
1058.971, 2979.455
1059.453, 2961.884
1059.935, 2948.374
1060.417, 2943.104
1060.900, 2948.682
1061.382, 2954.444
1061.864, 2961.406
1062.346, 2961.387
1062.828, 2936.898
1063.310, 2906.922
1063.792, 2899.663
1064.274, 2914.080
1064.756, 2928.036
1065.239, 2935.159
1065.721, 2941.701
1066.203, 2951.405
1066.685, 2958.715
1067.167, 2946.090
1067.649, 2919.845
1068.131, 2907.182
1068.613, 2916.378
1069.095, 2932.495
1069.578, 2957.153
1070.060, 2975.939
1070.542, 2973.317
1071.024, 2947.463
1071.506, 2945.391
1071.988, 2969.058
1072.470, 2990.141
1072.952, 2989.232
1073.435, 2980.123
1073.917, 2980.805
1074.399, 2984.817
1074.881, 2977.171
1075.363, 2941.021
1075.845, 2917.011
1076.327, 2910.863
1076.809, 2911.011
1077.292, 2901.500
1077.774, 2888.771
1078.256, 2892.779
1078.738, 2914.391
1079.220, 2932.340
1079.702, 2934.915
1080.184, 2932.579
1080.666, 2927.064
1081.148, 2921.256
1081.630, 2928.372
1082.113, 2947.148
1082.595, 2951.388
1083.077, 2927.865
1083.559, 2905.926
1084.041, 2911.899
1084.523, 2932.173
1085.005, 2955.394
1085.487, 2983.903
1085.970, 2994.621
1086.452, 2984.733
1086.934, 2969.471
1087.416, 2957.901
1087.898, 2946.921
1088.380, 2925.463
1088.862, 2900.174
1089.344, 2888.674
1089.827, 2908.639
1090.309, 2927.311
1090.791, 2943.841
1091.273, 2953.581
1091.755, 2946.271
1092.237, 2927.153
1092.719, 2918.089
1093.201, 2920.474
1093.683, 2922.268
1094.166, 2913.632
1094.648, 2905.328
1095.130, 2900.282
1095.612, 2900.308
1096.094, 2917.799
1096.576, 2953.137
1097.058, 2965.805
1097.540, 2939.442
1098.023, 2908.012
1098.505, 2906.612
1098.987, 2917.202
1099.469, 2919.741
1099.951, 2909.293
1100.433, 2907.743
1100.915, 2918.532
1101.397, 2925.141
1101.880, 2912.707
1102.362, 2895.772
1102.844, 2904.259
1103.326, 2928.224
1103.808, 2945.131
1104.290, 2942.208
1104.772, 2938.254
1105.254, 2933.465
1105.736, 2930.826
1106.219, 2938.703
1106.701, 2951.612
1107.183, 2941.212
1107.665, 2908.895
1108.147, 2883.649
1108.629, 2885.584
1109.111, 2893.627
1109.593, 2900.478
1110.075, 2905.911
1110.558, 2910.678
1111.040, 2914.691
1111.522, 2912.109
1112.004, 2900.111
1112.486, 2892.587
1112.968, 2906.834
1113.450, 2927.303
1113.932, 2942.542
1114.415, 2951.607
1114.897, 2944.563
1115.379, 2917.430
1115.861, 2895.240
1116.343, 2889.473
1116.825, 2890.668
1117.307, 2887.154
1117.789, 2881.029
1118.271, 2874.854
1118.754, 2863.548
1119.236, 2867.430
1119.718, 2893.760
1120.200, 2920.618
1120.682, 2933.612
1121.164, 2935.081
1121.646, 2929.367
1122.128, 2917.663
1122.610, 2904.411
1123.093, 2881.738
1123.575, 2871.623
1124.057, 2883.863
1124.539, 2903.960
1125.021, 2915.740
1125.503, 2919.387
1125.985, 2911.930
1126.467, 2893.552
1126.950, 2880.105
1127.432, 2881.809
1127.914, 2891.555
1128.396, 2912.698
1128.878, 2936.985
1129.360, 2938.695
1129.842, 2917.445
1130.324, 2900.587
1130.807, 2894.021
1131.289, 2893.685
1131.771, 2905.833
1132.253, 2915.351
1132.735, 2899.576
1133.217, 2855.485
1133.699, 2851.924
1134.181, 2898.089
1134.663, 2933.355
1135.146, 2926.558
1135.628, 2904.311
1136.110, 2898.085
1136.592, 2902.306
1137.074, 2908.785
1137.556, 2921.318
1138.038, 2920.958
1138.520, 2900.548
1139.002, 2885.000
1139.485, 2901.784
1139.967, 2931.771
1140.449, 2926.272
1140.931, 2896.901
1141.413, 2881.872
1141.895, 2914.541
1142.377, 2936.265
1142.859, 2937.798
1143.342, 2927.515
1143.824, 2907.688
1144.306, 2884.058
1144.788, 2882.384
1145.270, 2902.328
1145.752, 2920.104
1146.234, 2922.695
1146.716, 2921.128
1147.198, 2920.880
1147.681, 2918.725
1148.163, 2902.551
1148.645, 2875.619
1149.127, 2867.288
1149.609, 2884.397
1150.091, 2904.726
1150.573, 2914.640
1151.055, 2920.979
1151.537, 2929.740
1152.020, 2939.349
1152.502, 2937.769
1152.984, 2925.029
1153.466, 2916.468
1153.948, 2918.969
1154.430, 2922.337
1154.912, 2918.295
1155.394, 2910.094
1155.877, 2898.588
1156.359, 2882.386
1156.841, 2882.964
1157.323, 2902.348
1157.805, 2919.866
1158.287, 2921.779
1158.769, 2919.441
1159.251, 2929.213
1159.734, 2942.289
1160.216, 2942.562
1160.698, 2919.533
1161.180, 2903.824
1161.662, 2896.145
1162.144, 2893.576
1162.626, 2898.888
1163.108, 2904.757
1163.590, 2896.955
1164.073, 2880.162
1164.555, 2870.377
1165.037, 2875.997
1165.519, 2880.445
1166.001, 2882.503
1166.483, 2882.600
1166.965, 2879.604
1167.447, 2875.611
1167.929, 2873.820
1168.412, 2874.644
1168.894, 2879.560
1169.376, 2894.450
1169.858, 2905.576
1170.340, 2910.214
1170.822, 2910.075
1171.304, 2906.001
1171.786, 2899.750
1172.269, 2896.950
1172.751, 2898.737
1173.233, 2897.112
1173.715, 2877.501
1174.197, 2869.213
1174.679, 2887.018
1175.161, 2918.219
1175.643, 2930.966
1176.125, 2928.973
1176.608, 2924.744
1177.090, 2921.152
1177.572, 2916.885
1178.054, 2910.528
1178.536, 2904.156
1179.018, 2897.756
1179.500, 2892.357
1179.982, 2894.532
1180.464, 2902.775
1180.947, 2909.739
1181.429, 2912.955
1181.911, 2913.723
1182.393, 2910.503
1182.875, 2906.913
1183.357, 2906.942
1183.839, 2910.135
1184.321, 2903.991
1184.804, 2889.953
1185.286, 2879.563
1185.768, 2879.086
1186.250, 2884.207
1186.732, 2900.049
1187.214, 2915.530
1187.696, 2915.742
1188.178, 2899.929
1188.661, 2897.394
1189.143, 2908.440
1189.625, 2916.067
1190.107, 2904.910
1190.589, 2890.856
1191.071, 2881.889
1191.553, 2877.615
1192.035, 2877.369
1192.517, 2881.279
1193.000, 2887.987
1193.482, 2897.584
1193.964, 2904.336
1194.446, 2903.777
1194.928, 2898.607
1195.410, 2883.832
1195.892, 2867.056
1196.374, 2871.773
1196.856, 2899.847
1197.339, 2920.966
1197.821, 2929.922
1198.303, 2932.331
1198.785, 2926.267
1199.267, 2921.283
1199.749, 2931.779
1200.231, 2952.080
1200.713, 2944.556
1201.196, 2906.077
1201.678, 2884.166
1202.160, 2894.150
1202.642, 2909.746
1203.124, 2904.471
1203.606, 2894.268
1204.088, 2895.992
1204.570, 2909.454
1205.052, 2916.406
1205.535, 2916.395
1206.017, 2914.204
1206.499, 2910.277
1206.981, 2907.890
1207.463, 2913.135
1207.945, 2919.968
1208.427, 2920.623
1208.909, 2914.359
1209.391, 2911.996
1209.874, 2913.818
1210.356, 2914.973
1210.838, 2912.331
1211.320, 2909.768
1211.802, 2908.904
1212.284, 2911.584
1212.766, 2923.027
1213.248, 2947.161
1213.731, 2951.347
1214.213, 2934.020
1214.695, 2917.342
1215.177, 2914.823
1215.659, 2917.790
1216.141, 2921.661
1216.623, 2924.203
1217.105, 2921.081
1217.588, 2909.028
1218.070, 2904.324
1218.552, 2907.122
1219.034, 2915.435
1219.516, 2936.803
1219.998, 2954.662
1220.480, 2950.059
1220.962, 2932.795
1221.444, 2921.772
1221.927, 2917.616
1222.409, 2921.189
1222.891, 2933.197
1223.373, 2943.493
1223.855, 2942.588
1224.337, 2938.604
1224.819, 2938.530
1225.301, 2940.345
1225.783, 2938.116
1226.266, 2930.628
1226.748, 2926.755
1227.230, 2927.190
1227.712, 2932.080
1228.194, 2947.820
1228.676, 2962.269
1229.158, 2963.635
1229.640, 2956.173
1230.123, 2954.128
1230.605, 2958.392
1231.087, 2956.964
1231.569, 2947.649
1232.051, 2942.508
1232.533, 2965.175
1233.015, 2983.488
1233.497, 2961.695
1233.979, 2916.921
1234.462, 2902.844
1234.944, 2920.481
1235.426, 2933.279
1235.908, 2934.908
1236.390, 2936.160
1236.872, 2952.683
1237.354, 2965.451
1237.836, 2953.321
1238.318, 2927.600
1238.801, 2923.699
1239.283, 2940.620
1239.765, 2952.629
1240.247, 2954.116
1240.729, 2953.163
1241.211, 2950.755
1241.693, 2953.142
1242.175, 2968.771
1242.658, 2990.896
1243.140, 2994.874
1243.622, 2982.384
1244.104, 2964.677
1244.586, 2946.252
1245.068, 2971.280
1245.550, 2986.565
1246.032, 2992.630
1246.515, 2961.871
1246.997, 2978.665
1247.479, 2976.400
1247.961, 2973.354
1248.443, 2996.842
1248.925, 2971.434
1249.407, 2994.501
1249.889, 2998.218
1250.371, 3010.791
1250.854, 3004.193
1251.336, 3003.512
1251.818, 3022.015
1252.300, 3029.896
1252.782, 3021.083
1253.264, 3034.220
1253.746, 3008.142
1254.228, 2986.828
1254.710, 2979.610
1255.193, 2983.434
1255.675, 2991.768
1256.157, 2978.799
1256.639, 2955.093
1257.121, 2949.978
1257.603, 2983.339
1258.085, 3002.337
1258.567, 2990.786
1259.050, 2978.330
1259.532, 2983.823
1260.014, 2996.756
1260.496, 2991.509
1260.978, 2974.300
1261.460, 2956.749
1261.942, 2934.761
1262.424, 2934.963
1262.906, 2967.177
1263.389, 2996.334
1263.871, 2998.047
1264.353, 2988.636
1264.835, 2999.310
1265.317, 3018.135
1265.799, 3022.164
1266.281, 2994.816
1266.763, 2985.951
1267.245, 2999.822
1267.728, 3012.190
1268.210, 3005.941
1268.692, 2993.459
1269.174, 2987.246
1269.656, 2986.500
1270.138, 2991.481
1270.620, 3004.810
1271.102, 3009.189
1271.585, 3003.730
1272.067, 3001.052
1272.549, 3013.118
1273.031, 3026.003
1273.513, 3029.239
1273.995, 3024.896
1274.477, 3013.494
1274.959, 2991.822
1275.442, 2997.165
1275.924, 3028.518
1276.406, 3052.172
1276.888, 3042.352
1277.370, 3026.148
1277.852, 3013.050
1278.334, 3006.696
1278.816, 3014.290
1279.298, 3035.265
1279.781, 3038.535
1280.263, 3026.340
1280.745, 3014.442
1281.227, 3013.405
1281.709, 3011.202
1282.191, 2997.476
1282.673, 2987.900
1283.155, 3002.402
1283.637, 3033.207
1284.120, 3038.571
1284.602, 3023.504
1285.084, 3009.827
1285.566, 3001.820
1286.048, 3006.052
1286.530, 3031.000
1287.012, 3051.796
1287.494, 3041.271
1287.977, 3013.805
1288.459, 3000.112
1288.941, 2997.859
1289.423, 2999.352
1289.905, 3003.878
1290.387, 3010.185
1290.869, 3018.734
1291.351, 3027.334
1291.833, 3036.521
1292.316, 3043.005
1292.798, 3040.516
1293.280, 3032.389
1293.762, 3025.939
1294.244, 3020.616
1294.726, 3021.946
1295.208, 3030.748
1295.690, 3038.902
1296.172, 3042.049
1296.655, 3040.801
1297.137, 3029.176
1297.619, 3016.805
1298.101, 3019.203
1298.583, 3037.961
1299.065, 3056.908
1299.547, 3075.172
1300.029, 3081.084
1300.512, 3056.852
1300.994, 3031.521
##END=



