##NAMES=Umohoite
##RRUFFID=R061135
##IDEAL CHEMISTRY=(U^6+^O_2_)Mo^6+^O_4_&#183;2H_2_O
##LOCALITY=Kyzulsai Mo-U deposit, south Kazakhstan
##OWNER=RRUFF
##SOURCE=Michael Scott
##DESCRIPTION=Patches of dark green platy crystals
##STATUS=The identification of this mineral has been confirmed by single-crystal X-ray diffraction.
##URL=rruff.info/R061135
155.5403, 12648.00
156.0224, 12728.13
156.5045, 12802.90
156.9866, 12867.89
157.4687, 12924.28
157.9508, 12987.68
158.4330, 13081.36
158.9151, 13225.05
159.3972, 13362.67
159.8793, 13481.09
160.3614, 13601.23
160.8435, 13743.19
161.3257, 13911.87
161.8078, 14092.91
162.2899, 14267.46
162.7720, 14430.65
163.2541, 14595.89
163.7362, 14765.51
164.2184, 14936.04
164.7005, 15105.49
165.1826, 15274.07
165.6647, 15438.38
166.1468, 15595.07
166.6289, 15745.57
167.1111, 15884.05
167.5932, 16003.90
168.0753, 16113.94
168.5574, 16227.02
169.0395, 16348.00
169.5216, 16461.97
170.0038, 16544.36
170.4859, 16588.82
170.9680, 16636.72
171.4501, 16693.94
171.9322, 16758.20
172.4143, 16830.33
172.8965, 16912.09
173.3786, 16991.65
173.8607, 17049.38
174.3428, 17083.29
174.8249, 17125.63
175.3070, 17187.96
175.7892, 17261.05
176.2713, 17332.48
176.7534, 17399.68
177.2355, 17464.79
177.7176, 17529.27
178.1997, 17593.55
178.6819, 17655.83
179.1640, 17709.38
179.6461, 17762.46
180.1282, 17827.96
180.6103, 17908.90
181.0924, 17998.75
181.5745, 18098.75
182.0567, 18206.93
182.5388, 18298.19
183.0209, 18345.32
183.5030, 18376.33
183.9851, 18444.64
184.4672, 18567.57
184.9494, 18690.28
185.4315, 18745.65
185.9136, 18748.93
186.3957, 18759.67
186.8778, 18796.52
187.3599, 18851.73
187.8421, 18918.04
188.3242, 18999.55
188.8063, 19075.75
189.2884, 19129.18
189.7705, 19163.46
190.2526, 19180.27
190.7348, 19155.46
191.2169, 19120.69
191.6990, 19137.94
192.1811, 19225.24
192.6632, 19314.55
193.1453, 19344.04
193.6275, 19334.14
194.1096, 19325.98
194.5917, 19327.36
195.0738, 19339.86
195.5559, 19369.33
196.0380, 19420.03
196.5202, 19473.00
197.0023, 19521.91
197.4844, 19563.75
197.9665, 19588.89
198.4486, 19575.96
198.9307, 19553.49
199.4129, 19569.52
199.8950, 19632.49
200.3771, 19698.65
200.8592, 19756.80
201.3413, 19798.32
201.8234, 19802.21
202.3056, 19739.35
202.7877, 19654.80
203.2698, 19609.56
203.7519, 19608.98
204.2340, 19620.00
204.7161, 19633.57
205.1983, 19646.08
205.6804, 19651.52
206.1625, 19644.33
206.6446, 19634.99
207.1267, 19637.24
207.6088, 19652.51
208.0910, 19668.55
208.5731, 19687.34
209.0552, 19700.33
209.5373, 19692.79
210.0194, 19651.68
210.5015, 19611.31
210.9837, 19614.98
211.4658, 19665.68
211.9479, 19709.03
212.4300, 19711.82
212.9121, 19705.01
213.3942, 19723.31
213.8764, 19775.56
214.3585, 19836.16
214.8406, 19881.52
215.3227, 19912.09
215.8048, 19944.40
216.2869, 19988.21
216.7691, 20031.67
217.2512, 20057.92
217.7333, 20063.20
218.2154, 20076.95
218.6975, 20133.24
219.1796, 20227.21
219.6618, 20300.85
220.1439, 20330.88
220.6260, 20346.11
221.1081, 20370.96
221.5902, 20405.90
222.0723, 20450.62
222.5545, 20516.85
223.0366, 20596.91
223.5187, 20646.37
224.0008, 20634.04
224.4829, 20622.24
224.9650, 20674.95
225.4472, 20782.40
225.9293, 20876.70
226.4114, 20904.47
226.8935, 20888.94
227.3756, 20904.46
227.8577, 20968.16
228.3399, 21044.67
228.8220, 21104.99
229.3041, 21154.70
229.7862, 21213.52
230.2683, 21300.37
230.7504, 21400.12
231.2325, 21478.45
231.7147, 21527.41
232.1968, 21575.38
232.6789, 21639.84
233.1610, 21717.58
233.6431, 21806.11
234.1252, 21923.67
234.6074, 22042.93
235.0895, 22114.11
235.5716, 22127.99
236.0537, 22149.40
236.5358, 22226.29
237.0179, 22335.10
237.5001, 22437.64
237.9822, 22526.68
238.4643, 22606.99
238.9464, 22682.96
239.4285, 22754.79
239.9106, 22818.98
240.3928, 22870.70
240.8749, 22914.41
241.3570, 22957.25
241.8391, 22998.03
242.3212, 23041.75
242.8033, 23099.95
243.2855, 23168.71
243.7676, 23217.27
244.2497, 23221.70
244.7318, 23212.96
245.2139, 23241.46
245.6960, 23316.07
246.1782, 23390.55
246.6603, 23439.96
247.1424, 23470.23
247.6245, 23499.22
248.1066, 23532.68
248.5887, 23564.20
249.0709, 23583.21
249.5530, 23589.33
250.0351, 23598.61
250.5172, 23612.03
250.9993, 23633.27
251.4814, 23674.78
251.9636, 23743.49
252.4457, 23810.15
252.9278, 23838.92
253.4099, 23832.91
253.8920, 23830.34
254.3741, 23836.26
254.8563, 23849.97
255.3384, 23877.28
255.8205, 23918.78
256.3026, 23950.25
256.7847, 23942.32
257.2668, 23901.03
257.7490, 23896.66
258.2311, 23947.86
258.7132, 24023.03
259.1953, 24115.33
259.6774, 24218.40
260.1595, 24298.18
260.6417, 24328.14
261.1238, 24320.09
261.6059, 24334.29
262.0880, 24382.90
262.5701, 24437.81
263.0522, 24500.73
263.5344, 24561.61
264.0165, 24592.70
264.4986, 24575.34
264.9807, 24533.69
265.4628, 24532.99
265.9449, 24591.37
266.4271, 24652.46
266.9092, 24712.90
267.3913, 24767.96
267.8734, 24808.48
268.3555, 24831.50
268.8376, 24848.31
269.3198, 24877.49
269.8019, 24932.87
270.2840, 24968.53
270.7661, 24961.32
271.2482, 24949.19
271.7303, 24966.33
272.2125, 25015.58
272.6946, 25073.32
273.1767, 25116.46
273.6588, 25143.40
274.1409, 25160.49
274.6230, 25146.57
275.1052, 25143.44
275.5873, 25186.72
276.0694, 25261.64
276.5515, 25320.78
277.0336, 25326.74
277.5157, 25284.04
277.9979, 25267.07
278.4800, 25316.61
278.9621, 25346.11
279.4442, 25324.42
279.9263, 25273.80
280.4084, 25223.92
280.8906, 25188.90
281.3727, 25171.60
281.8548, 25182.00
282.3369, 25244.46
282.8190, 25300.29
283.3011, 25348.18
283.7833, 25386.16
284.2654, 25416.29
284.7475, 25437.88
285.2296, 25443.31
285.7117, 25415.63
286.1938, 25336.22
286.6760, 25274.96
287.1581, 25247.51
287.6402, 25226.08
288.1223, 25199.16
288.6044, 25164.78
289.0865, 25124.55
289.5687, 25076.43
290.0508, 25019.83
290.5329, 24977.67
291.0150, 24968.08
291.4971, 24953.38
291.9792, 24910.92
292.4614, 24853.82
292.9435, 24709.81
293.4256, 24812.14
293.9077, 24856.31
294.3898, 24845.46
294.8719, 24614.78
295.3541, 24667.96
295.8362, 24607.38
296.3183, 24542.14
296.8004, 24635.28
297.2825, 24436.56
297.7646, 24527.20
298.2468, 24502.32
298.7289, 24431.49
299.2110, 24415.29
299.6931, 24421.41
300.1752, 24437.46
300.6573, 24458.92
301.1395, 24486.42
301.6216, 24495.71
302.1037, 24461.38
302.5858, 24393.59
303.0679, 24329.83
303.5500, 24274.86
304.0321, 24227.08
304.5143, 24186.25
304.9964, 24151.49
305.4785, 24120.82
305.9606, 24090.71
306.4427, 24065.81
306.9248, 24061.83
307.4070, 24081.16
307.8891, 24082.63
308.3712, 24027.19
308.8533, 23929.63
309.3354, 23859.71
309.8175, 23844.07
310.2997, 23832.36
310.7818, 23791.60
311.2639, 23730.16
311.7460, 23673.65
312.2281, 23632.07
312.7102, 23603.56
313.1924, 23587.14
313.6745, 23595.28
314.1566, 23588.14
314.6387, 23554.51
315.1208, 23502.78
315.6029, 23435.04
316.0851, 23352.88
316.5672, 23277.00
317.0493, 23233.04
317.5314, 23230.85
318.0135, 23229.25
318.4956, 23230.80
318.9778, 23230.73
319.4599, 23223.63
319.9420, 23211.73
320.4241, 23204.55
320.9062, 23211.52
321.3883, 23230.11
321.8705, 23224.12
322.3526, 23150.35
322.8347, 23100.13
323.3168, 23104.06
323.7989, 23136.55
324.2810, 23165.88
324.7632, 23178.21
325.2453, 23178.52
325.7274, 23176.37
326.2095, 23170.03
326.6916, 23164.93
327.1737, 23161.44
327.6559, 23159.23
328.1380, 23154.61
328.6201, 23149.06
329.1022, 23151.79
329.5843, 23174.91
330.0664, 23219.20
330.5486, 23262.60
331.0307, 23315.48
331.5128, 23353.49
331.9949, 23354.01
332.4770, 23332.95
332.9591, 23323.16
333.4413, 23340.14
333.9234, 23379.47
334.4055, 23439.95
334.8876, 23530.66
335.3697, 23604.54
335.8518, 23622.30
336.3340, 23620.70
336.8161, 23642.27
337.2982, 23697.50
337.7803, 23760.82
338.2624, 23813.13
338.7445, 23856.95
339.2267, 23905.36
339.7088, 23964.45
340.1909, 24023.96
340.6730, 24062.86
341.1551, 24081.71
341.6372, 24124.17
342.1194, 24226.48
342.6015, 24345.48
343.0836, 24424.92
343.5657, 24461.86
344.0478, 24501.19
344.5299, 24580.50
345.0121, 24694.71
345.4942, 24785.58
345.9763, 24813.89
346.4584, 24862.12
346.9405, 24988.49
347.4226, 25155.37
347.9048, 25289.25
348.3869, 25357.91
348.8690, 25383.26
349.3511, 25411.18
349.8332, 25438.04
350.3153, 25474.37
350.7975, 25513.21
351.2796, 25565.93
351.7617, 25658.01
352.2438, 25781.49
352.7259, 25887.60
353.2080, 25919.43
353.6902, 25869.00
354.1723, 25868.13
354.6544, 25989.59
355.1365, 26089.23
355.6186, 26114.52
356.1007, 26096.77
356.5829, 26088.25
357.0650, 26115.69
357.5471, 26164.97
358.0292, 26205.94
358.5113, 26235.36
358.9934, 26265.84
359.4756, 26304.11
359.9577, 26342.22
360.4398, 26377.83
360.9219, 26409.92
361.4040, 26429.68
361.8861, 26423.35
362.3683, 26396.34
362.8504, 26380.84
363.3325, 26390.86
363.8146, 26258.46
364.2967, 26396.08
364.7788, 26475.54
365.2610, 26499.98
365.7431, 26304.59
366.2252, 26393.07
366.7073, 26367.78
367.1894, 26337.83
367.6715, 26466.26
368.1537, 26302.84
368.6358, 26428.76
369.1179, 26439.18
369.6000, 26502.46
370.0821, 26451.28
370.5642, 26435.45
371.0464, 26534.12
371.5285, 26569.39
372.0106, 26505.03
372.4927, 26571.67
372.9748, 26494.03
373.4569, 26490.03
373.9391, 26472.43
374.4212, 26412.63
374.9033, 26370.11
375.3854, 26390.29
375.8675, 26444.96
376.3496, 26472.23
376.8318, 26435.81
377.3139, 26361.19
377.7960, 26325.70
378.2781, 26362.70
378.7602, 26379.99
379.2423, 26371.78
379.7245, 26341.64
380.2066, 26277.38
380.6887, 26184.72
381.1708, 26103.49
381.6529, 26088.51
382.1350, 26137.33
382.6172, 26134.81
383.0993, 26041.86
383.5814, 25955.44
384.0635, 25932.24
384.5456, 25947.11
385.0277, 25954.63
385.5099, 25936.18
385.9920, 25907.12
386.4741, 25884.20
386.9562, 25867.34
387.4383, 25857.78
387.9204, 25863.09
388.4026, 25868.10
388.8847, 25848.29
389.3668, 25800.51
389.8489, 25754.39
390.3310, 25719.78
390.8131, 25692.49
391.2953, 25670.67
391.7774, 25653.38
392.2595, 25632.73
392.7416, 25601.65
393.2237, 25560.46
393.7058, 25521.07
394.1880, 25485.58
394.6701, 25449.48
395.1522, 25403.20
395.6343, 25357.54
396.1164, 25335.00
396.5985, 25221.05
397.0807, 25323.02
397.5628, 25366.85
398.0449, 25355.65
398.5270, 25124.61
399.0091, 25177.45
399.4912, 25116.52
399.9734, 25050.92
400.4555, 25143.71
400.9376, 24944.64
401.4197, 25034.92
401.9018, 25009.70
402.3839, 25037.34
402.8660, 24950.51
403.3481, 24899.04
403.8303, 24962.06
404.3124, 24961.69
404.7945, 24861.69
405.2766, 24892.68
405.7587, 24689.62
406.2408, 24691.95
406.7230, 24782.89
407.2051, 24688.64
407.6872, 24669.84
408.1693, 24669.81
408.6514, 24660.21
409.1335, 24642.35
409.6157, 24623.88
410.0978, 24606.17
410.5799, 24587.74
411.0620, 24569.27
411.5441, 24549.48
412.0262, 24521.21
412.5084, 24478.68
412.9905, 24435.58
413.4726, 24423.34
413.9547, 24485.66
414.4368, 24504.62
414.9189, 24437.03
415.4011, 24358.75
415.8832, 24324.82
416.3653, 24335.96
416.8474, 24363.51
417.3295, 24389.62
417.8116, 24410.84
418.2938, 24389.62
418.7759, 24273.25
419.2580, 24195.06
419.7401, 24217.65
420.2222, 24272.86
420.7043, 24287.61
421.1865, 24241.99
421.6686, 24179.93
422.1507, 24152.56
422.6328, 24155.62
423.1149, 24135.37
423.5970, 24075.42
424.0792, 24008.60
424.5613, 23967.40
425.0434, 23940.81
425.5255, 23896.54
426.0076, 23805.69
426.4897, 23710.61
426.9719, 23650.55
427.4540, 23618.65
427.9361, 23586.29
428.4182, 23542.92
428.9003, 23490.65
429.3824, 23432.65
429.8646, 23367.55
430.3467, 23300.08
430.8288, 23214.74
431.3109, 23139.37
431.7930, 23105.02
432.2751, 23103.49
432.7573, 23096.92
433.2394, 23056.33
433.7215, 22988.93
434.2036, 22939.03
434.6857, 22933.76
435.1678, 22904.22
435.6500, 22821.61
436.1321, 22724.48
436.6142, 22643.21
437.0963, 22584.52
437.5784, 22541.61
438.0605, 22513.61
438.5427, 22498.23
439.0248, 22476.26
439.5069, 22450.05
439.9890, 22410.60
440.4711, 22340.14
440.9532, 22254.64
441.4354, 22183.50
441.9175, 22143.82
442.3996, 22100.99
442.8817, 22011.66
443.3638, 21897.99
443.8459, 21827.26
444.3281, 21822.98
444.8102, 21846.39
445.2923, 21853.83
445.7744, 21843.62
446.2565, 21818.62
446.7386, 21770.99
447.2208, 21716.45
447.7029, 21658.59
448.1850, 21600.85
448.6671, 21546.59
449.1492, 21497.26
449.6313, 21455.70
450.1135, 21432.00
450.5956, 21442.30
451.0777, 21432.90
451.5598, 21375.69
452.0419, 21319.83
452.5240, 21299.64
453.0062, 21308.20
453.4883, 21311.79
453.9704, 21287.15
454.4525, 21243.43
454.9346, 21200.85
455.4167, 21158.81
455.8989, 21121.61
456.3810, 21093.84
456.8631, 21069.82
457.3452, 21037.15
457.8273, 20990.46
458.3094, 20961.63
458.7916, 20987.12
459.2737, 21026.06
459.7558, 21014.63
460.2379, 20950.26
460.7200, 20891.61
461.2021, 20882.22
461.6843, 20916.62
462.1664, 20952.98
462.6485, 21012.04
463.1306, 21046.66
463.6127, 21031.12
464.0948, 20998.31
464.5770, 20978.50
465.0591, 20978.87
465.5412, 20991.91
466.0233, 21015.21
466.5054, 21048.46
466.9875, 21058.35
467.4697, 21033.15
467.9518, 21001.86
468.4339, 20965.72
468.9160, 20934.47
469.3981, 20921.67
469.8802, 20932.07
470.3624, 20955.70
470.8445, 21001.12
471.3266, 21054.76
471.8087, 21062.10
472.2908, 21006.10
472.7729, 20934.70
473.2551, 20891.24
473.7372, 20874.75
474.2193, 20845.97
474.7014, 20785.54
475.1835, 20733.36
475.6656, 20719.30
476.1478, 20721.68
476.6299, 20696.00
477.1120, 20629.19
477.5941, 20560.92
478.0762, 20555.80
478.5583, 20638.70
479.0405, 20673.84
479.5226, 20636.46
480.0047, 20573.71
480.4868, 20480.15
480.9689, 20375.29
481.4510, 20289.07
481.9332, 20233.93
482.4153, 20198.77
482.8974, 20175.77
483.3795, 20164.05
483.8616, 20138.28
484.3438, 20091.56
484.8259, 20033.43
485.3080, 19971.14
485.7901, 19904.99
486.2722, 19833.87
486.7543, 19745.95
487.2365, 19663.46
487.7186, 19600.28
488.2007, 19554.12
488.6828, 19520.95
489.1649, 19499.75
489.6470, 19483.03
490.1292, 19459.72
490.6113, 19431.09
491.0934, 19390.64
491.5755, 19342.15
492.0576, 19279.64
492.5397, 19185.96
493.0219, 19078.76
493.5040, 18989.83
493.9861, 18935.39
494.4682, 18901.69
494.9503, 18867.53
495.4324, 18832.35
495.9146, 18804.83
496.3967, 18790.13
496.8788, 18778.94
497.3609, 18771.17
497.8430, 18762.67
498.3251, 18733.48
498.8073, 18652.26
499.2894, 18570.91
499.7715, 18540.01
500.2536, 18543.71
500.7357, 18530.95
501.2178, 18481.25
501.6999, 18424.78
502.1820, 18411.39
502.6642, 18466.74
503.1463, 18474.19
503.6284, 18393.45
504.1105, 18312.67
504.5926, 18269.43
505.0747, 18253.28
505.5569, 18242.56
506.0390, 18228.26
506.5211, 18210.02
507.0032, 18180.80
507.4853, 18138.33
507.9674, 18126.49
508.4496, 18183.28
508.9317, 18226.00
509.4138, 18169.59
509.8959, 18049.94
510.3780, 17972.26
510.8601, 17994.53
511.3423, 18032.38
511.8244, 18023.18
512.3065, 17981.41
512.7886, 17941.28
513.2708, 17913.06
513.7529, 17891.04
514.2350, 17869.24
514.7171, 17848.24
515.1992, 17823.41
515.6813, 17776.16
516.1635, 17746.11
516.6456, 17759.09
517.1277, 17792.50
517.6098, 17816.31
518.0919, 17820.28
518.5740, 17812.99
519.0562, 17806.28
519.5383, 17799.66
520.0204, 17778.07
520.5025, 17733.02
520.9846, 17688.14
521.4667, 17650.52
521.9489, 17624.84
522.4310, 17625.89
522.9131, 17676.69
523.3952, 17715.97
523.8773, 17694.27
524.3594, 17646.02
524.8416, 17630.82
525.3237, 17658.39
525.8058, 17694.46
526.2879, 17710.34
526.7700, 17706.19
527.2521, 17685.38
527.7343, 17604.26
528.2164, 17561.96
528.6985, 17604.83
529.1806, 17670.98
529.6627, 17704.14
530.1448, 17695.19
530.6270, 17671.12
531.1091, 17650.01
531.5912, 17632.09
532.0733, 17617.19
532.5554, 17604.83
533.0375, 17599.83
533.5197, 17613.21
534.0018, 17629.17
534.4839, 17614.59
534.9660, 17557.43
535.4481, 17517.45
535.9302, 17516.95
536.4124, 17535.74
536.8945, 17559.99
537.3766, 17586.81
537.8587, 17616.92
538.3408, 17652.24
538.8229, 17683.91
539.3051, 17684.74
539.7872, 17639.28
540.2693, 17598.47
540.7514, 17567.88
541.2335, 17541.54
541.7156, 17507.97
542.1978, 17475.31
542.6799, 17468.38
543.1620, 17510.69
543.6441, 17567.57
544.1262, 17592.20
544.6083, 17590.52
545.0905, 17605.39
545.5726, 17655.95
546.0547, 17700.08
546.5368, 17681.36
547.0189, 17589.24
547.5010, 17542.10
547.9832, 17577.56
548.4653, 17614.47
548.9474, 17618.59
549.4295, 17605.82
549.9116, 17602.74
550.3937, 17615.99
550.8758, 17626.82
551.3579, 17602.58
551.8400, 17544.79
552.3221, 17536.97
552.8043, 17607.66
553.2864, 17671.42
553.7685, 17678.03
554.2506, 17659.20
554.7327, 17652.79
555.2148, 17666.50
555.6970, 17676.74
556.1791, 17668.59
556.6612, 17652.25
557.1433, 17636.83
557.6254, 17624.90
558.1075, 17625.12
558.5897, 17644.54
559.0718, 17676.38
559.5539, 17699.43
560.0360, 17710.57
560.5181, 17718.04
561.0002, 17723.69
561.4824, 17724.89
561.9645, 17709.93
562.4466, 17688.78
562.9287, 17690.62
563.4108, 17740.59
563.8929, 17801.39
564.3751, 17813.58
564.8572, 17782.80
565.3393, 17759.72
565.8214, 17757.04
566.3035, 17762.79
566.7856, 17765.27
567.2678, 17764.57
567.7499, 17769.41
568.2320, 17787.70
568.7141, 17802.28
569.1962, 17809.43
569.6783, 17808.30
570.1605, 17790.87
570.6426, 17759.33
571.1247, 17736.88
571.6068, 17751.72
572.0889, 17797.94
572.5710, 17825.45
573.0532, 17829.02
573.5353, 17828.01
574.0174, 17825.99
574.4995, 17824.87
574.9816, 17830.37
575.4637, 17843.82
575.9459, 17844.57
576.4280, 17797.44
576.9101, 17674.94
577.3922, 17820.35
577.8743, 17907.61
578.3564, 17939.83
578.8386, 17752.23
579.3207, 17848.49
579.8028, 17831.00
580.2849, 17808.84
580.7670, 17945.06
581.2491, 17789.42
581.7313, 17923.14
582.2134, 17941.35
582.6955, 18012.42
583.1776, 17969.02
583.6597, 17960.98
584.1418, 18067.45
584.6240, 17924.02
585.1061, 17883.77
585.5882, 17883.43
586.0703, 17930.81
586.5524, 17965.67
587.0345, 17942.78
587.5167, 17880.80
587.9988, 17848.11
588.4809, 17868.77
588.9630, 17885.27
589.4451, 17888.57
589.9272, 17893.99
590.4094, 17922.71
590.8915, 17963.10
591.3736, 17978.48
591.8557, 17942.99
592.3378, 17890.75
592.8199, 17887.16
593.3021, 17929.46
593.7842, 17937.60
594.2663, 17880.56
594.7484, 17827.04
595.2305, 17839.66
595.7126, 17911.44
596.1948, 17974.66
596.6769, 18046.18
597.1590, 18086.82
597.6411, 18054.05
598.1232, 18002.35
598.6053, 17998.34
599.0875, 18044.29
599.5696, 18091.02
600.0517, 18099.09
600.5338, 18078.34
601.0159, 18061.08
601.4980, 18045.77
601.9802, 18041.83
602.4623, 18058.86
602.9444, 18080.57
603.4265, 18086.16
603.9086, 18079.67
604.3907, 18091.41
604.8729, 18154.41
605.3550, 18211.30
605.8371, 18225.42
606.3192, 18208.99
606.8013, 18175.42
607.2834, 18131.68
607.7656, 18100.66
608.2477, 18111.43
608.7298, 18159.73
609.2119, 18176.04
609.6940, 18137.15
610.1761, 18111.57
610.6583, 18125.82
611.1404, 18155.55
611.6225, 18185.13
612.1046, 18212.88
612.5867, 18236.07
613.0688, 18257.98
613.5510, 18271.41
614.0331, 18261.44
614.5152, 18236.89
614.9973, 18225.17
615.4794, 18235.55
615.9615, 18253.20
616.4437, 18257.89
616.9258, 18247.64
617.4079, 18251.13
617.8900, 18282.99
618.3721, 18308.53
618.8542, 18313.21
619.3364, 18311.53
619.8185, 18321.03
620.3006, 18343.22
620.7827, 18358.69
621.2648, 18349.82
621.7469, 18331.28
622.2291, 18321.11
622.7112, 18319.18
623.1933, 18319.48
623.6754, 18318.57
624.1575, 18327.98
624.6396, 18370.62
625.1218, 18461.07
625.6039, 18502.16
626.0860, 18428.68
626.5681, 18380.91
627.0502, 18419.00
627.5323, 18487.61
628.0145, 18518.79
628.4966, 18501.05
628.9787, 18484.27
629.4608, 18511.30
629.9429, 18558.33
630.4250, 18584.26
630.9072, 18590.35
631.3893, 18596.58
631.8714, 18611.40
632.3535, 18629.60
632.8356, 18644.63
633.3177, 18659.35
633.7999, 18657.64
634.2820, 18622.16
634.7641, 18591.23
635.2462, 18574.39
635.7283, 18569.08
636.2104, 18572.71
636.6926, 18584.47
637.1747, 18601.44
637.6568, 18623.48
638.1389, 18648.51
638.6210, 18668.46
639.1031, 18684.87
639.5853, 18717.77
640.0674, 18779.35
640.5495, 18848.13
641.0316, 18892.15
641.5137, 18907.79
641.9958, 18914.59
642.4780, 18897.31
642.9601, 18889.66
643.4422, 18912.93
643.9243, 18945.29
644.4064, 18956.31
644.8885, 18941.41
645.3707, 18931.05
645.8528, 18959.85
646.3349, 19003.39
646.8170, 19002.88
647.2991, 18965.14
647.7813, 18972.20
648.2634, 19065.28
648.7455, 19174.92
649.2276, 19196.20
649.7097, 19107.19
650.1918, 19067.54
650.6740, 19109.47
651.1561, 19160.95
651.6382, 19221.61
652.1203, 19273.00
652.6024, 19286.51
653.0845, 19262.38
653.5667, 19246.13
654.0488, 19277.03
654.5309, 19330.37
655.0130, 19371.30
655.4951, 19399.99
655.9772, 19415.42
656.4594, 19415.06
656.9415, 19417.53
657.4236, 19448.72
657.9057, 19511.78
658.3878, 19555.21
658.8699, 19561.48
659.3521, 19569.82
659.8342, 19588.15
660.3163, 19610.75
660.7984, 19625.40
661.2805, 19635.32
661.7626, 19666.68
662.2448, 19759.85
662.7269, 19860.99
663.2090, 19893.27
663.6911, 19878.49
664.1732, 19893.52
664.6553, 19959.78
665.1375, 20025.29
665.6196, 20032.55
666.1017, 19987.63
666.5838, 19983.57
667.0659, 20049.60
667.5480, 20108.07
668.0302, 20141.11
668.5123, 20167.56
668.9944, 20200.24
669.4765, 20238.53
669.9586, 20275.76
670.4407, 20306.51
670.9229, 20338.89
671.4050, 20388.11
671.8871, 20441.68
672.3692, 20470.54
672.8513, 20471.92
673.3334, 20474.48
673.8156, 20501.79
674.2977, 20546.96
674.7798, 20577.36
675.2619, 20573.76
675.7440, 20611.11
676.2261, 20740.07
676.7083, 20867.85
677.1904, 20932.53
677.6725, 20952.29
678.1546, 20974.19
678.6367, 21007.68
679.1188, 21044.94
679.6010, 21083.41
680.0831, 21122.62
680.5652, 21158.28
681.0473, 21193.17
681.5294, 21241.03
682.0115, 21311.37
682.4937, 21387.20
682.9758, 21429.91
683.4579, 21435.33
683.9400, 21452.39
684.4221, 21482.54
684.9042, 21528.63
685.3864, 21601.48
685.8685, 21688.20
686.3506, 21762.25
686.8327, 21817.32
687.3148, 21877.38
687.7969, 21962.88
688.2791, 22041.20
688.7612, 22076.23
689.2433, 22089.57
689.7254, 22130.88
690.2075, 22217.40
690.6896, 22310.21
691.1718, 22363.26
691.6539, 22383.52
692.1360, 22402.16
692.6181, 22418.24
693.1002, 22445.90
693.5823, 22490.57
694.0645, 22550.05
694.5466, 22625.07
695.0287, 22721.80
695.5108, 22796.11
695.9929, 22835.97
696.4750, 22868.33
696.9572, 22901.44
697.4393, 22931.33
697.9214, 22946.23
698.4035, 22949.18
698.8856, 22966.95
699.3677, 23031.35
699.8499, 23108.38
700.3320, 23140.66
700.8141, 23139.45
701.2962, 23151.88
701.7783, 23189.57
702.2604, 23244.93
702.7426, 23315.51
703.2247, 23396.57
703.7068, 23454.18
704.1889, 23486.50
704.6710, 23498.21
705.1531, 23464.42
705.6353, 23433.86
706.1174, 23444.84
706.5995, 23481.93
707.0816, 23500.43
707.5637, 23481.68
708.0458, 23455.10
708.5280, 23426.24
709.0101, 23407.16
709.4922, 23419.72
709.9743, 23459.82
710.4564, 23507.23
710.9385, 23552.32
711.4207, 23583.71
711.9028, 23572.42
712.3849, 23513.47
712.8670, 23479.77
713.3491, 23484.86
713.8312, 23486.89
714.3134, 23457.98
714.7955, 23418.29
715.2776, 23407.27
715.7597, 23432.83
716.2418, 23442.92
716.7239, 23417.02
717.2061, 23387.87
717.6882, 23377.82
718.1703, 23373.28
718.6524, 23347.49
719.1345, 23297.99
719.6166, 23257.63
720.0988, 23260.02
720.5809, 23286.82
721.0630, 23308.09
721.5451, 23321.52
722.0272, 23292.72
722.5093, 23203.79
722.9915, 23126.08
723.4736, 23137.99
723.9557, 23228.03
724.4378, 23257.56
724.9199, 23178.05
725.4020, 23115.06
725.8842, 23089.80
726.3663, 23074.97
726.8484, 23053.19
727.3305, 23028.05
727.8126, 23015.02
728.2947, 23028.74
728.7769, 23029.59
729.2590, 22967.47
729.7411, 22892.19
730.2232, 22879.17
730.7053, 22919.79
731.1874, 22952.07
731.6696, 22944.73
732.1517, 22921.21
732.6338, 22923.12
733.1159, 22951.30
733.5980, 22960.36
734.0801, 22946.52
734.5623, 22921.69
735.0444, 22872.69
735.5265, 22832.04
736.0086, 22863.51
736.4907, 22981.03
736.9728, 23047.05
737.4550, 23005.15
737.9371, 22968.62
738.4192, 22981.07
738.9013, 23018.25
739.3834, 23059.30
739.8655, 23097.38
740.3477, 23123.22
740.8298, 23115.81
741.3119, 23114.94
741.7940, 23190.58
742.2761, 23315.89
742.7582, 23403.21
743.2404, 23438.16
743.7225, 23465.59
744.2046, 23516.83
744.6867, 23586.96
745.1688, 23661.58
745.6509, 23739.13
746.1331, 23827.50
746.6152, 23940.23
747.0973, 24046.99
747.5793, 24128.13
748.0615, 24195.37
748.5436, 24261.77
749.0257, 24324.71
749.5078, 24406.53
749.9899, 24535.55
750.4720, 24663.48
750.9542, 24741.16
751.4363, 24801.77
751.9184, 24908.27
752.4005, 25071.86
752.8826, 25237.46
753.3647, 25351.62
753.8469, 25437.07
754.3290, 25549.75
754.8111, 25685.08
755.2932, 25796.17
755.7753, 25868.64
756.2574, 25939.66
756.7396, 26044.08
757.2217, 26174.03
757.7038, 26286.53
758.1859, 26360.05
758.6680, 26457.52
759.1501, 26611.36
759.6323, 26761.61
760.1144, 26878.23
760.5965, 26970.77
761.0786, 27052.42
761.5607, 27115.82
762.0428, 27210.41
762.5250, 27403.91
763.0071, 27596.72
763.4892, 27689.60
763.9713, 27717.40
764.4534, 27770.55
764.9355, 27874.27
765.4177, 27964.76
765.8998, 27959.75
766.3819, 27900.14
766.8640, 27922.90
767.3461, 28025.29
767.8282, 28116.09
768.3104, 28172.99
768.7925, 28204.50
769.2746, 28216.06
769.7567, 28208.87
770.2388, 28191.64
770.7209, 28172.53
771.2031, 28128.66
771.6852, 28015.79
772.1673, 27921.74
772.6494, 27909.29
773.1315, 27943.30
773.6136, 27954.70
774.0958, 27927.32
774.5779, 27889.91
775.0600, 27873.87
775.5421, 27836.88
776.0242, 27714.28
776.5063, 27548.09
776.9885, 27434.07
777.4706, 27396.33
777.9527, 27370.59
778.4348, 27300.08
778.9169, 27192.16
779.3990, 27061.51
779.8812, 26909.35
780.3633, 26762.10
780.8454, 26625.38
781.3275, 26496.08
781.8096, 26372.51
782.2917, 26254.27
782.7739, 26140.99
783.2560, 26042.64
783.7381, 25927.35
784.2202, 25781.10
784.7023, 25631.19
785.1844, 25493.45
785.6666, 25359.27
786.1487, 25213.41
786.6308, 25052.43
787.1129, 24889.13
787.5950, 24710.86
788.0771, 24548.96
788.5593, 24441.14
789.0414, 24355.48
789.5235, 24238.17
790.0056, 24080.50
790.4877, 23920.91
790.9698, 23795.61
791.4520, 23676.24
791.9341, 23494.40
792.4162, 23271.55
792.8983, 23112.97
793.3804, 23037.16
793.8625, 22959.14
794.3447, 22818.16
794.8268, 22637.54
795.3089, 22474.81
795.7910, 22324.99
796.2731, 22213.51
796.7552, 22165.19
797.2374, 22112.68
797.7195, 22028.11
798.2016, 21921.18
798.6837, 21804.57
799.1658, 21677.91
799.6479, 21551.12
800.1301, 21412.02
800.6122, 21290.03
801.0943, 21196.12
801.5764, 21126.13
802.0585, 21093.94
802.5406, 21084.48
803.0228, 21042.53
803.5049, 20927.80
803.9870, 20804.16
804.4691, 20736.76
804.9512, 20701.43
805.4333, 20660.69
805.9155, 20609.48
806.3976, 20547.56
806.8797, 20474.75
807.3618, 20392.75
807.8439, 20294.58
808.3260, 20184.41
808.8082, 20127.47
809.2903, 20133.91
809.7724, 20128.45
810.2545, 20087.82
810.7366, 20028.05
811.2188, 19962.19
811.7009, 19891.23
812.1830, 19824.12
812.6651, 19753.76
813.1472, 19699.03
813.6293, 19671.13
814.1115, 19648.48
814.5936, 19632.90
815.0757, 19610.03
815.5578, 19547.39
816.0399, 19429.88
816.5220, 19324.74
817.0042, 19261.80
817.4863, 19219.68
817.9684, 19196.27
818.4505, 19176.30
818.9326, 19134.23
819.4147, 19066.88
819.8969, 18994.28
820.3790, 18929.58
820.8611, 18870.89
821.3432, 18813.72
821.8253, 18759.95
822.3074, 18720.95
822.7896, 18697.28
823.2717, 18670.18
823.7538, 18628.31
824.2359, 18576.51
824.7180, 18520.31
825.2001, 18456.43
825.6823, 18421.83
826.1644, 18433.52
826.6465, 18425.39
827.1286, 18368.70
827.6107, 18287.13
828.0928, 18201.76
828.5750, 18112.25
829.0571, 18049.51
829.5392, 18040.66
830.0213, 18019.29
830.5034, 17964.96
830.9855, 17905.56
831.4677, 17863.96
831.9498, 17831.71
832.4319, 17784.03
832.9140, 17708.79
833.3961, 17646.99
833.8782, 17630.78
834.3604, 17626.43
834.8425, 17604.29
835.3246, 17571.88
835.8067, 17551.92
836.2888, 17545.97
836.7709, 17524.20
837.2531, 17455.11
837.7352, 17367.88
838.2173, 17307.88
838.6994, 17272.66
839.1815, 17260.09
839.6636, 17267.72
840.1458, 17268.34
840.6279, 17244.35
841.1100, 17211.21
841.5921, 17203.95
842.0742, 17226.62
842.5563, 17206.58
843.0385, 17123.54
843.5206, 17074.85
844.0027, 17116.94
844.4848, 17167.63
844.9669, 17122.47
845.4490, 16989.32
845.9312, 16933.29
846.4133, 17048.94
846.8954, 17103.85
847.3775, 17030.62
847.8596, 16948.68
848.3417, 16933.74
848.8239, 16954.11
849.3060, 16944.28
849.7881, 16887.97
850.2702, 16842.50
850.7523, 16838.42
851.2344, 16840.34
851.7166, 16829.49
852.1987, 16808.82
852.6808, 16782.45
853.1629, 16751.94
853.6450, 16716.80
854.1271, 16671.21
854.6093, 16634.94
855.0914, 16640.41
855.5735, 16666.95
856.0556, 16678.84
856.5377, 16672.69
857.0198, 16650.61
857.5020, 16613.57
857.9841, 16572.48
858.4662, 16538.27
858.9483, 16512.10
859.4304, 16506.17
859.9125, 16520.77
860.3947, 16512.77
860.8768, 16468.22
861.3589, 16424.68
861.8410, 16415.31
862.3231, 16425.45
862.8052, 16403.04
863.2874, 16331.77
863.7695, 16282.01
864.2516, 16264.99
864.7337, 16251.37
865.2158, 16225.68
865.6979, 16199.68
866.1801, 16198.77
866.6622, 16224.01
867.1443, 16208.74
867.6264, 16106.30
868.1085, 16024.24
868.5906, 15990.65
869.0728, 15977.65
869.5549, 15973.37
870.0370, 15972.32
870.5191, 15965.46
871.0012, 15948.83
871.4833, 15936.95
871.9655, 15936.57
872.4476, 15943.30
872.9297, 15963.95
873.4118, 15984.57
873.8939, 15986.32
874.3760, 15965.83
874.8582, 15926.95
875.3403, 15865.02
875.8224, 15802.61
876.3045, 15757.40
876.7866, 15732.99
877.2687, 15746.61
877.7509, 15789.87
878.2330, 15824.82
878.7151, 15835.61
879.1972, 15833.35
879.6793, 15826.57
880.1614, 15819.33
880.6436, 15836.26
881.1257, 15874.49
881.6078, 15877.67
882.0899, 15831.49
882.5720, 15776.82
883.0541, 15740.27
883.5363, 15720.01
884.0184, 15714.68
884.5005, 15729.82
884.9826, 15727.23
885.4647, 15699.40
885.9468, 15673.77
886.4290, 15655.45
886.9111, 15649.88
887.3932, 15669.90
887.8753, 15712.29
888.3574, 15730.27
888.8395, 15697.18
889.3217, 15681.99
889.8038, 15696.74
890.2859, 15720.38
890.7680, 15760.22
891.2501, 15794.83
891.7322, 15782.11
892.2144, 15712.58
892.6965, 15666.81
893.1786, 15682.12
893.6607, 15698.30
894.1428, 15693.34
894.6249, 15677.31
895.1071, 15664.78
895.5892, 15650.15
896.0713, 15606.34
896.5534, 15511.55
897.0355, 15445.76
897.5176, 15489.61
897.9998, 15554.82
898.4819, 15556.10
898.9640, 15519.23
899.4461, 15493.04
899.9282, 15488.95
900.4103, 15498.33
900.8925, 15522.49
901.3746, 15542.19
901.8567, 15528.80
902.3388, 15496.05
902.8209, 15466.48
903.3030, 15444.20
903.7852, 15435.43
904.2673, 15442.27
904.7494, 15453.83
905.2315, 15460.21
905.7136, 15460.67
906.1957, 15449.34
906.6779, 15428.42
907.1600, 15415.03
907.6421, 15412.18
908.1242, 15416.87
908.6063, 15428.48
909.0884, 15440.84
909.5706, 15441.39
910.0527, 15429.96
910.5348, 15420.61
911.0169, 15413.07
911.4990, 15411.50
911.9811, 15421.24
912.4633, 15423.06
912.9454, 15393.72
913.4275, 15346.46
913.9096, 15339.52
914.3917, 15396.59
914.8738, 15423.69
915.3560, 15405.45
915.8381, 15382.00
916.3202, 15369.25
916.8023, 15358.88
917.2844, 15338.39
917.7665, 15307.92
918.2487, 15288.89
918.7308, 15284.93
919.2129, 15286.95
919.6950, 15293.72
920.1771, 15306.97
920.6592, 15338.78
921.1414, 15372.86
921.6235, 15375.99
922.1056, 15340.92
922.5877, 15332.40
923.0698, 15405.58
923.5519, 15451.78
924.0341, 15410.97
924.5162, 15347.53
924.9983, 15299.65
925.4804, 15277.83
925.9625, 15299.02
926.4446, 15376.19
926.9268, 15444.99
927.4089, 15484.19
927.8910, 15498.07
928.3731, 15467.69
928.8552, 15427.34
929.3373, 15419.48
929.8195, 15446.16
930.3016, 15489.18
930.7837, 15546.98
931.2658, 15594.86
931.7479, 15603.96
932.2300, 15600.61
932.7122, 15611.21
933.1943, 15634.71
933.6764, 15666.89
934.1585, 15705.25
934.6406, 15742.61
935.1227, 15774.19
935.6049, 15802.59
936.0870, 15838.37
936.5691, 15870.34
937.0512, 15862.83
937.5333, 15829.27
938.0154, 15833.49
938.4976, 15895.30
938.9797, 15952.77
939.4618, 15934.96
939.9439, 15885.79
940.4260, 15909.56
940.9081, 15983.19
941.3903, 16015.90
941.8724, 16000.31
942.3545, 15985.74
942.8366, 15996.74
943.3187, 16010.84
943.8008, 15990.99
944.2830, 15950.47
944.7651, 15957.39
945.2471, 16007.52
945.7292, 16036.12
946.2114, 16030.74
946.6935, 16015.68
947.1756, 16005.53
947.6577, 15998.43
948.1398, 15989.78
948.6219, 15979.87
949.1041, 15981.56
949.5862, 15995.94
950.0683, 16013.19
950.5504, 16033.12
951.0325, 16042.82
951.5146, 16029.16
951.9968, 16003.20
952.4789, 15995.56
952.9610, 16008.83
953.4431, 16028.96
953.9252, 16066.67
954.4073, 16068.29
954.8895, 16003.56
955.3716, 15928.15
955.8537, 15892.61
956.3358, 15890.23
956.8179, 15894.32
957.3000, 15909.95
957.7822, 15917.05
958.2643, 15917.68
958.7464, 15902.64
959.2285, 15853.66
959.7106, 15807.63
960.1927, 15815.23
960.6749, 15866.54
961.1570, 15869.15
961.6391, 15788.74
962.1212, 15729.37
962.6033, 15715.75
963.0854, 15693.40
963.5676, 15624.34
964.0497, 15545.66
964.5318, 15511.64
965.0139, 15521.80
965.4960, 15498.20
965.9781, 15400.38
966.4603, 15330.39
966.9424, 15322.79
967.4245, 15312.52
967.9066, 15257.77
968.3887, 15187.97
968.8708, 15148.36
969.3530, 15141.57
969.8351, 15124.26
970.3172, 15076.81
970.7993, 15042.72
971.2814, 15058.95
971.7635, 15059.23
972.2457, 14976.95
972.7278, 14864.71
973.2099, 14817.58
973.6920, 14848.84
974.1741, 14862.10
974.6563, 14836.90
975.1384, 14800.02
975.6205, 14748.99
976.1026, 14697.72
976.5847, 14654.24
977.0668, 14617.86
977.5490, 14582.16
978.0311, 14544.44
978.5132, 14530.50
978.9953, 14592.52
979.4774, 14618.72
979.9595, 14536.62
980.4417, 14433.55
980.9238, 14376.68
981.4059, 14355.53
981.8880, 14335.98
982.3701, 14311.24
982.8522, 14293.44
983.3344, 14301.78
983.8165, 14298.25
984.2986, 14259.74
984.7807, 14207.65
985.2628, 14145.31
985.7449, 14089.19
986.2271, 14086.24
986.7092, 14159.82
987.1913, 14186.58
987.6734, 14074.81
988.1555, 13961.82
988.6376, 13918.87
989.1198, 13906.26
989.6019, 13889.57
990.0840, 13866.80
990.5661, 13844.71
991.0482, 13824.55
991.5303, 13808.31
992.0125, 13802.22
992.4946, 13793.65
992.9767, 13781.61
993.4588, 13758.79
993.9409, 13708.19
994.4230, 13641.32
994.9052, 13591.24
995.3873, 13567.51
995.8694, 13556.76
996.3515, 13566.39
996.8336, 13571.77
997.3157, 13561.39
997.7979, 13536.62
998.2800, 13494.29
998.7621, 13440.12
999.2442, 13384.35
999.7263, 13326.35
1000.208, 13290.40
1000.691, 13307.48
1001.173, 13327.04
1001.655, 13322.42
1002.137, 13300.66
1002.619, 13255.18
1003.101, 13202.37
1003.583, 13192.08
1004.065, 13251.21
1004.547, 13278.69
1005.030, 13186.12
1005.512, 13097.17
1005.994, 13087.84
1006.476, 13120.12
1006.958, 13169.58
1007.440, 13217.85
1007.922, 13226.72
1008.404, 13178.97
1008.887, 13133.54
1009.369, 13122.18
1009.851, 13113.87
1010.333, 13081.28
1010.815, 13049.77
1011.297, 13055.35
1011.779, 13084.98
1012.261, 13094.91
1012.743, 13071.07
1013.226, 13046.34
1013.708, 13035.96
1014.190, 13026.44
1014.672, 13000.48
1015.154, 12980.09
1015.636, 13001.62
1016.118, 13044.94
1016.600, 13051.38
1017.083, 13002.25
1017.565, 12956.95
1018.047, 12929.34
1018.529, 12920.00
1019.011, 12942.46
1019.493, 12971.86
1019.975, 12985.26
1020.457, 12987.32
1020.939, 12993.41
1021.422, 13007.11
1021.904, 13019.24
1022.386, 13042.74
1022.868, 13043.65
1023.350, 12981.33
1023.832, 12915.50
1024.314, 12901.30
1024.796, 12919.20
1025.279, 12919.43
1025.761, 12891.58
1026.243, 12879.96
1026.725, 12914.68
1027.207, 12940.51
1027.689, 12931.56
1028.171, 12916.32
1028.653, 12911.53
1029.135, 12916.61
1029.618, 12930.58
1030.100, 12795.85
1030.582, 12927.73
1031.064, 13001.45
1031.546, 13020.14
1032.028, 12819.00
1032.510, 12901.73
1032.992, 12870.70
1033.474, 12835.00
1033.957, 12957.69
1034.439, 12788.52
1034.921, 12908.69
1035.403, 12913.37
1035.885, 12970.90
1036.367, 12913.97
1036.849, 12892.40
1037.331, 12985.32
1037.814, 13014.85
1038.296, 12944.74
1038.778, 12950.74
1039.260, 12941.35
1039.742, 12888.17
1040.224, 12854.40
1040.706, 12857.96
1041.188, 12858.78
1041.671, 12831.57
1042.153, 12803.37
1042.635, 12810.11
1043.117, 12844.80
1043.599, 12854.63
1044.081, 12823.24
1044.563, 12807.30
1045.045, 12815.66
1045.527, 12822.83
1046.010, 12815.71
1046.492, 12812.36
1046.974, 12747.41
1047.456, 12789.81
1047.938, 12812.82
1048.420, 12817.50
1048.902, 12748.89
1049.384, 12774.91
1049.866, 12763.00
1050.349, 12749.54
1050.831, 12788.88
1051.313, 12730.93
1051.795, 12769.43
1052.277, 12769.43
1052.759, 12787.04
1053.241, 12766.51
1053.723, 12757.76
1054.205, 12787.17
1054.688, 12795.45
1055.170, 12770.52
1055.652, 12789.26
1056.134, 12729.98
1056.616, 12739.16
1057.098, 12777.88
1057.580, 12812.27
1058.062, 12835.59
1058.545, 12838.74
1059.027, 12817.26
1059.509, 12804.02
1059.991, 12816.60
1060.473, 12833.23
1060.955, 12822.38
1061.437, 12797.33
1061.919, 12806.00
1062.401, 12837.30
1062.884, 12835.52
1063.366, 12801.43
1063.848, 12787.02
1064.330, 12811.23
1064.812, 12837.13
1065.294, 12829.48
1065.776, 12805.16
1066.258, 12784.55
1066.740, 12772.31
1067.223, 12787.24
1067.705, 12819.14
1068.187, 12830.96
1068.669, 12816.14
1069.151, 12807.64
1069.633, 12831.85
1070.115, 12856.31
1070.597, 12841.44
1071.080, 12810.83
1071.562, 12786.14
1072.044, 12772.69
1072.526, 12787.11
1073.008, 12821.07
1073.490, 12831.31
1073.972, 12793.93
1074.454, 12756.96
1074.937, 12754.42
1075.419, 12762.37
1075.901, 12761.87
1076.383, 12761.38
1076.865, 12779.45
1077.347, 12806.02
1077.829, 12806.37
1078.311, 12768.12
1078.793, 12746.79
1079.276, 12771.23
1079.758, 12805.88
1080.240, 12856.37
1080.722, 12891.44
1081.204, 12870.97
1081.686, 12825.46
1082.168, 12811.51
1082.650, 12835.11
1083.132, 12849.32
1083.615, 12848.44
1084.097, 12837.27
1084.579, 12794.83
1085.061, 12768.03
1085.543, 12795.86
1086.025, 12835.57
1086.507, 12838.01
1086.989, 12809.06
1087.472, 12787.89
1087.954, 12767.23
1088.436, 12775.89
1088.918, 12834.88
1089.400, 12872.76
1089.882, 12861.49
1090.364, 12837.42
1090.846, 12828.04
1091.328, 12830.00
1091.811, 12840.28
1092.293, 12861.34
1092.775, 12829.43
1093.257, 12734.62
1093.739, 12698.29
1094.221, 12749.43
1094.703, 12807.05
1095.185, 12826.23
1095.667, 12819.40
1096.150, 12796.85
1096.632, 12767.69
1097.114, 12772.18
1097.596, 12802.42
1098.078, 12814.09
1098.560, 12805.24
1099.042, 12801.97
1099.524, 12812.88
1100.007, 12814.24
1100.489, 12778.14
1100.971, 12741.75
1101.453, 12775.47
1101.935, 12838.86
1102.417, 12857.10
1102.899, 12842.93
1103.381, 12836.86
1103.864, 12845.99
1104.346, 12856.48
1104.828, 12862.46
1105.310, 12862.78
1105.792, 12847.08
1106.274, 12835.56
1106.756, 12854.64
1107.238, 12881.19
1107.720, 12881.35
1108.203, 12864.95
1108.685, 12869.84
1109.167, 12906.45
1109.649, 12921.88
1110.131, 12874.92
1110.613, 12835.96
1111.095, 12829.88
1111.577, 12838.17
1112.059, 12858.83
1112.542, 12880.46
1113.024, 12885.11
1113.506, 12873.58
1113.988, 12869.98
1114.470, 12881.33
1114.952, 12888.47
1115.434, 12891.45
1115.916, 12889.70
1116.399, 12881.01
1116.881, 12871.30
1117.363, 12867.22
1117.845, 12863.77
1118.327, 12844.88
1118.809, 12808.30
1119.291, 12797.67
1119.773, 12814.55
1120.255, 12849.92
1120.738, 12905.13
1121.220, 12945.27
1121.702, 12952.55
1122.184, 12935.33
1122.666, 12897.90
1123.148, 12852.44
1123.630, 12835.64
1124.112, 12841.68
1124.594, 12849.81
1125.077, 12858.71
1125.559, 12878.59
1126.041, 12908.35
1126.523, 12914.78
1127.005, 12870.01
1127.487, 12818.30
1127.969, 12803.92
1128.451, 12813.20
1128.934, 12836.88
1129.416, 12868.05
1129.898, 12908.40
1130.380, 12946.13
1130.862, 12948.09
1131.344, 12902.36
1131.826, 12851.05
1132.308, 12794.45
1132.791, 12763.07
1133.273, 12795.50
1133.755, 12832.28
1134.237, 12821.70
1134.719, 12791.38
1135.201, 12784.32
1135.683, 12802.21
1136.165, 12823.98
1136.647, 12862.90
1137.130, 12877.83
1137.612, 12847.04
1138.094, 12932.47
1138.576, 12972.50
1139.058, 12993.15
1139.540, 12995.45
1140.022, 12924.48
1140.504, 12948.13
1140.986, 12933.86
1141.469, 12918.03
1141.951, 12955.00
1142.433, 12894.69
1142.915, 12930.82
1143.397, 12928.45
1143.879, 12943.71
1144.361, 12920.81
1144.843, 12909.69
1145.326, 12936.73
1145.808, 12942.65
1146.290, 12721.03
1146.772, 12703.13
1147.254, 12709.54
1147.736, 12750.74
1148.218, 12813.61
1148.700, 12832.23
1149.182, 12770.80
1149.665, 12704.73
1150.147, 12686.73
1150.629, 12691.69
1151.111, 12721.67
1151.593, 12745.78
1152.075, 12718.02
1152.557, 12666.31
1153.039, 12653.56
1153.521, 12685.23
1154.004, 12694.60
1154.486, 12639.51
1154.968, 12606.80
1155.450, 12628.40
1155.932, 12647.39
1156.414, 12644.30
1156.896, 12629.86
1157.378, 12602.01
1157.861, 12577.46
1158.343, 12605.42
1158.825, 12692.85
1159.307, 12714.97
1159.789, 12659.65
1160.271, 12633.40
1160.753, 12654.39
1161.235, 12671.47
1161.718, 12661.68
1162.200, 12639.64
1162.682, 12620.20
1163.164, 12599.60
1163.646, 12564.14
1164.128, 12523.47
1164.610, 12501.89
1165.092, 12498.09
1165.574, 12506.91
1166.057, 12524.96
1166.539, 12548.18
1167.021, 12575.72
1167.503, 12588.72
1167.985, 12558.30
1168.467, 12526.78
1168.949, 12525.03
1169.431, 12536.19
1169.913, 12555.19
1170.396, 12570.10
1170.878, 12556.83
1171.360, 12518.42
1171.842, 12501.83
1172.324, 12534.01
1172.806, 12546.55
1173.288, 12531.72
1173.770, 12500.60
1174.253, 12430.73
1174.735, 12391.25
1175.217, 12448.85
1175.699, 12534.42
1176.181, 12520.25
1176.663, 12421.42
1177.145, 12382.68
1177.627, 12403.81
1178.109, 12418.80
1178.592, 12422.11
1179.074, 12430.38
1179.556, 12448.31
1180.038, 12460.77
1180.520, 12456.93
1181.002, 12441.86
1181.484, 12406.59
1181.966, 12376.73
1182.448, 12408.83
1182.931, 12462.36
1183.413, 12470.97
1183.895, 12438.48
1184.377, 12389.50
1184.859, 12333.24
1185.341, 12298.72
1185.823, 12299.22
1186.305, 12321.12
1186.788, 12393.56
1187.270, 12445.35
1187.752, 12427.36
1188.234, 12383.64
1188.716, 12346.40
1189.198, 12320.91
1189.680, 12322.77
1190.162, 12355.71
1190.645, 12369.01
1191.127, 12359.04
1191.609, 12346.09
1192.091, 12331.62
1192.573, 12319.14
1193.055, 12308.52
1193.537, 12326.05
1194.019, 12404.67
1194.501, 12491.91
1194.984, 12476.87
1195.466, 12404.09
1195.948, 12371.18
1196.430, 12369.87
1196.912, 12384.34
1197.394, 12401.35
1197.876, 12385.06
1198.358, 12326.55
1198.840, 12288.34
1199.323, 12324.34
1199.805, 12359.56
1200.287, 12351.43
1200.769, 12337.37
1201.251, 12345.19
1201.733, 12356.63
1202.215, 12344.14
1202.697, 12318.24
1203.180, 12319.35
1203.662, 12354.56
1204.144, 12360.04
1204.626, 12325.00
1205.108, 12298.44
1205.590, 12287.33
1206.072, 12277.80
1206.554, 12262.95
1207.036, 12261.20
1207.519, 12293.95
1208.001, 12335.06
1208.483, 12320.72
1208.965, 12280.94
1209.447, 12308.36
1209.929, 12371.83
1210.411, 12387.23
1210.893, 12356.56
1211.375, 12325.28
1211.858, 12309.06
1212.340, 12305.66
1212.822, 12326.29
1213.304, 12336.46
1213.786, 12308.25
1214.268, 12277.89
1214.750, 12262.99
1215.232, 12259.57
1215.715, 12269.44
1216.197, 12284.90
1216.679, 12287.94
1217.161, 12277.95
1217.643, 12268.70
1218.125, 12260.23
1218.607, 12251.32
1219.089, 12240.94
1219.572, 12239.74
1220.054, 12252.11
1220.536, 12257.16
1221.018, 12237.40
1221.500, 12212.15
1221.982, 12208.41
1222.464, 12221.31
1222.946, 12248.73
1223.428, 12281.50
1223.911, 12313.25
1224.393, 12332.32
1224.875, 12305.47
1225.357, 12234.62
1225.839, 12182.67
1226.321, 12174.73
1226.803, 12184.00
1227.285, 12222.67
1227.767, 12248.68
1228.250, 12229.11
1228.732, 12210.50
1229.214, 12224.55
1229.696, 12255.17
1230.178, 12282.94
1230.660, 12305.40
1231.142, 12301.69
1231.624, 12270.17
1232.107, 12273.34
1232.589, 12310.86
1233.071, 12317.94
1233.553, 12284.89
1234.035, 12275.00
1234.517, 12320.23
1234.999, 12351.74
1235.481, 12285.36
1235.964, 12200.83
1236.446, 12173.54
1236.928, 12181.17
1237.410, 12229.25
1237.892, 12276.26
1238.374, 12245.34
1238.856, 12162.46
1239.338, 12147.01
1239.820, 12238.60
1240.302, 12275.37
1240.785, 12210.74
1241.267, 12173.66
1241.749, 12188.08
1242.231, 12200.56
1242.713, 12188.56
1243.195, 12177.28
1243.677, 12188.51
1244.159, 12214.38
1244.641, 12250.28
1245.124, 12284.85
1245.606, 12284.76
1246.088, 12250.01
##END=



