##NAMES=Uralborite
##RRUFFID=R061140
##IDEAL CHEMISTRY=CaB_2_O_2_(OH)_4_
##LOCALITY=Fuka mine, Bicchu-cho, Okayama Prefecture, Japan
##OWNER=RRUFF
##SOURCE=Michael Scott
##DESCRIPTION=Colorless massive
##STATUS=The identification of this mineral has been confirmed by single-crystal X-ray diffraction.
##URL=rruff.info/R061140
128.5417, 679.4305
129.0238, 719.7502
129.5060, 765.1843
129.9881, 811.4955
130.4702, 870.6406
130.9523, 921.5782
131.4344, 949.8945
131.9165, 955.6374
132.3987, 947.9807
132.8808, 930.8658
133.3629, 904.4925
133.8450, 880.5865
134.3271, 865.2897
134.8092, 849.1599
135.2914, 820.0023
135.7735, 776.3538
136.2556, 735.1289
136.7377, 711.6541
137.2198, 703.5770
137.7019, 700.5007
138.1841, 699.1591
138.6662, 702.5457
139.1483, 715.0934
139.6304, 737.7727
140.1125, 766.7279
140.5946, 801.8710
141.0768, 841.2435
141.5589, 881.1207
142.0410, 916.3444
142.5231, 951.9664
143.0052, 1001.987
143.4873, 1075.674
143.9695, 1143.064
144.4516, 1184.966
144.9337, 1205.368
145.4158, 1211.288
145.8979, 1197.485
146.3800, 1170.960
146.8622, 1153.259
147.3443, 1146.968
147.8264, 1147.182
148.3085, 1153.356
148.7906, 1163.132
149.2727, 1170.375
149.7549, 1169.343
150.2370, 1161.738
150.7191, 1157.962
151.2012, 1159.669
151.6833, 1163.654
152.1654, 1167.705
152.6476, 1172.344
153.1297, 1178.987
153.6118, 1190.916
154.0939, 1207.495
154.5760, 1217.697
155.0581, 1220.179
155.5403, 1216.694
156.0224, 1207.754
156.5045, 1193.748
156.9866, 1175.461
157.4687, 1152.910
157.9508, 1125.942
158.4330, 1097.762
158.9151, 1062.819
159.3972, 1032.100
159.8793, 1009.898
160.3614, 995.2269
160.8435, 984.9032
161.3257, 976.3716
161.8078, 969.6050
162.2899, 965.5323
162.7720, 962.8426
163.2541, 964.3694
163.7362, 971.8687
164.2184, 984.7774
164.7005, 1001.747
165.1826, 1023.563
165.6647, 1051.800
166.1468, 1068.694
166.6289, 1074.915
167.1111, 1069.241
167.5932, 1045.653
168.0753, 1008.250
168.5574, 967.5486
169.0395, 932.2016
169.5216, 902.9200
170.0038, 875.0358
170.4859, 846.6469
170.9680, 821.2665
171.4501, 798.5651
171.9322, 779.6727
172.4143, 767.0500
172.8965, 763.4365
173.3786, 769.8339
173.8607, 777.3597
174.3428, 790.9074
174.8249, 801.0403
175.3070, 801.1638
175.7892, 793.6348
176.2713, 786.3772
176.7534, 786.4258
177.2355, 794.6797
177.7176, 802.5503
178.1997, 809.9514
178.6819, 817.1787
179.1640, 823.5419
179.6461, 829.6580
180.1282, 837.4302
180.6103, 848.9166
181.0924, 864.7541
181.5745, 876.1283
182.0567, 876.7172
182.5388, 879.7562
183.0209, 891.4546
183.5030, 910.8583
183.9851, 933.4264
184.4672, 955.3933
184.9494, 976.5865
185.4315, 1001.709
185.9136, 1037.091
186.3957, 1069.408
186.8778, 1094.727
187.3599, 1112.401
187.8421, 1121.564
188.3242, 1120.107
188.8063, 1108.121
189.2884, 1104.397
189.7705, 1112.694
190.2526, 1123.472
190.7348, 1131.318
191.2169, 1138.119
191.6990, 1149.694
192.1811, 1170.161
192.6632, 1199.199
193.1453, 1231.310
193.6275, 1265.389
194.1096, 1302.963
194.5917, 1352.462
195.0738, 1406.889
195.5559, 1448.640
196.0380, 1466.159
196.5202, 1461.899
197.0023, 1455.841
197.4844, 1450.770
197.9665, 1441.544
198.4486, 1422.771
198.9307, 1398.192
199.4129, 1375.990
199.8950, 1360.082
200.3771, 1350.433
200.8592, 1347.551
201.3413, 1357.337
201.8234, 1365.587
202.3056, 1372.140
202.7877, 1374.080
203.2698, 1364.318
203.7519, 1338.144
204.2340, 1300.247
204.7161, 1267.352
205.1983, 1250.409
205.6804, 1223.594
206.1625, 1173.417
206.6446, 1110.111
207.1267, 1050.680
207.6088, 1001.742
208.0910, 962.1066
208.5731, 929.9084
209.0552, 906.6172
209.5373, 886.6825
210.0194, 865.6240
210.5015, 848.2071
210.9837, 843.8445
211.4658, 856.8904
211.9479, 878.4712
212.4300, 890.9187
212.9121, 889.1920
213.3942, 890.5294
213.8764, 899.2928
214.3585, 911.8993
214.8406, 924.5751
215.3227, 936.4635
215.8048, 946.6152
216.2869, 952.9650
216.7691, 953.3039
217.2512, 956.5184
217.7333, 966.5339
218.2154, 978.3535
218.6975, 984.8791
219.1796, 984.6539
219.6618, 985.5253
220.1439, 998.6859
220.6260, 1030.052
221.1081, 1050.958
221.5902, 1052.922
222.0723, 1048.677
222.5545, 1051.212
223.0366, 1061.639
223.5187, 1068.956
224.0008, 1060.538
224.4829, 1032.366
224.9650, 1011.987
225.4472, 1002.342
225.9293, 997.8796
226.4114, 996.8886
226.8935, 998.3542
227.3756, 998.5044
227.8577, 993.3074
228.3399, 982.5734
228.8220, 978.2393
229.3041, 989.1983
229.7862, 998.0172
230.2683, 992.2288
230.7504, 974.9639
231.2325, 959.8505
231.7147, 957.1010
232.1968, 965.1997
232.6789, 964.5571
233.1610, 946.7949
233.6431, 930.8481
234.1252, 923.2044
234.6074, 922.7115
235.0895, 926.8432
235.5716, 935.0037
236.0537, 945.5912
236.5358, 951.3212
237.0179, 946.3484
237.5001, 944.0842
237.9822, 952.1183
238.4643, 963.7708
238.9464, 967.3347
239.4285, 957.3115
239.9106, 939.6587
240.3928, 929.5862
240.8749, 930.1198
241.3570, 934.2626
241.8391, 947.2782
242.3212, 961.3323
242.8033, 966.7348
243.2855, 960.5554
243.7676, 948.3739
244.2497, 938.9518
244.7318, 930.0973
245.2139, 929.4377
245.6960, 942.7678
246.1782, 960.3911
246.6603, 975.6677
247.1424, 986.9728
247.6245, 995.2473
248.1066, 1002.006
248.5887, 1008.730
249.0709, 1007.405
249.5530, 993.9360
250.0351, 977.0827
250.5172, 960.2650
250.9993, 944.5267
251.4814, 930.9562
251.9636, 920.6886
252.4457, 914.0221
252.9278, 907.6306
253.4099, 907.0991
253.8920, 901.3850
254.3741, 881.4976
254.8563, 852.9691
255.3384, 828.4088
255.8205, 816.7748
256.3026, 816.5294
256.7847, 812.6094
257.2668, 798.1123
257.7490, 787.3898
258.2311, 782.8250
258.7132, 783.4451
259.1953, 788.5100
259.6774, 797.8682
260.1595, 809.6307
260.6417, 818.5240
261.1238, 826.1201
261.6059, 827.7225
262.0880, 815.7167
262.5701, 801.7480
263.0522, 797.8768
263.5344, 807.5509
264.0165, 823.2939
264.4986, 832.1636
264.9807, 830.4875
265.4628, 830.4839
265.9449, 825.6047
266.4271, 827.5341
266.9092, 848.3765
267.3913, 887.0600
267.8734, 928.3658
268.3555, 953.6794
268.8376, 958.9355
269.3198, 971.7263
269.8019, 996.6262
270.2840, 1025.783
270.7661, 1061.822
271.2482, 1100.680
271.7303, 1132.653
272.2125, 1150.007
272.6946, 1153.628
273.1767, 1152.475
273.6588, 1147.246
274.1409, 1135.412
274.6230, 1113.662
275.1052, 1086.079
275.5873, 1058.893
276.0694, 1035.500
276.5515, 1014.233
277.0336, 990.5421
277.5157, 962.8516
277.9979, 937.0910
278.4800, 916.2026
278.9621, 897.8088
279.4442, 879.7964
279.9263, 861.6853
280.4084, 843.6906
280.8906, 825.2856
281.3727, 806.2008
281.8548, 790.1688
282.3369, 778.0943
282.8190, 769.9339
283.3011, 766.8996
283.7833, 769.2405
284.2654, 770.9778
284.7475, 766.4074
285.2296, 757.0765
285.7117, 751.3412
286.1938, 752.6615
286.6760, 754.2335
287.1581, 748.1373
287.6402, 736.0749
288.1223, 727.3803
288.6044, 728.0771
289.0865, 733.7259
289.5687, 737.8159
290.0508, 740.1838
290.5329, 739.3639
291.0150, 730.3688
291.4971, 717.0003
291.9792, 711.6555
292.4614, 720.4819
292.9435, 734.4017
293.4256, 748.3530
293.9077, 761.8980
294.3898, 771.0562
294.8719, 771.8387
295.3541, 768.2062
295.8362, 771.4689
296.3183, 783.5673
296.8004, 798.4005
297.2825, 814.9200
297.7646, 832.3751
298.2468, 849.2263
298.7289, 864.8226
299.2110, 880.3637
299.6931, 898.4678
300.1752, 920.9599
300.6573, 940.4943
301.1395, 954.3779
301.6216, 966.2271
302.1037, 977.9407
302.5858, 990.3597
303.0679, 1006.722
303.5500, 1031.601
304.0322, 1067.517
304.5143, 1093.152
304.9964, 1101.423
305.4785, 1107.729
305.9606, 1119.410
306.4427, 1135.309
306.9248, 1150.371
307.4070, 1160.878
307.8891, 1168.109
308.3712, 1180.193
308.8533, 1198.469
309.3354, 1220.494
309.8175, 1246.902
310.2997, 1276.585
310.7818, 1310.040
311.2639, 1347.167
311.7460, 1384.224
312.2281, 1413.678
312.7102, 1430.247
313.1924, 1450.433
313.6745, 1481.636
314.1566, 1511.193
314.6387, 1529.839
315.1208, 1537.454
315.6029, 1541.136
316.0851, 1547.806
316.5672, 1557.661
317.0493, 1566.108
317.5314, 1574.694
318.0135, 1579.741
318.4956, 1580.211
318.9778, 1576.251
319.4599, 1567.643
319.9420, 1552.462
320.4241, 1534.118
320.9062, 1522.917
321.3883, 1522.636
321.8705, 1518.715
322.3526, 1501.062
322.8347, 1478.750
323.3168, 1459.977
323.7989, 1446.286
324.2810, 1437.723
324.7632, 1437.345
325.2453, 1444.364
325.7274, 1446.485
326.2095, 1436.991
326.6916, 1425.888
327.1737, 1427.675
327.6559, 1442.181
328.1380, 1447.351
328.6201, 1430.184
329.1022, 1398.394
329.5843, 1363.836
330.0664, 1327.546
330.5486, 1290.749
331.0307, 1254.127
331.5128, 1217.710
331.9949, 1182.319
332.4770, 1149.914
332.9591, 1116.774
333.4413, 1076.597
333.9234, 1032.515
334.4055, 997.1992
334.8876, 978.6633
335.3697, 970.8260
335.8518, 953.7775
336.3340, 916.7044
336.8161, 887.9777
337.2982, 876.9391
337.7803, 874.6431
338.2624, 872.1078
338.7445, 866.7047
339.2267, 858.4858
339.7088, 846.5012
340.1909, 826.7563
340.6730, 817.7375
341.1551, 827.2383
341.6372, 838.5080
342.1194, 842.3220
342.6015, 840.1973
343.0836, 838.5632
343.5657, 841.8369
344.0478, 849.7012
344.5299, 860.3099
345.0121, 879.7637
345.4942, 893.4011
345.9763, 890.8146
346.4584, 884.7666
346.9405, 890.7020
347.4226, 914.1375
347.9048, 944.0255
348.3869, 963.4526
348.8690, 970.2310
349.3511, 977.6495
349.8332, 985.8538
350.3153, 996.7429
350.7975, 1013.487
351.2796, 1034.965
351.7617, 1054.793
352.2438, 1066.335
352.7259, 1072.653
353.2080, 1084.861
353.6902, 1104.935
354.1723, 1125.893
354.6544, 1143.478
355.1365, 1158.881
355.6186, 1173.964
356.1007, 1189.236
356.5829, 1204.049
357.0650, 1219.322
357.5471, 1234.192
358.0292, 1243.612
358.5113, 1245.136
358.9934, 1240.946
359.4756, 1232.397
359.9577, 1216.572
360.4398, 1209.107
360.9219, 1220.077
361.4040, 1238.462
361.8861, 1252.564
362.3683, 1260.499
362.8504, 1263.926
363.3325, 1263.006
363.8146, 1257.220
364.2967, 1259.602
364.7788, 1278.426
365.2610, 1295.415
365.7431, 1301.112
366.2252, 1300.143
366.7073, 1301.541
367.1894, 1309.747
367.6715, 1322.231
368.1537, 1332.843
368.6358, 1344.511
369.1179, 1348.728
369.6000, 1343.861
370.0821, 1333.422
370.5642, 1319.309
371.0464, 1302.068
371.5285, 1281.843
372.0106, 1258.483
372.4927, 1231.957
372.9748, 1204.370
373.4569, 1177.154
373.9391, 1146.769
374.4212, 1108.413
374.9033, 1067.229
375.3854, 1031.310
375.8675, 1005.411
376.3496, 983.5475
376.8318, 954.3912
377.3139, 917.0834
377.7960, 889.4611
378.2781, 879.8579
378.7602, 880.4988
379.2423, 882.7961
379.7245, 886.9968
380.2066, 888.5544
380.6887, 881.1704
381.1708, 871.0593
381.6529, 870.0257
382.1350, 880.0089
382.6172, 891.2930
383.0993, 894.4191
383.5814, 890.9045
384.0635, 897.9177
384.5456, 929.7689
385.0277, 957.2004
385.5099, 963.5717
385.9920, 955.9742
386.4741, 948.9710
386.9562, 948.5572
387.4383, 951.5067
387.9204, 951.4778
388.4026, 945.7886
388.8847, 942.0157
389.3668, 941.0655
389.8489, 941.1390
390.3310, 943.2758
390.8131, 945.8842
391.2953, 943.4241
391.7774, 929.2093
392.2595, 905.5403
392.7416, 896.9507
393.2237, 917.1712
393.7058, 932.4968
394.1880, 930.5566
394.6701, 921.4700
395.1522, 916.9626
395.6343, 920.9395
396.1164, 926.7261
396.5985, 927.2147
397.0807, 922.4070
397.5628, 912.0194
398.0449, 889.6122
398.5270, 870.1473
399.0091, 867.9195
399.4912, 879.5449
399.9734, 889.2708
400.4555, 889.8779
400.9376, 886.2837
401.4197, 882.0525
401.9018, 877.6516
402.3839, 879.4709
402.8660, 892.5614
403.3481, 913.0320
403.8303, 929.3251
404.3124, 939.7813
404.7945, 950.2383
405.2766, 963.7128
405.7587, 977.2595
406.2408, 986.6168
406.7230, 991.2427
407.2051, 995.1323
407.6872, 1002.471
408.1693, 1013.615
408.6514, 1024.914
409.1335, 1034.568
409.6157, 1046.310
410.0978, 1061.059
410.5799, 1078.750
411.0620, 1098.944
411.5441, 1121.491
412.0262, 1146.683
412.5084, 1175.447
412.9905, 1208.601
413.4726, 1242.565
413.9547, 1280.174
414.4368, 1315.566
414.9189, 1342.839
415.4011, 1363.704
415.8832, 1387.383
416.3653, 1421.426
416.8474, 1461.759
417.3295, 1496.696
417.8116, 1523.874
418.2938, 1560.754
418.7759, 1621.926
419.2580, 1696.556
419.7401, 1762.507
420.2222, 1818.198
420.7043, 1868.314
421.1865, 1909.281
421.6686, 1947.743
422.1507, 1995.782
422.6328, 2056.017
423.1149, 2121.733
423.5970, 2187.489
424.0792, 2254.040
424.5613, 2311.548
425.0434, 2364.972
425.5255, 2405.709
426.0076, 2425.572
426.4897, 2431.352
426.9719, 2435.650
427.4540, 2444.079
427.9361, 2450.054
428.4182, 2440.209
428.9003, 2410.956
429.3824, 2374.968
429.8646, 2328.571
430.3467, 2279.384
430.8288, 2228.833
431.3109, 2178.620
431.7930, 2132.674
432.2751, 2095.198
432.7573, 2062.700
433.2394, 2024.902
433.7215, 1979.779
434.2036, 1940.162
434.6857, 1911.383
435.1678, 1891.474
435.6500, 1876.770
436.1321, 1867.338
436.6142, 1862.854
437.0963, 1867.074
437.5784, 1874.797
438.0605, 1874.169
438.5427, 1863.718
439.0248, 1861.222
439.5069, 1884.818
439.9890, 1932.496
440.4711, 1961.625
440.9532, 1965.505
441.4354, 1962.172
441.9175, 1952.605
442.3996, 1940.348
442.8817, 1930.688
443.3638, 1924.950
443.8459, 1918.472
444.3281, 1904.576
444.8102, 1881.892
445.2923, 1858.398
445.7744, 1842.034
446.2565, 1816.239
446.7386, 1768.605
447.2208, 1708.447
447.7029, 1653.146
448.1850, 1611.708
448.6671, 1576.290
449.1492, 1535.552
449.6313, 1489.296
450.1135, 1442.898
450.5956, 1396.380
451.0777, 1352.047
451.5598, 1310.153
452.0419, 1270.823
452.5240, 1241.385
453.0062, 1229.266
453.4883, 1224.241
453.9704, 1218.392
454.4525, 1211.013
454.9346, 1200.582
455.4167, 1185.028
455.8989, 1168.306
456.3810, 1161.485
456.8631, 1175.434
457.3452, 1184.145
457.8273, 1186.016
458.3094, 1183.462
458.7916, 1176.647
459.2737, 1166.797
459.7558, 1157.254
460.2379, 1151.114
460.7200, 1147.431
461.2021, 1140.447
461.6843, 1129.231
462.1664, 1116.428
462.6485, 1102.022
463.1306, 1086.936
463.6127, 1073.583
464.0948, 1062.364
464.5770, 1046.508
465.0591, 1017.023
465.5412, 979.3943
466.0233, 947.5164
466.5054, 922.7086
466.9875, 903.9789
467.4697, 892.7659
467.9518, 887.4460
468.4339, 879.4554
468.9160, 867.2373
469.3981, 854.3892
469.8802, 839.5440
470.3624, 825.7864
470.8445, 818.6259
471.3266, 818.8311
471.8087, 820.7543
472.2908, 817.6335
472.7729, 808.5938
473.2551, 805.0673
473.7372, 808.8995
474.2193, 816.7128
474.7014, 832.9954
475.1835, 850.8566
475.6656, 861.3176
476.1478, 861.2216
476.6299, 856.4662
477.1120, 850.6512
477.5941, 844.3478
478.0762, 850.9641
478.5583, 879.6677
479.0405, 907.4459
479.5226, 914.0280
480.0047, 906.1241
480.4868, 899.0883
480.9689, 893.1881
481.4510, 891.8660
481.9332, 899.5300
482.4153, 913.2493
482.8974, 927.0089
483.3795, 938.9147
483.8616, 949.2164
484.3438, 957.5981
484.8259, 962.7830
485.3080, 972.6057
485.7901, 993.4520
486.2722, 1011.356
486.7543, 1018.688
487.2365, 1020.085
487.7186, 1023.085
488.2007, 1030.855
488.6828, 1041.774
489.1649, 1054.208
489.6470, 1068.559
490.1292, 1080.340
490.6113, 1087.184
491.0934, 1093.837
491.5755, 1104.386
492.0576, 1117.198
492.5397, 1127.881
493.0219, 1134.704
493.5040, 1139.335
493.9861, 1143.302
494.4682, 1146.321
494.9503, 1146.596
495.4324, 1143.067
495.9146, 1139.507
496.3967, 1141.751
496.8788, 1152.392
497.3609, 1155.695
497.8430, 1141.256
498.3251, 1130.715
498.8073, 1137.696
499.2894, 1154.474
499.7715, 1167.400
500.2536, 1170.662
500.7357, 1168.030
501.2178, 1165.196
501.6999, 1162.185
502.1820, 1158.757
502.6642, 1154.522
503.1463, 1150.309
503.6284, 1145.389
504.1105, 1140.910
504.5926, 1139.703
505.0747, 1144.151
505.5569, 1149.984
506.0390, 1154.174
506.5211, 1156.536
507.0032, 1155.189
507.4853, 1148.852
507.9674, 1143.050
508.4496, 1144.262
508.9317, 1153.431
509.4138, 1163.241
509.8959, 1173.747
510.3780, 1184.810
510.8601, 1197.800
511.3423, 1210.899
511.8244, 1220.422
512.3065, 1225.322
512.7886, 1230.101
513.2708, 1241.632
513.7529, 1260.824
514.2350, 1278.196
514.7171, 1289.885
515.1992, 1305.236
515.6813, 1331.130
516.1635, 1362.873
516.6456, 1391.965
517.1277, 1414.891
517.6098, 1438.643
518.0919, 1471.902
518.5740, 1509.795
519.0562, 1539.056
519.5383, 1556.649
520.0204, 1574.175
520.5025, 1603.483
520.9846, 1644.025
521.4667, 1674.656
521.9489, 1693.479
522.4310, 1706.222
522.9131, 1711.241
523.3952, 1712.385
523.8773, 1714.189
524.3594, 1717.312
524.8416, 1718.490
525.3237, 1715.184
525.8058, 1707.214
526.2879, 1692.846
526.7700, 1672.535
527.2521, 1644.448
527.7343, 1599.446
528.2164, 1549.960
528.6985, 1511.202
529.1806, 1486.671
529.6627, 1461.215
530.1448, 1424.610
530.6270, 1384.084
531.1091, 1349.132
531.5912, 1320.554
532.0733, 1294.115
532.5554, 1266.625
533.0375, 1240.120
533.5197, 1222.463
534.0018, 1226.661
534.4839, 1220.645
534.9660, 1196.175
535.4481, 1167.702
535.9302, 1142.795
536.4124, 1122.964
536.8945, 1108.433
537.3766, 1100.142
537.8587, 1096.173
538.3408, 1093.336
538.8229, 1091.910
539.3051, 1087.776
539.7872, 1077.534
540.2693, 1066.918
540.7514, 1064.490
541.2335, 1069.639
541.7156, 1070.091
542.1978, 1059.018
542.6799, 1046.457
543.1620, 1041.016
543.6441, 1039.304
544.1262, 1031.564
544.6083, 1014.021
545.0905, 995.2129
545.5726, 989.2124
546.0547, 999.8528
546.5368, 1005.288
547.0189, 1001.618
547.5010, 996.8954
547.9832, 990.1379
548.4653, 985.1882
548.9474, 988.9362
549.4295, 1004.667
549.9116, 1021.353
550.3937, 1026.757
550.8759, 1025.219
551.3579, 1029.879
551.8400, 1042.513
552.3221, 1059.728
552.8043, 1080.157
553.2864, 1102.934
553.7685, 1123.503
554.2506, 1138.291
554.7327, 1155.888
555.2148, 1179.242
555.6970, 1204.725
556.1791, 1231.691
556.6612, 1258.186
557.1433, 1278.563
557.6254, 1287.543
558.1075, 1288.740
558.5897, 1293.565
559.0718, 1301.867
559.5539, 1314.545
560.0360, 1334.866
560.5181, 1357.046
561.0002, 1373.816
561.4824, 1386.129
561.9645, 1404.386
562.4466, 1441.844
562.9287, 1477.916
563.4108, 1493.076
563.8929, 1493.412
564.3751, 1495.162
564.8572, 1504.113
565.3393, 1516.245
565.8214, 1527.387
566.3035, 1539.966
566.7856, 1537.128
567.2678, 1510.875
567.7499, 1477.220
568.2320, 1432.590
568.7141, 1386.403
569.1962, 1351.592
569.6783, 1331.945
570.1605, 1314.407
570.6426, 1285.408
571.1247, 1250.494
571.6068, 1226.296
572.0889, 1214.472
572.5710, 1201.448
573.0532, 1177.502
573.5353, 1148.124
574.0174, 1129.177
574.4995, 1126.537
574.9816, 1122.868
575.4637, 1111.037
575.9459, 1102.805
576.4280, 1110.651
576.9101, 1129.280
577.3922, 1142.333
577.8743, 1139.476
578.3564, 1131.597
578.8386, 1140.202
579.3207, 1166.318
579.8028, 1194.206
580.2849, 1226.791
580.7670, 1252.196
581.2491, 1257.107
581.7313, 1246.796
582.2134, 1235.632
582.6955, 1226.437
583.1776, 1215.385
583.6597, 1202.289
584.1418, 1185.590
584.6240, 1161.121
585.1061, 1129.361
585.5882, 1097.913
586.0703, 1073.874
586.5524, 1055.806
587.0345, 1034.597
587.5167, 1007.408
587.9988, 983.2625
588.4809, 961.5933
588.9630, 945.5787
589.4451, 940.4031
589.9272, 944.5403
590.4094, 947.3997
590.8915, 941.4346
591.3736, 934.1827
591.8557, 933.6689
592.3378, 938.4090
592.8199, 943.8546
593.3021, 948.6167
593.7842, 952.3997
594.2663, 954.2912
594.7484, 953.6465
595.2305, 957.3821
595.7126, 966.9390
596.1948, 979.4487
596.6769, 997.2794
597.1590, 1016.101
597.6411, 1031.090
598.1232, 1041.550
598.6053, 1051.252
599.0875, 1059.050
599.5696, 1069.406
600.0517, 1096.751
600.5338, 1140.633
601.0159, 1174.263
601.4980, 1182.979
601.9802, 1181.301
602.4623, 1193.527
602.9444, 1224.667
603.4265, 1254.288
603.9086, 1279.767
604.3907, 1306.396
604.8729, 1339.104
605.3550, 1373.790
605.8371, 1401.342
606.3192, 1419.170
606.8013, 1440.565
607.2834, 1481.839
607.7656, 1540.288
608.2477, 1599.043
608.7298, 1656.151
609.2119, 1721.321
609.6940, 1801.549
610.1761, 1891.540
610.6583, 1979.371
611.1404, 2063.170
611.6225, 2151.882
612.1046, 2246.794
612.5867, 2346.907
613.0688, 2452.826
613.5510, 2563.583
614.0331, 2678.084
614.5152, 2796.084
614.9973, 2916.161
615.4794, 3037.013
615.9615, 3159.303
616.4437, 3281.121
616.9258, 3399.704
617.4079, 3525.428
617.8900, 3669.312
618.3721, 3823.591
618.8542, 3971.499
619.3364, 4109.573
619.8185, 4248.180
620.3006, 4387.858
620.7827, 4531.423
621.2648, 4682.834
621.7469, 4839.335
622.2291, 4991.130
622.7112, 5132.503
623.1933, 5271.862
623.6754, 5430.736
624.1575, 5613.806
624.6396, 5779.571
625.1218, 5936.609
625.6039, 6057.730
626.0860, 6121.849
626.5681, 6141.242
627.0502, 6133.663
627.5323, 6102.471
628.0145, 6041.170
628.4966, 5949.832
628.9787, 5824.875
629.4608, 5651.572
629.9429, 5438.102
630.4250, 5213.744
630.9072, 4994.214
631.3893, 4775.379
631.8714, 4549.198
632.3535, 4314.547
632.8356, 4077.109
633.3177, 3824.582
633.7999, 3585.689
634.2820, 3377.718
634.7641, 3194.170
635.2462, 3022.288
635.7283, 2860.347
636.2104, 2709.911
636.6926, 2573.463
637.1747, 2448.811
637.6568, 2332.403
638.1389, 2224.117
638.6210, 2127.348
639.1031, 2043.507
639.5853, 1969.119
640.0674, 1894.135
640.5495, 1816.299
641.0316, 1749.751
641.5137, 1703.002
641.9958, 1657.449
642.4780, 1599.984
642.9601, 1537.842
643.4422, 1482.162
643.9243, 1432.421
644.4064, 1396.066
644.8885, 1388.526
645.3707, 1388.827
645.8528, 1369.524
646.3349, 1333.305
646.8170, 1301.679
647.2991, 1286.679
647.7813, 1281.107
648.2634, 1269.747
648.7455, 1250.321
649.2276, 1237.004
649.7097, 1236.342
650.1918, 1233.162
650.6740, 1216.820
651.1561, 1194.026
651.6382, 1175.605
652.1203, 1164.052
652.6024, 1152.526
653.0845, 1133.119
653.5667, 1115.802
654.0488, 1114.155
654.5309, 1124.574
655.0130, 1132.601
655.4951, 1131.125
655.9772, 1125.738
656.4594, 1127.622
656.9415, 1138.899
657.4236, 1139.750
657.9057, 1124.984
658.3878, 1108.835
658.8699, 1097.860
659.3521, 1089.645
659.8342, 1080.115
660.3163, 1067.854
660.7984, 1060.247
661.2805, 1060.950
661.7626, 1066.129
662.2448, 1075.159
662.7269, 1085.706
663.2090, 1093.107
663.6911, 1095.560
664.1732, 1095.024
664.6553, 1094.211
665.1375, 1093.087
665.6196, 1088.758
666.1017, 1079.887
666.5838, 1071.805
667.0659, 1068.171
667.5480, 1065.458
668.0302, 1057.443
668.5123, 1043.210
668.9944, 1033.154
669.4765, 1034.496
669.9586, 1035.345
670.4407, 1027.086
670.9229, 1014.219
671.4050, 1003.847
671.8871, 998.1104
672.3692, 995.1909
672.8513, 995.6536
673.3334, 997.1032
673.8156, 986.0093
674.2977, 959.8257
674.7798, 941.0175
675.2619, 939.0377
675.7440, 944.0571
676.2261, 945.2126
676.7083, 942.2933
677.1904, 939.1512
677.6725, 937.0386
678.1546, 933.2969
678.6367, 926.1183
679.1188, 917.4437
679.6010, 909.1825
680.0831, 901.6569
680.5652, 894.1564
681.0473, 885.0942
681.5294, 877.0945
682.0115, 876.7634
682.4937, 883.2120
682.9758, 887.4378
683.4579, 887.8668
683.9400, 883.2802
684.4221, 870.4576
684.9042, 851.1271
685.3864, 840.5576
685.8685, 848.6537
686.3506, 851.9509
686.8327, 843.9618
687.3148, 834.9191
687.7969, 834.0197
688.2791, 838.1287
688.7612, 836.3888
689.2433, 821.5883
689.7254, 806.9218
690.2075, 808.5874
690.6896, 819.8654
691.1718, 824.4744
691.6539, 820.6967
692.1360, 815.9627
692.6181, 815.0983
693.1002, 815.7676
693.5823, 811.3541
694.0645, 797.6405
694.5466, 789.5203
695.0287, 791.7766
695.5108, 794.3398
695.9929, 791.7894
696.4750, 787.6268
696.9572, 788.2397
697.4393, 795.8377
697.9214, 800.4322
698.4035, 792.8197
698.8856, 782.8709
699.3677, 781.0635
699.8499, 786.0539
700.3320, 793.2540
700.8141, 800.7776
701.2962, 806.2560
701.7783, 805.8645
702.2604, 799.8936
702.7426, 796.8326
703.2247, 797.4171
703.7068, 798.5236
704.1889, 797.0525
704.6710, 797.5731
705.1531, 807.0009
705.6353, 824.9950
706.1174, 840.5401
706.5995, 854.0457
707.0816, 862.7320
707.5637, 860.6463
708.0458, 855.7865
708.5280, 858.1019
709.0101, 868.0911
709.4922, 878.9488
709.9743, 885.8113
710.4564, 890.7522
710.9385, 899.3964
711.4207, 910.8169
711.9028, 913.7471
712.3849, 904.1075
712.8670, 896.6640
713.3491, 903.6147
713.8312, 921.7032
714.3134, 936.2676
714.7955, 947.0983
715.2776, 954.4877
715.7597, 957.0553
716.2418, 957.7227
716.7239, 956.2578
717.2061, 954.5205
717.6882, 956.3152
718.1703, 963.4254
718.6524, 969.8787
719.1345, 969.4822
719.6166, 966.8134
720.0988, 968.0907
720.5809, 973.5459
721.0630, 982.4207
721.5451, 994.5203
722.0272, 1007.699
722.5093, 1018.420
722.9915, 1026.430
723.4736, 1038.976
723.9557, 1061.162
724.4378, 1076.250
724.9199, 1072.518
725.4020, 1063.933
725.8842, 1067.243
726.3663, 1081.889
726.8484, 1092.011
727.3305, 1094.601
727.8126, 1092.304
728.2947, 1078.836
728.7769, 1065.580
729.2590, 1069.962
729.7411, 1090.031
730.2232, 1105.312
730.7053, 1100.304
731.1874, 1087.673
731.6696, 1090.080
732.1517, 1105.477
732.6338, 1118.184
733.1159, 1125.240
733.5980, 1134.988
734.0801, 1153.461
734.5623, 1178.452
735.0444, 1203.260
735.5265, 1225.635
736.0086, 1252.323
736.4907, 1281.679
736.9728, 1317.050
737.4550, 1362.697
737.9371, 1413.948
738.4192, 1463.287
738.9013, 1509.154
739.3834, 1557.791
739.8655, 1609.710
740.3477, 1668.053
740.8298, 1740.882
741.3119, 1822.096
741.7940, 1897.688
742.2761, 1963.285
742.7582, 2021.042
743.2404, 2072.682
743.7225, 2118.495
744.2046, 2160.884
744.6867, 2200.121
745.1688, 2233.060
745.6509, 2261.295
746.1331, 2278.881
746.6152, 2283.842
747.0973, 2274.270
747.5794, 2239.256
748.0615, 2172.591
748.5436, 2090.987
749.0257, 1988.289
749.5078, 1878.166
749.9899, 1765.971
750.4720, 1654.720
750.9542, 1548.182
751.4363, 1447.118
751.9184, 1351.890
752.4005, 1257.104
752.8826, 1170.344
753.3647, 1109.646
753.8469, 1070.719
754.3290, 1030.322
754.8111, 979.2404
755.2932, 926.7032
755.7753, 884.1345
756.2574, 851.4415
756.7396, 826.8403
757.2217, 814.2446
757.7038, 798.3685
758.1859, 771.6476
758.6680, 744.0309
759.1501, 724.9607
759.6323, 713.6174
760.1144, 706.9655
760.5965, 708.4759
761.0786, 709.6940
761.5607, 710.6248
762.0428, 708.6784
762.5250, 697.6928
763.0071, 682.2415
763.4892, 674.9381
763.9713, 682.3007
764.4534, 692.3583
764.9355, 689.4324
765.4177, 681.2918
765.8998, 688.2213
766.3819, 708.8544
766.8640, 722.2989
767.3461, 718.9883
767.8282, 710.3074
768.3104, 712.9429
768.7925, 727.2493
769.2746, 734.7092
769.7567, 729.4919
770.2388, 731.7532
770.7209, 752.6254
771.2031, 777.4886
771.6852, 792.0279
772.1673, 797.7249
772.6494, 803.6447
773.1315, 805.4005
773.6136, 814.5988
774.0958, 841.4490
774.5779, 871.3360
775.0600, 890.1637
775.5421, 901.2567
776.0242, 916.1916
776.5063, 939.9141
776.9885, 968.2332
777.4706, 1002.596
777.9527, 1036.695
778.4348, 1051.379
778.9169, 1050.281
779.3990, 1061.965
779.8812, 1098.361
780.3633, 1143.585
780.8454, 1177.692
781.3275, 1201.155
781.8096, 1224.721
782.2917, 1248.139
782.7739, 1272.774
783.2560, 1302.403
783.7381, 1329.295
784.2202, 1342.405
784.7023, 1345.539
785.1844, 1358.406
785.6666, 1393.028
786.1487, 1420.818
786.6308, 1435.348
787.1129, 1442.636
787.5950, 1446.477
788.0771, 1446.446
788.5593, 1441.078
789.0414, 1429.881
789.5235, 1412.891
790.0056, 1384.620
790.4877, 1353.979
790.9698, 1337.577
791.4520, 1330.261
791.9341, 1313.605
792.4162, 1282.100
792.8983, 1241.876
793.3804, 1197.151
793.8625, 1150.476
794.3447, 1113.916
794.8268, 1088.735
795.3089, 1064.363
795.7910, 1039.073
796.2731, 1013.581
796.7552, 987.5361
797.2374, 961.9522
797.7195, 940.2919
798.2016, 928.0576
798.6837, 908.8724
799.1658, 873.4808
799.6479, 841.3942
800.1301, 822.5551
800.6122, 811.3888
801.0943, 800.9576
801.5764, 789.9724
802.0585, 779.6902
802.5406, 770.7629
803.0228, 762.7122
803.5049, 756.3938
803.9870, 750.2643
804.4691, 741.8787
804.9512, 730.9559
805.4333, 717.4981
805.9155, 700.2746
806.3976, 685.3510
806.8797, 690.6697
807.3618, 710.4437
807.8439, 702.2147
808.3260, 660.5313
808.8082, 625.1458
809.2903, 616.9079
809.7724, 623.3742
810.2545, 624.6758
810.7366, 620.6957
811.2188, 611.8646
811.7009, 592.5406
812.1830, 578.6042
812.6651, 580.8049
813.1472, 584.4909
813.6293, 574.7314
814.1115, 554.4632
814.5936, 540.8527
815.0757, 543.7429
815.5578, 542.6042
816.0399, 526.0219
816.5220, 508.4301
817.0042, 500.7671
817.4863, 501.2386
817.9684, 505.1122
818.4505, 510.9025
818.9326, 514.7849
819.4147, 513.3355
819.8969, 508.3901
820.3790, 501.4636
820.8611, 493.3276
821.3432, 485.0592
821.8253, 477.2664
822.3074, 473.5494
822.7896, 478.3932
823.2717, 487.1063
823.7538, 483.9403
824.2359, 468.4756
824.7180, 457.0312
825.2001, 452.0732
825.6823, 449.2865
826.1644, 445.7606
826.6465, 443.2942
827.1286, 446.5120
827.6107, 458.7484
828.0928, 464.0220
828.5750, 455.9836
829.0571, 449.4529
829.5392, 451.3195
830.0213, 454.0413
830.5034, 448.6494
830.9855, 436.5544
831.4677, 429.8069
831.9498, 436.6729
832.4319, 441.7263
832.9140, 438.3425
833.3961, 431.3663
833.8782, 423.7670
834.3604, 416.5342
834.8425, 409.6715
835.3246, 403.1356
835.8067, 400.7238
836.2888, 407.4608
836.7709, 419.2648
837.2531, 432.2449
837.7352, 444.8343
838.2173, 452.9308
838.6994, 455.5089
839.1815, 454.0300
839.6636, 449.3270
840.1458, 442.4185
840.6279, 434.6890
841.1100, 426.1357
841.5921, 425.6031
842.0742, 435.5174
842.5563, 445.6606
843.0385, 450.6328
843.5206, 451.9223
844.0027, 452.0438
844.4848, 450.8402
844.9669, 449.5215
845.4490, 449.2209
845.9312, 446.9901
846.4133, 438.5963
846.8954, 430.8884
847.3775, 429.7373
847.8596, 434.1593
848.3417, 439.2813
848.8239, 446.1237
849.3060, 450.8125
849.7881, 452.7280
850.2702, 451.8689
850.7523, 445.3027
851.2344, 437.0536
851.7166, 434.1307
852.1987, 438.1158
852.6808, 443.3545
853.1629, 446.4975
853.6450, 448.9875
854.1271, 452.3038
854.6093, 455.9661
855.0914, 459.9821
855.5735, 463.6219
856.0556, 463.2846
856.5377, 456.0695
857.0198, 447.7685
857.5020, 448.6956
857.9841, 456.3042
858.4662, 459.8377
858.9483, 458.8456
859.4304, 456.4446
859.9125, 453.4267
860.3947, 453.4618
860.8768, 462.2549
861.3589, 477.9616
861.8410, 483.3168
862.3231, 474.4515
862.8052, 472.0509
863.2874, 482.9628
863.7695, 493.2216
864.2516, 491.6744
864.7337, 483.8760
865.2158, 483.5663
865.6979, 491.8243
866.1801, 504.5981
866.6622, 530.8202
867.1443, 550.2782
867.6264, 552.9765
868.1085, 549.4509
868.5906, 548.4341
869.0728, 550.5039
869.5549, 554.7673
870.0370, 563.1620
870.5191, 570.3457
871.0012, 572.4289
871.4833, 574.3160
871.9655, 579.5122
872.4476, 587.7330
872.9297, 598.9521
873.4118, 612.9320
873.8939, 624.5253
874.3760, 627.5892
874.8582, 628.6440
875.3403, 636.2902
875.8224, 646.4955
876.3045, 651.2416
876.7866, 649.9150
877.2687, 647.2850
877.7509, 646.0699
878.2330, 645.9005
878.7151, 647.5675
879.1972, 649.7540
879.6793, 645.8840
880.1614, 636.5766
880.6436, 632.6885
881.1257, 638.1781
881.6078, 643.5909
882.0899, 637.7768
882.5720, 624.6850
883.0541, 624.4355
883.5363, 639.4457
884.0184, 646.5251
884.5005, 640.4995
884.9826, 634.4392
885.4647, 637.3456
885.9468, 641.9661
886.4290, 632.8615
886.9111, 605.3283
887.3932, 596.0757
887.8753, 619.7237
888.3574, 636.8694
888.8395, 630.7626
889.3217, 622.9645
889.8038, 633.2171
890.2859, 655.3779
890.7680, 668.1061
891.2501, 662.8101
891.7322, 665.0286
892.2144, 688.0916
892.6965, 708.2723
893.1786, 712.8331
893.6607, 709.0080
894.1428, 703.2032
894.6249, 697.5584
895.1071, 698.6539
895.5892, 716.5189
896.0713, 731.0464
896.5534, 726.4088
897.0355, 717.6555
897.5176, 720.3333
897.9998, 731.2740
898.4819, 738.8823
898.9640, 739.6169
899.4461, 743.8481
899.9282, 762.9822
900.4103, 787.0809
900.8925, 803.9000
901.3746, 816.6176
901.8567, 831.3638
902.3388, 849.2713
902.8209, 868.9988
903.3030, 889.5853
903.7852, 913.4699
904.2673, 943.5013
904.7494, 979.5054
905.2315, 1021.808
905.7136, 1070.052
906.1957, 1123.453
906.6779, 1181.551
907.1600, 1237.301
907.6421, 1282.025
908.1242, 1324.862
908.6063, 1397.716
909.0884, 1500.608
909.5706, 1581.370
910.0527, 1632.059
910.5348, 1689.989
911.0169, 1772.220
911.4990, 1867.957
911.9811, 1963.740
912.4633, 2059.148
912.9454, 2158.120
913.4275, 2267.079
913.9096, 2359.907
914.3917, 2438.784
914.8738, 2490.155
915.3560, 2507.566
915.8381, 2490.906
916.3202, 2438.148
916.8023, 2344.088
917.2844, 2238.193
917.7665, 2114.597
918.2487, 1987.215
918.7308, 1848.752
919.2129, 1716.436
919.6950, 1603.628
920.1771, 1507.228
920.6592, 1418.003
921.1414, 1333.239
921.6235, 1260.525
922.1056, 1206.680
922.5877, 1158.802
923.0698, 1111.148
923.5519, 1066.915
924.0341, 1029.863
924.5162, 1000.023
924.9983, 974.1487
925.4804, 953.5074
925.9625, 933.2328
926.4446, 909.5979
926.9268, 887.4798
927.4089, 871.4745
927.8910, 859.1188
928.3731, 845.6345
928.8552, 830.2027
929.3373, 816.0392
929.8195, 806.5919
930.3016, 796.8407
930.7837, 782.3712
931.2658, 765.8948
931.7479, 748.7267
932.2300, 732.8270
932.7122, 723.7426
933.1943, 723.1586
933.6764, 720.4686
934.1585, 700.8929
934.6406, 678.9936
935.1227, 678.5118
935.6049, 687.9110
936.0870, 681.8183
936.5691, 659.9254
937.0512, 639.8395
937.5333, 630.6398
938.0154, 627.5930
938.4976, 628.1863
938.9797, 629.4099
939.4618, 622.8741
939.9439, 610.6132
940.4260, 601.0283
940.9081, 595.8684
941.3903, 591.7151
941.8724, 586.0287
942.3545, 580.8701
942.8366, 581.3450
943.3187, 585.8247
943.8008, 585.2693
944.2830, 579.7394
944.7651, 574.5884
945.2472, 571.4180
945.7293, 570.8760
946.2114, 574.3260
946.6935, 578.9783
947.1756, 575.3790
947.6577, 563.6290
948.1398, 556.8591
948.6219, 556.1723
949.1041, 558.0521
949.5862, 561.7747
950.0683, 564.0348
950.5504, 560.0975
951.0325, 552.0941
951.5146, 552.4201
951.9968, 562.3976
952.4789, 573.3366
952.9610, 585.9291
953.4431, 593.6669
953.9252, 592.9547
954.4073, 586.6002
954.8895, 577.1382
955.3716, 564.9593
955.8537, 561.6998
956.3358, 570.5685
956.8179, 578.9423
957.3000, 586.9520
957.7822, 590.3417
958.2643, 585.0298
958.7464, 575.3162
959.2285, 567.6855
959.7106, 561.6978
960.1927, 563.4844
960.6749, 579.1823
961.1570, 590.3555
961.6391, 592.9807
962.1212, 591.6611
962.6033, 586.0064
963.0854, 579.9867
963.5676, 583.3944
964.0497, 599.9100
964.5318, 608.4486
965.0139, 603.1006
965.4960, 598.3536
965.9781, 596.6484
966.4603, 596.6660
966.9424, 598.5360
967.4245, 601.2876
967.9066, 601.3953
968.3887, 595.0917
968.8708, 598.8818
969.3530, 627.5806
969.8351, 647.9154
970.3172, 644.4550
970.7993, 635.2490
971.2814, 635.3706
971.7635, 641.7645
972.2457, 642.9650
972.7278, 634.3742
973.2099, 631.5568
973.6920, 638.5458
974.1741, 649.2664
974.6563, 665.5232
975.1384, 681.2955
975.6205, 691.5450
976.1026, 696.4929
976.5847, 698.0233
977.0668, 694.7962
977.5490, 692.7034
978.0311, 689.3144
978.5132, 691.7739
978.9953, 709.1505
979.4774, 729.7390
979.9595, 739.3362
980.4417, 740.4159
980.9238, 748.6570
981.4059, 773.0579
981.8880, 790.6738
982.3701, 789.3661
982.8522, 785.6870
983.3344, 785.1183
983.8165, 789.5515
984.2986, 801.7074
984.7807, 820.6337
985.2628, 841.6295
985.7449, 866.6716
986.2271, 886.0140
986.7092, 894.6769
987.1913, 898.2601
987.6734, 894.4877
988.1555, 891.1730
988.6376, 899.8895
989.1198, 919.0399
989.6019, 934.4503
990.0840, 939.8025
990.5661, 944.9276
991.0482, 961.9631
991.5303, 971.4922
992.0125, 947.2713
992.4946, 915.6434
992.9767, 914.8750
993.4588, 944.2983
993.9409, 972.1818
994.4230, 993.0022
994.9052, 998.9254
995.3873, 973.8052
995.8694, 945.8497
996.3515, 934.9982
996.8336, 933.9136
997.3157, 932.1649
997.7979, 928.1458
998.2800, 924.1219
998.7621, 922.0650
999.2442, 917.5487
999.7263, 902.7737
1000.208, 890.6980
1000.691, 897.0426
1001.173, 908.5056
1001.655, 901.7981
1002.137, 878.8560
1002.619, 867.6781
1003.101, 883.2573
1003.583, 901.5980
1004.065, 915.0761
1004.547, 923.3464
1005.030, 923.0638
1005.512, 919.3290
1005.994, 918.5725
1006.476, 921.4029
1006.958, 925.0800
1007.440, 928.9529
1007.922, 932.7841
1008.404, 940.2579
1008.887, 943.6851
1009.369, 930.1521
1009.851, 913.8644
1010.333, 918.9338
1010.815, 941.8428
1011.297, 950.7529
1011.779, 928.0519
1012.261, 907.9704
1012.743, 907.7573
1013.226, 912.1404
1013.708, 914.6574
1014.190, 913.4254
1014.672, 904.2882
1015.154, 889.4788
1015.636, 880.0209
1016.118, 883.0438
1016.600, 881.0480
1017.083, 863.6727
1017.565, 843.4136
1018.047, 824.5748
1018.529, 809.0797
1019.011, 802.7001
1019.493, 801.5912
1019.975, 789.1081
1020.457, 754.1961
1020.939, 728.7834
1021.422, 732.5349
1021.904, 737.4067
1022.386, 727.8652
1022.868, 712.8863
1023.350, 703.1017
1023.832, 697.0153
1024.314, 685.8569
1024.796, 665.6420
1025.279, 648.3546
1025.761, 636.0439
1026.243, 628.7803
1026.725, 631.9632
1027.207, 635.7786
1027.689, 630.9691
1028.171, 619.2697
1028.653, 606.6548
1029.135, 592.7875
1029.618, 583.0248
1030.100, 579.4899
1030.582, 578.5948
1031.064, 578.8126
1031.546, 581.5233
1032.028, 593.7052
1032.510, 607.9206
1032.992, 604.8342
1033.474, 578.3226
1033.957, 558.2464
1034.439, 551.3022
1034.921, 545.3970
1035.403, 535.8500
1035.885, 528.4947
1036.367, 528.8080
1036.849, 533.4926
1037.331, 537.5049
1037.814, 541.8810
1038.296, 537.4687
1038.778, 512.7718
1039.260, 497.1750
1039.742, 500.4283
1040.224, 506.1418
1040.706, 506.6041
1041.188, 503.4105
1041.671, 497.0766
1042.153, 487.2110
1042.635, 487.9614
1043.117, 507.2845
1043.599, 520.2442
1044.081, 522.7904
1044.563, 521.8340
1045.045, 520.8652
1045.527, 517.3182
1046.010, 505.5404
1046.492, 487.2509
1046.974, 483.9247
1047.456, 501.6761
1047.938, 514.7224
1048.420, 522.6652
1048.902, 521.6868
1049.384, 507.9273
1049.866, 489.4247
1050.349, 472.7493
1050.831, 459.8654
1051.313, 461.2355
1051.795, 479.9775
1052.277, 491.5554
1052.759, 494.6965
1053.241, 492.7133
1053.723, 485.6834
1054.205, 478.5727
1054.688, 475.6254
1055.170, 475.6396
1055.652, 476.1335
1056.134, 477.0792
1056.616, 477.0526
1057.098, 476.0509
1057.580, 471.1855
1058.062, 461.6440
1058.545, 453.1708
1059.027, 449.2903
1059.509, 451.0247
1059.991, 464.5602
1060.473, 484.9998
1060.955, 485.9084
1061.437, 471.0131
1061.919, 464.2124
1062.401, 468.7344
1062.884, 472.8981
1063.366, 470.7640
1063.848, 468.4189
1064.330, 473.9934
1064.812, 483.5506
1065.294, 489.4518
1065.776, 492.3349
1066.258, 492.5635
1066.740, 491.3540
1067.223, 493.5903
1067.705, 500.6001
1068.187, 505.9695
1068.669, 502.2802
1069.151, 497.8355
1069.633, 507.0049
1070.115, 519.5498
1070.597, 517.9257
1071.080, 506.5973
1071.562, 496.9341
1072.044, 492.4863
1072.526, 495.0107
1073.008, 508.0727
1073.490, 521.0311
1073.972, 526.4683
1074.454, 527.3407
1074.937, 523.0246
1075.419, 518.0106
1075.901, 518.8866
1076.383, 525.2529
1076.865, 532.3065
1077.347, 538.9877
1077.829, 543.6277
1078.311, 544.6586
1078.793, 544.5008
1079.276, 544.2513
1079.758, 543.6245
1080.240, 542.4723
1080.722, 540.6323
1081.204, 536.9076
1081.686, 530.3726
1082.168, 528.4719
1082.650, 533.8441
1083.132, 542.1910
1083.615, 559.5369
1084.097, 572.0417
1084.579, 566.9311
1085.061, 554.2185
1085.543, 547.9641
1086.025, 548.2233
1086.507, 555.5352
1086.989, 580.7596
1087.472, 589.8986
1087.954, 570.1363
1088.436, 555.7510
1088.918, 563.2842
1089.400, 575.3687
1089.882, 573.9724
1090.364, 563.0903
1090.846, 558.8234
1091.328, 563.2937
1091.811, 561.0493
1092.293, 550.1566
1092.775, 543.9230
1093.257, 546.6400
1093.739, 549.1373
1094.221, 544.6909
1094.703, 537.2798
1095.185, 534.0218
1095.667, 534.4173
1096.150, 535.6567
1096.632, 537.5865
1097.114, 538.9741
1097.596, 539.5543
1098.078, 539.0265
1098.560, 537.2365
1099.042, 532.7039
1099.524, 521.5309
1100.007, 510.1952
1100.489, 512.3784
1100.971, 522.9515
1101.453, 533.3418
1101.935, 540.9280
1102.417, 539.8249
1102.899, 529.8156
1103.381, 519.9659
1103.864, 516.1664
1104.346, 513.1525
1104.828, 506.0571
1105.310, 497.3915
1105.792, 486.3690
1106.274, 477.5775
1106.756, 480.8607
1107.238, 492.5083
1107.720, 497.2353
1108.203, 489.6315
1108.685, 480.6840
1109.167, 472.6111
1109.649, 467.5147
1110.131, 467.4200
1110.613, 469.7178
1111.095, 474.6432
1111.577, 479.4192
1112.059, 479.3080
1112.542, 473.8646
1113.024, 467.8174
1113.506, 461.9556
1113.988, 454.7961
1114.470, 440.1973
1114.952, 433.3917
1115.434, 448.0957
1115.916, 462.6800
1116.399, 452.7517
1116.881, 426.7751
1117.363, 416.7177
1117.845, 426.4626
1118.327, 430.5057
1118.809, 427.5601
1119.291, 425.7725
1119.773, 427.4424
1120.255, 427.1371
1120.738, 420.7537
1121.220, 414.0253
1121.702, 415.8095
1122.184, 424.6024
1122.666, 437.2445
1123.148, 451.3810
1123.630, 448.3845
1124.112, 429.6650
1124.594, 418.8956
1125.077, 423.9200
1125.559, 432.6109
1126.041, 435.0580
1126.523, 436.7955
1127.005, 450.3725
1127.487, 464.3573
1127.969, 457.0182
1128.451, 438.0620
1128.934, 427.2912
1129.416, 426.5810
1129.898, 427.2941
1130.380, 425.8621
1130.862, 427.6809
1131.344, 442.9015
1131.826, 453.6440
1132.308, 443.7454
1132.791, 429.7545
1133.273, 424.9745
1133.755, 427.5877
1134.237, 433.4630
1134.719, 441.8395
1135.201, 448.3703
1135.683, 457.0227
1136.165, 456.3201
1136.647, 433.2038
1137.130, 417.0796
1137.612, 419.3903
1138.094, 430.0349
1138.576, 442.9700
1139.058, 455.7248
1139.540, 460.4310
1140.022, 455.4625
1140.504, 462.3829
1140.986, 485.0252
1141.469, 491.7638
1141.951, 475.5532
1142.433, 457.5972
1142.915, 447.9127
1143.397, 446.9299
1143.879, 457.1361
1144.361, 472.8721
1144.843, 479.1244
1145.326, 478.4237
1145.808, 478.2278
1146.290, 479.6236
1146.772, 485.6884
1147.254, 495.8260
1147.736, 502.2731
1148.218, 500.3120
1148.700, 495.8832
1149.182, 492.2230
1149.665, 491.0291
1150.147, 496.4040
1150.629, 503.4093
1151.111, 504.4362
1151.593, 502.3290
1152.075, 506.8271
1152.557, 519.2319
1153.039, 523.7277
1153.521, 505.8918
1154.004, 493.9691
1154.486, 496.7587
1154.968, 504.3179
1155.450, 515.2180
1155.932, 525.9225
1156.414, 533.8653
1156.896, 538.8836
1157.378, 540.0309
1157.861, 536.2864
1158.343, 534.7616
1158.825, 534.6262
1159.307, 541.5929
1159.789, 558.8676
1160.271, 570.9891
1160.753, 569.7552
1161.235, 563.0593
1161.718, 558.8260
1162.200, 558.5604
1162.682, 570.1432
1163.164, 588.9754
1163.646, 594.2343
1164.128, 588.9671
1164.610, 590.7275
1165.092, 602.0599
1165.574, 613.2012
1166.057, 619.1835
1166.539, 621.4451
1167.021, 616.1717
1167.503, 613.3675
1167.985, 625.8372
1168.467, 642.8208
1168.949, 650.9940
1169.431, 654.6587
1169.913, 664.4626
1170.396, 681.1503
1170.878, 695.5482
1171.360, 704.3752
1171.842, 712.7794
1172.324, 722.0476
1172.806, 730.4153
1173.288, 736.6443
1173.770, 742.5503
1174.253, 749.4481
1174.735, 756.9382
1175.217, 764.7716
1175.699, 772.7996
1176.181, 775.8564
1176.663, 773.6899
1177.145, 768.0999
1177.627, 758.9971
1178.109, 752.6881
1178.592, 751.3890
1179.074, 754.8000
1179.556, 764.4063
1180.038, 769.7465
1180.520, 746.8905
1181.002, 712.6888
1181.484, 704.0013
1181.966, 708.7669
1182.448, 698.9929
1182.931, 676.5082
1183.413, 658.5220
1183.895, 650.1425
1184.377, 646.0225
1184.859, 646.0787
1185.341, 645.0488
1185.823, 638.9582
1186.305, 632.6749
1186.788, 632.0572
1187.270, 630.5421
1187.752, 619.9633
1188.234, 602.5942
1188.716, 586.3497
1189.198, 571.5045
1189.680, 556.1284
1190.162, 535.4953
1190.645, 531.1190
1191.127, 551.5336
1191.609, 564.3942
1192.091, 555.1088
1192.573, 539.7083
1193.055, 533.3293
1193.537, 531.7862
1194.019, 525.3804
1194.501, 515.9906
1194.984, 512.1695
1195.466, 511.2769
1195.948, 502.1575
1196.430, 486.0852
1196.912, 474.8513
1197.394, 472.7295
1197.876, 475.0222
1198.358, 481.5464
1198.840, 486.2119
1199.323, 483.7270
1199.805, 478.9175
1200.287, 476.0392
1200.769, 472.5352
1201.251, 462.5456
1201.733, 449.3318
1202.215, 443.7553
1202.697, 447.7653
1203.180, 455.3322
1203.662, 471.3209
1204.144, 479.0385
1204.626, 474.0092
1205.108, 468.1587
1205.590, 466.1629
1206.072, 466.1899
1206.554, 467.6712
1207.036, 466.5883
1207.519, 448.0861
1208.001, 419.6617
1208.483, 418.0476
1208.965, 435.8210
1209.447, 447.2029
1209.929, 449.1540
1210.411, 448.0039
1210.893, 445.8649
1211.375, 439.5771
1211.858, 423.2466
1212.340, 411.1499
1212.822, 418.8307
1213.304, 427.8881
1213.786, 420.8942
1214.268, 411.8025
1214.750, 419.4676
1215.232, 436.6898
1215.715, 442.0411
1216.197, 433.1372
1216.679, 429.8647
1217.161, 435.9017
1217.643, 437.2535
1218.125, 431.5317
1218.607, 426.3432
1219.089, 424.0536
1219.572, 423.2911
1220.054, 422.9001
1220.536, 424.0729
1221.018, 430.6560
1221.500, 439.2481
1221.982, 440.1254
1222.464, 435.1845
1222.946, 424.7993
1223.428, 413.9078
1223.911, 418.9468
1224.393, 439.4856
1224.875, 449.4812
1225.357, 433.9844
1225.839, 418.7902
1226.321, 416.7292
1226.803, 418.1920
1227.285, 418.4241
1227.767, 420.5642
1228.250, 431.9516
1228.732, 443.3214
1229.214, 438.8358
1229.696, 422.3356
1230.178, 420.6354
1230.660, 438.8945
1231.142, 437.3399
1231.624, 412.8724
1232.107, 406.0720
1232.589, 425.0287
1233.071, 439.5022
1233.553, 434.3343
1234.035, 424.8448
1234.517, 426.5028
1234.999, 432.1166
1235.481, 431.7458
1235.964, 428.8557
1236.446, 428.0577
1236.928, 428.1005
1237.410, 424.3133
1237.892, 419.3124
1238.374, 423.2875
1238.856, 439.3287
##END=



