##NAMES=Uramarsite
##RRUFFID=R061122
##IDEAL CHEMISTRY=N^3-^H_4_(U^6+^O_2_)As^5+^O_4_&#183;3H_2_O
##LOCALITY=Bota-Burum Uranium deposit, Kazakhstan
##OWNER=RRUFF
##SOURCE=Michael Scott
##DESCRIPTION=Brownish green cleavage fragment, co-type material
##STATUS=The identification of this mineral has been confirmed by single-crystal X-ray diffraction.
##URL=rruff.info/R061122
138.9210, 1917.125
139.4031, 1919.338
139.8852, 1914.841
140.3673, 1910.531
140.8494, 1913.273
141.3316, 1927.508
141.8137, 1936.360
142.2958, 1933.922
142.7779, 1919.735
143.2600, 1919.274
143.7421, 1940.457
144.2243, 1967.953
144.7064, 1982.687
145.1885, 1974.115
145.6706, 1969.320
146.1527, 1976.673
146.6348, 2001.919
147.1170, 2019.524
147.5991, 2026.695
148.0812, 2026.714
148.5633, 2025.526
149.0454, 2020.820
149.5275, 2016.722
150.0097, 2014.623
150.4918, 2015.533
150.9739, 2016.618
151.4560, 2017.624
151.9381, 2018.645
152.4202, 2020.132
152.9024, 2023.634
153.3845, 2026.476
153.8666, 2027.408
154.3487, 2025.707
154.8308, 2022.760
155.3129, 2017.267
155.7950, 2009.856
156.2772, 2005.486
156.7593, 2010.442
157.2414, 2016.199
157.7235, 2016.352
158.2056, 1999.631
158.6877, 1986.518
159.1699, 1985.472
159.6520, 1997.100
160.1341, 2007.253
160.6162, 2009.739
161.0983, 2008.771
161.5804, 2009.045
162.0626, 2014.132
162.5447, 2019.266
163.0268, 2021.899
163.5089, 2021.445
163.9910, 2020.674
164.4731, 2019.073
164.9553, 2018.149
165.4374, 2020.436
165.9195, 2032.645
166.4016, 2045.046
166.8837, 2049.655
167.3658, 2042.900
167.8480, 2035.261
168.3301, 2033.698
168.8122, 2036.599
169.2943, 2039.721
169.7764, 2042.228
170.2585, 2043.110
170.7407, 2040.572
171.2228, 2031.549
171.7049, 2023.396
172.1870, 2022.253
172.6691, 2015.161
173.1512, 2033.238
173.6334, 2044.548
174.1155, 2049.454
174.5976, 2028.776
175.0797, 2041.134
175.5618, 2040.253
176.0439, 2038.829
176.5260, 2055.837
177.0082, 2038.881
177.4903, 2055.596
177.9724, 2058.871
178.4545, 2068.297
178.9366, 2064.402
179.4187, 2064.621
179.9009, 2078.166
180.3830, 2084.333
180.8651, 2078.904
181.3472, 2088.721
181.8293, 2071.299
182.3114, 2077.780
182.7936, 2094.574
183.2757, 2089.815
183.7578, 2089.142
184.2399, 2098.530
184.7220, 2109.553
185.2041, 2117.788
185.6863, 2123.458
186.1684, 2127.672
186.6505, 2128.634
187.1326, 2128.099
187.6147, 2134.538
188.0968, 2150.293
188.5790, 2168.149
189.0611, 2176.377
189.5432, 2175.128
190.0253, 2172.471
190.5074, 2173.717
190.9895, 2178.119
191.4717, 2178.831
191.9538, 2173.475
192.4359, 2166.914
192.9180, 2171.463
193.4001, 2188.171
193.8822, 2203.457
194.3644, 2207.007
194.8465, 2199.110
195.3286, 2191.535
195.8107, 2185.328
196.2928, 2180.591
196.7749, 2178.232
197.2570, 2178.600
197.7392, 2179.194
198.2213, 2177.759
198.7034, 2174.087
199.1855, 2171.381
199.6676, 2171.155
200.1497, 2172.116
200.6319, 2167.946
201.1140, 2157.641
201.5961, 2145.806
202.0782, 2136.611
202.5603, 2130.410
203.0424, 2125.121
203.5246, 2121.467
204.0067, 2118.857
204.4888, 2110.884
204.9709, 2095.512
205.4530, 2079.312
205.9352, 2070.714
206.4173, 2072.590
206.8994, 2069.594
207.3815, 2055.404
207.8636, 2030.308
208.3457, 2015.065
208.8279, 2012.833
209.3100, 2015.411
209.7921, 2011.343
210.2742, 1996.709
210.7563, 1987.632
211.2384, 1990.875
211.7206, 2007.655
212.2027, 2018.992
212.6848, 2024.373
213.1669, 2024.782
213.6490, 2019.562
214.1311, 2003.849
214.6133, 1994.891
215.0954, 2001.830
215.5775, 2029.348
216.0596, 2043.314
216.5417, 2039.700
217.0238, 2025.903
217.5059, 2013.772
217.9881, 2003.739
218.4702, 1994.515
218.9523, 1985.415
219.4344, 1976.140
219.9165, 1968.662
220.3986, 1963.730
220.8808, 1960.175
221.3629, 1955.264
221.8450, 1947.748
222.3271, 1941.140
222.8092, 1936.763
223.2913, 1934.978
223.7735, 1934.398
224.2556, 1934.170
224.7377, 1935.438
225.2198, 1942.176
225.7019, 1960.017
226.1840, 1974.366
226.6662, 1977.836
227.1483, 1964.088
227.6304, 1954.034
228.1125, 1948.753
228.5946, 1946.983
229.0767, 1945.113
229.5589, 1943.501
230.0410, 1941.264
230.5231, 1937.619
231.0052, 1930.872
231.4873, 1926.633
231.9694, 1926.263
232.4516, 1928.503
232.9337, 1928.493
233.4158, 1925.042
233.8979, 1921.101
234.3800, 1917.969
234.8621, 1914.470
235.3443, 1914.788
235.8264, 1921.788
236.3085, 1933.053
236.7906, 1937.430
237.2727, 1929.987
237.7548, 1922.109
238.2369, 1920.155
238.7191, 1925.812
239.2012, 1934.417
239.6833, 1947.862
240.1654, 1964.367
240.6475, 1974.292
241.1296, 1975.295
241.6118, 1972.437
242.0939, 1968.134
242.5760, 1960.007
243.0581, 1955.420
243.5402, 1957.346
244.0223, 1963.969
244.5045, 1963.438
244.9866, 1949.813
245.4687, 1936.649
245.9508, 1933.835
246.4329, 1949.223
246.9150, 1958.556
247.3972, 1956.690
247.8793, 1945.996
248.3614, 1942.515
248.8435, 1950.867
249.3256, 1960.696
249.8077, 1964.870
250.2899, 1961.800
250.7720, 1956.184
251.2541, 1945.595
251.7362, 1931.725
252.2183, 1928.614
252.7004, 1942.893
253.1826, 1958.868
253.6647, 1964.690
254.1468, 1954.795
254.6289, 1947.065
255.1110, 1943.408
255.5931, 1943.568
256.0753, 1946.407
256.5574, 1955.047
257.0395, 1961.946
257.5216, 1959.621
258.0037, 1940.909
258.4858, 1932.122
258.9680, 1940.891
259.4501, 1963.930
259.9322, 1975.010
260.4143, 1968.978
260.8964, 1959.505
261.3785, 1957.975
261.8607, 1969.427
262.3428, 1973.670
262.8249, 1964.400
263.3070, 1945.000
263.7891, 1938.366
264.2712, 1949.900
264.7534, 1964.466
265.2355, 1970.415
265.7176, 1965.417
266.1997, 1959.556
266.6818, 1953.262
267.1639, 1947.037
267.6461, 1944.276
268.1282, 1946.502
268.6103, 1948.852
269.0924, 1946.462
269.5745, 1937.011
270.0566, 1933.140
270.5387, 1938.231
271.0208, 1950.015
271.5030, 1957.983
271.9851, 1961.522
272.4672, 1962.799
272.9493, 1962.969
273.4314, 1961.824
273.9135, 1961.224
274.3957, 1962.711
274.8778, 1964.500
275.3599, 1957.685
275.8420, 1939.276
276.3241, 1922.653
276.8062, 1919.571
277.2884, 1931.600
277.7705, 1939.618
278.2526, 1940.463
278.7347, 1936.198
279.2168, 1932.619
279.6989, 1929.726
280.1811, 1927.536
280.6632, 1925.726
281.1453, 1924.294
281.6274, 1925.212
282.1095, 1929.887
282.5916, 1935.945
283.0738, 1936.119
283.5559, 1929.629
284.0380, 1924.041
284.5201, 1926.329
285.0022, 1935.700
285.4843, 1940.515
285.9665, 1938.353
286.4486, 1932.308
286.9307, 1927.868
287.4128, 1925.009
287.8949, 1924.820
288.3770, 1929.667
288.8592, 1938.486
289.3413, 1945.598
289.8234, 1951.058
290.3055, 1953.259
290.7876, 1945.188
291.2697, 1927.787
291.7519, 1916.171
292.2340, 1926.174
292.7161, 1950.630
293.1982, 1962.494
293.6803, 1957.348
294.1624, 1944.918
294.6446, 1937.193
295.1267, 1933.998
295.6088, 1934.544
296.0909, 1942.317
296.5730, 1953.204
297.0551, 1957.230
297.5373, 1952.610
298.0194, 1944.829
298.5015, 1939.961
298.9836, 1937.416
299.4657, 1934.789
299.9478, 1926.443
300.4300, 1918.497
300.9121, 1924.211
301.3942, 1946.615
301.8763, 1968.714
302.3584, 1971.697
302.8405, 1960.701
303.3227, 1948.573
303.8048, 1939.941
304.2869, 1934.090
304.7690, 1929.902
305.2511, 1927.333
305.7332, 1926.746
306.2154, 1931.244
306.6975, 1937.699
307.1796, 1940.586
307.6617, 1934.145
308.1438, 1925.229
308.6259, 1918.454
309.1081, 1914.014
309.5901, 1913.273
310.0723, 1922.733
310.5544, 1935.071
311.0365, 1940.495
311.5186, 1924.483
312.0007, 1908.803
312.4828, 1911.284
312.9650, 1930.791
313.4471, 1946.361
313.9292, 1943.947
314.4113, 1933.166
314.8934, 1923.628
315.3755, 1918.438
315.8577, 1914.968
316.3398, 1911.811
316.8219, 1909.176
317.3040, 1908.852
317.7861, 1917.550
318.2682, 1925.495
318.7504, 1925.220
319.2325, 1902.340
319.7146, 1885.021
320.1967, 1884.136
320.6788, 1896.377
321.1609, 1908.128
321.6431, 1920.758
322.1252, 1928.775
322.6073, 1928.581
323.0894, 1909.714
323.5715, 1896.463
324.0536, 1894.367
324.5358, 1900.798
325.0179, 1907.840
325.5000, 1919.270
325.9821, 1927.379
326.4642, 1928.223
326.9464, 1912.361
327.4285, 1905.083
327.9106, 1915.206
328.3927, 1933.337
328.8748, 1940.686
329.3569, 1926.990
329.8391, 1913.647
330.3212, 1908.131
330.8033, 1915.063
331.2854, 1915.666
331.7675, 1903.929
332.2496, 1889.032
332.7318, 1885.732
333.2139, 1902.143
333.6960, 1916.363
334.1781, 1921.856
334.6602, 1917.311
335.1423, 1914.979
335.6245, 1915.606
336.1066, 1917.480
336.5887, 1918.812
337.0708, 1919.757
337.5529, 1919.745
338.0350, 1919.068
338.5172, 1917.541
338.9993, 1911.850
339.4814, 1900.124
339.9635, 1888.765
340.4456, 1884.111
340.9277, 1886.755
341.4099, 1890.166
341.8920, 1893.115
342.3741, 1895.985
342.8562, 1901.219
343.3383, 1909.414
343.8204, 1915.673
344.3026, 1913.601
344.7847, 1904.504
345.2668, 1901.792
345.7489, 1909.052
346.2310, 1921.132
346.7131, 1928.986
347.1953, 1932.617
347.6774, 1932.911
348.1595, 1929.127
348.6416, 1922.369
349.1237, 1914.832
349.6058, 1906.080
350.0880, 1899.033
350.5700, 1899.312
351.0522, 1905.075
351.5343, 1909.136
352.0164, 1905.675
352.4985, 1899.029
352.9806, 1895.714
353.4627, 1896.422
353.9449, 1898.033
354.4270, 1895.742
354.9091, 1879.393
355.3912, 1896.744
355.8733, 1907.328
356.3554, 1911.508
356.8376, 1890.104
357.3197, 1901.737
357.8018, 1900.130
358.2839, 1897.980
358.7660, 1914.262
359.2481, 1896.579
359.7303, 1912.569
360.2124, 1915.118
360.6945, 1923.818
361.1766, 1919.197
361.6587, 1918.690
362.1408, 1931.509
362.6230, 1936.950
363.1051, 1930.796
363.5872, 1939.887
364.0693, 1921.739
364.5514, 1929.759
365.0335, 1934.466
365.5157, 1939.685
365.9978, 1946.908
366.4799, 1952.887
366.9620, 1955.725
367.4441, 1952.105
367.9262, 1952.091
368.4084, 1961.439
368.8905, 1973.348
369.3726, 1977.125
369.8547, 1967.183
370.3368, 1955.872
370.8189, 1945.256
371.3011, 1934.651
371.7832, 1929.141
372.2653, 1929.971
372.7474, 1934.698
373.2295, 1941.931
373.7116, 1954.836
374.1938, 1962.087
374.6759, 1959.813
375.1580, 1949.276
375.6401, 1941.194
376.1222, 1935.058
376.6043, 1932.598
377.0865, 1936.897
377.5686, 1948.930
378.0507, 1956.723
378.5328, 1956.985
379.0149, 1953.614
379.4970, 1957.784
379.9792, 1970.119
380.4613, 1981.148
380.9434, 1983.617
381.4255, 1979.053
381.9076, 1975.950
382.3897, 1975.330
382.8719, 1974.893
383.3540, 1968.849
383.8361, 1958.941
384.3182, 1954.424
384.8003, 1962.980
385.2824, 1978.886
385.7646, 1994.490
386.2467, 2010.010
386.7288, 2019.384
387.2109, 2012.260
387.6930, 1995.787
388.1751, 1983.222
388.6573, 1981.231
389.1394, 1983.303
389.6215, 1984.790
390.1036, 1985.769
390.5857, 1986.643
391.0678, 1989.668
391.5499, 1991.711
392.0320, 1988.983
392.5142, 1974.929
392.9963, 1965.485
393.4784, 1973.547
393.9605, 1991.691
394.4426, 2001.229
394.9247, 1985.712
395.4069, 1968.458
395.8890, 1961.897
396.3711, 1972.867
396.8532, 1978.347
397.3353, 1967.911
397.8174, 1952.295
398.2996, 1938.266
398.7817, 1954.683
399.2638, 1964.332
399.7459, 1967.578
400.2280, 1945.240
400.7101, 1955.938
401.1923, 1953.397
401.6744, 1950.313
402.1565, 1965.661
402.6386, 1947.044
403.1207, 1950.776
403.6028, 1951.664
404.0850, 1955.500
404.5671, 1958.310
405.0492, 1959.337
405.5313, 1961.493
406.0134, 1967.499
406.4955, 1977.800
406.9777, 1985.212
407.4598, 1989.535
407.9419, 1990.563
408.4240, 1984.758
408.9061, 1972.352
409.3882, 1965.988
409.8704, 1978.017
410.3525, 2000.657
410.8346, 2003.405
411.3167, 1985.066
411.7988, 1963.075
412.2809, 1955.790
412.7631, 1958.667
413.2452, 1960.431
413.7273, 1956.257
414.2094, 1950.983
414.6915, 1951.801
415.1736, 1957.429
415.6558, 1961.190
416.1379, 1954.264
416.6200, 1945.476
417.1021, 1945.383
417.5842, 1959.784
418.0663, 1972.444
418.5485, 1971.828
419.0306, 1962.968
419.5127, 1955.074
419.9948, 1949.521
420.4769, 1947.339
420.9590, 1951.144
421.4412, 1962.261
421.9233, 1968.093
422.4054, 1958.979
422.8875, 1946.578
423.3696, 1941.330
423.8517, 1951.943
424.3339, 1961.389
424.8160, 1967.952
425.2981, 1971.716
425.7802, 1973.331
426.2623, 1969.885
426.7444, 1967.608
427.2266, 1970.794
427.7087, 1985.640
428.1908, 1989.938
428.6729, 1979.011
429.1550, 1961.513
429.6371, 1952.997
430.1193, 1954.668
430.6014, 1961.486
431.0835, 1975.308
431.5656, 1994.720
432.0477, 1999.216
432.5298, 1986.142
433.0119, 1970.324
433.4940, 1966.206
433.9762, 1972.848
434.4583, 1985.308
434.9404, 2007.694
435.4225, 2028.791
435.9046, 2023.847
436.3867, 1996.183
436.8689, 1968.977
437.3510, 1955.920
437.8331, 1953.211
438.3152, 1957.422
438.7973, 1969.891
439.2794, 1980.899
439.7616, 1978.713
440.2437, 1969.994
440.7258, 1966.413
441.2079, 1981.936
441.6900, 1996.577
442.1721, 1994.733
442.6543, 1976.627
443.1364, 1965.340
443.6185, 1977.819
444.1006, 1995.965
444.5827, 2005.817
445.0648, 1998.577
445.5470, 1990.680
446.0291, 1982.522
446.5112, 1975.114
446.9933, 1971.745
447.4754, 1973.862
447.9576, 1978.593
448.4397, 1986.565
448.9218, 2000.459
449.4039, 2005.942
449.8860, 1999.434
450.3681, 1988.231
450.8503, 1980.188
451.3324, 1975.145
451.8145, 1974.122
452.2966, 1978.758
452.7787, 1987.354
453.2608, 1991.152
453.7430, 1989.368
454.2251, 1987.822
454.7072, 1991.824
455.1893, 2000.300
455.6714, 2006.202
456.1535, 2008.644
456.6357, 2008.673
457.1178, 2006.674
457.5999, 2003.214
458.0820, 2000.344
458.5641, 1998.404
459.0462, 1997.991
459.5284, 2001.071
460.0105, 2007.482
460.4926, 2012.888
460.9747, 2014.099
461.4568, 2012.792
461.9389, 2010.700
462.4211, 2007.902
462.9032, 2004.988
463.3853, 2000.818
463.8674, 1996.598
464.3495, 1995.574
464.8316, 2004.108
465.3138, 2011.391
465.7959, 2011.592
466.2780, 2000.860
466.7601, 1994.842
467.2422, 1997.327
467.7243, 2003.490
468.2065, 2008.626
468.6886, 2011.135
469.1707, 2015.594
469.6528, 2024.213
470.1349, 2035.622
470.6170, 2042.671
471.0992, 2045.675
471.5813, 2043.631
472.0634, 2032.301
472.5455, 2010.676
473.0276, 2002.431
473.5097, 2011.383
473.9918, 2026.357
474.4739, 2029.884
474.9561, 2023.277
475.4382, 2019.359
475.9203, 2024.810
476.4024, 2035.011
476.8845, 2040.835
477.3666, 2042.559
477.8488, 2044.102
478.3309, 2051.083
478.8130, 2058.778
479.2951, 2059.229
479.7772, 2047.571
480.2593, 2037.241
480.7415, 2040.745
481.2236, 2051.562
481.7057, 2057.490
482.1878, 2047.864
482.6699, 2037.524
483.1520, 2033.443
483.6342, 2036.203
484.1163, 2040.096
484.5984, 2049.358
485.0805, 2056.200
485.5626, 2054.512
486.0447, 2031.077
486.5269, 2018.432
487.0090, 2023.298
487.4911, 2038.422
487.9732, 2045.750
488.4553, 2042.723
488.9374, 2037.486
489.4196, 2031.503
489.9017, 2024.624
490.3838, 2025.307
490.8659, 2035.834
491.3480, 2046.561
491.8301, 2046.122
492.3123, 2035.600
492.7944, 2026.898
493.2765, 2022.857
493.7586, 2021.052
494.2407, 2014.922
494.7228, 2006.174
495.2050, 2003.680
495.6871, 2021.300
496.1692, 2043.992
496.6513, 2051.709
497.1334, 2042.548
497.6155, 2029.740
498.0977, 2016.395
498.5798, 2006.370
499.0619, 2003.904
499.5440, 2020.009
500.0261, 2033.694
500.5082, 2035.135
500.9904, 2027.956
501.4725, 2025.199
501.9546, 2032.156
502.4367, 2041.383
502.9188, 2051.516
503.4009, 2065.227
503.8831, 2069.063
504.3652, 2057.315
504.8473, 2040.815
505.3294, 2030.661
505.8115, 2028.735
506.2936, 2027.757
506.7758, 2026.764
507.2579, 2025.876
507.7400, 2024.887
508.2221, 2023.614
508.7042, 2024.443
509.1863, 2031.919
509.6685, 2043.283
510.1506, 2045.032
510.6327, 2035.611
511.1148, 2024.986
511.5969, 2024.900
512.0790, 2031.193
512.5612, 2034.684
513.0433, 2029.787
513.5254, 2023.997
514.0075, 2025.212
514.4896, 2031.273
514.9717, 2034.774
515.4539, 2026.696
515.9360, 2019.202
516.4181, 2021.818
516.9002, 2039.028
517.3823, 2049.764
517.8644, 2044.144
518.3466, 2032.572
518.8287, 2025.307
519.3108, 2021.549
519.7929, 2024.298
520.2750, 2038.590
520.7571, 2059.689
521.2393, 2068.481
521.7214, 2060.519
522.2035, 2050.640
522.6856, 2044.843
523.1677, 2043.156
523.6498, 2044.335
524.1320, 2048.746
524.6141, 2054.258
525.0962, 2059.717
525.5783, 2064.592
526.0604, 2065.507
526.5425, 2059.772
527.0247, 2052.830
527.5068, 2055.220
527.9889, 2063.670
528.4710, 2066.141
528.9531, 2048.912
529.4352, 2027.656
529.9174, 2016.067
530.3995, 2015.497
530.8816, 2017.849
531.3637, 2022.102
531.8458, 2026.141
532.3279, 2028.171
532.8101, 2021.285
533.2922, 2020.187
533.7743, 2032.768
534.2564, 2052.406
534.7385, 2062.411
535.2206, 2057.408
535.7027, 2050.608
536.1848, 2045.170
536.6669, 2041.012
537.1490, 2038.777
537.6312, 2038.082
538.1133, 2040.196
538.5954, 2047.459
539.0775, 2059.679
539.5596, 2070.771
540.0417, 2080.572
540.5239, 2087.537
541.0060, 2086.703
541.4881, 2080.066
541.9702, 2075.734
542.4523, 2081.981
542.9344, 2089.801
543.4166, 2086.309
543.8987, 2073.092
544.3808, 2062.771
544.8629, 2062.748
545.3450, 2068.798
545.8271, 2078.275
546.3093, 2092.667
546.7914, 2105.337
547.2735, 2117.708
547.7556, 2126.502
548.2377, 2127.162
548.7198, 2108.795
549.2020, 2095.344
549.6841, 2091.637
550.1662, 2096.182
550.6483, 2100.106
551.1304, 2104.027
551.6125, 2106.136
552.0947, 2102.720
552.5768, 2093.218
553.0589, 2098.720
553.5410, 2123.426
554.0231, 2147.270
554.5052, 2141.085
554.9874, 2112.544
555.4695, 2093.066
555.9516, 2093.074
556.4337, 2101.956
556.9158, 2109.772
557.3979, 2116.073
557.8801, 2119.347
558.3622, 2116.335
558.8443, 2111.792
559.3264, 2109.329
559.8085, 2109.283
560.2906, 2108.113
560.7728, 2101.443
561.2549, 2095.100
561.7370, 2093.423
562.2191, 2101.017
562.7012, 2107.643
563.1833, 2113.666
563.6655, 2118.456
564.1476, 2120.789
564.6297, 2119.796
565.1118, 2118.366
565.5939, 2116.555
566.0760, 2114.878
566.5582, 2117.876
567.0403, 2126.280
567.5224, 2132.376
568.0045, 2127.339
568.4866, 2115.666
568.9688, 2112.910
569.4509, 2121.771
569.9330, 2130.607
570.4151, 2123.714
570.8972, 2110.307
571.3793, 2105.940
571.8615, 2125.922
572.3436, 2144.490
572.8257, 2142.872
573.3078, 2127.888
573.7899, 2118.957
574.2720, 2128.295
574.7542, 2139.109
575.2363, 2144.965
575.7184, 2145.050
576.2005, 2144.116
576.6826, 2140.741
577.1647, 2137.880
577.6469, 2138.152
578.1290, 2142.743
578.6111, 2145.029
579.0932, 2143.655
579.5753, 2141.354
580.0574, 2143.253
580.5396, 2149.038
581.0217, 2154.384
581.5038, 2158.150
581.9859, 2160.108
582.4680, 2159.200
582.9501, 2155.846
583.4323, 2152.358
583.9144, 2148.012
584.3965, 2145.596
584.8786, 2148.693
585.3607, 2158.481
585.8428, 2168.104
586.3250, 2177.666
586.8071, 2184.328
587.2892, 2185.478
587.7713, 2171.557
588.2534, 2163.796
588.7355, 2168.125
589.2177, 2178.297
589.6998, 2179.698
590.1819, 2167.397
590.6640, 2158.123
591.1461, 2157.181
591.6282, 2163.672
592.1104, 2173.215
592.5925, 2186.382
593.0746, 2197.180
593.5567, 2200.077
594.0388, 2197.009
594.5209, 2193.729
595.0031, 2190.817
595.4852, 2187.323
595.9673, 2181.789
596.4494, 2175.260
596.9315, 2169.309
597.4136, 2164.898
597.8958, 2160.836
598.3779, 2153.777
598.8600, 2146.606
599.3421, 2146.474
599.8242, 2162.944
600.3063, 2178.836
600.7885, 2190.132
601.2706, 2196.745
601.7527, 2196.020
602.2348, 2181.639
602.7169, 2170.315
603.1990, 2177.916
603.6812, 2207.870
604.1633, 2214.063
604.6454, 2188.731
605.1275, 2157.552
605.6096, 2157.367
606.0917, 2180.825
606.5739, 2197.733
607.0560, 2196.205
607.5381, 2189.077
608.0202, 2190.991
608.5023, 2199.217
608.9844, 2205.854
609.4666, 2204.277
609.9487, 2202.331
610.4308, 2206.002
610.9129, 2215.478
611.3950, 2220.838
611.8771, 2217.304
612.3593, 2211.134
612.8414, 2205.453
613.3235, 2199.316
613.8056, 2196.812
614.2877, 2199.498
614.7698, 2203.995
615.2520, 2206.423
615.7341, 2206.755
616.2162, 2205.500
616.6983, 2201.886
617.1804, 2198.168
617.6625, 2200.468
618.1446, 2197.224
618.6267, 2214.978
619.1088, 2225.965
619.5909, 2230.549
620.0731, 2209.549
620.5552, 2221.584
621.0373, 2220.381
621.5194, 2218.634
622.0015, 2235.320
622.4836, 2218.041
622.9658, 2234.434
623.4479, 2237.386
623.9300, 2246.490
624.4121, 2242.272
624.8942, 2242.169
625.3763, 2232.969
625.8585, 2232.476
626.3406, 2242.662
626.8227, 2256.608
627.3048, 2257.989
627.7869, 2246.860
628.2690, 2237.911
628.7512, 2239.307
629.2333, 2245.459
629.7154, 2244.418
630.1975, 2237.395
630.6796, 2231.935
631.1617, 2236.338
631.6439, 2242.606
632.1260, 2244.140
632.6081, 2240.188
633.0902, 2231.939
633.5723, 2213.388
634.0544, 2194.411
634.5366, 2182.999
635.0187, 2188.092
635.5008, 2188.185
635.9829, 2177.741
636.4650, 2165.653
636.9471, 2167.914
637.4293, 2188.657
637.9114, 2204.079
638.3935, 2207.770
638.8756, 2202.506
639.3577, 2193.292
639.8398, 2180.535
640.3220, 2170.083
640.8041, 2166.271
641.2862, 2166.174
641.7683, 2165.959
642.2504, 2165.587
642.7325, 2166.851
643.2147, 2170.836
643.6968, 2176.919
644.1789, 2185.053
644.6610, 2196.914
645.1431, 2206.595
645.6252, 2213.379
646.1074, 2217.568
646.5895, 2219.070
647.0716, 2216.451
647.5537, 2214.724
648.0358, 2214.633
648.5179, 2215.601
649.0001, 2217.744
649.4822, 2221.019
649.9643, 2220.102
650.4464, 2210.373
650.9285, 2197.227
651.4106, 2189.263
651.8928, 2186.463
652.3749, 2187.772
652.8570, 2198.073
653.3391, 2208.469
653.8212, 2211.340
654.3033, 2205.845
654.7855, 2198.567
655.2676, 2184.191
655.7497, 2174.000
656.2318, 2176.647
656.7139, 2201.067
657.1960, 2218.936
657.6782, 2230.432
658.1603, 2234.878
658.6424, 2227.795
659.1245, 2207.481
659.6066, 2196.732
660.0887, 2202.352
660.5709, 2215.331
661.0530, 2221.119
661.5351, 2220.957
662.0172, 2220.149
662.4993, 2219.629
662.9814, 2220.715
663.4636, 2227.367
663.9457, 2237.643
664.4278, 2242.558
664.9099, 2229.203
665.3920, 2217.333
665.8741, 2218.498
666.3563, 2236.346
666.8384, 2249.456
667.3205, 2256.779
667.8026, 2260.477
668.2847, 2262.165
668.7668, 2262.204
669.2490, 2257.032
669.7311, 2245.260
670.2132, 2232.389
670.6953, 2224.042
671.1774, 2220.049
671.6595, 2220.339
672.1417, 2226.554
672.6238, 2233.426
673.1059, 2234.307
673.5880, 2232.334
674.0701, 2233.552
674.5522, 2246.758
675.0344, 2256.888
675.5165, 2256.419
675.9986, 2247.292
676.4807, 2240.203
676.9628, 2235.250
677.4449, 2232.709
677.9271, 2232.371
678.4092, 2234.285
678.8913, 2242.172
679.3734, 2257.990
679.8555, 2269.823
680.3376, 2265.577
680.8198, 2250.259
681.3019, 2240.307
681.7840, 2237.093
682.2661, 2236.629
682.7482, 2236.132
683.2303, 2236.178
683.7125, 2237.721
684.1946, 2242.087
684.6767, 2245.517
685.1588, 2247.011
685.6409, 2246.665
686.1230, 2244.337
686.6052, 2237.375
687.0873, 2232.927
687.5694, 2232.468
688.0515, 2234.612
688.5336, 2235.905
689.0157, 2236.205
689.4979, 2237.186
689.9800, 2239.826
690.4621, 2243.375
690.9442, 2247.288
691.4263, 2251.085
691.9084, 2251.510
692.3906, 2240.437
692.8727, 2229.394
693.3548, 2230.611
693.8369, 2244.514
694.3190, 2255.890
694.8011, 2257.270
695.2833, 2256.344
695.7654, 2257.872
696.2475, 2263.286
696.7296, 2266.412
697.2117, 2266.969
697.6938, 2265.604
698.1760, 2261.828
698.6581, 2255.630
699.1402, 2252.520
699.6223, 2253.378
700.1044, 2256.607
700.5865, 2261.990
701.0686, 2268.105
701.5507, 2271.891
702.0328, 2273.801
702.5150, 2270.927
702.9971, 2257.611
703.4792, 2238.665
703.9613, 2223.453
704.4434, 2208.272
704.9255, 2204.551
705.4077, 2221.602
705.8898, 2252.535
706.3719, 2268.875
706.8540, 2267.052
707.3361, 2260.953
707.8182, 2256.171
708.3004, 2251.769
708.7825, 2239.785
709.2646, 2220.628
709.7467, 2208.967
710.2288, 2222.004
710.7109, 2244.964
711.1931, 2259.257
711.6752, 2263.414
712.1573, 2263.196
712.6394, 2257.776
713.1215, 2251.537
713.6036, 2247.837
714.0858, 2248.347
714.5679, 2248.714
715.0500, 2248.763
715.5321, 2248.889
716.0142, 2250.749
716.4963, 2255.318
716.9785, 2251.907
717.4606, 2236.581
717.9427, 2220.330
718.4248, 2221.864
718.9069, 2235.651
719.3890, 2244.978
719.8712, 2243.490
720.3533, 2237.607
720.8354, 2227.788
721.3175, 2217.746
721.7996, 2214.731
722.2817, 2229.076
722.7639, 2241.653
723.2460, 2248.525
723.7281, 2249.771
724.2102, 2243.855
724.6923, 2225.811
725.1744, 2213.422
725.6566, 2214.818
726.1387, 2226.691
726.6208, 2235.932
727.1029, 2242.490
727.5850, 2244.536
728.0671, 2236.715
728.5493, 2225.832
729.0314, 2220.721
729.5135, 2221.665
729.9956, 2225.061
730.4777, 2231.930
730.9598, 2238.601
731.4420, 2242.343
731.9241, 2241.443
732.4062, 2242.329
732.8883, 2246.615
733.3704, 2250.486
733.8525, 2250.547
734.3347, 2246.485
734.8168, 2242.115
735.2989, 2236.982
735.7810, 2234.539
736.2631, 2242.407
736.7452, 2255.674
737.2274, 2262.793
737.7095, 2259.097
738.1916, 2254.172
738.6737, 2256.650
739.1558, 2261.162
739.6379, 2260.324
740.1201, 2242.943
740.6022, 2232.433
741.0843, 2234.812
741.5664, 2243.729
742.0485, 2246.429
742.5306, 2241.290
743.0128, 2237.333
743.4949, 2237.118
743.9770, 2239.277
744.4591, 2241.809
744.9412, 2244.354
745.4233, 2245.242
745.9055, 2239.974
746.3876, 2235.590
746.8697, 2241.146
747.3518, 2253.597
747.8339, 2260.693
748.3160, 2254.479
748.7982, 2245.722
749.2803, 2236.839
749.7624, 2228.070
750.2445, 2224.849
750.7266, 2228.344
751.2087, 2234.064
751.6909, 2239.647
752.1730, 2245.318
752.6551, 2254.128
753.1372, 2266.000
753.6193, 2274.303
754.1014, 2268.580
754.5836, 2259.302
755.0657, 2259.552
755.5478, 2271.330
756.0299, 2283.782
756.5120, 2298.567
756.9941, 2308.295
757.4763, 2305.019
757.9584, 2279.360
758.4405, 2272.154
758.9226, 2291.612
759.4047, 2315.266
759.8868, 2317.661
760.3690, 2301.317
760.8511, 2297.673
761.3332, 2311.573
761.8153, 2329.501
762.2974, 2338.183
762.7795, 2340.928
763.2617, 2342.073
763.7438, 2339.762
764.2259, 2342.526
764.7080, 2361.834
765.1901, 2385.049
765.6722, 2394.607
766.1544, 2379.835
766.6365, 2370.554
767.1186, 2369.593
767.6007, 2374.589
768.0828, 2382.762
768.5649, 2393.942
769.0471, 2404.892
769.5292, 2414.093
770.0113, 2423.875
770.4934, 2440.510
770.9755, 2459.853
771.4576, 2473.186
771.9398, 2470.644
772.4219, 2468.055
772.9040, 2471.526
773.3861, 2479.814
773.8682, 2489.213
774.3503, 2500.728
774.8325, 2511.141
775.3146, 2518.921
775.7967, 2525.432
776.2788, 2535.782
776.7609, 2549.897
777.2430, 2562.775
777.7252, 2569.951
778.2073, 2576.041
778.6894, 2589.104
779.1715, 2607.329
779.6536, 2623.716
780.1357, 2634.251
780.6179, 2642.890
781.1000, 2647.218
781.5821, 2648.719
782.0642, 2665.940
782.5463, 2709.763
783.0284, 2750.235
783.5105, 2775.265
783.9926, 2786.765
784.4747, 2794.831
784.9568, 2799.494
785.4390, 2812.148
785.9211, 2842.550
786.4032, 2884.034
786.8853, 2931.214
787.3674, 2982.821
787.8495, 3032.663
788.3317, 3078.020
788.8138, 3119.901
789.2959, 3156.098
789.7780, 3184.811
790.2601, 3225.457
790.7422, 3281.572
791.2244, 3342.268
791.7065, 3400.619
792.1886, 3457.324
792.6707, 3511.979
793.1528, 3564.869
793.6349, 3622.872
794.1171, 3692.439
794.5992, 3769.431
795.0813, 3849.309
795.5634, 3932.794
796.0455, 4012.354
796.5276, 4080.415
797.0098, 4147.190
797.4919, 4219.993
797.9740, 4300.654
798.4561, 4376.053
798.9382, 4445.844
799.4203, 4509.958
799.9025, 4569.988
800.3846, 4625.052
800.8667, 4666.104
801.3488, 4691.744
801.8309, 4713.377
802.3130, 4748.168
802.7952, 4780.921
803.2773, 4793.859
803.7594, 4778.351
804.2415, 4760.299
804.7236, 4747.036
805.2057, 4732.034
805.6879, 4711.880
806.1700, 4688.716
806.6521, 4649.704
807.1342, 4592.055
807.6163, 4526.122
808.0984, 4459.838
808.5806, 4394.399
809.0627, 4335.758
809.5448, 4285.866
810.0269, 4235.334
810.5090, 4176.941
810.9911, 4114.743
811.4733, 4052.693
811.9554, 3989.757
812.4375, 3930.048
812.9196, 3872.290
813.4017, 3819.958
813.8839, 3777.193
814.3660, 3744.486
814.8481, 3714.607
815.3302, 3688.105
815.8123, 3658.653
816.2944, 3610.892
816.7766, 3557.258
817.2587, 3521.417
817.7408, 3515.533
818.2229, 3509.437
818.7050, 3488.236
819.1871, 3459.573
819.6693, 3431.559
820.1514, 3402.813
820.6335, 3379.915
821.1156, 3366.821
821.5977, 3354.072
822.0798, 3328.719
822.5620, 3291.975
823.0441, 3253.204
823.5262, 3212.213
824.0083, 3175.671
824.4904, 3157.677
824.9725, 3145.295
825.4547, 3120.134
825.9368, 3065.024
826.4189, 3019.462
826.9010, 3000.752
827.3831, 2990.744
827.8652, 2971.056
828.3474, 2939.381
828.8295, 2906.011
829.3116, 2869.988
829.7937, 2837.641
830.2758, 2820.295
830.7579, 2812.974
831.2401, 2800.877
831.7222, 2778.342
832.2043, 2757.944
832.6864, 2754.755
833.1685, 2754.766
833.6506, 2742.037
834.1328, 2699.828
834.6149, 2664.338
835.0970, 2635.353
835.5791, 2613.615
836.0612, 2604.682
836.5433, 2608.024
837.0255, 2600.638
837.5076, 2577.808
837.9897, 2551.971
838.4718, 2536.270
838.9539, 2527.068
839.4360, 2519.487
839.9182, 2514.180
840.4003, 2506.179
840.8824, 2489.016
841.3645, 2471.378
841.8466, 2462.453
842.3287, 2466.936
842.8109, 2464.954
843.2930, 2454.077
843.7751, 2440.622
844.2572, 2431.125
844.7393, 2424.894
845.2214, 2419.944
845.7036, 2415.925
846.1857, 2412.981
846.6678, 2412.985
847.1499, 2413.070
847.6320, 2409.819
848.1141, 2398.277
848.5963, 2393.458
849.0784, 2401.371
849.5605, 2408.953
850.0426, 2401.386
850.5247, 2378.925
851.0068, 2369.082
851.4890, 2375.303
851.9711, 2382.274
852.4532, 2373.784
852.9353, 2357.728
853.4174, 2343.351
853.8995, 2331.628
854.3817, 2324.646
854.8638, 2327.079
855.3459, 2331.565
855.8280, 2332.772
856.3101, 2329.476
856.7922, 2329.805
857.2744, 2334.985
857.7565, 2339.225
858.2386, 2337.835
858.7207, 2331.591
859.2028, 2320.549
859.6849, 2304.553
860.1671, 2291.747
860.6492, 2288.277
861.1313, 2288.952
861.6134, 2290.926
862.0955, 2294.620
862.5776, 2294.931
863.0598, 2290.996
863.5419, 2285.111
864.0240, 2277.527
864.5061, 2268.710
864.9882, 2263.447
865.4703, 2261.690
865.9524, 2262.038
866.4345, 2263.593
866.9166, 2266.763
867.3987, 2275.433
867.8809, 2289.155
868.3630, 2292.577
868.8451, 2269.590
869.3272, 2248.642
869.8093, 2241.155
870.2914, 2245.637
870.7736, 2245.799
871.2557, 2241.294
871.7378, 2236.908
872.2199, 2235.780
872.7020, 2236.180
873.1841, 2233.231
873.6663, 2228.709
874.1484, 2230.460
874.6305, 2255.572
875.1126, 2273.863
875.5947, 2264.859
876.0768, 2237.035
876.5590, 2225.190
877.0411, 2234.027
877.5232, 2240.548
878.0053, 2234.134
878.4874, 2223.167
878.9695, 2229.814
879.4517, 2248.409
879.9338, 2259.372
880.4159, 2244.145
880.8980, 2228.368
881.3801, 2227.271
881.8622, 2235.499
882.3444, 2239.806
882.8265, 2236.103
883.3086, 2236.469
883.7907, 2245.745
884.2728, 2256.373
884.7549, 2249.244
885.2371, 2228.484
885.7192, 2218.571
886.2013, 2231.752
886.6834, 2246.008
887.1655, 2240.773
887.6476, 2225.782
888.1298, 2214.569
888.6119, 2210.143
889.0940, 2210.417
889.5761, 2217.830
890.0582, 2226.616
890.5403, 2229.354
891.0225, 2226.206
891.5046, 2223.012
891.9867, 2220.326
892.4688, 2218.633
892.9509, 2219.109
893.4330, 2220.459
893.9152, 2221.539
894.3973, 2223.024
894.8794, 2221.134
895.3615, 2207.865
895.8436, 2197.596
896.3257, 2203.127
896.8079, 2228.164
897.2900, 2234.707
897.7721, 2221.278
898.2542, 2203.315
898.7363, 2190.352
899.2184, 2182.510
899.7006, 2183.466
900.1827, 2192.922
900.6648, 2194.673
901.1469, 2170.630
901.6290, 2148.423
902.1111, 2142.829
902.5933, 2152.840
903.0754, 2155.046
903.5575, 2147.704
904.0396, 2142.553
904.5217, 2150.485
905.0038, 2162.211
905.4860, 2158.057
905.9681, 2141.252
906.4502, 2124.806
906.9323, 2113.532
907.4144, 2105.435
907.8965, 2102.400
908.3787, 2101.866
908.8608, 2096.418
909.3429, 2085.794
909.8250, 2070.176
910.3071, 2045.884
910.7892, 2022.178
911.2714, 2022.109
911.7535, 2036.981
912.2356, 2043.153
912.7177, 2024.285
913.1998, 2007.111
913.6819, 2008.883
914.1641, 2018.236
914.6462, 2018.280
915.1283, 2004.863
915.6104, 1991.310
916.0925, 1977.651
916.5746, 1966.104
917.0568, 1959.789
917.5389, 1957.849
918.0210, 1958.777
918.5031, 1963.058
918.9852, 1965.159
919.4673, 1958.052
919.9495, 1949.681
920.4316, 1947.174
920.9137, 1952.554
921.3958, 1957.648
921.8779, 1963.887
922.3600, 1966.313
922.8422, 1957.541
923.3243, 1942.189
923.8064, 1937.919
924.2885, 1944.207
924.7706, 1950.660
925.2527, 1956.285
925.7349, 1955.177
926.2170, 1936.586
926.6991, 1903.022
927.1812, 1889.358
927.6633, 1903.169
928.1454, 1920.377
928.6276, 1935.638
929.1097, 1946.603
929.5918, 1944.111
930.0739, 1930.696
930.5560, 1917.489
931.0381, 1906.509
931.5203, 1900.336
932.0024, 1905.582
932.4845, 1915.614
932.9666, 1916.050
933.4487, 1897.628
933.9308, 1889.530
934.4130, 1897.911
934.8951, 1912.069
935.3772, 1916.324
935.8593, 1913.248
936.3414, 1912.182
936.8235, 1915.437
937.3057, 1918.418
937.7878, 1920.335
938.2699, 1919.046
938.7520, 1911.132
939.2341, 1892.253
939.7162, 1881.071
940.1984, 1877.945
940.6805, 1881.556
941.1626, 1896.365
941.6447, 1916.994
942.1268, 1922.829
942.6089, 1914.391
943.0911, 1904.619
943.5732, 1900.653
944.0553, 1898.634
944.5374, 1896.209
945.0195, 1893.481
945.5016, 1892.497
945.9838, 1894.004
946.4659, 1894.830
946.9480, 1892.795
947.4301, 1890.682
947.9122, 1897.473
948.3943, 1909.958
948.8764, 1917.553
949.3585, 1913.196
949.8406, 1906.277
950.3228, 1897.165
950.8049, 1889.909
951.2870, 1891.489
951.7691, 1906.889
952.2512, 1916.069
952.7333, 1916.973
953.2155, 1912.353
953.6976, 1899.924
954.1797, 1885.626
954.6618, 1885.583
955.1439, 1904.470
955.6260, 1918.883
956.1082, 1909.971
956.5903, 1898.208
957.0724, 1898.560
957.5545, 1912.308
958.0366, 1920.778
958.5187, 1923.451
959.0009, 1923.264
959.4830, 1918.849
959.9651, 1914.233
960.4472, 1919.010
960.9293, 1930.928
961.4114, 1940.931
961.8936, 1945.963
962.3757, 1947.275
962.8578, 1942.999
963.3399, 1936.109
963.8220, 1933.699
964.3041, 1936.057
964.7863, 1938.985
965.2684, 1940.804
965.7505, 1944.402
966.2326, 1955.773
966.7147, 1970.635
967.1968, 1982.151
967.6790, 1988.647
968.1611, 1991.584
968.6432, 1987.438
969.1253, 1983.782
969.6074, 1985.327
970.0895, 1992.009
970.5717, 1981.583
971.0538, 2000.576
971.5359, 2012.802
972.0180, 2018.625
972.5001, 1998.864
972.9822, 2012.138
973.4644, 2012.174
973.9465, 2011.667
974.4286, 2029.591
974.9107, 2013.551
975.3928, 2031.183
975.8749, 2035.374
976.3571, 2045.717
976.8392, 2042.739
977.3213, 2043.875
977.8034, 2068.793
978.2855, 2081.964
978.7676, 2097.146
979.2498, 2110.706
979.7319, 2117.127
980.2140, 2113.441
980.6961, 2106.777
981.1782, 2094.803
981.6603, 2085.744
982.1425, 2091.095
982.6246, 2106.749
983.1067, 2121.337
983.5888, 2133.895
984.0709, 2138.952
984.5530, 2125.853
985.0352, 2110.273
985.5173, 2100.423
985.9994, 2096.499
986.4815, 2105.448
986.9636, 2131.900
987.4457, 2147.486
987.9279, 2133.437
988.4100, 2107.510
988.8921, 2102.288
989.3742, 2111.559
989.8563, 2119.435
990.3384, 2121.250
990.8206, 2118.583
991.3027, 2107.852
991.7848, 2095.659
992.2669, 2091.446
992.7490, 2096.174
993.2311, 2092.231
993.7133, 2076.215
994.1954, 2062.076
994.6775, 2068.320
995.1596, 2080.488
995.6417, 2081.843
996.1238, 2069.484
996.6060, 2055.393
997.0881, 2037.291
997.5702, 2024.144
998.0523, 2022.543
998.5344, 2028.390
999.0165, 2020.391
999.4987, 2001.161
999.9808, 1987.977
1000.463, 2001.440
1000.945, 2011.991
1001.427, 1990.302
1001.909, 1954.286
1002.391, 1940.112
1002.873, 1959.953
1003.356, 1974.013
1003.838, 1977.849
1004.320, 1976.941
1004.802, 1977.991
1005.284, 1979.389
1005.766, 1977.127
1006.248, 1970.487
1006.730, 1963.263
1007.213, 1957.080
1007.695, 1951.109
1008.177, 1944.521
1008.659, 1937.544
1009.141, 1934.145
1009.623, 1934.718
1010.105, 1932.819
1010.587, 1924.935
1011.069, 1913.382
1011.552, 1897.775
1012.034, 1881.028
1012.516, 1869.678
1012.998, 1873.491
1013.480, 1871.231
1013.962, 1857.061
1014.444, 1841.341
1014.926, 1838.894
1015.409, 1847.301
1015.891, 1853.533
1016.373, 1856.365
1016.855, 1851.530
1017.337, 1820.956
1017.819, 1793.297
1018.301, 1796.924
1018.783, 1833.171
1019.265, 1848.759
1019.748, 1838.738
1020.230, 1825.842
1020.712, 1819.293
1021.194, 1815.604
1021.676, 1804.693
1022.158, 1791.445
1022.640, 1787.989
1023.122, 1813.200
1023.604, 1829.367
1024.087, 1820.271
1024.569, 1803.004
1025.051, 1793.452
1025.533, 1791.555
1026.015, 1797.107
1026.497, 1810.576
1026.979, 1822.069
1027.461, 1825.327
1027.943, 1820.947
1028.426, 1805.294
1028.908, 1779.200
1029.390, 1762.809
1029.872, 1760.256
1030.354, 1761.183
1030.836, 1763.349
1031.318, 1766.066
1031.800, 1767.600
1032.283, 1768.342
1032.765, 1769.492
1033.247, 1772.377
1033.729, 1773.940
1034.211, 1770.419
1034.693, 1766.617
1035.175, 1767.670
1035.657, 1774.956
1036.140, 1778.973
1036.622, 1779.771
1037.104, 1775.837
1037.586, 1759.930
1038.068, 1742.809
1038.550, 1738.168
1039.032, 1744.217
1039.514, 1748.620
1039.996, 1747.566
1040.479, 1746.861
1040.961, 1747.940
1041.443, 1749.624
1041.925, 1750.438
1042.407, 1749.952
1042.889, 1746.045
1043.371, 1737.434
1043.853, 1728.889
1044.335, 1721.534
1044.818, 1716.654
1045.300, 1715.011
1045.782, 1716.531
1046.264, 1722.506
1046.746, 1733.444
1047.228, 1743.491
1047.710, 1750.127
1048.192, 1752.918
1048.675, 1750.512
1049.157, 1743.802
1049.639, 1735.042
1050.121, 1718.330
1050.603, 1709.629
1051.085, 1712.734
1051.567, 1721.018
1052.049, 1728.163
1052.531, 1733.092
1053.014, 1729.991
1053.496, 1717.906
1053.978, 1705.471
1054.460, 1693.435
1054.942, 1687.081
1055.424, 1691.978
1055.906, 1706.469
1056.388, 1722.087
1056.870, 1740.337
1057.353, 1744.333
1057.835, 1719.851
1058.317, 1691.318
1058.799, 1691.470
1059.281, 1707.780
1059.763, 1720.312
1060.245, 1724.238
1060.727, 1722.882
1061.210, 1714.258
1061.692, 1704.592
1062.174, 1698.646
1062.656, 1696.109
1063.138, 1697.522
1063.620, 1702.227
1064.102, 1704.695
1064.584, 1697.275
1065.067, 1691.707
1065.549, 1696.324
1066.031, 1705.908
1066.513, 1708.285
1066.995, 1702.760
1067.477, 1702.688
1067.959, 1712.851
1068.441, 1719.428
1068.923, 1699.886
1069.406, 1673.786
1069.888, 1663.554
1070.370, 1675.691
1070.852, 1686.333
1071.334, 1695.336
1071.816, 1700.432
1072.298, 1698.733
1072.780, 1693.468
1073.262, 1692.371
1073.745, 1694.439
1074.227, 1696.828
1074.709, 1700.570
1075.191, 1701.475
1075.673, 1695.724
1076.155, 1688.933
1076.637, 1688.168
1077.119, 1693.258
1077.601, 1687.953
1078.084, 1671.360
1078.566, 1659.508
1079.048, 1669.597
1079.530, 1684.636
1080.012, 1695.158
1080.494, 1699.377
1080.976, 1692.248
1081.458, 1668.121
1081.941, 1654.797
1082.423, 1661.156
1082.905, 1673.343
1083.387, 1670.879
1083.869, 1661.867
1084.351, 1660.389
1084.833, 1672.136
1085.315, 1676.995
1085.797, 1667.128
1086.280, 1656.800
1086.762, 1653.006
1087.244, 1654.620
1087.726, 1657.838
1088.208, 1662.391
1088.690, 1667.200
1089.172, 1676.598
1089.654, 1680.038
1090.136, 1666.246
1090.619, 1647.878
1091.101, 1638.929
1091.583, 1639.794
1092.065, 1649.481
1092.547, 1668.821
1093.029, 1682.273
1093.511, 1670.859
1093.993, 1652.580
1094.476, 1645.348
1094.958, 1647.497
1095.440, 1644.470
1095.922, 1632.666
1096.404, 1623.591
1096.886, 1619.580
1097.368, 1619.369
1097.850, 1622.669
1098.333, 1627.825
1098.815, 1632.813
1099.297, 1637.950
1099.779, 1637.983
1100.261, 1626.785
1100.743, 1616.240
1101.225, 1611.039
1101.707, 1610.768
1102.189, 1615.676
1102.672, 1624.529
1103.154, 1632.117
1103.636, 1638.193
1104.118, 1639.270
1104.600, 1626.143
1105.082, 1612.062
1105.564, 1612.925
1106.046, 1631.597
1106.528, 1637.319
1107.011, 1629.231
1107.493, 1620.129
1107.975, 1617.461
1108.457, 1619.720
1108.939, 1630.237
1109.421, 1644.839
1109.903, 1648.642
1110.385, 1636.849
1110.868, 1626.914
1111.350, 1620.869
1111.832, 1618.792
1112.314, 1625.146
1112.796, 1633.523
1113.278, 1632.879
1113.760, 1621.517
1114.242, 1613.309
1114.724, 1612.099
1115.207, 1613.118
1115.689, 1616.338
1116.171, 1619.293
1116.653, 1612.095
1117.135, 1599.358
1117.617, 1596.838
1118.099, 1614.524
1118.581, 1627.834
1119.063, 1619.420
1119.546, 1609.649
1120.028, 1615.158
1120.510, 1634.293
1120.992, 1633.233
1121.474, 1613.890
1121.956, 1598.167
1122.438, 1601.045
1122.920, 1608.627
1123.403, 1613.239
1123.885, 1616.561
1124.367, 1622.619
1124.849, 1633.607
1125.331, 1634.624
1125.813, 1623.987
1126.295, 1611.873
1126.777, 1606.441
1127.260, 1604.396
1127.742, 1601.572
1128.224, 1598.682
1128.706, 1601.600
1129.188, 1615.414
1129.670, 1621.215
1130.152, 1613.043
1130.634, 1602.014
1131.116, 1606.076
1131.599, 1616.794
1132.081, 1618.783
1132.563, 1608.701
1133.045, 1604.389
1133.527, 1614.480
1134.009, 1623.252
1134.491, 1625.258
1134.973, 1621.933
1135.455, 1614.874
1135.938, 1605.617
1136.420, 1598.388
1136.902, 1594.070
1137.384, 1593.017
1137.866, 1599.779
1138.348, 1605.659
1138.830, 1603.884
1139.312, 1595.545
1139.795, 1594.885
1140.277, 1600.499
1140.759, 1601.713
1141.241, 1581.975
1141.723, 1568.511
1142.205, 1583.733
1142.687, 1609.109
1143.169, 1619.648
1143.651, 1613.383
1144.134, 1613.106
1144.616, 1620.182
1145.098, 1624.245
1145.580, 1611.649
1146.062, 1597.837
1146.544, 1597.013
1147.026, 1605.652
1147.508, 1608.027
1147.990, 1601.504
1148.473, 1600.579
1148.955, 1608.512
1149.437, 1617.702
1149.919, 1619.487
1150.401, 1618.488
1150.883, 1621.345
1151.365, 1628.508
1151.847, 1629.152
1152.330, 1620.818
1152.812, 1611.310
1153.294, 1602.545
1153.776, 1594.625
1154.258, 1585.842
1154.740, 1578.744
1155.222, 1579.175
1155.704, 1591.467
1156.186, 1596.362
1156.669, 1586.300
1157.151, 1579.501
1157.633, 1587.366
1158.115, 1602.900
1158.597, 1608.626
1159.079, 1606.737
1159.561, 1602.966
1160.043, 1598.219
1160.526, 1593.670
1161.008, 1587.694
1161.490, 1584.354
1161.972, 1589.205
1162.454, 1599.735
1162.936, 1600.775
1163.418, 1593.860
1163.900, 1587.458
1164.382, 1586.604
1164.865, 1585.870
1165.347, 1582.655
1165.829, 1579.286
1166.311, 1577.973
1166.793, 1578.798
1167.275, 1584.266
1167.757, 1594.168
1168.239, 1601.634
1168.721, 1600.479
1169.204, 1597.468
1169.686, 1596.826
1170.168, 1596.524
1170.650, 1590.885
1171.132, 1580.007
1171.614, 1575.270
1172.096, 1578.562
1172.578, 1584.301
1173.061, 1592.483
1173.543, 1597.587
1174.025, 1592.061
1174.507, 1579.219
1174.989, 1574.183
1175.471, 1577.106
1175.953, 1582.521
1176.435, 1589.606
1176.917, 1596.504
1177.400, 1604.923
1177.882, 1609.988
1178.364, 1604.166
1178.846, 1587.241
1179.328, 1577.651
1179.810, 1575.899
1180.292, 1576.439
1180.774, 1577.896
1181.256, 1579.066
1181.739, 1578.058
1182.221, 1576.232
1182.703, 1575.196
1183.185, 1574.910
1183.667, 1578.208
1184.149, 1586.757
1184.631, 1588.737
1185.113, 1570.435
1185.596, 1548.380
1186.078, 1543.845
1186.560, 1550.969
1187.042, 1559.168
1187.524, 1565.366
1188.006, 1577.085
1188.488, 1597.019
1188.970, 1611.585
1189.453, 1607.220
1189.935, 1592.814
1190.417, 1574.676
1190.899, 1556.795
1191.381, 1551.155
1191.863, 1567.831
1192.345, 1579.501
1192.827, 1583.582
1193.309, 1584.356
1193.792, 1588.022
1194.274, 1590.152
1194.756, 1578.761
1195.238, 1557.346
1195.720, 1549.977
1196.202, 1571.526
1196.684, 1586.485
1197.166, 1588.441
1197.648, 1584.191
1198.131, 1579.815
1198.613, 1576.328
1199.095, 1576.104
1199.577, 1579.203
1200.059, 1581.114
1200.541, 1578.352
1201.023, 1580.289
1201.505, 1591.642
1201.988, 1603.805
1202.470, 1602.260
1202.952, 1592.061
1203.434, 1580.056
1203.916, 1566.223
1204.398, 1563.851
1204.880, 1582.357
1205.362, 1597.232
1205.844, 1599.926
1206.327, 1594.532
1206.809, 1583.622
1207.291, 1572.103
1207.773, 1571.520
1208.255, 1588.601
1208.737, 1597.812
1209.219, 1592.314
1209.701, 1585.459
1210.183, 1583.342
1210.666, 1584.032
1211.148, 1584.409
1211.630, 1583.910
1212.112, 1581.014
1212.594, 1573.629
1213.076, 1567.692
1213.558, 1562.409
1214.040, 1561.348
1214.523, 1568.337
1215.005, 1580.079
1215.487, 1589.719
1215.969, 1597.196
1216.451, 1602.441
1216.933, 1607.504
1217.415, 1605.590
1217.897, 1592.839
1218.380, 1580.565
1218.862, 1579.857
1219.344, 1585.107
1219.826, 1581.093
1220.308, 1570.988
1220.790, 1564.526
1221.272, 1569.575
1221.754, 1571.228
1222.236, 1565.774
1222.719, 1561.876
1223.201, 1569.094
1223.683, 1582.846
1224.165, 1596.748
1224.647, 1608.554
1225.129, 1610.895
1225.611, 1588.079
1226.093, 1575.869
1226.575, 1580.145
1227.058, 1589.473
1227.540, 1592.665
1228.022, 1591.819
1228.504, 1590.174
1228.986, 1588.150
1229.468, 1586.864
1229.950, 1588.643
1230.432, 1587.192
1230.915, 1580.526
1231.397, 1573.649
1231.879, 1573.333
1232.361, 1576.631
1232.843, 1578.500
1233.325, 1578.835
1233.807, 1580.629
1234.289, 1586.188
1234.771, 1589.297
1235.254, 1588.710
1235.736, 1585.716
1236.218, 1579.289
1236.700, 1572.967
1237.182, 1572.850
1237.664, 1579.119
1238.146, 1582.770
1238.628, 1581.310
1239.110, 1582.519
1239.593, 1589.624
1240.075, 1595.610
1240.557, 1587.879
1241.039, 1575.192
1241.521, 1568.736
1242.003, 1569.979
1242.485, 1573.359
1242.967, 1579.921
1243.449, 1582.813
1243.932, 1578.432
1244.414, 1574.956
1244.896, 1584.962
1245.378, 1600.085
1245.860, 1611.711
1246.342, 1618.621
1246.824, 1618.438
1247.306, 1610.326
1247.789, 1597.770
1248.271, 1578.200
1248.753, 1565.507
1249.235, 1585.151
1249.717, 1614.168
1250.199, 1625.917
1250.681, 1618.523
1251.163, 1612.020
1251.646, 1606.491
1252.128, 1601.046
1252.610, 1594.061
1253.092, 1590.263
1253.574, 1596.559
1254.056, 1606.661
1254.538, 1616.447
1255.020, 1625.464
1255.502, 1618.270
1255.984, 1595.154
1256.467, 1578.075
1256.949, 1576.877
1257.431, 1581.808
1257.913, 1587.839
1258.395, 1595.192
1258.877, 1605.616
1259.359, 1618.412
1259.841, 1618.564
1260.324, 1607.652
1260.806, 1601.173
1261.288, 1609.525
1261.770, 1616.222
1262.252, 1606.436
1262.734, 1596.345
1263.216, 1600.646
1263.698, 1616.306
1264.181, 1616.534
1264.663, 1604.530
1265.145, 1596.636
1265.627, 1602.739
1266.109, 1608.459
1266.591, 1604.908
1267.073, 1603.829
1267.555, 1617.379
1268.037, 1639.458
1268.520, 1638.220
1269.002, 1620.294
1269.484, 1608.525
1269.966, 1615.656
1270.448, 1623.452
1270.930, 1629.719
1271.412, 1634.593
1271.894, 1638.938
1272.376, 1641.673
1272.859, 1639.464
1273.341, 1633.179
1273.823, 1625.039
1274.305, 1608.381
1274.787, 1603.907
1275.269, 1615.906
1275.751, 1629.431
1276.233, 1633.546
1276.716, 1631.908
1277.198, 1628.206
1277.680, 1624.059
1278.162, 1623.266
1278.644, 1629.530
1279.126, 1632.056
1279.608, 1630.454
1280.090, 1626.746
1280.573, 1619.442
1281.055, 1613.422
1281.537, 1615.330
1282.019, 1621.864
1282.501, 1626.458
1282.983, 1627.875
1283.465, 1632.129
1283.947, 1639.539
1284.429, 1645.420
1284.911, 1647.771
1285.394, 1646.329
1285.876, 1637.130
1286.358, 1625.999
1286.840, 1621.511
1287.322, 1623.974
1287.804, 1624.878
1288.286, 1624.337
1288.768, 1626.288
1289.251, 1635.880
1289.733, 1645.176
1290.215, 1652.227
1290.697, 1655.788
##END=



