##NAMES=Uranophane-alpha
##RRUFFID=R050380
##IDEAL CHEMISTRY=Ca(U^6+^O_2_)_2_(SiO_3_OH)_2_&#183;5H_2_O
##LOCALITY=Grafton County, New Hampshire, USA
##OWNER=RRUFF
##SOURCE=University of Arizona Mineral Museum
##DESCRIPTION=Orange massive coating
##STATUS=The identification of this mineral has been confirmed by X-ray diffraction and chemical analysis
##URL=rruff.info/R050380
##MEASURED CHEMISTRY=(Ca_0.97_Pb_0.03_)(U_1.00_O_2_)_2_(Si_1.00_O_3_OH)_2_Â·5H_2_O
92.52344, 284.8571
93.00555, 284.1507
93.48767, 284.4925
93.96979, 291.3110
94.45190, 297.9693
94.93402, 303.5152
95.41614, 304.1707
95.89825, 301.4282
96.38037, 297.8419
96.86249, 293.5975
97.34460, 289.4108
97.82672, 285.6297
98.30884, 282.0429
98.79095, 278.5307
99.27307, 274.8221
99.75519, 271.0095
100.2373, 268.0613
100.7194, 266.0502
101.2015, 264.1152
101.6837, 262.0953
102.1658, 260.1281
102.6479, 258.0294
103.1300, 255.6772
103.6121, 254.0773
104.0942, 254.5832
104.5764, 256.2815
105.0585, 257.9176
105.5406, 258.9529
106.0227, 259.5809
106.5048, 260.4004
106.9869, 261.5144
107.4691, 262.5184
107.9512, 263.1364
108.4333, 263.4872
108.9154, 263.8702
109.3975, 264.5440
109.8796, 265.5428
110.3618, 266.5500
110.8439, 267.4026
111.3260, 268.3775
111.8081, 269.8301
112.2902, 271.6710
112.7723, 273.3823
113.2544, 274.1865
113.7366, 273.3299
114.2187, 272.9128
114.7008, 273.1618
115.1829, 273.6873
115.6650, 274.1736
116.1471, 274.5097
116.6293, 274.7294
117.1114, 274.8989
117.5935, 275.0159
118.0756, 275.0930
118.5577, 275.2093
119.0398, 275.2924
119.5220, 275.1284
120.0041, 274.5020
120.4862, 273.6659
120.9683, 273.1893
121.4504, 273.2006
121.9325, 273.3374
122.4147, 273.3843
122.8968, 273.3480
123.3789, 273.1228
123.8610, 272.6360
124.3431, 271.9214
124.8252, 270.9239
125.3074, 269.5231
125.7895, 267.9538
126.2716, 266.7069
126.7537, 265.8998
127.2358, 265.2556
127.7179, 264.7260
128.2001, 264.2608
128.6822, 263.8095
129.1643, 263.3692
129.6464, 262.9210
130.1285, 262.2392
130.6107, 261.0499
131.0928, 259.8683
131.5749, 258.7611
132.0570, 257.7611
132.5391, 256.8678
133.0212, 256.0609
133.5034, 255.2917
133.9855, 255.0626
134.4676, 255.8228
134.9497, 256.6472
135.4318, 257.0556
135.9139, 256.9923
136.3960, 256.6372
136.8782, 256.1002
137.3603, 255.2944
137.8424, 254.8892
138.3245, 255.1491
138.8066, 255.7422
139.2887, 256.3355
139.7709, 256.8823
140.2530, 257.3192
140.7351, 257.5556
141.2172, 257.6165
141.6993, 257.5387
142.1814, 257.2854
142.6636, 256.8922
143.1457, 256.4706
143.6278, 255.9624
144.1099, 255.5384
144.5920, 255.3313
145.0741, 255.3422
145.5563, 255.4491
146.0384, 255.5664
146.5205, 255.6969
147.0026, 255.8170
147.4847, 255.9198
147.9668, 256.0138
148.4490, 256.0908
148.9311, 256.1522
149.4132, 256.2254
149.8953, 256.3369
150.3774, 256.4369
150.8595, 256.6989
151.3417, 257.1750
151.8238, 257.7568
152.3059, 258.3806
152.7880, 259.0141
153.2701, 259.6445
153.7522, 260.2314
154.2344, 260.6569
154.7165, 261.1693
155.1986, 261.8544
155.6807, 262.6109
156.1628, 263.2542
156.6449, 263.6654
157.1271, 263.9848
157.6092, 264.8252
158.0913, 266.4716
158.5734, 268.2071
159.0555, 270.0424
159.5376, 271.8463
160.0198, 273.2311
160.5019, 273.8682
160.9840, 273.9691
161.4661, 274.3864
161.9482, 275.2489
162.4303, 276.2708
162.9125, 277.3322
163.3946, 278.4280
163.8767, 279.4318
164.3588, 280.2581
164.8409, 280.9289
165.3230, 281.5058
165.8052, 282.0603
166.2873, 282.4632
166.7694, 282.4727
167.2515, 281.9794
167.7336, 281.4643
168.2157, 281.5052
168.6979, 281.5775
169.1800, 280.9810
169.6621, 279.2620
170.1442, 276.7964
170.6263, 274.5586
171.1084, 272.3355
171.5906, 270.7794
172.0727, 270.3012
172.5548, 270.4576
173.0369, 270.6623
173.5190, 270.5858
174.0011, 270.2418
174.4833, 269.7394
174.9654, 268.3620
175.4475, 267.5704
175.9296, 267.8784
176.4117, 268.9999
176.8938, 270.4146
177.3760, 271.7577
177.8581, 273.0282
178.3402, 274.2617
178.8223, 275.3320
179.3044, 276.4879
179.7865, 277.7438
180.2687, 279.1454
180.7508, 280.7997
181.2329, 282.8214
181.7150, 285.2639
182.1971, 287.5636
182.6792, 289.2598
183.1614, 291.2003
183.6435, 293.8996
184.1256, 297.3616
184.6077, 301.2784
185.0898, 305.5085
185.5719, 310.0591
186.0541, 314.2458
186.5362, 317.7644
187.0183, 321.0720
187.5004, 324.5972
187.9825, 328.4046
188.4646, 332.1823
188.9468, 335.4774
189.4289, 338.4459
189.9110, 341.8625
190.3931, 346.0750
190.8752, 350.7803
191.3573, 355.6447
191.8395, 360.7585
192.3216, 365.7124
192.8037, 369.9044
193.2858, 373.6557
193.7679, 377.7538
194.2500, 382.8543
194.7322, 388.5948
195.2143, 393.8046
195.6964, 397.9957
196.1785, 402.3688
196.6606, 407.6933
197.1427, 413.6801
197.6249, 419.6511
198.1070, 425.1920
198.5891, 430.3328
199.0712, 435.3624
199.5533, 440.0439
200.0354, 444.8883
200.5176, 450.3279
200.9997, 456.0694
201.4818, 461.4786
201.9639, 466.0447
202.4460, 469.7624
202.9281, 473.0132
203.4103, 475.3922
203.8924, 477.6143
204.3745, 480.1794
204.8566, 482.8131
205.3387, 484.7780
205.8208, 485.4038
206.3030, 484.5827
206.7851, 483.3896
207.2672, 482.3456
207.7493, 480.5180
208.2314, 477.3246
208.7135, 472.9424
209.1957, 468.0013
209.6778, 463.0582
210.1599, 458.1641
210.6420, 452.8619
211.1241, 447.4025
211.6062, 441.4392
212.0884, 434.5965
212.5705, 427.0042
213.0526, 419.1648
213.5347, 411.4624
214.0168, 403.9202
214.4989, 396.4518
214.9811, 389.0162
215.4632, 381.6582
215.9453, 374.4869
216.4274, 367.4678
216.9095, 360.3596
217.3916, 352.8627
217.8737, 344.9600
218.3559, 337.5658
218.8380, 330.7846
219.3201, 324.3960
219.8022, 318.1992
220.2843, 312.1797
220.7664, 306.4081
221.2486, 301.0407
221.7307, 295.9754
222.2128, 290.9734
222.6949, 285.8654
223.1770, 280.8637
223.6591, 276.3090
224.1413, 272.2589
224.6234, 268.2766
225.1055, 264.0435
225.5876, 259.6707
226.0697, 255.3462
226.5518, 250.9130
227.0340, 246.6772
227.5161, 243.1835
227.9982, 240.5775
228.4803, 238.2111
228.9624, 235.8204
229.4445, 233.4242
229.9267, 231.0082
230.4088, 228.5673
230.8909, 226.1298
231.3730, 223.7747
231.8551, 221.5168
232.3372, 219.3203
232.8194, 217.1034
233.3015, 214.9352
233.7836, 212.8905
234.2657, 211.0011
234.7478, 209.2519
235.2299, 207.5703
235.7121, 205.7935
236.1942, 204.4407
236.6763, 203.8926
237.1584, 203.6794
237.6405, 203.3485
238.1227, 202.7198
238.6048, 201.8061
239.0869, 200.5816
239.5690, 198.6756
240.0511, 197.1183
240.5332, 196.1267
241.0154, 195.5042
241.4975, 195.1141
241.9796, 194.8994
242.4617, 194.8055
242.9438, 194.7091
243.4259, 194.6680
243.9081, 194.5210
244.3902, 194.0031
244.8723, 193.4987
245.3544, 193.4821
245.8365, 194.1225
246.3186, 195.0430
246.8008, 195.3665
247.2829, 194.5002
247.7650, 193.8577
248.2471, 193.5988
248.7292, 193.5241
249.2113, 193.4674
249.6935, 193.3671
250.1756, 193.2451
250.6577, 193.1453
251.1398, 193.0977
251.6219, 193.0266
252.1040, 192.8972
252.5862, 192.7632
253.0683, 192.7041
253.5504, 192.7348
254.0325, 192.7540
254.5146, 192.5732
254.9967, 191.8753
255.4789, 191.6065
255.9610, 191.9494
256.4431, 192.6086
256.9252, 193.4094
257.4073, 194.2940
257.8894, 195.1618
258.3716, 195.8733
258.8537, 196.3529
259.3358, 196.8561
259.8179, 197.4917
260.3000, 198.0895
260.7821, 198.3966
261.2643, 198.3949
261.7464, 198.4500
262.2285, 198.9641
262.7106, 200.0449
263.1927, 201.2561
263.6748, 202.7703
264.1570, 204.2951
264.6391, 205.5694
265.1212, 206.5690
265.6033, 207.4450
266.0854, 208.3393
266.5675, 209.2416
267.0497, 209.9521
267.5318, 210.2559
268.0139, 210.5079
268.4960, 210.8719
268.9781, 211.3803
269.4602, 212.2969
269.9424, 214.0618
270.4245, 216.4831
270.9066, 218.1880
271.3887, 218.4451
271.8708, 218.5122
272.3529, 219.3907
272.8351, 221.0396
273.3172, 222.7803
273.7993, 224.2758
274.2814, 225.5365
274.7635, 226.6899
275.2456, 227.6275
275.7278, 228.5759
276.2099, 229.8130
276.6920, 231.2811
277.1741, 232.4683
277.6562, 232.9569
278.1383, 233.1177
278.6205, 233.7908
279.1026, 235.3122
279.5847, 236.6329
280.0668, 236.8423
280.5489, 236.1317
281.0310, 235.6626
281.5132, 235.9881
281.9953, 236.5934
282.4774, 236.7629
282.9595, 236.4650
283.4416, 235.9436
283.9237, 235.3582
284.4059, 234.6766
284.8880, 233.6998
285.3701, 232.1900
285.8522, 230.6369
286.3343, 229.6263
286.8164, 229.1284
287.2986, 228.5536
287.7807, 227.5884
288.2628, 226.2979
288.7449, 224.7717
289.2270, 222.6638
289.7091, 220.9972
290.1913, 221.1648
290.6734, 222.6030
291.1555, 223.2156
291.6376, 221.3171
292.1197, 217.9715
292.6018, 215.7499
293.0840, 215.1150
293.5661, 214.8160
294.0482, 213.9749
294.5303, 212.8725
295.0124, 212.0280
295.4945, 211.8028
295.9767, 211.8752
296.4588, 211.6795
296.9409, 211.1773
297.4230, 210.5363
297.9051, 209.6031
298.3872, 208.6486
298.8694, 208.0384
299.3515, 207.9665
299.8336, 208.1210
300.3157, 208.0827
300.7978, 207.8132
301.2799, 207.5807
301.7621, 207.5155
302.2442, 207.5208
302.7263, 207.5321
303.2084, 207.5453
303.6905, 207.5170
304.1726, 207.4612
304.6548, 207.3869
305.1369, 207.0418
305.6190, 206.1832
306.1011, 205.1586
306.5832, 204.2189
307.0653, 203.3826
307.5475, 202.5871
308.0296, 201.8285
308.5117, 201.0972
308.9938, 200.2368
309.4759, 199.1633
309.9580, 198.0272
310.4402, 197.0608
310.9223, 196.1718
311.4044, 195.0022
311.8865, 193.0411
312.3686, 190.5508
312.8507, 188.7107
313.3329, 187.8641
313.8150, 187.1192
314.2971, 186.0440
314.7792, 184.7097
315.2613, 183.2197
315.7434, 181.5537
316.2256, 179.7963
316.7077, 178.1076
317.1898, 176.4489
317.6719, 174.9304
318.1540, 173.6496
318.6361, 172.5065
319.1183, 171.4315
319.6004, 170.4287
320.0825, 169.4023
320.5646, 168.1728
321.0467, 166.6930
321.5288, 165.3159
322.0110, 164.3749
322.4931, 163.4412
322.9752, 162.1408
323.4573, 160.4147
323.9394, 158.5806
324.4215, 156.8599
324.9037, 155.2637
325.3858, 153.9059
325.8679, 153.0423
326.3500, 152.1936
326.8321, 150.9555
327.3142, 149.3824
327.7964, 147.8653
328.2785, 146.6665
328.7606, 145.7454
329.2427, 144.9228
329.7248, 144.2978
330.2069, 143.5847
330.6891, 142.6218
331.1712, 141.4583
331.6533, 140.1757
332.1354, 138.7627
332.6175, 137.2783
333.0996, 135.8073
333.5818, 134.2969
334.0639, 132.9501
334.5460, 132.0136
335.0281, 131.2516
335.5102, 130.3990
335.9923, 129.3406
336.4745, 128.2699
336.9566, 127.4103
337.4387, 126.7741
337.9208, 126.2030
338.4029, 125.7937
338.8850, 125.3118
339.3671, 124.4587
339.8492, 123.1782
340.3314, 121.9482
340.8135, 121.1943
341.2956, 120.8333
341.7777, 120.3726
342.2598, 119.6641
342.7419, 118.9251
343.2241, 118.3205
343.7062, 117.8377
344.1883, 117.4438
344.6704, 117.2407
345.1525, 117.0968
345.6346, 116.6622
346.1168, 115.8161
346.5989, 115.0143
347.0810, 114.6404
347.5631, 114.5378
348.0452, 114.4591
348.5273, 114.2968
349.0095, 114.1730
349.4916, 114.2823
349.9737, 114.6312
350.4558, 114.9237
350.9379, 115.0796
351.4200, 115.0483
351.9022, 114.7368
352.3843, 114.0264
352.8664, 113.3576
353.3485, 112.9953
353.8306, 112.9125
354.3127, 113.0593
354.7949, 113.5530
355.2770, 114.0538
355.7591, 114.0579
356.2412, 113.5790
356.7233, 113.1870
357.2054, 113.0826
357.6876, 113.1918
358.1697, 113.4428
358.6518, 113.8467
359.1339, 114.2473
359.6160, 114.4649
360.0981, 114.5472
360.5803, 114.7466
361.0624, 115.2914
361.5445, 115.8149
362.0266, 115.9007
362.5087, 115.6122
362.9908, 115.4905
363.4730, 115.9096
363.9551, 116.6632
364.4372, 117.0883
364.9193, 116.9265
365.4014, 116.8898
365.8835, 117.3899
366.3657, 118.2082
366.8478, 118.9168
367.3299, 119.3737
367.8120, 119.6678
368.2941, 119.8962
368.7762, 120.0092
369.2584, 120.2725
369.7405, 120.8199
370.2226, 121.4758
370.7047, 122.0987
371.1868, 122.6659
371.6689, 123.1507
372.1511, 123.4966
372.6332, 123.6981
373.1153, 124.1164
373.5974, 124.8513
374.0795, 125.6840
374.5616, 126.6467
375.0438, 127.6315
375.5259, 128.3632
376.0080, 128.6518
376.4901, 128.6618
376.9722, 128.9775
377.4543, 129.8190
377.9365, 130.6723
378.4186, 131.5529
378.9007, 132.3898
379.3828, 133.0321
379.8649, 133.4575
380.3470, 133.8899
380.8292, 134.6657
381.3113, 135.9831
381.7934, 137.0592
382.2755, 137.7986
382.7576, 138.4166
383.2397, 138.9993
383.7219, 139.5677
384.2040, 140.1200
384.6861, 140.6543
385.1682, 141.1712
385.6503, 141.6580
386.1324, 141.9917
386.6146, 142.4353
387.0967, 143.2262
387.5788, 144.0859
388.0609, 144.6057
388.5430, 144.6125
389.0251, 144.3945
389.5073, 144.5744
389.9894, 145.4891
390.4715, 146.0897
390.9536, 146.0065
391.4357, 145.8772
391.9178, 146.2343
392.4000, 147.0359
392.8821, 147.7382
393.3642, 147.7176
393.8463, 146.9408
394.3284, 146.5667
394.8105, 147.0393
395.2927, 147.4106
395.7748, 147.3050
396.2569, 146.8948
396.7390, 146.4919
397.2211, 146.2677
397.7032, 146.1038
398.1854, 145.7101
398.6675, 144.9947
399.1496, 144.3258
399.6317, 143.9399
400.1138, 143.5550
400.5959, 142.8780
401.0781, 141.8700
401.5602, 140.9148
402.0423, 140.5187
402.5244, 140.6056
403.0065, 140.2947
403.4886, 139.3685
403.9708, 138.1798
404.4529, 136.7473
404.9350, 135.2446
405.4171, 134.1853
405.8992, 134.2304
406.3813, 134.6257
406.8635, 133.8528
407.3456, 131.7072
407.8277, 130.3394
408.3098, 131.5825
408.7919, 133.8885
409.2740, 134.5922
409.7562, 133.1288
410.2383, 131.1673
410.7204, 129.3843
411.2025, 127.8727
411.6846, 127.0439
412.1667, 127.2092
412.6489, 127.4777
413.1310, 126.7474
413.6131, 125.0681
414.0952, 123.0011
414.5773, 120.0732
415.0594, 117.1784
415.5416, 115.2332
416.0237, 114.2146
416.5058, 113.4586
416.9879, 112.5490
417.4700, 111.5425
417.9521, 110.7474
418.4343, 110.3756
418.9164, 109.9238
419.3985, 109.1793
419.8806, 108.2924
420.3627, 107.4570
420.8448, 106.7342
421.3270, 106.1487
421.8091, 105.7656
422.2912, 105.7421
422.7733, 105.4575
423.2554, 104.6345
423.7375, 103.8135
424.2197, 103.3883
424.7018, 103.2744
425.1839, 103.1034
425.6660, 102.5930
426.1481, 101.8153
426.6302, 101.2526
427.1124, 101.1793
427.5945, 100.9978
428.0766, 100.6044
428.5587, 100.0888
429.0408, 99.48489
429.5229, 98.82237
430.0051, 98.22034
430.4872, 97.88326
430.9693, 97.89809
431.4514, 97.82065
431.9335, 97.48222
432.4156, 97.19070
432.8978, 97.12882
433.3799, 97.21920
433.8620, 97.24125
434.3441, 97.01759
434.8262, 96.66466
435.3083, 96.54381
435.7905, 96.74366
436.2726, 96.93129
436.7547, 97.01302
437.2368, 97.01467
437.7189, 96.89733
438.2010, 96.63905
438.6832, 96.47086
439.1653, 96.71537
439.6474, 97.26685
440.1295, 97.52962
440.6116, 97.33004
441.0938, 96.98434
441.5759, 96.67095
442.0580, 96.41519
442.5401, 96.33601
443.0222, 96.67843
443.5043, 97.06667
443.9865, 97.03272
444.4686, 96.63101
444.9507, 96.36594
445.4328, 96.49022
445.9149, 96.88117
446.3970, 97.28103
446.8792, 97.72900
447.3613, 98.07999
447.8434, 98.25854
448.3255, 98.33544
448.8076, 98.37347
449.2897, 98.38977
449.7719, 98.42164
450.2540, 98.49376
450.7361, 98.60544
451.2182, 98.83942
451.7003, 99.27918
452.1824, 99.73000
452.6646, 100.1371
453.1467, 100.5061
453.6288, 100.8376
454.1109, 101.1325
454.5930, 101.4220
455.0751, 101.7729
455.5573, 102.2154
456.0394, 102.6625
456.5215, 103.2132
457.0036, 103.6841
457.4857, 103.8661
457.9678, 103.8480
458.4500, 103.9471
458.9321, 104.4455
459.4142, 105.2510
459.8963, 105.8088
460.3784, 105.9572
460.8605, 106.1395
461.3427, 106.5301
461.8248, 106.9792
462.3069, 107.3082
462.7890, 107.4735
463.2711, 107.6704
463.7532, 108.1876
464.2354, 108.9917
464.7175, 109.5316
465.1996, 109.6073
465.6817, 109.6291
466.1638, 109.8879
466.6459, 110.3194
467.1281, 110.7802
467.6102, 111.3338
468.0923, 111.7939
468.5744, 111.9067
469.0565, 111.7004
469.5386, 111.4356
470.0208, 111.1693
470.5029, 110.9536
470.9850, 110.9432
471.4671, 111.2052
471.9492, 111.2756
472.4313, 110.9003
472.9135, 110.3558
473.3956, 109.9218
473.8777, 109.6273
474.3598, 109.4046
474.8419, 109.2463
475.3240, 109.1183
475.8062, 108.6716
476.2883, 107.5439
476.7704, 106.5881
477.2525, 106.1486
477.7346, 105.8981
478.2167, 105.4293
478.6989, 104.6383
479.1810, 103.7435
479.6631, 103.0115
480.1452, 102.4754
480.6273, 101.9553
481.1094, 101.4852
481.5916, 100.9974
482.0737, 100.4504
482.5558, 99.87315
483.0379, 99.31054
483.5200, 98.77897
484.0021, 98.28336
484.4843, 97.82917
484.9664, 97.41152
485.4485, 97.05151
485.9306, 96.83731
486.4127, 96.61008
486.8948, 96.23042
487.3770, 95.72390
487.8591, 95.25998
488.3412, 94.98050
488.8233, 94.79569
489.3054, 94.53455
489.7875, 94.19348
490.2697, 93.81381
490.7518, 93.39443
491.2339, 92.96360
491.7160, 92.54773
492.1981, 92.10289
492.6802, 91.80727
493.1624, 91.91809
493.6445, 92.16066
494.1266, 92.09785
494.6087, 91.65945
495.0908, 91.08514
495.5729, 90.53191
496.0551, 90.00793
496.5372, 89.78467
497.0193, 90.16597
497.5014, 90.44723
497.9835, 90.31148
498.4656, 89.98100
498.9478, 89.81067
499.4299, 89.90669
499.9120, 90.04108
500.3941, 89.85745
500.8762, 89.23055
501.3583, 88.77891
501.8405, 88.49284
502.3226, 88.39405
502.8047, 88.68321
503.2868, 89.13889
503.7689, 89.34800
504.2510, 89.08089
504.7331, 88.59622
505.2152, 88.37679
505.6974, 88.46615
506.1795, 88.54842
506.6616, 88.56514
507.1437, 88.55038
507.6258, 88.53782
508.1079, 88.52195
508.5901, 88.46950
509.0722, 88.30045
509.5543, 88.11759
510.0364, 88.10067
510.5185, 88.24767
511.0006, 88.37518
511.4828, 88.40176
511.9649, 88.35210
512.4470, 88.27451
512.9291, 88.16415
513.4113, 88.04790
513.8934, 87.87871
514.3755, 87.73972
514.8576, 87.66817
515.3397, 87.69332
515.8218, 87.96157
516.3040, 88.64199
516.7861, 89.63358
517.2682, 90.19570
517.7503, 89.85435
518.2324, 89.66521
518.7145, 89.76453
519.1967, 90.03233
519.6788, 90.40618
520.1609, 90.84351
520.6430, 91.24397
521.1251, 91.46531
521.6072, 91.51990
522.0894, 91.80720
522.5715, 92.48605
523.0536, 93.15089
523.5357, 93.62321
524.0178, 94.02593
524.4999, 94.48128
524.9821, 95.01624
525.4642, 95.65626
525.9463, 96.54446
526.4284, 97.58603
526.9105, 98.33680
527.3926, 98.65805
527.8748, 98.90170
528.3569, 99.25127
528.8390, 99.74406
529.3211, 100.5203
529.8032, 101.9035
530.2853, 103.2187
530.7675, 103.9598
531.2496, 104.3925
531.7317, 105.0653
532.2138, 106.1437
532.6959, 107.3513
533.1780, 108.3561
533.6602, 109.1394
534.1423, 109.8284
534.6244, 110.1214
535.1065, 110.6646
535.5886, 111.9108
536.0707, 113.5008
536.5529, 114.8664
537.0350, 115.7769
537.5171, 116.4822
537.9992, 117.3556
538.4813, 118.4244
538.9634, 119.5133
539.4456, 120.6055
539.9277, 121.7272
540.4098, 122.9910
540.8919, 124.2714
541.3740, 125.3156
541.8561, 125.9908
542.3383, 126.4634
542.8204, 126.9865
543.3025, 127.5258
543.7846, 127.7303
544.2667, 127.4624
544.7488, 126.9383
545.2310, 126.4186
545.7131, 125.8857
546.1952, 125.0308
546.6773, 123.5418
547.1594, 121.9706
547.6415, 120.7468
548.1237, 119.7270
548.6058, 118.4559
549.0879, 116.7470
549.5700, 114.9109
550.0521, 113.5068
550.5342, 112.8541
551.0164, 111.6589
551.4985, 109.4150
551.9806, 107.2422
552.4627, 105.5622
552.9448, 104.3164
553.4269, 103.3823
553.9091, 102.7268
554.3912, 102.0931
554.8733, 100.9383
555.3554, 99.13855
555.8375, 97.63911
556.3196, 96.66825
556.8018, 95.91338
557.2839, 95.25037
557.7660, 94.62424
558.2481, 93.89124
558.7302, 92.97316
559.2123, 91.96310
559.6945, 90.82612
560.1766, 89.64503
560.6587, 88.85224
561.1408, 88.63836
561.6229, 88.66348
562.1050, 88.57755
562.5872, 88.39420
563.0693, 87.84075
563.5514, 86.39568
564.0335, 85.10342
564.5156, 84.55433
564.9977, 84.52917
565.4799, 84.64053
565.9620, 84.72827
566.4441, 84.76073
566.9262, 84.69167
567.4083, 84.52319
567.8904, 84.24122
568.3726, 83.61544
568.8547, 83.11617
569.3368, 83.06132
569.8189, 83.20032
570.3010, 83.07323
570.7831, 82.46054
571.2653, 81.79471
571.7474, 81.67699
572.2295, 82.02279
572.7116, 82.11659
573.1937, 81.78571
573.6758, 81.33550
574.1580, 81.00719
574.6401, 80.76861
575.1222, 80.49148
575.6043, 80.13918
576.0864, 79.77448
576.5685, 79.38418
577.0507, 79.01741
577.5328, 78.77046
578.0149, 78.66337
578.4970, 78.61649
578.9791, 78.54411
579.4612, 78.44363
579.9434, 78.38712
580.4255, 78.47339
580.9076, 78.48672
581.3897, 78.36272
581.8718, 78.15835
582.3539, 77.89844
582.8361, 77.60399
583.3182, 77.37193
583.8003, 77.34763
584.2824, 77.49285
584.7645, 77.49892
585.2466, 77.29449
585.7288, 77.15627
586.2108, 77.36478
586.6929, 77.65035
587.1750, 77.55988
587.6572, 76.94328
588.1393, 76.47205
588.6214, 76.56381
589.1035, 76.91882
589.5856, 77.17400
590.0677, 77.29005
590.5499, 77.33371
591.0320, 77.34657
591.5141, 77.32393
591.9962, 77.24678
592.4783, 77.02266
592.9604, 76.87679
593.4426, 76.82751
593.9247, 76.84312
594.4068, 76.94515
594.8889, 77.09678
595.3710, 77.21774
595.8531, 77.27100
596.3353, 77.23026
596.8174, 76.94240
597.2995, 76.31319
597.7816, 76.01939
598.2637, 76.49985
598.7458, 77.05325
599.2280, 76.97459
599.7101, 76.39528
600.1922, 76.03570
600.6743, 76.40503
601.1564, 76.83794
601.6385, 76.65890
602.1207, 76.07703
602.6028, 75.73484
603.0849, 75.85378
603.5670, 76.19083
604.0491, 76.46230
604.5313, 76.68438
605.0134, 76.72683
605.4955, 76.41372
605.9776, 76.14791
606.4597, 76.12502
606.9418, 76.19315
607.4240, 76.10106
607.9061, 75.79637
608.3882, 75.53709
608.8703, 75.72636
609.3524, 76.30996
609.8345, 76.50500
610.3167, 76.13817
610.7988, 75.79421
611.2809, 75.83264
611.7630, 76.03255
612.2451, 76.10068
612.7272, 76.00162
613.2094, 75.82964
613.6915, 75.54964
614.1736, 75.26302
614.6557, 75.08238
615.1378, 75.01897
615.6199, 75.09339
616.1021, 75.34410
616.5842, 75.67271
617.0663, 75.79296
617.5484, 75.55882
618.0305, 75.35547
618.5126, 75.24722
618.9948, 75.10683
619.4769, 74.80880
619.9590, 74.42326
620.4411, 74.11293
620.9232, 73.95444
621.4053, 73.92090
621.8875, 74.00282
622.3696, 74.19772
622.8517, 74.38123
623.3338, 74.58224
623.8159, 74.66985
624.2980, 74.43641
624.7802, 73.99052
625.2623, 73.69344
625.7444, 73.73829
626.2265, 73.74260
626.7086, 73.37888
627.1907, 72.93086
627.6729, 72.85133
628.1550, 73.19556
628.6371, 73.64526
629.1192, 73.93333
629.6013, 74.07045
630.0834, 74.12563
630.5656, 73.99247
631.0477, 73.95661
631.5298, 74.23110
632.0119, 74.47238
632.4940, 74.37058
632.9761, 73.96397
633.4583, 73.56473
633.9404, 73.32201
634.4225, 73.22346
634.9046, 73.30997
635.3867, 73.56360
635.8688, 73.73827
636.3510, 73.74370
636.8331, 73.67716
637.3152, 73.65777
637.7973, 73.69344
638.2794, 73.67491
638.7615, 73.50541
639.2437, 73.38802
639.7258, 73.46940
640.2079, 73.62826
640.6900, 73.68102
641.1721, 73.58780
641.6542, 73.46201
642.1364, 73.43253
642.6185, 73.48799
643.1006, 73.45988
643.5827, 73.25461
644.0648, 73.17363
644.5469, 73.45512
645.0291, 73.82774
645.5112, 74.07999
645.9933, 74.19388
646.4754, 74.17819
646.9575, 73.88609
647.4396, 73.57400
647.9218, 73.57085
648.4039, 73.81321
648.8860, 73.99360
649.3681, 73.98409
649.8502, 73.89941
650.3323, 73.92225
650.8145, 74.09826
651.2966, 74.17087
651.7787, 74.02750
652.2608, 73.91467
652.7429, 73.93142
653.2250, 74.00945
653.7072, 74.06400
654.1893, 74.07254
654.6714, 74.06044
655.1535, 74.04686
655.6356, 74.03185
656.1177, 74.04659
656.5999, 74.10982
657.0820, 74.01450
657.5641, 73.52419
658.0462, 72.95036
658.5283, 72.95689
659.0104, 73.66543
659.4926, 74.19594
659.9747, 74.33475
660.4568, 74.34703
660.9389, 74.36855
661.4210, 74.39768
661.9031, 74.38985
662.3853, 74.32959
662.8674, 74.27305
663.3495, 74.33343
663.8316, 74.52807
664.3137, 74.52397
664.7958, 74.13149
665.2780, 73.88530
665.7601, 74.27309
666.2422, 74.81467
666.7243, 74.87150
667.2064, 74.30775
667.6885, 73.88376
668.1707, 74.17676
668.6528, 74.64707
669.1349, 74.54369
669.6170, 74.00015
670.0991, 73.80236
670.5812, 74.34618
671.0634, 75.14529
671.5455, 75.32174
672.0276, 74.65694
672.5097, 74.19836
672.9918, 74.00034
673.4739, 73.96058
673.9561, 74.20429
674.4382, 74.52511
674.9203, 74.62643
675.4024, 74.43511
675.8845, 74.24937
676.3666, 74.34779
676.8488, 74.61301
677.3309, 74.78415
677.8130, 74.85020
678.2951, 74.94772
678.7772, 75.17172
679.2593, 75.40374
679.7415, 75.40161
680.2236, 75.01295
680.7057, 74.86890
681.1878, 75.20086
681.6699, 75.52243
682.1520, 75.58168
682.6342, 75.50044
683.1163, 75.47179
683.5984, 75.55565
684.0805, 75.68938
684.5626, 75.81863
685.0447, 75.94228
685.5269, 76.03751
686.0090, 76.08601
686.4911, 76.21460
686.9732, 76.52502
687.4553, 76.90311
687.9374, 77.17774
688.4196, 77.35437
688.9017, 77.43584
689.3838, 77.34432
689.8659, 77.23554
690.3480, 77.19923
690.8301, 77.21250
691.3123, 77.22993
691.7944, 77.23609
692.2765, 77.23542
692.7586, 77.20226
693.2407, 77.15105
693.7228, 77.33423
694.2050, 77.90798
694.6871, 78.28976
695.1692, 78.09072
695.6513, 77.74052
696.1334, 77.74548
696.6155, 78.10697
697.0977, 78.35005
697.5798, 78.21072
698.0619, 78.02126
698.5440, 78.01677
699.0261, 78.14831
699.5082, 78.29632
699.9904, 78.42854
700.4725, 78.61838
700.9546, 78.98012
701.4367, 79.48756
701.9188, 79.71489
702.4009, 79.47341
702.8831, 79.32697
703.3652, 79.49429
703.8473, 79.75037
704.3294, 79.95692
704.8115, 80.10540
705.2936, 80.21084
705.7758, 80.27045
706.2579, 80.29655
706.7400, 80.20759
707.2221, 80.10817
707.7042, 80.30521
708.1863, 80.84985
708.6685, 81.36605
709.1506, 81.48814
709.6327, 81.28442
710.1148, 81.27663
710.5969, 81.61204
711.0790, 81.87416
711.5612, 81.90470
712.0433, 81.94229
712.5254, 82.21430
713.0075, 82.62714
713.4896, 82.84821
713.9717, 82.61483
714.4539, 82.40313
714.9360, 82.73759
715.4181, 83.39478
715.9002, 83.84292
716.3823, 84.00645
716.8644, 84.16506
717.3466, 84.53781
717.8287, 85.04060
718.3108, 85.35024
718.7929, 85.23499
719.2750, 85.36747
719.7571, 85.94920
720.2393, 86.58344
720.7214, 87.18957
721.2035, 87.67646
721.6856, 87.82809
722.1677, 87.49193
722.6498, 87.25455
723.1320, 87.76793
723.6141, 88.68128
724.0962, 89.21948
724.5783, 89.35436
725.0604, 89.61161
725.5425, 90.31250
726.0247, 91.18963
726.5068, 91.66991
726.9889, 91.51647
727.4710, 91.69204
727.9531, 92.47361
728.4352, 93.26103
728.9174, 93.86193
729.3995, 94.35244
729.8816, 94.80888
730.3637, 95.25259
730.8458, 95.73396
731.3279, 96.30556
731.8101, 96.93125
732.2922, 97.60068
732.7743, 98.28624
733.2564, 98.78564
733.7385, 98.99850
734.2206, 99.19030
734.7028, 99.72507
735.1849, 100.6371
735.6670, 101.3711
736.1491, 101.7379
736.6312, 102.1645
737.1133, 102.5893
737.5955, 103.1995
738.0776, 104.3171
738.5597, 105.8342
739.0418, 107.1194
739.5239, 107.6970
740.0060, 108.0952
740.4882, 108.9579
740.9703, 110.1510
741.4524, 111.2320
741.9345, 112.1078
742.4166, 113.0013
742.8987, 114.0933
743.3809, 115.3518
743.8630, 116.6227
744.3451, 117.9293
744.8272, 119.2017
745.3093, 120.3620
745.7914, 121.5577
746.2736, 122.8335
746.7557, 124.2059
747.2378, 125.7230
747.7199, 127.4086
748.2020, 129.1902
748.6841, 131.0170
749.1663, 132.9142
749.6484, 134.9268
750.1305, 137.0522
750.6126, 139.2524
751.0947, 141.5166
751.5768, 143.7493
752.0590, 145.7566
752.5411, 147.4472
753.0232, 149.3743
753.5053, 151.7533
753.9874, 154.0844
754.4695, 155.9501
754.9517, 157.8531
755.4338, 160.4433
755.9159, 163.7582
756.3980, 166.9594
756.8801, 169.4557
757.3622, 171.8502
757.8444, 174.5763
758.3265, 177.6749
758.8086, 181.3997
759.2907, 185.7312
759.7728, 189.9586
760.2549, 193.3096
760.7371, 195.9480
761.2192, 198.7680
761.7013, 201.7170
762.1834, 205.0208
762.6655, 208.8512
763.1476, 212.9045
763.6298, 216.9192
764.1119, 220.9860
764.5940, 225.4592
765.0761, 230.6682
765.5582, 235.7366
766.0403, 239.7853
766.5225, 243.7664
767.0046, 248.9287
767.4867, 255.1110
767.9688, 261.3001
768.4509, 266.9998
768.9330, 272.4990
769.4152, 278.1848
769.8973, 284.0862
770.3794, 290.2018
770.8615, 296.4985
771.3436, 303.0275
771.8257, 309.6949
772.3079, 316.6558
772.7900, 324.1531
773.2721, 332.1869
773.7542, 340.4328
774.2363, 349.0075
774.7184, 357.6477
775.2006, 365.9311
775.6827, 374.3173
776.1648, 383.3745
776.6469, 393.1956
777.1290, 403.7137
777.6111, 415.0872
778.0933, 426.7367
778.5754, 436.8536
779.0575, 445.5493
779.5396, 455.6238
780.0217, 467.9590
780.5038, 480.6833
780.9860, 492.3293
781.4681, 503.2363
781.9502, 515.1046
782.4323, 528.3364
782.9144, 541.8856
783.3965, 556.4236
783.8787, 570.4892
784.3608, 582.7117
784.8429, 594.1035
785.3250, 606.5851
785.8071, 620.7762
786.2892, 635.0430
786.7714, 647.6292
787.2535, 659.4873
787.7356, 672.7514
788.2177, 687.2100
788.6998, 701.1457
789.1819, 713.9413
789.6641, 725.9695
790.1462, 737.7348
790.6283, 749.2347
791.1104, 759.6132
791.5925, 768.8278
792.0746, 776.8810
792.5568, 783.5189
793.0389, 789.2828
793.5210, 794.7154
794.0031, 799.5956
794.4852, 803.1176
794.9673, 805.2491
795.4495, 805.6006
795.9316, 803.5559
796.4137, 799.7991
796.8958, 795.4959
797.3779, 790.4138
797.8600, 783.0328
798.3422, 772.5297
798.8243, 760.1387
799.3064, 747.9434
799.7885, 735.9443
800.2706, 722.5852
800.7527, 707.6521
801.2349, 692.1734
801.7170, 676.6418
802.1991, 660.7104
802.6812, 643.6487
803.1633, 625.5330
803.6454, 607.5878
804.1276, 590.0470
804.6097, 572.6497
805.0918, 554.9016
805.5739, 537.7175
806.0560, 522.4103
806.5381, 508.6775
807.0203, 494.5658
807.5024, 478.8475
807.9845, 462.7477
808.4666, 447.8699
808.9487, 434.0629
809.4308, 420.8347
809.9130, 408.0779
810.3951, 395.6448
810.8772, 383.4380
811.3593, 371.4502
811.8414, 359.5066
812.3235, 347.2746
812.8057, 336.1000
813.2878, 326.3463
813.7699, 317.1828
814.2520, 308.3032
814.7341, 299.9160
815.2162, 292.3515
815.6984, 285.5830
816.1805, 278.9990
816.6626, 272.2952
817.1447, 265.7020
817.6268, 259.3301
818.1089, 253.2337
818.5911, 247.5403
819.0732, 242.2325
819.5553, 237.1150
820.0374, 232.0163
820.5195, 227.1259
821.0016, 222.8697
821.4838, 219.2613
821.9659, 215.8201
822.4480, 212.5933
822.9301, 209.2343
823.4122, 205.3559
823.8943, 201.4263
824.3765, 198.3222
824.8586, 196.2370
825.3407, 193.9397
825.8228, 191.1990
826.3049, 188.4880
826.7870, 185.9655
827.2692, 183.5407
827.7513, 181.1113
828.2334, 178.6803
828.7155, 176.3405
829.1976, 174.1480
829.6797, 172.0352
830.1619, 169.8741
830.6440, 167.7509
831.1261, 165.9853
831.6082, 164.5586
832.0903, 162.9670
832.5724, 160.8820
833.0546, 158.6335
833.5367, 156.9296
834.0188, 155.8870
834.5009, 154.5142
834.9830, 152.5918
835.4651, 150.7827
835.9473, 149.4678
836.4294, 148.2831
836.9115, 146.8443
837.3936, 145.1591
837.8757, 143.3178
838.3578, 140.8873
838.8400, 138.8560
839.3221, 137.8486
839.8042, 137.2203
840.2863, 136.4264
840.7684, 135.3958
841.2505, 134.2597
841.7327, 133.1018
842.2148, 131.6753
842.6969, 129.3839
843.1790, 126.6379
843.6611, 124.6609
844.1432, 123.4767
844.6254, 122.3420
845.1075, 120.9473
845.5896, 119.4504
846.0717, 118.0484
846.5538, 116.7491
847.0359, 115.4333
847.5181, 114.1828
848.0002, 112.7669
848.4823, 110.9838
848.9644, 109.1598
849.4465, 107.4400
849.9286, 105.8560
850.4108, 104.4914
850.8929, 103.4307
851.3750, 102.4303
851.8571, 101.5016
852.3392, 100.5076
852.8214, 99.25790
853.3035, 97.87265
853.7856, 96.63120
854.2677, 95.60824
854.7498, 94.56235
855.2319, 93.12788
855.7141, 91.57818
856.1962, 90.62125
856.6783, 90.17252
857.1604, 89.59378
857.6425, 88.73335
858.1246, 87.72995
858.6068, 86.66796
859.0889, 85.60105
859.5710, 84.74300
860.0531, 84.20998
860.5352, 83.57116
861.0173, 82.70657
861.4995, 81.87452
861.9816, 81.16885
862.4637, 80.56700
862.9458, 80.06737
863.4279, 79.67951
863.9100, 79.24442
864.3922, 78.62035
864.8743, 78.05135
865.3564, 77.68566
865.8385, 77.43630
866.3206, 77.27360
866.8027, 77.12997
867.2849, 76.80333
867.7670, 76.13757
868.2491, 75.40945
868.7312, 74.99352
869.2133, 74.80511
869.6954, 74.57772
870.1776, 74.30271
870.6597, 74.19134
871.1418, 74.35690
871.6239, 74.57641
872.1060, 74.51258
872.5881, 74.16901
873.0703, 74.06638
873.5524, 74.38170
874.0345, 74.47677
874.5166, 74.06081
874.9987, 73.55590
875.4808, 73.29408
875.9630, 73.21244
876.4451, 73.13846
876.9272, 73.08762
877.4093, 72.98875
877.8914, 72.69200
878.3735, 72.48150
878.8557, 72.54651
879.3378, 72.80680
879.8199, 73.17922
880.3020, 73.61980
880.7841, 73.96693
881.2662, 74.08643
881.7484, 74.08005
882.2305, 74.06421
882.7126, 74.02403
883.1947, 73.86891
883.6768, 73.61730
884.1589, 73.48379
884.6411, 73.60717
885.1232, 73.92909
885.6053, 74.41578
886.0874, 75.08013
886.5695, 75.41341
887.0516, 75.36652
887.5338, 75.11209
888.0159, 74.61780
888.4980, 74.10596
888.9801, 73.88720
889.4622, 73.95975
889.9443, 73.81397
890.4265, 73.14074
890.9086, 72.69736
891.3907, 72.66426
891.8728, 72.77185
892.3549, 73.00526
892.8370, 73.21308
893.3192, 73.09911
893.8013, 72.56436
894.2834, 72.00505
894.7655, 71.55455
895.2476, 71.21552
895.7297, 71.05466
896.2119, 70.98084
896.6940, 70.85341
897.1761, 70.64297
897.6582, 70.38445
898.1403, 70.08899
898.6224, 69.79369
899.1046, 69.53529
899.5867, 69.32535
900.0688, 69.25748
900.5509, 69.33281
901.0330, 69.27650
901.5151, 68.92979
901.9973, 68.55505
902.4794, 68.58419
902.9615, 69.01798
903.4436, 69.07459
903.9257, 68.50510
904.4078, 68.23000
904.8900, 68.66729
905.3721, 69.15444
905.8542, 69.05202
906.3363, 68.60876
906.8184, 68.62348
907.3005, 69.39005
907.7827, 69.92020
908.2648, 69.91618
908.7469, 69.84912
909.2290, 69.99382
909.7111, 70.17851
910.1932, 70.09383
910.6754, 69.76437
911.1575, 69.62631
911.6396, 69.96185
912.1217, 70.46021
912.6038, 71.00996
913.0859, 71.48359
913.5681, 71.56137
914.0502, 71.37654
914.5323, 71.50069
915.0144, 72.17698
915.4965, 72.93688
915.9786, 73.14121
916.4607, 72.98609
916.9428, 73.20045
917.4249, 73.75815
917.9070, 74.28834
918.3892, 74.69653
918.8713, 75.11926
919.3534, 75.66004
919.8355, 76.30061
920.3176, 76.97988
920.7997, 77.71146
921.2819, 78.46597
921.7640, 79.31719
922.2461, 80.03567
922.7282, 80.35930
923.2103, 80.64423
923.6924, 81.35448
924.1746, 82.46655
924.6567, 83.59360
925.1388, 84.76602
925.6209, 85.88363
926.1030, 86.93932
926.5851, 87.91946
927.0673, 88.73307
927.5494, 89.48605
928.0315, 90.33204
928.5136, 91.29820
928.9957, 92.48406
929.4778, 94.12077
929.9600, 95.81562
930.4421, 97.33816
930.9242, 98.67916
931.4063, 99.75169
931.8884, 100.6357
932.3705, 101.5815
932.8527, 102.7097
933.3348, 104.1442
933.8169, 106.2824
934.2990, 108.8046
934.7811, 110.7501
935.2632, 112.1558
935.7454, 113.5701
936.2275, 115.1724
936.7096, 116.9008
937.1917, 118.6916
937.6738, 120.5601
938.1559, 122.6485
938.6381, 125.0004
939.1202, 127.0789
939.6023, 128.7231
940.0844, 130.4312
940.5665, 132.5187
941.0486, 134.7194
941.5308, 136.5434
942.0129, 137.9250
942.4950, 139.7343
942.9771, 142.6374
943.4592, 144.9682
943.9413, 145.9416
944.4235, 146.8362
944.9056, 148.4954
945.3877, 150.6587
945.8698, 152.7268
946.3519, 154.6052
946.8340, 156.4505
947.3162, 158.1662
947.7983, 160.0146
948.2804, 162.2589
948.7625, 164.6169
949.2446, 166.7099
949.7267, 168.5935
950.2089, 170.6849
950.6910, 173.2440
951.1731, 175.8136
951.6552, 177.9382
952.1373, 179.9421
952.6194, 182.2390
953.1016, 184.7514
953.5837, 187.1987
954.0658, 189.5278
954.5479, 192.0483
955.0300, 195.1023
955.5121, 198.3579
955.9943, 201.2088
956.4764, 203.7336
956.9585, 206.1390
957.4406, 208.4940
957.9227, 211.1893
958.4048, 214.4346
958.8870, 217.8638
959.3691, 221.0010
959.8512, 223.8744
960.3333, 226.7585
960.8154, 229.6883
961.2975, 232.3371
961.7797, 234.7123
962.2618, 236.5138
962.7439, 237.4092
963.2260, 237.7453
963.7081, 238.3678
964.1902, 239.5883
964.6724, 239.4073
965.1545, 237.0137
965.6366, 234.5699
966.1187, 232.7552
966.6008, 230.8834
967.0829, 228.5710
967.5651, 225.7726
968.0472, 222.3108
968.5293, 217.9030
969.0114, 213.5482
969.4935, 209.5860
969.9756, 205.4352
970.4578, 200.6981
970.9399, 195.7156
971.4220, 190.8176
971.9041, 186.0201
972.3862, 181.1598
972.8683, 176.0938
973.3505, 171.1964
973.8326, 166.6376
974.3147, 162.3197
974.7968, 158.3348
975.2789, 154.4748
975.7610, 150.2617
976.2432, 145.7025
976.7253, 141.5080
977.2074, 138.3581
977.6895, 135.4241
978.1716, 131.5215
978.6537, 127.3635
979.1359, 124.1185
979.6180, 121.7631
980.1001, 119.9074
980.5822, 118.3439
981.0643, 116.5175
981.5464, 113.6844
982.0286, 110.4083
982.5107, 108.0720
982.9928, 106.5381
983.4749, 105.2251
983.9570, 104.0309
984.4391, 102.6718
984.9213, 100.9907
985.4034, 99.20775
985.8855, 97.61706
986.3676, 96.21446
986.8497, 95.05260
987.3318, 94.15321
987.8140, 93.23550
988.2961, 92.23874
988.7782, 91.24549
989.2603, 90.28854
989.7424, 89.40058
990.2245, 88.66824
990.7067, 88.13730
991.1888, 87.32655
991.6709, 85.94096
992.1530, 85.02614
992.6351, 85.18710
993.1172, 85.33475
993.5994, 84.50201
994.0815, 83.04109
994.5636, 82.04480
995.0457, 81.68458
995.5278, 81.30595
996.0099, 80.87679
996.4921, 80.46729
996.9742, 80.13977
997.4563, 79.80046
997.9384, 79.34811
998.4205, 78.81482
998.9026, 78.33628
999.3848, 77.99387
999.8669, 77.54282
1000.349, 76.73988
1000.831, 76.04809
1001.313, 75.79555
1001.795, 75.69668
1002.277, 75.43739
1002.760, 75.01743
1003.242, 74.60869
1003.724, 74.31817
1004.206, 73.91720
1004.688, 73.13526
1005.170, 72.36601
1005.652, 71.96062
1006.134, 71.74233
1006.617, 71.31397
1007.099, 70.71693
1007.581, 70.54440
1008.063, 71.31585
1008.545, 72.02839
1009.027, 71.78294
1009.509, 71.11171
1009.991, 70.55651
1010.473, 70.11620
1010.956, 69.65949
1011.438, 69.17002
1011.920, 68.78588
1012.402, 68.61523
1012.884, 68.55154
1013.366, 68.54458
1013.848, 68.51199
1014.330, 68.26166
1014.813, 67.83603
1015.295, 67.40249
1015.777, 67.02191
1016.259, 66.72481
1016.741, 66.55154
1017.223, 66.44415
1017.705, 66.33100
1018.187, 66.18983
1018.669, 65.87809
1019.152, 65.42757
1019.634, 65.18687
1020.116, 65.27944
1020.598, 65.37284
1021.080, 65.11189
1021.562, 64.62680
1022.044, 64.29758
1022.526, 64.10517
1023.008, 63.87580
1023.491, 63.59211
1023.973, 63.15483
1024.455, 62.50272
1024.937, 61.86687
1025.419, 61.51253
1025.901, 61.40195
1026.383, 61.40825
1026.865, 61.55056
1027.348, 61.48460
1027.830, 61.14008
1028.312, 60.80400
1028.794, 60.59982
1029.276, 60.48730
1029.758, 60.44768
1030.240, 60.44896
1030.722, 60.19712
1031.204, 59.59317
1031.687, 59.20914
1032.169, 59.17881
1032.651, 59.13301
1033.133, 58.88591
1033.615, 58.56807
1034.097, 58.36055
1034.579, 58.25073
1035.061, 58.03006
1035.544, 57.57804
1036.026, 57.34755
1036.508, 57.51718
1036.990, 57.64576
1037.472, 57.50608
1037.954, 57.24191
1038.436, 57.03345
1038.918, 56.87886
1039.401, 56.71702
1039.883, 56.56463
1040.365, 56.37469
1040.847, 56.11080
1041.329, 55.85410
1041.811, 55.64273
1042.293, 55.45343
1042.775, 55.21986
1043.257, 54.94828
1043.740, 54.85835
1044.222, 55.20591
1044.704, 55.33992
1045.186, 55.20021
1045.668, 54.87361
1046.150, 54.09632
1046.632, 53.34458
1047.114, 53.33993
1047.596, 54.02341
1048.079, 54.35405
1048.561, 53.91197
1049.043, 53.61587
1049.525, 53.71720
1050.007, 53.81887
1050.489, 53.66052
1050.971, 53.44347
1051.453, 53.50320
1051.936, 53.79124
1052.418, 53.77638
1052.900, 53.13093
1053.382, 52.59649
1053.864, 52.28141
1054.346, 52.14377
1054.828, 52.26593
1055.310, 52.48269
1055.792, 52.64482
1056.275, 52.72554
1056.757, 52.67977
1057.239, 52.47146
1057.721, 52.19118
1058.203, 51.65490
1058.685, 51.29000
1059.167, 51.50723
1059.649, 51.90731
1060.131, 52.02079
1060.614, 51.85785
1061.096, 51.69997
1061.578, 51.61301
1062.060, 51.55563
1062.542, 51.51886
1063.024, 51.50253
1063.506, 51.57813
1063.988, 51.62337
1064.471, 51.45057
1064.953, 51.11472
1065.435, 50.86684
1065.917, 50.78624
1066.399, 50.74891
1066.881, 50.74229
1067.363, 50.72256
1067.845, 50.63636
1068.328, 50.54430
1068.810, 50.52765
1069.292, 50.56617
1069.774, 50.57688
1070.256, 50.53539
1070.738, 50.47591
1071.220, 50.45307
1071.702, 50.36982
1072.184, 50.07762
1072.667, 49.76893
1073.149, 49.67025
1073.631, 49.72852
1074.113, 49.75240
1074.595, 49.68654
1075.077, 49.64899
1075.559, 49.65346
1076.041, 49.74829
1076.523, 50.15167
1077.006, 50.49713
1077.488, 50.34161
1077.970, 49.86277
1078.452, 49.50289
1078.934, 49.36666
1079.416, 49.26637
1079.898, 49.03283
1080.380, 48.92244
1080.862, 49.24413
1081.345, 49.58949
1081.827, 49.50811
1082.309, 49.20345
1082.791, 49.11974
1083.273, 49.32732
1083.755, 49.49915
1084.237, 49.49146
1084.719, 49.42790
1085.202, 49.30694
1085.684, 49.21227
1086.166, 49.19749
1086.648, 49.26219
1087.130, 49.45621
1087.612, 49.74713
1088.094, 49.88911
1088.576, 49.67921
1089.058, 49.52822
1089.541, 49.76077
1090.023, 49.95856
1090.505, 49.64533
1090.987, 49.23252
1091.469, 49.35960
1091.951, 49.95993
1092.433, 50.38504
1092.915, 50.38796
1093.397, 50.34132
1093.880, 50.34279
1094.362, 50.39036
1094.844, 50.60701
1095.326, 50.77562
1095.808, 50.56530
1096.290, 50.10238
1096.772, 49.83734
1097.254, 49.91224
1097.737, 50.01436
1098.219, 50.03841
1098.701, 50.06715
1099.183, 50.17675
1099.665, 50.27386
1100.147, 50.27226
1100.629, 50.19250
1101.111, 50.11541
1101.594, 50.06465
1102.076, 49.86559
1102.558, 49.17397
1103.040, 48.73786
1103.522, 49.10331
1104.004, 49.50030
1104.486, 49.31997
1104.968, 48.83797
1105.450, 48.50734
1105.932, 48.37663
1106.415, 48.35478
1106.897, 48.65750
1107.379, 48.72050
1107.861, 48.13751
1108.343, 47.63028
1108.825, 47.59645
1109.307, 47.82570
1109.789, 47.83848
1110.272, 48.41384
1110.754, 48.71933
1111.236, 48.76940
1111.718, 47.79895
1112.200, 48.14628
1112.682, 47.96550
1113.164, 47.76307
1113.646, 48.29587
1114.129, 47.47376
1114.611, 47.99491
1115.093, 47.97988
1115.575, 48.21025
1116.057, 47.90925
1116.539, 47.77238
1117.021, 47.74463
1117.503, 47.60272
1117.985, 47.42825
1118.468, 47.44135
1118.950, 47.54852
1119.432, 47.57312
1119.914, 47.50857
1120.396, 47.43119
1120.878, 47.26783
1121.360, 47.26609
1121.842, 47.60084
1122.324, 47.82133
1122.807, 47.63552
1123.289, 47.31987
1123.771, 47.22091
1124.253, 47.31742
1124.735, 47.44072
1125.217, 47.63257
1125.699, 47.68687
1126.181, 47.52361
1126.664, 47.46959
1127.146, 47.71294
1127.628, 47.88355
1128.110, 47.58875
1128.592, 47.03417
1129.074, 46.84449
1129.556, 47.06091
1130.038, 47.20013
1130.521, 47.24369
1131.003, 47.36223
1131.485, 47.61645
1131.967, 47.79868
1132.449, 47.76575
1132.931, 47.62164
1133.413, 47.51215
1133.895, 47.45083
1134.377, 47.60575
1134.859, 47.96238
1135.342, 47.98804
1135.824, 47.61836
1136.306, 47.29391
1136.788, 47.20685
1137.270, 47.22361
1137.752, 47.20725
1138.234, 47.18652
1138.716, 47.26586
1139.199, 47.40388
1139.681, 47.38036
1140.163, 47.22312
1140.645, 47.18058
1141.127, 47.31098
1141.609, 47.47103
1142.091, 47.56744
1142.573, 47.60952
1143.056, 47.58746
1143.538, 47.53299
1144.020, 47.49482
1144.502, 47.48246
1144.984, 47.56078
1145.466, 47.69270
1145.948, 47.66209
1146.430, 47.38320
1146.912, 47.17208
1147.395, 47.47314
1147.877, 47.79327
1148.359, 47.41937
1148.841, 46.81878
1149.323, 46.66038
1149.805, 46.83582
1150.287, 46.97298
1150.769, 46.98506
1151.251, 46.99662
1151.734, 47.08389
1152.216, 47.15694
1152.698, 47.15903
1153.180, 47.11944
1153.662, 47.05497
1154.144, 46.96838
1154.626, 46.80530
1155.108, 46.62433
1155.591, 46.64859
1156.073, 46.99530
1156.555, 47.16635
1157.037, 46.85746
1157.519, 46.51154
1158.001, 46.20409
1158.483, 46.03133
1158.965, 46.15800
1159.448, 46.41972
1159.930, 46.54817
1160.412, 46.52153
1160.894, 46.43789
1161.376, 46.12737
1161.858, 46.04539
1162.340, 46.45888
1162.822, 46.81564
1163.304, 46.93409
1163.786, 46.88601
1164.269, 46.65403
1164.751, 46.32862
1165.233, 46.22965
1165.715, 46.41280
1166.197, 46.58535
1166.679, 46.76438
1167.161, 46.89087
1167.643, 46.97049
1168.126, 46.94150
1168.608, 46.74221
1169.090, 46.46692
1169.572, 46.23999
1170.054, 46.06883
1170.536, 46.03835
1171.018, 46.15600
1171.500, 46.21743
1171.983, 46.20022
1172.465, 46.32800
1172.947, 46.69010
1173.429, 46.92881
1173.911, 46.71812
1174.393, 46.31799
1174.875, 46.22966
1175.357, 46.37130
1175.839, 46.44130
1176.322, 46.44715
1176.804, 46.43209
1177.286, 46.41329
1177.768, 46.44816
1178.250, 46.55946
1178.732, 46.62843
1179.214, 46.51647
1179.696, 46.33462
1180.178, 46.20087
1180.661, 46.11607
1181.143, 46.12762
1181.625, 46.17415
1182.107, 46.10766
1182.589, 45.92162
1183.071, 45.74175
1183.553, 45.60261
1184.035, 45.58386
1184.518, 45.89170
1185.000, 46.15950
1185.482, 46.00234
1185.964, 45.77403
1186.446, 45.90066
1186.928, 46.25948
1187.410, 46.53587
1187.892, 46.67740
1188.375, 46.62309
1188.857, 46.13182
1189.339, 45.78344
1189.821, 45.76981
1190.303, 45.83839
1190.785, 45.93696
1191.267, 46.00000
1191.749, 45.94813
1192.231, 45.80636
1192.714, 45.65545
1193.196, 45.44210
1193.678, 45.45622
1194.160, 45.86174
1194.642, 46.00906
1195.124, 45.64013
1195.606, 45.40184
1196.088, 45.72969
1196.570, 46.20851
1197.053, 46.25482
1197.535, 45.94819
1198.017, 45.62272
1198.499, 45.28488
1198.981, 45.23637
1199.463, 45.48302
1199.945, 45.71958
1200.427, 45.85592
1200.910, 45.87872
1201.392, 45.77059
1201.874, 45.62429
1202.356, 45.60069
1202.838, 45.61769
1203.320, 45.42043
1203.802, 45.15430
1204.284, 45.20935
1204.766, 45.51866
1205.249, 45.74838
1205.731, 45.78725
1206.213, 45.67637
1206.695, 45.36139
1207.177, 45.09812
1207.659, 45.14669
1208.141, 45.26771
1208.623, 45.20921
1209.105, 45.12614
1209.588, 45.31483
1210.070, 45.65614
1210.552, 45.72467
1211.034, 45.40446
1211.516, 45.09163
1211.998, 44.74113
1212.480, 44.60842
1212.962, 45.00422
1213.445, 45.34156
1213.927, 45.23862
1214.409, 44.97521
1214.891, 44.77250
1215.373, 44.67652
1215.855, 44.95490
1216.337, 45.82010
1216.819, 46.07058
1217.302, 45.52319
1217.784, 45.03397
1218.266, 44.73380
1218.748, 44.77937
1219.230, 45.33609
1219.712, 45.87854
1220.194, 45.66417
1220.676, 44.99326
1221.158, 44.90252
1221.641, 45.25084
1222.123, 45.21621
1222.605, 44.85924
1223.087, 44.81289
1223.569, 45.17629
1224.051, 45.47736
1224.533, 45.44961
1225.015, 45.34203
1225.497, 45.48090
1225.980, 45.60126
1226.462, 45.28270
1226.944, 44.84005
1227.426, 44.67501
1227.908, 44.72752
1228.390, 44.85136
1228.872, 44.98588
1229.354, 44.99886
1229.837, 44.78316
1230.319, 44.62476
1230.801, 44.67321
1231.283, 44.73036
1231.765, 44.78804
1232.247, 44.74706
1232.729, 44.34247
1233.211, 43.88457
1233.693, 44.01643
1234.176, 44.70587
1234.658, 44.96790
1235.140, 44.61707
1235.622, 44.40779
1236.104, 44.40349
1236.586, 44.41785
1237.068, 44.38652
1237.550, 44.42567
1238.032, 44.64307
1238.515, 44.86895
1238.997, 44.76310
1239.479, 44.45682
1239.961, 44.55997
1240.443, 44.95194
1240.925, 45.09212
1241.407, 44.96147
1241.889, 44.40748
1242.372, 45.01722
1242.854, 45.35703
1243.336, 45.44140
1243.818, 44.50527
1244.300, 44.88691
1244.782, 44.74044
1245.264, 44.57232
1245.746, 45.13943
1246.229, 44.35172
1246.711, 44.90716
1247.193, 44.92645
1247.675, 45.19113
1248.157, 44.92444
1248.639, 44.82187
1249.121, 45.25084
1249.603, 45.38549
1250.085, 45.05763
1250.568, 45.33789
1251.050, 44.53163
1251.532, 44.67882
1252.014, 44.56598
1252.496, 45.17112
1252.978, 45.50631
1253.460, 45.58607
1253.942, 44.64532
1254.424, 45.02234
1254.907, 44.87123
1255.389, 44.69850
1255.871, 45.26099
1256.353, 44.46867
1256.835, 45.01950
1257.317, 45.03417
1257.799, 45.29423
1258.281, 45.02293
1258.764, 44.91571
1259.246, 45.34007
1259.728, 45.47010
1260.210, 44.96671
1260.692, 44.89175
1261.174, 44.87690
1261.656, 45.08517
1262.138, 45.67106
1262.620, 45.99218
1263.103, 45.54664
1263.585, 45.04564
1264.067, 44.71963
1264.549, 44.54159
1265.031, 44.52771
1265.513, 44.61808
1265.995, 44.76558
1266.477, 44.94524
1266.959, 45.03482
1267.442, 45.02365
1267.924, 44.93273
1268.406, 44.69347
1268.888, 44.73286
1269.370, 45.17238
1269.852, 45.57016
1270.334, 45.70550
1270.816, 45.68763
1271.299, 45.59970
1271.781, 45.53072
1272.263, 45.74820
1272.745, 46.08646
1273.227, 45.12133
1273.709, 45.75252
1274.191, 46.11378
1274.673, 46.21959
1275.156, 45.30493
1275.638, 45.70800
1276.120, 45.58298
1276.602, 45.43631
1277.084, 46.02486
1277.566, 45.25860
1278.048, 45.83549
1278.530, 45.87622
1279.012, 47.18803
1279.495, 46.97015
1279.977, 46.10071
1280.459, 45.72050
1280.941, 45.83402
1281.423, 46.06919
1281.905, 46.51108
1282.387, 46.78292
1282.869, 46.85807
1283.351, 46.72766
1283.834, 46.35894
1284.316, 46.12079
1284.798, 46.27570
1285.280, 46.57973
1285.762, 46.74111
1286.244, 46.78364
##END=



