##NAMES=Uranophane-alpha
##RRUFFID=R070584
##IDEAL CHEMISTRY=Ca(U^6+^O_2_)_2_(SiO_3_OH)_2_&#183;5H_2_O
##LOCALITY=Wolsendorf, Schwandorf, Upper Palatinate, Bavaria, Germany
##OWNER=RRUFF
##SOURCE=James Shigley
##DESCRIPTION=Sprays and aggregates of pale yellow fibers
##STATUS=The identification of this mineral has been confirmed by single-crystal X-ray diffraction.
##URL=rruff.info/R070584
155.0661, 12600.16
155.5482, 12515.54
156.0303, 12470.92
156.5124, 12463.46
156.9945, 12471.46
157.4766, 12489.71
157.9588, 12517.60
158.4409, 12526.46
158.9230, 12496.06
159.4051, 12454.57
159.8872, 12416.51
160.3694, 12384.27
160.8515, 12357.27
161.3336, 12336.38
161.8157, 12324.46
162.2978, 12309.56
162.7799, 12281.99
163.2621, 12255.31
163.7442, 12241.64
164.2263, 12245.21
164.7084, 12256.95
165.1905, 12256.65
165.6726, 12235.06
166.1548, 12214.93
166.6369, 12201.80
167.1190, 12190.75
167.6011, 12175.20
168.0832, 12151.28
168.5653, 12122.17
169.0475, 12103.03
169.5296, 12106.69
170.0117, 12107.42
170.4938, 12098.24
170.9759, 12083.41
171.4580, 12071.01
171.9402, 12066.79
172.4223, 12070.50
172.9044, 12069.50
173.3865, 12065.79
173.8686, 12056.82
174.3507, 12035.81
174.8329, 12006.53
175.3150, 11982.37
175.7971, 11974.93
176.2792, 11986.34
176.7613, 11995.46
177.2434, 12000.46
177.7256, 12004.75
178.2077, 12008.04
178.6898, 12010.76
179.1719, 12019.66
179.6540, 12043.81
180.1361, 12084.02
180.6183, 12122.89
181.1004, 12171.62
181.5825, 12212.89
182.0646, 12218.74
182.5467, 12178.38
183.0288, 12128.19
183.5110, 12107.43
183.9931, 12111.81
184.4752, 12133.34
184.9573, 12184.84
185.4394, 12251.48
185.9215, 12297.51
186.4037, 12311.96
186.8858, 12308.91
187.3679, 12298.64
187.8500, 12281.44
188.3321, 12272.36
188.8142, 12283.06
189.2964, 12311.66
189.7785, 12343.67
190.2606, 12379.95
190.7427, 12415.03
191.2248, 12444.69
191.7069, 12468.66
192.1891, 12489.29
192.6712, 12506.26
193.1533, 12518.50
193.6354, 12537.08
194.1175, 12575.25
194.5996, 12614.42
195.0818, 12644.88
195.5639, 12664.44
196.0460, 12674.18
196.5281, 12668.48
197.0102, 12632.93
197.4923, 12626.61
197.9745, 12692.28
198.4566, 12770.19
198.9387, 12816.54
199.4208, 12816.66
199.9029, 12787.43
200.3850, 12759.74
200.8672, 12728.97
201.3493, 12709.55
201.8314, 12706.99
202.3135, 12712.83
202.7956, 12722.51
203.2777, 12734.35
203.7599, 12743.31
204.2420, 12734.48
204.7241, 12699.75
205.2062, 12654.98
205.6883, 12585.41
206.1704, 12512.57
206.6526, 12463.54
207.1347, 12454.08
207.6168, 12474.87
208.0989, 12481.47
208.5810, 12457.46
209.0631, 12436.00
209.5453, 12431.33
210.0274, 12431.11
210.5095, 12414.41
210.9916, 12367.26
211.4737, 12293.60
211.9559, 12230.44
212.4380, 12183.27
212.9201, 12139.12
213.4022, 12090.28
213.8843, 12041.47
214.3664, 12006.82
214.8486, 11999.25
215.3307, 12015.87
215.8128, 11996.28
216.2949, 11911.65
216.7770, 11827.71
217.2591, 11770.32
217.7413, 11736.81
218.2234, 11713.14
218.7055, 11691.14
219.1876, 11670.37
219.6697, 11642.79
220.1518, 11599.84
220.6340, 11558.34
221.1161, 11531.81
221.5982, 11517.99
222.0803, 11499.42
222.5624, 11460.51
223.0445, 11401.70
223.5267, 11354.20
224.0088, 11322.88
224.4909, 11299.00
224.9730, 11279.48
225.4551, 11263.67
225.9372, 11244.78
226.4194, 11215.79
226.9015, 11177.56
227.3836, 11144.23
227.8657, 11121.41
228.3478, 11100.88
228.8299, 11073.59
229.3121, 11038.55
229.7942, 11004.35
230.2763, 10978.84
230.7584, 10960.65
231.2405, 10943.14
231.7226, 10926.40
232.2048, 10909.23
232.6869, 10888.34
233.1690, 10862.33
233.6511, 10839.97
234.1332, 10834.41
234.6153, 10839.50
235.0975, 10836.82
235.5796, 10811.79
236.0617, 10779.67
236.5438, 10769.54
237.0259, 10791.11
237.5080, 10804.82
237.9902, 10762.60
238.4723, 10686.52
238.9544, 10628.80
239.4365, 10616.81
239.9186, 10632.27
240.4007, 10642.56
240.8829, 10646.10
241.3650, 10645.25
241.8471, 10636.75
242.3292, 10624.76
242.8113, 10619.57
243.2934, 10639.48
243.7756, 10667.98
244.2577, 10660.72
244.7398, 10600.46
245.2219, 10539.04
245.7040, 10508.83
246.1861, 10501.66
246.6683, 10502.57
247.1504, 10514.13
247.6325, 10528.76
248.1146, 10521.23
248.5967, 10480.32
249.0788, 10437.71
249.5610, 10409.09
250.0431, 10392.19
250.5252, 10382.88
251.0073, 10381.91
251.4894, 10387.08
251.9715, 10392.46
252.4537, 10403.14
252.9358, 10404.64
253.4179, 10381.27
253.9000, 10344.92
254.3821, 10319.23
254.8642, 10323.54
255.3464, 10348.87
255.8285, 10358.99
256.3106, 10340.23
256.7927, 10327.92
257.2748, 10349.44
257.7570, 10387.18
258.2391, 10407.63
258.7212, 10384.65
259.2033, 10330.05
259.6854, 10290.96
260.1675, 10272.21
260.6497, 10262.89
261.1318, 10259.66
261.6139, 10260.90
262.0960, 10264.36
262.5781, 10270.19
263.0602, 10276.95
263.5424, 10278.41
264.0245, 10272.23
264.5066, 10263.87
264.9887, 10248.41
265.4708, 10233.39
265.9529, 10232.56
266.4351, 10259.29
266.9172, 10303.01
267.3993, 10321.17
267.8814, 10292.08
268.3635, 10271.69
268.8456, 10288.90
269.3278, 10323.13
269.8099, 10344.13
270.2920, 10333.13
270.7741, 10300.63
271.2562, 10282.71
271.7383, 10290.50
272.2205, 10295.02
272.7026, 10282.17
273.1847, 10262.76
273.6668, 10251.63
274.1489, 10257.94
274.6310, 10274.31
275.1132, 10277.87
275.5953, 10256.18
276.0774, 10243.82
276.5595, 10252.58
277.0416, 10273.13
277.5237, 10297.38
278.0059, 10323.48
278.4880, 10346.09
278.9701, 10351.27
279.4522, 10331.53
279.9343, 10307.49
280.4164, 10279.16
280.8986, 10251.99
281.3807, 10230.56
281.8628, 10216.54
282.3449, 10210.67
282.8270, 10217.52
283.3091, 10247.98
283.7913, 10266.68
284.2734, 10253.93
284.7555, 10233.85
285.2376, 10231.85
285.7197, 10257.71
286.2018, 10290.45
286.6840, 10289.64
287.1661, 10238.18
287.6482, 10196.81
288.1303, 10173.44
288.6124, 10164.92
289.0945, 10175.00
289.5767, 10204.46
290.0588, 10237.46
290.5409, 10251.55
291.0230, 10243.80
291.5051, 10225.90
291.9872, 10180.74
292.4694, 10138.88
292.9515, 10125.57
293.4336, 10144.50
293.9157, 10171.58
294.3978, 10175.65
294.8799, 10150.86
295.3621, 10131.10
295.8442, 10116.73
296.3263, 10111.51
296.8084, 10127.59
297.2905, 10162.30
297.7726, 10189.21
298.2548, 10173.48
298.7369, 10108.03
299.2190, 10059.63
299.7011, 10045.10
300.1832, 10040.55
300.6653, 10035.29
301.1475, 10029.18
301.6296, 10027.50
302.1117, 10043.69
302.5938, 10078.51
303.0759, 10083.01
303.5580, 10026.59
304.0402, 9968.344
304.5223, 9936.081
305.0044, 9926.401
305.4865, 9923.111
305.9686, 9914.515
306.4507, 9901.631
306.9329, 9894.958
307.4150, 9899.441
307.8971, 9903.852
308.3792, 9908.594
308.8613, 9909.600
309.3434, 9897.240
309.8256, 9856.797
310.3077, 9799.535
310.7898, 9767.836
311.2719, 9771.714
311.7540, 9784.260
312.2361, 9803.478
312.7183, 9820.557
313.2004, 9818.874
313.6825, 9781.295
314.1646, 9728.796
314.6467, 9708.358
315.1288, 9731.846
315.6110, 9755.107
316.0931, 9766.820
316.5752, 9765.091
317.0573, 9741.227
317.5394, 9681.903
318.0215, 9618.553
318.5037, 9603.001
318.9858, 9645.106
319.4679, 9677.528
319.9500, 9669.409
320.4321, 9640.299
320.9142, 9603.547
321.3964, 9557.851
321.8785, 9518.480
322.3606, 9506.490
322.8427, 9522.038
323.3248, 9530.972
323.8069, 9516.268
324.2891, 9495.786
324.7712, 9490.536
325.2533, 9503.965
325.7354, 9515.426
326.2175, 9508.801
326.6996, 9486.725
327.1818, 9463.026
327.6639, 9437.355
328.1460, 9415.637
328.6281, 9403.891
329.1102, 9401.894
329.5923, 9403.005
330.0745, 9407.604
330.5566, 9412.823
331.0387, 9409.697
331.5208, 9393.619
332.0029, 9377.351
332.4850, 9377.330
332.9672, 9390.014
333.4493, 9397.538
333.9314, 9388.334
334.4135, 9373.501
334.8957, 9373.674
335.3778, 9393.207
335.8599, 9402.896
336.3420, 9365.323
336.8241, 9293.171
337.3062, 9254.343
337.7884, 9290.612
338.2705, 9338.960
338.7526, 9337.065
339.2347, 9288.038
339.7168, 9247.156
340.1989, 9252.802
340.6811, 9295.143
341.1632, 9321.244
341.6453, 9323.382
342.1274, 9317.515
342.6095, 9309.406
343.0916, 9299.299
343.5738, 9287.057
344.0559, 9271.336
344.5380, 9254.846
345.0201, 9247.115
345.5022, 9255.181
345.9843, 9258.636
346.4665, 9251.470
346.9486, 9236.622
347.4307, 9214.827
347.9128, 9185.439
348.3949, 9158.670
348.8770, 9154.505
349.3592, 9190.197
349.8413, 9212.777
350.3234, 9218.001
350.8055, 9209.860
351.2876, 9182.757
351.7697, 9138.991
352.2519, 9102.284
352.7340, 9103.676
353.2161, 9158.800
353.6982, 9193.253
354.1803, 9196.333
354.6624, 9190.856
355.1446, 9186.856
355.6267, 9185.922
356.1088, 9187.443
356.5909, 9191.650
357.0730, 9198.741
357.5551, 9199.207
358.0373, 9179.642
358.5194, 9167.864
359.0015, 9179.244
359.4836, 9203.345
359.9657, 9221.513
360.4478, 9222.906
360.9300, 9210.537
361.4121, 9196.538
361.8942, 9168.854
362.3763, 9157.219
362.8584, 9175.714
363.3405, 9206.399
363.8227, 9231.178
364.3048, 9243.315
364.7869, 9247.837
365.2690, 9252.637
365.7511, 9256.066
366.2332, 9264.343
366.7154, 9283.407
367.1975, 9303.387
367.6796, 9320.554
368.1617, 9333.368
368.6438, 9338.315
369.1259, 9325.710
369.6081, 9293.120
370.0902, 9278.201
370.5723, 9299.516
371.0544, 9322.489
371.5365, 9325.329
372.0186, 9314.020
372.5008, 9309.682
372.9829, 9330.479
373.4650, 9369.530
373.9471, 9400.253
374.4292, 9421.915
374.9113, 9436.324
375.3935, 9438.087
375.8756, 9434.840
376.3577, 9440.104
376.8398, 9420.037
377.3219, 9483.010
377.8040, 9522.134
378.2862, 9538.694
378.7683, 9465.099
379.2504, 9507.918
379.7325, 9504.084
380.2146, 9498.336
380.6967, 9557.541
381.1789, 9497.060
381.6610, 9555.235
382.1431, 9566.044
382.6252, 9598.531
383.1073, 9584.075
383.5894, 9584.119
384.0716, 9631.122
384.5537, 9652.123
385.0358, 9632.264
385.5179, 9666.129
386.0000, 9604.006
386.4821, 9625.874
386.9643, 9641.225
387.4464, 9661.916
387.9285, 9676.915
388.4106, 9685.535
388.8927, 9697.741
389.3748, 9723.514
389.8570, 9744.182
390.3391, 9744.975
390.8212, 9729.860
391.3033, 9714.174
391.7854, 9707.531
392.2675, 9708.164
392.7497, 9705.124
393.2318, 9690.423
393.7139, 9681.872
394.1960, 9692.955
394.6781, 9708.610
395.1602, 9706.696
395.6424, 9679.018
396.1245, 9639.109
396.6066, 9612.170
397.0887, 9603.388
397.5708, 9599.737
398.0529, 9607.897
398.5351, 9615.471
399.0172, 9615.681
399.4993, 9607.080
399.9814, 9590.288
400.4635, 9564.148
400.9456, 9527.662
401.4278, 9494.389
401.9099, 9464.939
402.3920, 9438.530
402.8741, 9414.579
403.3562, 9393.431
403.8383, 9376.044
404.3205, 9364.420
404.8026, 9355.380
405.2847, 9338.196
405.7668, 9306.727
406.2489, 9282.611
406.7310, 9278.338
407.2132, 9282.679
407.6953, 9287.443
408.1774, 9292.060
408.6595, 9290.000
409.1416, 9270.051
409.6237, 9233.579
410.1059, 9204.053
410.5880, 9190.247
411.0701, 9181.402
411.5522, 9166.512
412.0343, 9145.786
412.5164, 9123.354
412.9986, 9100.007
413.4807, 9076.401
413.9628, 9052.707
414.4449, 9028.563
414.9270, 9008.492
415.4091, 8998.819
415.8913, 8997.960
416.3734, 8990.055
416.8555, 8965.207
417.3376, 8941.464
417.8197, 8935.895
418.3018, 8941.847
418.7840, 8936.786
419.2661, 8908.187
419.7482, 8863.010
420.2303, 8822.726
420.7124, 8786.052
421.1945, 8755.259
421.6767, 8727.839
422.1588, 8707.866
422.6409, 8707.184
423.1230, 8725.967
423.6051, 8741.850
424.0872, 8723.224
424.5694, 8655.015
425.0515, 8608.438
425.5336, 8590.553
426.0157, 8584.414
426.4978, 8588.342
426.9799, 8598.033
427.4621, 8606.681
427.9442, 8610.466
428.4263, 8608.666
428.9084, 8596.480
429.3905, 8565.163
429.8727, 8537.382
430.3548, 8519.514
430.8369, 8506.849
431.3190, 8494.775
431.8011, 8481.784
432.2833, 8468.894
432.7654, 8455.787
433.2475, 8441.980
433.7296, 8436.303
434.2117, 8449.069
434.6938, 8461.310
435.1760, 8455.827
435.6581, 8434.275
436.1402, 8413.998
436.6223, 8406.665
437.1044, 8405.771
437.5865, 8398.320
438.0687, 8382.729
438.5508, 8366.225
439.0329, 8353.091
439.5150, 8343.313
439.9971, 8335.763
440.4792, 8328.356
440.9614, 8325.315
441.4435, 8333.075
441.9256, 8347.308
442.4077, 8355.549
442.8898, 8351.994
443.3719, 8343.217
443.8541, 8342.754
444.3362, 8359.294
444.8183, 8366.195
445.3004, 8359.782
445.7825, 8344.742
446.2646, 8321.181
446.7468, 8291.306
447.2289, 8262.787
447.7110, 8242.772
448.1931, 8231.388
448.6752, 8222.884
449.1573, 8215.822
449.6395, 8213.343
450.1216, 8215.162
450.6037, 8222.392
451.0858, 8240.057
451.5679, 8271.869
452.0500, 8305.049
452.5322, 8310.995
453.0143, 8279.360
453.4964, 8254.613
453.9785, 8249.056
454.4606, 8250.370
454.9427, 8250.244
455.4249, 8248.600
455.9070, 8253.113
456.3891, 8276.848
456.8712, 8312.120
457.3533, 8329.939
457.8354, 8324.379
458.3176, 8313.059
458.7997, 8309.240
459.2818, 8308.559
459.7639, 8300.505
460.2460, 8276.350
460.7281, 8251.303
461.2103, 8237.436
461.6924, 8232.505
462.1745, 8227.937
462.6566, 8220.411
463.1387, 8211.407
463.6208, 8203.526
464.1030, 8195.746
464.5851, 8191.399
465.0672, 8194.531
465.5493, 8198.917
466.0314, 8198.068
466.5135, 8192.090
466.9957, 8185.708
467.4778, 8181.793
467.9599, 8180.372
468.4420, 8193.304
468.9241, 8256.132
469.4063, 8293.336
469.8884, 8267.183
470.3705, 8213.337
470.8526, 8179.046
471.3347, 8183.023
471.8168, 8207.493
472.2990, 8224.447
472.7811, 8233.364
473.2632, 8236.692
473.7453, 8227.963
474.2274, 8219.285
474.7095, 8216.390
475.1917, 8219.610
475.6738, 8227.982
476.1559, 8253.976
476.6380, 8282.328
477.1201, 8270.138
477.6022, 8208.793
478.0844, 8152.271
478.5665, 8129.803
479.0486, 8133.428
479.5307, 8143.957
480.0128, 8168.981
480.4949, 8186.287
480.9771, 8179.939
481.4592, 8158.670
481.9413, 8137.475
482.4234, 8120.026
482.9055, 8108.183
483.3876, 8105.493
483.8698, 8115.637
484.3519, 8119.137
484.8340, 8110.335
485.3161, 8100.501
485.7982, 8099.655
486.2803, 8102.825
486.7625, 8096.133
487.2446, 8070.369
487.7267, 8032.598
488.2088, 8006.345
488.6909, 7994.829
489.1730, 7990.000
489.6552, 7995.532
490.1373, 8003.083
490.6194, 8008.848
491.1015, 8011.208
491.5836, 8006.194
492.0657, 7983.966
492.5479, 7948.291
493.0300, 7929.137
493.5121, 7934.269
493.9942, 7941.771
494.4763, 7940.861
494.9584, 7933.141
495.4406, 7919.156
495.9227, 7891.709
496.4048, 7868.706
496.8869, 7870.277
497.3690, 7889.497
497.8511, 7900.312
498.3333, 7893.255
498.8154, 7878.931
499.2975, 7872.348
499.7796, 7875.261
500.2617, 7878.944
500.7438, 7886.076
501.2260, 7891.242
501.7081, 7887.487
502.1902, 7877.679
502.6723, 7872.473
503.1544, 7879.458
503.6365, 7895.004
504.1187, 7902.226
504.6008, 7891.913
505.0829, 7887.262
505.5650, 7908.433
506.0471, 7924.484
506.5292, 7899.121
507.0114, 7831.619
507.4935, 7766.515
507.9756, 7752.505
508.4577, 7784.637
508.9398, 7807.402
509.4219, 7820.411
509.9041, 7822.666
510.3862, 7799.259
510.8683, 7767.654
511.3504, 7760.889
511.8325, 7803.089
512.3146, 7844.928
512.7968, 7839.689
513.2789, 7800.225
513.7610, 7770.230
514.2431, 7763.136
514.7252, 7766.868
515.2073, 7765.837
515.6895, 7758.141
516.1716, 7754.716
516.6537, 7760.968
517.1358, 7767.044
517.6179, 7765.008
518.1000, 7757.534
518.5822, 7753.051
519.0643, 7756.603
519.5464, 7765.285
520.0285, 7770.033
520.5106, 7768.283
520.9927, 7767.391
521.4749, 7767.537
521.9570, 7769.025
522.4391, 7768.814
522.9212, 7768.699
523.4033, 7777.782
523.8854, 7813.988
524.3676, 7865.920
524.8497, 7884.313
525.3318, 7859.811
525.8139, 7833.422
526.2960, 7821.102
526.7781, 7821.644
527.2603, 7835.798
527.7424, 7871.422
528.2245, 7901.343
528.7066, 7908.277
529.1887, 7900.649
529.6708, 7886.049
530.1530, 7866.013
530.6351, 7864.235
531.1172, 7911.525
531.5993, 8013.810
532.0814, 8070.056
532.5635, 8046.192
533.0457, 8021.804
533.5278, 8025.421
534.0099, 8044.287
534.4920, 8058.291
534.9741, 8059.733
535.4562, 8054.931
535.9384, 8051.663
536.4205, 8048.104
536.9026, 8055.583
537.3847, 8086.906
537.8668, 8116.820
538.3489, 8129.329
538.8311, 8130.567
539.3132, 8138.302
539.7953, 8169.138
540.2774, 8200.275
540.7595, 8196.969
541.2416, 8162.205
541.7238, 8131.242
542.2059, 8116.440
542.6880, 8110.489
543.1701, 8101.792
543.6522, 8088.665
544.1343, 8082.235
544.6165, 8089.842
545.0986, 8100.152
545.5807, 8107.667
546.0628, 8110.330
546.5449, 8104.837
547.0270, 8089.187
547.5092, 8063.979
547.9913, 8028.741
548.4734, 7966.856
548.9555, 7925.335
549.4376, 7922.033
549.9197, 7927.023
550.4019, 7921.449
550.8840, 7903.510
551.3661, 7879.928
551.8482, 7854.022
552.3303, 7826.681
552.8124, 7799.962
553.2946, 7773.179
553.7767, 7749.549
554.2588, 7727.985
554.7409, 7712.486
555.2230, 7711.565
555.7051, 7732.946
556.1873, 7744.714
556.6694, 7732.045
557.1515, 7703.868
557.6336, 7664.111
558.1157, 7616.313
558.5978, 7580.257
559.0800, 7573.572
559.5621, 7593.202
560.0442, 7606.611
560.5263, 7618.542
561.0084, 7617.609
561.4905, 7588.124
561.9727, 7553.387
562.4548, 7537.021
562.9369, 7542.804
563.4190, 7554.854
563.9011, 7560.751
564.3832, 7560.126
564.8654, 7545.475
565.3475, 7505.474
565.8296, 7477.474
566.3117, 7501.224
566.7938, 7543.417
567.2759, 7551.726
567.7581, 7506.635
568.2402, 7458.553
568.7223, 7434.614
569.2044, 7426.800
569.6865, 7423.247
570.1686, 7421.480
570.6508, 7416.195
571.1329, 7400.071
571.6150, 7373.229
572.0971, 7364.513
572.5792, 7387.196
573.0613, 7410.786
573.5435, 7438.570
574.0256, 7459.245
574.5077, 7456.327
574.9898, 7427.241
575.4719, 7391.441
575.9540, 7370.561
576.4362, 7364.101
576.9183, 7357.037
577.4004, 7345.242
577.8825, 7340.350
578.3646, 7357.960
578.8467, 7384.258
579.3289, 7396.300
579.8110, 7383.344
580.2932, 7371.040
580.7753, 7378.943
581.2574, 7397.469
581.7395, 7406.332
582.2216, 7401.591
582.7037, 7399.527
583.1859, 7420.443
583.6680, 7464.666
584.1501, 7466.672
584.6322, 7378.461
585.1143, 7308.459
585.5964, 7286.054
586.0786, 7290.133
586.5607, 7298.358
587.0428, 7304.172
587.5249, 7310.822
588.0070, 7324.879
588.4891, 7345.089
588.9713, 7352.763
589.4534, 7341.763
589.9355, 7331.185
590.4176, 7331.839
590.8997, 7339.680
591.3818, 7349.619
591.8640, 7364.100
592.3461, 7373.698
592.8282, 7371.039
593.3103, 7361.503
593.7924, 7352.006
594.2745, 7344.104
594.7567, 7338.603
595.2388, 7335.626
595.7209, 7335.577
596.2030, 7344.015
596.6851, 7377.952
597.1672, 7399.298
597.6494, 7393.695
598.1315, 7379.375
598.6136, 7375.966
599.0957, 7385.284
599.5778, 7390.740
600.0599, 7369.733
600.5421, 7331.390
601.0242, 7317.236
601.5063, 7331.917
601.9884, 7349.655
602.4705, 7356.937
602.9526, 7360.040
603.4348, 7372.169
603.9169, 7397.160
604.3990, 7419.712
604.8811, 7438.877
605.3632, 7451.169
605.8453, 7449.080
606.3275, 7435.030
606.8096, 7422.143
607.2917, 7419.739
607.7738, 7425.147
608.2559, 7427.711
608.7380, 7427.831
609.2202, 7424.171
609.7023, 7409.571
610.1844, 7396.987
610.6665, 7396.123
611.1486, 7406.234
611.6307, 7419.279
612.1129, 7432.271
612.5950, 7444.207
613.0771, 7453.135
613.5592, 7459.116
614.0413, 7464.878
614.5234, 7472.386
615.0056, 7478.235
615.4877, 7474.828
615.9698, 7456.421
616.4519, 7451.048
616.9340, 7471.577
617.4161, 7494.478
617.8983, 7506.314
618.3804, 7509.947
618.8625, 7513.023
619.3446, 7519.065
619.8267, 7527.615
620.3088, 7540.550
620.7910, 7559.987
621.2731, 7567.298
621.7552, 7553.125
622.2373, 7536.718
622.7194, 7527.168
623.2015, 7524.524
623.6837, 7529.876
624.1658, 7549.566
624.6479, 7568.472
625.1300, 7574.655
625.6121, 7572.672
626.0942, 7572.717
626.5764, 7577.095
627.0585, 7579.354
627.5406, 7571.786
628.0227, 7554.069
628.5048, 7545.019
628.9869, 7553.146
629.4691, 7560.225
629.9512, 7565.104
630.4333, 7566.553
630.9154, 7559.220
631.3975, 7543.774
631.8796, 7535.355
632.3618, 7553.939
632.8439, 7589.000
633.3260, 7608.515
633.8081, 7610.434
634.2902, 7607.575
634.7723, 7603.643
635.2545, 7600.777
635.7366, 7605.438
636.2187, 7622.842
636.7008, 7632.194
637.1829, 7622.662
637.6650, 7610.111
638.1472, 7607.884
638.6293, 7613.420
639.1114, 7615.550
639.5935, 7607.507
640.0756, 7594.297
640.5577, 7589.161
641.0399, 7596.020
641.5220, 7589.279
642.0041, 7545.348
642.4862, 7511.108
642.9683, 7530.426
643.4504, 7585.639
643.9326, 7619.959
644.4147, 7601.574
644.8968, 7576.719
645.3789, 7576.098
645.8610, 7592.634
646.3431, 7615.826
646.8253, 7642.471
647.3074, 7663.116
647.7895, 7667.195
648.2716, 7654.654
648.7537, 7639.048
649.2358, 7609.750
649.7180, 7591.851
650.2001, 7593.071
650.6822, 7605.563
651.1643, 7626.962
651.6464, 7655.094
652.1285, 7674.934
652.6107, 7667.302
653.0928, 7646.821
653.5749, 7644.949
654.0570, 7662.004
654.5391, 7677.068
655.0212, 7680.939
655.5034, 7676.219
655.9855, 7666.393
656.4676, 7642.405
656.9497, 7635.341
657.4318, 7663.053
657.9139, 7690.563
658.3961, 7696.877
658.8782, 7688.881
659.3603, 7680.785
659.8424, 7678.408
660.3245, 7684.176
660.8066, 7706.196
661.2888, 7743.038
661.7709, 7771.083
662.2530, 7787.193
662.7351, 7795.135
663.2172, 7795.997
663.6993, 7790.434
664.1815, 7780.907
664.6636, 7750.185
665.1457, 7741.485
665.6278, 7791.185
666.1099, 7855.413
666.5920, 7885.821
667.0742, 7880.611
667.5563, 7868.102
668.0384, 7868.794
668.5205, 7879.064
669.0026, 7884.977
669.4847, 7882.180
669.9669, 7891.311
670.4490, 7928.673
670.9311, 7967.622
671.4132, 7986.552
671.8953, 7987.735
672.3774, 7985.548
672.8596, 7970.939
673.3417, 7966.959
673.8238, 8004.995
674.3059, 8062.616
674.7880, 8091.458
675.2701, 8078.930
675.7523, 8051.340
676.2344, 8035.038
676.7165, 8029.953
677.1986, 8046.612
677.6807, 8107.341
678.1628, 8154.079
678.6450, 8160.773
679.1271, 8154.623
679.6092, 8161.554
680.0913, 8184.574
680.5734, 8207.814
681.0555, 8221.962
681.5377, 8232.336
682.0198, 8245.955
682.5019, 8262.102
682.9840, 8275.758
683.4661, 8284.315
683.9482, 8291.933
684.4304, 8305.512
684.9125, 8325.819
685.3946, 8348.942
685.8767, 8392.602
686.3588, 8419.239
686.8409, 8392.650
687.3231, 8351.785
687.8052, 8357.574
688.2873, 8429.247
688.7694, 8502.512
689.2515, 8520.213
689.7336, 8505.050
690.2158, 8501.908
690.6979, 8514.274
691.1800, 8540.045
691.6621, 8583.770
692.1442, 8629.562
692.6263, 8635.135
693.1085, 8567.405
693.5906, 8524.048
694.0727, 8502.054
694.5548, 8505.109
695.0369, 8551.317
695.5190, 8620.889
696.0012, 8678.896
696.4833, 8711.231
696.9654, 8729.227
697.4475, 8737.413
697.9296, 8740.702
698.4117, 8761.445
698.8939, 8804.261
699.3760, 8837.066
699.8581, 8833.649
700.3402, 8805.583
700.8223, 8798.331
701.3044, 8831.040
701.7866, 8858.361
702.2687, 8879.272
702.7508, 8894.953
703.2329, 8900.137
703.7150, 8900.875
704.1971, 8912.419
704.6793, 8944.820
705.1614, 8983.997
705.6435, 9013.233
706.1256, 9033.131
706.6077, 9043.209
707.0898, 9041.258
707.5720, 9043.622
708.0541, 9066.771
708.5362, 9105.585
709.0183, 9125.937
709.5004, 9105.906
709.9825, 9098.449
710.4647, 9119.397
710.9468, 9145.867
711.4289, 9160.227
711.9110, 9163.587
712.3931, 9167.152
712.8752, 9178.321
713.3574, 9190.538
713.8395, 9191.414
714.3216, 9182.956
714.8037, 9180.094
715.2858, 9186.334
715.7679, 9197.206
716.2501, 9213.640
716.7322, 9233.089
717.2143, 9226.646
717.6964, 9153.217
718.1785, 9111.479
718.6606, 9144.624
719.1428, 9191.308
719.6249, 9198.329
720.1070, 9169.567
720.5891, 9144.366
721.0712, 9146.678
721.5533, 9163.983
722.0355, 9183.539
722.5176, 9203.246
722.9997, 9204.410
723.4818, 9179.719
723.9639, 9152.923
724.4460, 9145.588
724.9282, 9156.194
725.4103, 9164.955
725.8924, 9176.504
726.3745, 9179.781
726.8566, 9163.664
727.3387, 9146.158
727.8209, 9142.122
728.3030, 9150.821
728.7851, 9162.979
729.2672, 9176.588
729.7493, 9186.097
730.2314, 9182.529
730.7136, 9167.634
731.1957, 9146.909
731.6778, 9120.340
732.1599, 9100.079
732.6420, 9097.122
733.1241, 9110.496
733.6063, 9129.365
734.0884, 9164.396
734.5705, 9190.262
735.0526, 9205.556
735.5347, 9210.834
736.0168, 9201.522
736.4990, 9181.991
736.9811, 9165.943
737.4632, 9160.331
737.9453, 9160.479
738.4274, 9161.316
738.9095, 9163.592
739.3917, 9172.086
739.8738, 9187.704
740.3559, 9198.289
740.8380, 9191.177
741.3201, 9171.394
741.8022, 9171.313
742.2844, 9213.956
742.7665, 9235.739
743.2486, 9207.419
743.7307, 9178.669
744.2128, 9183.301
744.6949, 9213.994
745.1771, 9243.706
745.6592, 9263.063
746.1413, 9277.342
746.6234, 9292.605
747.1055, 9305.344
747.5876, 9307.038
748.0698, 9297.438
748.5519, 9285.586
749.0340, 9277.411
749.5161, 9273.577
749.9982, 9272.904
750.4803, 9263.360
750.9625, 9293.280
751.4446, 9418.985
751.9267, 9529.147
752.4088, 9545.048
752.8909, 9498.933
753.3730, 9467.289
753.8552, 9461.515
754.3373, 9481.506
754.8194, 9550.928
755.3015, 9631.790
755.7836, 9667.946
756.2657, 9666.883
756.7479, 9687.447
757.2300, 9767.248
757.7121, 9869.686
758.1942, 9914.482
758.6763, 9894.619
759.1584, 9885.369
759.6406, 9894.076
760.1227, 9911.132
760.6048, 9927.303
761.0869, 9949.110
761.5690, 9992.447
762.0511, 10067.86
762.5333, 10139.55
763.0154, 10195.95
763.4975, 10248.45
763.9796, 10305.84
764.4617, 10366.22
764.9438, 10421.82
765.4260, 10468.65
765.9081, 10519.25
766.3902, 10599.37
766.8723, 10700.09
767.3544, 10760.80
767.8365, 10771.94
768.3187, 10803.52
768.8008, 10895.68
769.2829, 11021.36
769.7650, 11131.88
770.2471, 11225.15
770.7292, 11307.99
771.2114, 11366.22
771.6935, 11429.76
772.1756, 11511.37
772.6577, 11605.13
773.1398, 11700.60
773.6219, 11795.58
774.1041, 11898.06
774.5862, 12023.41
775.0683, 12155.14
775.5504, 12259.59
776.0325, 12342.20
776.5146, 12438.87
776.9968, 12563.06
777.4789, 12695.14
777.9611, 12809.74
778.4432, 12905.95
778.9253, 13010.04
779.4074, 13125.42
779.8895, 13242.10
780.3716, 13367.08
780.8538, 13485.70
781.3359, 13583.15
781.8180, 13660.28
782.3001, 13732.81
782.7822, 13810.54
783.2643, 13880.77
783.7465, 13928.31
784.2286, 13965.72
784.7107, 14009.20
785.1928, 14063.45
785.6749, 14135.99
786.1570, 14241.76
786.6392, 14354.92
787.1213, 14385.30
787.6034, 14322.05
788.0855, 14282.96
788.5676, 14296.75
789.0497, 14324.15
789.5319, 14341.89
790.0140, 14347.51
790.4961, 14330.13
790.9782, 14269.35
791.4603, 14215.95
791.9424, 14190.92
792.4246, 14163.58
792.9067, 14114.28
793.3888, 14043.25
793.8709, 13953.08
794.3530, 13842.10
794.8351, 13729.99
795.3173, 13640.49
795.7994, 13565.37
796.2815, 13486.87
796.7636, 13402.49
797.2457, 13299.79
797.7278, 13170.23
798.2100, 13025.24
798.6921, 12886.15
799.1742, 12751.91
799.6563, 12628.07
800.1384, 12534.45
800.6205, 12423.80
801.1027, 12272.18
801.5848, 12100.81
802.0669, 11930.45
802.5490, 11763.48
803.0311, 11612.79
803.5132, 11497.52
803.9954, 11388.87
804.4775, 11257.91
804.9596, 11119.36
805.4417, 11004.08
805.9238, 10918.14
806.4059, 10835.51
806.8881, 10730.22
807.3702, 10609.64
807.8523, 10498.72
808.3344, 10397.04
808.8165, 10303.17
809.2986, 10216.32
809.7808, 10137.95
810.2629, 10073.71
810.7450, 10021.52
811.2271, 9953.342
811.7092, 9853.522
812.1913, 9760.845
812.6735, 9685.102
813.1556, 9612.667
813.6377, 9534.069
814.1198, 9450.701
814.6019, 9368.401
815.0840, 9287.790
815.5662, 9211.326
816.0483, 9140.507
816.5304, 9075.125
817.0125, 9018.758
817.4946, 8968.980
817.9767, 8910.982
818.4589, 8836.457
818.9410, 8756.619
819.4231, 8691.992
819.9052, 8644.403
820.3873, 8596.740
820.8694, 8548.075
821.3516, 8502.171
821.8337, 8467.841
822.3158, 8431.789
822.7979, 8366.319
823.2800, 8266.014
823.7621, 8191.494
824.2443, 8176.775
824.7264, 8158.022
825.2085, 8098.571
825.6906, 8025.749
826.1727, 7973.144
826.6548, 7944.570
827.1370, 7922.237
827.6191, 7901.172
828.1012, 7871.907
828.5833, 7813.879
829.0654, 7735.983
829.5475, 7666.366
830.0297, 7610.873
830.5118, 7568.691
830.9939, 7542.273
831.4760, 7524.411
831.9581, 7486.476
832.4402, 7416.386
832.9224, 7368.865
833.4045, 7367.856
833.8866, 7363.782
834.3687, 7320.009
834.8508, 7255.864
835.3329, 7206.661
835.8151, 7181.534
836.2972, 7149.379
836.7793, 7079.668
837.2614, 7023.005
837.7435, 7028.761
838.2256, 7065.351
838.7078, 7079.896
839.1899, 7056.826
839.6720, 7011.439
840.1541, 6942.532
840.6362, 6867.054
841.1183, 6819.338
841.6005, 6796.657
842.0826, 6784.667
842.5647, 6779.537
843.0468, 6779.165
843.5289, 6784.165
844.0110, 6791.389
844.4932, 6772.299
844.9753, 6706.251
845.4574, 6668.766
845.9395, 6696.038
846.4216, 6726.437
846.9037, 6713.731
847.3859, 6671.396
847.8680, 6633.111
848.3501, 6595.400
848.8322, 6576.064
849.3143, 6601.029
849.7964, 6626.854
850.2786, 6618.773
850.7607, 6586.926
851.2428, 6552.466
851.7249, 6523.082
852.2070, 6507.025
852.6891, 6526.088
853.1713, 6557.907
853.6534, 6554.261
854.1355, 6519.435
854.6176, 6482.014
855.0997, 6451.065
855.5818, 6430.104
856.0640, 6425.935
856.5461, 6435.676
857.0282, 6426.533
857.5103, 6386.795
857.9924, 6364.880
858.4745, 6381.350
858.9567, 6404.026
859.4388, 6407.252
859.9209, 6395.105
860.4030, 6382.854
860.8851, 6368.500
861.3672, 6358.583
861.8494, 6359.002
862.3315, 6359.848
862.8136, 6353.273
863.2957, 6342.246
863.7778, 6332.284
864.2599, 6325.011
864.7421, 6323.280
865.2242, 6339.756
865.7063, 6356.792
866.1884, 6338.963
866.6705, 6297.875
867.1526, 6279.635
867.6348, 6297.953
868.1169, 6322.264
868.5990, 6320.363
869.0811, 6296.712
869.5632, 6273.345
870.0453, 6249.759
870.5275, 6228.118
871.0096, 6205.381
871.4917, 6193.349
871.9738, 6206.588
872.4559, 6238.452
872.9380, 6256.614
873.4202, 6250.775
873.9023, 6246.428
874.3844, 6245.483
874.8665, 6244.102
875.3486, 6240.208
875.8307, 6234.627
876.3129, 6229.035
876.7950, 6223.860
877.2771, 6217.458
877.7592, 6205.119
878.2413, 6194.799
878.7234, 6198.283
879.2056, 6207.292
879.6877, 6204.323
880.1698, 6186.760
880.6519, 6168.897
881.1340, 6163.202
881.6161, 6164.085
882.0983, 6157.519
882.5804, 6145.354
883.0625, 6148.174
883.5446, 6171.344
884.0267, 6174.252
884.5089, 6120.780
884.9910, 6042.083
885.4731, 6029.691
885.9552, 6114.502
886.4373, 6165.263
886.9194, 6171.473
887.4016, 6158.394
887.8837, 6119.577
888.3658, 6077.044
888.8479, 6063.244
889.3300, 6081.255
889.8121, 6093.188
890.2943, 6091.150
890.7764, 6085.000
891.2585, 6071.382
891.7406, 6060.549
892.2227, 6067.812
892.7048, 6089.190
893.1870, 6102.371
893.6691, 6092.879
894.1512, 6079.532
894.6333, 6083.199
895.1154, 6092.482
895.5975, 6087.397
896.0797, 6068.598
896.5618, 6046.801
897.0439, 6027.012
897.5260, 6012.434
898.0081, 6009.688
898.4902, 6017.285
898.9724, 6022.882
899.4545, 6026.111
899.9366, 6034.227
900.4187, 6052.361
900.9008, 6066.201
901.3829, 6058.423
901.8651, 6031.021
902.3472, 6011.274
902.8293, 5996.865
903.3114, 5994.916
903.7935, 6014.703
904.2756, 6038.394
904.7578, 6060.437
905.2399, 6077.742
905.7220, 6082.886
906.2041, 6071.248
906.6862, 6059.929
907.1683, 6051.938
907.6505, 6046.578
908.1326, 6044.021
908.6147, 6043.545
909.0968, 6044.546
909.5789, 6046.756
910.0610, 6049.450
910.5432, 6053.259
911.0253, 6056.247
911.5074, 6053.623
911.9895, 6049.559
912.4716, 6054.800
912.9537, 6068.778
913.4359, 6079.747
913.9180, 6080.660
914.4001, 6073.403
914.8822, 6059.166
915.3643, 6038.870
915.8464, 6018.797
916.3286, 5998.778
916.8107, 5988.254
917.2928, 5992.238
917.7749, 6004.047
918.2570, 6014.302
918.7391, 6022.904
919.2213, 6041.482
919.7034, 6076.875
920.1855, 6107.483
920.6676, 6136.252
921.1497, 6151.425
921.6318, 6133.262
922.1140, 6093.937
922.5961, 6072.896
923.0782, 6083.173
923.5603, 6088.509
924.0424, 6066.304
924.5245, 6056.677
925.0067, 6097.201
925.4888, 6156.768
925.9709, 6189.364
926.4530, 6186.808
926.9351, 6175.105
927.4172, 6161.569
927.8994, 6150.208
928.3815, 6143.170
928.8636, 6140.890
929.3457, 6146.936
929.8278, 6159.105
930.3099, 6166.387
930.7921, 6160.631
931.2742, 6156.209
931.7563, 6178.119
932.2384, 6215.651
932.7205, 6235.100
933.2026, 6237.275
933.6848, 6249.458
934.1669, 6283.186
934.6490, 6318.021
935.1311, 6326.605
935.6132, 6313.481
936.0953, 6313.958
936.5775, 6329.390
937.0596, 6351.421
937.5417, 6383.880
938.0238, 6405.278
938.5059, 6392.502
938.9880, 6360.009
939.4702, 6357.925
939.9523, 6400.156
940.4344, 6440.578
940.9165, 6492.787
941.3986, 6525.387
941.8807, 6500.291
942.3629, 6466.579
942.8450, 6492.611
943.3271, 6579.894
943.8092, 6633.508
944.2913, 6598.151
944.7734, 6578.838
945.2556, 6629.813
945.7377, 6693.514
946.2198, 6716.564
946.7019, 6709.876
947.1840, 6713.492
947.6661, 6740.940
948.1483, 6778.567
948.6304, 6825.702
949.1125, 6871.859
949.5946, 6901.825
950.0767, 6923.595
950.5588, 6953.246
951.0410, 6994.593
951.5231, 7041.407
952.0052, 7088.674
952.4873, 7139.427
952.9694, 7203.877
953.4515, 7275.507
953.9337, 7329.632
954.4158, 7365.930
954.8979, 7411.697
955.3800, 7482.187
955.8621, 7557.387
956.3442, 7600.802
956.8264, 7615.873
957.3085, 7649.437
957.7906, 7703.258
958.2727, 7752.150
958.7548, 7787.571
959.2369, 7819.694
959.7191, 7857.305
960.2012, 7899.714
960.6833, 7945.421
961.1654, 7997.861
961.6475, 8043.768
962.1296, 8088.733
962.6118, 8115.026
963.0939, 8101.298
963.5760, 8072.057
964.0581, 8071.005
964.5402, 8106.286
965.0223, 8118.633
965.5045, 8089.733
965.9866, 8062.292
966.4687, 8045.930
966.9508, 8033.639
967.4329, 8026.929
967.9150, 8019.340
968.3972, 7991.493
968.8793, 7929.861
969.3614, 7874.653
969.8435, 7845.063
970.3256, 7820.506
970.8077, 7787.580
971.2899, 7750.881
971.7720, 7722.139
972.2541, 7700.923
972.7362, 7668.018
973.2183, 7611.281
973.7004, 7541.482
974.1826, 7453.365
974.6647, 7366.322
975.1469, 7314.273
975.6290, 7288.530
976.1111, 7249.612
976.5932, 7180.580
977.0753, 7109.618
977.5574, 7072.111
978.0396, 7049.125
978.5217, 7002.661
979.0038, 6938.357
979.4859, 6875.218
979.9680, 6818.351
980.4501, 6765.267
980.9323, 6714.245
981.4144, 6667.681
981.8965, 6632.226
982.3786, 6606.402
982.8607, 6577.228
983.3428, 6543.864
983.8250, 6513.271
984.3071, 6488.935
984.7892, 6463.600
985.2713, 6427.083
985.7534, 6381.582
986.2355, 6344.655
986.7177, 6317.415
987.1998, 6292.015
987.6819, 6266.460
988.1640, 6244.514
988.6461, 6229.099
989.1282, 6218.483
989.6104, 6211.177
990.0925, 6211.926
990.5746, 6190.493
991.0567, 6132.036
991.5388, 6078.268
992.0209, 6037.314
992.5031, 6007.876
992.9852, 5992.660
993.4673, 5989.259
993.9494, 5984.004
994.4315, 5979.539
994.9136, 5968.696
995.3958, 5947.823
995.8779, 5924.372
996.3600, 5894.382
996.8421, 5867.797
997.3242, 5860.143
997.8063, 5871.711
998.2885, 5878.453
998.7706, 5879.401
999.2527, 5869.092
999.7348, 5837.056
1000.217, 5800.982
1000.699, 5773.947
1001.181, 5754.125
1001.663, 5734.290
1002.145, 5712.142
1002.628, 5697.145
1003.110, 5702.031
1003.592, 5706.576
1004.074, 5693.071
1004.556, 5673.268
1005.038, 5663.681
1005.520, 5663.646
1006.002, 5661.639
1006.484, 5652.625
1006.967, 5639.282
1007.449, 5612.366
1007.931, 5591.001
1008.413, 5613.474
1008.895, 5655.778
1009.377, 5658.295
1009.859, 5612.624
1010.341, 5570.929
1010.823, 5576.031
1011.306, 5593.284
1011.788, 5572.042
1012.270, 5530.995
1012.752, 5507.529
1013.234, 5502.897
1013.716, 5508.652
1014.198, 5520.615
1014.680, 5524.206
1015.163, 5493.543
1015.645, 5451.281
1016.127, 5462.969
1016.609, 5513.415
1017.091, 5531.908
1017.573, 5509.595
1018.055, 5482.196
1018.537, 5469.650
1019.019, 5468.159
1019.502, 5475.369
1019.984, 5489.235
1020.466, 5497.613
1020.948, 5500.305
1021.430, 5488.871
1021.912, 5460.125
1022.394, 5435.396
1022.876, 5432.854
1023.359, 5441.975
1023.841, 5433.797
1024.323, 5407.315
1024.805, 5391.572
1025.287, 5388.003
1025.769, 5394.236
1026.251, 5412.967
1026.733, 5427.212
1027.215, 5416.253
1027.698, 5387.035
1028.180, 5378.729
1028.662, 5397.535
1029.144, 5407.206
1029.626, 5403.550
1030.108, 5394.271
1030.590, 5381.288
1031.072, 5367.088
1031.554, 5354.458
1032.037, 5343.454
1032.519, 5339.328
1033.001, 5346.967
1033.483, 5347.363
1033.965, 5329.152
1034.447, 5319.623
1034.929, 5342.911
1035.411, 5378.783
1035.894, 5386.751
1036.376, 5360.374
1036.858, 5344.647
1037.340, 5343.027
1037.822, 5346.306
1038.304, 5356.831
1038.786, 5367.231
1039.268, 5375.296
1039.750, 5378.625
1040.233, 5368.601
1040.715, 5335.678
1041.197, 5315.787
1041.679, 5319.322
1042.161, 5322.083
1042.643, 5312.127
1043.125, 5303.721
1043.607, 5311.818
1044.089, 5332.536
1044.572, 5349.379
1045.054, 5373.147
1045.536, 5369.565
1046.018, 5302.278
1046.500, 5247.560
1046.982, 5238.429
1047.464, 5255.176
1047.946, 5281.749
1048.429, 5315.262
1048.911, 5344.440
1049.393, 5376.839
1049.875, 5390.230
1050.357, 5369.419
1050.839, 5341.007
1051.321, 5307.927
1051.803, 5282.185
1052.286, 5285.604
1052.768, 5317.662
1053.250, 5335.299
1053.732, 5311.405
1054.214, 5296.872
1054.696, 5317.195
1055.178, 5339.275
1055.660, 5341.240
1056.142, 5329.270
1056.625, 5310.664
1057.107, 5286.627
1057.589, 5279.747
1058.071, 5304.230
1058.553, 5336.983
1059.035, 5390.890
1059.517, 5429.879
1059.999, 5410.813
1060.481, 5358.999
1060.964, 5330.152
1061.446, 5337.381
1061.928, 5337.773
1062.410, 5302.292
1062.892, 5273.954
1063.374, 5277.773
1063.856, 5293.932
1064.338, 5309.000
1064.821, 5319.608
1065.303, 5321.909
1065.785, 5313.971
1066.267, 5305.291
1066.749, 5296.959
1067.231, 5291.993
1067.713, 5292.828
1068.195, 5297.276
1068.677, 5307.788
1069.160, 5319.457
1069.642, 5317.495
1070.124, 5294.139
1070.606, 5275.006
1071.088, 5265.194
1071.570, 5270.061
1072.052, 5303.199
1072.534, 5345.790
1073.016, 5385.974
1073.499, 5415.397
1073.981, 5411.671
1074.463, 5355.276
1074.945, 5311.820
1075.427, 5314.172
1075.909, 5336.581
1076.391, 5384.961
1076.874, 5428.468
1077.356, 5418.389
1077.838, 5365.604
1078.320, 5335.541
1078.802, 5358.430
1079.284, 5382.094
1079.766, 5374.039
1080.248, 5366.611
1080.730, 5390.332
1081.213, 5423.393
1081.695, 5434.943
1082.177, 5425.060
1082.659, 5414.881
1083.141, 5409.595
1083.623, 5410.585
1084.105, 5423.163
1084.587, 5437.327
1085.069, 5442.134
1085.552, 5446.474
1086.034, 5471.711
1086.516, 5512.035
1086.998, 5523.586
1087.480, 5471.960
1087.962, 5431.409
1088.444, 5445.876
1088.926, 5470.095
1089.409, 5469.018
1089.891, 5460.504
1090.373, 5476.132
1090.855, 5514.243
1091.337, 5539.129
1091.819, 5532.729
1092.301, 5523.967
1092.783, 5520.492
1093.266, 5521.734
1093.748, 5529.662
1094.230, 5540.689
1094.712, 5550.952
1095.194, 5559.773
1095.676, 5566.715
1096.158, 5571.866
1096.640, 5574.760
1097.122, 5572.289
1097.604, 5570.694
1098.087, 5575.563
1098.569, 5582.583
1099.051, 5589.138
1099.533, 5593.184
1100.015, 5584.019
1100.497, 5539.979
1100.979, 5514.552
1101.461, 5529.513
1101.944, 5557.451
1102.426, 5601.345
1102.908, 5637.919
1103.390, 5627.808
1103.872, 5576.086
1104.354, 5551.425
1104.836, 5595.088
1105.318, 5619.263
1105.801, 5588.188
1106.283, 5557.721
1106.765, 5558.506
1107.247, 5573.157
1107.729, 5581.632
1108.211, 5583.100
1108.693, 5581.954
1109.175, 5574.305
1109.657, 5571.081
1110.140, 5571.349
1110.622, 5578.578
1111.104, 5608.295
1111.586, 5636.047
1112.068, 5627.270
1112.550, 5586.483
1113.032, 5563.542
1113.514, 5563.819
1113.996, 5575.194
1114.479, 5623.161
1114.961, 5647.770
1115.443, 5606.837
1115.925, 5551.565
1116.407, 5537.040
1116.889, 5556.584
1117.371, 5566.549
1117.853, 5564.612
1118.336, 5557.657
1118.818, 5542.478
1119.300, 5527.771
1119.782, 5513.593
1120.264, 5505.017
1120.746, 5507.067
1121.228, 5518.851
1121.710, 5539.243
1122.193, 5579.377
1122.675, 5589.193
1123.157, 5557.023
1123.639, 5525.059
1124.121, 5503.559
1124.603, 5494.715
1125.085, 5504.810
1125.567, 5524.847
1126.049, 5523.685
1126.531, 5497.310
1127.014, 5473.629
1127.496, 5451.291
1127.978, 5440.638
1128.460, 5445.715
1128.942, 5459.646
1129.424, 5480.002
1129.906, 5498.224
1130.388, 5488.054
1130.871, 5449.521
1131.353, 5438.395
1131.835, 5456.079
1132.317, 5460.844
1132.799, 5441.819
1133.281, 5427.011
1133.763, 5437.170
1134.245, 5457.644
1134.728, 5461.422
1135.210, 5451.516
1135.692, 5443.455
1136.174, 5437.551
1136.656, 5436.762
1137.138, 5441.027
1137.620, 5442.176
1138.102, 5435.164
1138.584, 5427.029
1139.067, 5432.214
1139.549, 5441.719
1140.031, 5425.840
1140.513, 5395.441
1140.995, 5387.930
1141.477, 5404.010
1141.959, 5417.417
1142.441, 5415.925
1142.923, 5404.485
1143.406, 5377.267
1143.888, 5352.237
1144.370, 5366.145
1144.852, 5395.581
1145.334, 5394.484
1145.816, 5368.340
1146.298, 5351.992
1146.780, 5356.913
1147.263, 5363.348
1147.745, 5354.092
1148.227, 5343.704
1148.709, 5349.753
1149.191, 5357.625
1149.673, 5351.017
1150.155, 5332.216
1150.637, 5302.665
1151.120, 5265.889
1151.602, 5249.216
1152.084, 5281.093
1152.566, 5312.482
1153.048, 5319.463
1153.530, 5316.469
1154.012, 5314.559
1154.494, 5309.759
1154.976, 5289.564
1155.458, 5256.560
1155.941, 5239.060
1156.423, 5250.108
1156.905, 5265.498
1157.387, 5287.222
1157.869, 5303.653
1158.351, 5307.802
1158.833, 5305.235
1159.315, 5300.217
1159.798, 5293.625
1160.280, 5289.363
1160.762, 5293.643
1161.244, 5285.736
1161.726, 5249.758
1162.208, 5227.787
1162.690, 5238.115
1163.172, 5256.179
1163.655, 5264.465
1164.137, 5265.080
1164.619, 5263.692
1165.101, 5260.929
1165.583, 5249.302
1166.065, 5222.889
1166.547, 5211.476
1167.029, 5223.430
1167.511, 5244.341
1167.994, 5269.425
1168.476, 5285.217
1168.958, 5263.969
1169.440, 5212.415
1169.922, 5188.605
1170.404, 5192.083
1170.886, 5205.716
1171.368, 5226.752
1171.850, 5234.041
1172.333, 5217.454
1172.815, 5202.078
1173.297, 5220.000
1173.779, 5251.876
1174.261, 5251.212
1174.743, 5227.509
1175.225, 5202.615
1175.707, 5182.541
1176.190, 5183.797
1176.672, 5208.831
1177.154, 5233.897
1177.636, 5241.945
1178.118, 5243.083
1178.600, 5248.844
1179.082, 5254.568
1179.564, 5253.422
1180.047, 5247.666
1180.529, 5242.940
1181.011, 5239.069
1181.493, 5229.357
1181.975, 5208.515
1182.457, 5192.506
1182.939, 5196.175
1183.421, 5201.283
1183.903, 5193.407
1184.385, 5182.575
1184.868, 5176.718
1185.350, 5178.001
1185.832, 5193.023
1186.314, 5227.826
1186.796, 5242.848
1187.278, 5211.502
1187.760, 5186.456
1188.242, 5181.150
1188.725, 5185.987
1189.207, 5205.614
1189.689, 5225.465
1190.171, 5218.947
1190.653, 5186.532
1191.135, 5175.427
1191.617, 5198.111
1192.099, 5208.668
1192.582, 5200.812
1193.064, 5187.644
1193.546, 5171.237
1194.028, 5160.016
1194.510, 5164.166
1194.992, 5178.196
1195.474, 5183.374
1195.956, 5179.687
1196.438, 5177.504
1196.921, 5177.006
1197.403, 5166.770
1197.885, 5144.380
1198.367, 5136.721
1198.849, 5163.709
1199.331, 5198.001
1199.813, 5191.769
1200.295, 5164.787
1200.777, 5169.734
1201.260, 5192.698
1201.742, 5192.573
1202.224, 5170.250
1202.706, 5154.582
1203.188, 5156.647
1203.670, 5162.363
1204.152, 5158.209
1204.634, 5156.191
1205.117, 5172.327
1205.599, 5191.583
1206.081, 5199.166
1206.563, 5196.683
1207.045, 5184.889
1207.527, 5166.932
1208.009, 5161.217
1208.491, 5184.026
1208.974, 5198.689
1209.456, 5183.990
1209.938, 5171.257
1210.420, 5175.075
1210.902, 5188.152
1211.384, 5211.608
1211.866, 5237.255
1212.348, 5237.524
1212.830, 5205.103
1213.313, 5178.374
1213.795, 5155.062
1214.277, 5144.569
1214.759, 5153.871
1215.241, 5162.250
1215.723, 5156.629
1216.205, 5146.863
1216.687, 5147.736
1217.169, 5157.293
1217.652, 5163.363
1218.134, 5166.204
1218.616, 5173.287
1219.098, 5184.721
1219.580, 5192.179
1220.062, 5192.771
1220.544, 5186.969
1221.026, 5173.683
1221.509, 5159.972
1221.991, 5162.291
1222.473, 5168.037
1222.955, 5143.606
1223.437, 5107.709
1223.919, 5108.797
1224.401, 5143.567
1224.883, 5168.576
1225.365, 5166.078
1225.848, 5155.913
1226.330, 5142.984
1226.812, 5135.395
1227.294, 5142.246
1227.776, 5153.022
1228.258, 5159.618
1228.740, 5162.689
1229.222, 5164.090
1229.704, 5164.147
1230.187, 5165.000
1230.669, 5161.634
1231.151, 5168.600
1231.633, 5208.248
1232.115, 5222.264
1232.597, 5171.263
1233.079, 5118.750
1233.561, 5125.514
1234.044, 5167.665
1234.526, 5176.993
1235.008, 5150.896
1235.490, 5144.882
1235.972, 5160.224
1236.454, 5166.225
1236.936, 5157.317
1237.418, 5141.140
1237.901, 5121.004
1238.383, 5110.922
1238.865, 5132.786
1239.347, 5167.039
1239.829, 5175.226
1240.311, 5166.538
1240.793, 5154.401
1241.275, 5144.201
1241.757, 5147.796
1242.240, 5164.839
1242.722, 5178.829
1243.204, 5182.496
1243.686, 5178.024
1244.168, 5153.409
1244.650, 5136.862
1245.132, 5160.548
1245.614, 5190.372
1246.096, 5188.648
1246.579, 5165.419
1247.061, 5149.675
1247.543, 5144.807
1248.025, 5144.689
1248.507, 5152.462
1248.989, 5159.164
1249.471, 5168.452
1249.953, 5165.875
1250.436, 5135.865
1250.918, 5112.412
1251.400, 5135.417
1251.882, 5186.209
1252.364, 5203.163
1252.846, 5187.542
1253.328, 5183.124
1253.810, 5189.524
1254.292, 5189.425
1254.775, 5180.540
1255.257, 5178.601
1255.739, 5191.977
1256.221, 5207.621
1256.703, 5211.909
1257.185, 5210.421
1257.667, 5206.452
1258.149, 5204.670
1258.631, 5218.969
1259.114, 5238.010
1259.596, 5235.210
1260.078, 5209.694
1260.560, 5188.114
1261.042, 5176.193
1261.524, 5179.190
1262.006, 5215.744
1262.488, 5245.564
1262.971, 5250.962
1263.453, 5243.617
1263.935, 5224.054
1264.417, 5203.904
1264.899, 5208.020
1265.381, 5236.639
1265.863, 5244.895
1266.345, 5226.204
1266.828, 5224.262
1267.310, 5246.293
1267.792, 5257.175
1268.274, 5243.581
1268.756, 5225.747
1269.238, 5220.131
1269.720, 5224.409
1270.202, 5240.507
1270.684, 5260.282
1271.167, 5259.038
##END=



