##NAMES=Uranophane-beta
##RRUFFID=R060962
##IDEAL CHEMISTRY=Ca(U^6+^O_2_)_2_(SiO_3_OH)_2_&#183;5H_2_O
##LOCALITY=Teofilo Otoni, Minas Gerais, Brazil
##OWNER=RRUFF
##SOURCE=Michael Scott
##DESCRIPTION=Yellow elongated prismatic crystals in aggregates with muscovite on albite
##STATUS=The identification of this mineral has been confirmed by single-crystal X-ray diffraction.
##URL=rruff.info/R060962
123.9386, 1355.435
124.4208, 1494.950
124.9029, 1657.952
125.3850, 1842.461
125.8671, 2039.188
126.3492, 2257.392
126.8313, 2478.426
127.3135, 2689.218
127.7956, 2892.743
128.2777, 3096.335
128.7598, 3301.608
129.2419, 3510.450
129.7240, 3732.428
130.2061, 3990.570
130.6883, 4240.501
131.1704, 4469.841
131.6525, 4674.898
132.1346, 4845.312
132.6167, 4978.110
133.0988, 5077.233
133.5810, 5110.902
134.0631, 5037.537
134.5452, 4925.530
135.0273, 4790.210
135.5094, 4638.808
135.9915, 4482.542
136.4737, 4328.055
136.9558, 4165.305
137.4379, 4041.375
137.9200, 3968.452
138.4021, 3921.922
138.8842, 3885.571
139.3664, 3858.378
139.8485, 3853.125
140.3306, 3888.234
140.8127, 3971.876
141.2948, 4084.881
141.7769, 4234.159
142.2591, 4401.737
142.7412, 4575.217
143.2233, 4751.052
143.7054, 4934.103
144.1875, 5131.877
144.6696, 5356.994
145.1517, 5576.665
145.6339, 5794.244
146.1160, 6004.591
146.5981, 6203.839
147.0802, 6390.778
147.5623, 6566.062
148.0444, 6733.030
148.5266, 6908.758
149.0087, 7046.303
149.4908, 7138.174
149.9729, 7196.887
150.4550, 7234.020
150.9371, 7254.179
151.4193, 7254.452
151.9014, 7227.536
152.3835, 7151.810
152.8656, 7077.827
153.3477, 7012.494
153.8298, 6948.829
154.3120, 6877.994
154.7941, 6796.493
155.2762, 6707.761
155.7583, 6620.278
156.2404, 6524.451
156.7225, 6443.169
157.2047, 6381.588
157.6868, 6336.237
158.1689, 6302.072
158.6510, 6277.058
159.1331, 6262.145
159.6152, 6262.067
160.0974, 6278.199
160.5795, 6302.416
161.0616, 6329.585
161.5437, 6363.701
162.0258, 6415.074
162.5079, 6491.170
162.9901, 6580.472
163.4722, 6655.019
163.9543, 6708.901
164.4364, 6762.491
164.9185, 6822.482
165.4007, 6886.875
165.8828, 6951.567
166.3649, 7017.061
166.8470, 7079.155
167.3291, 7128.748
167.8112, 7161.331
168.2933, 7193.270
168.7755, 7237.891
169.2576, 7288.232
169.7397, 7321.786
170.2218, 7324.447
170.7039, 7312.054
171.1860, 7318.507
171.6682, 7352.372
172.1503, 7382.879
172.6324, 7393.202
173.1145, 7387.358
173.5966, 7379.657
174.0787, 7374.231
174.5609, 7371.059
175.0430, 7371.413
175.5251, 7379.382
176.0072, 7380.220
176.4893, 7363.453
176.9714, 7331.703
177.4536, 7294.920
177.9357, 7251.021
178.4178, 7209.457
178.8999, 7185.728
179.3820, 7185.402
179.8641, 7184.102
180.3463, 7165.731
180.8284, 7132.542
181.3105, 7097.212
181.7926, 7061.777
182.2747, 7028.052
182.7568, 6997.227
183.2390, 6968.667
183.7211, 6944.674
184.2032, 6932.936
184.6853, 6930.250
185.1674, 6913.208
185.6495, 6862.731
186.1317, 6806.464
186.6138, 6778.599
187.0959, 6783.216
187.5780, 6794.739
188.0601, 6799.769
188.5422, 6798.166
189.0244, 6788.847
189.5065, 6771.633
189.9886, 6745.332
190.4707, 6707.980
190.9528, 6658.302
191.4349, 6610.177
191.9170, 6577.130
192.3992, 6556.586
192.8813, 6526.944
193.3634, 6471.828
193.8455, 6418.978
194.3276, 6397.840
194.8097, 6409.946
195.2919, 6422.838
195.7740, 6413.450
196.2561, 6384.668
196.7382, 6355.156
197.2203, 6324.667
197.7024, 6299.415
198.1846, 6285.352
198.6667, 6282.221
199.1488, 6280.701
199.6309, 6259.486
200.1130, 6227.728
200.5951, 6251.376
201.0773, 6394.272
201.5594, 6526.910
202.0415, 6533.983
202.5236, 6426.469
203.0057, 6312.792
203.4878, 6258.295
203.9700, 6253.876
204.4521, 6255.135
204.9342, 6258.479
205.4163, 6264.948
205.8984, 6277.035
206.3805, 6293.357
206.8627, 6306.850
207.3448, 6313.133
207.8269, 6313.212
208.3090, 6309.679
208.7911, 6298.341
209.2732, 6290.692
209.7554, 6298.414
210.2375, 6316.980
210.7196, 6331.365
211.2017, 6326.941
211.6838, 6311.953
212.1659, 6312.201
212.6480, 6333.204
213.1302, 6361.351
213.6123, 6387.654
214.0944, 6413.504
214.5765, 6442.108
215.0586, 6475.409
215.5407, 6512.538
216.0229, 6553.219
216.5050, 6600.022
216.9871, 6643.893
217.4692, 6669.988
217.9513, 6689.697
218.4334, 6725.081
218.9156, 6789.876
219.3977, 6873.108
219.8798, 6957.636
220.3619, 7045.428
220.8440, 7127.906
221.3261, 7195.436
221.8083, 7255.876
222.2904, 7320.048
222.7725, 7393.438
223.2546, 7470.566
223.7367, 7541.987
224.2188, 7606.582
224.7010, 7674.076
225.1831, 7753.578
225.6652, 7837.510
226.1473, 7915.364
226.6294, 7983.865
227.1115, 8047.661
227.5937, 8110.575
228.0758, 8172.337
228.5579, 8235.399
229.0400, 8307.372
229.5221, 8377.093
230.0042, 8427.674
230.4864, 8450.556
230.9685, 8469.782
231.4506, 8510.698
231.9327, 8571.544
232.4148, 8621.603
232.8969, 8644.187
233.3791, 8654.500
233.8612, 8675.535
234.3433, 8712.099
234.8254, 8742.354
235.3075, 8750.021
235.7896, 8737.797
236.2717, 8720.438
236.7539, 8702.355
237.2360, 8679.434
237.7181, 8647.843
238.2002, 8608.006
238.6823, 8560.438
239.1644, 8503.152
239.6466, 8438.228
240.1287, 8369.359
240.6108, 8291.673
241.0929, 8221.277
241.5750, 8180.756
242.0571, 8167.835
242.5393, 8153.854
243.0214, 8127.677
243.5035, 8094.180
243.9856, 8060.111
244.4677, 8025.306
244.9498, 7994.823
245.4320, 7976.739
245.9141, 7969.011
246.3962, 7959.786
246.8783, 7936.297
247.3604, 7915.147
247.8425, 7917.275
248.3247, 7944.982
248.8068, 7983.958
249.2889, 8025.277
249.7710, 8069.000
250.2531, 8115.513
250.7352, 8162.803
251.2174, 8214.295
251.6995, 8273.817
252.1816, 8340.641
252.6637, 8408.970
253.1458, 8472.794
253.6279, 8535.419
254.1101, 8610.227
254.5922, 8705.745
255.0743, 8804.250
255.5564, 8887.133
256.0385, 8963.556
256.5206, 9064.682
257.0027, 9208.895
257.4849, 9384.908
257.9670, 9556.508
258.4491, 9720.632
258.9312, 9885.725
259.4133, 10056.84
259.8954, 10230.57
260.3776, 10399.47
260.8597, 10561.55
261.3418, 10718.60
261.8239, 10878.18
262.3060, 11049.47
262.7881, 11203.16
263.2703, 11325.97
263.7524, 11433.54
264.2345, 11547.17
264.7166, 11671.69
265.1987, 11787.87
265.6808, 11866.58
266.1630, 11881.84
266.6451, 11932.26
267.1272, 12046.87
267.6093, 12174.23
268.0914, 12279.95
268.5735, 12360.46
269.0557, 12428.75
269.5378, 12496.78
270.0199, 12564.68
270.5020, 12633.43
270.9841, 12713.75
271.4662, 12784.69
271.9484, 12842.23
272.4305, 12883.53
272.9126, 12903.12
273.3947, 12896.69
273.8768, 12865.16
274.3589, 12820.05
274.8411, 12757.78
275.3232, 12685.10
275.8053, 12604.86
276.2874, 12514.22
276.7695, 12409.27
277.2516, 12287.76
277.7338, 12150.08
278.2159, 11999.10
278.6980, 11838.05
279.1801, 11655.72
279.6622, 11428.75
280.1443, 11194.02
280.6265, 10987.08
281.1086, 10818.44
281.5907, 10670.76
282.0728, 10518.02
282.5549, 10355.80
283.0370, 10201.00
283.5192, 10044.50
284.0013, 9903.551
284.4834, 9791.117
284.9655, 9706.906
285.4476, 9636.835
285.9297, 9569.541
286.4119, 9505.061
286.8940, 9441.570
287.3761, 9372.333
287.8582, 9311.927
288.3403, 9265.730
288.8224, 9233.151
289.3046, 9210.712
289.7867, 9193.570
290.2688, 9185.300
290.7509, 9202.724
291.2330, 9258.930
291.7151, 9315.494
292.1972, 9355.118
292.6794, 9384.051
293.1615, 9408.191
293.6436, 9422.660
294.1257, 9443.288
294.6078, 9495.688
295.0899, 9582.750
295.5721, 9678.358
296.0542, 9774.957
296.5363, 9873.397
297.0184, 9973.543
297.5005, 10076.41
297.9826, 10178.42
298.4648, 10271.28
298.9469, 10358.76
299.4290, 10464.50
299.9111, 10601.96
300.3932, 10749.80
300.8753, 10880.72
301.3575, 10993.94
301.8396, 11107.15
302.3217, 11226.38
302.8038, 11348.77
303.2859, 11473.10
303.7680, 11600.36
304.2502, 11719.44
304.7323, 11822.54
305.2144, 11908.62
305.6965, 11972.24
306.1786, 12008.45
306.6607, 12026.01
307.1429, 12029.49
307.6250, 12019.71
308.1071, 11999.77
308.5892, 11974.05
309.0713, 11939.51
309.5534, 11873.70
310.0356, 11781.02
310.5177, 11659.51
310.9998, 11496.87
311.4819, 11306.83
311.9640, 11108.86
312.4461, 10908.70
312.9283, 10710.52
313.4104, 10521.92
313.8925, 10354.38
314.3746, 10180.95
314.8567, 9992.676
315.3388, 9803.729
315.8210, 9623.611
316.3031, 9454.982
316.7852, 9297.523
317.2673, 9151.340
317.7494, 9016.405
318.2315, 8890.747
318.7137, 8770.690
319.1958, 8662.986
319.6779, 8573.247
320.1600, 8498.604
320.6421, 8430.457
321.1242, 8360.650
321.6064, 8292.985
322.0885, 8256.714
322.5706, 8282.763
323.0527, 8293.958
323.5348, 8249.283
324.0169, 8188.050
324.4991, 8159.801
324.9812, 8185.913
325.4633, 8237.325
325.9454, 8270.977
326.4275, 8284.784
326.9096, 8290.104
327.3918, 8275.863
327.8739, 8263.720
328.3560, 8271.496
328.8381, 8300.595
329.3202, 8334.454
329.8023, 8366.333
330.2845, 8394.049
330.7666, 8406.045
331.2487, 8395.141
331.7308, 8379.744
332.2129, 8374.489
332.6950, 8377.169
333.1772, 8381.270
333.6593, 8390.836
334.1414, 8397.584
334.6235, 8387.200
335.1056, 8359.671
335.5877, 8333.040
336.0698, 8302.627
336.5519, 8288.141
337.0341, 8348.700
337.5162, 8589.745
337.9983, 8766.884
338.4804, 8730.028
338.9625, 8556.726
339.4446, 8398.907
339.9268, 8308.770
340.4089, 8265.332
340.8910, 8235.065
341.3731, 8223.436
341.8552, 8214.019
342.3373, 8205.968
342.8195, 8200.059
343.3016, 8199.176
343.7837, 8202.236
344.2658, 8203.906
344.7479, 8200.564
345.2300, 8192.979
345.7122, 8166.759
346.1943, 8100.288
346.6764, 8039.203
347.1585, 8000.258
347.6406, 7975.800
348.1227, 7954.065
348.6049, 7929.663
349.0870, 7899.363
349.5691, 7851.522
350.0512, 7772.458
350.5333, 7703.638
351.0154, 7658.115
351.4976, 7619.307
351.9797, 7573.369
352.4618, 7518.272
352.9439, 7463.749
353.4260, 7422.584
353.9081, 7394.579
354.3903, 7360.528
354.8724, 7317.523
355.3545, 7269.847
355.8366, 7217.107
356.3187, 7162.122
356.8008, 7112.471
357.2830, 7078.029
357.7651, 7047.902
358.2472, 7000.035
358.7293, 6932.223
359.2114, 6870.050
359.6935, 6824.852
360.1757, 6795.093
360.6578, 6776.017
361.1399, 6773.128
361.6220, 6769.992
362.1041, 6756.685
362.5862, 6736.884
363.0684, 6716.963
363.5505, 6697.895
364.0326, 6683.830
364.5147, 6680.908
364.9968, 6691.106
365.4789, 6705.846
365.9611, 6731.347
366.4432, 6756.153
366.9253, 6767.896
367.4074, 6769.249
367.8895, 6774.608
368.3716, 6794.561
368.8538, 6828.290
369.3359, 6866.236
369.8180, 6909.698
370.3001, 6955.870
370.7822, 7005.208
371.2643, 7056.603
371.7465, 7109.245
372.2286, 7162.668
372.7107, 7217.155
373.1928, 7273.323
373.6749, 7332.062
374.1570, 7390.359
374.6392, 7441.948
375.1213, 7498.214
375.6034, 7562.847
376.0855, 7637.115
376.5676, 7724.052
377.0497, 7834.546
377.5319, 7958.688
378.0140, 8055.343
378.4961, 8112.780
378.9782, 8173.151
379.4603, 8271.982
379.9424, 8382.101
380.4246, 8464.778
380.9066, 8497.844
381.3888, 8533.731
381.8709, 8625.759
382.3530, 8761.066
382.8351, 8884.129
383.3172, 8980.778
383.7993, 9057.607
384.2815, 9114.097
384.7636, 9147.118
385.2457, 9199.540
385.7278, 9299.502
386.2099, 9408.327
386.6920, 9489.117
387.1742, 9541.851
387.6563, 9590.386
388.1384, 9654.479
388.6205, 9729.414
389.1026, 9773.628
389.5847, 9759.957
390.0669, 9750.250
390.5490, 9768.146
391.0311, 9791.242
391.5132, 9790.604
391.9953, 9757.156
392.4774, 9706.443
392.9596, 9662.032
393.4417, 9627.480
393.9238, 9587.122
394.4059, 9538.438
394.8880, 9485.587
395.3701, 9434.714
395.8523, 9381.545
396.3344, 9314.517
396.8165, 9224.102
397.2986, 9116.293
397.7807, 9008.242
398.2628, 8900.916
398.7450, 8789.748
399.2271, 8669.130
399.7092, 8545.291
400.1913, 8425.288
400.6734, 8310.526
401.1555, 8199.417
401.6377, 8088.873
402.1198, 7981.776
402.6019, 7884.916
403.0840, 7801.833
403.5661, 7722.676
404.0482, 7637.652
404.5304, 7546.489
405.0125, 7460.997
405.4946, 7386.116
405.9767, 7313.631
406.4588, 7242.353
406.9409, 7169.932
407.4231, 7090.030
407.9052, 6998.344
408.3873, 6899.984
408.8694, 6808.142
409.3515, 6721.831
409.8336, 6644.688
410.3158, 6570.747
410.7979, 6509.887
411.2800, 6488.413
411.7621, 6496.191
412.2442, 6479.034
412.7263, 6374.676
413.2085, 6189.195
413.6906, 6053.433
414.1727, 5993.069
414.6548, 5944.631
415.1369, 5892.248
415.6190, 5833.772
416.1012, 5763.695
416.5833, 5676.956
417.0654, 5590.821
417.5475, 5529.687
418.0296, 5490.261
418.5117, 5439.921
418.9939, 5366.044
419.4760, 5287.682
419.9581, 5228.352
420.4402, 5185.922
420.9223, 5141.760
421.4044, 5087.534
421.8866, 5032.456
422.3687, 4982.303
422.8508, 4938.437
423.3329, 4907.504
423.8150, 4897.220
424.2971, 4897.832
424.7793, 4874.014
425.2614, 4796.531
425.7435, 4732.888
426.2256, 4691.911
426.7077, 4663.821
427.1898, 4643.452
427.6719, 4627.875
428.1541, 4610.689
428.6362, 4583.777
429.1183, 4546.812
429.6004, 4519.362
430.0825, 4508.856
430.5646, 4498.528
431.0468, 4484.053
431.5289, 4466.193
432.0110, 4445.036
432.4931, 4419.667
432.9752, 4395.379
433.4573, 4380.046
433.9395, 4373.058
434.4216, 4364.005
434.9037, 4350.034
435.3858, 4334.383
435.8679, 4319.601
436.3500, 4305.705
436.8322, 4293.689
437.3143, 4286.697
437.7964, 4279.570
438.2785, 4265.921
438.7606, 4247.232
439.2427, 4230.574
439.7249, 4219.464
440.2070, 4213.199
440.6891, 4209.830
441.1712, 4210.727
441.6533, 4212.643
442.1354, 4219.583
442.6176, 4224.597
443.0997, 4218.861
443.5818, 4203.967
444.0639, 4191.488
444.5460, 4192.556
445.0281, 4205.571
445.5103, 4212.939
445.9924, 4210.071
446.4745, 4208.882
446.9566, 4209.883
447.4387, 4215.496
447.9208, 4232.249
448.4030, 4263.040
448.8851, 4289.131
449.3672, 4285.836
449.8493, 4260.764
450.3314, 4251.896
450.8135, 4269.022
451.2957, 4290.303
451.7778, 4294.999
452.2599, 4286.782
452.7420, 4286.583
453.2241, 4302.152
453.7062, 4320.727
454.1884, 4335.452
454.6705, 4347.702
455.1526, 4360.660
455.6347, 4375.499
456.1168, 4391.868
456.5989, 4409.108
457.0811, 4426.824
457.5632, 4446.683
458.0453, 4472.477
458.5274, 4496.287
459.0095, 4510.663
459.4916, 4519.813
459.9738, 4534.045
460.4559, 4559.871
460.9380, 4593.066
461.4201, 4622.937
461.9022, 4648.050
462.3843, 4676.242
462.8665, 4712.226
463.3486, 4749.990
463.8307, 4780.327
464.3128, 4803.927
464.7949, 4840.174
465.2770, 4906.924
465.7592, 4987.771
466.2413, 5061.616
466.7234, 5127.205
467.2055, 5183.258
467.6876, 5226.016
468.1697, 5261.145
468.6519, 5308.766
469.1340, 5378.021
469.6161, 5443.804
470.0982, 5501.020
470.5803, 5554.443
471.0624, 5611.444
471.5445, 5671.309
472.0266, 5724.662
472.5088, 5763.040
472.9909, 5787.205
473.4730, 5807.327
473.9551, 5820.958
474.4372, 5834.248
474.9193, 5850.884
475.4015, 5866.968
475.8836, 5880.832
476.3657, 5892.223
476.8478, 5893.178
477.3299, 5875.584
477.8120, 5841.788
478.2942, 5800.647
478.7763, 5753.438
479.2584, 5697.537
479.7405, 5630.832
480.2226, 5552.932
480.7047, 5467.354
481.1869, 5365.060
481.6690, 5265.992
482.1511, 5177.401
482.6332, 5097.195
483.1153, 5023.220
483.5974, 4954.919
484.0796, 4889.889
484.5617, 4826.118
485.0438, 4763.638
485.5259, 4700.754
486.0080, 4627.495
486.4901, 4565.054
486.9723, 4521.776
487.4544, 4491.999
487.9365, 4469.910
488.4186, 4454.190
488.9007, 4437.624
489.3828, 4406.685
489.8650, 4363.344
490.3471, 4336.865
490.8292, 4339.861
491.3113, 4343.078
491.7934, 4316.127
492.2755, 4268.150
492.7577, 4230.878
493.2398, 4215.354
493.7219, 4205.117
494.2040, 4192.039
494.6861, 4176.905
495.1682, 4159.145
495.6504, 4138.509
496.1325, 4123.093
496.6146, 4125.546
497.0967, 4151.848
497.5788, 4169.467
498.0609, 4163.519
498.5431, 4165.305
499.0252, 4193.993
499.5073, 4235.629
499.9894, 4266.479
500.4715, 4276.140
500.9536, 4277.756
501.4358, 4288.377
501.9179, 4307.960
502.4000, 4331.637
502.8821, 4359.877
503.3642, 4390.169
503.8463, 4418.013
504.3285, 4445.735
504.8106, 4483.235
505.2927, 4547.544
505.7748, 4607.526
506.2569, 4637.721
506.7390, 4648.701
507.2212, 4667.584
507.7033, 4703.653
508.1854, 4734.770
508.6675, 4729.097
509.1496, 4677.773
509.6317, 4630.708
510.1139, 4588.716
510.5960, 4550.025
511.0781, 4511.688
511.5602, 4476.820
512.0423, 4450.792
512.5244, 4436.014
513.0065, 4427.052
513.4886, 4414.766
513.9708, 4399.796
514.4529, 4398.735
514.9350, 4421.168
515.4171, 4442.977
515.8992, 4434.494
516.3813, 4407.935
516.8635, 4405.648
517.3456, 4457.728
517.8277, 4509.670
518.3098, 4532.771
518.7919, 4536.358
519.2740, 4531.223
519.7562, 4521.414
520.2383, 4520.373
520.7204, 4546.421
521.2025, 4603.224
521.6846, 4649.120
522.1667, 4670.426
522.6489, 4695.172
523.1310, 4730.508
523.6131, 4772.614
524.0952, 4815.102
524.5773, 4855.818
525.0594, 4903.488
525.5416, 4970.325
526.0237, 5052.320
526.5058, 5130.064
526.9879, 5200.998
527.4700, 5271.826
527.9521, 5343.396
528.4343, 5419.447
528.9164, 5513.546
529.3985, 5643.915
529.8806, 5767.186
530.3627, 5853.777
530.8448, 5934.268
531.3270, 6049.000
531.8091, 6200.522
532.2912, 6357.600
532.7733, 6491.326
533.2554, 6604.355
533.7375, 6728.704
534.2197, 6876.278
534.7018, 7013.744
535.1839, 7125.958
535.6660, 7229.430
536.1481, 7343.245
536.6302, 7468.098
537.1124, 7579.202
537.5945, 7656.099
538.0766, 7709.988
538.5587, 7768.292
539.0408, 7830.618
539.5229, 7855.756
540.0051, 7816.989
540.4872, 7732.584
540.9693, 7647.977
541.4514, 7570.316
541.9335, 7478.776
542.4156, 7371.376
542.8978, 7251.627
543.3799, 7115.233
543.8620, 6968.339
544.3441, 6823.562
544.8262, 6689.170
545.3083, 6561.661
545.7905, 6435.749
546.2726, 6313.386
546.7547, 6179.473
547.2368, 6020.614
547.7189, 5860.502
548.2010, 5715.903
548.6832, 5586.372
549.1653, 5467.634
549.6474, 5363.814
550.1295, 5264.928
550.6116, 5161.323
551.0938, 5056.727
551.5759, 4959.227
552.0580, 4872.083
552.5401, 4790.289
553.0222, 4708.294
553.5043, 4624.746
553.9865, 4547.901
554.4686, 4483.420
554.9507, 4419.729
555.4328, 4355.194
555.9149, 4289.525
556.3970, 4220.305
556.8792, 4146.643
557.3613, 4080.015
557.8434, 4040.038
558.3255, 4016.142
558.8076, 3969.208
559.2897, 3892.754
559.7719, 3820.188
560.2540, 3771.933
560.7361, 3743.756
561.2182, 3720.071
561.7003, 3713.575
562.1824, 3690.447
562.6646, 3629.777
563.1467, 3561.745
563.6288, 3509.939
564.1109, 3475.702
564.5930, 3450.609
565.0751, 3430.856
565.5573, 3411.941
566.0394, 3377.746
566.5215, 3322.490
567.0036, 3279.761
567.4857, 3266.800
567.9678, 3258.458
568.4500, 3227.843
568.9321, 3179.459
569.4142, 3144.470
569.8963, 3142.673
570.3784, 3147.041
570.8605, 3138.005
571.3427, 3119.773
571.8248, 3102.831
572.3069, 3090.581
572.7890, 3078.611
573.2711, 3060.785
573.7532, 3036.260
574.2354, 3014.345
574.7175, 2995.815
575.1996, 2979.249
575.6817, 2964.470
576.1638, 2951.438
576.6459, 2939.778
577.1281, 2929.442
577.6102, 2921.578
578.0923, 2919.447
578.5744, 2919.781
579.0565, 2916.244
579.5386, 2908.375
580.0208, 2895.586
580.5029, 2874.926
580.9850, 2852.284
581.4671, 2843.709
581.9492, 2864.713
582.4313, 2873.910
582.9134, 2867.467
583.3955, 2852.744
583.8776, 2828.742
584.3597, 2800.592
584.8419, 2778.760
585.3240, 2768.825
585.8061, 2765.531
586.2882, 2761.200
586.7703, 2755.884
587.2524, 2750.066
587.7346, 2742.416
588.2167, 2738.031
588.6988, 2745.245
589.1809, 2760.729
589.6630, 2764.084
590.1451, 2742.686
590.6273, 2723.926
591.1094, 2715.693
591.5915, 2715.241
592.0736, 2723.570
592.5557, 2738.090
593.0378, 2748.098
593.5200, 2744.434
594.0021, 2729.325
594.4842, 2711.005
594.9663, 2686.893
595.4484, 2668.797
595.9305, 2662.126
596.4127, 2660.894
596.8948, 2658.224
597.3769, 2654.531
597.8590, 2656.380
598.3411, 2672.398
598.8232, 2688.396
599.3054, 2693.564
599.7875, 2690.786
600.2696, 2686.030
600.7517, 2681.406
601.2338, 2677.885
601.7159, 2677.177
602.1981, 2679.597
602.6802, 2679.408
603.1623, 2674.565
603.6444, 2670.237
604.1265, 2668.529
604.6086, 2667.864
605.0908, 2665.203
605.5729, 2659.901
606.0550, 2659.596
606.5371, 2676.035
607.0192, 2695.286
607.5013, 2695.342
607.9835, 2679.493
608.4656, 2670.704
608.9477, 2680.752
609.4298, 2698.309
609.9119, 2701.257
610.3940, 2682.265
610.8762, 2671.801
611.3583, 2679.342
611.8404, 2685.515
612.3225, 2684.146
612.8046, 2676.879
613.2867, 2663.382
613.7689, 2641.605
614.2510, 2628.877
614.7331, 2651.520
615.2152, 2690.385
615.6973, 2699.706
616.1794, 2676.465
616.6616, 2657.526
617.1437, 2666.364
617.6258, 2692.504
618.1079, 2706.436
618.5900, 2700.255
619.0721, 2695.258
619.5543, 2691.445
620.0364, 2688.723
620.5185, 2686.342
621.0006, 2685.076
621.4827, 2687.212
621.9648, 2694.570
622.4470, 2701.890
622.9291, 2701.344
623.4112, 2695.832
623.8933, 2698.159
624.3754, 2711.057
624.8575, 2718.186
625.3397, 2704.467
625.8218, 2677.097
626.3039, 2668.201
626.7860, 2695.512
627.2681, 2717.457
627.7502, 2733.323
628.2324, 2743.249
628.7145, 2745.809
629.1966, 2742.625
629.6787, 2737.048
630.1608, 2729.653
630.6429, 2723.769
631.1251, 2726.112
631.6072, 2734.776
632.0893, 2737.911
632.5714, 2732.300
633.0535, 2727.720
633.5356, 2733.308
634.0178, 2747.025
634.4999, 2753.539
634.9820, 2747.569
635.4641, 2741.981
635.9462, 2738.929
636.4283, 2735.953
636.9105, 2729.245
637.3926, 2720.544
637.8747, 2715.878
638.3568, 2718.781
638.8389, 2727.199
639.3210, 2741.447
639.8032, 2759.839
640.2853, 2769.507
640.7674, 2766.829
641.2495, 2759.772
641.7316, 2754.712
642.2137, 2751.418
642.6959, 2747.360
643.1780, 2739.901
643.6601, 2735.340
644.1422, 2734.914
644.6243, 2737.452
645.1064, 2743.975
645.5886, 2752.865
646.0707, 2759.271
646.5528, 2759.633
647.0349, 2757.323
647.5170, 2756.975
647.9991, 2758.520
648.4813, 2762.183
648.9634, 2768.789
649.4455, 2773.500
649.9276, 2771.470
650.4097, 2763.386
650.8918, 2756.981
651.3740, 2755.580
651.8561, 2751.163
652.3382, 2735.643
652.8203, 2722.332
653.3024, 2724.242
653.7845, 2738.624
654.2667, 2752.391
654.7488, 2758.844
655.2309, 2760.115
655.7130, 2757.807
656.1951, 2752.570
656.6772, 2745.948
657.1594, 2737.576
657.6415, 2734.643
658.1236, 2745.014
658.6057, 2766.354
659.0878, 2780.207
659.5699, 2783.017
660.0521, 2782.823
660.5342, 2775.261
661.0163, 2769.013
661.4984, 2774.621
661.9805, 2787.258
662.4626, 2789.840
662.9448, 2769.307
663.4269, 2745.524
663.9090, 2741.053
664.3911, 2750.812
664.8732, 2760.533
665.3553, 2767.667
665.8375, 2772.271
666.3196, 2774.083
666.8017, 2773.607
667.2838, 2773.102
667.7659, 2770.481
668.2480, 2771.634
668.7302, 2783.990
669.2123, 2793.384
669.6944, 2786.521
670.1765, 2770.384
670.6586, 2763.838
671.1407, 2776.287
671.6229, 2793.280
672.1050, 2804.394
672.5870, 2811.637
673.0692, 2817.711
673.5513, 2823.322
674.0334, 2830.223
674.5155, 2839.811
674.9976, 2850.911
675.4797, 2859.599
675.9619, 2863.552
676.4440, 2872.290
676.9261, 2895.889
677.4082, 2913.391
677.8903, 2906.743
678.3724, 2888.489
678.8546, 2884.254
679.3367, 2903.952
679.8188, 2923.673
680.3009, 2930.832
680.7830, 2931.888
681.2651, 2933.841
681.7473, 2936.746
682.2294, 2937.292
682.7115, 2933.620
683.1936, 2928.304
683.6757, 2925.251
684.1578, 2924.270
684.6400, 2927.391
685.1221, 2934.085
685.6042, 2946.405
686.0863, 2971.243
686.5684, 3000.042
687.0505, 3016.120
687.5327, 3014.956
688.0148, 3017.111
688.4969, 3031.989
688.9790, 3047.336
689.4611, 3053.566
689.9432, 3054.035
690.4254, 3055.261
690.9075, 3059.758
691.3896, 3068.137
691.8717, 3082.012
692.3538, 3100.575
692.8359, 3120.969
693.3181, 3143.696
693.8002, 3163.652
694.2823, 3179.160
694.7644, 3190.442
695.2465, 3196.823
695.7286, 3196.183
696.2108, 3201.166
696.6929, 3212.333
697.1750, 3228.211
697.6571, 3250.483
698.1392, 3275.907
698.6213, 3301.966
699.1035, 3327.769
699.5856, 3352.217
700.0677, 3377.989
700.5498, 3399.686
701.0319, 3403.589
701.5140, 3394.701
701.9962, 3398.979
702.4783, 3424.655
702.9604, 3448.704
703.4425, 3444.853
703.9246, 3416.165
704.4067, 3411.869
704.8889, 3450.045
705.3710, 3480.875
705.8531, 3487.572
706.3352, 3492.278
706.8173, 3511.247
707.2994, 3541.706
707.7816, 3570.015
708.2637, 3591.157
708.7458, 3610.189
709.2279, 3633.552
709.7100, 3654.949
710.1921, 3658.603
710.6743, 3648.032
711.1564, 3650.599
711.6385, 3686.354
712.1206, 3738.141
712.6027, 3763.001
713.0848, 3757.660
713.5670, 3765.105
714.0491, 3795.543
714.5312, 3825.974
715.0133, 3840.714
715.4954, 3845.691
715.9775, 3857.104
716.4597, 3876.285
716.9418, 3898.287
717.4239, 3925.989
717.9060, 3952.760
718.3881, 3974.881
718.8702, 3992.799
719.3524, 4006.487
719.8345, 4016.035
720.3166, 4026.572
720.7987, 4042.942
721.2808, 4064.034
721.7629, 4089.352
722.2451, 4118.144
722.7272, 4142.666
723.2093, 4159.297
723.6914, 4173.165
724.1735, 4192.367
724.6556, 4218.137
725.1378, 4234.135
725.6199, 4221.325
726.1020, 4226.801
726.5841, 4275.763
727.0662, 4335.129
727.5483, 4377.687
728.0305, 4402.465
728.5126, 4421.948
728.9947, 4434.114
729.4768, 4449.430
729.9589, 4478.844
730.4410, 4514.354
730.9232, 4543.766
731.4053, 4565.568
731.8874, 4584.006
732.3695, 4600.240
732.8516, 4620.510
733.3337, 4664.235
733.8159, 4732.969
734.2980, 4794.037
734.7801, 4841.215
735.2622, 4885.225
735.7443, 4934.702
736.2264, 4986.553
736.7086, 5028.276
737.1907, 5051.325
737.6728, 5081.734
738.1549, 5120.292
738.6370, 5167.336
739.1191, 5230.733
739.6013, 5300.362
740.0834, 5357.855
740.5655, 5397.439
741.0476, 5437.700
741.5297, 5500.304
742.0118, 5568.375
742.4940, 5606.531
742.9761, 5623.884
743.4582, 5665.306
743.9403, 5747.640
744.4224, 5846.978
744.9045, 5936.767
745.3867, 6017.031
745.8688, 6087.047
746.3509, 6140.153
746.8330, 6200.837
747.3151, 6276.990
747.7972, 6361.463
748.2794, 6449.109
748.7615, 6539.847
749.2436, 6632.503
749.7257, 6722.201
750.2078, 6820.520
750.6899, 6942.189
751.1721, 7065.886
751.6542, 7161.126
752.1363, 7238.087
752.6184, 7337.765
753.1005, 7484.875
753.5826, 7642.625
754.0648, 7754.758
754.5469, 7841.777
755.0290, 7966.436
755.5111, 8133.863
755.9932, 8318.555
756.4753, 8512.481
756.9575, 8701.850
757.4396, 8852.876
757.9217, 8948.531
758.4038, 9101.751
758.8859, 9341.235
759.3680, 9595.288
759.8502, 9854.927
760.3323, 10108.29
760.8144, 10335.40
761.2965, 10536.31
761.7786, 10762.25
762.2607, 11024.83
762.7428, 11315.90
763.2249, 11649.27
763.7070, 11999.85
764.1891, 12330.15
764.6713, 12642.44
765.1534, 12976.31
765.6355, 13364.81
766.1176, 13777.28
766.5997, 14170.87
767.0818, 14545.83
767.5640, 14904.02
768.0461, 15245.08
768.5282, 15600.10
769.0103, 15991.52
769.4924, 16406.28
769.9745, 16819.33
770.4567, 17236.67
770.9388, 17627.76
771.4209, 17975.77
771.9030, 18316.94
772.3851, 18666.39
772.8672, 19017.46
773.3494, 19358.32
773.8315, 19685.71
774.3136, 20026.15
774.7957, 20395.55
775.2778, 20769.95
775.7599, 21119.89
776.2421, 21476.73
776.7242, 21873.63
777.2063, 22321.88
777.6884, 22826.53
778.1705, 23397.32
778.6526, 24023.04
779.1348, 24681.80
779.6169, 25381.81
780.0990, 26168.66
780.5811, 27045.28
781.0632, 28008.96
781.5453, 29049.03
782.0275, 30170.12
782.5096, 31392.93
782.9917, 32710.19
783.4738, 34141.35
783.9559, 35699.81
784.4380, 37345.70
784.9202, 39057.09
785.4023, 40845.72
785.8844, 42732.92
786.3665, 44714.31
786.8486, 46800.85
787.3307, 49071.06
787.8129, 51358.40
788.2950, 53593.04
788.7771, 55792.41
789.2592, 58007.03
789.7413, 60215.44
790.2234, 62357.03
790.7056, 64397.36
791.1877, 66307.22
791.6698, 68138.95
792.1519, 69782.31
792.6340, 70928.50
793.1161, 71554.87
793.5983, 71930.62
794.0804, 72245.20
794.5625, 72334.43
795.0446, 71792.30
795.5267, 70553.02
796.0089, 69261.76
796.4910, 68031.22
796.9731, 66502.36
797.4552, 64474.63
797.9373, 62097.96
798.4194, 59586.07
798.9016, 56927.11
799.3837, 54229.24
799.8658, 51419.02
800.3479, 48661.76
800.8300, 45973.64
801.3121, 43381.32
801.7943, 40879.45
802.2764, 38488.77
802.7585, 36214.94
803.2406, 34076.78
803.7227, 32066.57
804.2048, 30185.62
804.6870, 28431.45
805.1691, 26780.65
805.6512, 25239.16
806.1333, 23816.72
806.6154, 22518.99
807.0975, 21315.85
807.5797, 20167.36
808.0618, 19076.79
808.5439, 18109.66
809.0260, 17269.47
809.5081, 16492.07
809.9902, 15764.21
810.4724, 15068.73
810.9545, 14390.50
811.4366, 13728.53
811.9187, 13141.45
812.4008, 12661.75
812.8829, 12191.58
813.3651, 11685.93
813.8472, 11214.65
814.3293, 10839.08
814.8114, 10532.07
815.2935, 10214.51
815.7756, 9866.529
816.2578, 9534.690
816.7399, 9233.163
817.2220, 8952.637
817.7041, 8685.164
818.1862, 8434.597
818.6683, 8212.229
819.1505, 8019.734
819.6326, 7836.550
820.1147, 7640.877
820.5968, 7449.947
821.0789, 7287.806
821.5610, 7150.069
822.0432, 7014.173
822.5253, 6879.312
823.0074, 6793.039
823.4895, 6806.391
823.9716, 6855.793
824.4537, 6761.003
824.9359, 6516.287
825.4180, 6316.917
825.9001, 6185.453
826.3822, 6083.345
826.8643, 5993.804
827.3464, 5916.433
827.8286, 5852.920
828.3107, 5807.383
828.7928, 5755.974
829.2749, 5687.202
829.7570, 5628.060
830.2391, 5596.698
830.7213, 5568.915
831.2034, 5522.426
831.6855, 5459.169
832.1676, 5395.250
832.6497, 5322.798
833.1318, 5267.379
833.6140, 5248.049
834.0961, 5242.570
834.5782, 5239.848
835.0603, 5232.667
835.5424, 5207.207
836.0245, 5157.636
836.5067, 5107.668
836.9888, 5080.646
837.4709, 5064.136
837.9530, 5038.518
838.4351, 5005.783
838.9172, 4977.289
839.3994, 4955.222
839.8815, 4923.224
840.3636, 4862.088
840.8457, 4786.500
841.3278, 4744.262
841.8099, 4735.891
842.2921, 4722.987
842.7742, 4700.565
843.2563, 4669.813
843.7384, 4627.477
844.2205, 4582.800
844.7026, 4557.170
845.1848, 4557.271
845.6669, 4549.924
846.1490, 4531.021
846.6311, 4510.737
847.1132, 4493.162
847.5953, 4474.682
848.0775, 4451.483
848.5596, 4423.816
849.0417, 4395.486
849.5238, 4362.866
850.0059, 4334.964
850.4880, 4318.347
850.9702, 4303.700
851.4523, 4285.947
851.9343, 4263.745
852.4164, 4235.315
852.8986, 4199.592
853.3807, 4162.703
853.8628, 4129.144
854.3449, 4096.262
854.8270, 4061.401
855.3091, 4024.670
855.7913, 3984.130
856.2734, 3940.550
856.7555, 3903.443
857.2376, 3881.998
857.7197, 3868.029
858.2018, 3845.814
858.6840, 3817.190
859.1661, 3790.504
859.6482, 3766.828
860.1303, 3743.568
860.6124, 3719.345
861.0945, 3695.204
861.5767, 3672.508
862.0588, 3651.183
862.5409, 3634.668
863.0230, 3625.681
863.5051, 3610.552
863.9872, 3581.603
864.4694, 3551.677
864.9515, 3535.189
865.4336, 3529.456
865.9157, 3512.388
866.3978, 3469.558
866.8799, 3438.858
867.3621, 3429.575
867.8442, 3423.677
868.3263, 3410.348
868.8084, 3396.086
869.2905, 3392.236
869.7726, 3400.895
870.2548, 3409.976
870.7369, 3417.140
871.2190, 3423.136
871.7011, 3428.093
872.1832, 3432.228
872.6653, 3433.084
873.1475, 3433.002
873.6296, 3441.168
874.1117, 3465.148
874.5938, 3487.590
875.0759, 3487.075
875.5580, 3482.485
876.0402, 3498.277
876.5223, 3531.482
877.0044, 3570.967
877.4865, 3612.241
877.9686, 3651.670
878.4507, 3685.450
878.9329, 3715.357
879.4150, 3745.321
879.8971, 3774.619
880.3792, 3799.411
880.8613, 3819.202
881.3434, 3838.224
881.8256, 3859.432
882.3077, 3880.127
882.7898, 3895.774
883.2719, 3906.523
883.7540, 3909.245
884.2361, 3902.378
884.7183, 3897.289
885.2004, 3899.574
885.6825, 3900.750
886.1646, 3891.785
886.6467, 3873.235
887.1288, 3850.254
887.6110, 3818.043
888.0931, 3792.347
888.5752, 3776.269
889.0573, 3764.797
889.5394, 3759.062
890.0215, 3754.567
890.5037, 3742.269
890.9858, 3720.050
891.4679, 3701.008
891.9500, 3691.728
892.4321, 3678.455
892.9142, 3651.557
893.3964, 3623.229
893.8785, 3603.987
894.3606, 3593.169
894.8427, 3585.361
895.3248, 3578.979
895.8069, 3575.654
896.2891, 3577.626
896.7712, 3581.439
897.2533, 3585.050
897.7354, 3588.337
898.2175, 3588.869
898.6996, 3587.539
899.1818, 3594.834
899.6639, 3625.531
900.1460, 3657.685
900.6281, 3662.584
901.1102, 3658.330
901.5923, 3674.340
902.0745, 3710.181
902.5566, 3751.480
903.0387, 3791.392
903.5208, 3827.759
904.0029, 3855.621
904.4850, 3878.898
904.9672, 3907.998
905.4493, 3941.468
905.9314, 3970.117
906.4135, 3992.416
906.8956, 4017.824
907.3777, 4053.398
907.8599, 4097.551
908.3420, 4144.202
908.8241, 4194.042
909.3062, 4264.128
909.7883, 4357.254
910.2704, 4436.248
910.7526, 4482.180
911.2347, 4523.796
911.7168, 4598.446
912.1989, 4701.502
912.6810, 4786.747
913.1631, 4849.651
913.6453, 4911.768
914.1274, 4969.926
914.6095, 5043.750
915.0916, 5150.526
915.5737, 5275.193
916.0558, 5386.353
916.5380, 5482.297
917.0201, 5571.621
917.5022, 5643.895
917.9843, 5725.616
918.4664, 5827.219
918.9485, 5936.345
919.4307, 6041.388
919.9128, 6145.282
920.3949, 6260.286
920.8770, 6390.373
921.3591, 6524.455
921.8412, 6665.925
922.3234, 6807.467
922.8055, 6935.912
923.2876, 7069.290
923.7697, 7231.176
924.2518, 7422.176
924.7339, 7614.336
925.2161, 7786.777
925.6982, 7978.457
926.1803, 8215.246
926.6624, 8465.725
927.1445, 8697.649
927.6266, 8927.127
928.1088, 9183.727
928.5909, 9474.309
929.0730, 9806.165
929.5551, 10211.87
930.0372, 10627.75
930.5193, 10975.98
931.0015, 11322.14
931.4836, 11755.30
931.9657, 12268.56
932.4478, 12801.32
932.9299, 13327.39
933.4120, 13874.36
933.8942, 14492.21
934.3763, 15131.82
934.8584, 15720.76
935.3405, 16284.17
935.8226, 16878.51
936.3047, 17513.92
936.7869, 18144.14
937.2690, 18739.36
937.7511, 19317.38
938.2332, 19910.13
938.7153, 20495.21
939.1974, 21025.98
939.6796, 21503.77
940.1617, 21963.22
940.6438, 22412.40
941.1259, 22799.05
941.6080, 23071.74
942.0901, 23256.21
942.5722, 23415.61
943.0543, 23541.71
943.5364, 23598.78
944.0186, 23581.62
944.5007, 23475.61
944.9828, 23271.86
945.4649, 23015.47
945.9470, 22770.73
946.4291, 22524.35
946.9113, 22199.38
947.3934, 21797.52
947.8755, 21387.82
948.3576, 20982.07
948.8397, 20572.43
949.3218, 20153.83
949.8040, 19727.53
950.2861, 19291.39
950.7682, 18843.36
951.2503, 18405.90
951.7324, 17978.62
952.2145, 17554.99
952.6967, 17128.29
953.1788, 16727.19
953.6609, 16382.93
954.1430, 16076.51
954.6251, 15741.84
955.1072, 15368.91
955.5894, 15021.82
956.0715, 14708.44
956.5536, 14406.76
957.0357, 14115.21
957.5178, 13824.55
957.9999, 13519.18
958.4821, 13207.05
958.9642, 12936.02
959.4463, 12720.15
959.9284, 12511.44
960.4105, 12312.86
960.8926, 12111.50
961.3748, 11894.61
961.8569, 11679.09
962.3390, 11487.18
962.8211, 11317.81
963.3032, 11144.97
963.7853, 10960.49
964.2675, 10786.07
964.7496, 10617.67
965.2317, 10465.88
965.7138, 10353.83
966.1959, 10253.05
966.6780, 10110.43
967.1602, 9919.897
967.6423, 9755.246
968.1244, 9635.142
968.6065, 9517.169
969.0886, 9389.905
969.5707, 9268.938
970.0529, 9163.757
970.5350, 9070.734
971.0171, 8982.005
971.4992, 8897.311
971.9813, 8816.026
972.4634, 8736.565
972.9456, 8662.563
973.4277, 8600.943
973.9098, 8539.725
974.3919, 8467.277
974.8740, 8388.060
975.3561, 8315.743
975.8383, 8254.372
976.3204, 8189.386
976.8025, 8128.467
977.2846, 8049.659
977.7667, 7931.826
978.2488, 7801.848
978.7310, 7685.123
979.2131, 7578.260
979.6952, 7466.367
980.1773, 7350.406
980.6594, 7217.817
981.1415, 7041.490
981.6237, 6875.787
982.1058, 6767.603
982.5879, 6670.992
983.0700, 6532.012
983.5521, 6354.937
984.0342, 6180.226
984.5164, 6011.889
984.9985, 5861.927
985.4806, 5745.932
985.9627, 5637.727
986.4448, 5525.151
986.9269, 5408.950
987.4091, 5289.852
987.8912, 5169.413
988.3733, 5052.645
988.8554, 4938.881
989.3375, 4833.210
989.8196, 4741.630
990.3018, 4654.593
990.7839, 4566.220
991.2660, 4477.707
991.7481, 4389.377
992.2302, 4302.831
992.7123, 4227.274
993.1945, 4173.548
993.6766, 4118.945
994.1587, 4044.855
994.6408, 3974.417
995.1229, 3932.004
995.6050, 3902.610
996.0872, 3859.695
996.5693, 3800.520
997.0514, 3747.278
997.5335, 3713.824
998.0156, 3680.703
998.4977, 3634.851
998.9799, 3588.953
999.4620, 3553.136
999.9441, 3524.677
1000.426, 3499.637
1000.908, 3476.379
1001.390, 3448.430
1001.873, 3410.139
1002.355, 3370.152
1002.837, 3331.201
1003.319, 3293.737
1003.801, 3255.342
1004.283, 3219.822
1004.765, 3197.096
1005.247, 3187.859
1005.729, 3173.120
1006.212, 3137.962
1006.694, 3103.760
1007.176, 3084.226
1007.658, 3067.198
1008.140, 3040.508
1008.622, 3008.771
1009.104, 2982.477
1009.586, 2963.734
1010.069, 2946.133
1010.551, 2925.017
1011.033, 2906.972
1011.515, 2903.992
1011.997, 2897.492
1012.479, 2863.506
1012.961, 2816.331
1013.443, 2785.706
1013.925, 2777.442
1014.408, 2773.223
1014.890, 2771.250
1015.372, 2764.625
1015.854, 2745.341
1016.336, 2724.514
1016.818, 2714.264
1017.300, 2708.591
1017.782, 2694.038
1018.265, 2668.079
1018.747, 2644.502
1019.229, 2629.094
1019.711, 2616.011
1020.193, 2604.103
1020.675, 2592.513
1021.157, 2582.333
1021.639, 2571.346
1022.121, 2553.057
1022.604, 2526.278
1023.086, 2508.638
1023.568, 2512.322
1024.050, 2516.474
1024.532, 2516.286
1025.014, 2511.614
1025.496, 2497.554
1025.978, 2481.062
1026.460, 2476.769
1026.943, 2487.026
1027.425, 2487.371
1027.907, 2460.450
1028.389, 2439.196
1028.871, 2436.637
1029.353, 2438.811
1029.835, 2437.943
1030.317, 2434.824
1030.800, 2432.855
1031.282, 2432.485
1031.764, 2425.321
1032.246, 2398.406
1032.728, 2381.460
1033.210, 2392.295
1033.692, 2402.030
1034.174, 2389.324
1034.656, 2367.103
1035.139, 2356.038
1035.621, 2357.532
1036.103, 2357.731
1036.585, 2358.844
1037.067, 2353.910
1037.549, 2335.685
1038.031, 2318.507
1038.513, 2311.668
1038.995, 2308.692
1039.478, 2298.083
1039.960, 2279.853
1040.442, 2273.671
1040.924, 2287.219
1041.406, 2299.534
1041.888, 2310.163
1042.370, 2318.469
1042.852, 2328.305
1043.335, 2331.551
1043.817, 2313.317
1044.299, 2276.418
1044.781, 2258.197
1045.263, 2271.793
1045.745, 2270.606
1046.227, 2238.865
1046.709, 2220.759
1047.192, 2241.536
1047.674, 2271.865
1048.156, 2279.435
1048.638, 2267.363
1049.120, 2254.044
1049.602, 2238.799
1050.084, 2224.157
1050.566, 2207.810
1051.048, 2201.431
1051.531, 2212.230
1052.013, 2226.163
1052.495, 2230.811
1052.977, 2226.214
1053.459, 2207.223
1053.941, 2169.936
1054.423, 2165.503
1054.905, 2199.893
1055.387, 2230.346
1055.870, 2244.403
1056.352, 2244.996
1056.834, 2232.478
1057.316, 2213.780
1057.798, 2206.189
1058.280, 2208.980
1058.762, 2211.564
1059.244, 2213.579
1059.727, 2209.341
1060.209, 2197.498
1060.691, 2188.545
1061.173, 2190.087
1061.655, 2196.640
1062.137, 2199.773
1062.619, 2199.962
1063.101, 2197.052
1063.583, 2192.607
1064.066, 2197.964
1064.548, 2212.818
1065.030, 2215.039
1065.512, 2191.537
1065.994, 2166.261
1066.476, 2175.289
1066.958, 2199.375
1067.440, 2199.572
1067.922, 2183.838
1068.405, 2169.724
1068.887, 2160.104
1069.369, 2153.151
1069.851, 2148.100
1070.333, 2146.394
1070.815, 2150.450
1071.297, 2157.416
1071.779, 2170.156
1072.262, 2179.709
1072.744, 2167.498
1073.226, 2141.201
1073.708, 2122.065
1074.190, 2116.472
1074.672, 2118.450
1075.154, 2130.811
1075.636, 2140.469
1076.118, 2130.589
1076.601, 2120.953
1077.083, 2139.940
1077.565, 2168.877
1078.047, 2169.350
1078.529, 2139.226
1079.011, 2118.191
1079.493, 2122.959
1079.975, 2134.388
1080.458, 2152.864
1080.940, 2167.736
1081.422, 2172.802
1081.904, 2170.433
1082.386, 2162.316
1082.868, 2149.588
1083.350, 2135.630
1083.832, 2116.590
1084.314, 2106.282
1084.797, 2108.113
1085.279, 2116.431
1085.761, 2137.808
1086.243, 2157.300
1086.725, 2159.574
1087.207, 2151.103
1087.689, 2148.716
1088.171, 2148.928
1088.653, 2167.839
1089.136, 2190.181
1089.618, 2279.141
1090.100, 2516.209
1090.582, 2673.024
1091.064, 2576.043
1091.546, 2354.033
1092.028, 2231.073
1092.510, 2204.502
1092.993, 2185.547
1093.475, 2174.418
1093.957, 2169.913
1094.439, 2172.017
1094.921, 2180.946
1095.403, 2197.802
1095.885, 2214.276
1096.367, 2220.219
1096.849, 2218.167
1097.332, 2214.796
1097.814, 2210.642
1098.296, 2208.684
1098.778, 2209.281
1099.260, 2214.404
1099.742, 2224.165
1100.224, 2230.806
1100.706, 2227.007
1101.188, 2221.223
1101.671, 2230.598
1102.153, 2244.380
1102.635, 2237.984
1103.117, 2219.500
1103.599, 2212.031
1104.081, 2217.583
1104.563, 2221.914
1105.045, 2217.695
1105.528, 2212.650
1106.010, 2213.060
1106.492, 2215.307
1106.974, 2217.869
1107.456, 2219.007
1107.938, 2213.281
1108.420, 2205.004
1108.902, 2208.069
1109.385, 2226.671
1109.867, 2235.973
1110.349, 2217.137
1110.831, 2199.706
1111.313, 2194.631
1111.795, 2195.158
1112.277, 2197.627
1112.759, 2201.787
1113.241, 2208.651
1113.724, 2218.079
1114.206, 2224.891
1114.688, 2226.426
1115.170, 2229.381
1115.652, 2237.833
1116.134, 2241.395
1116.616, 2234.082
1117.098, 2223.677
1117.580, 2216.256
1118.063, 2212.327
1118.545, 2214.573
1119.027, 2224.940
1119.509, 2229.925
1119.991, 2230.180
1120.473, 2218.494
1120.955, 2190.687
1121.437, 2169.373
1121.920, 2169.588
1122.402, 2178.564
1122.884, 2176.332
1123.366, 2165.943
1123.848, 2160.096
1124.330, 2158.051
1124.812, 2156.443
1125.294, 2154.774
1125.776, 2153.959
1126.259, 2154.087
1126.741, 2150.920
1127.223, 2137.971
1127.705, 2125.919
1128.187, 2132.234
1128.669, 2146.136
1129.151, 2154.689
1129.633, 2156.567
1130.115, 2148.551
1130.598, 2133.032
1131.080, 2122.048
1131.562, 2121.288
1132.044, 2123.443
1132.526, 2127.279
1133.008, 2129.455
1133.490, 2125.289
1133.972, 2120.702
1134.455, 2124.832
1134.937, 2132.500
1135.419, 2129.439
1135.901, 2112.435
1136.383, 2098.034
1136.865, 2087.688
1137.347, 2080.790
1137.829, 2081.719
1138.312, 2079.066
1138.794, 2060.844
1139.276, 2044.956
1139.758, 2056.889
1140.240, 2089.633
1140.722, 2101.326
1141.204, 2087.418
1141.686, 2080.453
1142.168, 2082.308
1142.651, 2085.934
1143.133, 2090.009
1143.615, 2088.201
1144.097, 2075.029
1144.579, 2058.351
1145.061, 2052.963
1145.543, 2054.894
1146.025, 2047.284
1146.507, 2034.738
1146.990, 2036.445
1147.472, 2050.937
1147.954, 2058.968
1148.436, 2053.609
1148.918, 2047.936
1149.400, 2054.450
1149.882, 2061.255
1150.364, 2051.630
1150.847, 2040.758
1151.329, 2049.793
1151.811, 2067.303
1152.293, 2072.127
1152.775, 2063.971
1153.257, 2058.120
1153.739, 2060.850
1154.221, 2060.105
1154.703, 2049.245
1155.186, 2038.499
1155.668, 2028.282
1156.150, 2022.986
1156.632, 2031.685
1157.114, 2044.642
1157.596, 2043.201
1158.078, 2026.817
1158.560, 2017.448
1159.042, 2015.479
1159.525, 2021.112
1160.007, 2038.516
1160.489, 2044.025
1160.971, 2025.286
1161.453, 2009.099
1161.935, 2022.677
1162.417, 2050.818
1162.899, 2056.681
1163.382, 2044.972
1163.864, 2034.629
1164.346, 2028.018
1164.828, 2038.593
1165.310, 2063.776
1165.792, 2075.790
1166.274, 2061.787
1166.756, 2040.763
1167.238, 2025.065
1167.721, 2016.355
1168.203, 2018.634
1168.685, 2026.897
1169.167, 2040.010
1169.649, 2052.599
1170.131, 2053.374
1170.613, 2043.430
1171.095, 2041.264
1171.578, 2057.049
1172.060, 2069.005
1172.542, 2072.322
1173.024, 2070.697
1173.506, 2062.503
1173.988, 2052.571
1174.470, 2039.722
1174.952, 2030.963
1175.434, 2042.685
1175.917, 2074.980
1176.399, 2091.953
1176.881, 2091.322
1177.363, 2088.489
1177.845, 2084.853
1178.327, 2078.624
1178.809, 2068.441
1179.291, 2067.809
1179.773, 2091.888
1180.256, 2121.078
1180.738, 2114.661
1181.220, 2087.768
1181.702, 2075.747
1182.184, 2076.096
1182.666, 2081.785
1183.148, 2089.661
1183.630, 2093.389
1184.113, 2090.786
1184.595, 2092.812
1185.077, 2113.860
1185.559, 2132.024
1186.041, 2133.233
1186.523, 2127.722
1187.005, 2117.611
1187.487, 2109.450
1187.969, 2113.161
1188.452, 2126.979
1188.934, 2138.326
1189.416, 2149.548
1189.898, 2147.325
1190.380, 2117.991
1190.862, 2107.685
1191.344, 2132.394
1191.826, 2158.892
1192.308, 2168.578
1192.791, 2170.578
1193.273, 2178.322
1193.755, 2187.635
1194.237, 2176.459
1194.719, 2151.287
1195.201, 2155.687
1195.683, 2185.338
1196.165, 2203.047
1196.648, 2201.469
1197.130, 2200.175
1197.612, 2210.643
1198.094, 2220.482
1198.576, 2214.783
1199.058, 2207.541
1199.540, 2217.384
1200.022, 2227.449
1200.505, 2212.736
1200.987, 2186.793
1201.469, 2178.984
1201.951, 2191.737
1202.433, 2199.830
1202.915, 2194.331
1203.397, 2192.494
1203.879, 2193.492
1204.361, 2201.947
1204.844, 2225.228
1205.326, 2243.838
1205.808, 2241.462
1206.290, 2231.398
1206.772, 2237.734
1207.254, 2257.838
1207.736, 2274.831
1208.218, 2288.538
1208.700, 2294.845
1209.183, 2294.560
1209.665, 2295.550
1210.147, 2299.902
1210.629, 2303.110
1211.111, 2301.681
1211.593, 2300.818
1212.075, 2303.891
1212.557, 2311.794
1213.040, 2330.148
1213.522, 2350.027
1214.004, 2358.344
1214.486, 2360.610
1214.968, 2371.778
1215.450, 2393.702
1215.932, 2410.334
1216.414, 2418.085
1216.896, 2421.942
1217.379, 2422.039
1217.861, 2417.558
1218.343, 2401.987
1218.825, 2396.826
1219.307, 2421.372
1219.789, 2457.587
1220.271, 2472.839
1220.753, 2470.363
1221.235, 2465.822
1221.718, 2460.389
1222.200, 2463.644
1222.682, 2473.322
1223.164, 2472.046
1223.646, 2457.108
1224.128, 2447.393
1224.610, 2455.546
1225.092, 2465.678
1225.575, 2466.078
1226.057, 2461.958
1226.539, 2454.440
1227.021, 2447.014
1227.503, 2446.258
1227.985, 2446.680
1228.467, 2435.331
1228.949, 2411.616
1229.432, 2397.026
1229.914, 2399.447
1230.396, 2392.760
1230.878, 2372.620
1231.360, 2354.694
1231.842, 2341.860
1232.324, 2339.876
1232.806, 2354.701
1233.288, 2369.404
1233.771, 2357.521
1234.253, 2329.673
1234.735, 2309.128
1235.217, 2297.402
1235.699, 2305.678
1236.181, 2324.380
1236.663, 2326.686
1237.145, 2310.061
1237.627, 2290.360
1238.110, 2271.606
1238.592, 2266.699
1239.074, 2299.823
1239.556, 2323.514
1240.038, 2303.516
1240.520, 2282.779
1241.002, 2293.730
1241.484, 2318.110
1241.967, 2336.771
1242.449, 2349.606
1242.931, 2354.805
1243.413, 2351.198
1243.895, 2351.031
1244.377, 2354.417
1244.859, 2355.960
1245.341, 2354.872
1245.823, 2353.773
1246.306, 2354.011
1246.788, 2360.896
1247.270, 2382.350
1247.752, 2405.444
1248.234, 2415.968
1248.716, 2419.032
1249.198, 2414.912
1249.680, 2410.743
1250.162, 2415.781
1250.645, 2428.929
1251.127, 2445.799
1251.609, 2466.661
1252.091, 2480.404
1252.573, 2480.646
1253.055, 2484.484
1253.537, 2492.939
1254.019, 2505.579
1254.502, 2523.440
1254.984, 2541.076
1255.466, 2554.427
1255.948, 2564.461
1256.430, 2574.079
1256.912, 2580.833
1257.394, 2571.021
1257.876, 2555.332
1258.358, 2566.969
1258.841, 2594.915
1259.323, 2600.260
1259.805, 2578.927
1260.287, 2559.809
1260.769, 2553.651
1261.251, 2553.769
1261.733, 2564.037
1262.215, 2570.901
1262.698, 2572.250
1263.180, 2564.854
1263.662, 2541.793
1264.144, 2516.220
1264.626, 2503.347
1265.108, 2499.905
1265.590, 2495.290
1266.072, 2489.508
##END=



