##NAMES=Uranophane-alpha
##RRUFFID=R050380
##IDEAL CHEMISTRY=Ca(U^6+^O_2_)_2_(SiO_3_OH)_2_&#183;5H_2_O
##LOCALITY=Grafton County, New Hampshire, USA
##OWNER=RRUFF
##SOURCE=University of Arizona Mineral Museum
##DESCRIPTION=Orange massive coating
##STATUS=The identification of this mineral has been confirmed by X-ray diffraction and chemical analysis
##URL=rruff.info/R050380
##MEASURED CHEMISTRY=(Ca_0.97_Pb_0.03_)(U_1.00_O_2_)_2_(Si_1.00_O_3_OH)_2_Â·5H_2_O
91.87140, 0.0000000E+00
92.35352, 22.75781
92.83563, 21.61913
93.31775, 21.13456
93.79987, 21.41826
94.28198, 22.37159
94.76410, 23.74791
95.24622, 25.55258
95.72833, 27.69242
96.21045, 29.90333
96.69257, 32.18524
97.17468, 34.69245
97.65680, 37.47916
98.13892, 40.55754
98.62103, 44.09356
99.10315, 48.14881
99.58527, 52.68363
100.0674, 57.12545
100.5495, 61.26647
101.0316, 65.68913
101.5137, 70.95733
101.9958, 77.09245
102.4780, 84.11787
102.9601, 92.04489
103.4422, 100.9144
103.9243, 110.4077
104.4064, 120.7420
104.8885, 131.6114
105.3707, 142.7402
105.8528, 154.0875
106.3349, 165.6189
106.8170, 177.2679
107.2991, 189.2253
107.7813, 200.9405
108.2634, 212.3667
108.7455, 223.6005
109.2276, 234.5462
109.7097, 245.1935
110.1918, 255.6594
110.6740, 266.0085
111.1561, 275.9345
111.6382, 286.0897
112.1203, 296.0729
112.6024, 306.1664
113.0845, 317.5326
113.5667, 330.6616
114.0488, 344.9003
114.5309, 359.9679
115.0130, 376.2622
115.4951, 392.8042
115.9772, 409.2296
116.4594, 425.6918
116.9415, 442.7255
117.4236, 461.6254
117.9057, 480.8673
118.3878, 498.7437
118.8699, 514.3646
119.3521, 528.8564
119.8342, 542.9274
120.3163, 556.6043
120.7984, 570.0154
121.2805, 583.7036
121.7626, 597.1500
122.2448, 609.4678
122.7269, 619.8032
123.2090, 629.0204
123.6911, 637.9053
124.1732, 646.5295
124.6553, 654.8669
125.1375, 662.5748
125.6196, 669.8882
126.1017, 677.5502
126.5838, 686.2686
127.0659, 695.5972
127.5480, 704.7072
128.0302, 713.4086
128.5123, 722.1389
128.9944, 731.4586
129.4765, 741.3506
129.9586, 751.6559
130.4407, 762.1616
130.9229, 772.9550
131.4050, 784.5670
131.8871, 797.0850
132.3692, 810.1827
132.8513, 822.8863
133.3334, 833.8627
133.8156, 840.9420
134.2977, 845.3660
134.7798, 850.0582
135.2619, 854.5225
135.7440, 858.5650
136.2261, 862.3000
136.7083, 866.7756
137.1904, 872.2973
137.6725, 877.7414
138.1546, 882.0741
138.6367, 885.2802
139.1188, 887.7535
139.6010, 889.5164
140.0831, 890.5703
140.5652, 891.4647
141.0473, 891.9510
141.5294, 892.6084
142.0115, 894.3344
142.4937, 897.7131
142.9758, 900.7514
143.4579, 902.7739
143.9400, 903.4760
144.4221, 904.4380
144.9042, 905.4472
145.3864, 906.7757
145.8685, 908.9512
146.3506, 912.6848
146.8327, 916.2798
147.3148, 919.2654
147.7969, 921.6441
148.2791, 923.3538
148.7612, 923.8337
149.2433, 923.7073
149.7254, 924.4291
150.2075, 926.7177
150.6896, 929.2419
151.1718, 931.5188
151.6539, 933.4735
152.1360, 935.3337
152.6181, 937.3649
153.1002, 939.3571
153.5823, 940.6619
154.0645, 940.0579
154.5466, 939.6178
155.0287, 940.3072
155.5108, 943.3381
155.9929, 946.1456
156.4750, 948.4671
156.9572, 950.2875
157.4393, 951.4964
157.9214, 951.5801
158.4035, 951.3466
158.8856, 951.3021
159.3677, 951.6840
159.8499, 952.1415
160.3320, 952.3815
160.8141, 952.5109
161.2962, 953.1953
161.7783, 955.2546
162.2604, 957.7037
162.7426, 959.7305
163.2247, 960.8760
163.7068, 961.7518
164.1889, 962.6140
164.6710, 963.4507
165.1531, 964.1533
165.6353, 964.7878
166.1174, 965.2129
166.5995, 965.2750
167.0816, 964.4438
167.5637, 963.5682
168.0458, 963.1685
168.5280, 963.2496
169.0101, 963.5715
169.4922, 964.6840
169.9743, 965.8047
170.4564, 965.8301
170.9385, 962.9936
171.4207, 959.6545
171.9028, 957.9971
172.3849, 958.1635
172.8670, 958.8328
173.3491, 959.2502
173.8312, 959.4434
174.3134, 959.4619
174.7955, 959.2928
175.2776, 958.9830
175.7597, 958.3656
176.2418, 957.3409
176.7239, 956.7877
177.2061, 958.0486
177.6882, 960.5178
178.1703, 962.5157
178.6524, 962.6865
179.1345, 962.0239
179.6166, 962.1722
180.0988, 963.2660
180.5809, 964.9368
181.0630, 966.9313
181.5451, 969.2087
182.0272, 971.5223
182.5093, 973.6338
182.9915, 975.7141
183.4736, 978.1785
183.9557, 981.1212
184.4378, 984.2601
184.9199, 987.2848
185.4020, 990.1647
185.8842, 993.1212
186.3663, 996.3396
186.8484, 999.7366
187.3305, 1002.757
187.8126, 1005.230
188.2947, 1007.753
188.7769, 1011.369
189.2590, 1016.044
189.7411, 1021.005
190.2232, 1026.060
190.7053, 1031.133
191.1874, 1035.745
191.6696, 1039.745
192.1517, 1043.597
192.6338, 1048.418
193.1159, 1054.255
193.5980, 1059.852
194.0801, 1064.257
194.5623, 1067.547
195.0444, 1071.108
195.5265, 1075.016
196.0086, 1079.253
196.4907, 1083.915
196.9728, 1089.058
197.4550, 1094.114
197.9371, 1098.586
198.4192, 1102.458
198.9013, 1106.792
199.3834, 1111.858
199.8655, 1117.230
200.3477, 1121.928
200.8298, 1125.853
201.3119, 1129.507
201.7940, 1133.407
202.2761, 1137.660
202.7582, 1141.051
203.2404, 1143.468
203.7225, 1144.987
204.2046, 1145.573
204.6867, 1144.958
205.1688, 1144.360
205.6509, 1144.953
206.1331, 1147.185
206.6152, 1147.695
207.0973, 1145.957
207.5794, 1142.449
208.0615, 1138.486
208.5436, 1133.927
209.0258, 1129.268
209.5079, 1124.979
209.9900, 1121.292
210.4721, 1116.942
210.9542, 1111.757
211.4363, 1105.853
211.9185, 1099.446
212.4006, 1092.147
212.8827, 1085.110
213.3648, 1079.332
213.8469, 1075.165
214.3290, 1070.698
214.8112, 1065.747
215.2933, 1060.411
215.7754, 1054.851
216.2575, 1048.987
216.7396, 1043.010
217.2217, 1037.066
217.7039, 1031.195
218.1860, 1025.279
218.6681, 1019.342
219.1502, 1013.391
219.6323, 1007.503
220.1144, 1001.722
220.5966, 996.0390
221.0787, 990.4568
221.5608, 984.8638
222.0429, 979.7772
222.5250, 975.4501
223.0071, 971.6517
223.4893, 967.6561
223.9714, 963.2302
224.4535, 958.9449
224.9356, 955.0807
225.4177, 951.8238
225.8998, 948.6457
226.3820, 945.7084
226.8641, 942.7972
227.3462, 939.1393
227.8283, 934.0612
228.3104, 929.2536
228.7925, 925.7248
229.2747, 924.0908
229.7568, 922.2198
230.2389, 919.9405
230.7210, 917.3632
231.2031, 914.9781
231.6852, 913.1218
232.1674, 910.9551
232.6495, 907.9683
233.1316, 903.4962
233.6137, 899.6788
234.0958, 896.6030
234.5779, 894.2466
235.0601, 892.6593
235.5422, 892.1618
236.0243, 891.9532
236.5064, 891.8219
236.9885, 892.3730
237.4706, 891.5342
237.9528, 888.3708
238.4349, 884.0807
238.9170, 881.8381
239.3991, 882.9511
239.8812, 884.1511
240.3633, 883.9572
240.8455, 881.4918
241.3276, 879.8526
241.8097, 879.4976
242.2918, 879.8203
242.7739, 879.4246
243.2560, 877.6852
243.7382, 876.2027
244.2203, 875.7087
244.7024, 876.7873
245.1845, 877.2045
245.6666, 876.7664
246.1487, 875.7635
246.6309, 874.6360
247.1130, 872.9449
247.5951, 871.8514
248.0772, 871.9267
248.5593, 873.6201
249.0414, 874.8265
249.5236, 875.4498
250.0057, 875.6358
250.4878, 875.5215
250.9699, 874.6242
251.4520, 874.2883
251.9341, 875.1233
252.4163, 877.4896
252.8984, 879.2402
253.3805, 880.2458
253.8626, 880.7370
254.3447, 880.9180
254.8268, 880.3820
255.3090, 880.3917
255.7911, 881.5302
256.2732, 884.0284
256.7553, 885.7185
257.2374, 886.3397
257.7195, 886.4135
258.2017, 886.5256
258.6838, 886.5906
259.1659, 886.8975
259.6480, 887.5311
260.1301, 888.4914
260.6122, 889.6809
261.0944, 891.2105
261.5765, 892.8449
262.0586, 894.3542
262.5407, 895.7265
263.0228, 897.0242
263.5049, 898.2971
263.9871, 899.5490
264.4692, 900.4022
264.9513, 900.6074
265.4334, 900.8330
265.9155, 901.7521
266.3976, 903.5258
266.8798, 905.4180
267.3619, 907.4119
267.8440, 909.4511
268.3261, 910.8699
268.8082, 911.4550
269.2903, 911.8583
269.7725, 912.5819
270.2546, 913.6581
270.7367, 914.8302
271.2188, 916.0201
271.7009, 917.2659
272.1830, 918.8259
272.6652, 920.7808
273.1473, 922.7850
273.6294, 924.7299
274.1115, 926.6823
274.5936, 928.0106
275.0757, 928.4119
275.5579, 928.3215
276.0400, 929.1539
276.5221, 931.1693
277.0042, 933.0227
277.4863, 933.6790
277.9684, 933.0016
278.4506, 933.0723
278.9327, 934.3054
279.4148, 936.0125
279.8969, 936.8177
280.3790, 936.6986
280.8611, 935.8915
281.3433, 934.0395
281.8254, 931.1588
282.3075, 929.7399
282.7896, 930.2095
283.2717, 931.3680
283.7538, 931.3120
284.2360, 930.0128
284.7181, 928.3837
285.2002, 926.6600
285.6823, 924.8820
286.1644, 923.4828
286.6465, 922.5511
287.1287, 921.7051
287.6108, 920.4873
288.0929, 918.9013
288.5750, 917.0827
289.0571, 914.6908
289.5392, 912.0814
290.0214, 911.0103
290.5035, 911.6351
290.9856, 912.5132
291.4677, 912.0440
291.9498, 910.4218
292.4319, 908.8571
292.9141, 907.6920
293.3962, 906.8309
293.8783, 906.1755
294.3604, 905.7399
294.8425, 905.1594
295.3246, 903.9017
295.8068, 902.2034
296.2889, 900.8397
296.7710, 899.9417
297.2531, 899.5234
297.7352, 899.8242
298.2173, 900.7678
298.6995, 901.7170
299.1816, 902.1862
299.6637, 902.3175
300.1458, 902.4297
300.6279, 902.6361
301.1100, 902.6874
301.5922, 901.9664
302.0743, 900.6938
302.5564, 899.8005
303.0385, 900.2942
303.5206, 901.3305
304.0027, 901.6347
304.4849, 900.9168
304.9670, 899.9353
305.4491, 899.4951
305.9312, 899.3671
306.4133, 899.0040
306.8954, 898.1987
307.3776, 897.0123
307.8597, 895.3577
308.3418, 893.1777
308.8239, 891.1682
309.3060, 890.2802
309.7881, 889.8392
310.2703, 888.8044
310.7524, 886.2608
311.2345, 883.3365
311.7166, 880.8729
312.1987, 878.8688
312.6808, 876.8395
313.1630, 874.2327
313.6451, 871.5295
314.1272, 869.2308
314.6093, 868.2903
315.0914, 867.0540
315.5735, 864.2023
316.0557, 860.1107
316.5378, 856.8024
317.0199, 856.1990
317.5020, 856.0970
317.9841, 854.8099
318.4662, 851.1484
318.9484, 847.5242
319.4305, 844.7020
319.9126, 842.5181
320.3947, 840.5391
320.8768, 839.3918
321.3589, 837.8547
321.8411, 834.9868
322.3232, 829.5683
322.8053, 825.6192
323.2874, 824.9818
323.7695, 826.0810
324.2516, 826.4227
324.7338, 825.4255
325.2159, 823.7947
325.6980, 821.5261
326.1801, 818.3619
326.6622, 815.7084
327.1443, 813.6870
327.6265, 812.1909
328.1086, 811.1208
328.5907, 811.3380
329.0728, 811.0247
329.5549, 809.6674
330.0370, 807.2482
330.5192, 805.3173
331.0013, 804.2507
331.4834, 803.3450
331.9655, 802.0790
332.4476, 800.0654
332.9297, 798.3469
333.4119, 797.0511
333.8940, 796.1198
334.3761, 795.4034
334.8582, 795.2013
335.3403, 794.7501
335.8224, 793.5295
336.3046, 791.0605
336.7867, 789.2488
337.2688, 788.3177
337.7509, 787.8972
338.2330, 787.2377
338.7151, 786.3083
339.1973, 785.2569
339.6794, 784.1241
340.1615, 782.9249
340.6436, 781.6370
341.1257, 780.2371
341.6078, 778.8661
342.0900, 777.7244
342.5721, 776.8563
343.0542, 776.0320
343.5363, 775.1414
344.0184, 774.2693
344.5005, 773.8281
344.9827, 773.8750
345.4648, 773.9929
345.9469, 773.8309
346.4290, 773.3990
346.9111, 772.7626
347.3932, 771.7582
347.8754, 770.7579
348.3575, 770.4902
348.8396, 770.9163
349.3217, 771.7500
349.8038, 773.3120
350.2859, 775.0943
350.7681, 775.7343
351.2502, 774.8932
351.7323, 773.5557
352.2144, 772.7037
352.6965, 772.2594
353.1786, 772.0144
353.6608, 772.1266
354.1429, 772.2736
354.6250, 771.9123
355.1071, 771.0123
355.5892, 770.2850
356.0714, 770.4809
356.5535, 771.1770
357.0356, 771.7422
357.5177, 771.9244
357.9998, 771.9276
358.4819, 771.7033
358.9641, 771.3352
359.4462, 771.3021
359.9283, 772.2258
360.4104, 773.3847
360.8925, 774.1176
361.3746, 773.8820
361.8568, 773.8651
362.3389, 774.7070
362.8210, 776.1120
363.3031, 777.4354
363.7852, 778.5211
364.2673, 779.4310
364.7495, 780.1678
365.2316, 780.6923
365.7137, 781.1855
366.1958, 781.7698
366.6779, 782.3062
367.1600, 782.6357
367.6422, 782.0823
368.1243, 782.0049
368.6064, 782.9337
369.0885, 784.9447
369.5706, 786.4727
370.0527, 787.2603
370.5349, 787.7845
371.0170, 788.3793
371.4991, 789.2786
371.9812, 789.8177
372.4633, 789.5802
372.9454, 788.9728
373.4276, 789.5617
373.9097, 792.1701
374.3918, 794.5627
374.8739, 795.5009
375.3560, 794.5093
375.8381, 794.3070
376.3203, 795.0884
376.8024, 796.3998
377.2845, 797.4589
377.7666, 798.1114
378.2487, 799.3157
378.7308, 801.6025
379.2130, 804.7596
379.6951, 807.1803
380.1772, 808.8376
380.6593, 809.9760
381.1414, 810.7229
381.6235, 811.1044
382.1057, 811.3825
382.5878, 811.4921
383.0699, 811.6866
383.5520, 812.5678
384.0341, 814.0849
384.5162, 815.6243
384.9984, 816.8671
385.4805, 817.8561
385.9626, 818.6689
386.4447, 819.2960
386.9268, 819.8317
387.4089, 820.3838
387.8911, 820.9167
388.3732, 821.3409
388.8553, 821.6119
389.3374, 821.7538
389.8195, 821.7374
390.3016, 821.5718
390.7838, 821.4095
391.2659, 821.4338
391.7480, 821.4780
392.2301, 821.3552
392.7122, 820.8518
393.1943, 820.4161
393.6765, 820.5930
394.1586, 821.0655
394.6407, 820.9188
395.1228, 819.0429
395.6049, 817.1205
396.0870, 816.0558
396.5692, 816.2568
397.0513, 816.3649
397.5334, 816.4103
398.0155, 816.1291
398.4976, 815.1943
398.9797, 812.6050
399.4619, 810.3744
399.9440, 809.0071
400.4261, 808.4899
400.9082, 807.7599
401.3903, 806.7219
401.8724, 805.5375
402.3546, 804.3333
402.8367, 803.3057
403.3188, 801.7828
403.8009, 799.3957
404.2830, 796.6360
404.7651, 794.8575
405.2473, 794.4180
405.7294, 793.9983
406.2115, 793.0338
406.6936, 791.5191
407.1757, 790.0837
407.6578, 788.7465
408.1400, 787.4430
408.6221, 786.1818
409.1042, 784.9572
409.5863, 783.3467
410.0684, 781.0643
410.5505, 778.4650
411.0327, 776.2922
411.5148, 774.5287
411.9969, 772.9111
412.4790, 771.1220
412.9611, 769.3251
413.4432, 767.9201
413.9254, 766.9410
414.4075, 766.3891
414.8896, 766.8334
415.3717, 767.7351
415.8538, 767.8105
416.3359, 765.6916
416.8181, 762.9537
417.3002, 760.9960
417.7823, 759.8124
418.2644, 758.9033
418.7465, 758.2900
419.2286, 757.6231
419.7108, 756.5433
420.1929, 754.5173
420.6750, 752.6224
421.1571, 751.2466
421.6392, 750.2942
422.1213, 749.5643
422.6035, 749.3285
423.0856, 749.0256
423.5677, 748.3107
424.0498, 746.9185
424.5319, 746.0300
425.0140, 746.3857
425.4962, 746.9925
425.9783, 746.8206
426.4604, 745.0762
426.9425, 743.7568
427.4246, 743.3383
427.9067, 743.6566
428.3889, 743.5078
428.8710, 742.6100
429.3531, 741.7485
429.8352, 741.3986
430.3173, 741.6839
430.7994, 741.8140
431.2816, 741.6700
431.7637, 741.4973
432.2458, 741.8636
432.7279, 742.8163
433.2100, 743.3404
433.6921, 742.9230
434.1743, 741.8083
434.6564, 740.9324
435.1385, 740.2886
435.6206, 739.6347
436.1027, 738.5208
436.5848, 737.2270
437.0670, 736.6180
437.5491, 737.0587
438.0312, 737.7396
438.5133, 737.7650
438.9954, 737.2947
439.4775, 736.7566
439.9597, 736.1594
440.4418, 735.7452
440.9239, 735.9218
441.4060, 736.7188
441.8881, 737.2775
442.3702, 737.0662
442.8524, 736.3972
443.3345, 735.5397
443.8166, 733.6495
444.2987, 732.6472
444.7808, 733.7892
445.2629, 736.3449
445.7451, 738.2000
446.2272, 738.4702
446.7093, 738.3029
447.1914, 737.9932
447.6735, 737.3562
448.1556, 737.2383
448.6378, 737.9876
449.1199, 739.0177
449.6020, 739.7554
450.0841, 740.1246
450.5662, 740.3207
451.0483, 740.2697
451.5305, 740.0754
452.0126, 740.1873
452.4947, 740.6304
452.9768, 741.3044
453.4589, 742.1846
453.9410, 743.2791
454.4232, 744.5436
454.9053, 746.0885
455.3874, 747.4694
455.8695, 747.8602
456.3516, 747.4294
456.8337, 747.4703
457.3159, 748.7433
457.7980, 750.4460
458.2801, 750.9464
458.7622, 750.4120
459.2443, 750.0186
459.7264, 750.6160
460.2086, 751.8334
460.6907, 753.2981
461.1728, 755.0543
461.6549, 756.6279
462.1370, 757.5596
462.6191, 758.1025
463.1013, 758.5994
463.5834, 759.1348
464.0655, 759.6914
464.5476, 760.1853
465.0297, 760.6384
465.5118, 761.2952
465.9940, 762.6120
466.4761, 763.8355
466.9582, 764.4952
467.4403, 763.9686
467.9224, 763.9286
468.4045, 764.6102
468.8867, 765.6981
469.3688, 766.8310
469.8509, 768.3245
470.3330, 769.2248
470.8151, 769.0367
471.2972, 767.9378
471.7794, 767.9047
472.2615, 769.3288
472.7436, 770.7729
473.2257, 771.0744
473.7078, 770.2107
474.1899, 769.8878
474.6721, 770.4064
475.1542, 771.0114
475.6363, 770.4196
476.1184, 768.8025
476.6005, 767.2822
477.0826, 766.4637
477.5648, 765.9149
478.0469, 764.7564
478.5290, 763.0682
479.0111, 761.5777
479.4932, 761.0787
479.9753, 760.9453
480.4575, 760.3787
480.9396, 759.0930
481.4217, 757.8457
481.9038, 757.2421
482.3859, 756.9575
482.8680, 756.5233
483.3502, 755.5014
483.8323, 754.5693
484.3144, 754.2239
484.7965, 754.3834
485.2786, 753.8514
485.7607, 751.5290
486.2429, 749.1909
486.7250, 747.7333
487.2071, 747.5995
487.6892, 747.4235
488.1713, 747.1462
488.6534, 746.8798
489.1356, 746.8663
489.6177, 747.3387
490.0998, 747.4476
490.5819, 747.0920
491.0640, 746.2256
491.5461, 744.2517
492.0283, 740.9656
492.5104, 738.0899
492.9925, 737.1998
493.4746, 737.8776
493.9567, 737.9582
494.4388, 737.2045
494.9210, 736.2490
495.4031, 735.7570
495.8852, 735.6097
496.3673, 735.5084
496.8494, 735.2717
497.3315, 735.0715
497.8137, 735.1572
498.2958, 735.4406
498.7779, 735.5882
499.2600, 735.3882
499.7421, 735.0117
500.2242, 734.5781
500.7064, 734.1081
501.1885, 733.5616
501.6706, 732.7994
502.1527, 732.0330
502.6348, 731.4899
503.1169, 731.4911
503.5991, 731.3918
504.0812, 731.0426
504.5633, 730.5450
505.0454, 730.3088
505.5275, 730.6520
506.0096, 730.7142
506.4918, 730.0577
506.9739, 728.5956
507.4560, 727.3338
507.9381, 726.2438
508.4202, 725.4178
508.9023, 725.0126
509.3845, 725.0086
509.8666, 725.0598
510.3487, 725.0405
510.8308, 725.1656
511.3129, 726.0182
511.7950, 727.4283
512.2772, 728.5889
512.7593, 728.9487
513.2414, 728.8939
513.7235, 728.8489
514.2056, 728.8245
514.6877, 728.7906
515.1699, 728.6734
515.6520, 728.5583
516.1341, 728.5499
516.6162, 728.8067
517.0983, 728.8835
517.5804, 728.3065
518.0626, 727.5104
518.5447, 727.2131
519.0268, 727.9612
519.5089, 728.7493
519.9910, 729.2902
520.4731, 729.6130
520.9553, 730.2355
521.4374, 731.4638
521.9195, 732.5348
522.4016, 732.8622
522.8837, 732.1689
523.3658, 732.2791
523.8480, 733.3721
524.3301, 734.9504
524.8122, 736.6286
525.2943, 738.3610
525.7764, 739.2233
526.2585, 738.5333
526.7407, 737.3436
527.2228, 737.5433
527.7049, 739.0090
528.1870, 740.9754
528.6691, 743.4849
529.1512, 745.9971
529.6334, 747.7585
530.1155, 748.7034
530.5976, 749.6156
531.0797, 750.9886
531.5618, 752.5492
532.0439, 753.9990
532.5261, 755.0675
533.0082, 756.3038
533.4903, 758.1158
533.9724, 760.1693
534.4545, 761.7984
534.9366, 762.6302
535.4188, 763.3762
535.9009, 764.1100
536.3830, 764.8447
536.8651, 765.8992
537.3472, 767.3140
537.8293, 768.9928
538.3115, 771.1357
538.7936, 773.8536
539.2757, 775.2606
539.7578, 774.8845
540.2399, 774.2662
540.7220, 776.0516
541.2042, 779.6986
541.6863, 782.1757
542.1684, 782.1674
542.6505, 780.9965
543.1326, 780.3154
543.6147, 780.0587
544.0969, 779.9846
544.5790, 780.4246
545.0611, 780.6638
545.5432, 779.8888
546.0253, 777.9807
546.5074, 776.3023
546.9896, 776.0046
547.4717, 775.8633
547.9538, 774.8724
548.4359, 771.8564
548.9180, 769.3742
549.4001, 768.0521
549.8823, 767.2452
550.3644, 765.8517
550.8465, 763.5942
551.3286, 761.2452
551.8107, 758.9356
552.2928, 756.6774
552.7750, 754.6285
553.2571, 752.7905
553.7392, 751.1090
554.2213, 749.6591
554.7034, 748.3782
555.1855, 746.7937
555.6677, 744.8533
556.1498, 742.7981
556.6319, 740.6476
557.1140, 738.6068
557.5961, 737.1726
558.0782, 736.7229
558.5604, 736.5098
559.0425, 736.0910
559.5246, 735.4506
560.0067, 734.5518
560.4888, 733.0737
560.9709, 731.6184
561.4531, 730.7026
561.9352, 730.3284
562.4173, 729.2560
562.8994, 725.9352
563.3815, 723.0205
563.8636, 722.0108
564.3458, 724.0648
564.8279, 724.8926
565.3100, 724.1602
565.7921, 722.6458
566.2742, 721.3259
566.7563, 720.2295
567.2385, 718.9558
567.7206, 717.2725
568.2027, 715.5634
568.6848, 714.8814
569.1669, 715.0958
569.6490, 715.3074
570.1312, 714.9668
570.6133, 714.3604
571.0954, 713.9294
571.5775, 713.6608
572.0596, 713.3193
572.5417, 712.6788
573.0239, 711.9319
573.5060, 711.2142
573.9881, 710.4521
574.4702, 709.9764
574.9523, 710.1304
575.4344, 710.5371
575.9166, 710.7155
576.3987, 710.3671
576.8808, 710.1635
577.3629, 710.3427
577.8450, 710.6988
578.3271, 710.4919
578.8093, 709.5298
579.2914, 708.5511
579.7735, 707.7982
580.2556, 707.2756
580.7377, 707.0528
581.2198, 707.1412
581.7020, 707.3153
582.1841, 707.5647
582.6662, 707.7330
583.1483, 707.3351
583.6304, 706.2119
584.1125, 705.0701
584.5947, 704.7100
585.0768, 704.6994
585.5589, 704.3994
586.0410, 703.2509
586.5231, 702.1857
587.0052, 701.7843
587.4874, 701.7976
587.9695, 701.5450
588.4516, 700.4404
588.9337, 699.5507
589.4158, 699.2004
589.8979, 699.3939
590.3801, 699.7623
590.8622, 700.4705
591.3443, 701.0463
591.8264, 701.2666
592.3085, 701.1409
592.7906, 700.0745
593.2728, 697.7205
593.7549, 695.5400
594.2370, 695.5421
594.7191, 697.2229
595.2012, 698.6681
595.6833, 699.3671
596.1655, 699.7239
596.6476, 700.3679
597.1297, 701.0172
597.6118, 701.0363
598.0939, 699.4508
598.5760, 697.7877
599.0582, 696.8454
599.5403, 696.6310
600.0224, 696.7022
600.5045, 697.5521
600.9866, 698.1745
601.4688, 697.9958
601.9509, 696.7011
602.4330, 696.0876
602.9151, 696.5533
603.3972, 697.1550
603.8793, 696.8721
604.3615, 695.5560
604.8436, 694.9365
605.3257, 695.3440
605.8078, 696.1879
606.2899, 696.7020
606.7720, 696.8723
607.2542, 696.5977
607.7363, 695.3787
608.2184, 694.1651
608.7005, 694.5046
609.1826, 695.9170
609.6647, 696.7271
610.1469, 695.4659
610.6290, 693.8573
611.1111, 692.9420
611.5932, 692.7950
612.0753, 692.8066
612.5574, 693.1459
613.0396, 693.3938
613.5217, 693.2948
614.0038, 692.6680
614.4859, 692.1346
614.9680, 691.6247
615.4501, 691.2940
615.9323, 691.4432
616.4144, 692.1032
616.8965, 692.5045
617.3786, 692.4404
617.8607, 692.1483
618.3428, 692.1444
618.8250, 692.3096
619.3071, 692.1506
619.7892, 691.1431
620.2713, 689.9182
620.7534, 689.0826
621.2355, 688.5900
621.7177, 688.2390
622.1998, 688.1813
622.6819, 688.0533
623.1640, 687.5278
623.6461, 686.4689
624.1282, 685.8619
624.6104, 686.1579
625.0925, 686.6240
625.5746, 686.8014
626.0567, 686.5751
626.5388, 686.3510
627.0209, 686.1141
627.5031, 685.8947
627.9852, 685.6804
628.4673, 685.4755
628.9494, 685.5048
629.4315, 685.8650
629.9136, 686.3880
630.3958, 686.9070
630.8779, 687.3860
631.3600, 687.7123
631.8421, 687.7943
632.3242, 687.7447
632.8063, 687.7309
633.2885, 687.7045
633.7706, 687.3713
634.2527, 686.3391
634.7348, 685.2360
635.2169, 684.3233
635.6990, 683.6250
636.1812, 683.0877
636.6633, 682.5765
637.1454, 682.3913
637.6275, 683.0000
638.1096, 684.6752
638.5917, 685.0160
639.0739, 683.5446
639.5560, 681.7963
640.0381, 682.1638
640.5202, 684.0681
641.0023, 684.8417
641.4844, 683.3700
641.9666, 681.4282
642.4487, 680.8910
642.9308, 681.3158
643.4129, 681.7388
643.8950, 681.7854
644.3771, 681.7180
644.8593, 681.7821
645.3414, 681.8947
645.8235, 681.5820
646.3056, 679.8965
646.7877, 678.7160
647.2698, 678.8801
647.7520, 680.4601
648.2341, 681.1723
648.7162, 680.7394
649.1983, 680.1836
649.6804, 680.4063
650.1625, 681.2755
650.6447, 681.5068
651.1268, 680.9808
651.6089, 680.2161
652.0910, 679.5842
652.5731, 679.1301
653.0552, 678.9644
653.5374, 679.2159
654.0195, 679.5272
654.5016, 679.7336
654.9837, 679.8561
655.4658, 679.9242
655.9479, 679.7122
656.4301, 679.7381
656.9122, 680.5381
657.3943, 681.6406
657.8764, 681.5685
658.3585, 679.4966
658.8406, 678.2206
659.3228, 678.9919
659.8049, 681.2428
660.2870, 681.7548
660.7691, 680.4426
661.2512, 679.2973
661.7333, 680.0129
662.2155, 681.6417
662.6976, 682.2203
663.1797, 681.7052
663.6618, 681.3241
664.1439, 682.1049
664.6260, 683.2972
665.1082, 684.3732
665.5903, 685.4320
666.0724, 685.7300
666.5545, 684.3635
667.0366, 682.6026
667.5187, 681.6388
668.0009, 681.9377
668.4830, 682.1785
668.9651, 682.4537
669.4472, 682.4775
669.9293, 681.4017
670.4114, 679.2058
670.8936, 678.1516
671.3757, 679.3251
671.8578, 681.1841
672.3399, 680.8401
672.8220, 678.9161
673.3041, 677.5616
673.7863, 678.2937
674.2684, 679.5813
674.7505, 680.5518
675.2326, 681.1699
675.7147, 681.3837
676.1968, 680.9490
676.6790, 680.3054
677.1611, 679.4476
677.6432, 678.3225
678.1253, 678.1466
678.6074, 679.5176
679.0895, 680.7286
679.5717, 680.4564
680.0538, 678.7013
680.5359, 677.6433
681.0180, 677.3447
681.5001, 677.6010
681.9822, 678.5389
682.4644, 679.8329
682.9465, 680.9059
683.4286, 681.7717
683.9107, 681.9531
684.3928, 680.4543
684.8749, 678.3407
685.3571, 676.8824
685.8392, 676.8939
686.3213, 676.9603
686.8034, 676.6739
687.2855, 676.3817
687.7676, 676.7318
688.2498, 678.1695
688.7319, 679.1295
689.2140, 679.1802
689.6961, 678.6743
690.1782, 678.5999
690.6603, 678.9315
691.1425, 679.0988
691.6246, 678.7407
692.1067, 678.1257
692.5888, 677.4291
693.0709, 676.7672
693.5530, 676.6677
694.0352, 678.0941
694.5173, 679.6174
694.9994, 680.3030
695.4815, 680.0663
695.9636, 679.7880
696.4457, 679.3796
696.9279, 679.1531
697.4100, 679.2380
697.8921, 679.6337
698.3742, 680.3933
698.8563, 681.6303
699.3384, 682.8782
699.8206, 683.8195
700.3027, 684.4319
700.7848, 684.5177
701.2669, 683.9891
701.7490, 683.4628
702.2311, 683.5942
702.7133, 684.0762
703.1954, 684.4753
703.6775, 684.6160
704.1596, 684.8116
704.6417, 685.3323
705.1238, 685.9318
705.6060, 686.2538
706.0881, 686.1835
706.5702, 685.9744
707.0523, 685.4415
707.5344, 684.9296
708.0165, 685.3429
708.4987, 686.7587
708.9808, 687.8499
709.4629, 688.2128
709.9450, 688.0370
710.4271, 687.1818
710.9092, 685.9814
711.3914, 685.6490
711.8735, 688.0332
712.3556, 690.4802
712.8377, 690.7294
713.3198, 689.2413
713.8019, 688.4203
714.2841, 689.4964
714.7662, 690.7939
715.2483, 691.6146
715.7304, 691.9883
716.2125, 692.9847
716.6946, 694.9524
717.1768, 696.6119
717.6589, 697.0360
718.1410, 696.4059
718.6231, 695.9190
719.1052, 695.5635
719.5873, 695.7338
720.0695, 697.1009
720.5516, 699.0057
721.0337, 700.7014
721.5158, 702.0955
721.9979, 703.1469
722.4800, 703.4609
722.9622, 703.6707
723.4443, 704.2479
723.9264, 705.1039
724.4085, 706.7064
724.8906, 709.5469
725.3727, 712.5726
725.8549, 714.6677
726.3370, 715.7845
726.8191, 716.8707
727.3012, 717.9943
727.7833, 719.1915
728.2654, 720.7195
728.7476, 722.3260
729.2297, 723.3144
729.7118, 723.1042
730.1939, 723.0439
730.6760, 724.0665
731.1581, 725.8274
731.6403, 727.8086
732.1224, 730.5726
732.6045, 732.6673
733.0866, 733.4274
733.5687, 733.5832
734.0508, 734.7894
734.5330, 737.3878
735.0151, 739.5865
735.4972, 740.6727
735.9793, 741.3836
736.4614, 743.5612
736.9435, 746.9589
737.4257, 750.3036
737.9078, 752.8211
738.3899, 755.1180
738.8720, 757.6391
739.3541, 760.3734
739.8362, 763.2542
740.3184, 766.4208
740.8005, 769.5536
741.2826, 772.3450
741.7647, 774.8984
742.2468, 778.1503
742.7289, 782.3845
743.2111, 786.5375
743.6932, 789.9206
744.1753, 792.7736
744.6574, 796.6204
745.1395, 801.4075
745.6216, 806.3536
746.1038, 810.7902
746.5859, 815.1016
747.0680, 819.8152
747.5501, 824.9474
748.0322, 829.7469
748.5143, 833.2635
748.9965, 836.8235
749.4786, 841.2801
749.9607, 846.8513
750.4428, 852.6732
750.9249, 858.8252
751.4070, 865.2338
751.8892, 871.7631
752.3713, 878.4680
752.8534, 885.4755
753.3355, 892.8700
753.8176, 900.3890
754.2997, 907.7776
754.7819, 915.1337
755.2640, 922.7314
755.7461, 930.5657
756.2282, 938.5212
756.7103, 946.1505
757.1924, 954.0438
757.6746, 962.6428
758.1567, 972.2873
758.6388, 982.0800
759.1209, 992.0192
759.6030, 1002.237
760.0851, 1012.977
760.5673, 1024.342
761.0494, 1035.466
761.5315, 1046.189
762.0136, 1056.901
762.4957, 1067.823
762.9778, 1079.065
763.4600, 1090.973
763.9421, 1103.432
764.4242, 1116.859
764.9063, 1132.561
765.3884, 1148.927
765.8705, 1163.959
766.3527, 1176.149
766.8348, 1188.701
767.3169, 1201.628
767.7990, 1215.250
768.2811, 1230.251
768.7632, 1246.684
769.2454, 1263.612
769.7275, 1280.751
770.2096, 1298.107
770.6917, 1315.531
771.1738, 1333.028
771.6559, 1350.904
772.1381, 1368.975
772.6202, 1387.669
773.1023, 1407.317
773.5844, 1427.571
774.0665, 1447.662
774.5486, 1466.843
775.0308, 1486.863
775.5129, 1508.051
775.9950, 1530.235
776.4771, 1552.779
776.9592, 1575.889
777.4413, 1598.908
777.9235, 1621.552
778.4056, 1644.532
778.8877, 1669.466
779.3698, 1695.641
779.8519, 1721.316
780.3340, 1745.281
780.8162, 1768.642
781.2983, 1792.238
781.7804, 1815.747
782.2625, 1838.285
782.7446, 1858.846
783.2267, 1879.724
783.7089, 1901.687
784.1910, 1924.094
784.6731, 1945.055
785.1552, 1964.664
785.6373, 1984.715
786.1194, 2006.082
786.6016, 2027.839
787.0837, 2049.174
787.5658, 2069.571
788.0479, 2087.479
788.5300, 2099.731
789.0121, 2111.360
789.4943, 2124.942
789.9764, 2139.647
790.4585, 2152.088
790.9406, 2161.904
791.4227, 2169.857
791.9048, 2176.136
792.3870, 2180.608
792.8691, 2183.050
793.3512, 2183.439
793.8333, 2181.119
794.3154, 2175.986
794.7975, 2167.849
795.2797, 2156.089
795.7618, 2141.034
796.2439, 2124.316
796.7260, 2106.678
797.2081, 2087.297
797.6902, 2065.588
798.1724, 2042.019
798.6545, 2017.743
799.1366, 1992.872
799.6187, 1967.414
800.1008, 1941.662
800.5829, 1915.132
801.0651, 1885.639
801.5472, 1853.752
802.0293, 1822.209
802.5114, 1793.626
802.9935, 1765.363
803.4756, 1734.719
803.9578, 1702.447
804.4399, 1671.654
804.9220, 1643.814
805.4041, 1616.577
805.8862, 1589.160
806.3683, 1561.716
806.8505, 1534.749
807.3326, 1508.071
807.8147, 1482.436
808.2968, 1458.044
808.7789, 1434.641
809.2610, 1411.821
809.7432, 1389.525
810.2253, 1367.502
810.7074, 1344.761
811.1895, 1323.079
811.6716, 1303.798
812.1537, 1286.416
812.6359, 1269.049
813.1180, 1250.995
813.6001, 1233.461
814.0822, 1216.591
814.5643, 1200.411
815.0464, 1185.515
815.5286, 1171.981
816.0107, 1158.599
816.4928, 1144.713
816.9749, 1130.909
817.4570, 1118.045
817.9391, 1106.057
818.4213, 1094.372
818.9034, 1082.894
819.3855, 1071.635
819.8676, 1060.772
820.3497, 1050.202
820.8318, 1039.696
821.3140, 1029.263
821.7961, 1019.094
822.2782, 1009.206
822.7603, 999.6507
823.2424, 989.9547
823.7245, 980.1702
824.2067, 971.0013
824.6888, 963.1348
825.1709, 955.3639
825.6530, 946.0554
826.1351, 935.8863
826.6172, 926.6614
827.0994, 919.9929
827.5815, 912.7670
828.0636, 903.7955
828.5457, 894.1339
829.0278, 885.7999
829.5099, 878.9857
829.9921, 872.5359
830.4742, 866.1585
830.9563, 860.0641
831.4384, 854.7167
831.9205, 849.8660
832.4026, 844.8196
832.8848, 838.9940
833.3669, 833.2823
833.8490, 828.2604
834.3311, 823.5959
834.8132, 818.6932
835.2953, 813.0735
835.7775, 808.0298
836.2596, 803.7552
836.7417, 800.0652
837.2238, 796.9816
837.7059, 794.3438
838.1880, 790.9848
838.6702, 786.4252
839.1523, 781.6863
839.6344, 777.8689
840.1165, 774.5099
840.5986, 770.9916
841.0807, 766.8450
841.5629, 763.0265
842.0450, 759.9722
842.5271, 757.2014
843.0092, 754.3152
843.4913, 751.3480
843.9734, 748.0386
844.4556, 744.3130
844.9377, 740.4420
845.4198, 736.4036
845.9019, 732.5412
846.3840, 729.7195
846.8661, 728.3897
847.3483, 726.7100
847.8304, 723.2375
848.3125, 719.1918
848.7946, 715.6758
849.2767, 713.0483
849.7589, 710.2704
850.2410, 707.1871
850.7231, 704.2388
851.2052, 701.7835
851.6873, 699.8088
852.1694, 698.3171
852.6516, 697.3255
853.1337, 696.0408
853.6158, 693.5336
854.0979, 690.5637
854.5800, 687.7499
855.0621, 685.1479
855.5443, 682.9034
856.0264, 681.6002
856.5085, 680.0969
856.9906, 677.7184
857.4727, 674.4796
857.9548, 671.8718
858.4370, 669.9299
858.9191, 668.2448
859.4012, 666.6318
859.8833, 665.0224
860.3654, 663.3088
860.8475, 661.5021
861.3297, 659.6974
861.8118, 657.6524
862.2939, 655.8726
862.7760, 654.6450
863.2581, 653.9142
863.7402, 653.3752
864.2224, 653.1077
864.7045, 652.7416
865.1866, 652.0656
865.6687, 651.2148
866.1508, 650.5703
866.6329, 650.0823
867.1151, 649.5734
867.5972, 649.0618
868.0793, 648.3830
868.5614, 647.2971
869.0435, 645.9462
869.5256, 644.8044
870.0078, 643.8547
870.4899, 643.2240
870.9720, 643.0743
871.4541, 643.1161
871.9362, 642.6475
872.4183, 641.7366
872.9005, 640.8797
873.3826, 640.1875
873.8647, 639.7067
874.3468, 639.7165
874.8289, 639.9000
875.3110, 639.7744
875.7932, 638.5172
876.2753, 637.9376
876.7574, 638.7107
877.2395, 639.7147
877.7216, 639.2820
878.2037, 637.2606
878.6859, 636.8287
879.1680, 638.6412
879.6501, 640.6395
880.1322, 640.3293
880.6143, 638.8817
881.0964, 637.9637
881.5786, 637.9234
882.0607, 638.2451
882.5428, 639.1985
883.0249, 640.1017
883.5070, 640.4740
883.9891, 640.2401
884.4713, 639.8981
884.9534, 639.4109
885.4355, 638.9989
885.9176, 638.8853
886.3997, 638.9479
886.8818, 639.0170
887.3640, 639.0596
887.8461, 638.8813
888.3282, 637.9706
888.8103, 637.1685
889.2924, 637.0730
889.7745, 637.6320
890.2567, 637.9535
890.7388, 638.0651
891.2209, 637.8590
891.7030, 637.2872
892.1851, 636.3771
892.6672, 634.9281
893.1494, 633.1129
893.6315, 631.6946
894.1136, 631.3922
894.5957, 631.2496
895.0778, 630.7037
895.5599, 629.9063
896.0421, 629.2676
896.5242, 628.8231
897.0063, 628.4966
897.4884, 628.2917
897.9705, 628.1824
898.4526, 628.2618
898.9348, 628.4351
899.4169, 628.2535
899.8990, 627.5853
900.3811, 626.5969
900.8632, 624.8573
901.3453, 623.1332
901.8275, 622.3240
902.3096, 623.4633
902.7917, 623.9255
903.2738, 623.3218
903.7559, 622.5738
904.2380, 622.6312
904.7202, 623.3784
905.2023, 623.7043
905.6844, 623.5320
906.1665, 623.2101
906.6486, 622.9928
907.1307, 622.7778
907.6129, 622.2811
908.0950, 621.4392
908.5771, 621.4316
909.0592, 623.0598
909.5413, 624.6441
910.0234, 625.5410
910.5056, 625.8242
910.9877, 625.7372
911.4698, 625.3164
911.9519, 625.1926
912.4340, 626.1110
912.9161, 627.1868
913.3983, 627.3784
913.8804, 626.9804
914.3625, 626.8148
914.8446, 626.7457
915.3267, 627.4827
915.8088, 629.6141
916.2910, 632.2358
916.7731, 633.3010
917.2552, 632.8567
917.7373, 632.9973
918.2194, 634.2995
918.7015, 636.0087
919.1837, 637.4378
919.6658, 638.7101
920.1479, 639.9960
920.6300, 641.3815
921.1121, 642.6939
921.5942, 643.7775
922.0764, 644.9582
922.5585, 646.4713
923.0406, 648.3191
923.5227, 650.6193
924.0048, 653.4000
924.4869, 656.0663
924.9691, 657.8890
925.4512, 659.5146
925.9333, 661.7448
926.4154, 664.5960
926.8975, 667.2522
927.3796, 669.2779
927.8618, 671.2813
928.3439, 673.4536
928.8260, 675.7735
929.3081, 678.1375
929.7902, 680.5557
930.2723, 683.2393
930.7545, 686.3909
931.2366, 689.6985
931.7187, 692.9490
932.2008, 696.0302
932.6829, 698.6974
933.1650, 700.1526
933.6472, 702.2369
934.1293, 705.3453
934.6114, 709.0068
935.0935, 712.5688
935.5756, 716.0621
936.0577, 719.5026
936.5399, 722.8704
937.0220, 726.0769
937.5041, 728.7523
937.9862, 731.3090
938.4683, 734.3190
938.9504, 738.0594
939.4326, 741.1674
939.9147, 742.7869
940.3968, 744.4881
940.8789, 747.3762
941.3610, 751.2616
941.8431, 753.6589
942.3253, 754.6273
942.8074, 755.3601
943.2895, 756.3474
943.7716, 757.6564
944.2537, 759.6509
944.7358, 762.0765
945.2180, 764.0235
945.7001, 764.5527
946.1822, 765.6338
946.6643, 767.7148
947.1464, 770.4591
947.6285, 773.3271
948.1107, 776.2718
948.5928, 778.7219
949.0749, 780.3361
949.5570, 782.0789
950.0391, 784.6218
950.5212, 787.8738
951.0034, 791.7847
951.4855, 796.9137
951.9676, 801.2919
952.4497, 804.2936
952.9318, 807.5775
953.4139, 812.8560
953.8961, 819.6562
954.3782, 825.0516
954.8603, 829.0275
955.3424, 833.0394
955.8245, 838.1194
956.3066, 843.5092
956.7888, 848.5223
957.2709, 853.2976
957.7530, 858.9013
958.2351, 865.8810
958.7172, 872.5861
959.1993, 878.6921
959.6815, 884.2245
960.1636, 888.8875
960.6457, 892.9457
961.1278, 897.2229
961.6099, 902.2986
962.0920, 907.0599
962.5742, 910.8429
963.0563, 914.0016
963.5384, 916.9765
964.0205, 920.2679
964.5026, 921.9474
964.9847, 921.7157
965.4669, 920.8378
965.9490, 920.9460
966.4311, 921.1002
966.9132, 919.1836
967.3953, 915.1694
967.8774, 910.3206
968.3596, 904.3082
968.8417, 898.6299
969.3238, 894.5447
969.8059, 891.4832
970.2880, 886.7928
970.7701, 880.3068
971.2523, 873.1930
971.7344, 865.5917
972.2165, 857.8525
972.6986, 850.3749
973.1807, 842.9947
973.6628, 835.4560
974.1450, 826.9294
974.6271, 819.2877
975.1092, 813.7392
975.5913, 808.3047
976.0734, 800.7220
976.5555, 790.9508
977.0377, 783.0258
977.5198, 777.3064
978.0019, 772.2762
978.4840, 766.8635
978.9661, 761.3798
979.4482, 756.2093
979.9304, 751.3484
980.4125, 746.2142
980.8946, 740.3785
981.3767, 734.6875
981.8588, 729.2804
982.3409, 724.1873
982.8231, 719.5827
983.3052, 715.3973
983.7873, 711.3077
984.2694, 707.2598
984.7515, 703.1356
985.2336, 698.4422
985.7158, 693.7952
986.1979, 690.0967
986.6800, 688.0248
987.1621, 685.3483
987.6442, 681.9617
988.1263, 678.2335
988.6085, 674.1016
989.0906, 669.9937
989.5727, 667.3665
990.0548, 666.1309
990.5369, 664.7072
991.0190, 662.2567
991.5012, 659.4455
991.9833, 656.2841
992.4654, 653.0455
992.9475, 650.7178
993.4296, 649.4489
993.9117, 647.8788
994.3939, 645.4996
994.8760, 642.8940
995.3581, 640.8031
995.8402, 639.0464
996.3223, 637.2254
996.8044, 634.9822
997.2866, 633.2785
997.7687, 632.6053
998.2508, 632.0266
998.7329, 630.8406
999.2150, 629.0771
999.6971, 626.9872
1000.179, 624.6371
1000.661, 622.7960
1001.143, 622.5179
1001.626, 622.5280
1002.108, 621.8742
1002.590, 620.6252
1003.072, 619.2761
1003.554, 617.8857
1004.036, 616.3679
1004.518, 614.5748
1005.000, 612.9147
1005.483, 612.4880
1005.965, 612.7493
1006.447, 612.1241
1006.929, 609.9557
1007.411, 608.0682
1007.893, 607.8510
1008.375, 607.8276
1008.857, 606.8022
1009.339, 604.6503
1009.822, 603.0733
1010.304, 602.0902
1010.786, 601.5032
1011.268, 601.4246
1011.750, 601.5273
1012.232, 601.4698
1012.714, 601.2464
1013.196, 600.8496
1013.679, 599.8780
1014.161, 599.3234
1014.643, 599.6248
1015.125, 600.0408
1015.607, 599.3328
1016.089, 597.7037
1016.571, 596.4178
1017.053, 595.6937
1017.535, 595.0064
1018.018, 594.0729
1018.500, 592.9346
1018.982, 591.4184
1019.464, 589.5167
1019.946, 588.5507
1020.428, 588.8895
1020.910, 588.7709
1021.392, 587.0585
1021.875, 584.8450
1022.357, 584.5141
1022.839, 585.3599
1023.321, 585.7463
1023.803, 584.9971
1024.285, 583.7958
1024.767, 581.8856
1025.249, 579.9260
1025.731, 578.6038
1026.214, 577.9171
1026.696, 577.1730
1027.178, 576.3364
1027.660, 575.5557
1028.142, 575.0090
1028.624, 574.5173
1029.106, 574.0052
1029.588, 573.4370
1030.071, 572.5443
1030.553, 571.0508
1031.035, 569.9120
1031.517, 569.4869
1031.999, 569.3104
1032.481, 568.5140
1032.963, 567.2811
1033.445, 566.0150
1033.927, 564.7050
1034.410, 563.7287
1034.892, 563.6135
1035.374, 563.5931
1035.856, 563.1693
1036.338, 562.3353
1036.820, 561.2092
1037.302, 559.7996
1037.784, 558.6188
1038.266, 558.1437
1038.749, 557.9328
1039.231, 557.8209
1039.713, 557.6099
1040.195, 556.7831
1040.677, 554.4425
1041.159, 552.9881
1041.641, 552.8348
1042.123, 553.1710
1042.605, 553.0919
1043.088, 552.6868
1043.570, 552.1542
1044.052, 551.5155
1044.534, 550.9558
1045.016, 550.7645
1045.498, 550.4885
1045.980, 549.9787
1046.462, 549.2043
1046.945, 547.6871
1047.427, 545.3591
1047.909, 544.1306
1048.391, 545.0338
1048.873, 546.3552
1049.355, 546.4530
1049.837, 545.7593
1050.319, 544.7883
1050.802, 543.2631
1051.284, 542.4774
1051.766, 542.7905
1052.248, 543.0737
1052.730, 542.2338
1053.212, 540.7736
1053.694, 540.4811
1054.176, 541.0970
1054.658, 541.4139
1055.141, 540.4661
1055.623, 539.5356
1056.105, 539.0641
1056.587, 538.8826
1057.069, 538.8323
1057.551, 538.9216
1058.033, 538.7548
1058.515, 538.2586
1058.998, 537.7191
1059.480, 537.2682
1059.962, 536.9854
1060.444, 537.0878
1060.926, 537.5856
1061.408, 537.6268
1061.890, 537.0588
1062.372, 536.3880
1062.854, 535.7507
1063.337, 535.1710
1063.819, 534.6558
1064.301, 534.2513
1064.783, 534.1205
1065.265, 534.5558
1065.747, 534.6611
1066.229, 534.0040
1066.711, 533.0671
1067.193, 531.9715
1067.676, 530.7626
1068.158, 530.3558
1068.640, 530.7017
1069.122, 531.1008
1069.604, 531.4612
1070.086, 531.3936
1070.568, 530.1124
1071.050, 528.3314
1071.532, 527.7023
1072.015, 528.7105
1072.497, 529.2018
1072.979, 528.8909
1073.461, 528.4005
1073.943, 528.5064
1074.425, 528.7942
1074.907, 528.7197
1075.389, 528.2379
1075.872, 527.4611
1076.354, 525.9789
1076.836, 524.8450
1077.318, 524.3909
1077.800, 524.4171
1078.282, 524.6042
1078.764, 524.8804
1079.246, 524.9655
1079.729, 524.7220
1080.211, 524.5015
1080.693, 524.5162
1081.175, 524.6100
1081.657, 524.6708
1082.139, 524.6980
1082.621, 524.6987
1083.103, 524.6740
1083.585, 524.6309
1084.068, 524.6455
1084.550, 524.5710
1085.032, 524.2715
1085.514, 523.7853
1085.996, 523.1432
1086.478, 522.0043
1086.960, 521.5820
1087.442, 522.1111
1087.925, 522.7418
1088.407, 522.7094
1088.889, 522.2147
1089.371, 521.3917
1089.853, 520.3691
1090.335, 519.8424
1090.817, 520.5251
1091.299, 521.1903
1091.781, 521.6219
1092.264, 521.8109
1092.746, 521.5684
1093.228, 521.0298
1093.710, 520.9476
1094.192, 521.5086
1094.674, 521.9299
1095.156, 521.2985
1095.638, 520.7214
1096.120, 521.3259
1096.603, 522.7833
1097.085, 522.2723
1097.567, 519.6873
1098.049, 517.7324
1098.531, 517.4775
1099.013, 518.0591
1099.495, 519.1149
1099.977, 520.1922
1100.459, 520.6838
1100.942, 520.3002
1101.424, 519.9641
1101.906, 519.7371
1102.388, 519.3646
1102.870, 518.5240
1103.352, 517.5104
1103.834, 517.0265
1104.316, 516.8492
1104.799, 516.3607
1105.281, 514.8586
1105.763, 513.7086
1106.245, 513.0714
1106.727, 512.8532
1107.209, 513.2258
1107.691, 513.9588
1108.173, 513.9625
1108.656, 513.2209
1109.138, 512.4393
1109.620, 512.1707
1110.102, 511.7739
1110.584, 510.6955
1111.066, 509.3902
1111.548, 508.9144
1112.030, 509.2429
1112.512, 509.2818
1112.995, 508.7723
1113.477, 508.3512
1113.959, 508.7354
1114.441, 509.3192
1114.923, 509.6008
1115.405, 509.5519
1115.887, 509.4313
1116.369, 509.2636
1116.852, 508.8629
1117.334, 508.1465
1117.816, 507.2066
1118.298, 505.6748
1118.780, 504.2077
1119.262, 503.9447
1119.744, 505.9283
1120.226, 506.4969
1120.708, 504.9572
1121.191, 503.4498
1121.673, 503.3357
1122.155, 504.0858
1122.637, 504.6979
1123.119, 505.0918
1123.601, 505.0434
1124.083, 503.8916
1124.565, 503.1078
1125.047, 503.0650
1125.530, 503.2388
1126.012, 503.1815
1126.494, 502.9149
1126.976, 502.3698
1127.458, 501.6299
1127.940, 501.3880
1128.422, 502.8793
1128.904, 503.9961
1129.386, 503.3848
1129.869, 502.0730
1130.351, 501.6427
1130.833, 502.0759
1131.315, 502.5441
1131.797, 502.9684
1132.279, 503.0961
1132.761, 502.6576
1133.243, 501.9113
1133.726, 500.5761
1134.208, 499.0321
1134.690, 499.3015
1135.172, 501.7762
1135.654, 502.9774
1136.136, 501.8294
1136.618, 500.1754
1137.100, 500.0840
1137.583, 500.5852
1138.065, 500.6152
1138.547, 499.9590
1139.029, 499.4652
1139.511, 499.1943
1139.993, 498.9028
1140.475, 498.4682
1140.957, 498.0036
1141.439, 497.5078
1141.922, 497.1628
1142.404, 497.3394
1142.886, 498.4603
1143.368, 499.2169
1143.850, 499.5635
1144.332, 499.4166
1144.814, 498.4964
1145.296, 497.1608
1145.779, 496.2420
1146.261, 495.6979
1146.743, 495.3799
1147.225, 495.4819
1147.707, 495.4686
1148.189, 495.3184
1148.671, 494.9654
1149.153, 494.1166
1149.635, 492.9904
1150.118, 492.8844
1150.600, 493.6516
1151.082, 494.0635
1151.564, 493.1186
1152.046, 492.1545
1152.528, 491.5977
1153.010, 491.3297
1153.492, 491.2982
1153.974, 491.4684
1154.457, 491.4526
1154.939, 491.2161
1155.421, 490.7247
1155.903, 489.1563
1156.385, 488.1179
1156.867, 489.2049
1157.349, 491.3597
1157.831, 492.2249
1158.313, 491.7779
1158.796, 491.2133
1159.278, 490.6968
1159.760, 490.3298
1160.242, 490.2413
1160.724, 490.3017
1161.206, 490.5503
1161.688, 490.9017
1162.170, 490.6759
1162.653, 489.7898
1163.135, 489.2494
1163.617, 489.4059
1164.099, 489.7623
1164.581, 489.7239
1165.063, 489.6546
1165.545, 490.1342
1166.027, 491.3145
1166.510, 491.3592
1166.992, 490.0107
1167.474, 488.9547
1167.956, 488.9175
1168.438, 489.4135
1168.920, 490.2360
1169.402, 490.9911
1169.884, 491.1078
1170.366, 490.3340
1170.849, 489.1679
1171.331, 487.3110
1171.813, 486.1583
1172.295, 486.9805
1172.777, 488.5111
1173.259, 488.6628
1173.741, 487.9588
1174.223, 487.4203
1174.706, 487.3299
1175.188, 487.4632
1175.670, 487.9669
1176.152, 488.2933
1176.634, 487.8365
1177.116, 487.0085
1177.598, 486.5712
1178.080, 486.4560
1178.563, 486.4326
1179.045, 486.5147
1179.527, 486.5971
1180.009, 486.8438
1180.491, 486.7306
1180.973, 485.1519
1181.455, 483.0443
1181.937, 483.0903
1182.419, 484.8568
1182.901, 485.7862
1183.384, 483.5800
1183.866, 482.4219
1184.348, 483.3605
1184.830, 484.9055
1185.312, 485.1725
1185.794, 484.5642
1186.276, 484.0003
1186.758, 483.5746
1187.240, 483.4658
1187.723, 484.2193
1188.205, 484.6401
1188.687, 484.3198
1189.169, 483.6841
1189.651, 483.4408
1190.133, 483.4597
1190.615, 483.4198
1191.097, 483.2722
1191.580, 482.8715
1192.062, 481.3481
1192.544, 480.6572
1193.026, 481.8877
1193.508, 483.8403
1193.990, 483.6974
1194.472, 482.0150
1194.954, 480.6887
1195.437, 480.0713
1195.919, 479.7639
1196.401, 479.8878
1196.883, 479.9409
1197.365, 479.6707
1197.847, 479.2280
1198.329, 479.0792
1198.811, 479.1430
1199.293, 479.0667
1199.776, 478.7048
1200.258, 478.4533
1200.740, 478.5117
1201.222, 478.7188
1201.704, 479.0606
1202.186, 479.4495
1202.668, 479.5044
1203.150, 479.2885
1203.633, 479.0617
1204.115, 478.9088
1204.597, 478.7488
1205.079, 478.5364
1205.561, 478.3182
1206.043, 478.1003
1206.525, 477.9071
1207.007, 478.0546
1207.490, 478.3918
1207.972, 478.1613
1208.454, 476.5270
1208.936, 475.3748
1209.418, 476.0893
1209.900, 477.0244
1210.382, 476.9924
1210.864, 476.2123
1211.346, 476.4357
1211.828, 477.4049
1212.311, 477.8399
1212.793, 476.5844
1213.275, 475.5957
1213.757, 475.7690
1214.239, 476.3198
1214.721, 476.8552
1215.203, 477.3126
1215.685, 476.9030
1216.167, 475.8459
1216.650, 475.2960
1217.132, 476.7674
1217.614, 477.5880
1218.096, 476.4639
1218.578, 474.8571
1219.060, 473.9834
1219.542, 473.7554
1220.024, 473.6183
1220.507, 473.5472
1220.989, 473.4424
1221.471, 472.9228
1221.953, 472.8476
1222.435, 473.8852
1222.917, 474.9526
1223.399, 474.6628
1223.881, 473.3944
1224.364, 473.1605
1224.846, 473.8595
1225.328, 474.4568
1225.810, 474.3100
1226.292, 474.1787
1226.774, 474.3014
1227.256, 474.4514
1227.738, 474.3819
1228.220, 474.1118
1228.703, 473.6370
1229.185, 472.9951
1229.667, 472.4383
1230.149, 472.0546
1230.631, 471.8149
1231.113, 471.7186
1231.595, 471.7239
1232.077, 471.7869
1232.560, 471.9017
1233.042, 472.0736
1233.524, 472.2924
1234.006, 472.4930
1234.488, 472.9300
1234.970, 472.8875
1235.452, 472.1102
1235.934, 471.0484
1236.417, 470.1602
1236.899, 469.5085
1237.381, 469.2885
1237.863, 469.4955
1238.345, 469.8858
1238.827, 470.9582
1239.309, 471.2407
1239.791, 470.2443
1240.273, 468.9232
1240.755, 468.6982
1241.238, 468.9929
1241.720, 468.5894
1242.202, 467.4764
1242.684, 466.9051
1243.166, 467.3306
1243.648, 467.8680
1244.130, 468.4194
1244.612, 468.8391
1245.094, 468.8496
1245.577, 468.6503
1246.059, 468.5590
1246.541, 468.5835
1247.023, 468.4129
1247.505, 467.7377
1247.987, 467.7449
1248.469, 468.8464
1248.951, 470.1036
1249.434, 470.4202
1249.916, 470.1515
1250.398, 469.5368
1250.880, 468.6586
1251.362, 468.1701
1251.844, 468.1736
1252.326, 468.2100
1252.808, 468.1823
1253.291, 468.1693
1253.773, 468.3876
1254.255, 468.5659
1254.737, 468.4322
1255.219, 467.9736
1255.701, 467.2583
1256.183, 466.1852
1256.665, 465.8536
1257.147, 466.6339
1257.630, 467.5307
1258.112, 467.7279
1258.594, 467.5559
1259.076, 467.1403
1259.558, 466.5928
1260.040, 466.3647
1260.522, 466.4521
1261.004, 466.3377
1261.487, 465.8541
1261.969, 465.5245
1262.451, 465.9632
1262.933, 466.4777
1263.415, 466.5892
1263.897, 466.4143
1264.379, 466.4796
1264.861, 466.6883
1265.344, 466.1009
1265.826, 464.3565
1266.308, 463.1670
1266.790, 464.2817
1267.272, 465.3813
1267.754, 465.2889
1268.236, 464.4463
1268.718, 463.7552
1269.200, 463.3080
1269.682, 463.6207
1270.165, 464.9027
1270.647, 465.7954
1271.129, 465.3192
1271.611, 464.8759
1272.093, 465.0014
1272.575, 465.2925
1273.057, 464.6919
1273.539, 463.6874
1274.021, 463.5589
1274.504, 464.6318
1274.986, 465.0070
1275.468, 463.8143
1275.950, 463.1095
1276.432, 463.7125
1276.914, 464.6329
1277.396, 464.1232
1277.878, 463.0117
1278.361, 462.6358
1278.843, 463.2203
1279.325, 463.4538
1279.807, 463.2525
1280.289, 462.6877
1280.771, 461.5989
1281.253, 460.7322
1281.735, 461.3195
1282.218, 462.3767
1282.700, 462.7816
1283.182, 462.4960
1283.664, 462.4639
1284.146, 462.7245
1284.628, 462.6785
1285.110, 462.1010
1285.592, 461.5212
1286.074, 461.2428
1286.557, 461.2890
1287.039, 461.8763
1287.521, 462.7753
1288.003, 463.1894
1288.485, 463.1447
1288.967, 462.9147
1289.449, 462.5230
1289.931, 462.2824
1290.414, 462.6104
1290.896, 462.9130
1291.378, 462.9880
1291.860, 462.7910
1292.342, 461.8087
1292.824, 460.4588
1293.306, 460.4822
1293.788, 462.3056
1294.271, 463.3604
1294.753, 461.8531
1295.235, 460.3785
1295.717, 459.5550
1296.199, 459.2080
1296.681, 459.0992
1297.163, 459.2376
1297.645, 459.8184
1298.127, 460.8603
1298.609, 461.3123
1299.092, 460.8258
1299.574, 460.4082
1300.056, 460.3464
1300.538, 460.2869
1301.020, 459.7653
1301.502, 459.0452
1301.984, 458.2663
1302.466, 457.5405
1302.948, 457.6977
1303.431, 458.9655
1303.913, 459.5435
1304.395, 459.1945
##END=



