##NAMES=Ushkovite
##RRUFFID=R060954
##IDEAL CHEMISTRY=MgFe^3+^_2_(P^5+^O_4_)_2_(OH)_2_&#183;8H_2_O
##LOCALITY=Linópolis, Minas Gerais, Brazil
##OWNER=RRUFF
##SOURCE=Bob Jenkins
##DESCRIPTION=Radial aggregate of pale brownish yellow bladed crystals, associated with radial aggregate of pale green atencioite, dark green rockbridgeite, and lefontite R140074
##STATUS=The identification of this mineral is confirmed by single-crystal X-ray diffraction and chemical analysis.
##URL=rruff.info/R060954
##MEASURED CHEMISTRY=Mg_1.03_Fe^3+^_2.08_(P_2.00_O_4_)_2_(OH)_2_·8H_2_O
229.5171, 44751.26
229.9992, 44744.14
230.4813, 44749.46
230.9634, 44803.41
231.4455, 44924.41
231.9276, 45011.26
232.4098, 45046.75
232.8919, 45059.58
233.3740, 45096.05
233.8561, 45177.18
234.3382, 45246.80
234.8203, 45281.28
235.3025, 45262.41
235.7846, 45283.49
236.2667, 45367.55
236.7488, 45479.60
237.2309, 45558.38
237.7130, 45590.37
238.1952, 45610.82
238.6773, 45627.27
239.1594, 45633.39
239.6415, 45660.49
240.1236, 45720.85
240.6057, 45797.05
241.0879, 45858.08
241.5700, 45897.48
242.0521, 45931.02
242.5342, 45957.83
243.0163, 45962.90
243.4984, 46010.48
243.9806, 46120.61
244.4627, 46261.59
244.9448, 46374.85
245.4269, 46449.58
245.9090, 46509.16
246.3911, 46559.24
246.8732, 46594.75
247.3554, 46629.24
247.8375, 46656.22
248.3196, 46683.31
248.8017, 46727.19
249.2838, 46793.34
249.7659, 46867.15
250.2481, 46952.74
250.7302, 47072.74
251.2123, 47134.57
251.6944, 47113.64
252.1765, 47051.47
252.6586, 47027.19
253.1408, 47058.80
253.6229, 47103.03
254.1050, 47147.51
254.5871, 47194.99
255.0692, 47235.21
255.5513, 47255.38
256.0334, 47277.00
256.5156, 47348.88
256.9977, 47505.11
257.4798, 47647.90
257.9619, 47728.91
258.4440, 47717.22
258.9261, 47762.14
259.4083, 47891.79
259.8904, 48056.68
260.3725, 48151.82
260.8546, 48133.40
261.3367, 48134.40
261.8188, 48216.41
262.3010, 48410.80
262.7831, 48550.81
263.2652, 48621.96
263.7473, 48650.09
264.2294, 48685.38
264.7115, 48737.49
265.1937, 48771.56
265.6758, 48771.30
266.1579, 48732.23
266.6400, 48683.60
267.1221, 48614.59
267.6042, 48549.07
268.0864, 48540.58
268.5685, 48616.96
269.0506, 48671.95
269.5327, 48656.45
270.0148, 48558.78
270.4969, 48494.22
270.9791, 48474.27
271.4612, 48474.29
271.9433, 48446.93
272.4254, 48378.30
272.9075, 48339.73
273.3896, 48367.68
273.8718, 48466.67
274.3539, 48554.69
274.8360, 48634.00
275.3181, 48699.74
275.8002, 48736.16
276.2823, 48734.48
276.7645, 48748.76
277.2466, 48806.18
277.7287, 48906.25
278.2108, 48984.27
278.6929, 49038.00
279.1750, 49073.51
279.6572, 49087.86
280.1393, 49075.86
280.6214, 49088.10
281.1035, 49153.57
281.5856, 49265.46
282.0677, 49349.85
282.5499, 49403.30
283.0320, 49438.63
283.5141, 49467.25
283.9962, 49489.13
284.4783, 49515.87
284.9604, 49561.00
285.4425, 49617.42
285.9247, 49633.62
286.4068, 49604.25
286.8889, 49565.69
287.3710, 49557.26
287.8531, 49577.79
288.3352, 49606.18
288.8174, 49640.38
289.2995, 49677.04
289.7816, 49706.76
290.2637, 49729.31
290.7458, 49739.38
291.2279, 49716.53
291.7101, 49668.79
292.1922, 49646.64
292.6743, 49673.63
293.1564, 49730.78
293.6385, 49780.21
294.1206, 49822.04
294.6028, 49851.08
295.0849, 49856.49
295.5670, 49845.43
296.0491, 49840.26
296.5312, 49848.36
297.0133, 49867.31
297.4955, 49898.62
297.9776, 49941.90
298.4597, 49981.62
298.9418, 49987.50
299.4239, 49981.35
299.9060, 50014.55
300.3882, 50113.00
300.8703, 50236.58
301.3524, 50321.04
301.8345, 50373.02
302.3166, 50441.33
302.7987, 50592.03
303.2809, 50771.11
303.7630, 50887.12
304.2451, 50888.13
304.7272, 50871.91
305.2093, 50963.43
305.6914, 51132.57
306.1736, 51260.48
306.6557, 51237.93
307.1378, 51152.91
307.6199, 51107.61
308.1020, 51125.34
308.5841, 51174.06
309.0663, 51251.91
309.5484, 51346.29
310.0305, 51418.71
310.5126, 51441.59
310.9947, 51441.42
311.4768, 51435.32
311.9590, 51421.29
312.4411, 51418.82
312.9232, 51455.56
313.4053, 51511.59
313.8874, 51548.75
314.3695, 51537.85
314.8517, 51513.54
315.3337, 51495.97
315.8159, 51487.76
316.2980, 51484.05
316.7801, 51468.79
317.2622, 51460.39
317.7443, 51484.07
318.2264, 51607.21
318.7086, 51714.91
319.1907, 51743.83
319.6728, 51681.43
320.1549, 51638.32
320.6370, 51650.56
321.1191, 51696.68
321.6013, 51754.61
322.0834, 51838.06
322.5655, 51911.93
323.0476, 51954.77
323.5297, 51964.56
324.0118, 51998.68
324.4940, 52092.79
324.9761, 52198.83
325.4582, 52279.95
325.9403, 52321.79
326.4224, 52348.80
326.9045, 52349.92
327.3867, 52328.43
327.8688, 52335.91
328.3509, 52401.03
328.8330, 52475.29
329.3151, 52533.02
329.7972, 52565.61
330.2794, 52594.13
330.7615, 52616.04
331.2436, 52634.84
331.7257, 52663.58
332.2078, 52707.57
332.6899, 52756.67
333.1721, 52809.81
333.6542, 52883.62
334.1363, 52924.73
334.6184, 52920.91
335.1005, 52890.67
335.5826, 52873.96
336.0648, 52868.68
336.5469, 52882.21
337.0290, 52922.05
337.5111, 52995.38
337.9932, 53055.43
338.4753, 53095.08
338.9575, 53127.24
339.4396, 53182.57
339.9217, 53273.55
340.4038, 53326.50
340.8859, 53290.58
341.3680, 53171.99
341.8502, 53150.84
342.3323, 53250.63
342.8144, 53381.87
343.2965, 53439.04
343.7786, 53422.98
344.2607, 53392.53
344.7429, 53350.19
345.2250, 53311.76
345.7071, 53350.48
346.1892, 53476.54
346.6713, 53597.74
347.1534, 53600.99
347.6355, 53515.98
348.1176, 53497.03
348.5998, 53600.27
349.0819, 53763.66
349.5640, 53878.49
350.0461, 53947.06
350.5282, 53998.88
351.0103, 54058.48
351.4925, 54114.73
351.9746, 54141.52
352.4567, 54121.01
352.9388, 54096.47
353.4209, 54119.03
353.9030, 54179.73
354.3852, 54248.75
354.8673, 54338.22
355.3494, 54415.70
355.8315, 54434.44
356.3136, 54380.11
356.7957, 54324.45
357.2779, 54324.21
357.7600, 54361.71
358.2421, 54403.32
358.7242, 54448.58
359.2063, 54483.64
359.6884, 54492.13
360.1706, 54471.20
360.6527, 54457.73
361.1348, 54449.68
361.6169, 54464.42
362.0990, 54520.46
362.5811, 54697.67
363.0633, 54843.66
363.5454, 54886.86
364.0275, 54834.01
364.5096, 54790.48
364.9917, 54793.67
365.4738, 54808.50
365.9560, 54812.00
366.4381, 54765.68
366.9202, 54749.71
367.4023, 54789.05
367.8844, 54870.92
368.3665, 54943.86
368.8487, 55004.18
369.3308, 55057.95
369.8129, 55105.93
370.2950, 55140.52
370.7771, 55185.14
371.2592, 55244.28
371.7414, 55311.50
372.2235, 55376.42
372.7056, 55437.39
373.1877, 55496.51
373.6698, 55551.61
374.1519, 55599.97
374.6341, 55655.11
375.1162, 55718.90
375.5983, 55782.82
376.0804, 55842.95
376.5625, 55905.14
377.0446, 55930.89
377.5267, 55895.96
378.0089, 55814.72
378.4910, 55784.27
378.9731, 55813.98
379.4552, 55857.15
379.9373, 55871.78
380.4194, 55860.93
380.9016, 55865.61
381.3837, 55898.77
381.8658, 55946.88
382.3479, 55972.24
382.8300, 55977.95
383.3121, 56005.10
383.7943, 56107.76
384.2764, 56250.88
384.7585, 56335.11
385.2406, 56338.09
385.7227, 56322.75
386.2048, 56364.57
386.6870, 56446.27
387.1691, 56523.22
387.6512, 56561.11
388.1333, 56584.93
388.6154, 56621.95
389.0975, 56671.93
389.5797, 56728.47
390.0618, 56786.72
390.5439, 56848.16
391.0260, 56914.20
391.5081, 57012.55
391.9902, 57093.77
392.4724, 57131.66
392.9545, 57130.63
393.4366, 57110.56
393.9187, 57057.88
394.4008, 57006.45
394.8829, 56979.62
395.3651, 56993.86
395.8472, 57016.51
396.3293, 57035.10
396.8114, 57056.53
397.2935, 57095.98
397.7756, 57206.70
398.2578, 57289.37
398.7399, 57290.05
399.2220, 57147.64
399.7041, 57095.20
400.1862, 57198.12
400.6683, 57358.44
401.1505, 57463.77
401.6326, 57486.69
402.1147, 57496.51
402.5968, 57501.30
403.0789, 57502.12
403.5610, 57519.32
404.0432, 57562.17
404.5253, 57608.20
405.0074, 57637.18
405.4895, 57642.49
405.9716, 57664.90
406.4537, 57715.86
406.9359, 57780.75
407.4180, 57816.79
407.9001, 57819.59
408.3822, 57824.18
408.8643, 57846.74
409.3464, 57886.71
409.8285, 57947.19
410.3106, 58032.76
410.7928, 58120.63
411.2749, 58187.44
411.7570, 58233.84
412.2391, 58260.29
412.7212, 58249.61
413.2033, 58226.73
413.6855, 58233.45
414.1676, 58268.97
414.6497, 58324.90
415.1318, 58412.17
415.6139, 58510.26
416.0960, 58586.38
416.5782, 58627.07
417.0603, 58649.93
417.5424, 58659.58
418.0245, 58659.80
418.5066, 58663.38
418.9887, 58664.74
419.4709, 58679.13
419.9530, 58727.67
420.4351, 58830.61
420.9172, 58903.99
421.3993, 58894.28
421.8814, 58846.09
422.3636, 58818.89
422.8457, 58849.25
423.3278, 58880.90
423.8099, 58905.70
424.2920, 58924.94
424.7741, 58919.95
425.2563, 58850.14
425.7384, 58785.82
426.2205, 58774.74
426.7026, 58849.62
427.1847, 58920.59
427.6668, 58982.33
428.1490, 59035.16
428.6311, 59078.46
429.1132, 59104.66
429.5953, 59136.05
430.0774, 59193.87
430.5595, 59286.28
431.0417, 59304.46
431.5238, 59218.83
432.0059, 59119.52
432.4880, 59145.23
432.9701, 59297.24
433.4522, 59427.18
433.9344, 59492.32
434.4165, 59503.41
434.8986, 59478.02
435.3807, 59416.68
435.8628, 59366.80
436.3449, 59378.59
436.8271, 59430.79
437.3092, 59469.00
437.7913, 59473.96
438.2734, 59483.83
438.7555, 59553.45
439.2376, 59662.34
439.7197, 59755.34
440.2018, 59787.86
440.6840, 59801.22
441.1661, 59833.90
441.6482, 59890.26
442.1303, 59933.08
442.6124, 59932.37
443.0945, 59911.41
443.5767, 59895.24
444.0588, 59868.36
444.5409, 59870.21
445.0230, 59935.82
445.5051, 60051.15
445.9872, 60133.52
446.4694, 60147.98
446.9515, 60145.53
447.4336, 60148.66
447.9157, 60155.21
448.3978, 60175.66
448.8799, 60221.41
449.3621, 60276.20
449.8442, 60314.60
450.3263, 60335.23
450.8084, 60340.11
451.2905, 60316.19
451.7726, 60266.74
452.2548, 60276.48
452.7369, 60360.36
453.2190, 60460.43
453.7011, 60532.84
454.1832, 60576.74
454.6653, 60597.82
455.1475, 60587.43
455.6296, 60570.28
456.1117, 60608.33
456.5938, 60694.28
457.0759, 60757.12
457.5580, 60740.64
458.0402, 60677.88
458.5223, 60620.58
459.0044, 60569.11
459.4865, 60553.57
459.9686, 60636.40
460.4507, 60765.64
460.9329, 60858.12
461.4150, 60844.92
461.8971, 60824.29
462.3792, 60874.69
462.8613, 60976.29
463.3434, 61052.65
463.8256, 61040.86
464.3077, 61013.71
464.7898, 61015.93
465.2719, 61064.38
465.7540, 61114.61
466.2361, 61152.50
466.7183, 61188.71
467.2004, 61237.36
467.6825, 61312.18
468.1646, 61383.76
468.6467, 61445.48
469.1288, 61497.18
469.6110, 61552.94
470.0930, 61618.29
470.5752, 61677.25
471.0573, 61718.09
471.5394, 61735.70
472.0215, 61749.97
472.5036, 61759.27
472.9857, 61767.95
473.4679, 61790.00
473.9500, 61826.50
474.4321, 61851.12
474.9142, 61847.36
475.3963, 61824.66
475.8784, 61817.03
476.3606, 61826.51
476.8427, 61836.73
477.3248, 61832.57
477.8069, 61820.92
478.2890, 61814.61
478.7711, 61819.96
479.2533, 61829.92
479.7354, 61832.62
480.2175, 61834.25
480.6996, 61850.23
481.1817, 61884.26
481.6638, 61936.32
482.1460, 62011.89
482.6281, 62111.90
483.1102, 62203.69
483.5923, 62250.62
484.0744, 62291.56
484.5565, 62361.92
485.0387, 62510.91
485.5208, 62633.91
486.0029, 62718.54
486.4850, 62765.83
486.9671, 62777.14
487.4492, 62732.39
487.9314, 62679.61
488.4135, 62637.18
488.8956, 62608.09
489.3777, 62587.74
489.8598, 62581.25
490.3419, 62581.26
490.8241, 62579.05
491.3062, 62575.75
491.7883, 62575.57
492.2704, 62577.45
492.7525, 62586.66
493.2346, 62629.93
493.7168, 62703.73
494.1989, 62753.96
494.6810, 62694.63
495.1631, 62594.56
495.6452, 62612.94
496.1273, 62776.93
496.6095, 62953.03
497.0916, 63021.42
497.5737, 63018.56
498.0558, 63001.17
498.5379, 62976.32
499.0201, 62957.08
499.5022, 62957.31
499.9843, 62972.96
500.4664, 62983.07
500.9485, 62951.91
501.4306, 62936.28
501.9127, 62971.58
502.3948, 63084.78
502.8770, 63191.39
503.3591, 63296.32
503.8412, 63385.25
504.3233, 63438.84
504.8054, 63427.18
505.2875, 63426.96
505.7697, 63448.97
506.2518, 63491.13
506.7339, 63550.97
507.2160, 63637.30
507.6981, 63710.10
508.1802, 63731.63
508.6624, 63705.01
509.1445, 63723.04
509.6266, 63801.19
510.1087, 63886.27
510.5908, 63907.97
511.0729, 63877.75
511.5551, 63835.96
512.0372, 63769.77
512.5193, 63725.82
513.0014, 63796.28
513.4835, 63957.56
513.9656, 64092.39
514.4478, 64084.93
514.9299, 64046.57
515.4120, 64081.87
515.8941, 64225.04
516.3762, 64354.29
516.8583, 64396.71
517.3405, 64403.97
517.8226, 64435.70
518.3047, 64538.11
518.7868, 64626.66
519.2689, 64684.85
519.7510, 64715.11
520.2332, 64725.08
520.7153, 64674.92
521.1974, 64659.04
521.6795, 64738.94
522.1616, 64951.51
522.6437, 65070.43
523.1259, 65069.00
523.6080, 65024.96
524.0901, 65038.85
524.5722, 65112.21
525.0543, 65164.40
525.5364, 65168.89
526.0186, 65149.83
526.5007, 65168.90
526.9828, 65217.97
527.4649, 65238.66
527.9470, 65154.29
528.4291, 65036.10
528.9113, 64977.71
529.3934, 64988.64
529.8755, 65037.34
530.3576, 65147.20
530.8397, 65265.80
531.3218, 65334.11
531.8040, 65284.36
532.2861, 65237.66
532.7682, 65246.45
533.2503, 65291.09
533.7324, 65312.19
534.2145, 65255.39
534.6967, 65221.72
535.1788, 65260.50
535.6609, 65392.12
536.1430, 65448.77
536.6251, 65389.83
537.1072, 65310.83
537.5894, 65297.88
538.0715, 65361.10
538.5536, 65432.97
539.0357, 65510.66
539.5178, 65583.79
539.9999, 65621.03
540.4821, 65624.34
540.9642, 65645.89
541.4463, 65727.14
541.9284, 65836.79
542.4105, 65907.66
542.8926, 65940.52
543.3748, 65972.30
543.8569, 66036.01
544.3390, 66110.14
544.8211, 66165.37
545.3032, 66180.54
545.7853, 66214.91
546.2675, 66345.99
546.7495, 66505.54
547.2316, 66587.14
547.7137, 66471.84
548.1959, 66372.52
548.6780, 66365.42
549.1601, 66444.65
549.6422, 66471.62
550.1243, 66403.54
550.6064, 66337.20
551.0886, 66324.83
551.5707, 66381.75
552.0528, 66429.19
552.5349, 66463.23
553.0170, 66494.77
553.4991, 66548.00
553.9813, 66621.26
554.4634, 66655.98
554.9455, 66618.49
555.4276, 66555.56
555.9097, 66567.17
556.3918, 66639.99
556.8740, 66704.45
557.3561, 66689.47
557.8382, 66661.99
558.3203, 66720.52
558.8024, 66877.16
559.2845, 66989.23
559.7667, 66906.48
560.2488, 66779.58
560.7309, 66748.87
561.2130, 66936.56
561.6951, 67097.94
562.1772, 67172.20
562.6594, 67190.80
563.1415, 67224.73
563.6236, 67282.45
564.1057, 67340.49
564.5878, 67388.78
565.0699, 67427.61
565.5521, 67493.59
566.0342, 67601.76
566.5163, 67692.15
566.9984, 67702.95
567.4805, 67642.17
567.9626, 67632.68
568.4448, 67688.22
568.9269, 67776.71
569.4090, 67883.80
569.8911, 67994.61
570.3732, 68068.73
570.8553, 68074.29
571.3375, 68055.30
571.8196, 68047.41
572.3017, 68048.59
572.7838, 68052.56
573.2659, 68055.07
573.7480, 68060.13
574.2302, 68070.24
574.7123, 68085.91
575.1944, 68103.76
575.6765, 68123.16
576.1586, 68145.86
576.6407, 68176.03
577.1229, 68237.08
577.6050, 68260.11
578.0871, 68225.30
578.5692, 68166.05
579.0513, 68147.73
579.5334, 68174.59
580.0156, 68220.45
580.4977, 68284.28
580.9798, 68357.96
581.4619, 68421.69
581.9440, 68474.50
582.4261, 68503.18
582.9083, 68472.08
583.3904, 68417.82
583.8725, 68395.05
584.3546, 68409.66
584.8367, 68447.19
585.3188, 68497.90
585.8010, 68565.11
586.2831, 68653.38
586.7652, 68818.78
587.2473, 68941.64
587.7294, 68960.11
588.2115, 68912.71
588.6937, 68909.16
589.1758, 68995.65
589.6579, 69072.86
590.1400, 69113.99
590.6221, 69119.62
591.1042, 69109.07
591.5864, 69071.64
592.0685, 69049.36
592.5506, 69086.13
593.0327, 69176.80
593.5148, 69237.73
593.9969, 69257.66
594.4791, 69269.98
594.9612, 69315.45
595.4433, 69385.19
595.9254, 69456.43
596.4075, 69516.65
596.8896, 69582.60
597.3718, 69690.26
597.8539, 69817.73
598.3360, 69901.35
598.8181, 69872.98
599.3002, 69831.01
599.7823, 69825.27
600.2645, 69862.47
600.7466, 69886.09
601.2287, 69860.17
601.7108, 69846.73
602.1929, 69885.56
602.6750, 69995.22
603.1572, 70101.95
603.6393, 70203.29
604.1214, 70304.23
604.6035, 70425.10
605.0856, 70565.67
605.5677, 70662.16
606.0499, 70678.47
606.5320, 70665.03
607.0141, 70722.02
607.4962, 70834.56
607.9783, 70939.14
608.4604, 70984.62
608.9425, 71013.24
609.4246, 71058.55
609.9067, 71122.69
610.3889, 71203.80
610.8710, 71343.59
611.3531, 71471.76
611.8352, 71534.13
612.3173, 71473.14
612.7994, 71444.25
613.2816, 71463.71
613.7637, 71513.84
614.2458, 71580.23
614.7279, 71680.55
615.2100, 71747.23
615.6921, 71762.70
616.1743, 71743.08
616.6564, 71715.81
617.1385, 71681.56
617.6206, 71687.66
618.1027, 71773.34
618.5848, 71911.81
619.0670, 72074.87
619.5491, 72257.05
620.0312, 72389.01
620.5133, 72365.98
620.9954, 72299.10
621.4775, 72304.05
621.9597, 72422.45
622.4418, 72531.39
622.9239, 72586.21
623.4060, 72609.76
623.8881, 72627.52
624.3702, 72647.55
624.8524, 72651.24
625.3345, 72624.46
625.8166, 72584.55
626.2987, 72580.02
626.7808, 72621.32
627.2629, 72656.00
627.7451, 72659.91
628.2272, 72643.87
628.7093, 72664.30
629.1914, 72720.81
629.6735, 72750.53
630.1556, 72684.79
630.6378, 72572.71
631.1199, 72482.98
631.6020, 72422.63
632.0841, 72388.06
632.5662, 72385.96
633.0483, 72405.06
633.5305, 72435.38
634.0126, 72494.72
634.4947, 72536.03
634.9768, 72545.09
635.4589, 72531.63
635.9410, 72510.23
636.4232, 72464.81
636.9053, 72440.04
637.3874, 72445.80
637.8695, 72477.68
638.3516, 72531.19
638.8337, 72611.02
639.3159, 72662.64
639.7980, 72626.23
640.2801, 72540.59
640.7622, 72534.11
641.2443, 72607.52
641.7264, 72678.91
642.2086, 72691.70
642.6907, 72666.30
643.1728, 72615.20
643.6549, 72523.44
644.1370, 72469.37
644.6191, 72495.30
645.1013, 72573.59
645.5834, 72671.88
646.0655, 72862.08
646.5476, 72966.96
647.0297, 72917.34
647.5118, 72790.55
647.9940, 72784.27
648.4761, 72928.79
648.9582, 73066.19
649.4403, 73137.46
649.9224, 73159.84
650.4045, 73205.15
650.8867, 73271.31
651.3688, 73333.75
651.8509, 73375.15
652.3330, 73403.26
652.8151, 73435.54
653.2972, 73474.55
653.7794, 73488.77
654.2615, 73428.02
654.7436, 73354.67
655.2257, 73325.65
655.7078, 73384.16
656.1899, 73428.42
656.6721, 73440.58
657.1542, 73434.98
657.6363, 73426.79
658.1184, 73416.02
658.6005, 73399.38
659.0826, 73370.73
659.5648, 73338.91
660.0469, 73340.29
660.5290, 73373.05
661.0111, 73370.18
661.4932, 73266.98
661.9753, 73130.86
662.4575, 73078.73
662.9396, 73103.95
663.4217, 73157.98
663.9038, 73239.63
664.3859, 73322.25
664.8680, 73382.96
665.3502, 73418.42
665.8323, 73453.89
666.3144, 73505.97
666.7965, 73551.30
667.2786, 73569.05
667.7607, 73517.70
668.2429, 73523.26
668.7250, 73601.50
669.2071, 73707.44
669.6892, 73781.41
670.1713, 73821.05
670.6534, 73860.51
671.1355, 73913.47
671.6176, 73953.30
672.0997, 73925.88
672.5818, 73849.98
673.0640, 73779.95
673.5461, 73753.03
674.0282, 73737.15
674.5103, 73721.42
674.9924, 73704.41
675.4745, 73670.14
675.9567, 73606.85
676.4388, 73538.61
676.9209, 73465.55
677.4030, 73384.86
677.8851, 73368.13
678.3672, 73434.08
678.8494, 73530.38
679.3315, 73620.88
679.8136, 73702.66
680.2957, 73804.20
680.7778, 73927.04
681.2599, 74040.07
681.7421, 74090.05
682.2242, 74102.58
682.7063, 74140.30
683.1884, 74230.73
683.6705, 74312.54
684.1526, 74324.07
684.6348, 74302.17
685.1169, 74303.92
685.5990, 74390.52
686.0811, 74454.76
686.5632, 74453.36
687.0453, 74415.09
687.5275, 74419.05
688.0096, 74493.14
688.4917, 74552.19
688.9738, 74558.38
689.4559, 74529.70
689.9380, 74563.83
690.4202, 74660.77
690.9023, 74763.73
691.3844, 74838.82
691.8665, 74890.50
692.3486, 74926.90
692.8307, 74947.48
693.3129, 74951.69
693.7950, 74898.79
694.2771, 74852.73
694.7592, 74875.57
695.2413, 75014.84
695.7234, 75114.79
696.2056, 75132.91
696.6877, 75114.87
697.1698, 75098.57
697.6519, 75091.87
698.1340, 75065.68
698.6161, 75014.52
699.0983, 74953.77
699.5804, 74898.49
700.0625, 74853.16
700.5446, 74843.41
701.0267, 74899.79
701.5089, 74962.38
701.9910, 74936.34
702.4731, 74856.48
702.9552, 74811.34
703.4373, 74881.73
703.9194, 74955.82
704.4016, 74964.91
704.8837, 74919.29
705.3658, 74919.67
705.8479, 75042.46
706.3300, 75119.54
706.8121, 75065.76
707.2943, 74882.25
707.7764, 74817.97
708.2585, 74891.19
708.7406, 74987.98
709.2227, 75030.31
709.7048, 75029.85
710.1870, 75010.92
710.6691, 74974.13
711.1512, 74948.44
711.6333, 74964.70
712.1154, 75000.48
712.5975, 75032.10
713.0797, 75056.81
713.5618, 75072.33
714.0439, 75051.83
714.5260, 75033.70
715.0081, 75061.54
715.4902, 75153.11
715.9724, 75251.21
716.4545, 75358.26
716.9366, 75457.91
717.4187, 75522.07
717.9008, 75550.88
718.3829, 75540.51
718.8651, 75466.84
719.3472, 75387.34
719.8293, 75383.21
720.3114, 75441.13
720.7935, 75522.58
721.2756, 75653.57
721.7578, 75762.21
722.2399, 75787.45
722.7220, 75744.77
723.2041, 75733.37
723.6862, 75820.10
724.1683, 75877.90
724.6505, 75843.53
725.1326, 75723.17
725.6147, 75704.80
726.0968, 75810.20
726.5789, 75919.15
727.0610, 75942.77
727.5432, 75905.11
728.0253, 75881.79
728.5074, 75875.91
728.9895, 75881.02
729.4716, 75908.24
729.9537, 75936.30
730.4359, 75934.85
730.9180, 75884.25
731.4001, 75867.13
731.8822, 75946.91
732.3643, 76045.77
732.8464, 76091.09
733.3285, 76038.46
733.8106, 76038.36
734.2927, 76108.80
734.7748, 76210.75
735.2570, 76325.69
735.7391, 76442.23
736.2212, 76430.18
736.7033, 76211.88
737.1854, 75974.07
737.6675, 75966.09
738.1497, 76104.82
738.6318, 76225.16
739.1139, 76257.38
739.5960, 76267.54
740.0781, 76278.46
740.5602, 76289.58
741.0424, 76294.63
741.5245, 76274.28
742.0066, 76281.98
742.4887, 76335.61
742.9708, 76423.94
743.4529, 76504.84
743.9351, 76575.41
744.4172, 76652.90
744.8993, 76742.77
745.3814, 76841.83
745.8635, 76952.66
746.3456, 77070.04
746.8278, 77173.26
747.3099, 77244.29
747.7920, 77297.75
748.2741, 77349.37
748.7562, 77402.16
749.2383, 77416.63
749.7205, 77366.33
750.2026, 77308.30
750.6847, 77277.27
751.1668, 77282.21
751.6489, 77240.37
752.1310, 77139.77
752.6132, 77062.05
753.0953, 77106.22
753.5774, 77229.20
754.0595, 77297.98
754.5416, 77295.36
755.0237, 77290.68
755.5059, 77341.86
755.9880, 77410.79
756.4701, 77460.20
756.9522, 77478.01
757.4343, 77476.02
757.9164, 77431.88
758.3986, 77381.79
758.8807, 77367.56
759.3628, 77413.10
759.8449, 77401.55
760.3270, 77312.74
760.8091, 77195.57
761.2913, 77107.23
761.7734, 77050.95
762.2555, 77025.70
762.7376, 77033.23
763.2197, 77075.48
763.7018, 77190.32
764.1840, 77333.41
764.6661, 77433.59
765.1482, 77448.09
765.6303, 77435.11
766.1124, 77351.70
766.5945, 77258.58
767.0767, 77294.48
767.5588, 77499.09
768.0409, 77694.08
768.5230, 77834.95
769.0051, 77932.48
769.4872, 77999.92
769.9694, 78044.09
770.4515, 78110.13
770.9336, 78276.74
771.4157, 78429.48
771.8978, 78440.55
772.3799, 78343.82
772.8621, 78257.77
773.3442, 78237.15
773.8263, 78222.45
774.3084, 78185.74
774.7905, 78135.82
775.2726, 78133.09
775.7548, 78197.21
776.2369, 78258.59
776.7190, 78289.45
777.2011, 78293.84
777.6832, 78264.63
778.1653, 78207.63
778.6475, 78182.36
779.1296, 78252.80
779.6117, 78355.77
780.0938, 78426.39
780.5759, 78460.82
781.0580, 78510.39
781.5402, 78600.41
782.0223, 78698.48
782.5044, 78800.63
782.9865, 78911.37
783.4686, 78936.05
783.9507, 78842.18
784.4329, 78755.50
784.9150, 78779.84
785.3971, 78887.75
785.8792, 78965.27
786.3613, 79009.50
786.8434, 79032.05
787.3256, 79006.66
787.8077, 78987.44
788.2898, 79040.84
788.7719, 79194.96
789.2540, 79317.73
789.7361, 79359.41
790.2183, 79370.02
790.7004, 79368.59
791.1825, 79332.00
791.6646, 79382.36
792.1467, 79543.38
792.6288, 79706.55
793.1110, 79751.78
793.5930, 79709.68
794.0751, 79681.98
794.5573, 79684.35
795.0394, 79679.20
795.5215, 79565.62
796.0036, 79467.95
796.4857, 79534.63
796.9678, 79943.55
797.4500, 80193.68
797.9321, 80150.66
798.4142, 80005.35
798.8963, 79926.35
799.3784, 79922.85
799.8605, 79940.34
800.3427, 79983.32
800.8248, 80017.58
801.3069, 79960.78
801.7890, 79866.05
802.2711, 79876.33
802.7532, 80062.84
803.2354, 80238.24
803.7175, 80278.80
804.1996, 80246.80
804.6817, 80216.70
805.1638, 80176.95
805.6459, 80178.13
806.1281, 80245.21
806.6102, 80329.93
807.0923, 80360.34
807.5744, 80335.79
808.0565, 80328.62
808.5386, 80353.52
809.0208, 80393.62
809.5029, 80429.53
809.9850, 80464.34
810.4671, 80503.03
810.9492, 80545.47
811.4313, 80594.16
811.9135, 80656.34
812.3956, 80722.18
812.8777, 80779.87
813.3598, 80846.60
813.8419, 80862.27
814.3240, 80800.27
814.8062, 80711.55
815.2883, 80675.98
815.7704, 80690.34
816.2525, 80733.37
816.7346, 80811.11
817.2167, 80889.06
817.6989, 80941.36
818.1810, 80966.88
818.6631, 80964.22
819.1452, 80892.11
819.6273, 80843.53
820.1094, 80850.13
820.5916, 80890.20
821.0737, 80935.91
821.5558, 80989.35
822.0379, 81043.05
822.5200, 81098.60
823.0021, 81147.46
823.4843, 81166.13
823.9664, 81164.73
824.4485, 81177.22
824.9306, 81217.24
825.4127, 81268.36
825.8948, 81327.48
826.3770, 81385.41
826.8591, 81428.73
827.3412, 81408.05
827.8233, 81432.45
828.3054, 81527.65
828.7875, 81658.73
829.2697, 81777.72
829.7518, 81887.74
830.2339, 81916.21
830.7160, 81825.42
831.1981, 81696.38
831.6802, 81640.25
832.1624, 81629.05
832.6445, 81606.45
833.1266, 81520.53
833.6087, 81461.87
834.0908, 81492.09
834.5729, 81562.79
835.0551, 81586.69
835.5372, 81542.89
836.0193, 81499.44
836.5014, 81453.23
836.9835, 81430.78
837.4656, 81521.13
837.9478, 81688.74
838.4299, 81765.89
838.9120, 81669.27
839.3941, 81539.11
839.8762, 81503.70
840.3583, 81512.99
840.8405, 81489.38
841.3226, 81346.52
841.8047, 81261.57
842.2868, 81285.50
842.7689, 81348.06
843.2510, 81330.59
843.7332, 81222.09
844.2153, 81164.16
844.6974, 81196.44
845.1795, 81247.23
845.6616, 81218.95
846.1437, 81136.48
846.6259, 81046.06
847.1080, 80951.29
847.5901, 80868.28
848.0722, 80805.36
848.5543, 80757.79
849.0364, 80721.87
849.5186, 80716.77
850.0007, 80673.29
850.4828, 80575.17
850.9649, 80461.69
851.4470, 80391.71
851.9291, 80356.87
852.4113, 80314.99
852.8934, 80257.05
853.3755, 80197.28
853.8576, 80132.93
854.3397, 80081.37
854.8218, 80064.50
855.3040, 80130.13
855.7860, 80151.98
856.2681, 80060.38
856.7502, 79984.44
857.2324, 80085.50
857.7145, 80370.80
858.1966, 80583.42
858.6787, 80693.16
859.1608, 80745.98
859.6429, 80773.80
860.1251, 80783.38
860.6072, 80786.97
861.0893, 80787.40
861.5714, 80773.77
862.0535, 80694.85
862.5356, 80633.36
863.0178, 80669.86
863.4999, 80870.30
863.9820, 80927.48
864.4641, 80807.46
864.9462, 80654.05
865.4283, 80612.07
865.9105, 80645.20
866.3926, 80658.58
866.8747, 80643.04
867.3568, 80619.59
867.8389, 80585.98
868.3210, 80564.77
868.8032, 80587.33
869.2853, 80685.73
869.7674, 80699.36
870.2495, 80573.55
870.7316, 80459.20
871.2137, 80468.82
871.6959, 80588.98
872.1780, 80680.92
872.6601, 80743.83
873.1422, 80785.17
873.6243, 80800.13
874.1064, 80801.97
874.5886, 80795.05
875.0707, 80779.09
875.5528, 80782.73
876.0349, 80803.59
876.5170, 80853.64
876.9991, 80957.77
877.4813, 81105.74
877.9634, 81141.06
878.4455, 81055.03
878.9276, 80997.27
879.4097, 81101.41
879.8918, 81265.59
880.3740, 81348.93
880.8561, 81360.85
881.3382, 81349.27
881.8203, 81320.84
882.3024, 81289.03
882.7845, 81250.69
883.2667, 81212.82
883.7488, 81199.83
884.2309, 81208.12
884.7130, 81258.49
885.1951, 81373.84
885.6772, 81518.03
886.1594, 81645.55
886.6415, 81744.45
887.1236, 81781.24
887.6057, 81645.54
888.0878, 81544.88
888.5699, 81620.90
889.0521, 81800.06
889.5342, 81907.88
890.0163, 81916.52
890.4984, 81907.25
890.9805, 81880.61
891.4626, 81862.90
891.9448, 81905.53
892.4269, 81998.07
892.9090, 82106.51
893.3911, 82227.47
893.8732, 82340.41
894.3553, 82436.02
894.8375, 82508.95
895.3196, 82550.70
895.8017, 82516.55
896.2838, 82517.23
896.7659, 82569.91
897.2480, 82635.12
897.7302, 82679.73
898.2123, 82701.66
898.6944, 82677.18
899.1765, 82602.71
899.6586, 82508.09
900.1407, 82386.71
900.6229, 82282.85
901.1050, 82261.73
901.5871, 82375.24
902.0692, 82414.36
902.5513, 82297.60
903.0334, 82180.10
903.5156, 82162.18
903.9977, 82244.45
904.4798, 82335.77
904.9619, 82435.65
905.4440, 82519.32
905.9261, 82579.44
906.4083, 82603.66
906.8904, 82555.80
907.3725, 82439.31
907.8546, 82358.27
908.3367, 82382.92
908.8188, 82405.51
909.3010, 82373.64
909.7831, 82302.93
910.2652, 82320.16
910.7473, 82429.70
911.2294, 82525.31
911.7115, 82542.33
912.1937, 82526.53
912.6758, 82541.91
913.1579, 82577.21
913.6400, 82600.52
914.1221, 82579.02
914.6042, 82566.68
915.0864, 82584.92
915.5685, 82619.10
916.0506, 82636.52
916.5327, 82635.90
917.0148, 82645.39
917.4969, 82682.73
917.9790, 82711.33
918.4611, 82635.03
918.9432, 82524.33
919.4254, 82514.20
919.9075, 82711.40
920.3896, 82896.19
920.8717, 83011.51
921.3538, 83070.71
921.8359, 83064.85
922.3181, 82963.21
922.8002, 82963.98
923.2823, 83093.81
923.7644, 83240.95
924.2465, 83242.67
924.7286, 83192.58
925.2108, 83269.84
925.6929, 83509.69
926.1750, 83714.16
926.6571, 83769.97
927.1392, 83789.40
927.6213, 83846.91
928.1035, 83946.57
928.5856, 84003.39
929.0677, 84016.95
929.5498, 84000.47
930.0319, 83949.20
930.5140, 83882.27
930.9962, 83822.20
931.4783, 83774.20
931.9604, 83759.66
932.4425, 83836.34
932.9246, 83897.58
933.4067, 83876.36
933.8889, 83807.05
934.3710, 83801.85
934.8531, 83874.03
935.3352, 83929.22
935.8173, 83935.29
936.2994, 83915.36
936.7816, 83886.85
937.2637, 83862.26
937.7458, 83872.91
938.2279, 83980.05
938.7100, 84048.13
939.1921, 83985.96
939.6743, 83886.08
940.1564, 83856.67
940.6385, 83915.55
941.1206, 83961.92
941.6027, 83992.39
942.0848, 83994.65
942.5670, 83922.47
943.0491, 83825.94
943.5312, 83792.24
944.0133, 83839.88
944.4954, 83888.32
944.9775, 83920.35
945.4597, 83930.18
945.9418, 83912.19
946.4239, 83865.84
946.9060, 83816.13
947.3881, 83759.23
947.8702, 83737.95
948.3524, 83803.98
948.8345, 83908.77
949.3166, 83992.34
949.7987, 84052.46
950.2808, 84079.95
950.7629, 84051.27
951.2451, 84008.68
951.7272, 83941.50
952.2093, 83876.12
952.6914, 83897.33
953.1735, 84011.30
953.6556, 84091.53
954.1378, 84091.18
954.6199, 84071.98
955.1020, 84108.45
955.5841, 84179.05
956.0662, 84250.81
956.5483, 84321.48
957.0305, 84381.24
957.5126, 84425.45
957.9947, 84463.80
958.4768, 84512.71
958.9589, 84574.34
959.4410, 84581.65
959.9232, 84527.22
960.4053, 84477.10
960.8874, 84483.22
961.3695, 84524.70
961.8516, 84590.19
962.3337, 84677.13
962.8159, 84740.38
963.2980, 84739.81
963.7801, 84757.74
964.2622, 84846.75
964.7443, 84975.05
965.2264, 84956.98
965.7086, 84810.29
966.1907, 84710.95
966.6728, 84792.41
967.1549, 84899.92
967.6370, 84904.51
968.1191, 84840.02
968.6013, 84772.86
969.0834, 84655.17
969.5655, 84645.14
970.0476, 84796.66
970.5297, 84997.41
971.0118, 85100.40
971.4940, 85117.35
971.9761, 85094.55
972.4582, 85033.45
972.9403, 84976.23
973.4224, 84957.59
973.9045, 84952.25
974.3867, 84921.24
974.8688, 84836.44
975.3509, 84895.87
975.8330, 85156.01
976.3151, 85396.17
976.7972, 85462.45
977.2794, 85406.97
977.7615, 85362.38
978.2436, 85327.55
978.7257, 85299.08
979.2078, 85271.48
979.6899, 85250.86
980.1720, 85238.56
980.6541, 85234.41
981.1362, 85236.01
981.6183, 85239.86
982.1005, 85275.39
982.5826, 85361.11
983.0647, 85451.14
983.5468, 85474.98
984.0289, 85458.10
984.5110, 85446.90
984.9932, 85460.30
985.4753, 85461.08
985.9574, 85418.16
986.4395, 85377.01
986.9216, 85367.12
987.4037, 85389.85
987.8859, 85436.58
988.3680, 85508.83
988.8501, 85557.55
989.3322, 85502.73
989.8143, 85435.64
990.2964, 85485.20
990.7786, 85628.47
991.2607, 85694.89
991.7428, 85554.88
992.2249, 85470.84
992.7070, 85521.16
993.1891, 85647.63
993.6713, 85700.90
994.1534, 85695.48
994.6355, 85715.20
995.1176, 85799.08
995.5997, 85881.26
996.0818, 85900.61
996.5640, 85895.91
997.0461, 85913.70
997.5282, 85970.77
998.0103, 86015.78
998.4924, 86048.59
998.9745, 86067.33
999.4567, 86034.75
999.9388, 85993.78
1000.421, 86084.63
1000.903, 86297.28
1001.385, 86480.20
1001.867, 86551.43
1002.349, 86570.24
1002.831, 86534.63
1003.314, 86469.34
1003.796, 86467.24
1004.278, 86535.91
1004.760, 86600.56
1005.242, 86646.18
1005.724, 86665.75
1006.206, 86632.10
1006.688, 86572.92
1007.171, 86533.57
1007.653, 86537.21
1008.135, 86543.16
1008.617, 86560.63
1009.099, 86563.29
1009.581, 86514.76
1010.063, 86420.81
1010.545, 86376.36
1011.027, 86383.19
1011.510, 86419.24
1011.992, 86478.73
1012.474, 86551.15
1012.956, 86640.45
1013.438, 86739.84
1013.920, 86801.09
1014.402, 86814.13
1014.884, 86808.63
1015.367, 86787.22
1015.849, 86759.80
1016.331, 86743.13
1016.813, 86736.59
1017.295, 86739.09
1017.777, 86755.90
1018.259, 86771.81
1018.741, 86782.30
1019.223, 86790.07
1019.706, 86802.30
1020.188, 86825.75
1020.670, 86792.59
1021.152, 86693.93
1021.634, 86643.30
1022.116, 86788.66
1022.598, 86987.59
1023.080, 87053.55
1023.563, 87008.41
1024.045, 87030.30
1024.527, 87249.27
1025.009, 87394.91
1025.491, 87387.44
1025.973, 87296.45
1026.455, 87247.61
1026.937, 87239.91
1027.419, 87282.30
1027.901, 87395.87
1028.384, 87493.38
1028.866, 87509.62
1029.348, 87488.78
1029.830, 87474.79
1030.312, 87478.69
1030.794, 87448.09
1031.276, 87377.34
1031.758, 87314.77
1032.241, 87290.45
1032.723, 87301.14
1033.205, 87362.74
1033.687, 87458.61
1034.169, 87525.04
1034.651, 87463.70
1035.133, 87467.81
1035.615, 87605.72
1036.098, 87800.28
1036.580, 87915.97
1037.062, 87956.23
1037.544, 87960.59
1038.026, 87923.27
1038.508, 87910.59
1038.990, 88032.17
1039.472, 88163.94
1039.954, 88171.41
1040.437, 88019.14
1040.919, 87962.39
1041.401, 88035.73
1041.883, 88091.91
1042.365, 88038.44
1042.847, 87932.56
1043.329, 87899.42
1043.811, 87915.45
1044.293, 87907.91
1044.776, 87805.92
1045.258, 87736.93
1045.740, 87762.56
1046.222, 87808.30
1046.704, 87751.58
1047.186, 87597.52
1047.668, 87604.81
1048.150, 87806.34
1048.633, 87989.81
1049.115, 87914.70
1049.597, 87789.68
1050.079, 87803.12
1050.561, 87970.29
1051.043, 88085.57
1051.525, 88128.70
1052.007, 88168.77
1052.490, 88233.13
1052.972, 88303.03
1053.454, 88336.54
1053.936, 88346.46
1054.418, 88360.70
1054.900, 88364.67
1055.382, 88413.73
1055.864, 88566.22
1056.346, 88724.13
1056.828, 88809.68
1057.311, 88822.10
1057.793, 88806.46
1058.275, 88764.13
1058.757, 88738.95
1059.239, 88800.48
1059.721, 88859.23
1060.203, 88846.20
1060.685, 88772.26
1061.168, 88692.71
1061.650, 88608.03
1062.132, 88538.41
1062.614, 88493.95
1063.096, 88456.45
1063.578, 88380.07
1064.060, 88298.38
1064.542, 88275.45
1065.025, 88332.80
1065.507, 88398.27
1065.989, 88474.45
1066.471, 88522.11
1066.953, 88501.70
1067.435, 88433.23
1067.917, 88478.25
1068.399, 88619.27
1068.881, 88711.42
1069.364, 88634.01
1069.846, 88536.91
1070.328, 88474.80
1070.810, 88470.02
1071.292, 88571.21
1071.774, 88833.70
1072.256, 88979.72
1072.738, 88974.65
1073.220, 88921.56
1073.703, 88912.48
1074.185, 88921.95
1074.667, 88917.91
1075.149, 88898.58
1075.631, 88875.46
1076.113, 88856.51
1076.595, 88830.44
1077.077, 88795.63
1077.559, 88756.27
1078.042, 88709.17
1078.524, 88665.23
1079.006, 88665.19
1079.488, 88740.55
1079.970, 88801.05
1080.452, 88774.41
1080.934, 88732.98
1081.416, 88731.32
1081.899, 88769.62
1082.381, 88837.50
1082.863, 88934.20
1083.345, 89041.60
1083.827, 89177.19
1084.309, 89288.84
1084.791, 89291.06
1085.273, 89233.25
1085.755, 89242.16
1086.238, 89384.25
1086.720, 89477.78
1087.202, 89499.14
1087.684, 89491.63
1088.166, 89513.63
1088.648, 89541.61
1089.130, 89500.61
1089.612, 89390.16
1090.094, 89350.15
1090.577, 89529.16
1091.059, 89685.47
1091.541, 89727.08
1092.023, 89695.65
1092.505, 89691.77
1092.987, 89719.29
1093.469, 89818.62
1093.951, 90037.52
1094.434, 90213.98
1094.916, 90189.95
1095.398, 90097.01
1095.880, 90057.19
1096.362, 90075.73
1096.844, 90121.98
1097.326, 90199.74
1097.808, 90263.16
1098.291, 90262.99
1098.773, 90249.92
1099.255, 90275.75
1099.737, 90338.91
1100.219, 90439.68
1100.701, 90688.63
1101.183, 90766.17
1101.665, 90597.70
1102.147, 90381.58
1102.630, 90349.03
1103.112, 90435.94
1103.594, 90502.20
1104.076, 90535.95
1104.558, 90566.65
1105.040, 90618.91
1105.522, 90648.48
1106.004, 90621.27
1106.486, 90573.23
1106.969, 90619.80
1107.451, 90741.70
1107.933, 90812.91
1108.415, 90796.02
1108.897, 90748.41
1109.379, 90704.20
1109.861, 90653.64
1110.343, 90578.38
1110.826, 90478.70
1111.308, 90454.12
1111.790, 90512.96
1112.272, 90554.69
1112.754, 90508.40
1113.236, 90444.90
1113.718, 90433.46
1114.200, 90461.39
1114.682, 90509.48
1115.165, 90607.06
1115.647, 90647.05
1116.129, 90613.73
1116.611, 90554.13
1117.093, 90482.48
1117.575, 90424.76
1118.057, 90449.74
1118.539, 90544.42
1119.021, 90620.59
1119.504, 90649.84
1119.986, 90652.63
1120.468, 90629.25
1120.950, 90591.46
1121.432, 90549.16
1121.914, 90510.52
1122.396, 90506.86
1122.878, 90547.38
1123.361, 90589.05
1123.843, 90563.52
1124.325, 90584.14
1124.807, 90754.13
1125.289, 91019.14
1125.771, 91047.32
1126.253, 90857.88
1126.735, 90820.68
1127.218, 91142.31
1127.700, 91472.27
1128.182, 91479.93
1128.664, 91363.92
1129.146, 91357.10
1129.628, 91491.31
1130.110, 91564.76
1130.592, 91566.88
1131.074, 91570.66
1131.557, 91619.73
1132.039, 91697.44
1132.521, 91813.45
1133.003, 91939.23
1133.485, 92006.45
1133.967, 92011.50
1134.449, 91938.61
1134.931, 91761.61
1135.413, 91592.20
1135.896, 91560.95
1136.378, 91614.69
1136.860, 91665.93
1137.342, 91709.73
1137.824, 91751.30
1138.306, 91800.87
1138.788, 91834.46
1139.270, 91843.50
1139.752, 91833.59
1140.235, 91782.84
1140.717, 91721.11
1141.199, 91769.07
1141.681, 91960.45
1142.163, 92104.85
1142.645, 92079.18
1143.127, 92008.38
1143.609, 91949.63
1144.092, 91900.08
1144.574, 91848.05
1145.056, 91796.39
1145.538, 91748.26
1146.020, 91689.92
1146.502, 91683.66
1146.984, 91855.43
1147.466, 92038.75
1147.948, 92077.13
1148.431, 91961.19
1148.913, 91856.74
1149.395, 91762.01
1149.877, 91755.54
1150.359, 91945.16
1150.841, 92176.13
1151.323, 92345.34
1151.805, 92460.57
1152.287, 92538.52
1152.770, 92567.22
1153.252, 92593.41
1153.734, 92615.41
1154.216, 92644.48
1154.698, 92694.10
1155.180, 92753.70
1155.662, 92820.05
1156.144, 92889.14
1156.627, 92941.97
1157.109, 92991.84
1157.591, 92996.13
1158.073, 92942.30
1158.555, 92865.72
1159.037, 92791.77
1159.519, 92731.57
1160.001, 92687.84
1160.484, 92660.59
1160.966, 92724.84
1161.448, 92995.62
1161.930, 93156.05
1162.412, 93085.47
1162.894, 92902.51
1163.376, 92826.16
1163.858, 92820.44
1164.340, 92804.26
1164.823, 92755.04
1165.305, 92724.50
1165.787, 92757.29
1166.269, 92773.63
1166.751, 92721.27
1167.233, 92635.63
1167.715, 92662.41
1168.197, 92765.35
1168.679, 92800.56
1169.162, 92621.84
1169.644, 92537.04
1170.126, 92721.84
1170.608, 92970.91
1171.090, 93158.05
1171.572, 93280.34
1172.054, 93305.39
1172.536, 93250.58
1173.019, 93258.65
1173.501, 93508.66
1173.983, 93716.95
1174.465, 93706.53
1174.947, 93618.01
1175.429, 93607.68
1175.911, 93675.03
1176.393, 93750.50
1176.875, 93829.86
1177.358, 93894.25
1177.840, 93930.68
1178.322, 93949.41
1178.804, 93942.39
1179.286, 93927.14
1179.768, 93935.42
1180.250, 93967.05
1180.732, 94027.38
1181.214, 94116.56
1181.697, 94236.09
1182.179, 94468.73
1182.661, 94662.88
1183.143, 94648.82
1183.625, 94473.42
1184.107, 94420.06
1184.589, 94502.18
1185.071, 94513.06
1185.554, 94382.22
1186.036, 94248.41
1186.518, 94276.98
1187.000, 94355.70
1187.482, 94358.02
1187.964, 94277.02
1188.446, 94288.94
1188.928, 94418.27
1189.411, 94453.70
1189.893, 94268.63
1190.375, 94055.45
1190.857, 94052.50
1191.339, 94149.00
1191.821, 94200.37
1192.303, 94172.59
1192.785, 94194.51
1193.267, 94271.88
1193.750, 94363.32
1194.232, 94464.68
1194.714, 94545.59
1195.196, 94546.71
1195.678, 94507.80
1196.160, 94501.97
1196.642, 94575.57
1197.124, 94585.05
1197.606, 94515.24
1198.089, 94448.01
1198.571, 94448.38
1199.053, 94485.04
1199.535, 94529.70
1200.017, 94576.85
1200.499, 94611.75
1200.981, 94618.12
1201.463, 94653.71
1201.945, 94731.90
1202.428, 94800.16
1202.910, 94784.14
1203.392, 94742.88
1203.874, 94753.05
1204.356, 94813.19
1204.838, 94899.31
1205.320, 95021.89
1205.802, 95141.07
1206.285, 95261.49
1206.767, 95341.71
1207.249, 95273.48
1207.731, 95165.80
1208.213, 95202.41
1208.695, 95383.22
1209.177, 95495.46
1209.659, 95491.87
1210.141, 95465.39
1210.624, 95419.85
1211.106, 95400.54
1211.588, 95509.91
1212.070, 95666.55
1212.552, 95743.89
1213.034, 95719.66
1213.516, 95700.45
1213.998, 95712.10
1214.480, 95686.66
1214.963, 95577.27
1215.445, 95472.30
1215.927, 95564.84
1216.409, 95740.09
1216.891, 95805.26
1217.373, 95703.81
1217.855, 95633.60
1218.337, 95614.13
1218.820, 95623.93
1219.302, 95673.52
1219.784, 95720.78
1220.266, 95655.91
1220.748, 95548.80
1221.230, 95525.06
1221.712, 95650.04
1222.194, 95733.51
1222.677, 95748.34
1223.159, 95771.30
1223.641, 95849.66
1224.123, 95951.33
1224.605, 96029.12
1225.087, 96087.22
1225.569, 96132.41
1226.051, 96153.79
1226.533, 96183.97
1227.016, 96218.95
1227.498, 96276.34
1227.980, 96398.47
1228.462, 96528.44
1228.944, 96546.70
1229.426, 96504.59
1229.908, 96517.03
1230.390, 96667.67
1230.872, 96768.30
1231.355, 96812.91
1231.837, 96823.05
1232.319, 96792.48
1232.801, 96754.52
1233.283, 96758.03
1233.765, 96792.94
1234.247, 96825.10
1234.729, 96813.83
1235.212, 96897.71
1235.694, 97109.59
1236.176, 97300.50
1236.658, 97301.10
1237.140, 97222.55
1237.622, 97195.19
1238.104, 97208.35
1238.586, 97196.02
1239.068, 97126.36
1239.551, 97128.33
1240.033, 97227.63
1240.515, 97347.08
1240.997, 97436.15
1241.479, 97493.23
1241.961, 97520.06
1242.443, 97515.23
1242.925, 97462.02
1243.407, 97339.57
1243.890, 97272.97
1244.372, 97283.04
1244.854, 97335.06
1245.336, 97392.13
1245.818, 97470.77
1246.300, 97596.80
1246.782, 97759.13
1247.264, 97894.00
1247.747, 97999.20
1248.229, 98066.98
1248.711, 98094.25
1249.193, 98085.21
1249.675, 98023.05
1250.157, 97946.66
1250.639, 97898.34
1251.121, 97872.88
1251.604, 97810.66
1252.086, 97711.48
1252.568, 97687.88
1253.050, 97786.14
1253.532, 97858.89
1254.014, 97677.23
1254.496, 97512.00
1254.978, 97630.92
1255.460, 97952.05
##END=



