##NAMES=Uvarovite
##RRUFFID=R061041
##IDEAL CHEMISTRY=Ca_3_Cr^3+^_2_(SiO_4_)_3_
##LOCALITY=Outokumpu, Finland
##OWNER=RRUFF
##SOURCE=Royal Ontario Museum
##DESCRIPTION=Emerald-green euhedral crystal
##STATUS=The identification of this mineral has been confirmed by X-ray diffraction and chemical analysis
##URL=rruff.info/R061041
##MEASURED CHEMISTRY=(Ca_2.93_Mg_0.05_Mn_0.01_[box]_0.01_)_Σ=3.00_(Cr_1.23_Al_0.72_Fe^3+^_0.03_Ti_0.02_)_Σ=2_(Si_1.00_O_4_)_3_
187.0960, 7648.675
187.5781, 7675.138
188.0602, 7694.046
188.5423, 7700.306
189.0245, 7691.178
189.5066, 7681.964
189.9887, 7668.920
190.4708, 7662.772
190.9529, 7676.825
191.4350, 7718.120
191.9172, 7767.408
192.3993, 7799.860
192.8814, 7812.830
193.3635, 7821.004
193.8456, 7825.111
194.3277, 7828.442
194.8099, 7831.937
195.2920, 7834.913
195.7741, 7843.028
196.2562, 7867.382
196.7383, 7912.911
197.2204, 7951.186
197.7026, 7965.257
198.1847, 7972.967
198.6668, 7989.059
199.1489, 8018.193
199.6310, 8047.241
200.1131, 8055.253
200.5953, 8036.135
201.0774, 8029.864
201.5595, 8062.995
202.0416, 8104.891
202.5237, 8134.568
203.0058, 8147.329
203.4880, 8153.209
203.9701, 8164.170
204.4522, 8181.472
204.9343, 8194.675
205.4164, 8192.384
205.8985, 8190.473
206.3807, 8202.826
206.8628, 8232.103
207.3449, 8262.172
207.8270, 8272.678
208.3091, 8260.990
208.7912, 8256.964
209.2734, 8274.092
209.7555, 8295.939
210.2376, 8313.930
210.7197, 8326.848
211.2018, 8332.599
211.6839, 8320.436
212.1661, 8288.838
212.6482, 8281.874
213.1303, 8329.422
213.6124, 8386.787
214.0945, 8427.029
214.5766, 8448.071
215.0588, 8457.438
215.5409, 8451.157
216.0230, 8430.273
216.5051, 8434.838
216.9872, 8487.500
217.4693, 8551.765
217.9515, 8608.689
218.4336, 8656.576
218.9157, 8692.621
219.3978, 8707.477
219.8799, 8704.241
220.3620, 8712.740
220.8442, 8741.960
221.3263, 8777.185
221.8084, 8811.596
222.2905, 8844.055
222.7726, 8869.604
223.2547, 8878.735
223.7369, 8876.166
224.2190, 8888.459
224.7011, 8928.322
225.1832, 8966.491
225.6653, 8982.344
226.1474, 8980.741
226.6296, 8977.074
227.1117, 8972.178
227.5938, 8971.011
228.0759, 8992.947
228.5580, 9050.679
229.0401, 9107.086
229.5223, 9133.532
230.0044, 9140.507
230.4865, 9150.525
230.9686, 9174.263
231.4507, 9207.201
231.9328, 9240.971
232.4150, 9275.756
232.8971, 9310.772
233.3792, 9342.781
233.8613, 9374.948
234.3434, 9413.791
234.8255, 9463.431
235.3077, 9519.373
235.7898, 9575.014
236.2719, 9629.637
236.7540, 9688.546
237.2361, 9758.638
237.7182, 9834.744
238.2004, 9910.210
238.6825, 9987.086
239.1646, 10058.99
239.6467, 10117.79
240.1288, 10163.61
240.6109, 10205.81
241.0931, 10263.51
241.5752, 10312.10
242.0573, 10310.77
242.5394, 10240.41
243.0215, 10146.18
243.5036, 10059.04
243.9858, 9977.691
244.4679, 9889.660
244.9500, 9781.325
245.4321, 9671.583
245.9142, 9592.064
246.3963, 9547.622
246.8785, 9520.106
247.3606, 9508.034
247.8427, 9506.517
248.3248, 9498.000
248.8069, 9472.108
249.2890, 9444.156
249.7712, 9441.522
250.2533, 9468.274
250.7354, 9493.938
251.2175, 9503.443
251.6996, 9505.082
252.1817, 9514.049
252.6639, 9534.486
253.1460, 9561.280
253.6281, 9590.506
254.1102, 9623.714
254.5923, 9648.074
255.0744, 9656.109
255.5566, 9656.505
256.0387, 9657.200
256.5208, 9659.565
257.0029, 9667.096
257.4850, 9684.900
257.9671, 9715.095
258.4492, 9742.040
258.9314, 9757.081
259.4135, 9774.502
259.8956, 9811.021
260.3777, 9865.205
260.8598, 9915.354
261.3419, 9942.884
261.8241, 9946.461
262.3062, 9956.764
262.7883, 9976.934
263.2704, 9999.965
263.7525, 10021.15
264.2346, 10042.06
264.7168, 10067.89
265.1989, 10101.71
265.6810, 10143.54
266.1631, 10192.91
266.6452, 10259.27
267.1273, 10321.88
267.6095, 10374.04
268.0916, 10419.15
268.5737, 10464.29
269.0558, 10513.24
269.5379, 10562.23
270.0201, 10598.30
270.5022, 10616.06
270.9843, 10625.63
271.4664, 10636.25
271.9485, 10634.85
272.4306, 10602.55
272.9128, 10534.20
273.3949, 10447.44
273.8770, 10374.81
274.3591, 10327.54
274.8412, 10273.99
275.3233, 10192.24
275.8055, 10119.84
276.2876, 10088.60
276.7697, 10099.87
277.2518, 10126.93
277.7339, 10138.37
278.2160, 10129.07
278.6982, 10124.85
279.1803, 10132.58
279.6624, 10139.08
280.1445, 10137.67
280.6266, 10129.65
281.1087, 10120.82
281.5909, 10116.08
282.0730, 10115.20
282.5551, 10112.80
283.0372, 10105.35
283.5193, 10100.82
284.0014, 10108.76
284.4836, 10120.48
284.9657, 10120.38
285.4478, 10097.42
285.9299, 10059.63
286.4120, 10030.20
286.8941, 10011.00
287.3763, 9996.673
287.8584, 9982.040
288.3405, 9972.356
288.8226, 9975.488
289.3047, 9996.145
289.7868, 10023.30
290.2690, 10040.17
290.7511, 10044.76
291.2332, 10057.85
291.7153, 10095.06
292.1974, 10137.22
292.6795, 10167.84
293.1617, 10185.04
293.6438, 10193.39
294.1259, 10189.56
294.6080, 10177.13
295.0901, 10176.52
295.5722, 10195.55
296.0544, 10221.78
296.5365, 10242.24
297.0186, 10257.30
297.5007, 10274.25
297.9828, 10296.68
298.4649, 10322.43
298.9471, 10347.97
299.4292, 10372.95
299.9113, 10398.36
300.3934, 10424.48
300.8755, 10451.68
301.3576, 10482.01
301.8398, 10524.73
302.3219, 10563.84
302.8040, 10579.93
303.2861, 10576.84
303.7682, 10581.95
304.2503, 10613.80
304.7325, 10667.15
305.2146, 10712.91
305.6967, 10750.08
306.1788, 10782.22
306.6609, 10804.70
307.1430, 10823.95
307.6252, 10855.98
308.1073, 10908.93
308.5894, 10967.40
309.0715, 10996.71
309.5536, 10966.98
310.0357, 10951.93
310.5179, 10960.01
311.0000, 10979.81
311.4821, 11004.02
311.9642, 11029.97
312.4463, 11054.33
312.9284, 11072.10
313.4106, 11080.00
313.8927, 11093.96
314.3748, 11112.28
314.8569, 11137.38
315.3390, 11172.07
315.8211, 11215.01
316.3033, 11264.18
316.7854, 11322.55
317.2675, 11386.86
317.7496, 11415.49
318.2317, 11359.43
318.7138, 11327.38
319.1960, 11355.87
319.6781, 11419.91
320.1602, 11487.34
320.6423, 11544.40
321.1244, 11593.97
321.6065, 11641.24
322.0887, 11685.68
322.5708, 11728.45
323.0529, 11755.90
323.5350, 11790.13
324.0171, 11854.37
324.4992, 11952.95
324.9814, 12054.37
325.4635, 12128.20
325.9456, 12176.92
326.4277, 12224.91
326.9098, 12274.92
327.3919, 12326.32
327.8741, 12378.96
328.3562, 12432.66
328.8383, 12486.39
329.3204, 12535.87
329.8025, 12586.49
330.2846, 12652.61
330.7668, 12737.63
331.2489, 12814.28
331.7310, 12854.30
332.2131, 12869.27
332.6952, 12905.27
333.1773, 12982.13
333.6595, 13065.91
334.1416, 13141.38
334.6237, 13207.13
335.1058, 13251.34
335.5879, 13261.11
336.0700, 13258.87
336.5522, 13308.54
337.0343, 13450.87
337.5164, 13564.88
337.9985, 13606.62
338.4806, 13620.18
338.9627, 13650.79
339.4449, 13710.24
339.9270, 13793.10
340.4091, 13897.44
340.8912, 14039.52
341.3733, 14140.68
341.8554, 14171.98
342.3376, 14194.99
342.8197, 14243.53
343.3018, 14311.81
343.7839, 14372.72
344.2660, 14402.83
344.7481, 14409.41
345.2303, 14453.81
345.7124, 14574.58
346.1945, 14683.26
346.6766, 14768.27
347.1587, 14831.19
347.6408, 14866.90
348.1230, 14872.11
348.6051, 14874.27
349.0872, 14926.97
349.5693, 15047.76
350.0514, 15136.65
350.5335, 15145.26
351.0157, 15139.04
351.4978, 15161.20
351.9799, 15212.40
352.4620, 15262.29
352.9441, 15280.06
353.4262, 15278.26
353.9084, 15304.86
354.3905, 15370.53
354.8726, 15445.85
355.3547, 15502.17
355.8368, 15550.95
356.3189, 15619.95
356.8011, 15729.96
357.2832, 15851.88
357.7653, 15956.47
358.2474, 16047.16
358.7295, 16146.52
359.2116, 16261.99
359.6938, 16396.74
360.1759, 16559.47
360.6580, 16734.44
361.1401, 16957.91
361.6222, 17258.25
362.1043, 17604.22
362.5865, 17955.70
363.0686, 18304.67
363.5507, 18665.48
364.0328, 19053.77
364.5149, 19473.46
364.9970, 19910.88
365.4792, 20402.26
365.9613, 20877.83
366.4434, 21289.65
366.9255, 21655.63
367.4076, 22028.08
367.8897, 22449.95
368.3719, 22895.02
368.8540, 23241.34
369.3361, 23486.13
369.8182, 23619.48
370.3003, 23687.48
370.7824, 23632.78
371.2646, 23384.56
371.7467, 22924.97
372.2288, 22331.21
372.7109, 21672.91
373.1930, 20947.64
373.6751, 20217.44
374.1573, 19458.59
374.6394, 18737.03
375.1215, 18089.31
375.6036, 17512.03
376.0857, 16982.21
376.5678, 16487.04
377.0500, 16034.71
377.5321, 15651.03
378.0142, 15339.45
378.4963, 15054.91
378.9784, 14770.89
379.4605, 14498.58
379.9427, 14263.38
380.4248, 14074.24
380.9069, 13907.82
381.3890, 13750.17
381.8711, 13606.52
382.3532, 13488.09
382.8354, 13398.58
383.3175, 13329.19
383.7996, 13270.11
384.2817, 13229.64
384.7638, 13173.04
385.2459, 13076.24
385.7281, 12983.80
386.2102, 12925.96
386.6923, 12899.06
387.1744, 12882.66
387.6565, 12862.12
388.1386, 12839.00
388.6208, 12824.74
389.1029, 12827.62
389.5850, 12828.62
390.0671, 12819.34
390.5492, 12809.36
391.0313, 12810.04
391.5135, 12824.48
391.9956, 12843.10
392.4777, 12851.94
392.9598, 12849.48
393.4419, 12854.14
393.9240, 12865.84
394.4062, 12888.04
394.8883, 12929.10
395.3704, 12982.99
395.8525, 13028.56
396.3346, 13049.41
396.8167, 13058.64
397.2989, 13079.34
397.7810, 13112.34
398.2631, 13137.02
398.7452, 13136.87
399.2273, 13124.45
399.7094, 13132.76
400.1916, 13180.27
400.6737, 13211.44
401.1558, 13183.72
401.6379, 13133.14
402.1200, 13124.25
402.6021, 13171.76
403.0843, 13224.90
403.5664, 13223.22
404.0485, 13154.27
404.5306, 13093.20
405.0127, 13028.26
405.4948, 12981.51
405.9770, 12979.02
406.4591, 13001.50
406.9412, 13008.10
407.4233, 12975.18
407.9054, 12918.35
408.3875, 12880.46
408.8697, 12858.40
409.3518, 12863.49
409.8339, 12924.28
410.3160, 12991.14
410.7981, 13021.92
411.2802, 13015.14
411.7624, 13010.03
412.2445, 13048.83
412.7266, 13119.67
413.2087, 13162.11
413.6908, 13163.86
414.1729, 13160.10
414.6551, 13171.60
415.1372, 13193.37
415.6193, 13218.36
416.1014, 13249.53
416.5835, 13277.79
417.0656, 13296.49
417.5478, 13306.76
418.0299, 13308.73
418.5120, 13299.51
418.9941, 13293.09
419.4762, 13315.34
419.9583, 13385.51
420.4405, 13423.18
420.9226, 13398.82
421.4047, 13363.12
421.8868, 13349.94
422.3689, 13358.17
422.8510, 13370.74
423.3332, 13375.90
423.8153, 13375.50
424.2974, 13379.38
424.7795, 13393.79
425.2616, 13402.88
425.7437, 13396.34
426.2259, 13388.83
426.7080, 13397.31
427.1901, 13423.95
427.6722, 13449.60
428.1543, 13452.64
428.6364, 13434.90
429.1186, 13420.36
429.6007, 13410.48
430.0828, 13403.76
430.5649, 13404.96
431.0470, 13408.26
431.5291, 13399.01
432.0113, 13352.52
432.4934, 13316.31
432.9755, 13354.53
433.4576, 13443.86
433.9397, 13484.08
434.4218, 13429.93
434.9040, 13339.25
435.3861, 13308.49
435.8682, 13364.28
436.3503, 13395.29
436.8324, 13368.87
437.3145, 13337.11
437.7967, 13341.73
438.2788, 13376.78
438.7609, 13409.29
439.2430, 13416.37
439.7251, 13403.92
440.2072, 13401.90
440.6894, 13423.33
441.1715, 13433.69
441.6536, 13417.38
442.1357, 13396.11
442.6178, 13392.68
443.0999, 13408.94
443.5821, 13420.64
444.0642, 13396.55
444.5463, 13344.64
445.0284, 13319.93
445.5105, 13335.60
445.9926, 13352.28
446.4748, 13341.86
446.9569, 13315.33
447.4390, 13292.06
447.9211, 13273.78
448.4032, 13261.56
448.8853, 13258.01
449.3675, 13261.07
449.8496, 13267.41
450.3317, 13276.73
450.8138, 13283.55
451.2959, 13278.35
451.7780, 13254.18
452.2602, 13249.78
452.7423, 13289.26
453.2244, 13323.93
453.7065, 13319.81
454.1886, 13293.10
454.6707, 13280.71
455.1529, 13303.02
455.6350, 13345.71
456.1171, 13376.62
456.5992, 13394.81
457.0813, 13403.17
457.5634, 13394.61
458.0455, 13381.41
458.5276, 13363.14
459.0098, 13343.84
459.4919, 13340.64
459.9740, 13374.21
460.4561, 13427.54
460.9382, 13470.03
461.4203, 13501.79
461.9025, 13519.44
462.3846, 13515.50
462.8667, 13500.02
463.3488, 13498.14
463.8309, 13518.54
464.3130, 13531.22
464.7952, 13518.99
465.2773, 13499.74
465.7594, 13491.80
466.2415, 13498.14
466.7236, 13515.82
467.2057, 13545.14
467.6879, 13584.66
468.1700, 13604.48
468.6521, 13580.30
469.1342, 13564.84
469.6163, 13569.60
470.0984, 13585.18
470.5806, 13604.64
471.0627, 13625.26
471.5448, 13641.19
472.0269, 13638.30
472.5090, 13619.79
472.9911, 13629.06
473.4733, 13685.92
473.9554, 13736.56
474.4375, 13737.13
474.9196, 13706.23
475.4017, 13676.62
475.8839, 13638.62
476.3660, 13623.87
476.8481, 13676.36
477.3302, 13765.13
477.8123, 13815.87
478.2944, 13806.38
478.7766, 13775.25
479.2587, 13770.10
479.7408, 13796.95
480.2229, 13819.89
480.7050, 13829.18
481.1871, 13845.62
481.6693, 13882.50
482.1514, 13930.91
482.6335, 13976.13
483.1156, 14011.46
483.5977, 14041.01
484.0798, 14068.29
484.5620, 14091.16
485.0441, 14127.74
485.5262, 14189.52
486.0083, 14254.80
486.4904, 14303.61
486.9725, 14342.09
487.4547, 14392.29
487.9368, 14474.76
488.4189, 14561.81
488.9010, 14622.52
489.3831, 14661.63
489.8652, 14700.65
490.3474, 14747.62
490.8295, 14797.96
491.3116, 14846.13
491.7937, 14894.24
492.2758, 14932.22
492.7579, 14948.22
493.2401, 14965.23
493.7222, 15000.10
494.2043, 15046.70
494.6864, 15087.87
495.1685, 15113.35
495.6506, 15132.86
496.1328, 15169.34
496.6149, 15227.44
497.0970, 15286.90
497.5791, 15350.17
498.0612, 15408.79
498.5433, 15457.04
499.0255, 15495.59
499.5076, 15527.81
499.9897, 15542.39
500.4718, 15559.62
500.9539, 15612.48
501.4360, 15695.12
501.9182, 15766.72
502.4003, 15808.31
502.8824, 15833.62
503.3645, 15866.47
503.8466, 15906.90
504.3287, 15955.90
504.8109, 16017.67
505.2930, 16084.45
505.7751, 16159.22
506.2572, 16234.88
506.7393, 16297.45
507.2214, 16337.58
507.7036, 16361.23
508.1857, 16379.09
508.6678, 16385.89
509.1499, 16406.68
509.6320, 16461.87
510.1141, 16518.28
510.5963, 16552.93
511.0784, 16567.77
511.5605, 16578.33
512.0426, 16589.41
512.5247, 16600.72
513.0068, 16612.80
513.4890, 16625.12
513.9711, 16634.71
514.4532, 16639.93
514.9353, 16643.03
515.4174, 16648.71
515.8995, 16661.95
516.3817, 16664.18
516.8638, 16639.66
517.3459, 16618.76
517.8280, 16618.86
518.3101, 16636.45
518.7922, 16661.77
519.2744, 16690.51
519.7565, 16719.91
520.2386, 16737.86
520.7207, 16737.12
521.2028, 16772.21
521.6849, 16877.45
522.1671, 16992.22
522.6492, 17057.13
523.1313, 17087.70
523.6134, 17153.35
524.0955, 17306.65
524.5776, 17477.24
525.0598, 17600.35
525.5419, 17692.15
526.0240, 17807.08
526.5061, 17966.60
526.9882, 18138.42
527.4703, 18274.40
527.9525, 18366.86
528.4346, 18456.64
528.9167, 18544.32
529.3988, 18629.23
529.8809, 18731.11
530.3630, 18824.59
530.8452, 18873.08
531.3273, 18861.65
531.8094, 18800.56
532.2915, 18709.26
532.7736, 18585.63
533.2557, 18380.47
533.7379, 18054.20
534.2200, 17715.77
534.7021, 17455.11
535.1842, 17249.76
535.6663, 17030.77
536.1484, 16761.65
536.6306, 16510.53
537.1127, 16312.30
537.5948, 16151.55
538.0769, 16009.66
538.5590, 15881.17
539.0411, 15768.01
539.5233, 15672.40
540.0054, 15594.94
540.4875, 15523.31
540.9696, 15465.41
541.4517, 15403.52
541.9338, 15320.58
542.4160, 15239.69
542.8981, 15187.14
543.3802, 15168.67
543.8623, 15158.65
544.3444, 15138.11
544.8265, 15111.71
545.3087, 15091.77
545.7908, 15079.44
546.2729, 15062.20
546.7550, 15026.89
547.2371, 14985.18
547.7192, 14976.43
548.2014, 15030.47
548.6835, 15061.84
549.1656, 15040.19
549.6477, 15008.20
550.1298, 14996.34
550.6119, 15005.85
551.0941, 15026.70
551.5762, 15054.68
552.0583, 15083.84
552.5404, 15095.60
553.0225, 15086.07
553.5046, 15076.97
553.9868, 15067.22
554.4689, 15065.98
554.9510, 15082.62
555.4331, 15115.33
555.9152, 15149.91
556.3973, 15185.54
556.8795, 15218.38
557.3616, 15244.86
557.8437, 15266.02
558.3258, 15284.76
558.8079, 15302.21
559.2900, 15316.83
559.7722, 15326.03
560.2543, 15328.13
560.7364, 15332.64
561.2185, 15339.00
561.7006, 15348.27
562.1827, 15365.80
562.6649, 15384.40
563.1470, 15394.05
563.6291, 15391.62
564.1112, 15382.41
564.5933, 15364.55
565.0754, 15343.80
565.5576, 15344.55
566.0397, 15372.18
566.5218, 15391.58
567.0039, 15375.13
567.4860, 15332.61
567.9681, 15307.39
568.4503, 15308.90
568.9324, 15311.91
569.4145, 15305.91
569.8966, 15305.75
570.3787, 15325.92
570.8608, 15364.88
571.3430, 15413.12
571.8251, 15468.07
572.3072, 15520.47
572.7893, 15538.58
573.2714, 15514.85
573.7535, 15503.55
574.2357, 15524.13
574.7178, 15555.08
575.1999, 15576.32
575.6820, 15588.61
576.1641, 15598.47
576.6462, 15601.06
577.1284, 15607.46
577.6105, 15623.03
578.0926, 15648.08
578.5747, 15688.35
579.0568, 15744.69
579.5389, 15797.54
580.0211, 15818.21
580.5032, 15802.61
580.9853, 15808.50
581.4674, 15860.47
581.9495, 15898.40
582.4316, 15878.06
582.9138, 15846.68
583.3959, 15868.78
583.8780, 15960.76
584.3601, 16045.87
584.8422, 16063.57
585.3243, 16049.35
585.8065, 16059.72
586.2886, 16096.80
586.7707, 16138.58
587.2528, 16174.60
587.7349, 16202.66
588.2170, 16214.72
588.6992, 16183.96
589.1813, 16187.94
589.6634, 16258.82
590.1455, 16330.20
590.6276, 16369.02
591.1097, 16380.37
591.5919, 16378.40
592.0740, 16364.62
592.5561, 16355.33
593.0382, 16382.25
593.5203, 16434.88
594.0024, 16455.91
594.4846, 16431.13
594.9667, 16394.26
595.4488, 16367.57
595.9309, 16351.94
596.4130, 16355.31
596.8951, 16397.73
597.3773, 16430.43
597.8594, 16429.43
598.3415, 16425.01
598.8236, 16453.68
599.3057, 16511.21
599.7878, 16557.30
600.2700, 16559.09
600.7521, 16532.35
601.2342, 16512.70
601.7163, 16499.41
602.1984, 16506.16
602.6805, 16548.94
603.1627, 16596.15
603.6448, 16609.85
604.1269, 16591.68
604.6090, 16571.77
605.0911, 16540.72
605.5732, 16521.66
606.0554, 16535.74
606.5375, 16565.05
607.0196, 16580.62
607.5017, 16576.02
607.9838, 16570.89
608.4659, 16588.78
608.9481, 16626.46
609.4302, 16652.95
609.9123, 16666.78
610.3944, 16673.34
610.8765, 16672.01
611.3586, 16665.74
611.8408, 16658.01
612.3229, 16648.72
612.8050, 16639.74
613.2871, 16625.62
613.7692, 16617.43
614.2513, 16626.46
614.7335, 16648.59
615.2156, 16675.15
615.6977, 16702.61
616.1798, 16725.98
616.6619, 16734.51
617.1440, 16725.32
617.6262, 16730.37
618.1083, 16758.47
618.5904, 16786.39
619.0725, 16807.43
619.5546, 16820.62
620.0367, 16823.81
620.5189, 16816.15
621.0010, 16800.70
621.4831, 16772.00
621.9652, 16740.52
622.4473, 16716.07
622.9294, 16699.76
623.4116, 16693.75
623.8937, 16699.99
624.3758, 16710.07
624.8579, 16705.57
625.3400, 16680.70
625.8221, 16664.33
626.3043, 16670.39
626.7864, 16668.44
627.2685, 16634.57
627.7506, 16587.25
628.2327, 16556.94
628.7148, 16551.18
629.1970, 16559.42
629.6791, 16587.88
630.1612, 16620.64
630.6433, 16636.79
631.1254, 16634.48
631.6075, 16617.00
632.0897, 16584.78
632.5718, 16544.31
633.0539, 16511.92
633.5360, 16486.21
634.0181, 16472.12
634.5002, 16467.77
634.9824, 16477.99
635.4645, 16525.10
635.9466, 16584.67
636.4287, 16603.21
636.9108, 16551.21
637.3929, 16496.66
637.8751, 16493.54
638.3572, 16512.60
638.8393, 16500.59
639.3214, 16456.64
639.8035, 16425.99
640.2856, 16441.32
640.7678, 16484.64
641.2499, 16500.33
641.7320, 16477.37
642.2141, 16455.23
642.6962, 16435.78
643.1783, 16419.07
643.6605, 16404.67
644.1426, 16393.30
644.6247, 16385.67
645.1068, 16379.48
645.5889, 16383.15
646.0710, 16421.59
646.5532, 16465.82
647.0353, 16459.88
647.5174, 16403.84
647.9995, 16349.58
648.4816, 16332.86
648.9637, 16344.95
649.4459, 16358.17
649.9280, 16370.45
650.4101, 16389.91
650.8922, 16435.46
651.3743, 16468.88
651.8564, 16457.45
652.3386, 16419.18
652.8207, 16397.51
653.3028, 16404.40
653.7849, 16426.99
654.2670, 16472.56
654.7491, 16521.51
655.2313, 16542.39
655.7134, 16534.79
656.1955, 16522.15
656.6776, 16519.70
657.1597, 16524.63
657.6418, 16529.75
658.1240, 16535.99
658.6061, 16539.33
659.0882, 16540.48
659.5703, 16537.33
660.0524, 16524.56
660.5345, 16507.40
661.0167, 16498.86
661.4988, 16507.24
661.9809, 16512.29
662.4630, 16502.24
662.9451, 16485.14
663.4272, 16466.71
663.9094, 16449.99
664.3915, 16442.21
664.8736, 16448.37
665.3557, 16462.33
665.8378, 16471.34
666.3199, 16475.61
666.8021, 16470.97
667.2842, 16443.79
667.7663, 16429.73
668.2484, 16460.87
668.7305, 16520.06
669.2126, 16573.70
669.6948, 16625.36
670.1769, 16657.22
670.6590, 16652.12
671.1411, 16633.25
671.6232, 16611.56
672.1053, 16594.87
672.5875, 16600.76
673.0696, 16639.68
673.5517, 16688.58
674.0338, 16705.62
674.5159, 16692.10
674.9980, 16696.88
675.4802, 16728.95
675.9623, 16762.69
676.4444, 16788.29
676.9265, 16803.16
677.4086, 16796.95
677.8907, 16753.53
678.3729, 16733.12
678.8550, 16766.71
679.3371, 16803.38
679.8192, 16806.18
680.3013, 16789.18
680.7834, 16782.69
681.2656, 16798.05
681.7477, 16824.33
682.2298, 16856.55
682.7119, 16889.69
683.1940, 16900.53
683.6761, 16886.43
684.1583, 16876.44
684.6404, 16884.05
685.1225, 16904.13
685.6046, 16929.99
686.0867, 16969.05
686.5688, 16988.87
687.0510, 16979.08
687.5331, 16963.85
688.0152, 16937.50
688.4973, 16917.61
688.9794, 16932.14
689.4615, 16985.49
689.9437, 17037.89
690.4258, 17056.29
690.9079, 17058.94
691.3900, 17071.87
691.8721, 17094.68
692.3542, 17124.71
692.8364, 17161.85
693.3185, 17193.67
693.8006, 17201.92
694.2827, 17185.11
694.7648, 17177.98
695.2469, 17182.76
695.7291, 17193.45
696.2112, 17213.18
696.6933, 17234.49
697.1754, 17251.52
697.6575, 17263.96
698.1396, 17273.78
698.6218, 17287.14
699.1039, 17292.87
699.5860, 17272.67
700.0681, 17242.79
700.5502, 17231.06
701.0323, 17242.99
701.5145, 17268.81
701.9966, 17304.46
702.4787, 17342.21
702.9608, 17348.07
703.4429, 17314.15
703.9250, 17292.17
704.4072, 17290.59
704.8893, 17305.66
705.3714, 17345.07
705.8535, 17401.08
706.3356, 17437.02
706.8177, 17435.80
707.2999, 17436.15
707.7820, 17447.44
708.2641, 17463.81
708.7462, 17485.54
709.2283, 17507.68
709.7104, 17515.94
710.1926, 17499.88
710.6747, 17483.10
711.1568, 17502.90
711.6389, 17550.48
712.1210, 17591.64
712.6031, 17623.49
713.0853, 17631.41
713.5674, 17600.81
714.0495, 17549.66
714.5316, 17521.69
715.0137, 17525.44
715.4958, 17531.38
715.9780, 17536.97
716.4601, 17547.45
716.9422, 17559.54
717.4243, 17580.01
717.9064, 17627.31
718.3885, 17706.98
718.8707, 17765.84
719.3528, 17758.31
719.8349, 17725.32
720.3170, 17702.96
720.7991, 17695.15
721.2813, 17711.36
721.7634, 17753.82
722.2455, 17799.56
722.7276, 17821.01
723.2097, 17820.14
723.6918, 17820.81
724.1740, 17823.94
724.6561, 17825.32
725.1382, 17819.65
725.6203, 17816.41
726.1024, 17828.41
726.5845, 17853.91
727.0667, 17876.81
727.5488, 17905.86
728.0309, 17919.90
728.5130, 17898.77
728.9951, 17868.57
729.4772, 17849.52
729.9594, 17846.66
730.4415, 17865.39
730.9236, 17916.42
731.4057, 17970.43
731.8878, 17975.79
732.3699, 17946.56
732.8521, 17944.04
733.3342, 17977.36
733.8163, 18011.56
734.2984, 18021.15
734.7805, 18020.88
735.2626, 18055.99
735.7448, 18161.28
736.2269, 18218.73
736.7090, 18183.90
737.1911, 18150.54
737.6732, 18161.97
738.1553, 18194.05
738.6375, 18208.46
739.1196, 18196.64
739.6017, 18193.89
740.0838, 18221.77
740.5659, 18259.54
741.0480, 18299.28
741.5302, 18332.62
742.0123, 18343.89
742.4944, 18329.06
742.9765, 18297.71
743.4586, 18249.96
743.9407, 18196.76
744.4229, 18183.11
744.9050, 18210.18
745.3871, 18262.12
745.8692, 18344.85
746.3513, 18426.24
746.8334, 18474.21
747.3156, 18490.46
747.7977, 18501.35
748.2798, 18506.17
748.7619, 18506.70
749.2440, 18496.17
749.7261, 18487.57
750.2083, 18479.82
750.6904, 18482.14
751.1725, 18522.25
751.6546, 18627.29
752.1367, 18716.39
752.6188, 18711.75
753.1010, 18664.76
753.5831, 18647.43
754.0652, 18661.38
754.5473, 18681.41
755.0294, 18695.71
755.5115, 18706.21
755.9937, 18716.14
756.4758, 18725.59
756.9579, 18728.54
757.4400, 18720.44
757.9221, 18723.86
758.4042, 18752.15
758.8864, 18790.63
759.3685, 18817.39
759.8506, 18829.37
760.3327, 18860.61
760.8148, 18957.79
761.2969, 19015.36
761.7791, 18956.00
762.2612, 18878.93
762.7433, 18881.13
763.2254, 18958.81
763.7075, 19042.20
764.1896, 19100.76
764.6718, 19144.51
765.1539, 19188.12
765.6360, 19222.15
766.1181, 19220.91
766.6002, 19186.46
767.0823, 19146.87
767.5645, 19116.37
768.0466, 19108.16
768.5287, 19164.53
769.0108, 19295.22
769.4929, 19369.34
769.9750, 19364.22
770.4572, 19352.57
770.9393, 19361.65
771.4214, 19388.17
771.9035, 19433.66
772.3856, 19506.65
772.8677, 19549.88
773.3499, 19538.18
773.8320, 19524.04
774.3141, 19516.48
774.7962, 19521.46
775.2783, 19548.57
775.7604, 19595.37
776.2426, 19645.17
776.7247, 19696.88
777.2068, 19737.25
777.6889, 19745.83
778.1710, 19736.39
778.6531, 19735.02
779.1353, 19745.44
779.6174, 19762.09
780.0995, 19782.09
780.5816, 19801.90
781.0637, 19808.26
781.5458, 19799.22
782.0280, 19824.70
782.5101, 19903.49
782.9922, 19958.76
783.4743, 19935.96
783.9564, 19884.80
784.4385, 19895.77
784.9207, 19991.19
785.4028, 20050.02
785.8849, 20031.99
786.3670, 20027.07
786.8491, 20081.18
787.3312, 20146.86
787.8134, 20175.92
788.2955, 20167.17
788.7776, 20151.89
789.2597, 20138.11
789.7418, 20130.66
790.2239, 20140.87
790.7061, 20156.31
791.1882, 20146.18
791.6703, 20118.43
792.1524, 20127.76
792.6345, 20210.30
793.1166, 20310.37
793.5988, 20321.11
794.0809, 20255.72
794.5630, 20238.76
795.0451, 20281.70
795.5272, 20331.99
796.0093, 20368.84
796.4915, 20395.27
796.9736, 20414.07
797.4557, 20423.27
797.9378, 20440.81
798.4199, 20482.21
798.9020, 20508.78
799.3842, 20494.95
799.8663, 20478.21
800.3484, 20490.73
800.8305, 20528.19
801.3126, 20563.50
801.7947, 20584.55
802.2769, 20610.64
802.7590, 20656.38
803.2411, 20706.43
803.7232, 20750.78
804.2053, 20785.63
804.6874, 20801.35
805.1696, 20792.67
805.6517, 20789.60
806.1338, 20833.53
806.6159, 20904.17
807.0980, 20950.75
807.5801, 20975.98
808.0623, 21012.97
808.5444, 21073.76
809.0265, 21137.01
809.5086, 21179.22
809.9907, 21201.97
810.4728, 21215.54
810.9550, 21211.37
811.4371, 21229.19
811.9192, 21281.93
812.4013, 21349.54
812.8834, 21425.84
813.3655, 21504.76
813.8477, 21562.19
814.3298, 21589.58
814.8119, 21613.53
815.2940, 21629.74
815.7761, 21650.11
816.2582, 21685.74
816.7404, 21727.29
817.2225, 21760.10
817.7046, 21781.51
818.1867, 21804.80
818.6688, 21847.63
819.1509, 21885.65
819.6331, 21888.12
820.1152, 21874.12
820.5973, 21872.58
821.0794, 21891.23
821.5615, 21935.84
822.0436, 22016.58
822.5258, 22105.19
823.0079, 22144.47
823.4900, 22142.57
823.9721, 22148.17
824.4542, 22165.94
824.9363, 22202.07
825.4185, 22263.29
825.9006, 22332.65
826.3827, 22381.55
826.8648, 22408.52
827.3469, 22426.23
827.8290, 22427.55
828.3111, 22433.55
828.7932, 22442.70
829.2753, 22465.75
829.7574, 22524.03
830.2396, 22609.99
830.7217, 22674.72
831.2038, 22697.93
831.6859, 22723.42
832.1680, 22769.93
832.6501, 22811.70
833.1323, 22824.66
833.6144, 22820.76
834.0965, 22825.33
834.5786, 22845.97
835.0607, 22872.63
835.5428, 22908.92
836.0250, 22939.80
836.5071, 22941.60
836.9892, 22927.42
837.4713, 22932.26
837.9534, 22960.22
838.4355, 22973.96
838.9177, 22937.38
839.3998, 22879.02
839.8819, 22861.95
840.3640, 22879.13
840.8461, 22879.88
841.3282, 22856.96
841.8104, 22845.38
842.2925, 22867.66
842.7746, 22907.18
843.2567, 22934.83
843.7388, 22952.81
844.2209, 22938.03
844.7031, 22875.72
845.1852, 22813.95
845.6673, 22765.48
846.1494, 22726.03
846.6315, 22690.90
847.1136, 22660.22
847.5958, 22635.70
848.0779, 22619.71
848.5600, 22605.87
849.0421, 22590.69
849.5242, 22579.67
850.0063, 22589.06
850.4885, 22601.46
850.9706, 22576.95
851.4527, 22500.34
851.9348, 22439.84
852.4169, 22436.78
852.8990, 22453.91
853.3812, 22476.35
853.8633, 22492.55
854.3454, 22481.42
854.8275, 22443.98
855.3096, 22406.58
855.7917, 22383.92
856.2739, 22375.66
856.7560, 22385.37
857.2381, 22408.33
857.7202, 22426.73
858.2023, 22442.49
858.6844, 22491.11
859.1666, 22592.80
859.6487, 22693.10
860.1308, 22694.98
860.6129, 22611.91
861.0950, 22610.21
861.5771, 22698.84
862.0593, 22788.09
862.5414, 22857.92
863.0235, 22904.11
863.5056, 22913.59
863.9877, 22899.09
864.4698, 22929.95
864.9520, 23037.24
865.4341, 23117.69
865.9162, 23138.89
866.3983, 23170.40
866.8804, 23263.82
867.3625, 23377.90
867.8447, 23446.53
868.3268, 23460.14
868.8089, 23508.41
869.2910, 23632.80
869.7731, 23754.21
870.2552, 23846.54
870.7374, 23924.94
871.2195, 23994.89
871.7016, 24063.95
872.1837, 24151.97
872.6658, 24271.01
873.1479, 24392.15
873.6301, 24492.99
874.1122, 24593.66
874.5943, 24728.35
875.0764, 24874.82
875.5585, 24977.60
876.0406, 25028.77
876.5228, 25087.93
877.0049, 25213.11
877.4870, 25360.72
877.9691, 25484.95
878.4512, 25576.13
878.9333, 25594.48
879.4155, 25543.28
879.8976, 25482.99
880.3797, 25448.32
880.8618, 25418.95
881.3439, 25364.57
881.8260, 25286.41
882.3082, 25181.61
882.7903, 25048.38
883.2724, 24958.12
883.7545, 24939.29
884.2366, 24941.87
884.7188, 24920.52
885.2009, 24878.12
885.6830, 24823.40
886.1651, 24739.69
886.6472, 24703.16
887.1293, 24738.73
887.6115, 24784.08
888.0936, 24808.79
888.5757, 24824.13
889.0578, 24846.28
889.5399, 24873.48
890.0220, 24917.78
890.5042, 25008.86
890.9863, 25075.98
891.4684, 25102.02
891.9505, 25103.50
892.4326, 25080.22
892.9147, 25043.41
893.3969, 25024.29
893.8790, 25040.44
894.3611, 25038.94
894.8432, 24995.04
895.3253, 24939.38
895.8074, 24892.78
896.2896, 24844.90
896.7717, 24780.06
897.2538, 24697.14
897.7359, 24606.38
898.2180, 24507.05
898.7001, 24411.09
899.1823, 24346.45
899.6644, 24278.09
900.1465, 24135.48
900.6286, 23950.88
901.1107, 23832.62
901.5928, 23818.83
902.0750, 23821.70
902.5571, 23755.59
903.0392, 23653.96
903.5213, 23554.54
904.0034, 23468.57
904.4855, 23438.41
904.9677, 23464.75
905.4498, 23498.61
905.9319, 23509.99
906.4140, 23499.36
906.8961, 23462.30
907.3782, 23402.82
907.8604, 23336.96
908.3425, 23266.45
908.8246, 23224.59
909.3067, 23223.77
909.7888, 23243.08
910.2709, 23263.88
910.7531, 23284.38
911.2352, 23299.64
911.7173, 23311.80
912.1994, 23298.75
912.6815, 23250.85
913.1636, 23203.74
913.6458, 23173.14
914.1279, 23158.36
914.6100, 23161.63
915.0921, 23185.54
915.5742, 23190.50
916.0563, 23167.27
916.5385, 23144.95
917.0206, 23126.73
917.5027, 23113.99
917.9848, 23110.01
918.4669, 23112.00
918.9490, 23111.09
919.4312, 23102.16
919.9133, 23103.85
920.3954, 23133.42
920.8775, 23152.31
921.3596, 23129.20
921.8417, 23104.70
922.3239, 23130.77
922.8060, 23195.53
923.2881, 23224.53
923.7702, 23165.67
924.2523, 23139.78
924.7344, 23194.09
925.2166, 23272.57
925.6987, 23369.37
926.1808, 23453.07
926.6629, 23473.51
927.1450, 23427.60
927.6271, 23383.08
928.1093, 23352.67
928.5914, 23350.80
929.0735, 23411.00
929.5556, 23483.18
930.0377, 23516.75
930.5198, 23517.40
931.0020, 23507.92
931.4841, 23495.61
931.9662, 23491.81
932.4483, 23509.14
932.9304, 23534.64
933.4125, 23558.96
933.8947, 23580.97
934.3768, 23596.28
934.8589, 23607.56
935.3410, 23627.46
935.8231, 23663.87
936.3052, 23700.93
936.7874, 23723.57
937.2695, 23734.20
937.7516, 23734.43
938.2337, 23726.27
938.7158, 23711.24
939.1979, 23691.57
939.6801, 23679.41
940.1622, 23684.64
940.6443, 23698.74
941.1264, 23703.32
941.6085, 23705.00
942.0906, 23728.89
942.5728, 23774.06
943.0549, 23825.42
943.5370, 23877.26
944.0191, 23921.59
944.5012, 23949.96
944.9833, 23965.09
945.4655, 23971.89
945.9476, 23971.49
946.4297, 23979.13
946.9118, 23996.68
947.3939, 24007.50
947.8760, 24002.75
948.3582, 23991.84
948.8403, 23983.17
949.3224, 23980.12
949.8045, 24021.43
950.2866, 24113.54
950.7687, 24171.38
951.2509, 24178.55
951.7330, 24155.04
952.2151, 24102.95
952.6972, 24052.65
953.1793, 24065.44
953.6614, 24145.40
954.1436, 24230.77
954.6257, 24335.23
955.1078, 24388.86
955.5899, 24360.79
956.0720, 24314.07
956.5541, 24293.40
957.0363, 24293.16
957.5184, 24297.20
958.0005, 24303.61
958.4826, 24325.78
958.9647, 24380.33
959.4468, 24412.04
959.9290, 24388.58
960.4111, 24358.98
960.8932, 24370.01
961.3753, 24413.21
961.8574, 24448.65
962.3395, 24474.53
962.8217, 24495.80
963.3038, 24518.02
963.7859, 24525.78
964.2680, 24491.93
964.7501, 24459.67
965.2322, 24494.28
965.7144, 24585.03
966.1965, 24608.73
966.6786, 24476.24
967.1607, 24416.11
967.6428, 24497.52
968.1249, 24576.02
968.6071, 24569.66
969.0892, 24540.46
969.5713, 24583.86
970.0534, 24699.00
970.5355, 24743.98
971.0176, 24634.34
971.4998, 24564.26
971.9819, 24587.41
972.4640, 24626.37
972.9461, 24638.82
973.4282, 24640.34
973.9103, 24663.44
974.3925, 24711.72
974.8746, 24730.27
975.3567, 24676.89
975.8388, 24639.37
976.3209, 24638.53
976.8030, 24660.32
977.2852, 24709.12
977.7673, 24768.36
978.2494, 24807.43
978.7315, 24820.43
979.2136, 24840.70
979.6957, 24889.00
980.1779, 24929.00
980.6600, 24951.45
981.1421, 24958.10
981.6242, 24944.35
982.1063, 24917.97
982.5884, 24889.26
983.0706, 24856.96
983.5527, 24851.19
984.0348, 24905.31
984.5169, 24957.50
984.9990, 24986.77
985.4811, 24997.05
985.9633, 24977.69
986.4454, 24945.91
986.9275, 24946.89
987.4096, 24999.19
987.8917, 25030.74
988.3738, 24997.27
988.8560, 24958.63
989.3381, 24959.78
989.8202, 24959.88
990.3023, 24891.39
990.7844, 24786.71
991.2665, 24751.54
991.7487, 24825.50
992.2308, 24907.71
992.7129, 24967.68
993.1950, 25011.66
993.6771, 25030.72
994.1592, 25044.97
994.6414, 25080.90
995.1235, 25132.11
995.6056, 25169.67
996.0877, 25183.29
996.5698, 25190.22
997.0519, 25192.31
997.5341, 25195.92
998.0162, 25199.72
998.4983, 25210.41
998.9804, 25235.30
999.4625, 25274.16
999.9446, 25327.39
1000.427, 25403.96
1000.909, 25459.26
1001.391, 25459.68
1001.873, 25446.82
1002.355, 25441.84
1002.837, 25444.06
1003.319, 25463.14
1003.802, 25487.91
1004.284, 25472.24
1004.766, 25379.09
1005.248, 25323.26
1005.730, 25400.60
1006.212, 25486.66
1006.694, 25495.89
1007.176, 25467.37
1007.659, 25446.78
1008.141, 25439.54
1008.623, 25439.52
1009.105, 25452.96
1009.587, 25445.46
1010.069, 25358.83
1010.551, 25293.14
1011.033, 25342.36
1011.515, 25430.48
1011.998, 25452.99
1012.480, 25420.91
1012.962, 25430.08
1013.444, 25529.81
1013.926, 25610.01
1014.408, 25624.95
1014.890, 25606.05
1015.372, 25538.70
1015.854, 25471.69
1016.337, 25478.06
1016.819, 25539.25
1017.301, 25556.00
1017.783, 25476.88
1018.265, 25428.10
1018.747, 25496.62
1019.229, 25562.14
1019.711, 25533.75
1020.194, 25483.09
1020.676, 25502.58
1021.158, 25576.79
1021.640, 25616.85
1022.122, 25588.82
1022.604, 25568.44
1023.086, 25579.53
1023.568, 25604.07
1024.051, 25646.44
1024.533, 25687.63
1025.015, 25709.68
1025.497, 25713.80
1025.979, 25704.61
1026.461, 25668.96
1026.943, 25668.06
1027.425, 25745.15
1027.907, 25823.78
1028.390, 25878.80
1028.872, 25914.58
1029.354, 25930.53
1029.836, 25932.16
1030.318, 25932.40
1030.800, 25928.94
1031.282, 25938.76
1031.764, 25980.68
1032.246, 26015.42
1032.729, 26018.49
1033.211, 26019.39
1033.693, 26042.54
1034.175, 26083.11
1034.657, 26130.03
1035.139, 26192.85
1035.621, 26222.37
1036.103, 26187.97
1036.586, 26157.38
1037.068, 26141.98
1037.550, 26139.69
1038.032, 26154.87
1038.514, 26180.19
1038.996, 26197.36
1039.478, 26201.37
1039.960, 26219.88
1040.443, 26272.95
1040.925, 26307.51
1041.407, 26298.21
1041.889, 26288.95
1042.371, 26315.04
1042.853, 26353.48
1043.335, 26357.18
1043.817, 26319.66
1044.299, 26311.47
1044.781, 26339.30
1045.264, 26385.53
1045.746, 26469.01
1046.228, 26530.65
1046.710, 26529.36
1047.192, 26497.23
1047.674, 26480.99
1048.156, 26480.78
1048.638, 26497.04
1049.121, 26540.12
1049.603, 26559.98
1050.085, 26539.49
1050.567, 26530.20
1051.049, 26558.08
1051.531, 26605.88
1052.013, 26653.57
1052.495, 26699.74
1052.978, 26732.02
1053.460, 26746.90
1053.942, 26779.86
1054.424, 26838.93
1054.906, 26876.55
1055.388, 26870.08
1055.870, 26853.71
1056.352, 26864.30
1056.834, 26893.22
1057.317, 26918.39
1057.799, 26938.72
1058.281, 26913.40
1058.763, 26841.00
1059.245, 26811.53
1059.727, 26854.87
1060.209, 26907.47
1060.691, 26915.08
1061.173, 26901.48
1061.656, 26917.14
1062.138, 26955.44
1062.620, 26986.64
1063.102, 27010.59
1063.584, 27029.14
1064.066, 27044.20
1064.548, 27068.96
1065.030, 27112.84
1065.513, 27163.74
1065.995, 27215.83
1066.477, 27256.58
1066.959, 27243.44
1067.441, 27198.88
1067.923, 27189.36
1068.405, 27219.25
1068.887, 27242.86
1069.370, 27237.13
1069.852, 27245.47
1070.334, 27327.59
1070.816, 27432.17
1071.298, 27508.41
1071.780, 27554.89
1072.262, 27555.09
1072.744, 27526.52
1073.226, 27520.83
1073.708, 27554.29
1074.191, 27587.65
1074.673, 27576.00
1075.155, 27576.96
1075.637, 27639.29
1076.119, 27730.37
1076.601, 27835.88
1077.083, 27935.50
1077.565, 27997.73
1078.047, 28017.90
1078.530, 28020.00
1079.012, 27995.04
1079.494, 27983.26
1079.976, 27999.70
1080.458, 28035.25
1080.940, 28088.94
1081.422, 28155.15
1081.904, 28242.23
1082.387, 28340.43
1082.869, 28393.33
1083.351, 28361.43
1083.833, 28350.10
1084.315, 28382.97
1084.797, 28426.72
1085.279, 28470.93
1085.761, 28520.23
1086.244, 28583.64
1086.726, 28655.09
1087.208, 28718.44
1087.690, 28779.59
1088.172, 28802.98
1088.654, 28746.23
1089.136, 28743.72
1089.618, 28847.24
1090.100, 28960.29
1090.583, 29018.73
1091.065, 29053.75
1091.547, 29121.86
1092.029, 29221.86
1092.511, 29302.39
1092.993, 29357.34
1093.475, 29435.81
1093.957, 29545.29
1094.439, 29677.49
1094.922, 29835.41
1095.404, 29972.86
1095.886, 30028.06
1096.368, 30038.85
1096.850, 30134.63
1097.332, 30303.75
1097.814, 30468.02
1098.296, 30620.69
1098.779, 30747.82
1099.261, 30847.26
1099.743, 30943.02
1100.225, 31050.50
1100.707, 31175.46
1101.189, 31333.61
1101.671, 31510.70
1102.153, 31669.75
1102.635, 31826.05
1103.118, 32027.79
1103.600, 32272.23
1104.082, 32509.14
1104.564, 32716.48
1105.046, 32912.77
1105.528, 33087.45
1106.010, 33285.64
1106.492, 33577.67
1106.974, 33895.07
1107.457, 34123.79
1107.939, 34315.36
1108.421, 34624.16
1108.903, 35077.49
1109.385, 35487.88
1109.867, 35741.64
1110.349, 35992.67
1110.831, 36273.70
1111.314, 36596.48
1111.796, 36990.43
1112.278, 37414.17
1112.760, 37816.29
1113.242, 38194.75
1113.724, 38573.70
1114.206, 38965.76
1114.688, 39336.63
1115.171, 39665.05
1115.653, 40004.35
1116.135, 40385.65
1116.617, 40754.96
1117.099, 41064.36
1117.581, 41345.39
1118.063, 41676.15
1118.545, 42062.04
1119.027, 42408.73
1119.510, 42711.00
1119.992, 43011.88
1120.474, 43320.44
1120.956, 43612.74
1121.438, 43875.72
1121.920, 44113.06
1122.402, 44324.00
1122.884, 44515.55
1123.366, 44726.16
1123.849, 44942.50
1124.331, 45076.75
1124.813, 45137.66
1125.295, 45235.39
1125.777, 45389.55
1126.259, 45474.94
1126.741, 45393.88
1127.223, 45263.32
1127.706, 45235.27
1128.188, 45240.62
1128.670, 45191.71
1129.152, 45094.45
1129.634, 44953.15
1130.116, 44782.12
1130.598, 44615.31
1131.080, 44465.03
1131.563, 44302.75
1132.045, 44107.86
1132.527, 43901.96
1133.009, 43671.85
1133.491, 43460.50
1133.973, 43333.48
1134.455, 43232.68
1134.937, 43074.73
1135.419, 42851.74
1135.901, 42585.65
1136.384, 42234.92
1136.866, 41922.34
1137.348, 41690.68
1137.830, 41449.73
1138.312, 41162.69
1138.794, 40874.63
1139.276, 40630.21
1139.758, 40402.58
1140.241, 40121.39
1140.723, 39781.55
1141.205, 39478.29
1141.687, 39215.56
1142.169, 38962.27
1142.651, 38715.89
1143.133, 38460.86
1143.615, 38191.28
1144.098, 37906.16
1144.580, 37601.16
1145.062, 37291.27
1145.544, 37022.31
1146.026, 36785.02
1146.508, 36553.70
1146.990, 36324.22
1147.472, 36091.51
1147.954, 35852.52
1148.437, 35585.43
1148.919, 35270.59
1149.401, 34995.27
1149.883, 34892.32
1150.365, 34814.59
1150.847, 34615.97
1151.329, 34358.39
1151.811, 34084.01
1152.293, 33828.34
1152.776, 33658.53
1153.258, 33583.86
1153.740, 33501.07
1154.222, 33368.41
1154.704, 33236.32
1155.186, 33128.30
1155.668, 33009.69
1156.150, 32845.02
1156.633, 32676.13
1157.115, 32541.22
1157.597, 32438.37
1158.079, 32369.79
1158.561, 32354.04
1159.043, 32262.10
1159.525, 32066.57
1160.007, 31903.81
1160.490, 31802.26
1160.972, 31715.24
1161.454, 31617.41
1161.936, 31524.57
1162.418, 31457.33
1162.900, 31410.09
1163.382, 31375.85
1163.864, 31346.81
1164.346, 31288.85
1164.828, 31204.02
1165.311, 31104.76
1165.793, 30998.18
1166.275, 30897.85
1166.757, 30808.05
1167.239, 30756.88
1167.721, 30803.74
1168.203, 30865.58
1168.685, 30871.74
1169.168, 30837.31
1169.650, 30766.49
1170.132, 30677.61
1170.614, 30598.71
1171.096, 30535.71
1171.578, 30494.74
1172.060, 30507.05
1172.542, 30495.49
1173.025, 30415.71
1173.507, 30350.97
1173.989, 30331.28
1174.471, 30342.36
1174.953, 30390.16
1175.435, 30447.89
1175.917, 30445.54
1176.399, 30379.13
1176.881, 30319.12
1177.364, 30262.72
1177.846, 30237.47
1178.328, 30248.58
1178.810, 30260.94
1179.292, 30259.68
1179.774, 30256.71
1180.256, 30268.19
1180.738, 30271.61
1181.220, 30216.07
1181.703, 30127.41
1182.185, 30041.87
1182.667, 29976.96
1183.149, 29975.54
1183.631, 30030.32
1184.113, 30097.37
1184.595, 30160.85
1185.077, 30204.37
1185.560, 30204.44
1186.042, 30200.40
1186.524, 30232.26
1187.006, 30246.03
1187.488, 30172.03
1187.970, 30074.77
1188.452, 30045.77
1188.934, 30079.44
1189.417, 30106.73
1189.899, 30122.30
1190.381, 30145.29
1190.863, 30179.17
1191.345, 30214.13
1191.827, 30255.67
1192.309, 30263.69
1192.791, 30204.67
1193.273, 30152.25
1193.755, 30208.35
1194.238, 30334.61
1194.720, 30420.00
1195.202, 30467.87
1195.684, 30488.14
1196.166, 30483.66
1196.648, 30445.75
1197.130, 30385.51
1197.612, 30368.70
1198.095, 30431.17
1198.577, 30497.03
1199.059, 30510.33
1199.541, 30498.82
1200.023, 30471.23
1200.505, 30439.98
1200.987, 30402.79
1201.469, 30377.68
1201.952, 30407.01
1202.434, 30483.01
1202.916, 30513.29
1203.398, 30444.53
1203.880, 30431.75
1204.362, 30514.93
1204.844, 30570.61
1205.326, 30566.77
1205.808, 30542.66
1206.291, 30513.29
1206.773, 30503.87
1207.255, 30560.80
1207.737, 30653.61
1208.219, 30652.16
1208.701, 30580.43
1209.183, 30558.65
1209.665, 30586.60
1210.147, 30628.70
1210.630, 30674.89
1211.112, 30730.81
1211.594, 30800.79
1212.076, 30854.49
1212.558, 30857.62
1213.040, 30846.86
1213.522, 30827.44
1214.004, 30829.28
1214.487, 30915.22
1214.969, 31020.15
1215.451, 31032.79
1215.933, 30959.54
1216.415, 30907.72
1216.897, 30868.75
1217.379, 30909.61
1217.861, 31095.45
1218.344, 31195.61
1218.826, 31138.21
1219.308, 31081.00
1219.790, 31109.67
1220.272, 31166.81
1220.754, 31180.45
1221.236, 31174.99
1221.718, 31229.87
1222.200, 31319.52
1222.682, 31351.18
1223.165, 31337.71
1223.647, 31325.68
1224.129, 31327.68
1224.611, 31356.51
1225.093, 31417.27
1225.575, 31454.58
1226.057, 31410.14
1226.539, 31364.43
1227.022, 31352.20
1227.504, 31363.71
1227.986, 31411.85
1228.468, 31465.68
1228.950, 31488.31
1229.432, 31486.19
1229.914, 31481.34
1230.396, 31471.27
1230.879, 31479.77
1231.361, 31508.96
1231.843, 31548.40
1232.325, 31598.27
1232.807, 31643.76
1233.289, 31678.98
1233.771, 31703.72
1234.253, 31716.77
1234.735, 31723.62
1235.218, 31730.70
1235.700, 31738.90
1236.182, 31751.40
1236.664, 31765.16
1237.146, 31766.51
1237.628, 31766.72
1238.110, 31798.96
1238.592, 31867.04
1239.074, 31929.96
1239.557, 31965.04
1240.039, 32012.76
1240.521, 32125.19
1241.003, 32189.04
1241.485, 32137.83
1241.967, 32078.86
1242.449, 32079.12
1242.931, 32113.61
1243.414, 32148.14
1243.896, 32180.90
1244.378, 32190.60
1244.860, 32184.46
1245.342, 32264.90
1245.824, 32410.09
1246.306, 32445.95
1246.788, 32355.63
1247.271, 32274.31
1247.753, 32266.16
1248.235, 32302.71
1248.717, 32403.42
1249.199, 32485.08
1249.681, 32448.57
##END=



