##NAMES=Uvarovite
##RRUFFID=R060477
##IDEAL CHEMISTRY=Ca_3_Cr^3+^_2_(SiO_4_)_3_
##LOCALITY= Saranovskiy mine, Sarany, Ural Mountains, Russia
##OWNER=RRUFF
##SOURCE=Michael Scott
##DESCRIPTION=A druse of green dodecahedral crystals
##STATUS=The identification of this mineral is confirmed by single-crystal X-ray diffraction and chemical analysis.
##URL=rruff.info/R060477
##MEASURED CHEMISTRY=Ca_3.00_(Cr_1.15_Al_0.82_Ti_0.03_)_Σ=2_((Si_0.99_Al_0.01_)_Σ=1_O_4_)_3_
92.20605, 61.71059
92.68817, 61.98157
93.17029, 62.52252
93.65240, 62.61702
94.13452, 62.60030
94.61664, 62.40154
95.09875, 62.04853
95.58087, 61.63495
96.06299, 61.25445
96.54510, 60.87894
97.02722, 60.57388
97.50933, 60.50942
97.99145, 60.52631
98.47356, 60.37736
98.95568, 59.82543
99.43780, 58.76650
99.91991, 58.12328
100.4020, 58.18171
100.8841, 58.28038
101.3663, 58.19626
101.8484, 57.90882
102.3305, 57.47716
102.8126, 56.92073
103.2947, 56.17051
103.7768, 55.65784
104.2590, 55.55058
104.7411, 55.59066
105.2232, 55.53227
105.7053, 55.32740
106.1874, 54.99425
106.6695, 54.41289
107.1517, 53.58558
107.6338, 52.99845
108.1159, 53.02317
108.5980, 53.53407
109.0801, 53.87944
109.5622, 53.78277
110.0444, 53.56157
110.5265, 53.48399
111.0086, 53.57356
111.4907, 53.70307
111.9728, 53.74395
112.4549, 53.69452
112.9371, 53.55247
113.4192, 53.19526
113.9013, 52.82172
114.3834, 52.56923
114.8655, 52.49157
115.3476, 52.55657
115.8298, 52.68693
116.3119, 53.01085
116.7940, 53.24144
117.2761, 53.35142
117.7582, 53.35576
118.2403, 53.25567
118.7225, 53.04133
119.2046, 52.73075
119.6867, 52.54767
120.1688, 52.42910
120.6509, 52.46244
121.1330, 52.81177
121.6152, 53.38790
122.0973, 53.87606
122.5794, 54.01188
123.0615, 53.78141
123.5436, 53.60010
124.0257, 53.50003
124.5079, 53.42970
124.9900, 53.30516
125.4721, 53.09744
125.9542, 52.97418
126.4363, 53.30620
126.9184, 53.88555
127.4006, 54.16249
127.8827, 53.58567
128.3648, 52.50585
128.8469, 52.05841
129.3290, 52.69075
129.8111, 53.49789
130.2932, 54.00017
130.7754, 54.21242
131.2575, 54.21521
131.7396, 53.95301
132.2217, 53.36344
132.7038, 53.07936
133.1859, 53.52108
133.6681, 53.97683
134.1502, 54.07899
134.6323, 53.82452
135.1144, 53.50468
135.5965, 53.51536
136.0786, 54.04832
136.5608, 54.55250
137.0429, 55.18145
137.5250, 55.70138
138.0071, 55.89006
138.4892, 55.69390
138.9713, 55.26989
139.4535, 54.93752
139.9356, 54.57927
140.4177, 54.49464
140.8998, 54.93254
141.3819, 55.60136
141.8640, 56.10946
142.3462, 56.28168
142.8283, 56.20042
143.3104, 56.07737
143.7925, 55.86085
144.2746, 55.69560
144.7567, 55.65391
145.2388, 55.71873
145.7210, 55.80419
146.2031, 55.81421
146.6852, 55.87019
147.1673, 56.20422
147.6494, 57.01849
148.1315, 57.82498
148.6137, 58.08114
149.0958, 57.70271
149.5779, 57.37251
150.0600, 57.48573
150.5421, 57.79735
151.0242, 58.10126
151.5064, 58.32899
151.9885, 58.51259
152.4706, 58.71001
152.9527, 58.91908
153.4348, 59.15273
153.9169, 59.45482
154.3991, 59.76905
154.8812, 60.01950
155.3633, 60.14921
155.8454, 60.18707
156.3275, 60.31236
156.8096, 60.73122
157.2918, 61.01775
157.7739, 60.98043
158.2560, 60.75349
158.7381, 60.56943
159.2202, 60.60352
159.7023, 60.86163
160.1845, 61.12116
160.6666, 61.49873
161.1487, 61.77045
161.6308, 61.81087
162.1129, 61.65457
162.5950, 61.41624
163.0772, 61.16568
163.5593, 60.88678
164.0414, 60.89560
164.5235, 61.36092
165.0056, 61.95774
165.4877, 62.50911
165.9698, 62.98985
166.4520, 63.39258
166.9341, 63.68793
167.4162, 63.87413
167.8983, 64.06376
168.3804, 64.19085
168.8625, 64.35950
169.3447, 64.70015
169.8268, 65.23805
170.3089, 65.91515
170.7910, 66.68181
171.2731, 67.52790
171.7552, 68.48858
172.2374, 69.26201
172.7195, 70.13445
173.2016, 71.97606
173.6837, 75.16563
174.1658, 78.99340
174.6479, 82.95751
175.1301, 87.05181
175.6122, 91.30556
176.0943, 96.39885
176.5764, 102.2279
177.0585, 105.9452
177.5406, 107.0389
178.0228, 105.9478
178.5049, 102.2334
178.9870, 96.30891
179.4691, 89.64332
179.9512, 83.33315
180.4333, 77.20505
180.9155, 72.25513
181.3976, 68.96660
181.8797, 66.42596
182.3618, 64.51275
182.8439, 63.07335
183.3260, 61.81432
183.8082, 60.28840
184.2903, 58.04468
184.7724, 56.80306
185.2545, 57.09497
185.7366, 57.77254
186.2187, 58.18538
186.7009, 58.18177
187.1830, 57.94674
187.6651, 57.73685
188.1472, 57.55654
188.6293, 57.39832
189.1114, 57.28708
189.5936, 57.18431
190.0757, 57.05735
190.5578, 56.89793
191.0399, 56.71857
191.5220, 56.54514
192.0041, 56.40814
192.4863, 56.18952
192.9684, 55.76581
193.4505, 55.29036
193.9326, 54.97883
194.4147, 54.91131
194.8968, 54.94695
195.3790, 54.82896
195.8611, 54.53212
196.3432, 54.32253
196.8253, 54.28034
197.3074, 54.38200
197.7895, 54.61413
198.2717, 55.04781
198.7538, 55.47633
199.2359, 55.65619
199.7180, 55.59972
200.2001, 55.39469
200.6822, 54.94908
201.1644, 54.34255
201.6465, 53.97634
202.1286, 54.01124
202.6107, 54.25756
203.0928, 54.55336
203.5749, 54.89423
204.0571, 55.21027
204.5392, 55.47697
205.0213, 55.69433
205.5034, 55.77787
205.9855, 55.63803
206.4676, 55.40937
206.9497, 55.10714
207.4319, 54.75621
207.9140, 54.49326
208.3961, 54.51617
208.8782, 54.89011
209.3603, 55.13713
209.8424, 55.11131
210.3246, 55.01743
210.8067, 54.92699
211.2888, 54.85760
211.7709, 54.80912
212.2530, 54.79378
212.7351, 54.83988
213.2173, 54.82655
213.6994, 54.70113
214.1815, 54.56026
214.6636, 54.46639
215.1457, 54.42214
215.6278, 54.37417
216.1100, 54.22473
216.5921, 53.82039
217.0742, 53.72142
217.5563, 54.18355
218.0384, 54.69648
218.5205, 54.79787
219.0027, 54.48573
219.4848, 54.25304
219.9669, 54.82362
220.4490, 56.80406
220.9311, 58.05708
221.4132, 58.07677
221.8954, 57.80299
222.3775, 57.93799
222.8596, 58.59943
223.3417, 59.41607
223.8238, 59.91359
224.3059, 59.93850
224.7881, 60.01958
225.2702, 60.13683
225.7523, 60.32006
226.2344, 60.56457
226.7165, 60.87494
227.1986, 61.32452
227.6807, 62.03987
228.1629, 63.08792
228.6450, 64.07473
229.1271, 65.01553
229.6092, 65.86424
230.0913, 66.50903
230.5734, 66.92299
231.0556, 67.30363
231.5377, 67.83540
232.0198, 68.51461
232.5019, 69.38139
232.9840, 70.52039
233.4661, 71.81712
233.9483, 73.14056
234.4304, 74.47328
234.9125, 75.82925
235.3946, 77.10436
235.8767, 78.36433
236.3588, 80.03155
236.8410, 82.33041
237.3231, 85.05782
237.8052, 87.92298
238.2873, 90.90401
238.7694, 94.09060
239.2515, 97.96957
239.7337, 102.1614
240.2158, 105.7843
240.6979, 108.8843
241.1800, 111.1477
241.6621, 112.0074
242.1442, 111.4520
242.6264, 109.4341
243.1085, 105.2964
243.5906, 99.83964
244.0727, 94.19683
244.5548, 88.48112
245.0369, 83.03217
245.5191, 78.62908
246.0012, 75.48447
246.4833, 72.94754
246.9654, 70.87695
247.4475, 69.12282
247.9296, 67.48571
248.4117, 65.81184
248.8939, 64.27525
249.3760, 63.31086
249.8581, 63.19389
250.3402, 63.08794
250.8223, 62.59240
251.3044, 61.98039
251.7866, 61.55028
252.2687, 61.43115
252.7508, 61.55269
253.2329, 61.78875
253.7150, 62.24027
254.1971, 62.59344
254.6793, 62.82964
255.1614, 62.92468
255.6435, 62.79306
256.1256, 62.38524
256.6077, 61.88579
257.0898, 61.70290
257.5720, 62.02342
258.0541, 62.30842
258.5362, 62.37854
259.0183, 62.43245
259.5004, 62.68203
259.9825, 63.19311
260.4647, 63.79635
260.9468, 64.13178
261.4289, 63.89332
261.9110, 64.00502
262.3931, 64.76781
262.8752, 65.69614
263.3574, 66.38912
263.8395, 66.75362
264.3216, 67.00250
264.8037, 67.42970
265.2858, 67.85963
265.7679, 68.89274
266.2501, 70.68797
266.7322, 72.85377
267.2143, 75.09998
267.6964, 77.38071
268.1785, 79.87719
268.6606, 82.88078
269.1428, 86.68552
269.6249, 90.21354
270.1070, 93.92368
270.5891, 97.07620
271.0712, 99.33505
271.5533, 100.6010
272.0355, 100.8124
272.5176, 99.82167
272.9997, 97.38342
273.4818, 94.73551
273.9639, 91.78615
274.4460, 88.75854
274.9282, 85.63721
275.4103, 82.51175
275.8924, 79.61867
276.3745, 77.15933
276.8566, 75.13364
277.3387, 73.59103
277.8208, 72.69468
278.3029, 71.99393
278.7851, 71.35239
279.2672, 70.74200
279.7493, 70.14062
280.2314, 69.51375
280.7135, 68.87013
281.1956, 68.47771
281.6778, 68.27305
282.1599, 68.32210
282.6420, 69.01370
283.1241, 69.98502
283.6062, 70.40919
284.0883, 69.73088
284.5705, 68.18526
285.0526, 67.17745
285.5347, 67.23442
286.0168, 67.12391
286.4989, 66.40504
286.9810, 65.34719
287.4632, 64.43765
287.9453, 63.91802
288.4274, 63.62248
288.9095, 63.05868
289.3916, 61.90760
289.8737, 60.98052
290.3559, 60.45837
290.8380, 60.21914
291.3201, 60.13982
291.8022, 60.18388
292.2843, 60.29335
292.7664, 60.36426
293.2486, 60.36536
293.7307, 60.40322
294.2128, 60.51117
294.6949, 60.65052
295.1770, 60.79065
295.6591, 60.92440
296.1413, 61.02775
296.6234, 61.03233
297.1055, 60.85874
297.5876, 60.97166
298.0697, 61.69111
298.5518, 62.51346
299.0340, 63.00034
299.5161, 63.10332
299.9982, 63.04866
300.4803, 63.01841
300.9624, 63.01601
301.4445, 63.06775
301.9267, 63.33438
302.4088, 63.52439
302.8909, 63.35835
303.3730, 62.88535
303.8551, 62.45841
304.3372, 62.33112
304.8194, 62.47894
305.3015, 62.59007
305.7836, 62.70298
306.2657, 62.74730
306.7478, 62.58807
307.2299, 62.31475
307.7121, 62.20496
308.1942, 62.42587
308.6763, 62.88631
309.1584, 63.27043
309.6405, 63.56199
310.1227, 63.82140
310.6048, 64.00430
311.0869, 64.17425
311.5690, 64.49186
312.0511, 65.04800
312.5332, 65.66441
313.0154, 65.93594
313.4975, 65.71635
313.9796, 65.66056
314.4617, 65.98800
314.9438, 66.51531
315.4259, 67.01554
315.9081, 67.43243
316.3902, 67.82834
316.8723, 68.26721
317.3544, 68.74479
317.8365, 69.32798
318.3186, 70.10484
318.8007, 70.93931
319.2828, 71.79011
319.7650, 72.63549
320.2471, 73.26380
320.7292, 73.41211
321.2113, 73.07452
321.6934, 73.04345
322.1755, 73.54203
322.6577, 74.14209
323.1398, 74.61724
323.6219, 74.96583
324.1040, 75.25172
324.5861, 75.50979
325.0682, 75.73451
325.5504, 75.89574
326.0325, 75.84999
326.5146, 75.90749
326.9967, 76.16768
327.4788, 76.60913
327.9609, 77.21985
328.4431, 78.02014
328.9252, 78.92007
329.4073, 79.70524
329.8894, 80.30888
330.3715, 80.96043
330.8536, 81.88732
331.3358, 82.81312
331.8179, 83.31322
332.3000, 83.27172
332.7821, 83.04934
333.2642, 83.10664
333.7463, 83.50816
334.2285, 84.02323
334.7106, 84.64213
335.1927, 85.37088
335.6748, 86.30778
336.1569, 87.41826
336.6390, 88.40290
337.1212, 88.84860
337.6033, 88.73332
338.0854, 89.76830
338.5675, 93.58822
339.0496, 96.87023
339.5317, 97.61802
340.0139, 96.41055
340.4960, 95.02022
340.9781, 94.45604
341.4602, 94.58547
341.9423, 94.78828
342.4244, 95.05183
342.9066, 95.38911
343.3887, 95.82446
343.8708, 96.33003
344.3529, 96.79880
344.8350, 97.18119
345.3171, 97.67240
345.7993, 98.63661
346.2814, 100.1853
346.7635, 102.1218
347.2456, 104.6314
347.7277, 107.4039
348.2098, 110.2212
348.6920, 113.0124
349.1741, 115.7816
349.6562, 118.4150
350.1383, 120.7322
350.6204, 124.0184
351.1025, 129.1428
351.5847, 134.2662
352.0668, 138.2980
352.5489, 141.4596
353.0310, 144.5985
353.5131, 148.2747
353.9952, 152.4624
354.4774, 157.0268
354.9595, 162.2685
355.4416, 167.5196
355.9237, 172.4984
356.4058, 177.4470
356.8879, 182.6116
357.3701, 188.0944
357.8522, 194.0746
358.3343, 201.0598
358.8164, 209.6840
359.2985, 218.4271
359.7806, 226.5056
360.2627, 235.1721
360.7448, 245.4298
361.2270, 257.4481
361.7091, 270.5105
362.1912, 283.7751
362.6733, 296.9561
363.1554, 311.7169
363.6375, 328.4314
364.1197, 346.1984
364.6018, 364.5826
365.0839, 383.7984
365.5660, 404.2169
366.0481, 426.3885
366.5302, 449.9486
367.0124, 472.1730
367.4945, 494.1537
367.9766, 513.0020
368.4587, 529.3331
368.9408, 541.9238
369.4229, 549.7929
369.9051, 552.5265
370.3872, 549.5378
370.8693, 539.3773
371.3514, 521.0229
371.8335, 497.6759
372.3156, 466.0791
372.7978, 432.6669
373.2799, 400.3394
373.7620, 369.9608
374.2441, 341.1591
374.7262, 313.4066
375.2083, 286.6618
375.6905, 262.9485
376.1726, 243.0433
376.6547, 225.6385
377.1368, 210.3720
377.6189, 196.9495
378.1010, 185.0380
378.5832, 174.4385
379.0653, 165.1372
379.5474, 157.1677
380.0295, 150.8365
380.5116, 145.0597
380.9937, 139.2729
381.4759, 133.8933
381.9580, 129.4608
382.4401, 126.1730
382.9222, 123.4126
383.4043, 120.5232
383.8864, 117.5029
384.3686, 114.8517
384.8507, 112.8031
385.3328, 111.0540
385.8149, 109.3549
386.2970, 107.7054
386.7791, 106.0373
387.2613, 104.2219
387.7434, 102.3873
388.2255, 100.8495
388.7076, 99.68099
389.1897, 98.64764
389.6718, 97.55786
390.1540, 96.48546
390.6361, 95.59669
391.1182, 94.94839
391.6003, 94.47134
392.0824, 94.17677
392.5645, 94.03984
393.0467, 93.80788
393.5288, 93.24310
394.0109, 92.67058
394.4930, 92.73542
394.9751, 93.60622
395.4572, 94.38522
395.9394, 94.60361
396.4215, 94.53486
396.9036, 94.61055
397.3857, 94.91890
397.8678, 95.38095
398.3499, 95.91704
398.8321, 96.53186
399.3142, 97.29922
399.7963, 98.38355
400.2784, 99.49649
400.7605, 100.4605
401.2426, 101.2761
401.7247, 102.0208
402.2068, 102.7650
402.6890, 103.4503
403.1711, 103.7799
403.6532, 103.8960
404.1353, 103.5460
404.6174, 102.5481
405.0995, 101.1122
405.5817, 99.40391
406.0638, 97.49832
406.5459, 95.55895
407.0280, 93.80558
407.5101, 92.25271
407.9922, 90.91518
408.4744, 89.94442
408.9565, 89.03094
409.4386, 87.96352
409.9207, 86.79188
410.4028, 85.69151
410.8849, 84.76720
411.3671, 84.02574
411.8492, 83.48427
412.3313, 83.15115
412.8134, 83.03902
413.2955, 83.39709
413.7776, 83.85655
414.2598, 83.98619
414.7419, 83.65695
415.2240, 83.15029
415.7061, 82.88676
416.1882, 82.91920
416.6703, 83.00839
417.1525, 83.33025
417.6346, 83.54314
418.1167, 83.35661
418.5988, 82.89445
419.0809, 82.56591
419.5630, 82.70663
420.0452, 83.19877
420.5273, 83.54566
421.0094, 83.70908
421.4915, 83.80095
421.9736, 83.90221
422.4557, 83.94458
422.9379, 83.83108
423.4200, 83.52315
423.9021, 83.13375
424.3842, 82.77380
424.8663, 82.44218
425.3484, 82.07473
425.8306, 81.54016
426.3127, 81.12717
426.7948, 81.22736
427.2769, 81.74173
427.7590, 82.01028
428.2411, 81.66106
428.7233, 80.93803
429.2054, 80.13630
429.6875, 79.25121
430.1696, 78.49892
430.6517, 78.05869
431.1339, 77.84724
431.6160, 77.58894
432.0981, 77.35059
432.5802, 76.95769
433.0623, 76.16171
433.5444, 75.16798
434.0266, 74.40500
434.5087, 74.00967
434.9908, 73.83757
435.4729, 73.74815
435.9550, 73.80132
436.4371, 73.62899
436.9193, 73.13549
437.4014, 72.48073
437.8835, 71.70803
438.3656, 70.86204
438.8477, 70.03352
439.3298, 69.26974
439.8120, 68.58697
440.2941, 68.09422
440.7762, 67.99757
441.2583, 67.83638
441.7404, 67.56701
442.2225, 67.21105
442.7046, 66.79725
443.1867, 66.33258
443.6689, 65.78233
444.1510, 65.03764
444.6331, 63.95530
445.1152, 63.39253
445.5973, 64.01120
446.0794, 64.49769
446.5616, 64.41718
447.0437, 63.86469
447.5258, 63.02523
448.0079, 61.94942
448.4900, 60.80421
448.9721, 60.01913
449.4543, 59.68666
449.9364, 59.45275
450.4185, 59.33792
450.9006, 59.22149
451.3827, 58.97734
451.8648, 58.60641
452.3470, 58.28849
452.8291, 58.29081
453.3112, 58.49330
453.7933, 58.29337
454.2754, 57.47258
454.7575, 56.70091
455.2397, 56.46978
455.7218, 56.58411
456.2039, 56.76980
456.6860, 57.05950
457.1681, 57.27147
457.6502, 57.19814
458.1324, 56.89708
458.6145, 56.61883
459.0966, 56.42933
459.5787, 56.32587
460.0608, 56.29798
460.5429, 56.32858
461.0251, 56.51115
461.5072, 57.11562
461.9893, 57.70477
462.4714, 57.79364
462.9535, 57.43108
463.4356, 57.10724
463.9178, 57.18105
464.3999, 57.54042
464.8820, 57.56113
465.3641, 56.90962
465.8462, 56.36993
466.3283, 56.22725
466.8105, 56.15495
467.2926, 55.71738
467.7747, 54.85356
468.2568, 53.93263
468.7389, 53.32378
469.2210, 52.96011
469.7032, 53.34586
470.1853, 56.15976
470.6674, 57.96797
471.1495, 56.97801
471.6316, 54.44697
472.1137, 52.40175
472.5959, 51.79618
473.0780, 52.11333
473.5601, 52.49940
474.0422, 53.02843
474.5243, 53.30497
475.0064, 53.00343
475.4886, 52.62864
475.9707, 52.46956
476.4528, 52.52324
476.9349, 52.65436
477.4170, 52.87046
477.8991, 53.08845
478.3813, 53.04569
478.8634, 52.67487
479.3455, 52.45546
479.8276, 52.74129
480.3097, 53.28760
480.7918, 53.63518
481.2740, 53.69212
481.7561, 53.75857
482.2382, 54.02879
482.7203, 54.40164
483.2024, 54.64905
483.6845, 54.71774
484.1666, 54.84105
484.6487, 55.27489
485.1309, 56.03209
485.6130, 56.64222
486.0951, 57.06339
486.5772, 57.39155
487.0593, 57.52297
487.5414, 57.61821
488.0236, 57.99579
488.5057, 58.78247
488.9878, 59.76042
489.4699, 60.55646
489.9520, 61.19655
490.4341, 61.58104
490.9163, 61.57640
491.3984, 61.48521
491.8805, 61.38122
492.3626, 61.31890
492.8447, 61.39175
493.3268, 61.68077
493.8090, 62.09641
494.2911, 62.38861
494.7732, 62.56135
495.2553, 62.59871
495.7374, 62.28221
496.2195, 61.97821
496.7017, 62.04955
497.1838, 62.47758
497.6659, 62.77803
498.1480, 62.36821
498.6301, 61.58743
499.1122, 61.48234
499.5944, 62.23582
500.0765, 62.96091
500.5586, 63.04280
501.0407, 62.79484
501.5228, 62.89610
502.0049, 63.55811
502.4871, 64.18227
502.9692, 64.31964
503.4513, 64.25727
503.9334, 64.56419
504.4155, 65.36691
504.8976, 66.30007
505.3798, 67.01424
505.8619, 67.50034
506.3440, 67.96181
506.8261, 68.31695
507.3082, 68.74050
507.7903, 69.42650
508.2725, 70.18677
508.7546, 70.72310
509.2367, 70.92674
509.7188, 70.91740
510.2009, 70.84301
510.6830, 70.60947
511.1652, 70.63145
511.6473, 71.10545
512.1294, 71.64156
512.6115, 72.08355
513.0936, 72.47681
513.5757, 72.92999
514.0579, 73.49800
514.5400, 74.15701
515.0221, 74.83784
515.5042, 75.52199
515.9863, 76.39917
516.4684, 77.64428
516.9506, 78.97874
517.4327, 80.05322
517.9148, 80.93224
518.3969, 82.09969
518.8790, 83.93510
519.3611, 86.07541
519.8433, 88.08606
520.3254, 89.96410
520.8075, 91.76591
521.2896, 93.40084
521.7717, 95.11420
522.2538, 97.48139
522.7360, 100.5651
523.2181, 103.9675
523.7002, 107.4923
524.1823, 111.3852
524.6644, 115.7762
525.1465, 120.7005
525.6287, 126.3095
526.1108, 132.7351
526.5929, 139.8312
527.0750, 147.0233
527.5571, 154.3531
528.0392, 161.6430
528.5214, 169.1311
529.0035, 176.4369
529.4856, 183.5699
529.9677, 190.3206
530.4498, 195.9434
530.9319, 199.9201
531.4141, 202.2181
531.8962, 202.7165
532.3783, 201.5840
532.8604, 198.2196
533.3425, 191.3110
533.8246, 182.5093
534.3068, 173.1805
534.7889, 163.5085
535.2710, 153.4664
535.7531, 142.3633
536.2352, 130.9792
536.7173, 120.8444
537.1995, 112.1666
537.6816, 104.5785
538.1637, 97.91415
538.6458, 92.17162
539.1279, 87.21861
539.6100, 83.21136
540.0922, 79.70055
540.5743, 76.59364
541.0564, 73.88094
541.5385, 71.59764
542.0206, 69.72807
542.5027, 68.11057
542.9849, 66.58665
543.4670, 65.15298
543.9491, 63.95469
544.4312, 63.12621
544.9133, 62.39777
545.3954, 61.75672
545.8775, 61.17096
546.3596, 60.59447
546.8417, 60.01923
547.3239, 59.51610
547.8060, 59.20412
548.2881, 59.06337
548.7702, 58.85686
549.2523, 58.51054
549.7344, 58.23423
550.2166, 58.24986
550.6987, 58.39756
551.1808, 58.41254
551.6629, 58.17066
552.1450, 57.98112
552.6271, 58.08653
553.1093, 58.37377
553.5914, 58.58593
554.0735, 58.66901
554.5556, 58.81034
555.0377, 59.23083
555.5198, 59.92199
556.0020, 60.28254
556.4841, 60.05189
556.9662, 59.85832
557.4483, 59.85576
557.9304, 59.98560
558.4125, 60.22742
558.8947, 60.54930
559.3768, 60.80577
559.8589, 60.78241
560.3410, 60.46680
560.8231, 60.45126
561.3052, 61.03927
561.7874, 61.48516
562.2695, 61.48684
562.7516, 61.26855
563.2337, 61.05578
563.7158, 60.89842
564.1979, 60.83489
564.6801, 60.96289
565.1622, 61.21490
565.6443, 61.36956
566.1264, 61.40122
566.6085, 61.34235
567.0906, 61.12211
567.5728, 60.84242
568.0549, 60.87233
568.5370, 61.49498
569.0191, 61.98016
569.5012, 62.02945
569.9833, 61.83012
570.4655, 61.52869
570.9476, 61.19115
571.4297, 60.96385
571.9118, 60.98311
572.3939, 61.23769
572.8760, 61.59313
573.3582, 62.35091
573.8403, 62.78437
574.3224, 62.44123
574.8045, 61.97939
575.2866, 62.02252
575.7687, 62.62244
576.2509, 63.34021
576.7330, 63.92342
577.2151, 64.32391
577.6972, 64.23694
578.1793, 63.50338
578.6614, 62.97823
579.1436, 63.14732
579.6257, 63.67808
580.1078, 64.07439
580.5899, 64.31189
581.0720, 64.51651
581.5541, 64.73605
582.0363, 64.94681
582.5184, 65.05749
583.0005, 65.10525
583.4826, 65.34268
583.9647, 65.95910
584.4468, 66.77656
584.9290, 67.27011
585.4111, 67.13422
585.8932, 67.14579
586.3753, 67.42324
586.8574, 67.73524
587.3395, 67.87830
587.8217, 67.92489
588.3038, 68.13567
588.7859, 68.71153
589.2680, 69.41855
589.7501, 69.70747
590.2322, 69.51392
590.7144, 69.37325
591.1965, 69.51429
591.6786, 69.59628
592.1607, 69.33279
592.6428, 68.76933
593.1249, 68.10366
593.6071, 67.31950
594.0892, 66.52398
594.5713, 65.78923
595.0534, 65.12186
595.5355, 64.54489
596.0176, 64.07138
596.4998, 63.65055
596.9819, 63.20629
597.4640, 62.71307
597.9461, 62.35902
598.4282, 62.36162
598.9103, 62.23480
599.3925, 61.70345
599.8746, 60.99783
600.3567, 60.39209
600.8388, 59.97783
601.3209, 59.73522
601.8030, 59.78453
602.2852, 60.09623
602.7673, 59.85131
603.2494, 58.70641
603.7315, 57.73709
604.2136, 57.77344
604.6957, 58.20935
605.1779, 58.21895
605.6600, 57.61115
606.1421, 57.01003
606.6242, 56.68147
607.1063, 56.56746
607.5884, 56.75145
608.0706, 57.16676
608.5527, 57.24231
609.0348, 56.52660
609.5169, 55.31485
609.9990, 54.62677
610.4811, 54.86108
610.9633, 55.06742
611.4454, 55.30733
611.9275, 55.46019
612.4096, 55.30334
612.8917, 54.98368
613.3738, 54.93774
613.8560, 55.48686
614.3381, 56.27323
614.8202, 56.51826
615.3023, 56.16022
615.7844, 56.10531
616.2665, 56.71162
616.7487, 57.41784
617.2308, 57.72384
617.7129, 57.71089
618.1950, 57.66549
618.6771, 57.59788
619.1592, 57.56245
619.6414, 57.70630
620.1235, 57.87941
620.6056, 57.78030
621.0877, 57.33689
621.5698, 56.72931
622.0519, 56.16679
622.5341, 55.64960
623.0162, 54.80440
623.4983, 53.17376
623.9804, 51.79460
624.4625, 51.01588
624.9446, 50.44952
625.4268, 49.72273
625.9089, 48.79823
626.3910, 47.91084
626.8731, 47.28566
627.3552, 46.82528
627.8373, 46.29105
628.3194, 45.67886
628.8015, 45.01868
629.2836, 44.26865
629.7657, 43.53224
630.2479, 42.99236
630.7300, 42.66061
631.2121, 42.32690
631.6942, 41.93909
632.1763, 41.55895
632.6584, 41.21109
633.1406, 40.90257
633.6227, 40.65517
634.1048, 40.47652
634.5869, 40.30690
635.0690, 40.00029
635.5511, 39.47871
636.0333, 39.39155
636.5154, 40.12404
636.9975, 40.76359
637.4796, 40.98700
637.9617, 40.93156
638.4438, 40.71667
638.9260, 40.34907
639.4081, 40.03430
639.8902, 39.97726
640.3723, 40.04835
640.8544, 40.01073
641.3365, 39.84849
641.8187, 39.64195
642.3008, 39.41077
642.7829, 39.20567
643.2650, 39.15957
643.7471, 39.40390
644.2292, 39.56167
644.7114, 39.60046
645.1935, 39.58459
645.6756, 39.47264
646.1577, 39.34674
646.6398, 39.38735
647.1219, 39.68666
647.6041, 40.05466
648.0862, 40.22504
648.5683, 40.19925
649.0504, 40.04151
649.5325, 39.66255
650.0146, 39.36696
650.4968, 39.41440
650.9789, 39.67719
651.4610, 39.89005
651.9431, 40.06219
652.4252, 40.12136
652.9073, 39.85225
653.3895, 39.56862
653.8716, 39.72366
654.3537, 40.26231
654.8358, 40.73394
655.3179, 40.85466
655.8000, 40.69606
656.2822, 40.42499
656.7643, 39.93879
657.2464, 39.60516
657.7285, 39.64788
658.2106, 39.66464
658.6927, 39.38836
659.1749, 38.95697
659.6570, 38.67651
660.1391, 38.65020
660.6212, 38.80262
661.1033, 39.14902
661.5854, 39.61308
662.0676, 40.04330
662.5497, 40.41713
663.0318, 40.57519
663.5139, 40.32952
663.9960, 39.80119
664.4781, 39.59008
664.9603, 40.20007
665.4424, 40.42864
665.9245, 39.79324
666.4066, 39.13589
666.8887, 39.15536
667.3708, 39.67776
667.8530, 40.06244
668.3351, 39.94584
668.8172, 39.59149
669.2993, 39.43386
669.7814, 39.46242
670.2635, 39.39158
670.7457, 39.12672
671.2278, 38.89049
671.7099, 38.91835
672.1920, 39.12254
672.6741, 39.12916
673.1563, 38.81272
673.6384, 38.48667
674.1205, 38.19688
674.6026, 37.97256
675.0847, 37.88684
675.5668, 37.90577
676.0490, 37.88018
676.5311, 37.70372
677.0132, 37.45602
677.4953, 37.38771
677.9774, 37.58969
678.4595, 37.50956
678.9417, 36.76167
679.4238, 36.12077
679.9059, 36.26725
680.3880, 36.85272
680.8701, 37.07435
681.3522, 36.61626
681.8344, 36.08471
682.3165, 35.80271
682.7986, 35.67574
683.2807, 35.58215
683.7628, 35.50018
684.2449, 35.42329
684.7271, 35.34140
685.2092, 35.27672
685.6913, 35.31028
686.1734, 35.51222
686.6555, 35.64964
687.1376, 35.75417
687.6198, 35.74531
688.1019, 35.48598
688.5840, 35.10114
689.0661, 34.82674
689.5482, 34.73825
690.0303, 34.78695
690.5125, 35.10242
690.9946, 35.48549
691.4767, 35.40840
691.9588, 34.82563
692.4409, 34.26990
692.9230, 34.07723
693.4052, 34.15611
693.8873, 34.24421
694.3694, 34.42456
694.8515, 34.45653
695.3336, 34.26468
695.8157, 34.01329
696.2979, 33.75030
696.7800, 33.49566
697.2621, 33.24859
697.7442, 32.99949
698.2263, 32.85338
698.7084, 33.04627
699.1906, 33.42941
699.6727, 33.45857
700.1548, 33.06594
700.6369, 32.66836
701.1190, 32.47686
701.6011, 32.45449
702.0833, 32.52663
702.5654, 32.73995
703.0475, 32.94035
703.5296, 33.21604
704.0117, 33.38680
704.4938, 33.25727
704.9760, 32.98959
705.4581, 32.85363
705.9402, 32.94066
706.4223, 33.12381
706.9044, 33.32008
707.3865, 33.50147
707.8687, 33.52225
708.3508, 33.36147
708.8329, 33.15702
709.3149, 32.93545
709.7971, 32.74199
710.2792, 32.66514
710.7613, 32.72398
711.2434, 32.78570
711.7255, 32.76771
712.2076, 32.82964
712.6898, 33.16219
713.1719, 33.57940
713.6540, 33.78811
714.1361, 33.72454
714.6182, 33.59175
715.1003, 33.61948
715.5825, 33.74461
716.0646, 33.67276
716.5467, 33.37767
717.0288, 33.05667
717.5109, 32.69622
717.9930, 32.44570
718.4752, 32.60476
718.9573, 33.15916
719.4394, 33.41796
719.9215, 33.03092
720.4036, 32.67539
720.8857, 32.64096
721.3679, 32.78872
721.8500, 33.01177
722.3321, 33.24519
722.8142, 33.34108
723.2963, 33.12989
723.7784, 32.76336
724.2606, 32.70250
724.7427, 32.97673
725.2248, 33.27368
725.7069, 33.56438
726.1890, 33.79683
726.6711, 33.94900
727.1533, 34.00632
727.6354, 33.89261
728.1175, 33.34286
728.5996, 32.97633
729.0817, 33.10160
729.5638, 33.40490
730.0460, 33.59631
730.5281, 33.66717
731.0102, 33.73784
731.4923, 33.87489
731.9744, 34.07267
732.4565, 34.36279
732.9387, 34.74860
733.4208, 34.99861
733.9029, 35.07287
734.3850, 35.04842
734.8671, 34.91750
735.3492, 34.73776
735.8314, 34.66366
736.3135, 34.75657
736.7956, 34.77997
737.2777, 34.54934
737.7598, 34.35680
738.2419, 34.41849
738.7241, 34.68108
739.2062, 35.04788
739.6883, 35.47609
740.1704, 35.83840
740.6525, 35.88398
741.1346, 35.67778
741.6168, 35.84095
742.0989, 36.48695
742.5810, 36.92747
743.0631, 36.76217
743.5452, 36.38418
744.0273, 36.40366
744.5095, 36.85317
744.9916, 37.13293
745.4737, 37.02469
745.9558, 36.93196
746.4379, 37.05506
746.9200, 37.27636
747.4022, 37.42963
747.8843, 37.49815
748.3664, 37.59413
748.8485, 37.78748
749.3306, 38.08860
749.8127, 38.58932
750.2949, 39.29163
750.7770, 39.81769
751.2591, 40.04891
751.7412, 40.18096
752.2233, 40.33825
752.7054, 40.53602
753.1876, 40.88241
753.6697, 41.64625
754.1518, 42.16736
754.6339, 42.06735
755.1160, 41.94839
755.5981, 42.32476
756.0803, 43.06019
756.5624, 43.74038
757.0445, 44.18782
757.5266, 44.47472
758.0087, 44.58110
758.4908, 44.59322
758.9730, 44.89091
759.4551, 45.51843
759.9372, 46.17299
760.4193, 46.74904
760.9014, 47.16936
761.3835, 47.23549
761.8657, 46.71602
762.3478, 46.62931
762.8299, 47.26821
763.3120, 47.96261
763.7941, 48.55155
764.2762, 49.03442
764.7584, 49.44962
765.2405, 49.79200
765.7226, 49.97764
766.2047, 49.70168
766.6868, 49.40763
767.1689, 49.94038
767.6511, 51.07539
768.1332, 51.81546
768.6153, 51.89349
769.0974, 51.65975
769.5795, 51.40451
770.0616, 51.14409
770.5438, 51.03898
771.0259, 51.25061
771.5080, 51.32734
771.9901, 51.18376
772.4722, 50.94003
772.9543, 50.59212
773.4365, 50.20572
773.9186, 49.92563
774.4007, 49.81947
774.8828, 49.74218
775.3649, 49.61051
775.8470, 49.44383
776.3292, 49.27699
776.8113, 49.10391
777.2934, 48.86589
777.7755, 48.52950
778.2576, 48.19563
778.7397, 48.04997
779.2219, 48.11444
779.7040, 48.05597
780.1861, 47.70749
780.6682, 47.58747
781.1503, 48.18412
781.6324, 48.88195
782.1146, 48.96687
782.5967, 48.45288
783.0788, 48.00280
783.5609, 47.74315
784.0430, 47.62297
784.5251, 47.71200
785.0073, 47.87356
785.4894, 47.87582
785.9715, 47.73284
786.4536, 47.70003
786.9357, 47.96885
787.4178, 48.42672
787.9000, 48.85569
788.3821, 49.25399
788.8642, 49.57493
789.3463, 49.78115
789.8284, 50.01128
790.3105, 50.33288
790.7927, 50.75135
791.2748, 51.27893
791.7568, 51.91297
792.2390, 52.65957
792.7211, 53.82310
793.2032, 54.77612
793.6853, 55.01442
794.1674, 54.93157
794.6495, 55.01615
795.1317, 55.41705
795.6138, 56.20586
796.0959, 57.79924
796.5780, 59.62531
797.0601, 60.56590
797.5422, 60.79653
798.0244, 61.15461
798.5065, 61.86504
798.9886, 62.86066
799.4707, 64.10129
799.9528, 65.56628
800.4349, 67.06661
800.9171, 68.72021
801.3992, 70.18159
801.8813, 71.00676
802.3634, 72.02380
802.8455, 73.90285
803.3276, 76.22787
803.8098, 78.03465
804.2919, 78.92170
804.7740, 80.04842
805.2561, 82.25343
805.7382, 84.77192
806.2203, 86.75921
806.7025, 88.37908
807.1846, 90.25753
807.6667, 92.60519
808.1488, 95.07797
808.6309, 97.23312
809.1130, 99.14507
809.5952, 101.3554
810.0773, 103.9950
810.5594, 106.1722
811.0415, 107.5003
811.5236, 108.5196
812.0057, 109.6940
812.4879, 111.0157
812.9700, 112.3794
813.4521, 113.6725
813.9342, 115.1550
814.4163, 117.1556
814.8984, 119.0975
815.3806, 120.3846
815.8627, 121.2854
816.3448, 122.4427
816.8269, 124.0929
817.3090, 126.0089
817.7911, 128.3083
818.2733, 130.5782
818.7554, 131.6920
819.2375, 131.8343
819.7196, 132.5773
820.2017, 134.5586
820.6838, 136.8674
821.1660, 138.3658
821.6481, 139.0771
822.1302, 139.8250
822.6123, 140.6355
823.0944, 141.4404
823.5765, 142.3504
824.0587, 143.1240
824.5408, 143.4093
825.0229, 143.4104
825.5050, 143.7957
825.9871, 144.8937
826.4692, 145.9538
826.9514, 146.6634
827.4335, 147.2353
827.9156, 148.1402
828.3977, 149.0321
828.8798, 148.8523
829.3619, 147.2423
829.8441, 145.5603
830.3262, 145.6661
830.8083, 146.9610
831.2904, 147.1350
831.7725, 146.1977
832.2546, 145.3095
832.7368, 144.8161
833.2189, 144.5757
833.7010, 144.5232
834.1831, 144.6105
834.6652, 144.2745
835.1473, 143.4086
835.6295, 142.2757
836.1116, 140.4363
836.5937, 138.8156
837.0758, 138.3328
837.5579, 138.3401
838.0400, 137.4635
838.5222, 135.2678
839.0043, 132.8516
839.4864, 130.4202
839.9685, 128.3274
840.4506, 127.2541
840.9327, 126.7418
841.4149, 125.6348
841.8970, 123.6541
842.3791, 121.6547
842.8612, 120.6114
843.3433, 120.1045
843.8254, 118.5939
844.3076, 116.0442
844.7897, 113.7889
845.2718, 112.0595
845.7539, 110.8481
846.2360, 110.3180
846.7181, 110.2323
847.2003, 109.7788
847.6824, 108.8012
848.1645, 107.7517
848.6466, 106.2320
849.1287, 105.0857
849.6108, 104.9462
850.0930, 105.2292
850.5751, 105.1805
851.0572, 104.6859
851.5393, 104.1156
852.0214, 103.4737
852.5035, 103.0076
852.9857, 102.9607
853.4678, 103.2278
853.9499, 103.7428
854.4320, 104.4094
854.9141, 104.8324
855.3962, 104.6782
855.8784, 104.4376
856.3605, 105.3084
856.8426, 107.2453
857.3247, 108.3035
857.8068, 108.0540
858.2889, 108.5016
858.7711, 110.8743
859.2532, 114.0245
859.7353, 116.2072
860.2174, 117.2884
860.6995, 118.3417
861.1816, 118.9546
861.6638, 120.0881
862.1459, 122.0724
862.6280, 124.5237
863.1101, 127.3274
863.5922, 130.3339
864.0743, 133.1474
864.5565, 135.5980
865.0386, 138.0156
865.5207, 140.2980
866.0028, 142.8737
866.4849, 146.4269
866.9670, 150.7095
867.4492, 154.8777
867.9313, 158.6184
868.4134, 162.2407
868.8955, 165.9676
869.3776, 169.8661
869.8597, 174.2649
870.3419, 179.1586
870.8240, 184.2390
871.3061, 189.4434
871.7882, 194.8925
872.2703, 200.7714
872.7524, 206.8616
873.2346, 212.2359
873.7167, 216.3989
874.1987, 220.8269
874.6808, 226.0427
875.1630, 230.8930
875.6451, 235.4280
876.1272, 239.0986
876.6093, 241.1037
877.0914, 241.3683
877.5735, 241.1914
878.0557, 241.4561
878.5378, 240.8971
879.0199, 238.4352
879.5020, 234.9330
879.9841, 231.4932
880.4662, 228.1315
880.9484, 224.0961
881.4305, 218.8957
881.9126, 213.4449
882.3947, 208.9241
882.8768, 205.1006
883.3589, 201.2029
883.8411, 197.2386
884.3232, 193.8201
884.8053, 191.2068
885.2874, 189.1589
885.7695, 187.4544
886.2516, 186.0613
886.7338, 184.6517
887.2159, 183.2083
887.6980, 181.7913
888.1801, 180.3840
888.6622, 179.0388
889.1443, 177.9859
889.6265, 176.9663
890.1086, 175.3222
890.5907, 172.8348
891.0728, 170.3935
891.5549, 168.2792
892.0370, 166.0478
892.5192, 163.8503
893.0013, 161.1995
893.4834, 157.1824
893.9655, 151.9765
894.4476, 147.2409
894.9297, 144.2385
895.4119, 141.3419
895.8940, 136.8820
896.3761, 131.5850
896.8582, 126.6201
897.3403, 122.0930
897.8224, 117.6342
898.3046, 113.0946
898.7867, 108.6633
899.2688, 104.5592
899.7509, 100.8016
900.2330, 97.55157
900.7151, 94.86095
901.1973, 91.76640
901.6794, 87.83994
902.1615, 84.08314
902.6436, 81.44408
903.1257, 79.64156
903.6078, 77.43955
904.0900, 74.42993
904.5721, 71.86768
905.0542, 70.15028
905.5363, 68.41442
906.0184, 66.06710
906.5005, 63.68423
906.9827, 62.11676
907.4648, 61.40070
907.9469, 60.39225
908.4290, 58.42602
908.9111, 56.61170
909.3932, 55.55333
909.8754, 54.78063
910.3575, 53.77910
910.8396, 52.64362
911.3217, 51.81163
911.8038, 51.48468
912.2859, 51.19950
912.7681, 50.51212
913.2502, 49.62327
913.7323, 48.82623
914.2144, 48.11467
914.6965, 47.41911
915.1786, 46.72047
915.6608, 46.01641
916.1429, 45.27940
916.6250, 44.58911
917.1071, 44.20023
917.5892, 44.11297
918.0714, 43.87777
918.5535, 43.42923
919.0356, 42.93515
919.5177, 42.41378
919.9998, 42.01727
920.4819, 42.02092
920.9641, 42.46671
921.4462, 42.69813
921.9283, 42.59798
922.4104, 42.48083
922.8925, 42.48031
923.3746, 42.39830
923.8568, 42.04761
924.3389, 41.53221
924.8210, 41.09003
925.3031, 40.73827
925.7852, 40.49047
926.2673, 40.26503
926.7495, 40.24035
927.2316, 40.71584
927.7137, 41.33117
928.1958, 41.64622
928.6779, 41.62479
929.1600, 41.49227
929.6422, 41.35015
930.1243, 41.16930
930.6064, 40.84884
931.0885, 40.51390
931.5706, 40.36810
932.0527, 40.38701
932.5349, 40.41138
933.0170, 40.38793
933.4991, 40.46662
933.9812, 40.89330
934.4633, 40.89153
934.9454, 41.03749
935.4276, 41.26271
935.9097, 41.19154
936.3918, 41.50716
936.8739, 41.64419
937.3560, 41.17604
937.8381, 40.51130
938.3203, 40.58427
938.8024, 41.55989
939.2845, 41.82080
939.7666, 41.00615
940.2487, 40.42106
940.7308, 40.49060
941.2130, 40.84437
941.6951, 41.24607
942.1772, 41.65554
942.6593, 41.84499
943.1414, 41.74546
943.6235, 41.55986
944.1057, 41.26852
944.5878, 40.92408
945.0699, 40.49261
945.5520, 40.05489
946.0341, 39.67694
946.5162, 39.37706
946.9984, 39.23312
947.4805, 39.45632
947.9626, 39.59747
948.4447, 39.35526
948.9268, 38.99891
949.4089, 38.79789
949.8911, 38.70135
950.3732, 38.55738
950.8553, 38.31180
951.3374, 37.93492
951.8195, 37.22284
952.3016, 36.50497
952.7838, 36.21631
953.2659, 36.25757
953.7480, 36.52151
954.2301, 36.90637
954.7122, 37.01626
955.1943, 36.60089
955.6765, 36.04800
956.1586, 35.97469
956.6406, 36.29222
957.1227, 36.57731
957.6049, 36.82269
958.0870, 36.99958
958.5691, 37.10077
959.0512, 37.11280
959.5333, 36.99228
960.0154, 36.82619
960.4976, 36.95280
960.9797, 37.46419
961.4618, 37.79114
961.9439, 37.89875
962.4260, 37.84740
962.9081, 37.58750
963.3903, 37.27202
963.8724, 37.03590
964.3545, 36.88700
964.8366, 37.02205
965.3187, 37.88420
965.8008, 38.32205
966.2830, 37.87028
966.7651, 37.43756
967.2472, 37.51084
967.7293, 37.83704
968.2114, 38.04124
968.6935, 38.09044
969.1757, 38.13874
969.6578, 38.21007
970.1399, 38.29677
970.6220, 38.39245
971.1041, 38.50553
971.5862, 38.66745
972.0684, 38.84644
972.5505, 38.95823
973.0326, 38.97311
973.5147, 39.02751
973.9968, 39.21118
974.4789, 39.45454
974.9611, 39.76258
975.4432, 40.05654
975.9253, 40.25063
976.4074, 40.31793
976.8895, 40.14856
977.3716, 39.64158
977.8538, 39.34084
978.3359, 40.13151
978.8180, 41.35121
979.3001, 41.80434
979.7822, 41.63814
980.2643, 41.40668
980.7465, 41.26355
981.2286, 41.20141
981.7107, 41.22425
982.1928, 41.27831
982.6749, 41.19067
983.1570, 41.02588
983.6392, 41.25476
984.1213, 41.88065
984.6034, 42.31212
985.0855, 42.33229
985.5676, 42.24007
986.0497, 42.33104
986.5319, 42.54289
987.0140, 42.65500
987.4961, 42.66839
987.9782, 42.52428
988.4603, 42.13826
988.9424, 41.92145
989.4246, 42.10378
989.9067, 42.43523
990.3888, 42.63582
990.8709, 42.70222
991.3530, 42.56473
991.8351, 42.03306
992.3173, 41.73660
992.7994, 41.82282
993.2815, 42.01416
993.7636, 42.19455
994.2457, 42.38533
994.7278, 42.63411
995.2100, 42.94777
995.6921, 43.20572
996.1742, 43.46730
996.6563, 43.58741
997.1384, 43.37940
997.6205, 43.19175
998.1027, 43.29292
998.5848, 43.53329
999.0669, 43.58557
999.5490, 43.38332
1000.031, 43.46172
1000.513, 44.32234
1000.995, 45.01019
1001.477, 45.15076
1001.960, 44.95813
1002.442, 44.41950
1002.924, 43.75436
1003.406, 43.42131
1003.888, 43.56150
1004.370, 43.64602
1004.852, 43.45419
1005.334, 43.06607
1005.817, 42.26139
1006.299, 41.47351
1006.781, 41.47530
1007.263, 41.97788
1007.745, 41.86357
1008.227, 40.65779
1008.709, 39.42440
1009.191, 39.13082
1009.673, 39.15730
1010.156, 38.83925
1010.638, 38.30535
1011.120, 37.77883
1011.602, 37.32152
1012.084, 36.93399
1012.566, 36.61165
1013.048, 36.45993
1013.530, 36.77719
1014.013, 37.25260
1014.495, 37.27592
1014.977, 36.93892
1015.459, 36.51227
1015.941, 36.07834
1016.423, 35.74233
1016.905, 35.57911
1017.387, 35.46374
1017.869, 35.11500
1018.352, 35.11332
1018.834, 35.14770
1019.316, 35.05178
1019.798, 35.36433
1020.280, 35.48011
1020.762, 35.47896
1021.244, 35.40518
1021.726, 35.31814
1022.208, 35.35980
1022.691, 35.51467
1023.173, 35.57381
1023.655, 35.53125
1024.137, 35.53108
1024.619, 35.62176
1025.101, 35.68016
1025.583, 35.60064
1026.065, 35.43505
1026.547, 35.27419
1027.030, 35.09690
1027.512, 35.29675
1027.994, 36.00708
1028.476, 36.31726
1028.958, 35.83608
1029.440, 35.28709
1029.922, 35.31569
1030.404, 35.74153
1030.887, 36.00085
1031.369, 36.09254
1031.851, 35.99654
1032.333, 35.61143
1032.815, 35.32819
1033.297, 35.27656
1033.779, 35.35159
1034.261, 35.50153
1034.744, 35.68392
1035.226, 35.73249
1035.708, 35.57256
1036.190, 35.51266
1036.672, 35.66679
1037.154, 35.69318
1037.636, 35.31300
1038.118, 34.98894
1038.600, 35.26781
1039.083, 35.93915
1039.565, 36.11559
1040.047, 35.42217
1040.529, 35.15275
1041.011, 35.70580
1041.493, 36.12325
1041.975, 35.97327
1042.457, 35.72208
1042.939, 35.78747
1043.422, 36.08920
1043.904, 36.34362
1044.386, 36.61496
1044.868, 36.67231
1045.350, 36.21373
1045.832, 35.91790
1046.314, 36.20533
1046.796, 36.56001
1047.279, 36.44938
1047.761, 36.02306
1048.243, 35.84799
1048.725, 36.07454
1049.207, 36.25605
1049.689, 36.32885
1050.171, 36.35532
1050.653, 36.37479
1051.135, 36.34344
1051.618, 36.15602
1052.100, 35.88930
1052.582, 35.78536
1053.064, 35.93587
1053.546, 36.04181
1054.028, 36.10057
1054.510, 36.02774
1054.992, 35.60964
1055.474, 35.19556
1055.957, 35.20461
1056.439, 35.46845
1056.921, 35.43700
1057.403, 34.91387
1057.885, 34.58471
1058.367, 34.76782
1058.849, 35.02813
1059.331, 35.26611
1059.814, 35.41582
1060.296, 35.40027
1060.778, 35.25936
1061.260, 35.06921
1061.742, 34.82710
1062.224, 34.68953
1062.706, 34.82810
1063.188, 34.93473
1063.671, 34.86103
1064.153, 34.69383
1064.635, 34.47776
1065.117, 34.24683
1065.599, 34.06371
1066.081, 33.94516
1066.563, 33.79159
1067.045, 33.45924
1067.527, 33.21537
1068.010, 33.31862
1068.492, 33.45375
1068.974, 33.26718
1069.456, 32.91269
1069.938, 32.73022
1070.420, 32.79137
1070.902, 32.95634
1071.384, 33.33510
1071.866, 33.58731
1072.349, 33.42250
1072.831, 33.17776
1073.313, 33.18912
1073.795, 33.31900
1074.277, 33.24292
1074.759, 32.92074
1075.241, 32.68084
1075.723, 32.68330
1076.206, 32.76710
1076.688, 32.93023
1077.170, 33.06985
1077.652, 33.11269
1078.134, 33.06806
1078.616, 32.91372
1079.098, 32.67773
1079.580, 32.55387
1080.062, 32.69693
1080.545, 32.81829
1081.027, 32.73705
1081.509, 32.62597
1081.991, 32.57835
1082.473, 32.60677
1082.955, 32.80928
1083.437, 33.11665
1083.919, 33.13303
1084.401, 32.50507
1084.884, 32.13852
1085.366, 32.78375
1085.848, 33.47075
1086.330, 33.48164
1086.812, 33.19067
1087.294, 33.02610
1087.776, 33.04225
1088.258, 33.20210
1088.740, 33.56512
1089.223, 33.78159
1089.705, 33.65759
1090.187, 33.40335
1090.669, 32.94942
1091.151, 32.57981
1091.633, 32.69779
1092.115, 33.13956
1092.597, 33.38264
1093.080, 33.27480
1093.562, 33.18938
1094.044, 33.33303
1094.526, 33.44519
1095.008, 33.32394
1095.490, 33.18482
1095.972, 33.29451
1096.454, 33.51289
1096.937, 33.52177
1097.419, 33.25859
1097.901, 32.95819
1098.383, 32.44828
1098.865, 32.24960
1099.347, 32.92477
1099.829, 33.59382
1100.311, 33.48475
1100.793, 33.01034
1101.276, 32.88637
1101.758, 33.17420
1102.240, 33.40303
1102.722, 33.38636
1103.204, 33.40652
1103.686, 33.56151
1104.168, 33.73468
1104.650, 33.90212
1105.132, 34.02282
1105.615, 34.04096
1106.097, 33.96578
1106.579, 33.84127
1107.061, 33.42994
1107.543, 33.49871
1108.025, 34.82825
1108.507, 35.82496
1108.989, 35.60912
1109.472, 34.99962
1109.954, 34.70366
1110.436, 34.67340
1110.918, 34.65758
1111.400, 34.65728
1111.882, 34.61128
1112.364, 34.44917
1112.846, 34.33302
1113.328, 34.24302
1113.811, 34.26781
1114.293, 34.59668
1114.775, 35.03850
1115.257, 35.18503
1115.739, 34.98387
1116.221, 34.88118
1116.703, 34.87909
1117.185, 34.97585
1117.667, 35.24730
1118.150, 35.51214
1118.632, 35.68194
1119.114, 35.79340
1119.596, 35.90171
1120.078, 36.00251
1120.560, 36.02111
1121.042, 35.86694
1121.524, 35.86629
1122.007, 36.13520
1122.489, 36.33858
1122.971, 36.31715
1123.453, 36.24102
1123.935, 36.25426
1124.417, 36.36407
1124.899, 36.64028
1125.381, 36.62730
1125.864, 37.33435
1126.346, 36.87614
1126.828, 36.68165
1127.310, 37.03757
1127.792, 37.47404
1128.274, 37.66122
1128.756, 37.69470
1129.238, 37.76368
1129.720, 37.86545
1130.203, 37.86494
1130.685, 37.73763
1131.167, 37.84330
1131.649, 38.27488
1132.131, 38.54963
1132.613, 38.39785
1133.095, 38.15038
1133.577, 38.23825
1134.059, 38.56654
1134.542, 38.78979
1135.024, 38.91303
1135.506, 38.93821
1135.988, 38.87806
1136.470, 38.95349
1136.952, 39.23774
1137.434, 39.60919
1137.916, 39.99194
1138.399, 40.29065
1138.881, 40.25233
1139.363, 39.99338
1139.845, 39.85896
1140.327, 39.87313
1140.809, 40.14860
1141.291, 40.65428
1141.773, 41.06637
1142.255, 41.21169
1142.738, 41.18307
1143.220, 40.98839
1143.702, 40.76591
1144.184, 40.71296
1144.666, 40.83194
1145.148, 41.20496
1145.630, 41.75024
1146.112, 42.23384
1146.594, 42.57246
1147.077, 42.77797
1147.559, 42.82198
1148.041, 42.80791
1148.523, 42.81475
1149.005, 42.83766
1149.487, 42.82204
1149.969, 42.84062
1150.451, 43.06324
1150.934, 43.46766
1151.416, 43.81588
1151.898, 43.97950
1152.380, 44.20058
1152.862, 44.72559
1153.344, 45.23019
1153.826, 45.51519
1154.308, 45.64873
1154.791, 45.62887
1155.273, 45.55022
1155.755, 45.62301
1156.237, 45.89733
1156.719, 46.12457
1157.201, 46.03168
1157.683, 46.16889
1158.165, 46.95190
1158.647, 47.74019
1159.130, 48.03984
1159.612, 48.17431
1160.094, 48.67230
1160.576, 49.49219
1161.058, 49.99416
1161.540, 49.89399
1162.022, 49.94470
1162.504, 50.04751
1162.986, 50.48378
1163.469, 51.70345
1163.951, 52.78831
1164.433, 52.85382
1164.915, 52.39887
1165.397, 52.61428
1165.879, 53.57996
1166.361, 54.36207
1166.843, 54.92852
1167.325, 55.38383
1167.808, 55.66913
1168.290, 56.15578
1168.772, 57.09491
1169.254, 58.06701
1169.736, 58.51355
1170.218, 58.65749
1170.700, 59.44930
1171.182, 60.86780
1171.665, 62.14038
1172.147, 63.22173
1172.629, 63.95478
1173.111, 64.30757
1173.593, 64.97385
1174.075, 66.46634
1174.557, 68.23534
1175.039, 69.25368
1175.521, 71.20126
1176.004, 71.85496
1176.486, 74.46838
1176.968, 76.24560
1177.450, 77.23167
1177.932, 78.57248
1178.414, 80.67102
1178.896, 82.90486
1179.378, 84.80187
1179.860, 86.57137
1180.343, 88.21496
1180.825, 90.05554
1181.307, 92.75889
1181.789, 95.85728
1182.271, 98.27879
1182.753, 100.1209
1183.235, 102.5726
1183.717, 106.1831
1184.200, 109.6905
1184.682, 112.0281
1185.164, 114.5670
1185.646, 118.4531
1186.128, 122.5267
1186.610, 125.5456
1187.092, 128.1052
1187.574, 131.3721
1188.057, 135.4756
1188.539, 139.8723
1189.021, 144.9839
1189.503, 149.5843
1189.985, 153.0459
1190.467, 156.6012
1190.949, 160.6809
1191.431, 165.0120
1191.913, 169.4422
1192.396, 173.8477
1192.878, 177.9005
1193.360, 181.5264
1193.842, 185.2417
1194.324, 188.9553
1194.806, 193.1591
1195.288, 198.0958
1195.770, 202.8072
1196.252, 206.8024
1196.735, 210.3893
1197.217, 213.8808
1197.699, 217.2776
1198.181, 220.7123
1198.663, 223.4370
1199.145, 226.6652
1199.627, 228.4725
1200.109, 230.2725
1200.592, 232.2733
1201.074, 234.7180
1201.556, 237.7769
1202.038, 240.4952
1202.520, 241.5753
1203.002, 241.7795
1203.484, 242.2277
1203.966, 242.8034
1204.448, 243.5628
1204.931, 244.1980
1205.413, 243.8505
1205.895, 242.4653
1206.377, 241.1458
1206.859, 240.6086
1207.341, 239.8113
1207.823, 238.0615
1208.305, 235.8822
1208.787, 233.3107
1209.270, 230.7664
1209.752, 228.7993
1210.234, 227.1721
1210.716, 225.1572
1211.198, 222.6142
1211.680, 220.4402
1212.162, 219.6570
1212.644, 217.8389
1213.127, 213.5347
1213.609, 209.6384
1214.091, 207.6375
1214.573, 206.0220
1215.055, 203.4184
1215.537, 200.0293
1216.019, 196.4348
1216.501, 192.5987
1216.984, 188.9322
1217.466, 185.5014
1217.948, 181.7077
1218.430, 177.4000
1218.912, 173.3820
1219.394, 170.0631
1219.876, 166.9899
1220.358, 163.6709
1220.840, 160.2596
1221.323, 157.2606
1221.805, 153.5239
1222.287, 150.6878
1222.769, 146.3480
1223.251, 142.4041
1223.733, 139.0831
1224.215, 136.5260
1224.697, 134.8051
1225.179, 132.7776
1225.662, 129.0045
1226.144, 125.0234
1226.626, 122.2871
1227.108, 120.0737
1227.590, 117.9489
1228.072, 115.6137
1228.554, 112.3881
1229.036, 108.4960
1229.519, 105.3274
1230.001, 103.4406
1230.483, 101.6544
1230.965, 99.91451
1231.447, 97.93626
1231.929, 95.24088
1232.411, 92.71969
1232.893, 91.14157
1233.375, 89.86549
1233.858, 87.95291
1234.340, 85.49321
1234.822, 83.26377
1235.304, 81.23459
1235.786, 79.61263
1236.268, 78.49763
1236.750, 77.15700
1237.232, 75.36829
1237.714, 73.61779
1238.197, 72.21004
1238.679, 71.02727
1239.161, 69.96641
1239.643, 68.92334
1240.125, 67.44128
1240.607, 65.76418
1241.089, 64.62313
1241.571, 63.96171
1242.054, 63.46687
1242.536, 62.99467
1243.018, 62.31846
1243.500, 61.29914
1243.982, 60.19638
1244.464, 59.07109
1244.946, 58.08286
1245.428, 57.45988
1245.910, 56.93281
1246.393, 56.24777
1246.875, 55.46033
1247.357, 54.67515
1247.839, 53.91898
1248.321, 53.27148
1248.803, 52.78030
1249.285, 52.31802
1249.767, 51.92030
1250.250, 51.47264
1250.732, 50.88563
1251.214, 50.35926
1251.696, 50.03320
1252.178, 49.80173
1252.660, 49.49552
1253.142, 49.14991
1253.624, 48.99329
1254.106, 49.01947
1254.589, 48.92413
1255.071, 48.69983
1255.553, 48.49047
1256.035, 48.33105
1256.517, 48.19143
1256.999, 48.05810
1257.481, 47.84419
1257.963, 47.39628
1258.445, 46.88465
1258.928, 46.53559
1259.410, 46.27978
1259.892, 46.06790
1260.374, 45.84950
1260.856, 45.50364
1261.338, 45.06696
1261.820, 44.77195
1262.302, 44.72554
1262.785, 44.62756
1263.267, 44.21738
1263.749, 43.97818
1264.231, 44.30357
1264.713, 44.56129
1265.195, 44.29691
1265.677, 43.86414
1266.159, 43.63633
1266.641, 43.58709
1267.124, 43.64013
1267.606, 43.82885
1268.088, 43.81943
1268.570, 43.58345
1269.052, 43.48297
1269.534, 43.58189
1270.016, 43.72039
1270.498, 43.82891
1270.980, 43.71161
1271.463, 43.08907
1271.945, 42.43473
1272.427, 42.68530
1272.909, 43.29431
1273.391, 43.25031
1273.873, 42.86231
1274.355, 42.79176
1274.837, 42.99357
1275.320, 43.03065
1275.802, 42.79441
1276.284, 42.58497
1276.766, 42.49192
1277.248, 42.50254
1277.730, 42.69956
1278.212, 42.88893
1278.694, 43.15607
1279.177, 43.18764
1279.659, 42.39748
1280.141, 42.87241
1280.623, 41.68979
1281.105, 43.05000
1281.587, 43.70554
1282.069, 43.58151
1282.551, 43.27560
1283.033, 42.81292
1283.516, 42.45745
1283.998, 42.27919
1284.480, 42.19289
1284.962, 42.14495
1285.444, 42.15398
1285.926, 42.24262
1286.408, 42.41425
##END=



