##NAMES=Uvarovite
##RRUFFID=R061041
##IDEAL CHEMISTRY=Ca_3_Cr^3+^_2_(SiO_4_)_3_
##LOCALITY=Outokumpu, Finland
##OWNER=RRUFF
##SOURCE=Royal Ontario Museum
##DESCRIPTION=Emerald-green euhedral crystal
##STATUS=The identification of this mineral has been confirmed by X-ray diffraction and chemical analysis
##URL=rruff.info/R061041
##MEASURED CHEMISTRY=(Ca_2.93_Mg_0.05_Mn_0.01_[box]_0.01_)_Σ=3.00_(Cr_1.23_Al_0.72_Fe^3+^_0.03_Ti_0.02_)_Σ=2_(Si_1.00_O_4_)_3_
145.1458, 3457.895
145.6279, 3524.825
146.1101, 3576.958
146.5922, 3606.480
147.0743, 3614.335
147.5564, 3621.161
148.0385, 3626.740
148.5206, 3631.347
149.0028, 3634.965
149.4849, 3629.873
149.9670, 3632.669
150.4491, 3649.559
150.9312, 3685.316
151.4133, 3712.352
151.8955, 3723.086
152.3776, 3727.547
152.8597, 3737.865
153.3418, 3769.616
153.8239, 3794.616
154.3060, 3802.743
154.7882, 3782.370
155.2703, 3769.604
155.7524, 3770.014
156.2345, 3781.100
156.7166, 3797.653
157.1987, 3825.552
157.6808, 3853.610
158.1630, 3876.091
158.6451, 3887.307
159.1272, 3897.988
159.6093, 3908.031
160.0914, 3918.395
160.5735, 3933.972
161.0557, 3956.929
161.5378, 3985.249
162.0199, 4017.519
162.5020, 4062.737
162.9841, 4103.026
163.4662, 4127.354
163.9484, 4136.326
164.4305, 4147.436
164.9126, 4163.338
165.3947, 4187.681
165.8768, 4224.749
166.3589, 4287.172
166.8411, 4355.394
167.3232, 4415.275
167.8053, 4464.285
168.2874, 4519.385
168.7695, 4595.230
169.2516, 4684.789
169.7338, 4774.868
170.2159, 4865.836
170.6980, 4951.298
171.1801, 5023.032
171.6622, 5076.891
172.1443, 5127.985
172.6265, 5177.229
173.1086, 5231.153
173.5907, 5309.502
174.0728, 5441.830
174.5549, 5602.165
175.0370, 5757.056
175.5192, 5909.789
176.0013, 6038.310
176.4834, 6116.774
176.9655, 6147.230
177.4476, 6143.581
177.9297, 6120.345
178.4118, 6070.128
178.8940, 5976.586
179.3761, 5812.518
179.8582, 5616.969
180.3403, 5447.533
180.8224, 5302.750
181.3046, 5179.600
181.7867, 5078.871
182.2688, 4996.952
182.7509, 4923.337
183.2330, 4852.393
183.7151, 4787.138
184.1973, 4733.748
184.6794, 4694.039
185.1615, 4656.881
185.6436, 4599.977
186.1257, 4528.252
186.6078, 4479.152
187.0900, 4486.013
187.5721, 4532.737
188.0542, 4553.388
188.5363, 4541.294
189.0184, 4516.691
189.5005, 4509.894
189.9827, 4520.642
190.4648, 4533.486
190.9469, 4542.726
191.4290, 4547.819
191.9111, 4544.347
192.3932, 4529.956
192.8754, 4509.856
193.3575, 4494.126
193.8396, 4482.829
194.3217, 4474.034
194.8038, 4466.005
195.2859, 4458.851
195.7681, 4455.898
196.2502, 4459.208
196.7323, 4466.085
197.2144, 4467.271
197.6965, 4461.637
198.1786, 4456.273
198.6607, 4457.828
199.1429, 4466.879
199.6250, 4475.069
200.1071, 4479.559
200.5892, 4481.844
201.0713, 4490.972
201.5534, 4508.344
202.0356, 4527.971
202.5177, 4543.577
202.9998, 4554.450
203.4819, 4564.782
203.9640, 4576.439
204.4461, 4589.009
204.9283, 4594.972
205.4104, 4592.768
205.8925, 4586.563
206.3746, 4582.491
206.8567, 4557.918
207.3388, 4595.228
207.8210, 4619.044
208.3031, 4630.089
208.7852, 4590.117
209.2673, 4616.023
209.7494, 4615.528
210.2315, 4613.951
210.7137, 4649.130
211.1958, 4616.578
211.6779, 4651.173
212.1600, 4658.965
212.6421, 4679.023
213.1242, 4672.519
213.6064, 4674.219
214.0885, 4702.491
214.5706, 4716.050
215.0527, 4706.487
215.5348, 4727.325
216.0169, 4693.846
216.4991, 4708.032
216.9812, 4742.783
217.4633, 4706.868
217.9454, 4698.361
218.4275, 4693.036
218.9096, 4691.061
219.3917, 4692.494
219.8739, 4697.335
220.3560, 4706.218
220.8381, 4721.353
221.3202, 4740.565
221.8023, 4754.875
222.2844, 4760.298
222.7666, 4767.212
223.2487, 4781.435
223.7308, 4802.339
224.2129, 4833.646
224.6950, 4883.557
225.1771, 4946.843
225.6593, 4981.633
226.1414, 4968.189
226.6235, 4951.965
227.1056, 4968.009
227.5877, 5036.279
228.0698, 5093.955
228.5520, 5127.742
229.0341, 5140.049
229.5162, 5172.386
229.9983, 5230.123
230.4804, 5301.365
230.9625, 5379.104
231.4447, 5470.300
231.9268, 5553.398
232.4089, 5624.127
232.8910, 5682.068
233.3731, 5743.303
233.8552, 5808.623
234.3374, 5876.580
234.8195, 5945.300
235.3016, 6016.164
235.7837, 6085.076
236.2658, 6148.002
236.7479, 6203.552
237.2301, 6275.798
237.7122, 6374.105
238.1943, 6480.643
238.6764, 6575.636
239.1585, 6646.059
239.6406, 6728.200
240.1227, 6842.776
240.6049, 7002.459
241.0870, 7098.905
241.5691, 7129.403
242.0512, 7098.409
242.5333, 7005.054
243.0154, 6816.375
243.4976, 6620.777
243.9797, 6440.419
244.4618, 6280.787
244.9439, 6111.264
245.4260, 5914.341
245.9081, 5719.711
246.3903, 5570.586
246.8724, 5480.100
247.3545, 5413.087
247.8366, 5363.531
248.3187, 5337.038
248.8008, 5304.603
249.2830, 5260.925
249.7651, 5214.979
250.2472, 5181.352
250.7293, 5161.458
251.2114, 5151.697
251.6935, 5155.155
252.1757, 5179.708
252.6578, 5185.792
253.1399, 5166.755
253.6220, 5133.803
254.1041, 5104.529
254.5862, 5073.466
255.0684, 5055.958
255.5505, 5058.801
256.0326, 5087.244
256.5147, 5119.672
256.9968, 5162.060
257.4789, 5205.048
257.9611, 5226.414
258.4432, 5211.137
258.9253, 5203.280
259.4074, 5221.891
259.8895, 5275.755
260.3716, 5325.271
260.8538, 5365.887
261.3359, 5405.005
261.8180, 5457.275
262.3001, 5527.396
262.7822, 5601.385
263.2643, 5677.884
263.7465, 5762.166
264.2286, 5824.252
264.7107, 5852.548
265.1928, 5865.953
265.6749, 5905.460
266.1570, 5981.977
266.6392, 6058.890
267.1213, 6117.347
267.6034, 6148.014
268.0855, 6200.978
268.5676, 6284.502
269.0497, 6383.659
269.5318, 6468.020
270.0139, 6533.303
270.4961, 6594.921
270.9782, 6676.658
271.4603, 6796.906
271.9424, 6824.712
272.4245, 6735.388
272.9066, 6574.510
273.3888, 6430.904
273.8709, 6306.306
274.3530, 6193.352
274.8351, 6088.965
275.3172, 5992.496
275.7993, 5911.738
276.2815, 5851.620
276.7636, 5801.417
277.2457, 5735.377
277.7278, 5648.275
278.2099, 5571.936
278.6920, 5526.670
279.1742, 5513.826
279.6563, 5496.247
280.1384, 5469.563
280.6205, 5441.646
281.1026, 5430.736
281.5847, 5439.389
282.0669, 5442.650
282.5490, 5422.555
283.0311, 5380.206
283.5132, 5351.915
283.9953, 5342.951
284.4774, 5341.221
284.9596, 5326.291
285.4417, 5297.954
285.9238, 5264.314
286.4059, 5220.125
286.8880, 5169.259
287.3701, 5149.131
287.8523, 5167.306
288.3344, 5201.856
288.8165, 5223.908
289.2986, 5233.505
289.7807, 5228.421
290.2628, 5201.238
290.7450, 5156.456
291.2271, 5111.404
291.7092, 5063.005
292.1913, 5026.446
292.6734, 5031.396
293.1555, 5073.347
293.6377, 5115.416
294.1198, 5139.233
294.6019, 5149.763
295.0840, 5162.740
295.5661, 5180.860
296.0482, 5193.263
296.5304, 5176.248
297.0125, 5138.149
297.4946, 5113.208
297.9767, 5131.173
298.4588, 5171.288
298.9409, 5191.270
299.4231, 5186.913
299.9052, 5177.220
300.3873, 5182.180
300.8694, 5197.843
301.3515, 5213.679
301.8336, 5222.722
302.3158, 5229.288
302.7979, 5240.071
303.2800, 5255.630
303.7621, 5270.858
304.2442, 5279.141
304.7263, 5283.624
305.2085, 5291.421
305.6906, 5313.827
306.1727, 5336.558
306.6548, 5344.330
307.1369, 5336.404
307.6190, 5322.532
308.1012, 5303.739
308.5833, 5285.235
309.0654, 5274.429
309.5475, 5279.989
310.0296, 5290.771
310.5117, 5296.000
310.9938, 5295.618
311.4760, 5302.829
311.9581, 5335.662
312.4402, 5377.903
312.9223, 5409.294
313.4044, 5418.010
313.8865, 5418.360
314.3687, 5413.454
314.8508, 5404.166
315.3329, 5401.628
315.8150, 5418.585
316.2971, 5441.690
316.7792, 5458.025
317.2614, 5451.342
317.7435, 5449.425
318.2256, 5468.120
318.7077, 5504.499
319.1898, 5533.439
319.6719, 5537.863
320.1541, 5536.818
320.6362, 5544.242
321.1183, 5568.851
321.6004, 5595.971
322.0825, 5621.802
322.5646, 5647.008
323.0468, 5675.490
323.5289, 5713.902
324.0110, 5751.783
324.4931, 5783.332
324.9752, 5804.683
325.4573, 5822.813
325.9395, 5834.726
326.4216, 5842.803
326.9037, 5856.798
327.3858, 5879.807
327.8679, 5906.827
328.3500, 5936.043
328.8322, 5968.113
329.3143, 6001.224
329.7964, 6038.646
330.2785, 6076.888
330.7606, 6106.062
331.2427, 6115.242
331.7249, 6128.175
332.2070, 6155.329
332.6891, 6207.688
333.1712, 6247.110
333.6533, 6268.768
334.1354, 6280.327
334.6176, 6295.653
335.0997, 6315.065
335.5818, 6337.639
336.0639, 6361.844
336.5460, 6386.130
337.0281, 6421.834
337.5103, 6470.806
337.9924, 6529.313
338.4745, 6597.166
338.9566, 6683.201
339.4387, 6746.491
339.9208, 6765.774
340.4030, 6742.644
340.8851, 6744.829
341.3672, 6777.800
341.8493, 6822.399
342.3314, 6861.282
342.8135, 6894.594
343.2957, 6915.805
343.7778, 6916.115
344.2599, 6903.613
344.7420, 6912.589
345.2241, 6944.269
345.7062, 6987.878
346.1884, 7029.561
346.6705, 7072.090
347.1526, 7132.932
347.6347, 7219.038
348.1168, 7322.922
348.5989, 7428.887
349.0811, 7535.482
349.5632, 7646.503
350.0453, 7754.958
350.5274, 7868.010
351.0095, 8006.612
351.4916, 8176.931
351.9737, 8368.619
352.4558, 8572.940
352.9380, 8788.750
353.4201, 9010.931
353.9022, 9210.962
354.3843, 9424.793
354.8664, 9701.432
355.3485, 10052.06
355.8307, 10451.05
356.3128, 10870.56
356.7949, 11317.18
357.2770, 11815.29
357.7591, 12390.15
358.2412, 13012.20
358.7234, 13649.98
359.2055, 14292.67
359.6876, 14997.89
360.1697, 15819.60
360.6518, 16711.32
361.1339, 17632.71
361.6161, 18577.12
362.0982, 19533.94
362.5803, 20489.79
363.0624, 21448.17
363.5445, 22406.85
364.0266, 23364.15
364.5088, 24325.80
364.9909, 25285.43
365.4730, 26247.51
365.9551, 27212.25
366.4372, 28199.04
366.9193, 29204.78
367.4015, 30158.58
367.8836, 31086.30
368.3657, 31932.71
368.8478, 32654.41
369.3299, 33352.76
369.8120, 33809.04
370.2942, 34048.01
370.7763, 34043.55
371.2584, 33676.75
371.7405, 32894.71
372.2226, 31808.87
372.7047, 30425.34
373.1869, 28634.04
373.6690, 26824.65
374.1511, 24980.20
374.6332, 23145.40
375.1153, 21408.56
375.5974, 19770.35
376.0796, 18276.27
376.5617, 16943.66
377.0438, 15798.34
377.5259, 14769.50
378.0080, 13872.98
378.4901, 13079.19
378.9723, 12371.62
379.4544, 11747.67
379.9365, 11193.38
380.4186, 10716.23
380.9007, 10304.87
381.3828, 9945.012
381.8650, 9633.104
382.3471, 9358.119
382.8292, 9119.127
383.3113, 8908.682
383.7934, 8702.825
384.2755, 8483.686
384.7577, 8274.827
385.2398, 8120.678
385.7219, 8016.792
386.2040, 7927.768
386.6861, 7829.406
387.1682, 7728.277
387.6504, 7633.899
388.1325, 7545.209
388.6146, 7467.248
389.0967, 7412.086
389.5788, 7370.997
390.0609, 7322.711
390.5431, 7241.459
391.0252, 7158.284
391.5073, 7098.399
391.9894, 7067.819
392.4715, 7045.978
392.9536, 7021.704
393.4357, 7000.423
393.9178, 6989.089
394.4000, 7012.047
394.8821, 7025.764
395.3642, 7004.078
395.8463, 6945.273
396.3284, 6901.383
396.8105, 6891.034
397.2927, 6896.839
397.7748, 6905.759
398.2569, 6919.574
398.7390, 6932.365
399.2211, 6949.053
399.7032, 6966.435
400.1854, 6965.325
400.6675, 6928.398
401.1496, 6889.864
401.6317, 6868.402
402.1138, 6890.058
402.5959, 6874.784
403.0781, 6811.102
403.5602, 6716.434
404.0423, 6625.091
404.5244, 6536.375
405.0065, 6452.214
405.4886, 6372.458
405.9708, 6297.042
406.4529, 6227.112
406.9350, 6164.085
407.4171, 6104.712
407.8992, 6044.458
408.3813, 5982.890
408.8635, 5927.308
409.3456, 5883.500
409.8277, 5845.653
410.3098, 5790.651
410.7919, 5717.325
411.2740, 5653.516
411.7562, 5630.684
412.2383, 5635.941
412.7204, 5629.065
413.2025, 5598.573
413.6846, 5560.453
414.1667, 5528.931
414.6489, 5505.515
415.1310, 5496.736
415.6131, 5526.463
416.0952, 5563.533
416.5773, 5569.487
417.0594, 5536.610
417.5416, 5495.676
418.0237, 5459.538
418.5058, 5429.488
418.9879, 5407.945
419.4700, 5402.038
419.9521, 5399.340
420.4343, 5389.329
420.9164, 5372.258
421.3985, 5370.050
421.8806, 5411.696
422.3627, 5458.100
422.8448, 5480.608
423.3270, 5453.246
423.8091, 5425.774
424.2912, 5399.666
424.7733, 5377.551
425.2554, 5368.114
425.7375, 5375.581
426.2197, 5391.542
426.7018, 5415.677
427.1839, 5457.757
427.6660, 5479.976
428.1481, 5472.732
428.6302, 5452.742
429.1124, 5444.804
429.5945, 5450.144
430.0766, 5464.596
430.5587, 5494.090
431.0408, 5535.780
431.5229, 5544.474
432.0051, 5513.611
432.4872, 5473.600
432.9693, 5453.834
433.4514, 5452.979
433.9335, 5447.792
434.4156, 5429.903
434.8977, 5410.500
435.3799, 5417.895
435.8620, 5449.025
436.3441, 5474.074
436.8262, 5458.544
437.3083, 5427.435
437.7904, 5428.901
438.2726, 5471.626
438.7547, 5526.301
439.2368, 5575.408
439.7189, 5616.548
440.2010, 5645.302
440.6831, 5647.426
441.1653, 5645.393
441.6474, 5658.493
442.1295, 5685.942
442.6116, 5704.151
443.0937, 5692.326
443.5758, 5671.980
444.0580, 5660.745
444.5401, 5670.068
445.0222, 5679.939
445.5043, 5684.646
445.9864, 5686.643
446.4685, 5693.020
446.9507, 5717.842
447.4328, 5735.351
447.9149, 5735.557
448.3970, 5713.215
448.8791, 5689.414
449.3612, 5658.812
449.8434, 5630.931
450.3255, 5619.168
450.8076, 5630.479
451.2897, 5640.402
451.7718, 5643.955
452.2539, 5641.555
452.7361, 5635.772
453.2182, 5625.534
453.7003, 5615.582
454.1824, 5606.785
454.6645, 5599.704
455.1466, 5605.058
455.6288, 5627.654
456.1109, 5655.905
456.5930, 5669.238
457.0751, 5670.042
457.5572, 5672.568
458.0393, 5693.322
458.5215, 5717.560
459.0036, 5714.358
459.4857, 5682.047
459.9678, 5652.171
460.4499, 5657.348
460.9320, 5679.116
461.4142, 5691.483
461.8963, 5676.382
462.3784, 5661.012
462.8605, 5668.142
463.3426, 5690.142
463.8247, 5699.290
464.3069, 5669.689
464.7890, 5635.279
465.2711, 5617.768
465.7532, 5631.450
466.2353, 5631.047
466.7174, 5592.551
467.1996, 5541.202
467.6817, 5512.306
468.1638, 5530.573
468.6459, 5540.335
469.1280, 5528.738
469.6101, 5496.938
470.0923, 5468.669
470.5744, 5441.678
471.0565, 5421.985
471.5386, 5415.729
472.0207, 5425.629
472.5028, 5434.401
472.9850, 5441.701
473.4671, 5446.013
473.9492, 5444.727
474.4313, 5437.932
474.9134, 5425.861
475.3955, 5399.045
475.8776, 5366.839
476.3597, 5366.450
476.8419, 5399.257
477.3240, 5435.463
477.8061, 5446.319
478.2882, 5441.058
478.7703, 5437.974
479.2524, 5444.776
479.7346, 5451.664
480.2167, 5448.542
480.6988, 5438.026
481.1809, 5428.157
481.6630, 5401.869
482.1451, 5392.145
482.6273, 5430.499
483.1094, 5534.711
483.5915, 5620.025
484.0736, 5650.165
484.5557, 5653.142
485.0378, 5658.065
485.5200, 5666.079
486.0021, 5679.450
486.4842, 5700.573
486.9663, 5728.322
487.4484, 5754.505
487.9305, 5777.873
488.4127, 5801.559
488.8948, 5828.840
489.3769, 5862.649
489.8590, 5886.745
490.3411, 5896.913
490.8232, 5904.183
491.3054, 5930.244
491.7875, 5976.464
492.2696, 6009.024
492.7517, 6009.447
493.2338, 5992.072
493.7159, 6002.939
494.1981, 6041.107
494.6802, 6075.672
495.1623, 6072.426
495.6444, 6050.478
496.1265, 6048.364
496.6086, 6077.912
497.0908, 6109.604
497.5729, 6106.688
498.0550, 6088.733
498.5371, 6093.019
499.0192, 6167.527
499.5013, 6242.719
499.9835, 6268.527
500.4656, 6245.935
500.9477, 6240.635
501.4298, 6288.030
501.9119, 6349.249
502.3940, 6399.333
502.8762, 6423.227
503.3583, 6451.606
503.8404, 6484.756
504.3225, 6522.738
504.8046, 6566.102
505.2867, 6616.200
505.7689, 6668.799
506.2510, 6723.729
506.7331, 6780.872
507.2152, 6832.366
507.6973, 6878.211
508.1794, 6918.669
508.6616, 6956.529
509.1437, 6991.158
509.6258, 7008.895
510.1079, 7002.608
510.5900, 6989.800
511.0721, 7003.625
511.5543, 7037.743
512.0364, 7063.046
512.5185, 7050.321
513.0006, 7027.621
513.4827, 7030.726
513.9648, 7060.420
514.4470, 7097.504
514.9291, 7113.566
515.4112, 7137.937
515.8933, 7201.347
516.3754, 7328.892
516.8575, 7470.024
517.3397, 7603.993
517.8218, 7739.063
518.3039, 7897.259
518.7860, 8091.394
519.2681, 8301.127
519.7502, 8518.666
520.2324, 8744.335
520.7145, 8982.576
521.1966, 9237.795
521.6787, 9500.694
522.1608, 9765.121
522.6429, 10027.93
523.1251, 10307.60
523.6072, 10605.57
524.0893, 10918.15
524.5714, 11240.95
525.0535, 11575.32
525.5356, 11923.77
526.0178, 12306.19
526.4999, 12703.89
526.9820, 13064.85
527.4641, 13383.13
527.9462, 13693.98
528.4283, 14035.86
528.9105, 14382.49
529.3926, 14708.40
529.8747, 15020.65
530.3568, 15274.75
530.8389, 15484.47
531.3210, 15609.96
531.8032, 15582.73
532.2853, 15326.19
532.7674, 14960.47
533.2495, 14536.41
533.7316, 14055.15
534.2137, 13475.31
534.6959, 12695.86
535.1780, 11890.37
535.6601, 11136.66
536.1422, 10439.43
536.6243, 9794.352
537.1064, 9187.743
537.5885, 8639.593
538.0706, 8176.904
538.5527, 7806.754
539.0349, 7495.655
539.5170, 7240.945
539.9991, 7034.826
540.4812, 6851.568
540.9633, 6689.608
541.4454, 6548.301
541.9276, 6430.831
542.4097, 6332.385
542.8918, 6244.135
543.3739, 6165.135
543.8560, 6094.592
544.3381, 6039.333
544.8203, 5990.633
545.3024, 5935.067
545.7845, 5844.084
546.2666, 5767.005
546.7487, 5731.910
547.2308, 5734.585
547.7130, 5739.314
548.1951, 5743.313
548.6772, 5743.828
549.1593, 5738.246
549.6414, 5721.849
550.1235, 5713.777
550.6057, 5721.286
551.0878, 5730.434
551.5699, 5723.218
552.0520, 5695.101
552.5341, 5669.050
553.0162, 5646.920
553.4984, 5631.587
553.9805, 5634.751
554.4626, 5656.476
554.9447, 5679.701
555.4268, 5699.502
555.9089, 5712.592
556.3911, 5703.785
556.8732, 5671.073
557.3553, 5646.963
557.8374, 5664.125
558.3195, 5704.320
558.8016, 5744.453
559.2838, 5788.981
559.7659, 5815.865
560.2480, 5798.475
560.7301, 5755.947
561.2122, 5729.446
561.6943, 5738.491
562.1765, 5756.327
562.6586, 5781.432
563.1407, 5815.116
563.6228, 5821.283
564.1049, 5775.625
564.5870, 5731.983
565.0692, 5736.703
565.5513, 5812.043
566.0334, 5827.755
566.5155, 5757.979
566.9976, 5658.704
567.4797, 5617.602
567.9619, 5631.582
568.4440, 5650.204
568.9261, 5660.074
569.4082, 5661.042
569.8903, 5645.606
570.3724, 5617.314
570.8546, 5597.107
571.3367, 5610.164
571.8188, 5631.787
572.3009, 5636.020
572.7830, 5617.510
573.2651, 5597.219
573.7473, 5577.385
574.2294, 5564.012
574.7115, 5563.618
575.1936, 5599.352
575.6757, 5621.793
576.1578, 5618.755
576.6400, 5598.687
577.1221, 5580.997
577.6042, 5557.892
578.0863, 5552.716
578.5684, 5580.464
579.0505, 5638.719
579.5327, 5674.714
580.0148, 5683.580
580.4969, 5691.131
580.9790, 5723.412
581.4611, 5774.544
581.9432, 5814.238
582.4254, 5836.128
582.9075, 5852.809
583.3896, 5876.097
583.8717, 5904.788
584.3538, 5935.951
584.8359, 5965.370
585.3181, 5999.402
585.8002, 6044.830
586.2823, 6099.034
586.7644, 6152.213
587.2465, 6192.376
587.7286, 6238.082
588.2108, 6300.344
588.6929, 6386.178
589.1750, 6464.884
589.6571, 6529.522
590.1392, 6593.708
590.6213, 6678.082
591.1035, 6799.847
591.5856, 6871.741
592.0677, 6876.256
592.5498, 6837.461
593.0319, 6803.135
593.5140, 6772.247
593.9962, 6720.994
594.4783, 6633.796
594.9604, 6523.348
595.4425, 6398.017
595.9246, 6263.446
596.4067, 6157.131
596.8889, 6132.177
597.3710, 6131.888
597.8531, 6096.605
598.3352, 6008.211
598.8173, 5932.477
599.2994, 5893.061
599.7816, 5879.433
600.2637, 5880.899
600.7458, 5902.121
601.2279, 5931.901
601.7100, 5978.303
602.1921, 6030.315
602.6743, 6057.053
603.1564, 6051.280
603.6385, 6039.375
604.1206, 6028.106
604.6027, 6018.191
605.0848, 6012.682
605.5670, 6011.277
606.0491, 6018.772
606.5312, 6049.988
607.0133, 6091.423
607.4954, 6109.504
607.9775, 6096.888
608.4597, 6080.124
608.9418, 6076.791
609.4239, 6084.878
609.9060, 6101.671
610.3881, 6146.772
610.8702, 6178.216
611.3524, 6168.613
611.8345, 6133.216
612.3166, 6115.772
612.7987, 6129.472
613.2808, 6154.256
613.7629, 6188.550
614.2451, 6232.799
614.7272, 6267.904
615.2093, 6291.918
615.6914, 6311.741
616.1735, 6335.975
616.6556, 6363.576
617.1378, 6365.731
617.6199, 6334.647
618.1020, 6305.377
618.5840, 6332.681
619.0662, 6393.405
619.5483, 6431.021
620.0304, 6415.868
620.5125, 6388.359
620.9946, 6392.016
621.4767, 6408.981
621.9589, 6397.000
622.4410, 6306.110
622.9231, 6214.833
623.4052, 6163.140
623.8873, 6154.129
624.3694, 6119.012
624.8516, 6034.406
625.3337, 5947.882
625.8158, 5886.656
626.2979, 5860.563
626.7800, 5810.788
627.2621, 5729.002
627.7443, 5644.154
628.2264, 5591.286
628.7085, 5567.217
629.1906, 5549.508
629.6727, 5535.706
630.1548, 5520.908
630.6370, 5499.710
631.1191, 5472.367
631.6012, 5440.016
632.0833, 5396.479
632.5654, 5353.452
633.0475, 5319.598
633.5297, 5293.803
634.0118, 5268.299
634.4939, 5247.272
634.9760, 5220.760
635.4581, 5179.585
635.9402, 5115.019
636.4224, 5076.839
636.9045, 5081.250
637.3866, 5089.564
637.8687, 5060.604
638.3508, 4990.434
638.8329, 4944.219
639.3151, 4935.297
639.7972, 4937.852
640.2793, 4908.382
640.7614, 4855.915
641.2435, 4814.598
641.7256, 4806.345
642.2078, 4804.991
642.6899, 4780.389
643.1720, 4740.039
643.6541, 4709.578
644.1362, 4707.475
644.6183, 4711.571
645.1005, 4709.494
645.5826, 4699.200
646.0647, 4697.709
646.5468, 4714.972
647.0289, 4731.362
647.5110, 4736.171
647.9932, 4728.560
648.4753, 4708.794
648.9574, 4672.350
649.4395, 4633.935
649.9216, 4611.313
650.4037, 4603.392
650.8859, 4606.162
651.3680, 4624.291
651.8501, 4641.042
652.3322, 4627.443
652.8143, 4595.259
653.2964, 4572.117
653.7786, 4580.300
654.2607, 4593.088
654.7428, 4595.113
655.2249, 4587.948
655.7070, 4582.884
656.1891, 4596.578
656.6713, 4598.939
657.1534, 4571.102
657.6355, 4505.076
658.1176, 4476.152
658.5997, 4496.634
659.0818, 4529.383
659.5640, 4547.079
660.0461, 4549.974
660.5282, 4543.079
661.0103, 4525.595
661.4924, 4504.820
661.9745, 4485.500
662.4567, 4470.098
662.9388, 4465.311
663.4209, 4481.317
663.9030, 4496.474
664.3851, 4490.904
664.8672, 4473.679
665.3494, 4464.144
665.8315, 4481.668
666.3136, 4493.724
666.7957, 4482.928
667.2778, 4453.893
667.7599, 4440.607
668.2421, 4446.408
668.7242, 4460.813
669.2063, 4482.001
669.6884, 4509.514
670.1705, 4531.406
670.6526, 4548.452
671.1348, 4552.207
671.6169, 4525.554
672.0990, 4481.644
672.5811, 4448.855
673.0632, 4432.345
673.5453, 4423.270
674.0275, 4415.542
674.5096, 4411.496
674.9917, 4413.968
675.4738, 4435.528
675.9559, 4449.502
676.4380, 4439.774
676.9202, 4420.662
677.4023, 4421.513
677.8844, 4458.338
678.3665, 4482.945
678.8486, 4479.971
679.3307, 4457.375
679.8129, 4448.077
680.2950, 4452.519
680.7771, 4457.924
681.2592, 4457.266
681.7413, 4452.453
682.2234, 4445.083
682.7056, 4435.652
683.1877, 4432.324
683.6698, 4446.902
684.1519, 4465.860
684.6340, 4478.973
685.1161, 4485.236
685.5983, 4483.567
686.0804, 4463.134
686.5625, 4441.532
687.0446, 4433.707
687.5267, 4446.867
688.0089, 4458.614
688.4910, 4469.284
688.9731, 4476.965
689.4552, 4477.316
689.9373, 4470.470
690.4194, 4464.144
690.9016, 4458.633
691.3837, 4457.260
691.8658, 4472.673
692.3479, 4497.412
692.8300, 4509.178
693.3121, 4485.004
693.7943, 4455.013
694.2764, 4436.729
694.7585, 4429.386
695.2406, 4424.171
695.7227, 4415.625
696.2048, 4412.572
696.6870, 4420.303
697.1691, 4439.768
697.6512, 4453.306
698.1333, 4460.832
698.6154, 4463.358
699.0975, 4458.288
699.5797, 4447.285
700.0618, 4446.891
700.5438, 4459.196
701.0259, 4470.381
701.5081, 4460.485
701.9902, 4442.308
702.4723, 4439.841
702.9544, 4468.374
703.4365, 4485.424
703.9186, 4452.241
704.4008, 4401.500
704.8829, 4375.067
705.3650, 4400.531
705.8471, 4425.276
706.3292, 4446.926
706.8113, 4464.071
707.2935, 4445.562
707.7756, 4484.912
708.2577, 4507.316
708.7398, 4513.686
709.2219, 4455.998
709.7040, 4481.028
710.1862, 4472.908
710.6683, 4463.429
711.1504, 4500.101
711.6325, 4451.730
712.1146, 4487.670
712.5967, 4489.955
713.0789, 4507.643
713.5610, 4491.976
714.0431, 4486.612
714.5252, 4514.613
715.0073, 4524.139
715.4894, 4504.633
715.9716, 4523.300
716.4537, 4473.764
716.9358, 4484.077
717.4179, 4520.212
717.9000, 4502.383
718.3821, 4521.660
718.8643, 4526.805
719.3464, 4467.726
719.8285, 4429.085
720.3106, 4396.287
720.7927, 4408.189
721.2748, 4430.471
721.7570, 4443.923
722.2391, 4453.851
722.7212, 4467.404
723.2033, 4501.625
723.6854, 4518.718
724.1675, 4502.914
724.6497, 4472.466
725.1318, 4469.243
725.6139, 4502.587
726.0960, 4519.653
726.5781, 4499.635
727.0602, 4459.638
727.5424, 4439.780
728.0245, 4438.064
728.5066, 4442.727
728.9887, 4450.977
729.4708, 4460.103
729.9529, 4469.518
730.4351, 4478.364
730.9172, 4482.028
731.3993, 4468.309
731.8814, 4458.165
732.3635, 4463.952
732.8456, 4486.588
733.3278, 4506.229
733.8099, 4524.808
734.2920, 4536.595
734.7741, 4537.247
735.2562, 4527.022
735.7383, 4509.317
736.2205, 4483.013
736.7026, 4462.399
737.1847, 4459.694
737.6668, 4471.913
738.1489, 4501.461
738.6310, 4556.326
739.1132, 4592.264
739.5953, 4568.185
740.0774, 4523.089
740.5595, 4494.774
741.0416, 4501.959
741.5237, 4507.375
742.0059, 4507.844
742.4880, 4509.152
742.9701, 4522.131
743.4522, 4548.499
743.9343, 4564.661
744.4164, 4562.936
744.8986, 4555.728
745.3807, 4566.980
745.8628, 4589.220
746.3449, 4569.521
746.8270, 4612.113
747.3091, 4637.759
747.7913, 4647.374
748.2734, 4592.928
748.7555, 4621.200
749.2376, 4616.323
749.7197, 4610.087
750.2018, 4650.001
750.6840, 4604.874
751.1661, 4644.057
751.6482, 4649.584
752.1303, 4670.515
752.6124, 4658.091
753.0945, 4655.970
753.5767, 4687.214
754.0588, 4699.983
754.5409, 4683.720
755.0230, 4705.629
755.5051, 4659.336
755.9872, 4672.892
756.4694, 4712.271
756.9515, 4697.685
757.4336, 4685.230
757.9157, 4684.427
758.3978, 4703.274
758.8799, 4748.530
759.3621, 4746.386
759.8442, 4678.071
760.3263, 4616.968
760.8084, 4630.006
761.2905, 4699.920
761.7726, 4745.313
762.2548, 4760.695
762.7369, 4769.169
763.2190, 4794.757
763.7011, 4822.404
764.1832, 4832.477
764.6653, 4816.118
765.1475, 4800.354
765.6296, 4780.050
766.1117, 4771.728
766.5938, 4792.936
767.0759, 4865.683
767.5580, 4906.506
768.0402, 4903.322
768.5223, 4884.200
769.0044, 4891.620
769.4865, 4918.564
769.9686, 4919.102
770.4507, 4874.960
770.9329, 4829.447
771.4150, 4829.040
771.8971, 4856.496
772.3792, 4886.189
772.8613, 4929.194
773.3434, 4949.730
773.8256, 4915.828
774.3077, 4860.850
774.7898, 4843.292
775.2719, 4883.187
775.7540, 4908.038
776.2361, 4901.470
776.7183, 4878.295
777.2004, 4866.999
777.6825, 4866.736
778.1646, 4872.341
778.6467, 4885.419
779.1288, 4898.852
779.6110, 4902.161
780.0931, 4900.012
780.5752, 4904.004
781.0573, 4935.720
781.5394, 4955.675
782.0215, 4932.130
782.5037, 4884.830
782.9857, 4888.780
783.4678, 4967.495
783.9500, 5029.007
784.4321, 5038.874
784.9142, 5011.650
785.3963, 4985.424
785.8784, 4961.427
786.3605, 4949.770
786.8427, 4957.104
787.3248, 4978.728
787.8069, 5020.958
788.2890, 5077.759
788.7711, 5115.849
789.2532, 5104.098
789.7354, 5091.611
790.2175, 5100.238
790.6996, 5128.071
791.1817, 5145.328
791.6638, 5148.543
792.1459, 5152.704
792.6281, 5164.872
793.1102, 5184.319
793.5923, 5211.275
794.0744, 5245.223
794.5565, 5278.191
795.0386, 5307.655
795.5208, 5332.609
796.0029, 5349.344
796.4850, 5357.588
796.9671, 5373.369
797.4492, 5400.422
797.9313, 5437.336
798.4135, 5487.109
798.8956, 5552.283
799.3777, 5597.052
799.8598, 5617.510
800.3419, 5635.824
800.8240, 5666.563
801.3062, 5708.164
801.7883, 5761.297
802.2704, 5824.824
802.7525, 5883.040
803.2346, 5908.646
803.7167, 5935.067
804.1989, 5991.310
804.6810, 6086.687
805.1631, 6182.145
805.6452, 6283.505
806.1273, 6373.303
806.6094, 6433.932
807.0916, 6460.234
807.5737, 6515.625
808.0558, 6602.711
808.5379, 6700.998
809.0200, 6796.106
809.5021, 6888.007
809.9843, 6976.023
810.4664, 7059.255
810.9485, 7149.078
811.4306, 7256.821
811.9127, 7370.153
812.3948, 7480.642
812.8770, 7590.080
813.3591, 7687.445
813.8412, 7761.578
814.3233, 7841.574
814.8054, 7957.880
815.2875, 8107.195
815.7697, 8242.155
816.2518, 8360.090
816.7339, 8465.151
817.2160, 8544.230
817.6981, 8621.270
818.1802, 8731.380
818.6624, 8887.881
819.1445, 9037.159
819.6266, 9159.146
820.1087, 9268.416
820.5908, 9375.805
821.0729, 9483.192
821.5551, 9585.777
822.0372, 9682.914
822.5193, 9775.955
823.0014, 9863.478
823.4835, 9947.017
823.9656, 10037.06
824.4478, 10135.25
824.9299, 10229.79
825.4120, 10313.08
825.8941, 10387.70
826.3762, 10455.50
826.8583, 10509.57
827.3405, 10574.56
827.8226, 10655.46
828.3047, 10744.10
828.7868, 10840.11
829.2689, 10947.24
829.7510, 11016.40
830.2332, 11041.08
830.7153, 11054.91
831.1974, 11086.83
831.6795, 11133.06
832.1616, 11188.59
832.6437, 11253.34
833.1259, 11318.64
833.6080, 11380.36
834.0901, 11439.81
834.5722, 11501.72
835.0543, 11578.38
835.5364, 11618.57
836.0186, 11612.56
836.5007, 11589.56
836.9828, 11576.38
837.4649, 11569.95
837.9470, 11552.83
838.4291, 11523.33
838.9113, 11485.26
839.3934, 11435.28
839.8755, 11381.93
840.3576, 11339.52
840.8397, 11318.57
841.3218, 11272.00
841.8040, 11183.15
842.2861, 11071.82
842.7682, 10943.80
843.2503, 10793.29
843.7324, 10661.88
844.2145, 10551.45
844.6967, 10455.17
845.1788, 10378.87
845.6609, 10309.15
846.1430, 10220.31
846.6251, 10109.23
847.1072, 9989.605
847.5894, 9857.969
848.0715, 9728.954
848.5536, 9609.862
849.0357, 9498.663
849.5178, 9411.362
849.9999, 9355.720
850.4821, 9309.608
850.9642, 9256.422
851.4463, 9198.725
851.9284, 9156.600
852.4105, 9130.084
852.8926, 9103.370
853.3748, 9050.607
853.8569, 9001.251
854.3390, 8987.195
854.8211, 9013.519
855.3032, 9034.650
855.7853, 9030.878
856.2675, 9032.082
856.7496, 9053.670
857.2317, 9095.180
857.7138, 9122.705
858.1959, 9133.538
858.6780, 9158.174
859.1602, 9223.882
859.6423, 9312.846
860.1244, 9409.302
860.6065, 9508.447
861.0886, 9585.610
861.5707, 9588.134
862.0529, 9602.113
862.5350, 9684.192
863.0171, 9825.964
863.4992, 9940.583
863.9813, 10017.86
864.4634, 10098.15
864.9456, 10197.78
865.4276, 10315.41
865.9097, 10459.17
866.3918, 10623.81
866.8740, 10781.96
867.3561, 10918.52
867.8382, 11042.90
868.3203, 11144.92
868.8024, 11235.43
869.2845, 11373.32
869.7667, 11592.03
870.2488, 11811.22
870.7309, 12004.97
871.2130, 12186.53
871.6951, 12396.63
872.1772, 12631.88
872.6594, 12851.16
873.1415, 13029.28
873.6236, 13195.31
874.1057, 13373.64
874.5878, 13563.05
875.0699, 13758.89
875.5521, 13972.83
876.0342, 14180.00
876.5163, 14386.07
876.9984, 14578.01
877.4805, 14727.05
877.9626, 14831.42
878.4448, 14916.15
878.9269, 14985.21
879.4090, 15044.38
879.8911, 15109.27
880.3732, 15169.04
880.8553, 15201.58
881.3375, 15187.27
881.8196, 15164.73
882.3017, 15148.47
882.7838, 15129.98
883.2659, 15090.19
883.7480, 15002.53
884.2302, 14991.69
884.7123, 15082.54
885.1944, 15212.11
885.6765, 15293.00
886.1586, 15349.63
886.6407, 15453.23
887.1229, 15625.24
887.6050, 15800.16
888.0871, 15909.14
888.5692, 16020.18
889.0513, 16210.47
889.5334, 16536.70
890.0156, 16775.41
890.4977, 16904.55
890.9798, 16991.95
891.4619, 17096.69
891.9440, 17208.68
892.4261, 17288.14
892.9083, 17330.91
893.3904, 17314.88
893.8725, 17196.51
894.3546, 17030.79
894.8367, 16869.62
895.3188, 16725.30
895.8010, 16503.79
896.2831, 16176.72
896.7652, 15811.72
897.2473, 15440.27
897.7294, 15060.70
898.2115, 14639.69
898.6937, 14182.63
899.1758, 13712.04
899.6579, 13228.75
900.1400, 12752.97
900.6221, 12319.42
901.1042, 11918.30
901.5864, 11528.53
902.0685, 11129.64
902.5506, 10761.57
903.0327, 10445.71
903.5148, 10164.59
903.9969, 9867.093
904.4791, 9553.366
904.9612, 9259.908
905.4433, 9002.098
905.9254, 8768.022
906.4075, 8542.861
906.8896, 8328.805
907.3718, 8128.300
907.8539, 7931.336
908.3360, 7763.532
908.8181, 7640.002
909.3002, 7538.921
909.7823, 7432.328
910.2645, 7320.325
910.7466, 7205.071
911.2287, 7084.741
911.7108, 6971.005
912.1929, 6877.659
912.6750, 6798.070
913.1572, 6721.833
913.6393, 6645.197
914.1214, 6576.864
914.6035, 6524.666
915.0856, 6478.206
915.5677, 6431.988
916.0499, 6387.917
916.5320, 6333.126
917.0141, 6265.252
917.4962, 6202.457
917.9783, 6157.908
918.4604, 6130.219
918.9426, 6126.909
919.4247, 6146.144
919.9068, 6150.342
920.3889, 6107.773
920.8710, 6060.870
921.3531, 6032.474
921.8353, 6019.956
922.3174, 5988.991
922.7995, 5934.728
923.2816, 5893.049
923.7637, 5884.880
924.2458, 5896.988
924.7280, 5918.424
925.2101, 5941.474
925.6922, 5943.136
926.1743, 5898.188
926.6564, 5846.475
927.1385, 5784.815
927.6207, 5732.260
928.1028, 5736.602
928.5849, 5814.722
929.0670, 5861.166
929.5491, 5849.431
930.0313, 5814.735
930.5134, 5804.616
930.9955, 5809.826
931.4776, 5812.926
931.9597, 5812.131
932.4418, 5801.540
932.9240, 5756.942
933.4061, 5716.529
933.8882, 5717.525
934.3703, 5776.127
934.8524, 5811.390
935.3345, 5820.788
935.8167, 5816.074
936.2988, 5794.458
936.7809, 5770.979
937.2630, 5778.434
937.7451, 5817.904
938.2272, 5850.790
938.7094, 5847.927
939.1915, 5845.222
939.6736, 5868.781
940.1557, 5913.288
940.6378, 5916.688
941.1199, 5872.354
941.6021, 5830.390
942.0842, 5812.213
942.5663, 5811.994
943.0484, 5835.537
943.5305, 5869.449
944.0126, 5876.759
944.4948, 5812.759
944.9769, 5754.438
945.4590, 5726.194
945.9411, 5718.088
946.4232, 5718.302
946.9053, 5728.542
947.3875, 5733.905
947.8695, 5731.657
948.3516, 5725.195
948.8337, 5714.672
949.3159, 5704.159
949.7980, 5702.005
950.2801, 5713.628
950.7622, 5719.678
951.2443, 5714.765
951.7264, 5701.272
952.2086, 5680.841
952.6907, 5653.647
953.1728, 5610.048
953.6549, 5548.239
954.1370, 5498.931
954.6191, 5491.348
955.1013, 5505.613
955.5834, 5524.269
956.0655, 5544.081
956.5476, 5551.604
957.0297, 5523.936
957.5118, 5506.148
957.9940, 5518.639
958.4761, 5547.031
958.9582, 5532.520
959.4403, 5477.279
959.9224, 5457.396
960.4045, 5516.679
960.8867, 5587.763
961.3688, 5597.469
961.8509, 5572.627
962.3330, 5554.659
962.8151, 5562.740
963.2972, 5565.168
963.7794, 5553.221
964.2615, 5543.916
964.7436, 5559.187
965.2257, 5596.098
965.7078, 5625.011
966.1899, 5644.160
966.6721, 5650.563
967.1542, 5632.577
967.6363, 5607.892
968.1184, 5585.332
968.6005, 5565.588
969.0826, 5577.880
969.5648, 5645.931
970.0469, 5699.728
970.5290, 5702.406
971.0111, 5673.416
971.4932, 5680.896
971.9753, 5717.466
972.4575, 5747.709
972.9396, 5750.732
973.4217, 5746.573
973.9038, 5739.391
974.3859, 5734.740
974.8680, 5744.765
975.3502, 5778.583
975.8323, 5801.693
976.3144, 5808.604
976.7965, 5808.983
977.2786, 5814.009
977.7607, 5822.075
978.2429, 5829.660
978.7250, 5836.129
979.2071, 5842.037
979.6892, 5843.482
980.1713, 5848.066
980.6534, 5863.128
981.1356, 5889.186
981.6177, 5903.906
982.0998, 5906.457
982.5819, 5905.042
983.0640, 5901.189
983.5461, 5898.497
984.0283, 5911.588
984.5104, 5931.448
984.9925, 5930.299
985.4746, 5865.372
985.9567, 5819.310
986.4388, 5815.142
986.9210, 5835.455
987.4031, 5853.874
987.8852, 5870.399
988.3673, 5880.149
988.8494, 5881.545
989.3315, 5879.626
989.8137, 5873.242
990.2958, 5869.741
990.7779, 5880.671
991.2600, 5914.592
991.7421, 5932.241
992.2242, 5922.909
992.7064, 5911.479
993.1885, 5914.249
993.6706, 5927.055
994.1527, 5922.676
994.6348, 5904.708
995.1169, 5898.310
995.5991, 5933.338
996.0812, 5969.375
996.5633, 5977.999
997.0454, 5968.154
997.5275, 5966.735
998.0096, 5977.104
998.4918, 5987.935
998.9739, 5998.208
999.4560, 6006.484
999.9381, 6008.577
1000.420, 6007.740
1000.902, 6011.721
1001.384, 6023.335
1001.867, 6032.833
1002.349, 6033.015
1002.831, 6032.946
1003.313, 6042.731
1003.795, 6063.040
1004.277, 6048.842
1004.759, 5997.864
1005.241, 5953.599
1005.724, 5962.769
1006.206, 5978.057
1006.688, 5925.560
1007.170, 5832.740
1007.652, 5781.709
1008.134, 5853.174
1008.616, 5885.982
1009.098, 5846.807
1009.580, 5775.702
1010.063, 5736.085
1010.545, 5721.669
1011.027, 5695.648
1011.509, 5649.198
1011.991, 5609.599
1012.473, 5605.515
1012.955, 5610.358
1013.437, 5601.889
1013.919, 5578.068
1014.402, 5545.635
1014.884, 5499.688
1015.366, 5462.140
1015.848, 5447.142
1016.330, 5446.584
1016.812, 5448.792
1017.294, 5451.496
1017.776, 5447.945
1018.259, 5424.726
1018.741, 5408.190
1019.223, 5411.329
1019.705, 5421.033
1020.187, 5417.411
1020.669, 5399.982
1021.151, 5396.258
1021.633, 5410.813
1022.115, 5425.386
1022.598, 5421.700
1023.080, 5410.238
1023.562, 5400.644
1024.044, 5393.949
1024.526, 5387.988
1025.008, 5381.923
1025.490, 5377.637
1025.972, 5377.123
1026.454, 5377.806
1026.937, 5370.083
1027.419, 5356.998
1027.901, 5350.417
1028.383, 5368.932
1028.865, 5374.973
1029.347, 5338.151
1029.829, 5287.561
1030.311, 5256.945
1030.794, 5247.988
1031.276, 5255.472
1031.758, 5281.666
1032.240, 5307.784
1032.722, 5320.343
1033.204, 5321.062
1033.686, 5306.001
1034.168, 5277.164
1034.651, 5257.542
1035.133, 5260.163
1035.615, 5261.572
1036.097, 5255.011
1036.579, 5243.893
1037.061, 5232.167
1037.543, 5222.326
1038.025, 5229.653
1038.507, 5269.521
1038.990, 5297.125
1039.472, 5272.737
1039.954, 5229.456
1040.436, 5198.527
1040.918, 5180.286
1041.400, 5177.737
1041.882, 5192.137
1042.364, 5215.982
1042.846, 5259.310
1043.329, 5299.604
1043.811, 5297.186
1044.293, 5260.741
1044.775, 5223.170
1045.257, 5177.917
1045.739, 5158.083
1046.221, 5176.741
1046.703, 5214.085
1047.186, 5241.598
1047.668, 5259.978
1048.150, 5272.604
1048.632, 5280.324
1049.114, 5279.898
1049.596, 5258.237
1050.078, 5235.680
1050.560, 5229.783
1051.042, 5240.552
1051.525, 5255.470
1052.007, 5275.232
1052.489, 5296.027
1052.971, 5323.870
1053.453, 5342.102
1053.935, 5309.737
1054.417, 5250.931
1054.899, 5214.518
1055.381, 5231.341
1055.864, 5251.354
1056.346, 5276.092
1056.828, 5293.432
1057.310, 5284.033
1057.792, 5254.608
1058.274, 5251.000
1058.756, 5273.797
1059.238, 5290.347
1059.721, 5266.641
1060.203, 5243.323
1060.685, 5248.694
1061.167, 5275.199
1061.649, 5296.327
1062.131, 5313.861
1062.613, 5312.411
1063.095, 5282.852
1063.578, 5251.366
1064.060, 5257.038
1064.542, 5278.227
1065.024, 5283.258
1065.506, 5261.811
1065.988, 5244.715
1066.470, 5235.584
1066.952, 5230.024
1067.434, 5223.038
1067.917, 5218.509
1068.399, 5235.190
1068.881, 5268.687
1069.363, 5300.516
1069.845, 5343.277
1070.327, 5357.795
1070.809, 5294.006
1071.291, 5211.021
1071.773, 5189.389
1072.255, 5237.360
1072.738, 5260.251
1073.220, 5250.615
1073.702, 5236.750
1074.184, 5242.818
1074.666, 5256.498
1075.148, 5272.163
1075.630, 5287.058
1076.112, 5280.335
1076.595, 5240.040
1077.077, 5207.992
1077.559, 5196.411
1078.041, 5195.789
1078.523, 5190.841
1079.005, 5184.167
1079.487, 5181.537
1079.969, 5185.092
1080.452, 5189.417
1080.934, 5193.298
1081.416, 5196.417
1081.898, 5195.254
1082.380, 5192.014
1082.862, 5214.765
1083.344, 5259.338
1083.826, 5289.207
1084.308, 5269.128
1084.791, 5246.077
1085.273, 5254.882
1085.755, 5277.858
1086.237, 5285.520
1086.719, 5272.617
1087.201, 5263.124
1087.683, 5258.865
1088.165, 5255.019
1088.647, 5241.429
1089.130, 5229.577
1089.612, 5241.721
1090.094, 5273.655
1090.576, 5286.052
1091.058, 5255.693
1091.540, 5233.066
1092.022, 5229.872
1092.504, 5237.283
1092.987, 5242.131
1093.469, 5244.581
1093.951, 5241.582
1094.433, 5228.760
1094.915, 5232.344
1095.397, 5291.298
1095.879, 5342.165
1096.361, 5346.345
1096.844, 5311.227
1097.326, 5292.732
1097.808, 5290.132
1098.290, 5292.405
1098.772, 5299.291
1099.254, 5302.505
1099.736, 5289.727
1100.218, 5272.529
1100.700, 5266.319
1101.182, 5272.879
1101.665, 5290.212
1102.147, 5321.842
1102.629, 5341.860
1103.111, 5310.975
1103.593, 5268.987
1104.075, 5276.604
1104.557, 5320.876
1105.039, 5347.243
1105.522, 5324.457
1106.004, 5315.174
1106.486, 5332.169
1106.968, 5355.204
1107.450, 5352.032
1107.932, 5334.044
1108.414, 5332.693
1108.896, 5352.159
1109.379, 5364.637
1109.861, 5345.144
1110.343, 5331.994
1110.825, 5344.388
1111.307, 5372.052
1111.789, 5379.537
1112.271, 5370.001
1112.753, 5366.315
1113.235, 5377.112
1113.718, 5388.649
1114.200, 5391.283
1114.682, 5390.304
1115.164, 5390.313
1115.646, 5391.432
1116.128, 5393.377
1116.610, 5396.477
1117.092, 5393.979
1117.574, 5379.737
1118.057, 5360.893
1118.539, 5335.618
1119.021, 5313.679
1119.503, 5315.007
1119.985, 5363.295
1120.467, 5386.328
1120.949, 5378.534
1121.431, 5360.668
1121.914, 5343.722
1122.396, 5332.674
1122.878, 5341.536
1123.360, 5365.979
1123.842, 5383.028
1124.324, 5371.796
1124.806, 5371.340
1125.288, 5389.697
1125.771, 5417.601
1126.253, 5448.764
1126.735, 5477.372
1127.217, 5480.442
1127.699, 5453.961
1128.181, 5433.442
1128.663, 5440.513
1129.145, 5453.299
1129.627, 5466.386
1130.109, 5475.595
1130.592, 5461.480
1131.074, 5427.722
1131.556, 5403.721
1132.038, 5397.830
1132.520, 5402.356
1133.002, 5422.705
1133.484, 5443.053
1133.966, 5448.762
1134.449, 5439.789
1134.931, 5435.855
1135.413, 5437.134
1135.895, 5442.047
1136.377, 5454.031
1136.859, 5463.575
1137.341, 5456.061
1137.823, 5442.061
1138.306, 5439.509
1138.788, 5458.388
1139.270, 5462.903
1139.752, 5451.467
1140.234, 5432.490
1140.716, 5402.874
1141.198, 5375.583
1141.680, 5368.482
1142.162, 5378.809
1142.645, 5397.326
1143.127, 5440.563
1143.609, 5454.812
1144.091, 5426.637
1144.573, 5390.224
1145.055, 5388.608
1145.537, 5406.011
1146.019, 5409.821
1146.501, 5399.255
1146.984, 5392.637
1147.466, 5402.057
1147.948, 5408.018
1148.430, 5403.185
1148.912, 5396.282
1149.394, 5407.533
1149.876, 5429.852
1150.358, 5441.613
1150.841, 5438.003
1151.323, 5431.774
1151.805, 5417.972
1152.287, 5415.959
1152.769, 5440.853
1153.251, 5481.375
1153.733, 5490.130
1154.215, 5473.095
1154.697, 5463.795
1155.180, 5474.512
1155.662, 5489.055
1156.144, 5508.919
1156.626, 5519.115
1157.108, 5506.150
1157.590, 5471.255
1158.072, 5442.596
1158.554, 5420.554
1159.036, 5414.053
1159.519, 5440.762
1160.001, 5465.100
1160.483, 5459.564
1160.965, 5436.648
1161.447, 5410.055
1161.929, 5375.689
1162.411, 5367.787
1162.893, 5388.036
1163.375, 5405.544
1163.858, 5387.580
1164.340, 5368.122
1164.822, 5387.762
1165.304, 5427.107
1165.786, 5441.075
1166.268, 5423.145
1166.750, 5393.276
1167.232, 5348.599
1167.715, 5316.461
1168.197, 5331.660
1168.679, 5365.073
1169.161, 5383.190
1169.643, 5388.661
1170.125, 5405.275
1170.607, 5446.057
1171.089, 5464.008
1171.572, 5447.487
1172.054, 5419.888
1172.536, 5401.262
1173.018, 5392.809
1173.500, 5402.155
1173.982, 5428.889
1174.464, 5441.136
1174.946, 5424.407
1175.428, 5418.997
1175.911, 5439.012
1176.393, 5466.202
1176.875, 5472.121
1177.357, 5465.096
1177.839, 5459.192
1178.321, 5456.991
1178.803, 5454.853
1179.285, 5453.197
1179.767, 5448.881
1180.250, 5437.755
1180.732, 5426.886
1181.214, 5434.842
1181.696, 5454.292
1182.178, 5471.474
1182.660, 5488.750
1183.142, 5479.701
1183.624, 5414.804
1184.107, 5362.019
1184.589, 5360.490
1185.071, 5394.103
1185.553, 5421.713
1186.035, 5441.781
1186.517, 5447.750
1186.999, 5423.161
1187.481, 5414.350
1187.964, 5445.865
1188.446, 5477.314
1188.928, 5476.570
1189.410, 5452.646
1189.892, 5448.883
1190.374, 5460.480
1190.856, 5468.689
1191.338, 5470.687
1191.820, 5458.920
1192.302, 5413.317
1192.785, 5374.653
1193.267, 5392.010
1193.749, 5452.251
1194.231, 5470.372
1194.713, 5451.652
1195.195, 5440.173
1195.677, 5478.454
1196.159, 5501.668
1196.642, 5476.042
1197.124, 5438.591
1197.606, 5438.417
1198.088, 5468.010
1198.570, 5479.141
1199.052, 5470.833
1199.534, 5468.617
1200.016, 5507.859
1200.499, 5529.827
1200.981, 5500.699
1201.463, 5452.500
1201.945, 5433.753
1202.427, 5441.402
1202.909, 5461.421
1203.391, 5492.053
1203.873, 5508.672
1204.355, 5485.849
1204.838, 5457.188
1205.320, 5433.233
1205.802, 5416.953
1206.284, 5416.283
1206.766, 5429.809
1207.248, 5451.880
1207.730, 5482.418
1208.212, 5505.705
1208.694, 5508.216
1209.177, 5504.471
1209.659, 5496.443
1210.141, 5490.729
1210.623, 5513.790
1211.105, 5559.314
1211.587, 5587.185
1212.069, 5587.855
1212.551, 5575.939
1213.034, 5540.127
1213.516, 5515.656
1213.998, 5525.024
1214.480, 5558.071
1214.962, 5575.171
1215.444, 5579.082
1215.926, 5589.337
1216.408, 5618.858
1216.891, 5624.569
1217.373, 5547.325
1217.855, 5475.503
1218.337, 5465.862
1218.819, 5503.849
1219.301, 5520.491
1219.783, 5519.925
1220.265, 5521.633
1220.747, 5533.154
1221.229, 5544.703
1221.712, 5560.625
1222.194, 5564.372
1222.676, 5537.116
1223.158, 5489.360
1223.640, 5489.427
1224.122, 5526.057
1224.604, 5544.247
1225.086, 5508.302
1225.569, 5480.777
1226.051, 5496.518
1226.533, 5522.502
1227.015, 5539.581
1227.497, 5549.343
1227.979, 5557.557
1228.461, 5566.277
1228.943, 5585.431
1229.426, 5636.612
1229.908, 5670.017
1230.390, 5662.680
1230.872, 5640.174
1231.354, 5614.966
1231.836, 5589.270
1232.318, 5573.378
1232.800, 5567.587
1233.282, 5573.315
1233.765, 5610.436
1234.247, 5630.886
1234.729, 5617.607
1235.211, 5594.978
1235.693, 5581.751
1236.175, 5575.458
1236.657, 5567.560
1237.139, 5557.862
1237.621, 5545.464
1238.104, 5509.295
1238.586, 5504.062
1239.068, 5550.443
1239.550, 5604.469
1240.032, 5627.815
1240.514, 5627.713
1240.996, 5619.172
1241.478, 5605.405
1241.960, 5596.696
1242.443, 5592.447
1242.925, 5602.749
1243.407, 5634.854
1243.889, 5667.445
1244.371, 5684.591
1244.853, 5684.913
1245.335, 5653.239
1245.817, 5600.434
1246.300, 5569.594
1246.782, 5579.259
1247.264, 5609.461
1247.746, 5671.834
1248.228, 5719.294
1248.710, 5690.403
1249.192, 5624.222
1249.674, 5575.023
1250.156, 5544.776
1250.639, 5531.104
1251.121, 5542.974
1251.603, 5546.244
1252.085, 5534.479
1252.567, 5527.428
1253.049, 5552.421
1253.531, 5587.425
1254.013, 5604.829
1254.495, 5606.980
1254.978, 5610.725
1255.460, 5621.760
1255.942, 5615.638
1256.424, 5586.960
1256.906, 5557.009
1257.388, 5540.020
1257.870, 5536.065
1258.352, 5553.684
1258.835, 5584.781
1259.317, 5597.456
1259.799, 5586.755
1260.281, 5594.455
1260.763, 5627.873
1261.245, 5651.654
1261.727, 5626.121
1262.209, 5588.215
1262.692, 5563.185
1263.174, 5549.765
1263.656, 5544.194
1264.138, 5546.932
1264.620, 5542.434
1265.102, 5528.624
1265.584, 5517.627
1266.066, 5507.776
1266.548, 5515.088
1267.031, 5563.725
1267.513, 5627.355
1267.995, 5659.336
1268.477, 5661.381
1268.959, 5642.395
1269.441, 5603.716
1269.923, 5586.824
1270.405, 5654.113
1270.887, 5699.322
1271.370, 5669.133
1271.852, 5610.818
1272.334, 5610.010
1272.816, 5650.145
1273.298, 5667.194
1273.780, 5655.965
1274.262, 5650.276
1274.744, 5678.569
1275.227, 5693.698
1275.709, 5679.487
1276.191, 5658.153
1276.673, 5673.654
1277.155, 5702.684
1277.637, 5689.101
1278.119, 5632.503
1278.601, 5588.323
1279.083, 5564.614
1279.566, 5567.855
1280.048, 5607.406
1280.530, 5650.798
1281.012, 5656.138
1281.494, 5641.256
1281.976, 5624.853
1282.458, 5610.080
1282.940, 5607.053
1283.422, 5619.623
1283.905, 5629.867
1284.387, 5635.157
1284.869, 5635.233
1285.351, 5622.203
1285.833, 5610.234
1286.315, 5615.604
1286.797, 5634.897
1287.279, 5650.291
1287.762, 5662.022
1288.244, 5668.544
1288.726, 5670.016
1289.208, 5661.530
1289.690, 5623.893
1290.172, 5590.580
1290.654, 5587.103
1291.136, 5600.974
1291.619, 5614.938
1292.101, 5629.453
1292.583, 5640.093
1293.065, 5646.239
1293.547, 5648.244
1294.029, 5632.501
1294.511, 5632.131
1294.993, 5668.916
1295.475, 5711.793
1295.958, 5716.199
1296.440, 5697.694
1296.922, 5669.476
1297.404, 5638.008
1297.886, 5620.340
##END=



