##NAMES=Uzonite
##RRUFFID=R100020
##IDEAL CHEMISTRY=As_4_S_5_
##LOCALITY=Lazaresti, Harghita County, Romania
##OWNER=RRUFF
##SOURCE=William Pinch
##DESCRIPTION=Yellow prismatic crystals associated with isolated red crystals of realgar
##STATUS=The identification of this mineral has been confirmed by single-crystal X-ray diffraction.
##URL=rruff.info/R100020
89.60352, 0.3029945
90.08563, 0.3817683
90.56775, 0.3959958
91.04987, 0.3002674
91.53198, 0.1816242
92.01410, 0.1656618
92.49622, 0.2472542
92.97833, 0.3360129
93.46045, 0.3481756
93.94257, 0.2999368
94.42468, 0.2451864
94.90680, 0.1909418
95.38892, 0.1448629
95.87103, 0.1342953
96.35315, 0.1639495
96.83527, 0.2107468
97.31738, 0.2522438
97.79950, 0.2888564
98.28162, 0.3087036
98.76373, 0.2998582
99.24585, 0.2612581
99.72797, 0.2292397
100.2101, 0.2016061
100.6922, 0.1837246
101.1743, 0.1970450
101.6564, 0.2583343
102.1385, 0.3055831
102.6207, 0.2844379
103.1028, 0.1473064
103.5849, 9.7582743E-02
104.0670, 0.1913656
104.5491, 0.4023412
105.0313, 0.5269054
105.5134, 0.5321052
105.9955, 0.4863671
106.4776, 0.4398761
106.9597, 0.3877455
107.4418, 0.3422889
107.9240, 0.3043113
108.4061, 0.2731453
108.8882, 0.2546311
109.3703, 0.2442892
109.8524, 0.2483795
110.3345, 0.2735514
110.8167, 0.3826233
111.2988, 0.4554035
111.7809, 0.4475541
112.2630, 0.3172890
112.7451, 0.2239953
113.2272, 0.2125459
113.7094, 0.2485039
114.1915, 0.2748800
114.6736, 0.2735914
115.1557, 0.2630181
115.6378, 0.2534992
116.1199, 0.2556216
116.6021, 0.2431320
117.0842, 0.1674502
117.5663, 6.1282709E-02
118.0484, 2.2856761E-02
118.5305, 0.1611447
119.0126, 0.3527735
119.4948, 0.4961601
119.9769, 0.5408336
120.4590, 0.5524401
120.9411, 0.5566918
121.4232, 0.5563395
121.9053, 0.5723918
122.3875, 0.6477714
122.8696, 0.7421337
123.3517, 0.7994597
123.8338, 0.7401248
124.3159, 0.6632025
124.7980, 0.6944097
125.2802, 0.8377839
125.7623, 0.9856281
126.2444, 1.030524
126.7265, 1.001583
127.2086, 0.9764017
127.6907, 0.9845144
128.1729, 1.021876
128.6550, 1.068792
129.1371, 1.115316
129.6192, 1.208593
130.1013, 1.453619
130.5834, 1.829193
131.0656, 2.182603
131.5477, 2.402335
132.0298, 2.516573
132.5119, 2.675092
132.9940, 2.910413
133.4761, 3.168584
133.9583, 3.334285
134.4404, 3.398479
134.9225, 3.471576
135.4046, 3.639759
135.8867, 3.905539
136.3688, 4.170307
136.8510, 4.438954
137.3331, 4.689238
137.8152, 4.831637
138.2973, 4.829492
138.7794, 4.821572
139.2615, 4.941460
139.7437, 5.225562
140.2258, 5.473914
140.7079, 5.627966
141.1900, 5.694176
141.6721, 5.842085
142.1542, 6.083612
142.6364, 6.389400
143.1185, 6.753084
143.6006, 7.256442
144.0827, 7.643942
144.5648, 7.814581
145.0469, 7.713212
145.5291, 7.728350
146.0112, 7.930467
146.4933, 8.209336
146.9754, 8.406736
147.4575, 8.408593
147.9396, 8.464933
148.4218, 8.673045
148.9039, 9.156983
149.3860, 9.486862
149.8681, 9.557234
150.3502, 9.479399
150.8323, 9.475154
151.3145, 9.589998
151.7966, 9.739556
152.2787, 9.898809
152.7608, 10.06670
153.2429, 10.24323
153.7250, 10.52556
154.2072, 10.82999
154.6893, 10.92189
155.1714, 10.47280
155.6535, 9.934134
156.1356, 9.595429
156.6177, 9.657213
157.0999, 9.715021
157.5820, 9.660081
158.0641, 9.529827
158.5462, 9.480882
159.0283, 9.620413
159.5104, 9.812525
159.9926, 9.968623
160.4747, 9.857768
160.9568, 9.911529
161.4389, 10.37472
161.9210, 11.18343
162.4031, 11.90760
162.8853, 12.33018
163.3674, 12.60766
163.8495, 12.88322
164.3316, 13.18363
164.8137, 13.50866
165.2958, 13.88083
165.7780, 14.29978
166.2601, 14.68090
166.7422, 14.94763
167.2243, 15.16353
167.7064, 15.40556
168.1885, 15.82491
168.6707, 16.20124
169.1528, 16.34030
169.6349, 16.22292
170.1170, 16.07858
170.5991, 16.10433
171.0812, 16.20758
171.5634, 16.22749
172.0455, 15.98542
172.5276, 15.68234
173.0097, 15.50853
173.4918, 15.47952
173.9739, 15.55875
174.4561, 15.78967
174.9382, 16.11169
175.4203, 16.37995
175.9024, 16.45395
176.3845, 16.45029
176.8666, 16.53767
177.3488, 16.74954
177.8309, 16.99100
178.3130, 17.14627
178.7951, 17.23970
179.2772, 17.35501
179.7593, 17.48729
180.2415, 17.68134
180.7236, 18.06872
181.2057, 18.72641
181.6878, 19.42888
182.1699, 19.86382
182.6520, 20.05515
183.1342, 20.21494
183.6163, 20.44001
184.0984, 20.73507
184.5805, 21.13416
185.0626, 21.69816
185.5447, 22.28024
186.0269, 22.63004
186.5090, 22.75177
186.9911, 22.79084
187.4732, 22.83153
187.9553, 22.87273
188.4374, 22.92245
188.9196, 23.01796
189.4017, 23.08425
189.8838, 22.89007
190.3659, 22.41810
190.8480, 21.98045
191.3301, 21.91705
191.8123, 22.17498
192.2944, 22.20755
192.7765, 21.85407
193.2586, 21.24231
193.7407, 20.74494
194.2228, 20.36891
194.7050, 20.05400
195.1871, 19.75515
195.6692, 19.47236
196.1513, 19.20823
196.6334, 18.94711
197.1155, 18.70929
197.5977, 18.59893
198.0798, 18.64490
198.5619, 18.70506
199.0440, 18.63592
199.5261, 18.42920
200.0082, 18.21778
200.4904, 18.00843
200.9725, 17.81471
201.4546, 17.72836
201.9367, 17.76527
202.4188, 17.86370
202.9009, 17.98545
203.3831, 18.14393
203.8652, 18.23381
204.3473, 18.20362
204.8294, 18.06868
205.3115, 18.00832
205.7936, 18.03880
206.2758, 18.10898
206.7579, 18.14277
207.2400, 18.10766
207.7221, 18.17602
208.2042, 18.38479
208.6863, 18.73534
209.1685, 19.21231
209.6506, 19.80756
210.1327, 20.54523
210.6148, 21.53658
211.0969, 22.91064
211.5790, 24.05766
212.0612, 24.73209
212.5433, 24.91378
213.0254, 25.37693
213.5075, 26.21267
213.9896, 27.20926
214.4717, 28.13829
214.9538, 29.06018
215.4360, 29.76624
215.9181, 30.15900
216.4002, 30.21111
216.8823, 30.29312
217.3644, 30.31012
217.8465, 30.46363
218.3287, 31.08948
218.8108, 32.48611
219.2929, 33.67456
219.7750, 34.36246
220.2571, 34.48663
220.7392, 34.71211
221.2214, 35.13574
221.7035, 35.56599
222.1856, 35.70609
222.6677, 35.31387
223.1498, 35.14088
223.6319, 35.40553
224.1141, 36.14569
224.5962, 37.03649
225.0783, 38.12542
225.5604, 39.31111
226.0425, 40.49386
226.5246, 41.71310
227.0068, 42.84179
227.4889, 43.85797
227.9710, 44.80629
228.4531, 45.46582
228.9352, 45.92396
229.4173, 46.02361
229.8995, 45.52637
230.3816, 44.25470
230.8637, 42.68274
231.3458, 40.90531
231.8279, 38.85685
232.3100, 36.85191
232.7922, 34.82964
233.2743, 32.90731
233.7564, 31.23809
234.2385, 29.98873
234.7206, 28.71610
235.2027, 27.27061
235.6849, 25.59942
236.1670, 24.10195
236.6491, 22.81568
237.1312, 21.67214
237.6133, 20.59364
238.0954, 19.57852
238.5776, 18.60991
239.0597, 17.67229
239.5418, 16.76643
240.0239, 15.94492
240.5060, 15.22340
240.9881, 14.57291
241.4703, 13.95232
241.9524, 13.33110
242.4345, 12.79561
242.9166, 12.36981
243.3987, 12.05441
243.8808, 11.84329
244.3630, 11.77845
244.8451, 11.77922
245.3272, 11.74750
245.8093, 11.65156
246.2914, 11.58451
246.7735, 11.59888
247.2557, 11.71671
247.7378, 11.66321
248.2199, 11.30316
248.7020, 10.90259
249.1841, 10.78180
249.6662, 11.12209
250.1484, 11.38575
250.6305, 11.43111
251.1126, 11.24290
251.5947, 11.11085
252.0768, 11.05416
252.5589, 11.03428
253.0411, 11.01262
253.5232, 10.98561
254.0053, 10.96537
254.4874, 10.95874
254.9695, 10.96618
255.4516, 10.95346
255.9338, 10.90224
256.4159, 10.85386
256.8980, 10.85852
257.3801, 10.95506
257.8622, 11.00993
258.3444, 10.98655
258.8265, 10.88883
259.3086, 10.80796
259.7907, 10.73314
260.2728, 10.69309
260.7549, 10.72632
261.2371, 10.86949
261.7192, 10.98450
262.2013, 11.04626
262.6834, 11.05821
263.1655, 11.04766
263.6476, 11.00625
264.1298, 10.95591
264.6119, 10.89265
265.0940, 10.77965
265.5761, 10.78696
266.0582, 10.97899
266.5403, 11.31520
267.0225, 11.57430
267.5046, 11.74929
267.9867, 11.85724
268.4688, 11.87031
268.9509, 11.73199
269.4330, 11.76125
269.9152, 12.06910
270.3973, 12.55653
270.8794, 12.79751
271.3615, 12.73321
271.8436, 12.58581
272.3257, 12.51340
272.8079, 12.53767
273.2900, 12.48575
273.7721, 12.31612
274.2542, 12.07551
274.7363, 11.90423
275.2184, 11.81850
275.7006, 11.74047
276.1827, 11.62178
276.6648, 11.45803
277.1469, 11.29824
277.6290, 11.13352
278.1111, 10.98844
278.5933, 10.91761
279.0754, 10.92343
279.5575, 10.98530
280.0396, 11.14310
280.5217, 11.39679
281.0038, 11.48436
281.4860, 11.35300
281.9681, 11.12537
282.4502, 11.02259
282.9323, 11.05200
283.4144, 11.09793
283.8965, 11.08568
284.3787, 11.02538
284.8608, 11.05192
285.3429, 11.18600
285.8250, 11.35540
286.3071, 11.44239
286.7892, 11.44922
287.2714, 11.47868
287.7535, 11.59628
288.2356, 11.78287
288.7177, 11.91384
289.1998, 11.98212
289.6819, 12.04089
290.1641, 12.16607
290.6462, 12.34827
291.1283, 12.51180
291.6104, 12.61685
292.0925, 12.68326
292.5746, 12.75903
293.0568, 12.84376
293.5389, 12.94575
294.0210, 13.07507
294.5031, 13.22888
294.9852, 13.39279
295.4673, 13.54294
295.9495, 13.71073
296.4316, 13.99207
296.9137, 14.38132
297.3958, 14.73682
297.8779, 14.89859
298.3600, 14.93102
298.8422, 14.99347
299.3243, 15.11379
299.8064, 15.30056
300.2885, 15.60395
300.7706, 16.00618
301.2527, 16.39702
301.7349, 16.64591
302.2170, 16.83729
302.6991, 17.12557
303.1812, 17.59658
303.6633, 18.07902
304.1454, 18.41402
304.6276, 18.61145
305.1097, 18.71109
305.5918, 18.63774
306.0739, 18.51691
306.5560, 18.52731
307.0381, 18.74731
307.5203, 18.94482
308.0024, 18.85425
308.4845, 18.58824
308.9666, 18.41081
309.4487, 18.49170
309.9308, 18.69731
310.4130, 18.93498
310.8951, 19.20303
311.3772, 19.44638
311.8593, 19.60256
312.3414, 19.71237
312.8235, 19.84261
313.3057, 20.00105
313.7878, 20.20426
314.2699, 20.52052
314.7520, 20.96193
315.2341, 21.27652
315.7162, 21.10147
316.1984, 20.81564
316.6805, 20.84388
317.1626, 21.71313
317.6447, 22.55633
318.1268, 22.91317
318.6089, 22.82088
319.0911, 22.94159
319.5732, 23.71286
320.0553, 24.67209
320.5374, 25.45437
321.0195, 25.72806
321.5016, 26.09695
321.9838, 26.77382
322.4659, 27.68884
322.9480, 28.49939
323.4301, 29.14768
323.9122, 29.67156
324.3943, 30.07458
324.8765, 30.20312
325.3586, 30.43974
325.8407, 30.93390
326.3228, 31.56592
326.8049, 32.03331
327.2870, 32.24237
327.7692, 32.34345
328.2513, 32.36965
328.7334, 32.25707
329.2155, 32.21352
329.6976, 32.20830
330.1797, 32.28311
330.6619, 32.50599
331.1440, 32.96343
331.6261, 33.45608
332.1082, 33.94886
332.5903, 34.43860
333.0724, 34.88720
333.5546, 35.27285
334.0367, 35.63913
334.5188, 36.02205
335.0009, 36.41018
335.4830, 36.85248
335.9651, 37.38490
336.4473, 37.99735
336.9294, 38.49454
337.4115, 38.84009
337.8936, 39.14112
338.3757, 39.53239
338.8578, 40.09211
339.3399, 40.33997
339.8221, 40.13493
340.3042, 39.61571
340.7863, 39.23140
341.2684, 38.99790
341.7505, 38.79412
342.2326, 38.63397
342.7148, 38.51631
343.1969, 37.99639
343.6790, 36.94440
344.1611, 35.68270
344.6432, 34.82211
345.1253, 34.35726
345.6075, 33.89215
346.0896, 33.22614
346.5717, 32.39458
347.0538, 31.55990
347.5359, 30.70800
348.0180, 29.89837
348.5002, 29.27832
348.9823, 28.78336
349.4644, 28.13703
349.9465, 27.10876
350.4286, 25.94112
350.9107, 25.05185
351.3929, 24.43963
351.8750, 23.91575
352.3571, 23.28642
352.8392, 22.64342
353.3213, 22.16251
353.8034, 21.93651
354.2856, 21.82319
354.7677, 21.69032
355.2498, 21.54856
355.7319, 21.43807
356.2140, 21.35254
356.6961, 21.32497
357.1783, 21.39689
357.6604, 21.59444
358.1425, 21.83271
358.6246, 22.11372
359.1067, 22.39579
359.5888, 22.60123
360.0710, 22.69363
360.5531, 22.70052
361.0352, 22.62657
361.5173, 22.46672
361.9994, 22.27501
362.4815, 22.08652
362.9637, 21.87142
363.4458, 21.59777
363.9279, 21.17452
364.4100, 20.77128
364.8921, 20.45831
365.3742, 20.22717
365.8564, 19.98988
366.3385, 19.74335
366.8206, 19.47923
367.3027, 19.19252
367.7848, 18.78756
368.2669, 18.47293
368.7491, 18.27544
369.2312, 18.17835
369.7133, 18.14737
370.1954, 18.25737
370.6775, 18.35331
371.1596, 18.38077
371.6418, 18.33592
372.1239, 18.22820
372.6060, 18.00980
373.0881, 17.76430
373.5702, 17.61444
374.0523, 17.59339
374.5345, 17.59409
375.0166, 17.60220
375.4987, 17.61647
375.9808, 17.57130
376.4629, 17.45735
376.9450, 17.30134
377.4272, 17.10226
377.9093, 16.84788
378.3914, 16.65776
378.8735, 16.55757
379.3556, 16.52882
379.8377, 16.55892
380.3199, 16.65916
380.8020, 16.67338
381.2841, 16.41174
381.7662, 15.94249
382.2483, 15.67222
382.7304, 15.66799
383.2126, 15.75742
383.6947, 15.73457
384.1768, 15.60495
384.6589, 15.40183
385.1410, 15.03712
385.6231, 14.64074
386.1053, 14.47643
386.5874, 14.55431
387.0695, 14.62004
387.5516, 14.42322
388.0337, 14.07198
388.5158, 13.75869
388.9980, 13.58911
389.4801, 13.42667
389.9622, 13.12602
390.4443, 12.72499
390.9264, 12.37369
391.4085, 12.18944
391.8907, 12.07348
392.3728, 11.94549
392.8549, 11.78445
393.3370, 11.63228
393.8191, 11.48497
394.3012, 11.36256
394.7834, 11.29889
395.2655, 11.38822
395.7476, 11.46292
396.2297, 11.43972
396.7118, 11.29720
397.1939, 11.19534
397.6761, 11.16626
398.1582, 11.18426
398.6403, 11.22784
399.1224, 11.35445
399.6045, 11.43738
400.0866, 11.44115
400.5688, 11.38272
401.0509, 11.36393
401.5330, 11.41288
402.0151, 11.46725
402.4972, 11.50768
402.9793, 11.56734
403.4615, 11.50958
403.9436, 11.25895
404.4257, 10.95721
404.9078, 10.88754
405.3899, 11.12553
405.8720, 11.30161
406.3542, 11.25921
406.8363, 11.02150
407.3184, 10.91436
407.8005, 10.95548
408.2826, 11.04924
408.7647, 11.12608
409.2469, 11.18294
409.7290, 11.17720
410.2111, 11.07435
410.6932, 10.93945
411.1753, 10.90775
411.6574, 10.97139
412.1396, 11.05049
412.6217, 11.11139
413.1038, 11.14880
413.5859, 11.15042
414.0680, 11.11319
414.5501, 11.05211
415.0323, 10.94691
415.5144, 10.83024
415.9965, 10.76348
416.4786, 10.79560
416.9607, 10.87192
417.4428, 10.96356
417.9250, 11.06698
418.4071, 11.16321
418.8892, 11.25896
419.3713, 11.33304
419.8534, 11.36634
420.3355, 11.35114
420.8177, 11.30150
421.2998, 11.17035
421.7819, 11.00978
422.2640, 10.92956
422.7461, 11.02520
423.2282, 11.14324
423.7104, 11.23987
424.1925, 11.31794
424.6746, 11.34880
425.1567, 11.32528
425.6388, 11.25953
426.1209, 11.14685
426.6031, 10.84782
427.0852, 10.74173
427.5673, 10.97523
428.0494, 11.45988
428.5315, 11.68127
429.0136, 11.54074
429.4958, 11.34011
429.9779, 11.24874
430.4600, 11.28764
430.9421, 11.28886
431.4242, 11.24316
431.9063, 11.16864
432.3885, 11.07306
432.8706, 10.95638
433.3527, 10.89398
433.8348, 10.92819
434.3169, 11.03190
434.7990, 11.15291
435.2812, 11.29169
435.7633, 11.36705
436.2454, 11.24253
436.7275, 11.00528
437.2096, 10.85753
437.6917, 10.84891
438.1739, 10.91409
438.6560, 11.03250
439.1381, 11.17469
439.6202, 11.26266
440.1023, 11.20877
440.5844, 11.11565
441.0666, 11.07448
441.5487, 11.09396
442.0308, 11.09719
442.5129, 11.01346
442.9950, 10.90939
443.4771, 10.84865
443.9593, 10.83724
444.4414, 10.88321
444.9235, 11.04062
445.4056, 11.26750
445.8877, 11.42032
446.3698, 11.47824
446.8520, 11.45758
447.3341, 11.32770
447.8162, 10.99335
448.2983, 10.85572
448.7804, 11.07055
449.2625, 11.37385
449.7447, 11.44584
450.2268, 11.17358
450.7089, 10.93157
451.1910, 10.79378
451.6731, 10.74356
452.1552, 10.69803
452.6374, 10.65434
453.1195, 10.62903
453.6016, 10.64038
454.0837, 10.68711
454.5658, 10.71969
455.0479, 10.72633
455.5301, 10.74473
456.0122, 10.84752
456.4943, 11.02075
456.9764, 11.17069
457.4585, 11.25526
457.9406, 11.30165
458.4228, 11.37271
458.9049, 11.46109
459.3870, 11.50053
459.8691, 11.39811
460.3512, 11.23542
460.8333, 11.10934
461.3155, 11.03380
461.7976, 11.00668
462.2797, 11.07485
462.7618, 11.18421
463.2439, 11.23916
463.7260, 11.13716
464.2082, 11.03296
464.6903, 11.00077
465.1724, 11.04305
465.6545, 11.08831
466.1366, 11.11682
466.6187, 11.14698
467.1009, 11.19095
467.5830, 11.30162
468.0651, 11.35391
468.5472, 11.29964
469.0293, 11.20081
469.5114, 11.19539
469.9936, 11.35569
470.4757, 11.46870
470.9578, 11.45530
471.4399, 11.31686
471.9220, 11.19387
472.4041, 11.08236
472.8863, 11.00161
473.3684, 10.98081
473.8505, 11.01848
474.3326, 11.05895
474.8147, 11.09853
475.2968, 11.12851
475.7790, 11.09966
476.2611, 11.02915
476.7432, 11.03023
477.2253, 11.24998
477.7074, 11.54345
478.1895, 11.67366
478.6717, 11.63678
479.1538, 11.54067
479.6359, 11.41462
480.1180, 11.29566
480.6001, 11.23210
481.0822, 11.25775
481.5644, 11.30417
482.0465, 11.35476
482.5286, 11.40001
483.0107, 11.41916
483.4928, 11.35076
483.9749, 11.30384
484.4571, 11.33055
484.9392, 11.44289
485.4213, 11.55443
485.9034, 11.72338
486.3855, 11.84445
486.8676, 11.83678
487.3498, 11.58204
487.8319, 11.41153
488.3140, 11.36259
488.7961, 11.40067
489.2782, 11.45361
489.7603, 11.52827
490.2425, 11.59337
490.7246, 11.63997
491.2067, 11.66756
491.6888, 11.66087
492.1709, 11.61616
492.6530, 11.55976
493.1352, 11.52603
493.6173, 11.50420
494.0994, 11.43357
494.5815, 11.27674
495.0636, 11.13261
495.5457, 11.17774
496.0279, 11.35194
496.5100, 11.47568
496.9921, 11.41452
497.4742, 11.29415
497.9563, 11.21891
498.4384, 11.19095
498.9206, 11.18564
499.4027, 11.19324
499.8848, 11.21579
500.3669, 11.26253
500.8490, 11.39556
501.3311, 11.45120
501.8133, 11.31779
502.2954, 11.09402
502.7775, 10.96637
503.2596, 11.02678
503.7417, 11.09417
504.2238, 11.10734
504.7060, 11.06863
505.1881, 11.16426
505.6702, 11.49834
506.1523, 11.79411
506.6344, 11.83742
507.1165, 11.58781
507.5987, 11.37183
508.0808, 11.20255
508.5629, 11.09123
509.0450, 11.08934
509.5271, 11.18708
510.0092, 11.24965
510.4914, 11.20159
510.9735, 11.10578
511.4556, 11.08879
511.9377, 11.14523
512.4199, 11.22751
512.9020, 11.35315
513.3841, 11.46413
513.8662, 11.45976
514.3483, 11.29391
514.8304, 11.17481
515.3126, 11.30368
515.7947, 11.53186
516.2768, 11.67180
516.7589, 11.63251
517.2410, 11.53244
517.7231, 11.34910
518.2053, 11.11489
518.6874, 10.98309
519.1695, 11.03902
519.6516, 11.14211
520.1337, 11.27133
520.6158, 11.46797
521.0980, 11.48246
521.5801, 11.18127
522.0622, 10.86990
522.5443, 10.89471
523.0264, 11.32540
523.5085, 11.68637
523.9907, 11.92048
524.4728, 12.01935
524.9549, 11.87645
525.4370, 11.50521
525.9191, 11.24678
526.4012, 11.42210
526.8834, 11.79809
527.3655, 11.79764
527.8476, 11.42701
528.3297, 11.08810
528.8118, 11.15859
529.2939, 11.42208
529.7761, 11.60974
530.2582, 11.63306
530.7403, 11.63616
531.2224, 11.68420
531.7045, 11.76638
532.1866, 11.86460
532.6688, 12.09165
533.1509, 12.21535
533.6330, 12.09848
534.1151, 11.75412
534.5972, 11.53584
535.0793, 11.48506
535.5615, 11.52795
536.0436, 11.65848
536.5257, 11.94747
537.0078, 12.06612
537.4899, 11.97422
537.9720, 11.77694
538.4542, 11.56966
538.9363, 11.34359
539.4184, 11.24364
539.9005, 11.34466
540.3826, 11.54106
540.8647, 11.60585
541.3469, 11.55176
541.8290, 11.47515
542.3111, 11.40953
542.7932, 11.36336
543.2753, 11.36652
543.7574, 11.41851
544.2396, 11.44841
544.7217, 11.35991
545.2038, 11.24740
545.6859, 11.20459
546.1680, 11.25658
546.6501, 11.37326
547.1323, 11.62275
547.6144, 11.91599
548.0965, 12.10267
548.5786, 12.04031
549.0607, 12.00360
549.5428, 12.08208
550.0250, 12.25556
550.5071, 12.30302
550.9892, 12.18225
551.4713, 12.01172
551.9534, 11.83905
552.4355, 11.65978
552.9177, 11.51394
553.3998, 11.38965
553.8819, 11.33811
554.3640, 11.47260
554.8461, 11.75538
555.3282, 11.98181
555.8104, 12.11228
556.2925, 12.14098
556.7746, 11.98805
557.2567, 11.71218
557.7388, 11.49598
558.2209, 11.46457
558.7031, 11.51172
559.1852, 11.57346
559.6673, 11.64531
560.1494, 11.70639
560.6315, 11.77794
561.1136, 11.81527
561.5958, 11.78736
562.0779, 11.67226
562.5600, 11.52105
563.0421, 11.25160
563.5242, 10.99476
564.0063, 10.92857
564.4885, 11.13919
564.9706, 11.33738
565.4527, 11.46087
565.9348, 11.54024
566.4169, 11.71300
566.8990, 11.99684
567.3812, 12.21369
567.8633, 12.22678
568.3454, 12.09464
568.8275, 12.03891
569.3096, 12.06278
569.7917, 12.09687
570.2739, 12.08312
570.7560, 12.04034
571.2381, 11.98735
571.7202, 11.90987
572.2023, 11.87575
572.6844, 11.98397
573.1666, 12.14927
573.6487, 12.24523
574.1308, 12.17093
574.6129, 12.08549
575.0950, 12.06493
575.5771, 12.08690
576.0593, 11.99869
576.5414, 11.64229
577.0235, 11.37201
577.5056, 11.34968
577.9877, 11.60985
578.4698, 11.77658
578.9520, 11.82803
579.4341, 11.83990
579.9162, 11.87495
580.3983, 11.93172
580.8804, 12.00052
581.3625, 12.08949
581.8447, 12.16028
582.3268, 12.14097
582.8089, 12.05831
583.2910, 11.98743
583.7731, 11.96727
584.2552, 11.96515
584.7373, 11.95845
585.2194, 11.94661
585.7015, 11.92733
586.1837, 11.86689
586.6658, 11.82587
587.1479, 11.86289
587.6300, 12.00739
588.1121, 12.05672
588.5942, 11.86447
589.0764, 11.65906
589.5585, 11.59653
590.0406, 11.76837
590.5227, 11.85454
591.0048, 11.79733
591.4869, 11.70947
591.9691, 11.81334
592.4512, 12.12210
592.9333, 12.32100
593.4154, 12.29257
593.8975, 12.13473
594.3796, 12.03981
594.8618, 12.00143
595.3439, 11.97568
595.8260, 11.90361
596.3081, 11.85010
596.7902, 11.91367
597.2723, 12.09356
597.7545, 12.25107
598.2366, 12.28720
598.7187, 12.28399
599.2008, 12.31658
599.6829, 12.46499
600.1650, 12.49925
600.6472, 12.23794
601.1293, 11.91393
601.6114, 11.80234
602.0935, 12.05416
602.5756, 12.20275
603.0577, 12.15290
603.5399, 11.98104
604.0220, 11.88302
604.5041, 11.86367
604.9862, 11.87613
605.4683, 11.89674
605.9504, 11.93523
606.4326, 12.04470
606.9147, 12.21788
607.3968, 12.36348
607.8789, 12.44596
608.3610, 12.44681
608.8431, 12.29343
609.3253, 11.94424
609.8074, 11.68208
610.2895, 11.71373
610.7716, 11.87985
611.2537, 12.02989
611.7358, 12.21728
612.2180, 12.27572
612.7001, 12.06594
613.1822, 11.75376
613.6643, 11.62665
614.1464, 11.78933
614.6285, 11.90730
615.1107, 11.88065
615.5928, 11.75549
616.0749, 11.72906
616.5570, 11.80563
617.0391, 11.92082
617.5212, 12.07626
618.0034, 12.23653
618.4855, 12.29363
618.9676, 12.24759
619.4497, 12.18625
619.9318, 12.14209
620.4139, 12.13770
620.8961, 12.22963
621.3782, 12.48710
621.8603, 12.64269
622.3424, 12.47081
622.8245, 12.17931
623.3066, 12.00691
623.7888, 12.09352
624.2709, 12.17775
624.7530, 12.24473
625.2351, 12.29228
625.7172, 12.31260
626.1993, 12.30063
626.6815, 12.27291
627.1636, 12.20932
627.6457, 12.13915
628.1278, 12.23813
628.6099, 12.50716
629.0920, 12.70530
629.5742, 12.59832
630.0563, 12.33646
630.5384, 12.19491
631.0205, 12.18912
631.5026, 12.21371
631.9847, 12.22926
632.4669, 12.22034
632.9490, 12.16503
633.4311, 12.03247
633.9132, 11.91868
634.3953, 11.83758
634.8774, 11.79432
635.3596, 11.79623
635.8417, 11.88653
636.3238, 11.94247
636.8059, 11.91893
637.2880, 11.87029
637.7701, 11.96252
638.2523, 12.22686
638.7344, 12.40094
639.2165, 12.34077
639.6986, 12.14629
640.1807, 12.11626
640.6628, 12.23348
641.1450, 12.33952
641.6271, 12.30815
642.1092, 12.22243
642.5913, 12.16527
643.0734, 12.14247
643.5555, 12.15687
644.0377, 12.27627
644.5198, 12.39053
645.0019, 12.39904
645.4840, 12.16916
645.9661, 12.09906
646.4482, 12.36694
646.9304, 12.68189
647.4125, 12.69568
647.8946, 12.27124
648.3767, 12.02924
648.8588, 12.09640
649.3409, 12.31820
649.8231, 12.39622
650.3052, 12.34451
650.7873, 12.30333
651.2694, 12.32676
651.7515, 12.38821
652.2336, 12.49385
652.7158, 12.61410
653.1979, 12.64550
653.6800, 12.41322
654.1621, 12.17009
654.6442, 12.08660
655.1263, 12.17273
655.6085, 12.26155
656.0906, 12.35340
656.5727, 12.40527
657.0548, 12.37906
657.5369, 12.23306
658.0190, 12.19716
658.5012, 12.32179
658.9833, 12.46318
659.4654, 12.45207
659.9475, 12.29677
660.4296, 12.23680
660.9117, 12.31279
661.3939, 12.45469
661.8760, 12.61308
662.3581, 12.76798
662.8402, 12.87393
663.3223, 12.92216
663.8044, 12.90750
664.2866, 12.76630
664.7687, 12.56382
665.2508, 12.43593
665.7329, 12.45053
666.2150, 12.51626
666.6971, 12.68400
667.1793, 12.90654
667.6614, 12.89460
668.1435, 12.48905
668.6256, 12.17625
669.1077, 12.20191
669.5898, 12.52510
670.0720, 12.67916
670.5541, 12.65259
671.0362, 12.59353
671.5183, 12.61887
672.0004, 12.69257
672.4825, 12.75520
672.9647, 12.80472
673.4468, 12.79236
673.9289, 12.61735
674.4110, 12.39618
674.8931, 12.24756
675.3752, 12.20574
675.8574, 12.21267
676.3395, 12.27746
676.8216, 12.37530
677.3037, 12.48128
677.7858, 12.60921
678.2679, 12.71768
678.7501, 12.81796
679.2322, 12.88049
679.7143, 12.82385
680.1964, 12.65064
680.6785, 12.48495
681.1606, 12.35137
681.6428, 12.27022
682.1249, 12.31569
682.6070, 12.45503
683.0891, 12.56736
683.5712, 12.52385
684.0533, 12.48585
684.5355, 12.61384
685.0176, 12.88290
685.4997, 13.03288
685.9818, 12.86972
686.4639, 12.68886
686.9460, 12.63265
687.4282, 12.72646
687.9103, 12.69352
688.3924, 12.46518
688.8745, 12.26582
689.3566, 12.31230
689.8387, 12.57673
690.3209, 12.68545
690.8030, 12.60413
691.2851, 12.49310
691.7672, 12.56171
692.2493, 12.70002
692.7314, 12.70540
693.2136, 12.48247
693.6957, 12.28296
694.1778, 12.26550
694.6599, 12.34997
695.1420, 12.43812
695.6241, 12.52162
696.1063, 12.59157
696.5884, 12.64388
697.0705, 12.68437
697.5526, 12.72316
698.0347, 12.76149
698.5168, 12.78949
698.9990, 12.79397
699.4811, 12.79784
699.9632, 12.89115
700.4453, 13.05212
700.9274, 13.14136
701.4095, 13.00337
701.8917, 12.81630
702.3738, 12.80194
702.8559, 12.92122
703.3380, 12.99194
703.8201, 12.84354
704.3022, 12.70797
704.7844, 12.74597
705.2665, 12.97987
705.7486, 13.04390
706.2307, 12.80551
706.7128, 12.58591
707.1949, 12.57553
707.6771, 12.78162
708.1592, 12.92189
708.6413, 12.99253
709.1234, 13.02186
709.6055, 13.06220
710.0876, 13.07575
710.5698, 12.91997
711.0519, 12.55024
711.5340, 12.27723
712.0161, 12.42309
712.4982, 12.73093
712.9803, 12.94107
713.4625, 12.96568
713.9446, 12.94769
714.4267, 12.90639
714.9088, 12.83703
715.3909, 12.71152
715.8730, 12.46232
716.3552, 12.38322
716.8373, 12.56549
717.3194, 12.83633
717.8015, 12.87321
718.2836, 12.70907
718.7657, 12.59828
719.2479, 12.65381
719.7300, 12.73662
720.2121, 12.65139
720.6942, 12.46967
721.1763, 12.34977
721.6584, 12.40067
722.1406, 12.48561
722.6227, 12.55330
723.1048, 12.60852
723.5869, 12.67653
724.0690, 12.77210
724.5511, 12.85800
725.0333, 12.92752
725.5154, 12.97841
725.9975, 12.98417
726.4796, 12.93929
726.9617, 12.91662
727.4438, 13.01476
727.9260, 13.14549
728.4081, 13.06034
728.8902, 12.79254
729.3723, 12.61141
729.8544, 12.78044
730.3365, 13.02661
730.8187, 13.16945
731.3008, 13.19068
731.7829, 13.13188
732.2650, 12.91257
732.7471, 12.69420
733.2292, 12.53907
733.7114, 12.44215
734.1935, 12.47124
734.6756, 12.66135
735.1577, 12.85591
735.6398, 12.90172
736.1219, 12.83376
736.6041, 12.77440
737.0862, 12.73357
737.5683, 12.72228
738.0504, 12.77749
738.5325, 12.85464
739.0146, 12.90717
739.4968, 12.93174
739.9789, 12.91464
740.4610, 12.80373
740.9431, 12.67641
741.4252, 12.60887
741.9073, 12.62001
742.3895, 12.64309
742.8716, 12.66975
743.3537, 12.71466
743.8358, 12.83932
744.3179, 13.02220
744.8000, 13.08210
745.2822, 12.94885
745.7643, 12.75627
746.2464, 12.62535
746.7285, 12.54912
747.2106, 12.51679
747.6927, 12.51302
748.1749, 12.56651
748.6570, 12.71100
749.1391, 12.91777
749.6212, 13.12634
750.1033, 13.37398
750.5854, 13.55903
751.0676, 13.68211
751.5497, 13.71621
752.0318, 13.51252
752.5139, 13.08066
752.9960, 12.80139
753.4781, 12.86105
753.9603, 13.10707
754.4424, 13.43144
754.9245, 13.77116
755.4066, 13.93243
755.8887, 13.66659
756.3708, 13.36028
756.8530, 13.18646
757.3351, 13.13259
757.8172, 13.08460
758.2993, 13.02326
758.7814, 12.98850
759.2635, 13.00076
759.7457, 13.04889
760.2278, 13.08870
760.7099, 13.12199
761.1920, 13.09753
761.6741, 12.94255
762.1563, 12.73107
762.6384, 12.55525
763.1205, 12.42728
763.6026, 12.40895
764.0847, 12.64148
764.5668, 12.90484
765.0490, 13.07642
765.5311, 13.15092
766.0132, 13.16907
766.4953, 13.08450
766.9774, 13.02100
767.4595, 13.06157
767.9417, 13.19706
768.4238, 13.15530
768.9059, 12.92187
769.3880, 12.69286
769.8701, 12.60977
770.3522, 12.62356
770.8344, 12.64041
771.3165, 12.65901
771.7986, 12.73752
772.2807, 13.05460
772.7628, 13.33206
773.2449, 13.35207
773.7271, 13.04090
774.2092, 12.79444
774.6913, 12.58469
775.1734, 12.49963
775.6555, 12.65277
776.1376, 13.06424
776.6198, 13.25150
777.1019, 13.20315
777.5840, 13.06041
778.0661, 12.86060
778.5482, 12.67702
779.0303, 12.68879
779.5125, 12.92424
779.9946, 13.08661
780.4767, 12.89741
780.9588, 12.64387
781.4409, 12.54635
781.9230, 12.69930
782.4052, 12.80382
782.8873, 12.83371
783.3694, 12.85095
783.8515, 12.89779
784.3336, 12.97372
784.8157, 13.10480
785.2979, 13.30613
785.7800, 13.43001
786.2621, 13.19871
786.7442, 12.84608
787.2263, 12.79444
787.7084, 13.16833
788.1906, 13.43198
788.6727, 13.13025
789.1548, 12.74144
789.6369, 12.69962
790.1190, 13.26842
790.6011, 13.50582
791.0833, 13.26687
791.5654, 12.93319
792.0475, 12.91158
792.5296, 13.16521
793.0117, 13.22021
793.4938, 13.01672
793.9760, 12.79638
794.4581, 12.82557
794.9402, 12.96738
795.4223, 13.02004
795.9044, 12.91547
796.3865, 12.85934
796.8687, 12.98123
797.3508, 13.14611
797.8329, 13.25368
798.3150, 13.34694
798.7971, 13.23545
799.2792, 12.82695
799.7614, 12.42055
800.2435, 12.33163
800.7256, 12.51261
801.2077, 12.75888
801.6898, 13.06068
802.1719, 13.29113
802.6541, 13.28797
803.1362, 13.17284
803.6183, 13.08459
804.1004, 13.07213
804.5825, 13.01910
805.0646, 12.77044
805.5468, 12.56856
806.0289, 12.64255
806.5110, 13.12052
806.9931, 13.28646
807.4752, 13.05870
807.9573, 12.73985
808.4395, 12.66805
808.9216, 12.75387
809.4037, 12.72656
809.8858, 12.52321
810.3679, 12.42445
810.8500, 12.80707
811.3322, 13.27987
811.8143, 13.47552
812.2964, 13.21281
812.7785, 12.97830
813.2606, 12.77739
813.7427, 12.63325
814.2249, 12.56252
814.7070, 12.56447
815.1891, 12.68308
815.6712, 12.94080
816.1533, 13.16083
816.6354, 13.09882
817.1176, 12.91105
817.5997, 12.85597
818.0818, 12.98938
818.5639, 13.11161
819.0460, 13.14876
819.5281, 13.12399
820.0103, 13.02430
820.4924, 12.79035
820.9745, 12.74322
821.4566, 12.94950
821.9387, 13.20044
822.4208, 13.30457
822.9030, 13.29346
823.3851, 13.35571
823.8672, 13.50322
824.3493, 13.60804
824.8314, 13.54333
825.3135, 13.39630
825.7957, 13.23112
826.2778, 13.04579
826.7599, 12.93136
827.2420, 12.94486
827.7241, 13.00322
828.2062, 13.07641
828.6884, 13.16741
829.1705, 13.22865
829.6526, 13.25637
830.1347, 13.27562
830.6168, 13.33592
831.0989, 13.39189
831.5811, 13.31963
832.0632, 13.12375
832.5453, 12.96524
833.0274, 12.94267
833.5095, 12.98730
833.9916, 13.08646
834.4738, 13.24857
834.9559, 13.29714
835.4380, 13.15756
835.9201, 13.04811
836.4022, 13.09979
836.8843, 13.28103
837.3665, 13.40887
837.8486, 13.48187
838.3307, 13.47234
838.8128, 13.26383
839.2949, 13.03371
839.7770, 12.97431
840.2592, 13.07011
840.7413, 13.17370
841.2234, 13.31902
841.7055, 13.37154
842.1876, 13.25181
842.6697, 12.99559
843.1519, 12.81918
843.6340, 12.72183
844.1161, 12.71558
844.5982, 12.86653
845.0803, 13.06674
845.5624, 13.05616
846.0446, 12.89639
846.5267, 12.80433
847.0088, 12.94622
847.4909, 13.12363
847.9730, 13.26726
848.4551, 13.36884
848.9373, 13.41269
849.4194, 13.39329
849.9015, 13.32306
850.3836, 13.17403
850.8657, 13.00906
851.3478, 12.99589
851.8300, 13.11367
852.3121, 13.23549
852.7942, 13.30686
853.2763, 13.37360
853.7584, 13.53476
854.2405, 13.70805
854.7227, 13.74904
855.2048, 13.42678
855.6869, 13.22204
856.1690, 13.22886
856.6511, 13.35031
857.1332, 13.46098
857.6154, 13.56403
858.0975, 13.59784
858.5796, 13.54326
859.0617, 13.44658
859.5438, 13.32828
860.0259, 13.21930
860.5081, 13.17577
860.9902, 13.21884
861.4723, 13.31171
861.9544, 13.50299
862.4365, 13.69986
862.9186, 13.81416
863.4008, 13.84224
863.8829, 13.78099
864.3650, 13.60045
864.8471, 13.42269
865.3292, 13.40331
865.8113, 13.48386
866.2935, 13.48829
866.7756, 13.39134
867.2577, 13.30600
867.7398, 13.32548
868.2219, 13.37492
868.7040, 13.38914
869.1862, 13.34432
869.6683, 13.34879
870.1504, 13.43023
870.6325, 13.51137
871.1146, 13.53701
871.5967, 13.51540
872.0789, 13.51362
872.5610, 13.53166
873.0431, 13.57189
873.5252, 13.67313
874.0073, 13.76966
874.4894, 13.80500
874.9716, 13.77876
875.4537, 13.71396
875.9358, 13.60702
876.4179, 13.46610
876.9000, 13.25306
877.3821, 13.01017
877.8643, 12.96137
878.3464, 13.10802
878.8285, 13.28446
879.3106, 13.46716
879.7927, 13.58182
880.2748, 13.42799
880.7570, 13.12590
881.2391, 12.97660
881.7212, 13.25503
882.2033, 13.51525
882.6854, 13.62733
883.1675, 13.64411
883.6497, 13.66389
884.1318, 13.69949
884.6139, 13.63801
885.0960, 13.41986
885.5781, 13.19591
886.0602, 13.21253
886.5424, 13.38414
887.0245, 13.53305
887.5066, 13.61330
887.9887, 13.65757
888.4708, 13.70281
888.9529, 13.70335
889.4351, 13.59933
889.9172, 13.30774
890.3993, 13.15849
890.8814, 13.17879
891.3635, 13.27329
891.8456, 13.40412
892.3278, 13.53074
892.8099, 13.48715
893.2920, 13.25692
893.7741, 13.12042
894.2562, 13.41219
894.7383, 13.74397
895.2205, 13.83017
895.7026, 13.62287
896.1847, 13.42166
896.6668, 13.18915
897.1489, 13.05454
897.6310, 13.10486
898.1132, 13.30371
898.5953, 13.60555
899.0774, 13.96730
899.5595, 14.10412
900.0416, 13.54580
900.5237, 12.98838
901.0059, 12.97370
901.4880, 13.36984
901.9701, 13.64655
902.4522, 13.72446
902.9343, 13.71482
903.4164, 13.60612
903.8986, 13.45686
904.3807, 13.40319
904.8628, 13.43045
905.3449, 13.43341
905.8270, 13.35635
906.3091, 13.30435
906.7913, 13.42875
907.2734, 13.60918
907.7555, 13.68900
908.2376, 13.51734
908.7197, 13.43215
909.2018, 13.48166
909.6840, 13.56779
910.1661, 13.58510
910.6482, 13.54210
911.1303, 13.55212
911.6124, 13.62538
912.0945, 13.71678
912.5767, 13.82074
913.0588, 13.90257
913.5409, 13.92846
914.0230, 13.89347
914.5051, 13.81248
914.9872, 13.60695
915.4694, 13.46834
915.9515, 13.51197
916.4336, 13.70242
916.9157, 13.77329
917.3978, 13.72767
917.8799, 13.64222
918.3621, 13.48009
918.8442, 13.36223
919.3263, 13.47986
919.8084, 13.74380
920.2905, 13.89946
920.7726, 13.76663
921.2548, 13.66435
921.7369, 13.67043
922.2190, 13.71311
922.7011, 13.60496
923.1832, 13.36095
923.6653, 13.30078
924.1475, 13.54713
924.6296, 13.81732
925.1117, 13.80526
925.5938, 13.64920
926.0759, 13.51806
926.5580, 13.43704
927.0402, 13.41255
927.5223, 13.47604
928.0044, 13.55324
928.4865, 13.59809
928.9686, 13.61053
929.4507, 13.54260
929.9329, 13.39237
930.4150, 13.29022
930.8971, 13.40242
931.3792, 13.56592
931.8613, 13.59617
932.3434, 13.50050
932.8256, 13.46215
933.3077, 13.53006
933.7898, 13.65732
934.2719, 13.86993
934.7540, 14.11750
935.2361, 14.20778
935.7183, 14.14868
936.2004, 14.04286
936.6825, 13.89872
937.1646, 13.77083
937.6467, 13.71753
938.1288, 13.71486
938.6110, 13.72609
939.0931, 13.76975
939.5752, 13.78536
940.0573, 13.75623
940.5394, 13.71712
941.0215, 13.69850
941.5037, 13.70213
941.9858, 13.76627
942.4679, 13.90072
942.9500, 13.99700
943.4321, 13.88670
943.9142, 13.74973
944.3964, 13.77841
944.8785, 14.01104
945.3606, 14.11942
945.8427, 14.02102
946.3248, 13.90447
946.8069, 13.85653
947.2891, 13.85140
947.7712, 13.74665
948.2533, 13.56797
948.7354, 13.48396
949.2175, 13.67276
949.6996, 13.89339
950.1818, 14.00242
950.6639, 14.01757
951.1460, 13.96608
951.6281, 13.78739
952.1102, 13.67699
952.5923, 13.65484
953.0745, 13.70476
953.5566, 13.87361
954.0387, 14.10152
954.5208, 14.13825
955.0029, 13.92437
955.4850, 13.70812
955.9672, 13.66371
956.4493, 13.68014
956.9314, 13.68855
957.4135, 13.69147
957.8956, 13.57220
958.3777, 13.24910
958.8599, 13.05247
959.3420, 13.25925
959.8241, 13.67878
960.3062, 13.79164
960.7883, 13.66668
961.2704, 13.58420
961.7526, 13.76426
962.2347, 13.92730
962.7168, 13.97355
963.1989, 13.91129
963.6810, 13.72253
964.1631, 13.33315
964.6453, 13.18925
965.1274, 13.40703
965.6095, 13.72712
966.0916, 13.78843
966.5737, 13.73121
967.0558, 13.83080
967.5380, 14.17795
968.0201, 14.42743
968.5022, 14.38952
968.9843, 14.26931
969.4664, 14.19390
969.9485, 14.16381
970.4307, 13.99251
970.9128, 13.67011
971.3949, 13.44182
971.8770, 13.50691
972.3591, 13.71236
972.8412, 13.93864
973.3234, 14.15431
973.8055, 14.27456
974.2876, 14.17998
974.7697, 14.11023
975.2518, 14.11800
975.7339, 14.15407
976.2161, 14.14227
976.6982, 14.08468
977.1803, 14.00244
977.6624, 13.89537
978.1445, 13.79408
978.6266, 13.66395
979.1088, 13.59075
979.5909, 13.70247
980.0730, 14.07869
980.5551, 14.25955
981.0372, 14.16434
981.5193, 14.01384
982.0015, 13.91698
982.4836, 13.85330
982.9657, 13.69325
983.4478, 13.48181
983.9299, 13.42952
984.4120, 13.87528
984.8942, 14.26172
985.3763, 14.22148
985.8584, 13.94794
986.3405, 13.85483
986.8226, 14.03035
987.3047, 14.05099
987.7869, 13.82166
988.2690, 13.59604
988.7511, 13.78778
989.2332, 14.16018
989.7153, 14.26104
990.1974, 14.01154
990.6796, 13.77731
991.1617, 13.68130
991.6438, 13.66606
992.1259, 13.70397
992.6080, 13.79388
993.0901, 13.98770
993.5723, 14.28830
994.0544, 14.41702
994.5365, 14.10864
995.0186, 13.73654
995.5007, 13.71896
995.9828, 13.93733
996.4650, 14.17465
996.9471, 14.47434
997.4292, 14.62742
997.9113, 14.56539
998.3934, 14.44168
998.8755, 14.45814
999.3577, 14.57138
999.8398, 14.49071
1000.322, 14.19695
1000.804, 13.94837
1001.286, 13.93230
1001.768, 14.01340
1002.250, 14.14300
1002.732, 14.30386
1003.215, 14.35166
1003.697, 14.25293
1004.179, 14.16535
1004.661, 14.14461
1005.143, 14.07792
1005.625, 14.10245
1006.107, 14.02847
1006.589, 13.98936
1007.072, 14.01088
1007.554, 14.05550
1008.036, 14.17870
1008.518, 14.26515
1009.000, 14.18776
1009.482, 13.92011
1009.964, 13.90157
1010.446, 14.14260
1010.928, 14.33228
1011.411, 14.10009
1011.893, 13.82729
1012.375, 13.96031
1012.857, 14.40436
1013.339, 14.65395
1013.821, 14.53473
1014.303, 14.38962
1014.785, 14.25332
1015.268, 14.16046
1015.750, 14.21129
1016.232, 14.35478
1016.714, 14.39485
1017.196, 14.26275
1017.678, 14.20443
1018.160, 14.53785
1018.642, 14.86302
1019.124, 14.82799
1019.607, 14.41639
1020.089, 14.25586
1020.571, 14.38116
1021.053, 14.48674
1021.535, 14.34828
1022.017, 14.15484
1022.499, 14.24294
1022.981, 14.48149
1023.464, 14.57292
1023.946, 14.20188
1024.428, 13.98804
1024.910, 14.04718
1025.392, 14.22285
1025.874, 14.38883
1026.356, 14.52425
1026.838, 14.46246
1027.320, 14.19071
1027.803, 13.90718
1028.285, 13.64784
1028.767, 13.51953
1029.249, 13.69854
1029.731, 14.12823
1030.213, 14.32517
1030.695, 14.24621
1031.177, 14.07645
1031.660, 13.80626
1032.142, 13.59863
1032.624, 13.81503
1033.106, 14.25646
1033.588, 14.55761
1034.070, 14.61697
1034.552, 14.55186
1035.034, 14.22903
1035.516, 13.96610
1035.999, 14.01305
1036.481, 14.33585
1036.963, 14.39917
1037.445, 14.22379
1037.927, 14.07976
1038.409, 14.20125
1038.891, 14.34221
1039.373, 14.30630
1039.855, 14.16230
1040.338, 14.08478
1040.820, 14.10973
1041.302, 14.10486
1041.784, 14.03746
1042.266, 14.00107
1042.748, 14.17090
1043.230, 14.42172
1043.712, 14.51331
1044.195, 14.42087
1044.677, 14.32454
1045.159, 14.24079
1045.641, 14.23221
1046.123, 14.37088
1046.605, 14.58006
1047.087, 14.53877
1047.569, 14.28343
1048.052, 14.17119
1048.534, 14.37386
1049.016, 14.60399
1049.498, 14.65177
1049.980, 14.60108
1050.462, 14.53270
1050.944, 14.43323
1051.426, 14.40364
1051.908, 14.44761
1052.391, 14.54619
1052.873, 14.79176
1053.355, 15.03083
1053.837, 14.91618
1054.319, 14.55082
1054.801, 14.26592
1055.283, 14.20967
1055.765, 14.21968
1056.247, 14.29246
1056.730, 14.38083
1057.212, 14.42662
1057.694, 14.43162
1058.176, 14.38618
1058.658, 14.28749
1059.140, 14.23850
1059.622, 14.38877
1060.104, 14.54881
1060.587, 14.57465
1061.069, 14.48586
1061.551, 14.42298
1062.033, 14.38408
1062.515, 14.39255
1062.997, 14.47887
1063.479, 14.55774
1063.961, 14.46805
1064.443, 14.31754
1064.926, 14.27802
1065.408, 14.44072
1065.890, 14.52976
1066.372, 14.48154
1066.854, 14.42371
1067.336, 14.44458
1067.818, 14.51202
1068.300, 14.47911
1068.782, 14.37233
1069.265, 14.30386
1069.747, 14.36446
1070.229, 14.43485
1070.711, 14.50435
1071.193, 14.53237
1071.675, 14.43847
1072.157, 14.20117
1072.639, 14.11275
1073.122, 14.19589
1073.604, 14.31868
1074.086, 14.37557
1074.568, 14.41831
1075.050, 14.50486
1075.532, 14.62541
1076.014, 14.70965
1076.496, 14.74725
1076.979, 14.76691
1077.461, 14.77678
1077.943, 14.76424
1078.425, 14.68622
1078.907, 14.57961
1079.389, 14.50698
1079.871, 14.47547
1080.353, 14.50227
1080.835, 14.72175
1081.318, 14.84920
1081.800, 14.72274
1082.282, 14.42780
1082.764, 14.29402
1083.246, 14.30657
1083.728, 14.40096
1084.210, 14.63066
1084.692, 14.77965
1085.174, 14.60856
1085.656, 14.35635
1086.139, 14.28885
1086.621, 14.46069
1087.103, 14.46929
1087.585, 14.29690
1088.067, 14.17102
1088.549, 14.31359
1089.031, 14.52687
1089.513, 14.61992
1089.996, 14.60990
1090.478, 14.53677
1090.960, 14.29855
1091.442, 14.23322
1091.924, 14.42185
1092.406, 14.65022
1092.888, 14.64334
1093.370, 14.51099
1093.853, 14.50897
1094.335, 14.64244
1094.817, 14.73124
1095.299, 14.66907
1095.781, 14.57994
1096.263, 14.46654
1096.745, 14.37961
1097.227, 14.49322
1097.709, 14.75684
1098.192, 14.84292
1098.674, 14.66593
1099.156, 14.44395
1099.638, 14.21586
1100.120, 14.09426
1100.602, 14.21978
1101.084, 14.55753
1101.566, 14.70944
1102.048, 14.66594
1102.531, 14.65972
1103.013, 14.82836
1103.495, 14.98349
1103.977, 14.86310
1104.459, 14.62868
1104.941, 14.50169
1105.423, 14.56861
1105.905, 14.58060
1106.388, 14.52054
1106.870, 14.46092
1107.352, 14.44361
1107.834, 14.46092
1108.316, 14.51334
1108.798, 14.58759
1109.280, 14.64731
1109.762, 14.73489
1110.245, 14.71264
1110.727, 14.50165
1111.209, 14.28258
1111.691, 14.26090
1112.173, 14.38919
1112.655, 14.48953
1113.137, 14.55674
1113.619, 14.62467
1114.101, 14.73265
1114.583, 14.82132
1115.066, 14.86795
1115.548, 14.87880
1116.030, 14.84536
1116.512, 14.77171
1116.994, 14.75121
1117.476, 14.80099
1117.958, 14.86074
1118.440, 14.89261
1118.923, 14.90776
1119.405, 14.92629
1119.887, 14.93912
1120.369, 14.87270
1120.851, 14.71405
1121.333, 14.58520
1121.815, 14.52310
1122.297, 14.49335
1122.780, 14.43767
1123.262, 14.40125
1123.744, 14.45730
1124.226, 14.64807
1124.708, 14.73994
1125.190, 14.69660
1125.672, 14.65968
1126.154, 14.69411
1126.636, 14.77342
1127.119, 14.89120
1127.601, 15.00809
1128.083, 15.04435
1128.565, 14.94661
1129.047, 14.82682
1129.529, 14.67805
1130.011, 14.54508
1130.493, 14.44297
1130.975, 14.38332
1131.458, 14.43405
1131.940, 14.56619
1132.422, 14.66978
1132.904, 14.71790
1133.386, 14.69244
1133.868, 14.49498
1134.350, 14.32389
1134.832, 14.43008
1135.315, 14.77167
1135.797, 14.98873
1136.279, 15.07089
1136.761, 15.07612
1137.243, 14.93239
1137.725, 14.83824
1138.207, 14.98704
1138.689, 15.21154
1139.172, 15.21034
1139.654, 14.97728
1140.136, 14.77707
1140.618, 14.63731
1141.100, 14.56806
1141.582, 14.61443
1142.064, 14.70081
1142.546, 14.78442
1143.028, 14.85818
1143.510, 14.90917
1143.993, 14.93610
1144.475, 14.94105
1144.957, 14.91873
1145.439, 14.90030
1145.921, 14.94825
1146.403, 14.99858
1146.885, 14.95150
1147.367, 14.79236
1147.850, 14.80901
1148.332, 15.09115
1148.814, 15.21883
1149.296, 15.01869
1149.778, 14.68451
1150.260, 14.34392
1150.742, 14.11424
1151.224, 14.24199
1151.707, 14.91450
1152.189, 15.23206
1152.671, 14.99229
1153.153, 14.77828
1153.635, 14.89758
1154.117, 15.17376
1154.599, 15.29124
1155.081, 15.27692
1155.563, 15.16759
1156.046, 14.86184
1156.528, 14.74199
1157.010, 14.94252
1157.492, 15.15644
1157.974, 15.16972
1158.456, 15.04643
1158.938, 14.97605
1159.420, 14.95411
1159.902, 14.96831
1160.385, 15.05772
1160.867, 15.12097
1161.349, 15.15777
1161.831, 15.13907
1162.313, 14.98265
1162.795, 14.73591
1163.277, 14.70770
1163.759, 14.86653
1164.242, 15.01149
1164.724, 15.02510
1165.206, 15.02273
1165.688, 15.06365
1166.170, 15.09202
1166.652, 15.00313
1167.134, 14.82026
1167.616, 14.82286
1168.099, 15.01052
1168.581, 15.16492
1169.063, 15.10964
1169.545, 15.03143
1170.027, 15.04354
1170.509, 15.08202
1170.991, 15.04039
1171.473, 14.92175
1171.955, 14.78285
1172.438, 14.62900
1172.920, 14.55156
1173.402, 14.65478
1173.884, 14.82224
1174.366, 15.01342
1174.848, 15.20410
1175.330, 15.32685
1175.812, 15.38108
1176.294, 15.45726
1176.777, 15.57630
1177.259, 15.66752
1177.741, 15.70027
1178.223, 15.65792
1178.705, 15.46561
1179.187, 15.17834
1179.669, 15.06654
1180.151, 15.14683
1180.634, 15.09407
1181.116, 14.79459
1181.598, 14.52920
1182.080, 14.58331
1182.562, 14.77622
1183.044, 15.00522
1183.526, 15.24372
1184.008, 15.25123
1184.490, 14.99583
1184.973, 14.83199
1185.455, 14.90152
1185.937, 14.99999
1186.419, 14.83646
1186.901, 14.64261
1187.383, 14.72916
1187.865, 15.13855
1188.347, 15.27197
1188.829, 15.08499
1189.312, 14.98258
1189.794, 15.17250
1190.276, 15.40200
1190.758, 15.36779
1191.240, 15.21739
1191.722, 15.10940
1192.204, 15.05017
1192.686, 15.18066
1193.169, 15.55193
1193.651, 15.77687
1194.133, 15.59191
1194.615, 15.30569
1195.097, 15.32271
1195.579, 15.14964
1196.061, 15.05304
1196.543, 15.08244
1197.026, 14.97762
1197.508, 15.14189
1197.990, 15.30690
1198.472, 15.30437
1198.954, 15.24208
1199.436, 15.25041
1199.918, 15.29057
1200.400, 15.29842
1200.882, 15.25644
1201.365, 15.20744
1201.847, 15.14681
1202.329, 15.10404
1202.811, 15.11200
1203.293, 15.13635
1203.775, 15.13196
1204.257, 15.11454
1204.739, 15.11271
1205.221, 15.11772
1205.704, 15.19657
1206.186, 15.38018
1206.668, 15.47054
1207.150, 15.19720
1207.632, 14.85807
1208.114, 14.79800
1208.596, 14.93578
1209.078, 15.09385
1209.561, 15.27990
1210.043, 15.40273
1210.525, 15.45755
1211.007, 15.46897
1211.489, 15.44576
1211.971, 15.39954
1212.453, 15.31264
1212.935, 15.21654
1213.417, 15.20482
1213.900, 15.32361
1214.382, 15.38416
1214.864, 15.37231
1215.346, 15.32732
1215.828, 15.22913
1216.310, 15.15705
1216.792, 15.24124
1217.274, 15.41815
1217.756, 15.49403
1218.239, 15.44672
1218.721, 15.33873
1219.203, 15.16192
1219.685, 15.01593
1220.167, 15.00496
1220.649, 15.05138
1221.131, 15.09765
1221.613, 15.13647
1222.096, 15.15833
1222.578, 15.16118
1223.060, 15.15049
1223.542, 15.12331
1224.024, 15.11588
1224.506, 15.16202
1224.988, 15.24036
1225.470, 15.38237
1225.953, 15.53490
1226.435, 15.52981
1226.917, 15.33282
1227.399, 15.18808
1227.881, 15.12074
1228.363, 15.11622
1228.845, 15.22316
1229.327, 15.33156
1229.809, 15.29547
1230.292, 15.19911
1230.774, 15.30991
1231.256, 15.65193
1231.738, 15.93217
1232.220, 16.12092
1232.702, 16.17471
1233.184, 15.92016
1233.666, 15.65377
1234.148, 15.62691
1234.631, 15.73904
1235.113, 15.72827
1235.595, 15.59284
1236.077, 15.49695
1236.559, 15.46079
1237.041, 15.49450
1237.523, 15.73478
1238.005, 15.91503
1238.488, 15.78650
1238.970, 15.51379
1239.452, 15.43629
1239.934, 15.53656
1240.416, 15.56739
1240.898, 15.49699
1241.380, 15.38464
1241.862, 15.13532
1242.344, 15.01603
1242.827, 15.25690
1243.309, 15.63075
1243.791, 15.69897
1244.273, 15.50373
1244.755, 15.21472
1245.237, 14.85428
1245.719, 14.71602
1246.201, 15.16210
1246.683, 15.63071
1247.166, 15.95290
1247.648, 16.12312
1248.130, 16.06922
1248.612, 15.85012
1249.094, 15.64637
1249.576, 15.48219
1250.058, 15.36982
1250.540, 15.35330
1251.023, 15.33185
1251.505, 15.24035
1251.987, 15.19242
1252.469, 15.48076
1252.951, 15.92457
1253.433, 16.07760
1253.915, 15.90266
1254.397, 15.67384
1254.880, 15.41066
1255.362, 15.19178
1255.844, 15.01046
1256.326, 14.93506
1256.808, 15.14966
1257.290, 15.49357
1257.772, 15.71574
1258.254, 15.79410
1258.736, 15.73539
1259.219, 15.45339
1259.701, 15.29405
1260.183, 15.34151
1260.665, 15.45259
1261.147, 15.47503
1261.629, 15.45007
1262.111, 15.42746
1262.593, 15.40748
1263.075, 15.35516
1263.558, 15.24511
1264.040, 15.19971
1264.522, 15.23854
1265.004, 15.35147
1265.486, 15.63541
1265.968, 15.90059
1266.450, 15.92007
1266.932, 16.02913
1267.415, 16.04382
1267.897, 15.91716
1268.379, 15.90565
1268.861, 15.64333
1269.343, 15.40762
1269.825, 15.44492
1270.307, 15.56153
1270.789, 15.66285
1271.271, 15.73085
1271.754, 15.71614
1272.236, 15.62452
1272.718, 15.54888
1273.200, 15.50041
1273.682, 15.49222
1274.164, 15.56818
1274.646, 15.64469
1275.128, 15.68128
1275.610, 15.70248
1276.093, 15.78845
1276.575, 15.89562
1277.057, 15.76489
1277.539, 15.40850
1278.021, 15.23285
1278.503, 15.72849
1278.985, 15.99687
1279.467, 15.76251
1279.950, 15.37289
1280.432, 15.26279
1280.914, 15.33390
1281.396, 15.38277
1281.878, 15.40139
1282.360, 15.43300
1282.842, 15.49704
1283.324, 15.55817
1283.807, 15.60860
1284.289, 15.66885
1284.771, 15.80695
1285.253, 15.93560
1285.735, 15.90442
1286.217, 15.75450
1286.699, 15.66764
1287.181, 15.68668
1287.663, 15.62963
1288.146, 15.46501
1288.628, 15.37702
1289.110, 15.61227
1289.592, 15.90311
1290.074, 16.06407
1290.556, 16.08966
1291.038, 15.98428
1291.520, 15.73287
1292.002, 15.56819
1292.485, 15.50231
1292.967, 15.53000
1293.449, 15.77082
1293.931, 15.96274
1294.413, 15.88450
1294.895, 15.74932
1295.377, 15.82091
1295.859, 16.05094
1296.342, 16.02775
1296.824, 15.79527
1297.306, 15.65746
1297.788, 15.95415
1298.270, 16.06267
1298.752, 15.75872
1299.234, 15.44714
1299.716, 15.53015
1300.198, 15.85379
1300.681, 16.06684
1301.163, 16.17633
1301.645, 16.22281
1302.127, 16.20121
##END=



