##NAMES=Vaesite
##RRUFFID=R070763
##IDEAL CHEMISTRY=Ni^2+^(S_2_)^2-^
##LOCALITY=Shaba (Katanga), Congo (Za√Øre)
##OWNER=RRUFF
##SOURCE=Michael Scott
##DESCRIPTION=Metallic black micro-octahedra in massive aggregates associated with pyrite
##STATUS=The identification of this mineral has been confirmed by single-crystal X-ray diffraction.
##URL=rruff.info/R070763
127.3900, 657.1649
127.8721, 669.1073
128.3542, 676.6989
128.8363, 676.9068
129.3185, 673.6071
129.8006, 676.5035
130.2827, 686.8471
130.7648, 695.6010
131.2469, 689.1432
131.7290, 669.5651
132.2112, 652.9663
132.6933, 646.4798
133.1754, 648.3961
133.6575, 646.6458
134.1396, 639.3056
134.6217, 632.6755
135.1039, 638.8483
135.5860, 659.2495
136.0681, 679.3306
136.5502, 680.1763
137.0323, 680.3685
137.5145, 679.9421
137.9966, 677.0454
138.4787, 677.3388
138.9608, 676.3538
139.4429, 675.3163
139.9250, 676.0587
140.4072, 673.5211
140.8893, 674.2354
141.3714, 673.6515
141.8535, 673.6617
142.3356, 672.3856
142.8177, 675.2842
143.2998, 686.4924
143.7820, 699.6313
144.2641, 706.4214
144.7462, 702.6733
145.2283, 699.2699
145.7104, 699.4689
146.1925, 704.8206
146.6747, 709.9875
147.1568, 717.0577
147.6389, 723.8984
148.1210, 724.3182
148.6031, 710.8593
149.0852, 697.5743
149.5674, 690.6594
150.0495, 697.7455
150.5316, 702.1292
151.0137, 699.8030
151.4958, 691.8929
151.9779, 691.5732
152.4601, 713.7876
152.9422, 735.9000
153.4243, 742.1310
153.9064, 709.7617
154.3885, 681.9698
154.8706, 669.1008
155.3528, 673.4048
155.8349, 678.8524
156.3170, 685.6845
156.7991, 691.2857
157.2812, 692.3913
157.7633, 685.7120
158.2455, 676.3586
158.7276, 665.4274
159.2097, 650.3645
159.6918, 639.8886
160.1739, 638.8449
160.6560, 644.5035
161.1382, 650.6526
161.6203, 657.4750
162.1024, 662.6357
162.5845, 664.4479
163.0666, 660.3172
163.5487, 655.2615
164.0309, 650.9948
164.5130, 647.5432
164.9951, 645.2578
165.4772, 646.1836
165.9593, 647.7484
166.4414, 647.1770
166.9236, 641.4128
167.4057, 634.6125
167.8878, 627.7480
168.3699, 620.6540
168.8520, 618.6456
169.3341, 632.0884
169.8163, 652.6379
170.2984, 665.7155
170.7805, 656.2502
171.2626, 639.9446
171.7447, 633.9223
172.2268, 642.6543
172.7090, 652.4641
173.1911, 649.5453
173.6732, 637.3220
174.1553, 626.9931
174.6374, 627.5833
175.1195, 633.5326
175.6017, 635.8917
176.0838, 629.7624
176.5659, 623.8423
177.0480, 632.0727
177.5301, 652.5793
178.0122, 669.9174
178.4944, 668.6141
178.9765, 655.0554
179.4586, 644.0152
179.9407, 642.3753
180.4228, 644.6987
180.9049, 641.2328
181.3871, 631.7924
181.8692, 620.9001
182.3513, 610.5482
182.8334, 601.7886
183.3155, 598.5035
183.7976, 607.5518
184.2797, 623.6110
184.7619, 630.1146
185.2440, 625.5176
185.7261, 617.0189
186.2082, 613.8102
186.6903, 615.5483
187.1724, 618.1788
187.6546, 619.8380
188.1367, 620.6393
188.6188, 620.9824
189.1009, 620.5422
189.5830, 620.2058
190.0651, 621.4086
190.5473, 624.1165
191.0294, 628.4057
191.5115, 636.8733
191.9936, 648.7228
192.4757, 653.9334
192.9578, 649.5701
193.4400, 638.2055
193.9221, 625.7769
194.4042, 611.4333
194.8863, 600.2115
195.3684, 598.2191
195.8505, 605.6622
196.3327, 613.1090
196.8148, 618.9106
197.2969, 622.9277
197.7790, 622.8225
198.2611, 617.1273
198.7432, 611.5583
199.2254, 614.5802
199.7075, 627.6074
200.1896, 638.5233
200.6717, 641.4481
201.1538, 636.1686
201.6359, 637.9792
202.1181, 650.5972
202.6002, 664.5726
203.0823, 660.7181
203.5644, 633.9600
204.0465, 610.6004
204.5286, 605.0402
205.0108, 620.5673
205.4929, 630.3196
205.9750, 633.0147
206.4571, 629.8064
206.9392, 620.6460
207.4213, 600.8505
207.9035, 587.8926
208.3856, 596.8912
208.8677, 636.7103
209.3498, 660.1087
209.8319, 658.0251
210.3140, 637.2739
210.7962, 629.4564
211.2783, 640.3686
211.7604, 652.8519
212.2425, 652.0225
212.7246, 631.9939
213.2067, 618.2613
213.6889, 616.4631
214.1710, 625.6200
214.6531, 630.6045
215.1352, 629.5072
215.6173, 627.1251
216.0994, 629.1717
216.5816, 639.0746
217.0637, 644.4724
217.5458, 640.4730
218.0279, 626.1224
218.5100, 619.8220
218.9921, 625.6639
219.4743, 635.4318
219.9564, 637.8960
220.4385, 629.3887
220.9206, 621.0007
221.4027, 616.2637
221.8848, 615.8899
222.3670, 615.1938
222.8491, 613.2917
223.3312, 611.6176
223.8133, 613.3516
224.2954, 621.3444
224.7775, 627.8545
225.2596, 628.9427
225.7418, 620.5672
226.2239, 618.5327
226.7060, 626.4144
227.1881, 639.5994
227.6702, 645.9212
228.1523, 641.9980
228.6345, 636.1848
229.1166, 632.4166
229.5987, 631.5500
230.0808, 630.7228
230.5629, 629.0369
231.0450, 627.2534
231.5272, 628.5403
232.0093, 633.1643
232.4914, 640.4678
232.9735, 651.9273
233.4556, 675.5497
233.9377, 685.6349
234.4199, 673.5297
234.9020, 642.7560
235.3841, 627.1164
235.8662, 633.9853
236.3483, 647.6165
236.8304, 656.3270
237.3126, 657.5496
237.7947, 658.9155
238.2768, 662.3091
238.7589, 667.6491
239.2410, 669.0691
239.7231, 665.5040
240.2053, 659.0799
240.6874, 651.3654
241.1695, 640.3945
241.6516, 631.3730
242.1337, 624.6680
242.6158, 620.0847
243.0980, 620.5783
243.5801, 628.6171
244.0622, 639.6653
244.5443, 648.6733
245.0264, 655.5366
245.5085, 660.5921
245.9907, 664.2700
246.4728, 666.9576
246.9549, 665.4136
247.4370, 656.0090
247.9191, 645.0118
248.4012, 642.5856
248.8834, 655.5990
249.3655, 665.2590
249.8476, 664.7008
250.3297, 650.0727
250.8118, 640.7204
251.2939, 639.1080
251.7761, 641.3755
252.2582, 640.2421
252.7403, 632.7884
253.2224, 626.9052
253.7045, 625.9745
254.1866, 632.1772
254.6688, 636.2499
255.1509, 636.7400
255.6330, 635.7682
256.1151, 638.4393
256.5972, 647.2993
257.0793, 655.4045
257.5615, 659.0769
258.0436, 655.5460
258.5257, 655.8224
259.0078, 661.8895
259.4899, 671.1719
259.9720, 676.8292
260.4542, 678.2275
260.9363, 677.1849
261.4184, 674.2114
261.9005, 668.6322
262.3826, 663.5226
262.8647, 659.4356
263.3469, 655.8277
263.8290, 650.4543
264.3111, 641.5938
264.7932, 634.2858
265.2753, 632.0477
265.7574, 636.4986
266.2396, 640.1036
266.7217, 641.7945
267.2038, 642.2095
267.6859, 643.7767
268.1680, 646.4717
268.6501, 650.3130
269.1323, 655.6903
269.6144, 663.0186
270.0965, 669.6550
270.5786, 675.3583
271.0607, 680.0693
271.5428, 683.9299
272.0250, 687.4088
272.5071, 688.7975
272.9892, 686.5203
273.4713, 680.1276
273.9534, 671.8755
274.4355, 659.7260
274.9177, 646.2380
275.3998, 645.5671
275.8819, 661.8124
276.3640, 678.5811
276.8461, 678.8566
277.3282, 660.0420
277.8104, 650.6639
278.2925, 660.8625
278.7746, 684.0593
279.2567, 686.6079
279.7388, 663.4913
280.2209, 639.1456
280.7031, 639.4870
281.1852, 665.8663
281.6673, 685.1338
282.1494, 689.0068
282.6315, 680.6514
283.1136, 670.8187
283.5958, 658.6641
284.0779, 649.4076
284.5600, 650.5983
285.0421, 661.8241
285.5242, 669.1452
286.0063, 666.0616
286.4884, 657.1590
286.9706, 661.2208
287.4527, 680.0735
287.9348, 698.5658
288.4169, 697.4590
288.8990, 679.4042
289.3811, 668.8823
289.8633, 676.2662
290.3454, 694.9733
290.8275, 706.9604
291.3096, 711.9094
291.7917, 713.9187
292.2738, 717.8190
292.7560, 722.6710
293.2381, 723.4374
293.7202, 715.4851
294.2023, 703.7377
294.6844, 699.4841
295.1665, 702.9706
295.6487, 708.7968
296.1308, 709.8935
296.6129, 708.7456
297.0950, 713.9263
297.5771, 734.1002
298.0592, 759.1990
298.5414, 771.2290
299.0235, 770.1307
299.5056, 766.0990
299.9877, 767.0181
300.4698, 771.7968
300.9519, 778.0795
301.4341, 787.5734
301.9162, 796.5369
302.3983, 798.7897
302.8804, 794.4342
303.3625, 789.9786
303.8446, 789.9409
304.3268, 793.5692
304.8089, 799.5897
305.2910, 810.9903
305.7731, 822.3444
306.2552, 828.2868
306.7373, 828.9907
307.2195, 826.7748
307.7016, 823.0852
308.1837, 817.5708
308.6658, 809.8289
309.1479, 793.9309
309.6300, 779.8737
310.1122, 777.8542
310.5943, 787.0471
311.0764, 793.6191
311.5585, 787.7239
312.0406, 775.2847
312.5227, 762.7984
313.0049, 745.7992
313.4870, 735.0267
313.9691, 743.4367
314.4512, 768.9557
314.9333, 784.4296
315.4154, 767.7830
315.8976, 739.0306
316.3797, 717.0782
316.8618, 708.5492
317.3439, 706.8748
317.8260, 713.8043
318.3081, 728.1747
318.7903, 737.5227
319.2724, 733.5884
319.7545, 725.0889
320.2366, 718.9333
320.7187, 714.6802
321.2008, 714.9999
321.6830, 727.1171
322.1651, 748.7652
322.6472, 756.5169
323.1293, 730.9907
323.6114, 698.8558
324.0935, 678.0986
324.5757, 681.4165
325.0578, 684.8259
325.5399, 683.1606
326.0220, 677.3420
326.5041, 677.3359
326.9862, 690.6541
327.4684, 705.2935
327.9505, 714.4339
328.4326, 713.8301
328.9147, 712.8909
329.3968, 710.5050
329.8789, 707.5158
330.3611, 709.5588
330.8432, 722.7979
331.3253, 734.9607
331.8074, 738.5995
332.2895, 726.6312
332.7716, 718.9589
333.2538, 717.6121
333.7359, 721.4341
334.2180, 725.6977
334.7001, 730.6302
335.1822, 735.7392
335.6643, 739.8082
336.1465, 740.6028
336.6286, 748.4588
337.1107, 767.6023
337.5928, 792.5139
338.0749, 805.2561
338.5570, 802.0015
339.0392, 797.9767
339.5213, 804.4178
340.0034, 823.9182
340.4855, 829.9595
340.9676, 817.1433
341.4497, 795.1556
341.9319, 784.4079
342.4140, 785.7850
342.8961, 790.2072
343.3782, 795.3818
343.8603, 800.8425
344.3424, 798.4934
344.8246, 786.2211
345.3067, 770.2271
345.7888, 759.4418
346.2709, 753.8422
346.7530, 750.4722
347.2351, 747.4396
347.7173, 745.4119
348.1994, 748.1533
348.6815, 757.0936
349.1636, 764.8910
349.6457, 758.6760
350.1278, 742.3809
350.6100, 731.2953
351.0921, 737.2720
351.5742, 751.4643
352.0563, 759.7053
352.5384, 760.9822
353.0205, 760.9619
353.5027, 765.4462
353.9848, 772.3911
354.4669, 777.6473
354.9490, 780.0599
355.4311, 779.6552
355.9132, 775.1824
356.3954, 766.6380
356.8775, 758.7875
357.3596, 755.2592
357.8417, 754.1041
358.3238, 752.6771
358.8059, 748.8702
359.2881, 745.5037
359.7702, 743.4844
360.2523, 742.9200
360.7344, 745.0624
361.2165, 756.7168
361.6986, 768.2995
362.1808, 771.6461
362.6629, 752.7488
363.1450, 737.3081
363.6271, 735.3757
364.1092, 744.9744
364.5913, 751.9264
365.0735, 748.7429
365.5556, 744.5975
366.0377, 745.1304
366.5198, 753.2394
367.0019, 763.4227
367.4840, 778.9474
367.9662, 797.3931
368.4482, 807.9657
368.9304, 806.7534
369.4125, 800.9096
369.8946, 792.9188
370.3767, 776.9610
370.8588, 768.9796
371.3409, 772.6029
371.8231, 783.3475
372.3052, 789.9271
372.7873, 789.5045
373.2694, 789.4980
373.7515, 793.5812
374.2336, 803.6503
374.7158, 809.8239
375.1979, 811.5291
375.6800, 809.9208
376.1621, 806.7866
376.6442, 802.0862
377.1263, 795.8057
377.6085, 785.2459
378.0906, 770.9755
378.5727, 768.8051
379.0548, 781.4655
379.5369, 798.1376
380.0190, 803.3728
380.5012, 797.7349
380.9833, 796.3449
381.4654, 808.4305
381.9475, 827.6285
382.4296, 832.8458
382.9117, 823.2351
383.3939, 812.1083
383.8760, 813.2227
384.3581, 823.3178
384.8402, 832.4307
385.3223, 837.2731
385.8044, 839.9092
386.2866, 844.5074
386.7687, 850.3516
387.2508, 851.9836
387.7329, 840.0901
388.2150, 823.3037
388.6971, 814.6551
389.1793, 825.0361
389.6614, 831.7872
390.1435, 810.4244
390.6256, 769.7689
391.1077, 737.9850
391.5898, 733.4344
392.0720, 740.5054
392.5541, 748.8961
393.0362, 758.2316
393.5183, 765.2243
394.0004, 772.1431
394.4825, 775.5933
394.9647, 769.3575
395.4468, 738.3200
395.9289, 708.5873
396.4110, 691.2899
396.8931, 690.0926
397.3752, 691.3129
397.8574, 694.7488
398.3395, 699.1490
398.8216, 702.9809
399.3037, 704.3649
399.7858, 707.2962
400.2679, 714.0181
400.7501, 725.1514
401.2322, 730.5734
401.7143, 727.0178
402.1964, 720.9678
402.6785, 718.3219
403.1606, 721.4340
403.6428, 722.2512
404.1249, 719.4899
404.6070, 713.4963
405.0891, 704.4862
405.5712, 690.1192
406.0533, 679.7384
406.5355, 683.0316
407.0176, 701.1573
407.4997, 711.4239
407.9818, 709.2944
408.4639, 701.2507
408.9460, 701.7349
409.4282, 710.7576
409.9103, 719.2573
410.3924, 721.6458
410.8745, 719.3636
411.3566, 716.3159
411.8387, 712.1013
412.3209, 710.0946
412.8030, 719.1114
413.2851, 734.5013
413.7672, 742.5319
414.2493, 729.6714
414.7314, 709.5859
415.2136, 696.4951
415.6957, 690.9058
416.1778, 692.7532
416.6599, 713.1108
417.1420, 737.9580
417.6241, 748.4242
418.1063, 723.1362
418.5884, 695.5525
419.0705, 681.9783
419.5526, 681.2526
420.0347, 684.5006
420.5168, 692.7755
420.9990, 701.1725
421.4811, 705.9470
421.9632, 701.5704
422.4453, 700.4211
422.9274, 710.7987
423.4095, 726.6509
423.8917, 730.7395
424.3738, 703.6288
424.8559, 680.7150
425.3380, 675.1168
425.8201, 693.7380
426.3022, 711.7958
426.7844, 734.6999
427.2665, 753.7434
427.7486, 752.5714
428.2307, 717.5994
428.7128, 693.3793
429.1949, 697.4628
429.6771, 728.8757
430.1592, 739.6556
430.6413, 724.8427
431.1234, 702.0293
431.6055, 686.5792
432.0876, 678.4916
432.5698, 678.8244
433.0519, 691.3645
433.5340, 709.5741
434.0161, 716.5143
434.4982, 712.4093
434.9803, 706.6002
435.4625, 704.1594
435.9446, 705.1953
436.4267, 711.6365
436.9088, 726.0757
437.3909, 739.1436
437.8730, 739.0240
438.3552, 728.8550
438.8373, 717.4084
439.3194, 705.0450
439.8015, 695.9504
440.2836, 695.9932
440.7657, 706.5609
441.2479, 716.0715
441.7300, 716.5472
442.2121, 712.8194
442.6942, 710.6641
443.1763, 713.9528
443.6584, 717.0753
444.1406, 717.8123
444.6227, 716.2927
445.1048, 714.9741
445.5869, 711.1970
446.0690, 709.8687
446.5511, 713.9479
447.0333, 737.3332
447.5154, 748.2392
447.9975, 739.4701
448.4796, 718.6464
448.9617, 706.3678
449.4438, 706.0546
449.9260, 709.0453
450.4081, 712.5222
450.8902, 716.6030
451.3723, 720.7501
451.8544, 725.9316
452.3365, 729.6608
452.8186, 727.1334
453.3008, 717.6021
453.7829, 710.5439
454.2650, 708.9756
454.7471, 711.9138
455.2292, 716.9161
455.7113, 724.1722
456.1935, 730.4091
456.6756, 732.6763
457.1577, 731.7535
457.6398, 729.8257
458.1219, 727.1730
458.6040, 724.0181
459.0862, 721.3337
459.5683, 718.5906
460.0504, 713.9266
460.5325, 699.4080
461.0146, 686.5455
461.4967, 688.8239
461.9789, 711.1046
462.4610, 729.5411
462.9431, 727.2607
463.4252, 715.2421
463.9073, 707.6819
464.3894, 710.9279
464.8716, 717.1715
465.3537, 726.1830
465.8358, 737.8130
466.3179, 744.2217
466.8000, 740.1630
467.2821, 733.6672
467.7643, 729.6066
468.2464, 729.2173
468.7285, 729.3828
469.2106, 730.9769
469.6927, 732.7838
470.1748, 731.2926
470.6570, 725.3802
471.1391, 718.8278
471.6212, 712.4394
472.1033, 705.9534
472.5854, 703.3511
473.0675, 705.0214
473.5497, 709.5215
474.0318, 717.2996
474.5139, 727.7638
474.9960, 733.2445
475.4781, 728.3879
475.9602, 719.2167
476.4424, 718.6830
476.9245, 726.2670
477.4066, 735.3106
477.8887, 742.1778
478.3708, 747.0687
478.8529, 750.6780
479.3351, 754.0403
479.8172, 753.8868
480.2993, 743.4760
480.7814, 727.7808
481.2635, 717.2255
481.7456, 720.1901
482.2278, 725.9150
482.7099, 727.9797
483.1920, 725.0712
483.6741, 726.0707
484.1562, 740.0809
484.6383, 755.3715
485.1205, 761.8576
485.6026, 750.4837
486.0847, 739.8263
486.5668, 731.0248
487.0489, 723.9948
487.5310, 717.5989
488.0132, 708.3906
488.4953, 705.5696
488.9774, 717.2469
489.4595, 748.6194
489.9416, 765.4169
490.4237, 764.8983
490.9059, 754.3889
491.3880, 741.9584
491.8701, 727.7411
492.3522, 717.4705
492.8343, 713.7312
493.3164, 715.2333
493.7986, 720.5542
494.2807, 729.5490
494.7628, 737.0387
495.2449, 738.6401
495.7270, 735.8465
496.2091, 730.4642
496.6913, 720.9261
497.1734, 713.0327
497.6555, 713.3073
498.1376, 718.7145
498.6197, 722.1853
499.1018, 719.0463
499.5840, 714.4085
500.0661, 709.5930
500.5482, 704.1439
501.0303, 703.8965
501.5124, 717.6356
501.9945, 733.3861
502.4767, 740.2802
502.9588, 721.8317
503.4409, 714.8431
503.9230, 729.6393
504.4051, 759.0874
504.8872, 772.8707
505.3694, 766.1602
505.8515, 753.1551
506.3336, 738.2421
506.8157, 719.8510
507.2978, 711.6185
507.7799, 715.9676
508.2621, 724.9189
508.7442, 727.4606
509.2263, 724.2213
509.7084, 722.5790
510.1905, 726.1547
510.6726, 731.9794
511.1548, 734.6176
511.6369, 734.1345
512.1190, 731.5138
512.6011, 725.7728
513.0832, 718.9282
513.5653, 713.3749
514.0474, 709.3917
514.5295, 707.1405
515.0117, 708.1541
515.4938, 710.7686
515.9759, 712.1450
516.4580, 707.9495
516.9401, 705.5790
517.4222, 710.1544
517.9044, 722.2756
518.3865, 728.3625
518.8686, 722.7335
519.3507, 713.5857
519.8328, 705.4250
520.3149, 697.2751
520.7971, 692.1877
521.2792, 690.4851
521.7613, 691.8041
522.2434, 696.1534
522.7255, 704.5654
523.2076, 711.6609
523.6898, 714.2986
524.1719, 713.2982
524.6540, 715.9283
525.1361, 722.6475
525.6182, 729.3849
526.1003, 732.3919
526.5825, 732.2286
527.0646, 730.0552
527.5467, 725.1962
528.0288, 720.2210
528.5109, 718.4672
528.9930, 718.9881
529.4752, 718.9252
529.9573, 712.2651
530.4394, 707.7488
530.9215, 714.8144
531.4036, 736.4753
531.8857, 750.3537
532.3679, 741.4797
532.8500, 725.1451
533.3321, 715.4033
533.8142, 719.3188
534.2963, 723.5503
534.7784, 726.9667
535.2606, 729.7993
535.7427, 732.9315
536.2248, 736.9133
536.7069, 740.2803
537.1890, 743.0215
537.6711, 745.3651
538.1533, 742.6063
538.6354, 732.8749
539.1175, 723.4730
539.5996, 724.1610
540.0817, 733.6551
540.5638, 743.1835
541.0460, 752.5092
541.5281, 758.2249
542.0102, 750.0829
542.4923, 731.4744
542.9744, 718.2002
543.4565, 726.7283
543.9387, 741.1213
544.4208, 744.5227
544.9029, 733.6129
545.3850, 723.9796
545.8671, 725.6940
546.3492, 731.5095
546.8314, 733.5347
547.3135, 720.2873
547.7956, 713.8419
548.2777, 724.0060
548.7598, 745.8253
549.2419, 758.0444
549.7241, 757.4717
550.2062, 751.5880
550.6883, 741.7877
551.1704, 726.5097
551.6525, 716.6362
552.1346, 712.0985
552.6168, 712.8958
553.0989, 721.6898
553.5810, 737.9642
554.0631, 750.7376
554.5452, 757.5580
555.0273, 759.3568
555.5095, 755.7603
555.9916, 747.7247
556.4737, 740.4835
556.9558, 740.1241
557.4379, 740.7651
557.9200, 732.8032
558.4022, 713.8927
558.8843, 701.8760
559.3664, 713.1185
559.8485, 733.3430
560.3306, 747.9485
560.8127, 753.1273
561.2949, 752.2239
561.7770, 738.1202
562.2591, 716.9075
562.7412, 712.1095
563.2233, 740.1558
563.7054, 762.8779
564.1876, 764.7536
564.6697, 743.1336
565.1518, 726.3665
565.6339, 713.9642
566.1160, 707.8877
566.5981, 714.7152
567.0803, 733.4288
567.5624, 742.3407
568.0445, 734.5052
568.5266, 720.1509
569.0087, 716.3475
569.4908, 721.0068
569.9730, 725.4156
570.4551, 721.0615
570.9372, 716.5273
571.4193, 722.3392
571.9014, 738.8058
572.3835, 754.2200
572.8657, 762.0516
573.3478, 766.2502
573.8299, 770.2377
574.3120, 779.5854
574.7941, 781.8817
575.2762, 768.6457
575.7584, 748.1262
576.2405, 737.4327
576.7226, 744.4901
577.2047, 747.9919
577.6868, 738.9279
578.1689, 718.8297
578.6511, 715.6882
579.1332, 733.8556
579.6153, 752.8102
580.0974, 753.3415
580.5795, 738.7866
581.0616, 734.4879
581.5438, 745.6082
582.0259, 759.1031
582.5080, 756.7296
582.9901, 744.0032
583.4722, 734.5641
583.9543, 737.8033
584.4365, 743.6663
584.9186, 743.9213
585.4007, 739.7247
585.8828, 737.4952
586.3649, 737.7799
586.8470, 742.4272
587.3292, 754.9906
587.8113, 784.7944
588.2934, 798.3491
588.7755, 783.6068
589.2576, 759.4564
589.7397, 745.9120
590.2219, 745.9277
590.7040, 749.6472
591.1861, 758.5256
591.6682, 768.2368
592.1503, 761.8524
592.6324, 738.0273
593.1146, 719.8353
593.5967, 724.3777
594.0788, 743.4916
594.5609, 756.1525
595.0430, 761.8877
595.5251, 762.3767
596.0073, 752.4469
596.4894, 740.4250
596.9715, 738.4077
597.4536, 757.9578
597.9357, 772.9838
598.4178, 763.4410
598.9000, 741.8561
599.3821, 732.4143
599.8642, 757.1703
600.3463, 776.9631
600.8284, 778.9743
601.3105, 763.7629
601.7927, 754.8942
602.2748, 754.7709
602.7569, 756.8589
603.2390, 757.7059
603.7211, 757.4167
604.2032, 754.0574
604.6854, 746.4924
605.1675, 739.1368
605.6496, 738.6195
606.1317, 743.6959
606.6138, 749.0540
607.0959, 752.1838
607.5781, 755.7459
608.0602, 765.5566
608.5423, 779.0814
609.0244, 787.5189
609.5065, 783.2260
609.9886, 774.5309
610.4708, 764.6504
610.9529, 752.8822
611.4350, 747.0768
611.9171, 754.0507
612.3992, 764.1761
612.8813, 769.9832
613.3635, 768.7450
613.8456, 768.5746
614.3277, 769.8980
614.8098, 772.4474
615.2919, 776.7595
615.7740, 783.3328
616.2562, 786.4025
616.7383, 782.1868
617.2204, 773.6772
617.7025, 769.8610
618.1846, 770.2879
618.6667, 769.9960
619.1489, 761.5857
619.6310, 752.2281
620.1131, 752.4070
620.5952, 765.2224
621.0773, 776.8142
621.5594, 780.5852
622.0416, 778.7165
622.5237, 773.4858
623.0058, 757.2364
623.4879, 747.4573
623.9700, 749.4030
624.4521, 759.1165
624.9343, 767.4271
625.4164, 775.7382
625.8985, 779.1355
626.3806, 773.6259
626.8627, 760.6835
627.3448, 754.6287
627.8270, 755.7164
628.3091, 761.5090
628.7912, 774.5852
629.2733, 790.5928
629.7554, 797.6727
630.2375, 793.2493
630.7197, 784.8408
631.2018, 774.9326
631.6839, 766.4006
632.1660, 763.5929
632.6481, 773.4108
633.1302, 783.7073
633.6124, 791.2058
634.0945, 795.9536
634.5766, 798.1667
635.0587, 797.9420
635.5408, 795.0677
636.0229, 788.5803
636.5051, 778.0918
636.9872, 770.1381
637.4693, 765.0909
637.9514, 761.2260
638.4335, 756.3608
638.9156, 750.9165
639.3978, 749.3827
639.8799, 752.5759
640.3620, 758.5648
640.8441, 768.9395
641.3262, 780.2079
641.8083, 784.7794
642.2905, 773.0481
642.7726, 760.4604
643.2547, 757.5119
643.7368, 761.9503
644.2189, 766.0203
644.7010, 764.9805
645.1832, 765.2154
645.6653, 770.9306
646.1474, 783.3073
646.6295, 789.0775
647.1116, 784.9983
647.5938, 779.1434
648.0759, 777.0349
648.5580, 778.7736
649.0401, 784.1941
649.5222, 794.8819
650.0043, 804.7005
650.4865, 803.1155
650.9686, 793.1569
651.4507, 785.3738
651.9328, 782.5305
652.4149, 784.3433
652.8970, 796.3199
653.3792, 813.6200
653.8613, 821.5001
654.3434, 803.9935
654.8255, 784.1808
655.3076, 773.0369
655.7897, 771.9279
656.2718, 772.0880
656.7539, 773.3931
657.2360, 775.4340
657.7181, 778.4810
658.2003, 783.3956
658.6824, 784.1276
659.1645, 778.0854
659.6466, 773.6462
660.1287, 787.7283
660.6108, 815.7889
661.0930, 830.4807
661.5751, 819.7610
662.0572, 800.4791
662.5393, 790.3226
663.0214, 787.8903
663.5035, 789.3903
663.9857, 799.1692
664.4678, 806.9185
664.9499, 805.0809
665.4320, 793.8740
665.9141, 786.0569
666.3962, 786.0616
666.8784, 787.8216
667.3605, 789.3120
667.8426, 791.2192
668.3247, 788.8561
668.8068, 780.2991
669.2889, 771.6974
669.7711, 769.9394
670.2532, 774.5353
670.7353, 780.9393
671.2174, 789.1046
671.6995, 796.7779
672.1816, 800.5825
672.6638, 801.7653
673.1459, 803.2106
673.6280, 809.7208
674.1101, 813.6715
674.5922, 808.2174
675.0743, 795.3950
675.5565, 786.1410
676.0386, 782.1489
676.5207, 782.9650
677.0028, 790.1400
677.4849, 805.0051
677.9670, 812.1013
678.4492, 807.9017
678.9313, 803.6557
679.4134, 811.7878
679.8955, 830.5464
680.3776, 837.8218
680.8597, 829.7151
681.3419, 817.9276
681.8240, 815.9949
682.3061, 820.2909
682.7882, 823.4005
683.2703, 821.4260
683.7524, 819.5418
684.2346, 821.4365
684.7167, 825.6047
685.1988, 828.5975
685.6809, 827.4874
686.1630, 827.5085
686.6451, 833.0289
687.1273, 842.4661
687.6094, 838.5935
688.0915, 815.9023
688.5736, 794.1691
689.0557, 785.2956
689.5378, 788.1061
690.0200, 788.6700
690.5021, 786.6035
690.9842, 784.9962
691.4663, 786.9594
691.9484, 791.1950
692.4305, 796.0548
692.9127, 802.0204
693.3948, 806.2074
693.8769, 803.3690
694.3590, 798.9847
694.8411, 800.3370
695.3232, 821.6739
695.8054, 832.6927
696.2875, 824.9961
696.7696, 805.7590
697.2517, 793.0517
697.7338, 787.2440
698.2159, 787.0106
698.6981, 794.2773
699.1802, 806.0707
699.6623, 810.0660
700.1444, 806.8108
700.6265, 805.9340
701.1086, 821.9403
701.5908, 839.9820
702.0729, 836.6482
702.5550, 808.9578
703.0371, 789.2480
703.5192, 803.2654
704.0013, 825.3294
704.4835, 835.2162
704.9656, 818.1059
705.4477, 810.2154
705.9298, 817.3495
706.4119, 828.9280
706.8940, 830.7037
707.3762, 820.4782
707.8583, 816.2362
708.3404, 823.5988
708.8225, 834.2701
709.3046, 829.3727
709.7867, 813.4092
710.2689, 804.2225
710.7510, 817.4215
711.2331, 835.2305
711.7152, 844.3326
712.1973, 845.1579
712.6794, 839.3983
713.1616, 814.7190
713.6437, 795.1657
714.1258, 795.6050
714.6079, 817.6088
715.0900, 830.5486
715.5721, 830.3205
716.0543, 828.1054
716.5364, 832.1031
717.0185, 842.2164
717.5006, 848.8218
717.9827, 851.2879
718.4648, 851.2277
718.9470, 849.4810
719.4291, 846.5484
719.9112, 843.3630
720.3933, 840.0073
720.8754, 836.7375
721.3575, 833.3280
721.8397, 830.2341
722.3218, 828.1976
722.8039, 827.1851
723.2860, 827.6870
723.7681, 832.4117
724.2502, 838.0688
724.7324, 833.1926
725.2145, 813.7101
725.6966, 800.6232
726.1787, 803.2217
726.6608, 816.8314
727.1429, 829.6136
727.6251, 841.3579
728.1072, 849.0874
728.5893, 850.3080
729.0714, 846.9737
729.5535, 838.1064
730.0356, 823.7593
730.5178, 815.8243
730.9999, 827.2345
731.4820, 840.4569
731.9641, 843.0064
732.4462, 828.9448
732.9283, 821.6251
733.4105, 822.7194
733.8926, 828.0753
734.3747, 835.4577
734.8568, 844.7323
735.3389, 848.1739
735.8210, 843.4587
736.3032, 836.9631
736.7853, 838.0360
737.2674, 843.1861
737.7495, 845.2108
738.2316, 839.3965
738.7137, 832.6556
739.1959, 826.6065
739.6780, 822.3116
740.1601, 822.3036
740.6422, 835.0834
741.1243, 841.8383
741.6064, 835.3980
742.0886, 820.2316
742.5707, 817.4846
743.0528, 829.0584
743.5349, 841.3942
744.0170, 848.4396
744.4991, 851.0528
744.9813, 850.1216
745.4634, 846.1061
745.9455, 843.7401
746.4276, 850.2077
746.9097, 857.0535
747.3918, 855.6284
747.8740, 843.5919
748.3561, 835.0081
748.8382, 836.2119
749.3203, 839.5367
749.8024, 839.9880
750.2845, 835.7483
750.7667, 834.7581
751.2488, 838.0592
751.7309, 842.1746
752.2130, 842.0363
752.6951, 838.8090
753.1772, 838.8224
753.6594, 844.0200
754.1415, 850.1428
754.6236, 854.1075
755.1057, 855.9202
755.5878, 855.6609
756.0699, 848.5359
756.5521, 844.8143
757.0342, 850.2754
757.5163, 860.8083
757.9984, 867.3420
758.4805, 870.5779
758.9626, 867.8095
759.4448, 855.7541
759.9269, 838.8389
760.4090, 831.2024
760.8911, 832.4307
761.3732, 835.9237
761.8553, 839.3226
762.3375, 842.3401
762.8196, 844.0741
763.3017, 844.8347
763.7838, 846.6211
764.2659, 852.7017
764.7480, 858.0549
765.2302, 859.1433
765.7123, 855.0411
766.1944, 853.4974
766.6765, 854.6370
767.1586, 858.1078
767.6407, 865.8848
768.1229, 877.8682
768.6050, 880.4409
769.0871, 872.7166
769.5692, 861.8601
770.0513, 853.6222
770.5334, 846.9634
771.0156, 839.3034
771.4977, 828.7963
771.9798, 823.4039
772.4619, 831.7145
772.9440, 844.8347
773.4261, 853.7819
773.9083, 855.6052
774.3904, 856.2699
774.8725, 855.8616
775.3546, 854.3508
775.8367, 850.4348
776.3188, 844.0805
776.8010, 842.6669
777.2831, 850.0014
777.7652, 857.8530
778.2473, 850.1321
778.7294, 834.1937
779.2115, 826.5986
779.6937, 844.1505
780.1758, 861.3631
780.6579, 866.9728
781.1400, 863.5245
781.6221, 858.0995
782.1042, 847.8657
782.5864, 841.3910
783.0685, 841.9977
783.5506, 847.3912
784.0327, 847.4153
784.5148, 841.7751
784.9969, 840.9457
785.4791, 858.2285
785.9612, 879.7670
786.4433, 876.4767
786.9254, 853.7614
787.4075, 839.0581
787.8896, 857.7763
788.3718, 879.4261
788.8539, 886.4399
789.3360, 876.7401
789.8181, 867.3209
790.3002, 858.6058
790.7823, 850.4576
791.2645, 841.8554
791.7466, 832.8500
792.2287, 830.8636
792.7108, 836.2082
793.1929, 843.7584
793.6750, 850.3841
794.1572, 855.9432
794.6393, 860.1821
795.1214, 863.0784
795.6035, 864.8334
796.0856, 864.2008
796.5677, 863.3209
797.0499, 864.3925
797.5320, 870.3132
798.0141, 870.3954
798.4962, 861.4968
798.9783, 851.7418
799.4604, 849.8276
799.9426, 855.2840
800.4247, 861.7411
800.9068, 869.1114
801.3889, 874.0111
801.8710, 869.9912
802.3531, 862.0529
802.8353, 858.2419
803.3174, 865.0313
803.7995, 868.2190
804.2816, 852.7859
804.7637, 835.5217
805.2458, 841.8655
805.7280, 889.3640
806.2101, 915.2628
806.6922, 906.8835
807.1743, 881.9963
807.6564, 869.8453
808.1385, 868.9250
808.6207, 870.6273
809.1028, 873.1154
809.5849, 875.6604
810.0670, 878.5591
810.5491, 880.8608
811.0313, 880.7236
811.5134, 875.0537
811.9955, 869.7737
812.4776, 866.7285
812.9597, 865.0131
813.4418, 861.2773
813.9240, 853.4283
814.4061, 853.2081
814.8882, 868.7379
815.3703, 889.4116
815.8524, 887.8146
816.3345, 868.3807
816.8167, 852.0765
817.2988, 852.9898
817.7809, 857.3510
818.2630, 854.5835
818.7451, 846.6440
819.2272, 843.1050
819.7094, 846.5045
820.1915, 854.2263
820.6736, 867.3801
821.1556, 884.5162
821.6378, 898.6163
822.1199, 910.1945
822.6020, 911.2739
823.0841, 886.8502
823.5662, 853.4363
824.0483, 843.3650
824.5305, 853.5641
825.0126, 864.2382
825.4947, 864.8641
825.9768, 862.9263
826.4589, 862.5150
826.9410, 863.9415
827.4232, 863.4600
827.9053, 859.3035
828.3874, 856.4976
828.8695, 858.1451
829.3516, 863.4543
829.8337, 865.3616
830.3159, 863.9335
830.7980, 864.8422
831.2801, 876.5609
831.7622, 890.1710
832.2443, 895.4431
832.7264, 891.7504
833.2086, 885.9363
833.6907, 877.7151
834.1728, 870.2366
834.6549, 864.1891
835.1370, 859.0586
835.6191, 862.2371
836.1013, 876.4626
836.5834, 888.5618
837.0655, 886.3517
837.5476, 874.6280
838.0297, 867.9282
838.5118, 866.9300
838.9940, 865.9371
839.4761, 857.9215
839.9582, 850.4376
840.4403, 849.6907
840.9224, 857.4952
841.4045, 867.8055
841.8867, 884.5002
842.3688, 897.8237
842.8509, 899.6401
843.3330, 889.4615
843.8151, 884.9872
844.2972, 886.9302
844.7794, 888.6251
845.2615, 880.8492
845.7436, 870.6639
846.2257, 869.5513
846.7078, 880.3041
847.1899, 888.3214
847.6721, 881.6072
848.1542, 874.8602
848.6363, 881.0320
849.1184, 908.5057
849.6005, 912.5599
850.0826, 885.4869
850.5648, 856.3705
851.0469, 854.8717
851.5290, 873.1975
852.0111, 886.0422
852.4932, 890.9243
852.9753, 892.0963
853.4575, 892.1357
853.9396, 890.2996
854.4217, 884.3501
854.9038, 869.4356
855.3859, 865.5064
855.8680, 879.7122
856.3502, 897.1318
856.8323, 907.2221
857.3144, 910.0081
857.7965, 905.5737
858.2786, 892.8933
858.7607, 881.5746
859.2429, 882.0567
859.7250, 888.8679
860.2071, 895.1469
860.6892, 899.8658
861.1713, 903.5223
861.6534, 907.1430
862.1356, 908.9922
862.6177, 907.1710
863.0998, 899.3187
863.5819, 898.0033
864.0640, 905.4095
864.5461, 912.0076
865.0283, 906.4166
865.5104, 893.2152
865.9925, 884.6555
866.4746, 882.1249
866.9567, 883.0489
867.4388, 891.2679
867.9210, 898.6058
868.4031, 896.7770
868.8852, 878.4974
869.3673, 870.2321
869.8494, 876.0140
870.3315, 885.5295
870.8137, 890.9224
871.2958, 892.5787
871.7779, 895.5511
872.2600, 900.3255
872.7421, 902.3804
873.2242, 893.5151
873.7064, 882.3373
874.1885, 877.6771
874.6706, 881.3325
875.1527, 888.6851
875.6348, 903.7909
876.1169, 917.6871
876.5991, 925.1617
877.0812, 925.5934
877.5633, 924.8214
878.0454, 922.7335
878.5275, 920.1106
879.0096, 916.5808
879.4918, 913.3461
879.9739, 913.3059
880.4560, 916.8058
880.9381, 918.7634
881.4202, 916.3770
881.9023, 911.8682
882.3845, 905.4292
882.8666, 896.2452
883.3487, 893.6410
883.8308, 899.6523
884.3129, 906.0051
884.7950, 905.3224
885.2772, 900.6359
885.7593, 903.7299
886.2414, 914.1879
886.7235, 919.4370
887.2056, 902.9780
887.6877, 884.9441
888.1699, 881.1695
888.6520, 894.4860
889.1341, 900.8627
889.6162, 896.7786
890.0983, 891.2237
890.5804, 888.1166
891.0626, 887.2553
891.5447, 887.6762
892.0268, 889.3329
892.5089, 891.3052
892.9910, 892.3190
893.4731, 893.8744
893.9553, 898.8857
894.4374, 906.6896
894.9195, 910.2128
895.4016, 906.6710
895.8837, 899.5445
896.3658, 886.2846
896.8480, 870.0897
897.3301, 873.0881
897.8122, 895.2716
898.2943, 914.2982
898.7764, 913.7070
899.2585, 905.8957
899.7407, 906.8443
900.2228, 914.0077
900.7049, 917.7916
901.1870, 910.0715
901.6691, 903.7999
902.1512, 903.0901
902.6334, 906.7088
903.1155, 910.6711
903.5976, 915.1190
904.0797, 918.5331
904.5618, 919.3911
905.0439, 920.1241
905.5261, 928.2296
906.0082, 939.4390
906.4903, 942.6875
906.9724, 920.7181
907.4545, 904.0984
907.9366, 909.4428
908.4188, 925.7375
908.9009, 931.0480
909.3830, 922.7844
909.8651, 913.3017
910.3472, 903.5270
910.8293, 896.9166
911.3115, 904.1377
911.7936, 918.8571
912.2757, 925.0875
912.7578, 910.3504
913.2399, 897.9644
913.7220, 903.3970
914.2042, 915.9429
914.6863, 919.7536
915.1684, 909.0010
915.6505, 905.3279
916.1326, 912.7611
916.6147, 922.1986
917.0969, 918.3328
917.5790, 906.6301
918.0611, 904.6862
918.5432, 918.3674
919.0253, 931.7189
919.5074, 935.4968
919.9896, 933.4916
920.4717, 928.1846
920.9538, 914.4707
921.4359, 913.7561
921.9180, 932.4421
922.4001, 950.4022
922.8823, 944.4521
923.3644, 921.7352
923.8465, 908.9267
924.3286, 908.1595
924.8107, 912.5555
925.2928, 924.4500
925.7750, 934.2078
926.2571, 931.2567
926.7392, 910.9272
927.2213, 904.0077
927.7034, 917.1320
928.1855, 930.7955
928.6677, 933.5385
929.1498, 927.2536
929.6319, 919.4794
930.1140, 910.7560
930.5961, 905.4387
931.0782, 908.5272
931.5604, 914.3424
932.0425, 919.7568
932.5246, 924.4736
933.0067, 927.3918
933.4888, 929.5159
933.9709, 927.8110
934.4531, 919.6946
934.9352, 908.0303
935.4173, 900.5564
935.8994, 897.3340
936.3815, 898.4548
936.8636, 907.3758
937.3458, 917.2576
937.8279, 924.4893
938.3100, 928.8597
938.7921, 929.4923
939.2742, 920.9838
939.7563, 918.5557
940.2385, 926.4945
940.7206, 938.7872
941.2027, 945.2527
941.6848, 946.3703
942.1669, 943.8338
942.6490, 936.2493
943.1312, 930.2296
943.6133, 935.6873
944.0954, 943.6714
944.5775, 942.7243
945.0596, 917.4782
945.5417, 907.3954
946.0239, 918.4669
946.5060, 934.6628
946.9881, 938.8561
947.4702, 933.2091
947.9523, 928.7372
948.4344, 926.4514
948.9166, 925.9610
949.3987, 927.5272
949.8808, 930.3398
950.3629, 933.5792
950.8450, 936.9730
951.3271, 942.8641
951.8093, 954.0419
952.2914, 962.2167
952.7735, 961.9649
953.2556, 954.6381
953.7377, 943.7670
954.2198, 930.1907
954.7020, 921.4161
955.1841, 927.6682
955.6662, 935.3840
956.1483, 934.1588
956.6304, 925.3018
957.1125, 920.4715
957.5947, 920.3534
958.0768, 923.7477
958.5589, 931.8334
959.0410, 941.6867
959.5231, 945.3797
960.0052, 944.4258
960.4874, 929.5515
960.9695, 948.4625
961.4516, 959.3027
961.9337, 962.5058
962.4158, 935.1976
962.8979, 947.2883
963.3801, 943.5900
963.8622, 939.2439
964.3443, 956.8799
964.8264, 934.0095
965.3085, 951.2969
965.7906, 952.5540
966.2728, 961.1479
966.7549, 953.8549
967.2370, 951.4688
967.7191, 964.9746
968.2012, 969.6809
968.6833, 960.5591
969.1655, 969.6194
969.6476, 946.1940
970.1297, 951.2751
970.6118, 968.6555
971.0939, 960.3324
971.5760, 969.6830
972.0582, 972.3027
972.5403, 944.3320
973.0224, 969.5607
973.5045, 971.7824
973.9866, 950.3809
974.4688, 973.7869
974.9509, 955.6422
975.4330, 952.3285
975.9151, 960.1761
976.3972, 956.3885
976.8793, 970.9451
977.3615, 967.8295
977.8436, 963.1348
978.3257, 965.3307
978.8078, 948.0008
979.2899, 966.8952
979.7720, 961.0453
980.2542, 967.4954
980.7363, 976.7333
981.2184, 964.6241
981.7005, 975.1147
982.1826, 950.5585
982.6647, 955.3271
983.1469, 956.9382
983.6290, 977.2930
984.1111, 952.9075
984.5932, 956.8615
985.0753, 972.8818
985.5574, 972.0184
986.0395, 978.2142
986.5216, 963.5119
987.0037, 968.4418
987.4858, 967.9603
987.9680, 986.1783
988.4501, 989.6338
988.9322, 975.2861
989.4143, 961.0137
989.8964, 980.5774
990.3785, 968.0709
990.8607, 972.8660
991.3428, 959.7922
991.8249, 962.1469
992.3070, 964.2568
992.7891, 974.2757
993.2712, 960.3124
993.7534, 977.4579
994.2355, 976.6233
994.7176, 981.0851
995.1997, 984.9576
995.6818, 964.7029
996.1639, 964.2267
996.6461, 992.0519
997.1282, 976.7162
997.6103, 970.0919
998.0924, 969.6602
998.5745, 998.4545
999.0566, 1000.083
999.5388, 969.2419
1000.021, 996.7484
1000.503, 988.3578
1000.985, 990.6345
1001.467, 989.0195
1001.949, 988.5564
1002.431, 973.4390
1002.914, 977.6343
1003.396, 997.5308
1003.878, 990.6572
1004.360, 1001.974
1004.842, 980.1399
1005.324, 977.9835
1005.806, 981.0504
1006.288, 986.0221
1006.771, 975.7741
1007.253, 995.9644
1007.735, 995.8873
1008.217, 978.2471
1008.699, 979.6592
1009.181, 977.9080
1009.663, 1009.089
1010.145, 994.9922
1010.627, 977.6888
1011.110, 996.2811
1011.592, 1003.367
1012.074, 994.8998
1012.556, 994.6971
1013.038, 978.8143
1013.520, 986.9777
1014.002, 986.8710
1014.484, 1000.390
1014.966, 984.5706
1015.449, 985.2092
1015.931, 971.3846
1016.413, 972.6377
1016.895, 986.6057
1017.377, 1000.585
1017.859, 1012.400
1018.341, 1018.703
1018.823, 1016.334
1019.306, 1008.346
1019.788, 1000.337
1020.270, 991.9916
1020.752, 990.8599
1021.234, 1001.754
1021.716, 1011.804
1022.198, 1000.222
1022.680, 980.9969
1023.162, 974.3363
1023.645, 992.0571
1024.127, 1005.379
1024.609, 1012.297
1025.091, 1014.566
1025.573, 1010.960
1026.055, 1003.135
1026.537, 1002.682
1027.019, 1009.401
1027.502, 1016.833
1027.984, 1025.964
1028.466, 1029.767
1028.948, 1017.058
1029.430, 993.0782
1029.912, 988.8654
1030.394, 1011.425
1030.876, 1026.678
1031.359, 1022.952
1031.841, 1011.665
1032.323, 1010.331
1032.805, 1015.446
1033.287, 1020.164
1033.769, 1023.502
1034.251, 1024.067
1034.733, 1017.161
1035.215, 1011.602
1035.698, 1016.603
1036.180, 1032.272
1036.662, 1040.844
1037.144, 1041.761
1037.626, 1038.587
1038.108, 1029.385
1038.590, 1021.091
1039.072, 1021.818
1039.554, 1030.830
1040.037, 1032.536
1040.519, 1021.567
1041.001, 1015.170
1041.483, 1021.223
1041.965, 1031.459
1042.447, 1027.049
1042.929, 1013.078
1043.411, 1003.080
1043.894, 1000.031
1044.376, 1004.325
1044.858, 1026.664
1045.340, 1049.006
1045.822, 1052.470
1046.304, 1034.481
1046.786, 1025.311
1047.268, 1026.536
1047.750, 1028.190
1048.233, 1017.709
1048.715, 1006.495
1049.197, 1008.709
1049.679, 1023.880
1050.161, 1034.745
1050.643, 1038.261
1051.125, 1039.920
1051.607, 1041.802
1052.089, 1042.192
1052.572, 1033.573
1053.054, 1019.830
1053.536, 1014.049
1054.018, 1025.836
1054.500, 1035.514
1054.982, 1029.540
1055.464, 1019.924
1055.946, 1019.873
1056.429, 1032.652
1056.911, 1032.975
1057.393, 1019.296
1057.875, 1006.694
1058.357, 1008.687
1058.839, 1017.302
1059.321, 1025.857
1059.803, 1033.564
1060.286, 1037.029
1060.768, 1035.364
1061.250, 1030.080
1061.732, 1019.328
1062.214, 1007.845
1062.696, 1006.760
1063.178, 1013.630
1063.660, 1020.116
1064.142, 1022.734
1064.625, 1027.670
1065.107, 1043.487
1065.589, 1058.783
1066.071, 1063.480
1066.553, 1056.109
1067.035, 1048.470
1067.517, 1040.538
1067.999, 1031.997
1068.481, 1018.506
1068.964, 1007.373
1069.446, 1009.345
1069.928, 1021.451
1070.410, 1029.328
1070.892, 1028.384
1071.374, 1027.792
1071.856, 1029.739
1072.338, 1031.866
1072.820, 1027.230
1073.303, 1019.642
1073.785, 1021.584
1074.267, 1039.304
1074.749, 1051.599
1075.231, 1040.299
1075.713, 1027.391
1076.195, 1028.707
1076.677, 1044.167
1077.160, 1049.927
1077.642, 1045.998
1078.124, 1041.939
1078.606, 1045.179
1079.088, 1049.480
1079.570, 1050.436
1080.052, 1048.136
1080.534, 1041.687
1081.016, 1023.979
1081.499, 1021.252
1081.981, 1040.933
1082.463, 1064.546
1082.945, 1068.398
1083.427, 1059.376
1083.909, 1048.873
1084.391, 1038.068
1084.873, 1032.860
1085.355, 1041.483
1085.838, 1050.227
1086.320, 1054.706
1086.802, 1054.400
1087.284, 1042.060
1087.766, 1019.909
1088.248, 1006.336
1088.730, 1013.677
1089.212, 1025.962
1089.695, 1036.536
1090.177, 1043.416
1090.659, 1043.268
1091.141, 1033.466
1091.623, 1025.806
1092.105, 1020.173
1092.587, 1019.542
1093.069, 1030.682
1093.552, 1045.964
1094.034, 1057.011
1094.516, 1063.094
1094.998, 1062.848
1095.480, 1050.524
1095.962, 1040.619
1096.444, 1036.466
1096.926, 1036.915
1097.408, 1042.461
1097.891, 1050.620
1098.373, 1052.737
1098.855, 1044.682
1099.337, 1036.322
1099.819, 1030.441
1100.301, 1027.751
1100.783, 1029.165
1101.265, 1034.799
1101.747, 1040.087
1102.230, 1045.025
1102.712, 1047.003
1103.194, 1041.268
1103.676, 1034.692
1104.158, 1030.062
1104.640, 1029.387
1105.122, 1039.976
1105.604, 1072.479
1106.087, 1080.500
1106.569, 1052.406
1107.051, 1019.773
1107.533, 1023.493
1108.015, 1046.446
1108.497, 1064.524
1108.979, 1074.971
1109.461, 1077.486
1109.943, 1066.145
1110.426, 1055.418
1110.908, 1050.307
1111.390, 1049.418
1111.872, 1050.531
1112.354, 1052.541
1112.836, 1050.663
1113.318, 1036.890
1113.800, 1030.671
1114.282, 1051.922
1114.765, 1076.434
1115.247, 1080.092
1115.729, 1060.806
1116.211, 1049.469
1116.693, 1046.424
1117.175, 1049.537
1117.657, 1065.353
1118.139, 1079.573
1118.622, 1078.903
1119.104, 1066.391
1119.586, 1055.505
1120.068, 1045.953
1120.550, 1040.596
1121.032, 1040.254
1121.514, 1043.068
1121.996, 1049.266
1122.479, 1055.934
1122.961, 1058.055
1123.443, 1054.118
1123.925, 1052.373
1124.407, 1054.270
1124.889, 1057.645
1125.371, 1062.599
1125.853, 1067.648
1126.335, 1067.714
1126.818, 1064.285
1127.300, 1061.818
1127.782, 1063.368
1128.264, 1064.008
1128.746, 1060.229
1129.228, 1056.827
1129.710, 1058.968
1130.192, 1066.194
1130.674, 1071.232
1131.157, 1073.697
1131.639, 1071.042
1132.121, 1049.625
1132.603, 1034.292
1133.085, 1049.648
1133.567, 1081.679
1134.049, 1090.483
1134.531, 1072.797
1135.014, 1063.522
1135.496, 1070.409
1135.978, 1078.916
1136.460, 1071.575
1136.942, 1059.433
1137.424, 1054.426
1137.906, 1059.089
1138.388, 1061.623
1138.870, 1061.233
1139.353, 1061.415
1139.835, 1064.349
1140.317, 1067.852
1140.799, 1067.935
1141.281, 1065.877
1141.763, 1064.192
1142.245, 1065.368
1142.727, 1062.988
1143.209, 1053.168
1143.692, 1046.144
1144.174, 1052.265
1144.656, 1067.564
1145.138, 1081.917
1145.620, 1094.107
1146.102, 1098.937
1146.584, 1088.889
1147.066, 1076.761
1147.549, 1062.101
1148.031, 1051.273
1148.513, 1061.037
1148.995, 1086.589
1149.477, 1094.538
1149.959, 1078.695
1150.441, 1064.369
1150.923, 1072.264
1151.406, 1083.503
1151.888, 1086.892
1152.370, 1083.184
1152.852, 1074.379
1153.334, 1060.603
1153.816, 1052.935
1154.298, 1057.781
1154.780, 1063.488
1155.262, 1054.317
1155.745, 1043.219
1156.227, 1048.474
1156.709, 1075.979
1157.191, 1084.632
1157.673, 1071.654
1158.155, 1060.511
1158.637, 1070.749
1159.119, 1087.208
1159.601, 1094.681
1160.084, 1094.428
1160.566, 1088.904
1161.048, 1073.743
1161.530, 1064.575
1162.012, 1062.950
1162.494, 1065.935
1162.976, 1072.160
1163.458, 1080.022
1163.941, 1089.968
1164.423, 1100.842
1164.905, 1100.609
1165.387, 1073.061
1165.869, 1056.720
1166.351, 1062.413
1166.833, 1079.147
1167.315, 1090.988
1167.797, 1098.272
1168.280, 1101.562
1168.762, 1100.480
1169.244, 1098.184
1169.726, 1095.102
1170.208, 1091.537
1170.690, 1086.884
1171.172, 1082.228
1171.654, 1083.059
1172.136, 1087.733
1172.619, 1089.940
1173.101, 1086.731
1173.583, 1081.515
1174.065, 1068.530
1174.547, 1060.333
1175.029, 1071.774
1175.511, 1101.176
1175.993, 1107.837
1176.476, 1093.617
1176.958, 1080.031
1177.440, 1080.590
1177.922, 1084.784
1178.404, 1089.856
1178.886, 1094.031
1179.368, 1094.421
1179.850, 1090.949
1180.333, 1087.516
1180.815, 1084.499
1181.297, 1081.079
1181.779, 1072.499
1182.261, 1066.917
1182.743, 1074.686
1183.225, 1091.011
1183.707, 1094.731
1184.189, 1084.401
1184.672, 1081.014
1185.154, 1091.494
1185.636, 1102.241
1186.118, 1096.908
1186.600, 1087.433
1187.082, 1087.146
1187.564, 1097.498
1188.046, 1101.829
1188.528, 1099.375
1189.011, 1096.224
1189.493, 1094.830
1189.975, 1094.138
1190.457, 1093.591
1190.939, 1092.706
1191.421, 1090.055
1191.903, 1082.196
1192.385, 1083.873
1192.868, 1096.715
1193.350, 1111.129
1193.832, 1122.815
1194.314, 1130.677
1194.796, 1132.889
1195.278, 1130.059
1195.760, 1123.056
1196.242, 1107.542
1196.724, 1098.654
1197.207, 1098.443
1197.689, 1101.202
1198.171, 1100.831
1198.653, 1100.009
1199.135, 1105.536
1199.617, 1115.839
1200.099, 1116.623
1200.581, 1097.554
1201.063, 1085.923
1201.546, 1087.525
1202.028, 1095.801
1202.510, 1105.157
1202.992, 1113.101
1203.474, 1114.130
1203.956, 1107.020
1204.438, 1103.028
1204.920, 1104.759
1205.403, 1108.197
1205.885, 1112.751
1206.367, 1117.282
1206.849, 1119.883
1207.331, 1120.551
1207.813, 1118.387
1208.295, 1111.082
1208.777, 1108.922
1209.260, 1116.107
1209.742, 1122.627
1210.224, 1121.713
1210.706, 1117.487
1211.188, 1124.990
1211.670, 1137.653
1212.152, 1137.767
1212.634, 1100.157
1213.116, 1083.433
1213.599, 1102.282
1214.081, 1127.187
1214.563, 1136.478
1215.045, 1133.202
1215.527, 1120.605
1216.009, 1102.445
1216.491, 1093.086
1216.973, 1108.628
1217.455, 1119.364
1217.938, 1119.355
1218.420, 1114.897
1218.902, 1111.033
1219.384, 1108.878
1219.866, 1114.716
1220.348, 1127.423
1220.830, 1133.136
1221.312, 1120.371
1221.795, 1106.398
1222.277, 1091.640
1222.759, 1082.722
1223.241, 1098.224
1223.723, 1127.124
1224.205, 1137.860
1224.687, 1125.258
1225.169, 1113.052
1225.651, 1105.766
1226.134, 1107.092
1226.616, 1122.318
1227.098, 1142.291
1227.580, 1145.250
1228.062, 1136.282
1228.544, 1129.100
1229.026, 1127.310
1229.508, 1124.559
1229.990, 1117.282
1230.473, 1110.681
1230.955, 1105.059
1231.437, 1103.314
1231.919, 1121.035
1232.401, 1149.261
1232.883, 1162.469
1233.365, 1143.326
1233.847, 1129.910
1234.329, 1132.001
1234.812, 1137.782
1235.294, 1141.233
1235.776, 1141.970
1236.258, 1136.928
1236.740, 1127.955
1237.222, 1121.081
1237.704, 1115.171
1238.186, 1117.960
1238.669, 1135.385
1239.151, 1151.775
1239.633, 1150.358
1240.115, 1137.594
1240.597, 1130.386
1241.079, 1128.070
1241.561, 1125.502
1242.043, 1117.690
1242.526, 1114.004
1243.008, 1115.433
1243.490, 1121.735
1243.972, 1137.417
1244.454, 1156.165
1244.936, 1161.749
1245.418, 1154.956
1245.900, 1149.678
1246.382, 1156.440
1246.865, 1154.163
1247.347, 1135.120
1247.829, 1114.963
1248.311, 1117.962
1248.793, 1134.097
1249.275, 1147.144
1249.757, 1155.256
1250.239, 1153.906
1250.721, 1134.412
1251.204, 1123.399
1251.686, 1129.215
1252.168, 1142.536
1252.650, 1152.767
1253.132, 1158.795
1253.614, 1154.738
1254.096, 1137.523
1254.578, 1140.516
1255.061, 1176.429
1255.543, 1201.565
1256.025, 1197.243
1256.507, 1180.915
1256.989, 1178.874
1257.471, 1182.884
1257.953, 1178.489
1258.435, 1158.116
1258.917, 1158.255
1259.400, 1186.764
1259.882, 1204.202
1260.364, 1185.219
1260.846, 1156.950
1261.328, 1155.465
1261.810, 1168.461
1262.292, 1177.708
1262.774, 1179.527
1263.256, 1183.419
1263.739, 1190.077
1264.221, 1194.210
1264.703, 1191.576
1265.185, 1186.193
1265.667, 1181.189
1266.149, 1176.633
1266.631, 1172.964
1267.113, 1171.275
1267.596, 1163.795
1268.078, 1149.660
1268.560, 1142.325
1269.042, 1159.164
1269.524, 1178.057
1270.006, 1182.713
1270.488, 1176.661
1270.970, 1165.909
1271.453, 1148.533
1271.935, 1145.345
1272.417, 1156.975
1272.899, 1171.051
1273.381, 1185.940
1273.863, 1192.994
##END=



