##NAMES=Valentinite
##RRUFFID=R050389
##IDEAL CHEMISTRY=Sb^3+^_2_O_3_
##LOCALITY=Bohemia Region, Pribram, Czech Republic
##OWNER=RRUFF
##SOURCE=University of Arizona Mineral Museum
##DESCRIPTION=Colorless prismatic parallel crystals
##STATUS=The identification of this mineral has been confirmed by X-ray diffraction and chemical analysis
##URL=rruff.info/R050389
##MEASURED CHEMISTRY=Sb_2.00_O_3_
94.93402, 292.4099
95.41614, 293.6373
95.89825, 292.2577
96.38037, 290.5133
96.86249, 288.4038
97.34460, 286.0854
97.82672, 283.5762
98.30884, 281.4351
98.79095, 280.0560
99.27307, 278.7687
99.75519, 276.7021
100.2373, 274.0216
100.7194, 271.2869
101.2015, 269.9277
101.6837, 270.1042
102.1658, 271.1755
102.6479, 272.7149
103.1300, 274.6862
103.6121, 277.1301
104.0942, 279.9843
104.5764, 283.2856
105.0585, 287.2914
105.5406, 292.4642
106.0227, 298.4461
106.5048, 304.3665
106.9869, 311.3952
107.4691, 316.3149
107.9512, 318.1360
108.4333, 317.0535
108.9154, 313.5760
109.3975, 307.5253
109.8796, 298.3659
110.3618, 290.0435
110.8439, 281.5687
111.3260, 274.6093
111.8081, 270.2110
112.2902, 268.3857
112.7723, 268.2610
113.2545, 268.5961
113.7366, 268.7248
114.2187, 270.9142
114.7008, 274.8593
115.1829, 280.7581
115.6650, 288.4887
116.1472, 298.0068
116.6293, 309.8526
117.1114, 325.8021
117.5935, 345.9959
118.0756, 368.8715
118.5577, 393.8385
119.0399, 421.2044
119.5220, 452.5512
120.0041, 489.7189
120.4862, 530.3719
120.9683, 568.9758
121.4504, 606.0771
121.9326, 640.3345
122.4147, 670.2642
122.8968, 695.7346
123.3789, 718.4269
123.8610, 736.7632
124.3431, 753.4333
124.8252, 770.4684
125.3074, 787.8214
125.7895, 806.6886
126.2716, 829.7679
126.7537, 858.0993
127.2358, 889.0632
127.7179, 922.1212
128.2001, 956.6377
128.6822, 992.1110
129.1643, 1027.908
129.6464, 1064.284
130.1285, 1102.549
130.6107, 1146.204
131.0928, 1188.790
131.5749, 1227.303
132.0570, 1263.121
132.5391, 1299.647
133.0212, 1339.413
133.5034, 1382.691
133.9855, 1429.740
134.4676, 1478.379
134.9497, 1531.477
135.4318, 1590.287
135.9139, 1654.918
136.3961, 1725.397
136.8782, 1800.818
137.3603, 1881.136
137.8424, 1972.662
138.3245, 2076.579
138.8066, 2191.397
139.2888, 2322.947
139.7709, 2478.187
140.2530, 2625.690
140.7351, 2735.804
141.2172, 2813.935
141.6993, 2835.970
142.1815, 2780.852
142.6636, 2658.458
143.1457, 2498.839
143.6278, 2284.746
144.1099, 2060.630
144.5920, 1856.632
145.0742, 1674.670
145.5563, 1514.041
146.0384, 1376.259
146.5205, 1262.645
147.0026, 1162.600
147.4847, 1081.130
147.9669, 1008.899
148.4490, 941.9362
148.9311, 879.5599
149.4132, 822.3143
149.8953, 771.8000
150.3774, 730.2909
150.8596, 691.0519
151.3417, 652.2808
151.8238, 615.7833
152.3059, 583.4122
152.7880, 555.9873
153.2701, 532.0380
153.7523, 508.2955
154.2344, 482.4953
154.7165, 459.9575
155.1986, 442.2407
155.6807, 427.4618
156.1628, 413.1588
156.6449, 398.0959
157.1271, 382.8930
157.6092, 370.3326
158.0913, 360.7332
158.5734, 352.6596
159.0555, 346.3300
159.5376, 341.3487
160.0198, 336.6454
160.5019, 331.5125
160.9840, 326.3504
161.4661, 322.4132
161.9482, 319.9011
162.4303, 318.2914
162.9125, 317.2931
163.3946, 316.9031
163.8767, 317.1744
164.3588, 318.2109
164.8409, 319.9864
165.3230, 322.4092
165.8052, 325.3135
166.2873, 329.0018
166.7694, 333.9608
167.2515, 340.4469
167.7336, 347.4283
168.2157, 354.8456
168.6979, 362.3397
169.1800, 369.4397
169.6621, 375.7027
170.1442, 381.6249
170.6263, 388.7473
171.1084, 397.9395
171.5906, 406.9881
172.0727, 415.3251
172.5548, 423.0912
173.0369, 430.3441
173.5190, 436.8726
174.0011, 442.9462
174.4833, 450.8412
174.9654, 462.2865
175.4475, 474.0947
175.9296, 485.6580
176.4117, 497.0692
176.8938, 508.8065
177.3760, 521.2944
177.8581, 534.5751
178.3402, 546.9323
178.8223, 555.6626
179.3044, 566.1309
179.7865, 580.7323
180.2687, 598.8647
180.7508, 618.4028
181.2329, 637.5736
181.7150, 656.4169
182.1971, 675.1132
182.6792, 692.8505
183.1614, 711.0731
183.6435, 730.5488
184.1256, 751.2986
184.6077, 773.1476
185.0898, 796.2820
185.5719, 820.7533
186.0541, 844.2311
186.5362, 867.7468
187.0183, 889.5832
187.5004, 908.5930
187.9825, 924.7867
188.4646, 936.9996
188.9468, 943.8654
189.4289, 945.7172
189.9110, 942.6591
190.3931, 933.4312
190.8752, 919.6481
191.3573, 902.8394
191.8395, 881.9868
192.3216, 861.2402
192.8037, 842.2687
193.2858, 825.5895
193.7679, 813.2261
194.2500, 806.5815
194.7322, 805.0357
195.2143, 806.6000
195.6964, 811.4867
196.1785, 819.6232
196.6606, 831.0368
197.1427, 845.0759
197.6249, 860.2565
198.1070, 875.9161
198.5891, 892.0077
199.0712, 908.0168
199.5533, 923.2428
200.0354, 939.2538
200.5176, 955.7135
200.9997, 973.2072
201.4818, 992.7953
201.9639, 1015.073
202.4460, 1040.014
202.9281, 1068.043
203.4103, 1100.172
203.8924, 1134.591
204.3745, 1171.551
204.8566, 1210.619
205.3387, 1249.962
205.8208, 1287.520
206.3030, 1322.641
206.7851, 1364.008
207.2672, 1416.444
207.7493, 1469.926
208.2314, 1519.296
208.7135, 1565.520
209.1957, 1612.904
209.6778, 1665.310
210.1599, 1723.090
210.6420, 1783.266
211.1241, 1845.822
211.6062, 1909.969
212.0884, 1974.132
212.5705, 2038.781
213.0526, 2107.726
213.5347, 2186.167
214.0168, 2275.711
214.4989, 2355.267
214.9811, 2428.508
215.4632, 2490.375
215.9453, 2540.266
216.4274, 2577.303
216.9095, 2595.589
217.3916, 2588.772
217.8738, 2554.138
218.3559, 2508.208
218.8380, 2446.560
219.3201, 2376.348
219.8022, 2300.278
220.2843, 2218.590
220.7665, 2139.083
221.2486, 2067.477
221.7307, 2003.216
222.2128, 1946.047
222.6949, 1898.036
223.1770, 1855.957
223.6592, 1817.017
224.1413, 1781.218
224.6234, 1747.606
225.1055, 1717.673
225.5876, 1689.487
226.0697, 1659.490
226.5519, 1626.995
227.0340, 1592.188
227.5161, 1555.656
227.9982, 1517.718
228.4803, 1476.742
228.9624, 1429.630
229.4446, 1379.723
229.9267, 1330.401
230.4088, 1282.745
230.8909, 1236.974
231.3730, 1194.609
231.8551, 1157.211
232.3373, 1119.471
232.8194, 1076.540
233.3015, 1032.527
233.7836, 992.0112
234.2657, 956.9295
234.7478, 926.3275
235.2300, 898.1849
235.7121, 872.3470
236.1942, 849.3903
236.6763, 829.8140
237.1584, 812.5021
237.6405, 796.2162
238.1227, 780.3373
238.6048, 765.2352
239.0869, 751.9037
239.5690, 740.6410
240.0511, 730.7894
240.5332, 721.5845
241.0154, 713.7089
241.4975, 708.1662
241.9796, 705.3925
242.4617, 704.6190
242.9438, 703.9635
243.4259, 702.9861
243.9081, 702.9254
244.3902, 704.0963
244.8723, 706.0367
245.3544, 708.0831
245.8365, 710.0166
246.3186, 712.4683
246.8008, 717.0649
247.2829, 726.4026
247.7650, 734.1350
248.2471, 738.3505
248.7292, 741.7698
249.2113, 746.7186
249.6935, 754.0270
250.1756, 763.1878
250.6577, 773.2614
251.1398, 784.4580
251.6219, 796.3498
252.1040, 808.9773
252.5862, 822.1422
253.0683, 835.4733
253.5504, 848.8555
254.0325, 862.8951
254.5146, 878.6486
254.9967, 897.3441
255.4789, 915.5016
255.9610, 932.1068
256.4431, 948.6618
256.9252, 966.9967
257.4073, 987.4557
257.8894, 1008.236
258.3716, 1026.976
258.8537, 1042.881
259.3358, 1058.344
259.8179, 1074.839
260.3000, 1090.091
260.7821, 1101.103
261.2643, 1107.623
261.7464, 1113.432
262.2285, 1122.501
262.7106, 1135.524
263.1927, 1150.405
263.6748, 1168.966
264.1570, 1188.162
264.6391, 1204.135
265.1212, 1216.766
265.6033, 1231.010
266.0854, 1251.797
266.5675, 1279.598
267.0497, 1306.701
267.5318, 1330.446
268.0139, 1355.042
268.4960, 1384.547
268.9781, 1418.930
269.4602, 1454.117
269.9424, 1486.259
270.4245, 1516.401
270.9066, 1551.145
271.3887, 1593.981
271.8708, 1639.084
272.3529, 1681.247
272.8351, 1720.862
273.3172, 1762.263
273.7993, 1808.261
274.2814, 1858.531
274.7635, 1910.664
275.2456, 1965.861
275.7278, 2021.232
276.2099, 2073.230
276.6920, 2122.577
277.1741, 2175.404
277.6562, 2234.953
278.1383, 2299.776
278.6205, 2364.688
279.1026, 2430.010
279.5847, 2496.066
280.0668, 2563.382
280.5489, 2632.029
281.0310, 2700.787
281.5132, 2769.253
281.9953, 2837.635
282.4774, 2906.381
282.9595, 2975.867
283.4416, 3043.412
283.9237, 3106.131
284.4059, 3165.063
284.8880, 3225.753
285.3701, 3290.937
285.8522, 3355.807
286.3343, 3415.135
286.8164, 3469.179
287.2986, 3522.491
287.7807, 3579.588
288.2628, 3638.229
288.7449, 3689.632
289.2270, 3729.866
289.7091, 3767.862
290.1913, 3815.107
290.6734, 3867.882
291.1555, 3913.021
291.6376, 3941.708
292.1197, 3958.423
292.6018, 3975.091
293.0840, 3994.863
293.5661, 4007.591
294.0482, 4005.831
294.5303, 3993.035
295.0124, 3973.826
295.4945, 3949.622
295.9767, 3920.300
296.4588, 3886.589
296.9409, 3849.712
297.4230, 3803.991
297.9051, 3742.594
298.3872, 3671.366
298.8694, 3595.419
299.3515, 3515.359
299.8336, 3432.473
300.3157, 3348.621
300.7978, 3263.823
301.2799, 3174.797
301.7621, 3075.332
302.2442, 2973.054
302.7263, 2873.706
303.2084, 2778.090
303.6905, 2685.978
304.1726, 2596.984
304.6548, 2511.376
305.1369, 2426.950
305.6190, 2342.402
306.1011, 2259.198
306.5832, 2178.340
307.0653, 2099.948
307.5475, 2024.568
308.0296, 1953.211
308.5117, 1885.796
308.9938, 1819.403
309.4759, 1753.385
309.9580, 1689.161
310.4402, 1627.375
310.9223, 1568.108
311.4044, 1511.420
311.8865, 1457.526
312.3686, 1406.585
312.8507, 1358.407
313.3329, 1313.307
313.8150, 1270.709
314.2971, 1230.153
314.7792, 1191.221
315.2613, 1152.844
315.7434, 1113.677
316.2256, 1075.111
316.7077, 1040.847
317.1898, 1012.403
317.6719, 983.1759
318.1540, 946.9485
318.6361, 909.5669
319.1183, 877.9803
319.6004, 854.9471
320.0825, 835.9061
320.5646, 814.6201
321.0467, 790.5800
321.5288, 767.5552
322.0110, 747.2381
322.4931, 728.1685
322.9752, 709.3749
323.4573, 690.7788
323.9394, 672.7610
324.4215, 655.9318
324.9037, 640.3605
325.3858, 624.5091
325.8679, 607.5267
326.3500, 590.8972
326.8321, 575.5170
327.3142, 561.3448
327.7964, 548.1175
328.2785, 536.0037
328.7606, 524.8004
329.2427, 513.3483
329.7248, 501.3554
330.2069, 489.5766
330.6891, 478.3077
331.1712, 467.5569
331.6533, 457.3268
332.1354, 447.6421
332.6175, 438.4661
333.0996, 429.7223
333.5818, 421.3416
334.0639, 413.4873
334.5460, 406.7183
335.0281, 400.3788
335.5102, 393.6991
335.9923, 386.2480
336.4745, 378.8454
336.9566, 372.3528
337.4387, 366.8194
337.9208, 361.8135
338.4029, 357.6823
338.8850, 353.6793
339.3672, 348.9062
339.8493, 343.1983
340.3314, 337.8049
340.8135, 333.8265
341.2956, 331.0390
341.7777, 328.2809
342.2599, 325.4173
342.7420, 322.4308
343.2241, 319.3104
343.7062, 316.0594
344.1883, 312.7414
344.6704, 309.1851
345.1526, 305.6112
345.6347, 302.6294
346.1168, 300.4798
346.5989, 298.2567
347.0810, 294.7898
347.5631, 290.8445
348.0453, 287.8394
348.5274, 286.6224
349.0095, 286.0591
349.4916, 284.9393
349.9737, 283.2601
350.4558, 281.3847
350.9380, 279.4264
351.4201, 277.3983
351.9022, 275.3470
352.3843, 273.3022
352.8664, 271.1789
353.3485, 268.7863
353.8307, 266.2392
354.3128, 264.0229
354.7949, 262.3348
355.2770, 260.9077
355.7591, 259.5013
356.2412, 258.1330
356.7234, 256.4432
357.2055, 254.2317
357.6876, 251.6414
358.1697, 248.6697
358.6518, 245.2043
359.1339, 242.1617
359.6161, 240.6357
360.0982, 240.3400
360.5803, 239.7423
361.0624, 238.7665
361.5445, 237.3477
362.0266, 235.1290
362.5088, 232.2412
362.9909, 229.7343
363.4730, 228.3590
363.9551, 227.6778
364.4372, 226.2574
364.9193, 223.5932
365.4015, 221.1038
365.8836, 219.6156
366.3657, 218.6985
366.8478, 217.5483
367.3299, 215.9449
367.8120, 213.8472
368.2942, 210.8867
368.7763, 206.6224
369.2584, 203.4799
369.7405, 202.5910
370.2226, 202.5176
370.7047, 202.0215
371.1869, 200.9027
371.6690, 199.3106
372.1511, 197.2194
372.6332, 194.6032
373.1153, 192.7665
373.5974, 192.4165
374.0796, 192.0553
374.5617, 191.1581
375.0438, 189.6771
375.5259, 187.3641
376.0080, 183.9269
376.4901, 179.9663
376.9723, 177.6826
377.4544, 178.8236
377.9365, 179.3582
378.4186, 178.6249
378.9007, 177.1983
379.3828, 175.5162
379.8650, 173.7523
380.3471, 172.2049
380.8292, 171.3478
381.3113, 171.5553
381.7934, 171.3289
382.2755, 170.7152
382.7577, 169.6964
383.2398, 168.0580
383.7219, 165.9620
384.2040, 163.8820
384.6861, 162.2006
385.1682, 160.8905
385.6504, 159.5639
386.1325, 158.3093
386.6146, 156.9409
387.0967, 155.0298
387.5788, 153.1311
388.0609, 152.1354
388.5431, 152.4164
389.0252, 153.1709
389.5073, 152.6713
389.9894, 150.0177
390.4715, 147.9793
390.9536, 146.5439
391.4358, 145.7858
391.9179, 146.3052
392.4000, 147.8040
392.8821, 148.8775
393.3642, 147.8352
393.8463, 144.5734
394.3285, 142.6725
394.8106, 143.3632
395.2927, 144.0476
395.7748, 144.0408
396.2569, 143.3956
396.7390, 142.1502
397.2212, 140.1592
397.7033, 137.9332
398.1854, 136.6912
398.6675, 136.7093
399.1496, 136.8695
399.6317, 137.1613
400.1139, 137.2909
400.5960, 136.8419
401.0781, 135.7658
401.5602, 134.8078
402.0423, 135.0149
402.5244, 136.2133
403.0066, 136.3047
403.4887, 134.2734
403.9708, 132.2275
404.4529, 131.8138
404.9350, 132.5694
405.4171, 133.2089
405.8993, 133.1214
406.3814, 132.6339
406.8635, 132.2545
407.3456, 131.9998
407.8277, 131.6811
408.3098, 131.0754
408.7920, 130.4125
409.2741, 130.1197
409.7562, 130.3849
410.2383, 130.5843
410.7204, 130.1294
411.2025, 129.2950
411.6847, 128.8061
412.1668, 128.7709
412.6489, 129.3441
413.1310, 131.1834
413.6131, 134.2679
414.0952, 136.3849
414.5774, 136.4294
415.0595, 135.8360
415.5416, 135.8198
416.0237, 136.4367
416.5058, 137.3698
416.9879, 138.5482
417.4701, 139.8294
417.9522, 140.4422
418.4343, 139.7339
418.9164, 139.2570
419.3985, 139.3822
419.8806, 140.0096
420.3628, 141.0554
420.8449, 142.4904
421.3270, 144.1576
421.8091, 145.8187
422.2912, 147.3754
422.7733, 149.2278
423.2555, 151.5099
423.7376, 153.9360
424.2197, 156.4419
424.7018, 158.9406
425.1839, 161.2834
425.6660, 163.3778
426.1482, 165.2049
426.6303, 166.6649
427.1124, 166.8245
427.5945, 167.7867
428.0766, 170.7294
428.5587, 174.1103
429.0409, 176.0008
429.5230, 175.9516
430.0051, 175.7196
430.4872, 178.2588
430.9693, 184.6965
431.4514, 189.1328
431.9336, 189.3014
432.4157, 189.2834
432.8978, 190.7299
433.3799, 193.3292
433.8620, 195.9699
434.3441, 197.8556
434.8263, 199.3776
435.3084, 201.8292
435.7905, 205.7001
436.2726, 209.1150
436.7547, 211.0139
437.2368, 212.3719
437.7190, 213.9804
438.2011, 215.9916
438.6832, 218.1530
439.1653, 220.3792
439.6474, 222.6103
440.1295, 224.5831
440.6117, 226.3293
441.0938, 227.6476
441.5759, 227.8241
442.0580, 227.3297
442.5401, 227.7266
443.0222, 230.5246
443.5044, 233.6602
443.9865, 235.2286
444.4686, 235.2693
444.9507, 234.1749
445.4328, 231.7883
445.9149, 228.7044
446.3971, 226.3772
446.8792, 225.1678
447.3613, 223.5648
447.8434, 220.8338
448.3255, 217.6367
448.8076, 214.7438
449.2898, 212.2820
449.7719, 210.0659
450.2540, 207.9690
450.7361, 205.9975
451.2182, 203.7933
451.7003, 200.5730
452.1825, 198.0031
452.6646, 197.2608
453.1467, 197.4455
453.6288, 196.9139
454.1109, 194.9409
454.5930, 192.3971
455.0752, 191.0786
455.5573, 191.9835
456.0394, 192.1730
456.5215, 190.8852
457.0036, 189.6483
457.4857, 189.2609
457.9679, 189.7540
458.4500, 190.8690
458.9321, 192.5560
459.4142, 194.6475
459.8963, 196.0666
460.3784, 196.0632
460.8606, 196.7433
461.3427, 198.8389
461.8248, 201.7012
462.3069, 204.8435
462.7890, 208.1420
463.2711, 211.3994
463.7532, 214.1598
464.2354, 216.5182
464.7175, 219.5838
465.1996, 223.4705
465.6817, 228.1429
466.1638, 233.7054
466.6459, 239.9725
467.1281, 246.5534
467.6102, 253.3009
468.0923, 260.2968
468.5744, 267.4402
469.0565, 274.8246
469.5386, 282.7938
470.0208, 291.3835
470.5029, 300.7742
470.9850, 311.5269
471.4671, 323.9833
471.9492, 335.7846
472.4313, 345.7659
472.9135, 355.1887
473.3956, 365.3350
473.8777, 376.3189
474.3598, 387.8284
474.8419, 399.6105
475.3240, 411.6841
475.8062, 423.9670
476.2883, 434.9138
476.7704, 447.9766
477.2525, 464.9460
477.7346, 483.9228
478.2167, 502.4392
478.6989, 519.9650
479.1810, 537.6894
479.6631, 557.6284
480.1452, 580.3182
480.6273, 601.8476
481.1094, 619.3514
481.5916, 638.5480
482.0737, 661.8569
482.5558, 688.0785
483.0379, 715.0685
483.5200, 741.9481
484.0021, 769.0042
484.4843, 796.9999
484.9664, 826.3319
485.4485, 855.3473
485.9306, 884.8026
486.4127, 912.8333
486.8948, 938.6893
487.3770, 962.2389
487.8591, 982.6991
488.3412, 999.5891
488.8233, 1013.061
489.3054, 1022.833
489.7875, 1028.645
490.2697, 1032.886
490.7518, 1036.353
491.2339, 1039.078
491.7160, 1041.177
492.1981, 1042.247
492.6802, 1043.831
493.1624, 1046.723
493.6445, 1050.459
494.1266, 1053.555
494.6087, 1055.875
495.0908, 1060.698
495.5729, 1071.792
496.0551, 1089.018
496.5372, 1102.403
497.0193, 1109.605
497.5014, 1116.304
497.9835, 1124.431
498.4656, 1133.066
498.9478, 1141.414
499.4299, 1149.063
499.9120, 1154.896
500.3941, 1157.346
500.8762, 1156.386
501.3583, 1152.098
501.8405, 1144.050
502.3226, 1133.099
502.8047, 1118.849
503.2868, 1101.949
503.7689, 1083.587
504.2510, 1064.155
504.7332, 1043.825
505.2153, 1023.362
505.6974, 1003.192
506.1795, 979.8400
506.6616, 950.3942
507.1437, 919.6320
507.6259, 891.3889
508.1080, 865.0923
508.5901, 838.4069
509.0722, 809.0451
509.5543, 779.1879
510.0364, 751.5123
510.5186, 726.0892
511.0007, 702.9950
511.4828, 683.0808
511.9649, 664.9465
512.4470, 645.5772
512.9291, 624.3574
513.4113, 604.0897
513.8934, 585.7434
514.3755, 568.6749
514.8576, 552.6483
515.3397, 537.4235
515.8218, 522.2931
516.3040, 506.3840
516.7861, 490.1465
517.2682, 477.0806
517.7503, 470.5345
518.2324, 463.0775
518.7145, 454.0556
519.1967, 443.7489
519.6788, 431.7903
520.1609, 418.4987
520.6430, 405.4852
521.1251, 394.3743
521.6072, 385.0741
522.0894, 376.4440
522.5715, 368.3832
523.0536, 361.1811
523.5357, 355.2586
524.0178, 349.9694
524.4999, 344.6203
524.9821, 339.0326
525.4642, 333.3238
525.9463, 327.5615
526.4284, 321.7667
526.9105, 315.8166
527.3926, 309.6838
527.8748, 303.5447
528.3569, 297.4477
528.8390, 291.4465
529.3211, 285.6440
529.8032, 280.1796
530.2853, 274.7977
530.7675, 269.2292
531.2496, 263.6887
531.7317, 258.6830
532.2138, 254.3433
532.6959, 250.2404
533.1780, 245.8155
533.6602, 240.9144
534.1423, 236.6378
534.6244, 233.7578
535.1065, 230.5308
535.5886, 225.9098
536.0707, 220.6406
536.5529, 215.8812
537.0350, 212.1198
537.5171, 208.9508
537.9992, 205.8731
538.4813, 202.9386
538.9634, 199.8483
539.4456, 196.4336
539.9277, 193.0488
540.4098, 189.6995
540.8919, 186.5408
541.3740, 183.9327
541.8561, 182.2113
542.3383, 180.6814
542.8204, 178.4122
543.3025, 175.4928
543.7846, 172.7432
544.2667, 170.2897
544.7488, 168.2155
545.2310, 166.8951
545.7131, 166.2157
546.1952, 165.0072
546.6773, 162.4997
547.1594, 159.9745
547.6415, 158.3028
548.1237, 157.2814
548.6058, 156.3708
549.0879, 155.3708
549.5700, 154.2427
550.0521, 152.8900
550.5342, 151.1551
551.0164, 149.7054
551.4985, 148.6347
551.9806, 147.7159
552.4627, 146.8949
552.9448, 146.1372
553.4269, 145.4014
553.9091, 144.6688
554.3912, 143.9351
554.8733, 142.9875
555.3554, 141.6395
555.8375, 141.4361
556.3196, 143.7272
556.8018, 145.8733
557.2839, 145.9951
557.7660, 144.6544
558.2481, 143.4363
558.7302, 142.9509
559.2123, 142.7662
559.6945, 142.3946
560.1766, 141.9267
560.6587, 141.8183
561.1408, 142.2641
561.6229, 142.9280
562.1050, 143.4009
562.5872, 143.6420
563.0693, 143.9651
563.5514, 144.5444
564.0335, 145.0334
564.5156, 144.8506
564.9977, 144.5336
565.4799, 145.2664
565.9620, 147.4902
566.4441, 150.1361
566.9262, 151.3967
567.4083, 150.7940
567.8904, 150.7450
568.3726, 151.5953
568.8547, 152.6779
569.3368, 154.0183
569.8189, 155.3790
570.3010, 156.2519
570.7831, 156.3333
571.2653, 156.5421
571.7474, 158.1406
572.2295, 160.9555
572.7116, 163.6181
573.1937, 165.8394
573.6758, 168.0263
574.1580, 170.4845
574.6401, 173.1868
575.1222, 176.0417
575.6043, 179.0546
576.0864, 182.2013
576.5685, 185.5664
577.0507, 189.0055
577.5328, 192.2195
578.0149, 195.1499
578.4970, 198.0993
578.9791, 201.4323
579.4612, 205.1772
579.9434, 208.5959
580.4255, 211.1001
580.9076, 213.9735
581.3897, 217.6307
581.8718, 221.7132
582.3539, 225.8109
582.8361, 229.8497
583.3182, 233.9918
583.8003, 238.5722
584.2824, 243.4953
584.7645, 247.8305
585.2466, 251.2438
585.7288, 255.0830
586.2109, 260.4322
586.6930, 266.4269
587.1751, 271.7507
587.6572, 276.2198
588.1393, 280.4261
588.6215, 284.3432
589.1036, 288.3031
589.5857, 292.7034
590.0678, 297.5868
590.5499, 302.8653
591.0320, 308.5793
591.5142, 314.5478
591.9963, 320.0408
592.4784, 325.8664
592.9605, 329.9104
593.4426, 330.7663
593.9247, 331.0086
594.4069, 332.9315
594.8890, 335.9615
595.3711, 337.5950
595.8532, 335.8920
596.3353, 332.4343
596.8174, 331.3995
597.2996, 333.5236
597.7817, 333.8161
598.2638, 330.5198
598.7459, 325.6694
599.2280, 320.8335
599.7101, 316.0211
600.1923, 311.2263
600.6744, 306.6235
601.1565, 301.8917
601.6386, 296.4673
602.1207, 290.6591
602.6028, 285.4431
603.0850, 281.1974
603.5671, 277.2407
604.0492, 272.6674
604.5313, 267.3050
605.0134, 262.4067
605.4955, 258.5361
605.9777, 254.4032
606.4598, 249.2143
606.9419, 243.6829
607.4240, 238.8604
607.9061, 235.0240
608.3882, 231.5239
608.8704, 227.6219
609.3525, 223.3736
609.8346, 219.5962
610.3167, 216.8312
610.7988, 213.2216
611.2809, 206.8343
611.7631, 199.5193
612.2452, 193.9589
612.7273, 190.7892
613.2094, 187.4341
613.6915, 181.9690
614.1736, 176.0851
614.6558, 172.6045
615.1379, 171.2295
615.6200, 168.6366
616.1021, 162.6041
616.5842, 154.5575
617.0663, 148.6856
617.5485, 146.7874
618.0306, 143.9781
618.5127, 139.6718
618.9948, 135.0882
619.4769, 130.6909
619.9590, 126.6056
620.4412, 123.0009
620.9233, 119.9766
621.4054, 117.3187
621.8875, 114.5892
622.3696, 111.8027
622.8517, 109.7075
623.3339, 108.8204
623.8160, 107.9008
624.2981, 105.7144
624.7802, 102.6445
625.2623, 99.93260
625.7444, 97.85211
626.2266, 95.98534
626.7087, 94.19898
627.1908, 92.47498
627.6729, 90.66853
628.1550, 88.80869
628.6371, 87.32451
629.1193, 86.65382
629.6014, 86.67117
630.0835, 86.36909
630.5656, 85.62433
631.0477, 84.74650
631.5298, 83.66236
632.0120, 82.57523
632.4941, 81.56875
632.9762, 80.68601
633.4583, 80.03831
633.9404, 79.93349
634.4225, 79.89821
634.9047, 78.97559
635.3868, 77.25204
635.8689, 75.94579
636.3510, 75.52695
636.8331, 75.42440
637.3152, 74.80864
637.7974, 73.57271
638.2795, 73.33272
638.7616, 75.41370
639.2437, 77.03850
639.7258, 76.71171
640.2079, 75.37006
640.6901, 74.25714
641.1722, 73.73634
641.6543, 73.60132
642.1364, 73.72547
642.6185, 74.06868
643.1006, 74.02940
643.5828, 73.30329
644.0649, 72.86980
644.5470, 73.28424
645.0291, 74.02144
645.5112, 74.69179
645.9933, 75.26099
646.4755, 75.69107
646.9576, 75.96108
647.4397, 76.08441
647.9218, 75.97319
648.4039, 75.70480
648.8860, 75.57625
649.3682, 75.70699
649.8503, 76.01192
650.3324, 76.29170
650.8145, 76.33626
651.2966, 77.35109
651.7787, 80.83932
652.2609, 83.52195
652.7430, 83.77396
653.2251, 82.93913
653.7072, 82.72076
654.1893, 83.55104
654.6714, 84.65358
655.1536, 84.98750
655.6357, 85.00748
656.1178, 86.57793
656.5999, 89.96698
657.0820, 92.97934
657.5641, 94.43382
658.0463, 95.08190
658.5284, 96.02382
659.0105, 96.86665
659.4926, 99.62124
659.9747, 107.5008
660.4568, 114.5919
660.9390, 116.1230
661.4211, 114.1656
661.9032, 113.1228
662.3853, 114.7476
662.8674, 117.8735
663.3495, 120.9452
663.8317, 123.9342
664.3138, 127.4939
664.7959, 132.0681
665.2780, 136.3936
665.7601, 139.6189
666.2422, 142.4542
666.7244, 145.6439
667.2065, 149.2727
667.6886, 153.2432
668.1707, 157.5341
668.6528, 162.1278
669.1349, 166.9624
669.6171, 172.0713
670.0992, 177.8018
670.5813, 184.3658
671.0634, 190.9491
671.5455, 196.0752
672.0276, 199.2570
672.5098, 202.7201
672.9919, 206.4434
673.4740, 210.4790
673.9561, 214.8340
674.4382, 219.4857
674.9203, 224.4513
675.4025, 229.7123
675.8846, 235.2132
676.3667, 241.1984
676.8488, 247.2743
677.3309, 252.5485
677.8130, 256.9789
678.2952, 261.2991
678.7773, 266.0772
679.2594, 270.5687
679.7415, 273.4225
680.2236, 274.1534
680.7057, 274.5714
681.1879, 274.6489
681.6700, 274.4520
682.1521, 274.4353
682.6342, 274.0043
683.1163, 272.2735
683.5984, 268.9763
684.0806, 264.6577
684.5627, 259.4413
685.0448, 253.5888
685.5269, 248.8397
686.0090, 245.6169
686.4911, 241.1197
686.9733, 233.5050
687.4554, 224.5547
687.9375, 217.3107
688.4196, 212.0147
688.9017, 206.0056
689.3839, 198.1134
689.8660, 190.1963
690.3481, 183.4027
690.8302, 177.3662
691.3123, 171.2322
691.7944, 164.7689
692.2766, 158.5769
692.7587, 153.3974
693.2408, 149.1464
693.7229, 144.7840
694.2050, 140.2286
694.6871, 135.6803
695.1693, 131.0915
695.6514, 126.6115
696.1335, 122.2577
696.6156, 118.0322
697.0977, 114.3778
697.5798, 111.6878
698.0620, 109.3425
698.5441, 107.0804
699.0262, 104.7713
699.5083, 102.0398
699.9904, 98.83585
700.4725, 95.87958
700.9547, 94.06264
701.4368, 93.27898
701.9189, 91.77334
702.4010, 89.00024
702.8831, 86.59889
703.3652, 85.35991
703.8474, 84.34692
704.3295, 82.83604
704.8116, 80.87520
705.2937, 79.00533
705.7758, 77.36882
706.2579, 75.98508
706.7401, 74.96185
707.2222, 74.17943
707.7043, 73.38335
708.1864, 72.51013
708.6685, 71.58290
709.1506, 70.66517
709.6328, 69.69713
710.1149, 68.14436
710.5970, 65.17624
711.0791, 63.17454
711.5612, 63.34792
712.0433, 63.73396
712.5255, 62.93612
713.0076, 61.28054
713.4897, 60.01865
713.9718, 59.77819
714.4539, 59.80935
714.9360, 59.58342
715.4182, 59.09953
715.9003, 58.18463
716.3824, 56.85423
716.8645, 55.83644
717.3466, 55.73962
717.8287, 56.25129
718.3109, 56.21889
718.7930, 55.51605
719.2751, 54.49010
719.7572, 52.51485
720.2393, 50.87697
720.7214, 50.60825
721.2036, 51.06273
721.6857, 50.91793
722.1678, 49.65470
722.6499, 48.22036
723.1320, 47.38456
723.6141, 46.94810
724.0963, 46.53097
724.5784, 46.09830
725.0605, 45.77126
725.5426, 45.66048
726.0247, 45.54742
726.5068, 44.91369
726.9890, 43.35567
727.4711, 42.51590
727.9532, 43.19691
728.4353, 43.66776
728.9174, 43.13086
729.3995, 42.16301
729.8817, 41.56515
730.3638, 41.49955
730.8459, 41.41084
731.3280, 40.81189
731.8101, 39.99176
732.2922, 39.47995
732.7744, 39.22269
733.2565, 38.69767
733.7386, 37.64965
734.2207, 36.74921
734.7028, 36.97431
735.1849, 38.45258
735.6671, 39.12098
736.1492, 38.27098
736.6313, 37.49511
737.1134, 36.86525
737.5955, 36.53914
738.0776, 36.97800
738.5598, 37.95696
739.0419, 38.31799
739.5240, 37.01027
740.0061, 35.36866
740.4882, 35.01081
740.9703, 35.59239
741.4525, 36.11663
741.9346, 36.37335
742.4167, 36.48646
742.8988, 36.56661
743.3809, 36.57957
743.8630, 36.36238
744.3452, 35.97430
744.8273, 35.23536
745.3094, 33.50970
745.7915, 32.06751
746.2736, 31.88613
746.7557, 32.43974
747.2379, 32.51099
747.7200, 31.56645
748.2021, 30.76117
748.6842, 31.32965
749.1663, 32.46935
749.6484, 32.70979
750.1306, 32.05583
750.6127, 31.42293
751.0948, 31.28000
751.5769, 31.39641
752.0590, 31.35557
752.5411, 31.10905
753.0233, 30.92699
753.5054, 30.68267
753.9875, 30.68420
754.4696, 31.32149
754.9517, 32.05660
755.4338, 32.30651
755.9160, 32.01242
756.3981, 31.53183
756.8802, 30.89728
757.3623, 30.26258
757.8444, 29.78356
758.3265, 29.42206
758.8087, 29.04969
759.2908, 28.64625
759.7729, 28.37703
760.2550, 28.42378
760.7371, 28.73571
761.2192, 28.99862
761.7014, 29.19733
762.1835, 29.39172
762.6656, 29.62196
763.1477, 29.81682
763.6298, 30.03574
764.1119, 30.18348
764.5941, 29.94801
765.0762, 28.96482
765.5583, 28.21015
766.0404, 28.37228
766.5225, 28.86653
767.0046, 29.19186
767.4868, 29.23005
767.9689, 28.75140
768.4510, 27.61731
768.9331, 26.42140
769.4152, 26.28478
769.8973, 27.25879
770.3795, 27.83324
770.8616, 27.81302
771.3437, 27.86770
771.8258, 28.53148
772.3079, 29.24544
772.7900, 29.03028
773.2722, 27.78300
773.7543, 27.00846
774.2364, 27.32158
774.7185, 27.73911
775.2006, 27.76820
775.6827, 27.60445
776.1649, 27.55138
776.6470, 27.64269
777.1291, 27.69559
777.6112, 27.60230
778.0933, 27.32539
778.5754, 26.60269
779.0576, 25.46548
779.5397, 24.90155
780.0218, 25.19727
780.5039, 25.74396
780.9860, 26.12936
781.4681, 26.36909
781.9503, 26.53369
782.4324, 26.57544
782.9145, 26.62272
783.3966, 26.86653
783.8787, 26.93262
784.3608, 26.43982
784.8430, 25.66847
785.3251, 25.13612
785.8072, 25.00650
786.2893, 24.96665
786.7714, 24.72745
787.2535, 24.40803
787.7357, 24.25766
788.2178, 24.25609
788.6999, 24.11639
789.1820, 23.69401
789.6641, 23.50859
790.1462, 24.33201
790.6284, 26.15598
791.1105, 27.00481
791.5926, 26.35175
792.0747, 25.59704
792.5568, 24.75924
793.0389, 24.09212
793.5211, 23.83892
794.0032, 23.91684
794.4853, 24.04799
794.9674, 24.21805
795.4495, 24.28957
795.9316, 24.03944
796.4138, 23.72074
796.8959, 23.78450
797.3780, 24.13443
797.8601, 24.16813
798.3422, 23.56059
798.8243, 22.79045
799.3065, 22.71267
799.7886, 23.35738
800.2707, 23.76862
800.7528, 23.87461
801.2349, 23.95934
801.7170, 24.20971
802.1992, 24.42719
802.6813, 24.24082
803.1634, 23.64703
803.6455, 23.31264
804.1276, 23.47690
804.6097, 23.69335
805.0919, 23.89813
805.5740, 24.00854
806.0561, 23.92482
806.5382, 23.66362
807.0203, 23.29996
807.5024, 22.82861
807.9846, 22.42799
808.4667, 22.47569
808.9488, 22.81866
809.4309, 22.75111
809.9130, 22.18203
810.3951, 21.82854
810.8773, 22.14603
811.3594, 22.82569
811.8415, 23.26625
812.3236, 23.47956
812.8057, 23.40808
813.2878, 22.70399
813.7700, 22.14749
814.2521, 22.03952
814.7342, 22.11314
815.2163, 22.09482
815.6984, 21.97073
816.1805, 21.90145
816.6627, 21.93125
817.1448, 22.06048
817.6269, 22.34716
818.1090, 22.70822
818.5911, 23.09703
819.0732, 23.44800
819.5554, 23.48782
820.0375, 22.99319
820.5196, 22.32116
821.0017, 22.31873
821.4838, 23.01440
821.9659, 23.31507
822.4481, 23.07527
822.9302, 22.65565
823.4123, 22.14388
823.8944, 21.63695
824.3765, 21.25426
824.8586, 20.93855
825.3408, 21.05990
825.8229, 22.17470
826.3050, 23.06866
826.7871, 23.17529
827.2692, 22.95966
827.7513, 22.99562
828.2335, 23.24946
828.7156, 23.16214
829.1977, 22.24916
829.6798, 21.21338
830.1619, 20.78711
830.6440, 20.86056
831.1262, 21.37426
831.6083, 22.22668
832.0904, 22.68719
832.5725, 22.29201
833.0546, 21.51726
833.5367, 21.36582
834.0188, 21.99623
834.5009, 22.10195
834.9830, 21.41220
835.4651, 20.73781
835.9473, 20.29107
836.4294, 20.06727
836.9115, 20.11658
837.3936, 20.42222
837.8757, 20.64228
838.3578, 20.73395
838.8400, 20.71914
839.3221, 20.52970
839.8042, 20.29354
840.2863, 20.04193
840.7684, 19.86222
841.2505, 20.02623
841.7327, 20.72442
842.2148, 21.38679
842.6969, 21.19296
843.1790, 20.44614
843.6611, 20.00758
844.1432, 19.91301
844.6254, 19.81082
845.1075, 19.52112
845.5896, 19.38772
846.0717, 19.96171
846.5538, 21.24633
847.0359, 21.90185
847.5181, 21.57715
848.0002, 21.30144
848.4823, 21.29626
848.9644, 21.38247
849.4465, 21.46743
849.9286, 21.54303
850.4108, 21.61032
850.8929, 21.75937
851.3750, 21.69490
851.8571, 21.02525
852.3392, 20.35403
852.8214, 20.24025
853.3035, 20.50026
853.7856, 20.74713
854.2677, 20.84082
854.7498, 20.76465
855.2319, 20.38909
855.7141, 19.89071
856.1962, 19.66353
856.6783, 19.68985
857.1604, 19.92965
857.6425, 20.40008
858.1246, 20.64502
858.6068, 20.21884
859.0889, 19.34835
859.5710, 18.89824
860.0531, 19.03453
860.5352, 19.15618
861.0173, 19.25040
861.4995, 19.31638
861.9816, 19.30905
862.4637, 19.29718
862.9458, 19.41692
863.4279, 19.69275
863.9100, 19.80746
864.3922, 19.55049
864.8743, 19.26203
865.3564, 18.97378
865.8385, 18.84570
866.3206, 19.28916
866.8027, 20.12447
867.2849, 20.52105
867.7670, 19.93029
868.2491, 18.99837
868.7312, 18.53907
869.2133, 18.41664
869.6954, 18.23843
870.1776, 17.98026
870.6597, 17.78016
871.1418, 17.69781
871.6239, 17.72158
872.1060, 17.85027
872.5881, 18.08278
873.0703, 18.28932
873.5524, 18.51667
874.0345, 18.58711
874.5166, 18.31145
874.9987, 18.03808
875.4808, 18.09421
875.9630, 18.37587
876.4451, 18.60255
876.9272, 18.87928
877.4093, 18.83845
877.8914, 18.09834
878.3735, 17.33757
878.8557, 16.97024
879.3378, 16.85726
879.8199, 16.76840
880.3020, 16.64066
880.7841, 16.48048
881.2662, 16.26112
881.7484, 16.03994
882.2305, 15.81237
882.7126, 15.65383
883.1947, 15.74678
883.6768, 16.11443
884.1589, 16.75786
884.6411, 17.72366
885.1232, 18.65828
885.6053, 18.75114
886.0874, 17.97624
886.5695, 17.46562
887.0516, 17.33805
887.5338, 17.05067
888.0159, 16.24662
888.4980, 15.44802
888.9801, 15.36265
889.4622, 15.98784
889.9443, 16.27837
890.4265, 15.97769
890.9086, 15.71574
891.3907, 15.44055
891.8728, 15.32527
892.3549, 15.55069
892.8370, 15.99190
893.3192, 16.48459
893.8013, 17.04202
894.2834, 17.23541
894.7655, 16.58251
895.2476, 15.73986
895.7297, 15.11966
896.2119, 14.75555
896.6940, 14.76732
897.1761, 15.09307
897.6582, 15.35233
898.1403, 15.27430
898.6224, 15.01061
899.1046, 14.75460
899.5867, 14.52466
900.0688, 14.34286
900.5509, 14.21880
901.0330, 14.47787
901.5151, 15.34901
901.9973, 16.26295
902.4794, 16.33524
902.9615, 15.56477
903.4436, 14.94571
903.9257, 14.39251
904.4078, 14.23773
904.8900, 14.84263
905.3721, 15.49042
905.8542, 15.61710
906.3363, 15.35286
906.8184, 15.12110
907.3005, 15.07239
907.7827, 14.70216
908.2648, 13.26542
908.7469, 12.25973
909.2290, 12.77590
909.7111, 13.92527
910.1932, 14.69214
910.6754, 14.90629
911.1575, 14.76338
911.6396, 14.02253
912.1217, 13.46160
912.6038, 14.11644
913.0859, 15.10679
913.5681, 14.98648
914.0502, 13.96071
914.5323, 13.25976
915.0144, 13.42057
915.4965, 13.93783
915.9786, 14.27289
916.4608, 14.45871
916.9429, 14.66538
917.4250, 14.87334
917.9071, 14.69159
918.3892, 13.97631
918.8713, 13.44041
919.3535, 13.70257
919.8356, 14.47673
920.3177, 14.88748
920.7998, 14.85810
921.2819, 14.75591
921.7640, 14.56575
922.2462, 14.32861
922.7283, 13.86488
923.2104, 13.52455
923.6925, 14.07595
924.1746, 15.43009
924.6567, 15.67441
925.1389, 13.22351
925.6210, 11.78395
926.1031, 12.98547
926.5852, 14.47566
927.0673, 14.68307
927.5494, 14.01200
928.0316, 13.24518
928.5137, 12.55433
928.9958, 12.33236
929.4779, 13.24129
929.9600, 14.24520
930.4421, 14.58407
930.9243, 14.41849
931.4064, 13.83623
931.8885, 13.01657
932.3706, 12.49559
932.8527, 12.60225
933.3348, 12.90012
933.8170, 12.80275
934.2991, 12.45353
934.7812, 12.20019
935.2633, 12.06843
935.7454, 12.10480
936.2275, 12.32491
936.7097, 12.69341
937.1918, 13.23876
937.6739, 13.81241
938.1560, 13.71739
938.6381, 12.82098
939.1202, 12.37381
939.6024, 12.58324
940.0845, 12.99885
940.5666, 13.50276
941.0487, 13.93811
941.5308, 14.02941
942.0129, 13.74113
942.4951, 13.50326
942.9772, 13.38890
943.4593, 13.21242
943.9414, 13.07220
944.4235, 12.74475
944.9056, 11.71820
945.3878, 10.48451
945.8699, 10.22242
946.3520, 11.34988
946.8341, 12.20189
947.3162, 12.06642
947.7983, 11.88369
948.2805, 12.21603
948.7626, 12.71771
949.2447, 13.01484
949.7268, 13.06649
950.2089, 12.94985
950.6910, 12.63605
951.1732, 12.37144
951.6553, 12.34403
952.1374, 12.47793
952.6195, 12.78270
953.1016, 13.14903
953.5837, 13.39202
954.0659, 13.43574
954.5480, 13.16135
955.0301, 12.33552
955.5122, 11.39794
955.9943, 11.20806
956.4764, 11.61641
956.9586, 12.15235
957.4407, 12.72964
957.9228, 12.90443
958.4049, 12.44193
958.8870, 11.89586
959.3691, 12.04690
959.8513, 12.78731
960.3334, 13.29874
960.8155, 13.60097
961.2976, 13.44388
961.7797, 12.63745
962.2618, 11.81813
962.7440, 11.28440
963.2261, 11.16722
963.7082, 11.88280
964.1903, 13.77600
964.6724, 14.64835
965.1545, 13.89167
965.6367, 13.11539
966.1188, 12.51083
966.6009, 12.18219
967.0830, 12.20771
967.5651, 12.56414
968.0472, 13.26758
968.5294, 14.74066
969.0115, 15.44036
969.4936, 14.54545
969.9757, 13.56053
970.4578, 13.16642
970.9399, 13.01354
971.4221, 12.55567
971.9042, 11.89794
972.3863, 11.80127
972.8684, 12.91190
973.3505, 13.74618
973.8326, 13.13212
974.3148, 12.28649
974.7969, 12.43644
975.2790, 13.10918
975.7611, 13.25579
976.2432, 12.72931
976.7253, 12.34932
977.2075, 12.80609
977.6896, 13.35694
978.1717, 12.98344
978.6538, 12.25194
979.1359, 12.31740
979.6180, 12.98157
980.1002, 13.01477
980.5823, 12.01642
981.0644, 11.11474
981.5465, 11.58652
982.0286, 12.80947
982.5107, 13.38953
982.9929, 13.41135
983.4750, 13.23510
983.9571, 12.92376
984.4392, 12.54700
984.9213, 12.13179
985.4034, 11.78034
985.8856, 11.66423
986.3677, 11.75173
986.8498, 11.83253
987.3319, 11.93552
987.8140, 11.52681
988.2961, 10.28724
988.7783, 9.604301
989.2604, 10.55921
989.7425, 12.34736
990.2246, 13.29590
990.7067, 13.29236
991.1888, 13.37229
991.6710, 13.60810
992.1531, 13.75735
992.6352, 13.79821
993.1173, 13.67627
993.5994, 13.20875
994.0815, 12.58235
994.5637, 12.38183
995.0458, 12.73745
995.5279, 13.15232
996.0100, 13.85079
996.4921, 14.31819
996.9742, 14.34322
997.4564, 14.15466
997.9385, 13.84700
998.4206, 13.48612
998.9027, 13.29032
999.3848, 13.39281
999.8669, 13.38551
1000.349, 12.99720
1000.831, 12.70733
1001.313, 12.92285
1001.795, 13.23295
1002.278, 13.06466
1002.760, 12.52437
1003.242, 12.29821
1003.724, 12.71723
1004.206, 13.18540
1004.688, 13.67081
1005.170, 13.86084
1005.652, 13.12974
1006.134, 12.14304
1006.617, 12.02121
1007.099, 12.77511
1007.581, 13.37562
1008.063, 13.25005
1008.545, 12.97828
1009.027, 13.01761
1009.509, 13.17187
1009.991, 13.22685
1010.474, 13.20078
1010.956, 13.20838
1011.438, 13.25063
1011.920, 13.12272
1012.402, 12.57671
1012.884, 12.06369
1013.366, 12.15087
1013.848, 12.66415
1014.330, 13.54021
1014.813, 14.53215
1015.295, 14.76847
1015.777, 14.05734
1016.259, 13.35050
1016.741, 13.51992
1017.223, 14.07298
1017.705, 14.11252
1018.187, 13.75678
1018.669, 13.33436
1019.152, 12.91018
1019.634, 12.69066
1020.116, 12.74964
1020.598, 12.96358
1021.080, 13.22951
1021.562, 13.51423
1022.044, 13.75332
1022.526, 13.93531
1023.009, 13.88090
1023.491, 13.57170
1023.973, 13.33433
1024.455, 13.31593
1024.937, 13.30763
1025.419, 13.02263
1025.901, 12.58975
1026.383, 12.62741
1026.865, 13.16098
1027.348, 13.88448
1027.830, 14.87690
1028.312, 15.35932
1028.794, 14.90131
1029.276, 14.02412
1029.758, 13.33029
1030.240, 12.82435
1030.722, 12.60508
1031.205, 12.74371
1031.687, 12.86979
1032.169, 12.99162
1032.651, 12.94554
1033.133, 12.53935
1033.615, 12.13717
1034.097, 12.26852
1034.579, 12.88457
1035.062, 13.22790
1035.544, 13.24261
1036.026, 13.10740
1036.508, 12.70587
1036.990, 12.40089
1037.472, 12.40569
1037.954, 12.55040
1038.436, 12.62577
1038.918, 12.63338
1039.401, 12.62248
1039.883, 12.63033
1040.365, 12.53900
1040.847, 12.02742
1041.329, 11.84177
1041.811, 12.77257
1042.293, 13.89428
1042.775, 13.84513
1043.257, 12.66641
1043.740, 12.00728
1044.222, 12.12400
1044.704, 12.36333
1045.186, 12.98121
1045.668, 13.38045
1046.150, 13.12892
1046.632, 12.62802
1047.114, 12.31262
1047.597, 12.19700
1048.079, 12.23692
1048.561, 12.53101
1049.043, 12.82350
1049.525, 13.40585
1050.007, 13.61149
1050.489, 12.75038
1050.971, 11.58182
1051.453, 11.03267
1051.936, 11.09128
1052.418, 11.13545
1052.900, 10.90620
1053.382, 10.92861
1053.864, 11.60351
1054.346, 12.21247
1054.828, 12.42126
1055.310, 12.33229
1055.792, 11.93598
1056.275, 11.33562
1056.757, 11.03681
1057.239, 11.27235
1057.721, 11.56226
1058.203, 11.79593
1058.685, 12.02798
1059.167, 12.31988
1059.649, 12.60368
1060.132, 12.91033
1060.614, 13.15164
1061.096, 12.92095
1061.578, 11.77264
1062.060, 11.05733
1062.542, 11.56594
1063.024, 12.25721
1063.506, 12.83322
1063.989, 13.06229
1064.471, 12.43531
1064.953, 11.23730
1065.435, 10.61395
1065.917, 11.09779
1066.399, 11.34164
1066.881, 10.18388
1067.363, 9.361928
1067.845, 10.46683
1068.328, 12.01194
1068.810, 12.16890
1069.292, 11.24676
1069.774, 10.80375
1070.256, 11.35478
1070.738, 11.88178
1071.220, 11.96834
1071.702, 11.87955
1072.184, 11.66455
1072.667, 11.43331
1073.149, 11.20990
1073.631, 11.07927
1074.113, 11.30735
1074.595, 12.01229
1075.077, 12.45717
1075.559, 12.12078
1076.041, 11.66023
1076.524, 11.32448
1077.006, 11.14051
1077.488, 11.14490
1077.970, 11.30704
1078.452, 11.64448
1078.934, 12.15922
1079.416, 12.41155
1079.898, 11.80587
1080.380, 11.39808
1080.863, 11.98333
1081.345, 12.78790
1081.827, 13.23548
1082.309, 13.32072
1082.791, 13.07516
1083.273, 12.53619
1083.755, 12.03026
1084.237, 11.67736
1084.719, 11.40857
1085.202, 11.14311
1085.684, 10.99743
1086.166, 11.14558
1086.648, 11.43609
1087.130, 11.62785
1087.612, 11.69825
1088.094, 11.82127
1088.576, 12.22085
1089.058, 12.36407
1089.541, 11.62678
1090.023, 10.96867
1090.505, 11.23894
1090.987, 11.89098
1091.469, 12.14515
1091.951, 12.00913
1092.433, 12.05257
1092.915, 12.62216
1093.398, 12.87232
1093.880, 12.12275
1094.362, 11.36042
1094.844, 11.20178
1095.326, 11.31283
1095.808, 11.30249
1096.290, 11.20325
1096.772, 11.29033
1097.255, 11.70096
1097.737, 11.92974
1098.219, 11.79214
1098.701, 11.45429
1099.183, 10.66306
1099.665, 9.991739
1100.147, 9.999048
1100.629, 10.51152
1101.111, 11.14703
1101.594, 11.87039
1102.076, 12.35427
1102.558, 12.44692
1103.040, 12.38244
1103.522, 12.21201
1104.004, 11.93673
1104.486, 11.39164
1104.968, 10.82132
1105.450, 10.66283
1105.933, 10.94370
1106.415, 11.16789
1106.897, 11.26524
1107.379, 11.26467
1107.861, 11.01526
1108.343, 10.84784
1108.825, 11.07701
1109.307, 11.38568
1109.790, 11.41315
1110.272, 11.15523
1110.754, 10.71035
1111.236, 9.658340
1111.718, 9.273987
1112.200, 10.24983
1112.682, 11.16544
1113.164, 11.50311
1113.646, 11.60145
1114.129, 11.85129
1114.611, 12.12003
1115.093, 11.88970
1115.575, 10.87548
1116.057, 10.23479
1116.539, 10.21214
1117.021, 10.18830
1117.503, 9.875665
1117.985, 9.734543
1118.468, 10.22646
1118.950, 10.99733
1119.432, 11.36350
1119.914, 11.29049
1120.396, 11.22935
1120.878, 11.19403
1121.360, 11.13391
1121.842, 10.99048
1122.325, 10.93830
1122.807, 11.19830
1123.289, 11.39681
1123.771, 10.94155
1124.253, 9.967760
1124.735, 9.654530
1125.217, 10.23647
1125.699, 10.66341
1126.182, 10.90272
1126.664, 10.94324
1127.146, 10.78241
1127.628, 10.38607
1128.110, 9.625101
1128.592, 8.737094
1129.074, 8.513773
1129.556, 9.062676
1130.038, 8.986010
1130.521, 8.097220
1131.003, 8.063168
1131.485, 9.408300
1131.967, 10.68930
1132.449, 10.98897
1132.931, 10.65139
1133.413, 10.12584
1133.895, 9.496253
1134.377, 9.453062
1134.860, 9.969563
1135.342, 10.21055
1135.824, 10.06837
1136.306, 9.826464
1136.788, 9.602049
1137.270, 9.532766
1137.752, 9.807009
1138.234, 10.25278
1138.717, 10.45726
1139.199, 10.45819
1139.681, 10.49648
1140.163, 10.51785
1140.645, 9.928209
1141.127, 8.679534
1141.609, 7.919794
1142.091, 8.497046
1142.573, 9.534153
1143.056, 9.892787
1143.538, 9.779278
1144.020, 9.529094
1144.502, 9.176610
1144.984, 8.648443
1145.466, 8.056866
1145.948, 7.906606
1146.430, 8.401446
1146.912, 8.975016
1147.395, 9.127831
1147.877, 9.105539
1148.359, 9.107633
1148.841, 9.165709
1149.323, 9.415895
1149.805, 9.731904
1150.287, 9.795715
1150.769, 9.573212
1151.252, 9.358621
1151.734, 9.240325
1152.216, 9.335784
1152.698, 9.912061
1153.180, 10.53802
1153.662, 11.01403
1154.144, 11.20934
1154.626, 10.72976
1155.109, 9.854699
1155.591, 9.556565
1156.073, 10.20448
1156.555, 10.70444
1157.037, 10.50813
1157.519, 10.30722
1158.001, 10.45260
1158.483, 10.63339
1158.965, 10.71108
1159.448, 10.60747
1159.930, 10.04687
1160.412, 9.029191
1160.894, 8.598692
1161.376, 9.445896
1161.858, 9.975081
1162.340, 9.857730
1162.822, 9.652025
1163.304, 9.567831
1163.787, 9.469473
1164.269, 9.112258
1164.751, 8.664301
1165.233, 8.728155
1165.715, 9.426428
1166.197, 10.17562
1166.679, 11.31199
1167.161, 11.41911
1167.644, 9.723546
1168.126, 8.323488
1168.608, 8.585255
1169.090, 9.526774
1169.572, 9.616011
1170.054, 9.048879
1170.536, 9.549720
1171.018, 11.21745
1171.500, 11.43391
1171.983, 9.913514
1172.465, 8.973108
1172.947, 9.431694
1173.429, 10.32428
1173.911, 10.92129
1174.393, 11.08587
1174.875, 10.24748
1175.357, 8.795417
1175.839, 8.193693
1176.322, 8.356923
1176.804, 9.057259
1177.286, 10.07657
1177.768, 10.45547
1178.250, 9.783234
1178.732, 9.093620
1179.214, 9.528436
1179.696, 10.27157
1180.179, 10.15439
1180.661, 9.667945
1181.143, 9.577572
1181.625, 9.763255
1182.107, 9.817175
1182.589, 9.669870
1183.071, 9.500369
1183.553, 9.387472
1184.036, 9.291512
1184.518, 8.977396
1185.000, 8.913655
1185.482, 9.718752
1185.964, 10.70966
1186.446, 11.24633
1186.928, 11.33518
1187.410, 11.12300
1187.892, 10.63226
1188.375, 10.05722
1188.857, 8.976302
1189.339, 8.520162
1189.821, 9.728433
1190.303, 10.64931
1190.785, 9.718068
1191.267, 8.527990
1191.749, 9.084994
1192.231, 10.82257
1192.714, 11.51210
1193.196, 10.86415
1193.678, 10.26192
1194.160, 9.658343
1194.642, 9.232821
1195.124, 9.035757
1195.606, 8.968694
1196.088, 8.956704
1196.571, 9.117708
1197.053, 9.688924
1197.535, 10.51979
1198.017, 10.85375
1198.499, 10.69698
1198.981, 10.23906
1199.463, 9.524923
1199.945, 9.342206
1200.427, 9.892790
1200.910, 10.42722
1201.392, 10.41733
1201.874, 10.24295
1202.356, 10.60726
1202.838, 11.10805
1203.320, 10.53709
1203.802, 9.546972
1204.284, 9.924390
1204.766, 11.33254
1205.249, 11.92042
1205.731, 11.21870
1206.213, 10.63747
1206.695, 11.21197
1207.177, 11.78831
1207.659, 11.20456
1208.141, 10.52464
1208.623, 10.92805
1209.106, 11.62362
1209.588, 11.48083
1210.070, 10.68563
1210.552, 10.08998
1211.034, 9.858847
1211.516, 9.943427
1211.998, 10.69164
1212.480, 11.22514
1212.963, 11.18717
1213.445, 11.05405
1213.927, 11.10966
1214.409, 11.17021
1214.891, 11.01775
1215.373, 10.69766
1215.855, 10.40520
1216.337, 10.12759
1216.819, 9.919562
1217.302, 9.734400
1217.784, 9.832832
1218.266, 10.31633
1218.748, 10.90612
1219.230, 11.50300
1219.712, 11.86946
1220.194, 11.64277
1220.676, 11.03317
1221.158, 10.69878
1221.641, 10.60040
1222.123, 10.52390
1222.605, 10.47582
1223.087, 10.70434
1223.569, 11.16820
1224.051, 11.08683
1224.533, 9.983300
1225.015, 9.030908
1225.498, 9.677588
1225.980, 10.85202
1226.462, 11.47750
1226.944, 11.72755
1227.426, 11.65525
1227.908, 11.48528
1228.390, 11.77316
1228.872, 12.45003
1229.354, 12.46675
1229.837, 11.10717
1230.319, 10.11308
1230.801, 10.29916
1231.283, 10.68190
1231.765, 11.02350
1232.247, 11.22040
1232.729, 11.05145
1233.211, 10.76418
1233.693, 10.85366
1234.176, 11.29946
1234.658, 11.47788
1235.140, 11.26738
1235.622, 11.17197
1236.104, 11.26098
1236.586, 11.25658
1237.068, 11.02438
1237.550, 10.96541
1238.033, 11.41961
1238.515, 11.99383
1238.997, 11.98956
1239.479, 11.56992
1239.961, 11.41525
1240.443, 11.45170
1240.925, 11.23205
1241.407, 10.84600
1241.890, 10.98732
1242.372, 11.76680
1242.854, 12.44311
1243.336, 12.54426
1243.818, 12.49358
1244.300, 12.73257
1244.782, 12.96407
1245.264, 12.88369
1245.746, 12.63798
1246.229, 12.20369
1246.711, 11.83737
1247.193, 12.12286
1247.675, 13.06587
1248.157, 13.74135
1248.639, 13.87506
1249.121, 13.82506
1249.603, 13.70774
1250.085, 13.32504
1250.568, 12.24788
1251.050, 11.35228
1251.532, 11.23363
1252.014, 11.64710
1252.496, 12.29064
1252.978, 13.09721
1253.460, 13.21545
1253.942, 12.54848
1254.425, 12.32023
1254.907, 12.62295
1255.389, 12.83427
1255.871, 12.78372
1256.353, 12.71084
1256.835, 12.77477
1257.317, 12.78873
1257.799, 12.29577
1258.281, 11.80922
1258.764, 12.57321
1259.246, 13.82773
1259.728, 14.34364
1260.210, 14.12363
1260.692, 13.17990
1261.174, 11.80130
1261.656, 11.08648
1262.138, 11.57416
1262.620, 12.19078
1263.103, 12.54052
1263.585, 12.77553
1264.067, 12.84382
1264.549, 12.94864
1265.031, 13.34761
1265.513, 13.79263
1265.995, 13.91778
1266.477, 13.77334
1266.960, 13.60764
1267.442, 13.35092
1267.924, 13.39970
1268.406, 13.85198
1268.888, 14.13565
1269.370, 14.11746
1269.852, 14.15042
1270.334, 14.42262
1270.817, 14.66046
1271.299, 14.53643
1271.781, 14.28209
1272.263, 14.39966
1272.745, 14.74168
1273.227, 15.00311
1273.709, 15.16155
1274.191, 15.21990
1274.673, 15.16489
1275.156, 14.90368
1275.638, 14.42570
1276.120, 14.04040
1276.602, 13.86089
1277.084, 13.91130
1277.566, 14.31932
1278.048, 14.82296
1278.530, 15.55059
1279.012, 16.04752
1279.495, 15.52318
1279.977, 14.53786
1280.459, 14.47013
1280.941, 15.33489
1281.423, 16.19514
1281.905, 17.19132
1282.387, 17.61826
1282.869, 17.36904
1283.352, 16.79571
1283.834, 15.93724
##END=



