##NAMES=Valentinite
##RRUFFID=R050389
##IDEAL CHEMISTRY=Sb^3+^_2_O_3_
##LOCALITY=Bohemia Region, Pribram, Czech Republic
##OWNER=RRUFF
##SOURCE=University of Arizona Mineral Museum
##DESCRIPTION=Colorless prismatic parallel crystals
##STATUS=The identification of this mineral has been confirmed by X-ray diffraction and chemical analysis
##URL=rruff.info/R050389
##MEASURED CHEMISTRY=Sb_2.00_O_3_
92.35352, 43.60823
92.83563, 41.44038
93.31775, 40.51785
93.79987, 41.59639
94.28198, 44.02042
94.76410, 45.78004
95.24622, 46.09197
95.72833, 45.92823
96.21045, 47.45919
96.69257, 50.75964
97.17468, 54.62597
97.65680, 57.92664
98.13892, 60.69117
98.62103, 63.73507
99.10315, 67.28870
99.58527, 71.28717
100.0674, 75.07372
100.5495, 78.54076
101.0316, 81.96053
101.5137, 85.42039
101.9958, 88.71305
102.4780, 92.85863
102.9601, 98.24425
103.4422, 105.0055
103.9243, 112.0146
104.4064, 119.0033
104.8885, 126.4437
105.3707, 135.4819
105.8528, 146.8270
106.3349, 158.6769
106.8170, 170.4756
107.2991, 183.2332
107.7813, 194.0050
108.2634, 202.1495
108.7455, 208.2581
109.2276, 214.0376
109.7097, 218.9835
110.1918, 224.0207
110.6740, 229.5405
111.1561, 235.2859
111.6382, 241.8142
112.1203, 248.5063
112.6024, 255.7281
113.0845, 265.3608
113.5667, 277.4731
114.0488, 292.1583
114.5309, 309.6426
115.0130, 328.8138
115.4951, 351.7704
115.9772, 378.0739
116.4594, 408.0538
116.9415, 444.9338
117.4236, 487.9410
117.9057, 539.1278
118.3878, 600.4147
118.8699, 671.6562
119.3521, 754.5148
119.8342, 851.3865
120.3163, 962.7052
120.7984, 1084.648
121.2805, 1225.450
121.7626, 1374.647
122.2448, 1514.351
122.7269, 1637.462
123.2090, 1746.405
123.6911, 1841.145
124.1732, 1919.631
124.6553, 1992.489
125.1375, 2067.930
125.6196, 2145.458
126.1017, 2223.500
126.5838, 2300.461
127.0659, 2377.476
127.5480, 2456.302
128.0302, 2536.828
128.5123, 2621.141
128.9944, 2711.280
129.4765, 2807.358
129.9586, 2910.430
130.4407, 3020.070
130.9229, 3136.989
131.4050, 3264.455
131.8871, 3398.643
132.3692, 3544.297
132.8513, 3707.315
133.3334, 3880.980
133.8156, 4059.537
134.2977, 4245.169
134.7798, 4451.645
135.2619, 4690.230
135.7440, 4957.875
136.2261, 5255.990
136.7083, 5621.174
137.1904, 6057.026
137.6725, 6547.293
138.1546, 7099.585
138.6367, 7732.026
139.1188, 8347.219
139.6010, 8981.879
140.0831, 9636.779
140.5652, 10000.39
141.0473, 10077.82
141.5294, 9879.974
142.0115, 9385.584
142.4937, 8486.401
142.9758, 7538.861
143.4579, 6607.234
143.9400, 5667.485
144.4221, 4876.823
144.9042, 4256.784
145.3864, 3766.908
145.8685, 3356.139
146.3506, 3038.944
146.8327, 2773.551
147.3148, 2545.609
147.7969, 2363.193
148.2791, 2202.438
148.7612, 2068.272
149.2433, 1955.358
149.7254, 1849.604
150.2075, 1749.825
150.6896, 1658.802
151.1718, 1578.763
151.6539, 1518.072
152.1360, 1455.787
152.6181, 1389.085
153.1002, 1320.098
153.5823, 1255.528
154.0645, 1196.011
154.5466, 1140.050
155.0287, 1087.008
155.5108, 1035.373
155.9929, 987.2222
156.4750, 943.0492
156.9572, 902.6556
157.4393, 866.4382
157.9214, 834.2216
158.4035, 805.8979
158.8856, 781.2850
159.3677, 762.3902
159.8499, 745.0209
160.3320, 728.1457
160.8141, 711.8997
161.2962, 697.0929
161.7783, 684.1250
162.2604, 672.8035
162.7426, 662.9680
163.2247, 655.3978
163.7068, 648.5645
164.1889, 641.6960
164.6710, 634.8868
165.1531, 628.7382
165.6353, 622.6417
166.1174, 617.6566
166.5995, 614.9238
167.0816, 615.9435
167.5637, 618.5085
168.0458, 621.1945
168.5280, 623.9493
169.0101, 627.6234
169.4922, 632.9042
169.9743, 639.3641
170.4564, 646.3859
170.9385, 654.8136
171.4207, 663.0423
171.9028, 669.1187
172.3849, 672.8329
172.8670, 676.8926
173.3491, 682.8576
173.8312, 690.6859
174.3134, 700.3475
174.7955, 713.4882
175.2776, 727.6307
175.7597, 739.0076
176.2418, 747.1198
176.7239, 755.9043
177.2061, 770.2137
177.6882, 788.5496
178.1703, 806.5274
178.6524, 821.4930
179.1345, 835.0998
179.6166, 849.5820
180.0988, 865.0918
180.5809, 882.0814
181.0630, 900.7831
181.5451, 921.4401
182.0272, 944.2281
182.5093, 970.3715
182.9915, 998.9382
183.4736, 1027.331
183.9557, 1055.703
184.4378, 1083.616
184.9199, 1110.308
185.4020, 1135.681
185.8842, 1162.668
186.3663, 1195.408
186.8484, 1231.499
187.3305, 1261.008
187.8126, 1283.296
188.2947, 1299.471
188.7769, 1310.967
189.2590, 1317.840
189.7411, 1320.872
190.2232, 1317.547
190.7053, 1309.458
191.1874, 1306.483
191.6696, 1309.228
192.1517, 1317.656
192.6338, 1331.862
193.1159, 1351.861
193.5980, 1376.950
194.0801, 1405.566
194.5623, 1437.861
195.0444, 1479.496
195.5265, 1531.651
196.0086, 1591.959
196.4907, 1655.809
196.9728, 1723.132
197.4550, 1794.396
197.9371, 1870.840
198.4192, 1952.527
198.9013, 2034.584
199.3834, 2116.416
199.8655, 2198.185
200.3477, 2281.628
200.8298, 2366.625
201.3119, 2453.205
201.7940, 2541.481
202.2761, 2631.161
202.7582, 2725.894
203.2404, 2826.203
203.7225, 2931.625
204.2046, 3040.342
204.6867, 3151.608
205.1688, 3269.306
205.6509, 3393.916
206.1331, 3525.648
206.6152, 3666.738
207.0973, 3817.667
207.5794, 3977.938
208.0615, 4145.155
208.5436, 4317.692
209.0258, 4502.308
209.5079, 4701.293
209.9900, 4913.347
210.4721, 5141.313
210.9542, 5385.889
211.4363, 5646.249
211.9185, 5921.094
212.4006, 6213.410
212.8827, 6516.190
213.3648, 6824.167
213.8469, 7149.663
214.3290, 7451.315
214.8112, 7739.956
215.2933, 7998.573
215.7754, 8176.005
216.2575, 8267.845
216.7396, 8286.805
217.2217, 8234.221
217.7038, 8097.956
218.1860, 7926.016
218.6681, 7711.175
219.1502, 7465.617
219.6323, 7233.916
220.1144, 7015.864
220.5965, 6815.550
221.0787, 6637.928
221.5608, 6486.439
222.0429, 6349.785
222.5250, 6230.382
223.0071, 6125.381
223.4892, 6030.750
223.9714, 5952.940
224.4535, 5874.206
224.9356, 5784.652
225.4177, 5685.087
225.8998, 5574.134
226.3819, 5452.950
226.8641, 5319.735
227.3462, 5171.899
227.8283, 5007.134
228.3104, 4831.583
228.7925, 4649.804
229.2746, 4456.900
229.7568, 4262.636
230.2389, 4063.806
230.7210, 3862.581
231.2031, 3671.977
231.6852, 3493.659
232.1673, 3323.745
232.6495, 3161.715
233.1316, 3007.216
233.6137, 2861.674
234.0958, 2728.099
234.5779, 2604.551
235.0600, 2487.521
235.5422, 2374.193
236.0243, 2269.586
236.5064, 2176.101
236.9885, 2096.723
237.4706, 2022.059
237.9527, 1953.623
238.4349, 1890.366
238.9170, 1830.152
239.3991, 1771.068
239.8812, 1717.869
240.3633, 1672.731
240.8454, 1637.173
241.3276, 1606.157
241.8097, 1581.114
242.2918, 1560.490
242.7739, 1541.012
243.2560, 1521.369
243.7381, 1504.920
244.2203, 1493.606
244.7024, 1489.985
245.1845, 1484.118
245.6666, 1474.365
246.1487, 1463.174
246.6308, 1454.963
247.1130, 1450.018
247.5951, 1447.605
248.0772, 1447.958
248.5593, 1452.090
249.0414, 1454.997
249.5235, 1454.986
250.0057, 1454.799
250.4878, 1459.223
250.9699, 1470.186
251.4520, 1482.343
251.9341, 1493.644
252.4162, 1503.453
252.8984, 1515.827
253.3805, 1531.234
253.8626, 1548.988
254.3447, 1567.697
254.8268, 1587.826
255.3089, 1608.468
255.7911, 1628.778
256.2732, 1648.489
256.7553, 1670.995
257.2374, 1697.118
257.7195, 1725.349
258.2017, 1754.038
258.6838, 1783.803
259.1659, 1813.158
259.6480, 1841.828
260.1301, 1869.508
260.6122, 1898.257
261.0944, 1928.838
261.5765, 1959.709
262.0586, 1988.307
262.5407, 2011.603
263.0228, 2041.062
263.5049, 2080.685
263.9871, 2130.281
264.4692, 2174.958
264.9513, 2212.350
265.4334, 2249.256
265.9155, 2293.216
266.3976, 2345.259
266.8798, 2398.049
267.3619, 2449.101
267.8440, 2499.482
268.3261, 2554.116
268.8082, 2613.134
269.2903, 2675.826
269.7725, 2741.154
270.2546, 2808.004
270.7367, 2878.623
271.2188, 2952.873
271.7009, 3030.399
272.1830, 3111.925
272.6652, 3197.225
273.1473, 3285.489
273.6294, 3377.272
274.1115, 3472.655
274.5936, 3570.330
275.0757, 3669.919
275.5579, 3772.741
276.0400, 3879.645
276.5221, 3990.601
277.0042, 4105.575
277.4863, 4224.713
277.9684, 4348.052
278.4506, 4474.644
278.9327, 4604.594
279.4148, 4737.516
279.8969, 4873.211
280.3790, 5012.009
280.8611, 5151.384
281.3433, 5290.122
281.8254, 5428.837
282.3075, 5568.599
282.7896, 5712.221
283.2717, 5852.899
283.7538, 5977.550
284.2360, 6085.665
284.7181, 6191.935
285.2002, 6302.823
285.6823, 6417.755
286.1644, 6532.581
286.6465, 6646.779
287.1287, 6758.689
287.6108, 6865.482
288.0929, 6967.212
288.5750, 7065.631
289.0571, 7161.831
289.5392, 7255.585
290.0214, 7345.764
290.5035, 7432.638
290.9856, 7511.142
291.4677, 7576.919
291.9498, 7630.054
292.4319, 7669.202
292.9141, 7693.851
293.3962, 7704.965
293.8783, 7705.883
294.3604, 7696.658
294.8425, 7672.805
295.3246, 7633.819
295.8068, 7577.407
296.2889, 7495.575
296.7710, 7380.524
297.2531, 7245.073
297.7352, 7111.451
298.2173, 6979.297
298.6995, 6839.300
299.1816, 6686.104
299.6637, 6520.689
300.1458, 6348.062
300.6279, 6166.097
301.1100, 5979.948
301.5922, 5796.548
302.0743, 5615.667
302.5564, 5437.377
303.0385, 5259.764
303.5206, 5084.384
304.0027, 4909.060
304.4849, 4734.410
304.9670, 4563.015
305.4491, 4400.136
305.9312, 4244.377
306.4133, 4092.337
306.8954, 3940.346
307.3776, 3792.131
307.8597, 3655.757
308.3418, 3531.252
308.8239, 3409.593
309.3060, 3280.198
309.7881, 3148.574
310.2703, 3027.566
310.7524, 2927.493
311.2345, 2834.332
311.7166, 2739.262
312.1987, 2642.228
312.6808, 2548.232
313.1630, 2457.880
313.6451, 2371.933
314.1272, 2290.447
314.6093, 2216.672
315.0914, 2145.327
315.5735, 2073.933
316.0557, 2003.108
316.5378, 1936.206
317.0199, 1875.230
317.5020, 1818.631
317.9841, 1764.485
318.4662, 1713.833
318.9484, 1665.192
319.4305, 1618.884
319.9126, 1574.361
320.3947, 1530.177
320.8768, 1484.429
321.3589, 1440.043
321.8411, 1398.237
322.3232, 1359.649
322.8053, 1323.559
323.2874, 1290.974
323.7695, 1260.621
324.2516, 1230.486
324.7338, 1200.702
325.2159, 1170.676
325.6980, 1139.584
326.1801, 1106.402
326.6622, 1076.225
327.1443, 1050.287
327.6265, 1026.913
328.1086, 1004.360
328.5907, 983.5547
329.0728, 962.7451
329.5549, 941.0363
330.0370, 918.3164
330.5192, 898.3339
331.0013, 882.8874
331.4834, 868.5098
331.9655, 852.5988
332.4476, 833.8353
332.9297, 815.6813
333.4119, 798.3508
333.8940, 781.8901
334.3761, 766.7850
334.8582, 753.5024
335.3403, 741.3231
335.8224, 730.1144
336.3046, 720.2450
336.7867, 710.0950
337.2688, 699.3496
337.7509, 688.4489
338.2330, 678.0278
338.7151, 668.2168
339.1973, 658.6918
339.6794, 648.8775
340.1615, 638.7540
340.6436, 631.0108
341.1257, 626.3862
341.6078, 622.7299
342.0899, 616.9504
342.5721, 608.9374
343.0542, 601.8220
343.5363, 596.9898
344.0184, 593.8339
344.5005, 589.4399
344.9826, 583.7133
345.4648, 577.7291
345.9469, 572.3459
346.4290, 567.5042
346.9111, 563.4302
347.3932, 560.3868
347.8753, 557.7417
348.3575, 554.2614
348.8396, 550.0195
349.3217, 545.7489
349.8038, 541.5761
350.2859, 537.7813
350.7680, 535.5341
351.2502, 535.4412
351.7323, 535.0576
352.2144, 530.9286
352.6965, 524.0411
353.1786, 517.4988
353.6607, 513.4850
354.1429, 510.3913
354.6250, 505.8607
355.1071, 499.7439
355.5892, 494.1770
356.0713, 491.6940
356.5534, 490.6454
357.0356, 488.5735
357.5177, 483.3921
357.9998, 477.8663
358.4819, 474.5079
358.9640, 472.8754
359.4461, 470.5834
359.9283, 465.2117
360.4104, 459.2655
360.8925, 454.9225
361.3746, 453.4361
361.8567, 452.2651
362.3388, 451.1529
362.8210, 449.6121
363.3031, 446.5249
363.7852, 439.1225
364.2673, 432.0312
364.7494, 427.6744
365.2315, 427.0735
365.7137, 426.3586
366.1958, 425.4521
366.6779, 423.8181
367.1600, 420.8164
367.6421, 414.7802
368.1242, 409.0261
368.6064, 404.1626
369.0885, 400.2113
369.5706, 396.8427
370.0527, 394.3574
370.5348, 392.2064
371.0169, 390.0319
371.4991, 388.0353
371.9812, 385.7158
372.4633, 382.9529
372.9454, 379.8385
373.4275, 376.6104
373.9096, 372.6753
374.3918, 369.6126
374.8739, 368.6649
375.3560, 370.7459
375.8381, 370.6048
376.3202, 367.5883
376.8023, 363.2043
377.2845, 359.6455
377.7666, 357.0170
378.2487, 354.7929
378.7308, 352.9500
379.2129, 351.4069
379.6950, 349.6850
380.1772, 347.6725
380.6593, 345.9712
381.1414, 345.5685
381.6235, 346.2527
382.1056, 345.9188
382.5877, 343.8879
383.0699, 340.9645
383.5520, 338.5937
384.0341, 336.7188
384.5162, 334.9788
384.9983, 333.3020
385.4804, 331.5554
385.9626, 329.1739
386.4447, 325.9076
386.9268, 323.0526
387.4089, 322.7231
387.8910, 323.8354
388.3731, 323.9596
388.8553, 320.7975
389.3374, 316.9106
389.8195, 314.7972
390.3016, 314.4405
390.7837, 314.5794
391.2658, 314.9878
391.7480, 315.2675
392.2301, 314.9922
392.7122, 313.8737
393.1943, 312.4290
393.6764, 310.9105
394.1585, 309.2618
394.6407, 307.3515
395.1228, 304.3313
395.6049, 301.6661
396.0870, 300.2286
396.5691, 300.5799
397.0512, 300.6903
397.5334, 300.0797
398.0155, 299.0480
398.4976, 297.9805
398.9797, 296.9296
399.4618, 295.8146
399.9439, 294.5206
400.4261, 293.0470
400.9082, 291.8890
401.3903, 291.3994
401.8724, 290.8816
402.3545, 289.7955
402.8366, 287.5454
403.3188, 286.1102
403.8009, 285.9972
404.2830, 286.5900
404.7651, 286.1400
405.2472, 284.1413
405.7293, 282.5631
406.2115, 282.3453
406.6936, 283.5306
407.1757, 284.6072
407.6578, 285.5535
408.1399, 286.4622
408.6220, 287.6241
409.1042, 289.0231
409.5863, 289.8414
410.0684, 289.7193
410.5505, 288.9902
411.0326, 288.0049
411.5147, 286.8035
411.9969, 286.6175
412.4790, 289.3439
412.9611, 293.6819
413.4432, 296.2667
413.9253, 296.3793
414.4074, 295.8907
414.8896, 296.5224
415.3717, 298.0998
415.8538, 300.2248
416.3359, 303.3578
416.8180, 306.5219
417.3001, 308.5999
417.7823, 309.6328
418.2644, 310.7231
418.7465, 311.8506
419.2286, 313.6803
419.7107, 316.9505
420.1928, 323.4539
420.6750, 329.2987
421.1571, 332.4890
421.6392, 333.8763
422.1213, 335.5841
422.6034, 337.6068
423.0855, 340.5415
423.5677, 344.9481
424.0498, 351.4239
424.5319, 357.2625
425.0140, 361.8547
425.4961, 365.9640
425.9782, 370.3772
426.4604, 375.3879
426.9425, 380.2812
427.4246, 384.8576
427.9067, 389.2281
428.3888, 393.8198
428.8709, 398.5223
429.3531, 403.6206
429.8352, 409.3524
430.3173, 415.6652
430.7994, 422.5839
431.2815, 430.3219
431.7636, 438.2908
432.2458, 445.4282
432.7279, 451.7056
433.2100, 457.4974
433.6921, 462.6144
434.1742, 467.4089
434.6563, 473.0705
435.1385, 479.6795
435.6206, 486.7420
436.1027, 494.2314
436.5848, 501.8734
437.0669, 508.7796
437.5490, 514.5468
438.0312, 520.1829
438.5133, 527.3781
438.9954, 535.5247
439.4775, 542.9230
439.9596, 548.8942
440.4417, 553.6210
440.9239, 557.1223
441.4060, 559.4060
441.8881, 560.9882
442.3702, 561.4315
442.8523, 561.6337
443.3344, 562.4910
443.8166, 565.4830
444.2987, 567.6945
444.7808, 568.2814
445.2629, 567.4053
445.7450, 565.5331
446.2271, 562.0922
446.7093, 558.2809
447.1914, 554.3026
447.6735, 549.6958
448.1556, 546.5650
448.6377, 546.4540
449.1198, 546.8074
449.6020, 544.7260
450.0841, 538.1331
450.5662, 533.6635
451.0483, 533.0675
451.5304, 535.3248
452.0125, 535.6683
452.4947, 533.4717
452.9768, 531.3039
453.4589, 530.4318
453.9410, 530.8676
454.4231, 532.2946
454.9052, 534.7239
455.3874, 538.0991
455.8695, 542.8956
456.3516, 548.8957
456.8337, 554.2180
457.3158, 557.5293
457.7979, 560.4921
458.2801, 566.4094
458.7622, 574.9584
459.2443, 584.1335
459.7264, 592.2418
460.2085, 600.2260
460.6906, 609.2167
461.1728, 619.4139
461.6549, 630.3883
462.1370, 641.4228
462.6191, 652.9774
463.1012, 665.4867
463.5833, 677.8722
464.0655, 692.4168
464.5476, 710.2382
465.0297, 731.1035
465.5118, 753.8846
465.9939, 779.4728
466.4760, 805.5772
466.9582, 830.4379
467.4403, 850.6230
467.9224, 876.0382
468.4045, 908.5534
468.8866, 945.4409
469.3687, 983.5659
469.8509, 1022.136
470.3330, 1062.173
470.8151, 1103.635
471.2972, 1146.635
471.7793, 1192.264
472.2614, 1241.283
472.7436, 1292.133
473.2257, 1343.339
473.7078, 1395.079
474.1899, 1450.816
474.6720, 1511.678
475.1541, 1575.122
475.6363, 1636.200
476.1184, 1695.807
476.6005, 1759.806
477.0826, 1832.526
477.5647, 1909.741
478.0468, 1983.720
478.5290, 2055.393
479.0111, 2133.203
479.4932, 2224.007
479.9753, 2323.904
480.4574, 2429.017
480.9395, 2539.507
481.4217, 2653.231
481.9038, 2764.867
482.3859, 2877.950
482.8680, 2996.380
483.3501, 3124.950
483.8322, 3255.627
484.3144, 3389.428
484.7965, 3524.319
485.2786, 3650.672
485.7607, 3765.218
486.2428, 3870.502
486.7249, 3969.348
487.2071, 4067.716
487.6892, 4144.416
488.1713, 4196.392
488.6534, 4228.812
489.1355, 4248.393
489.6176, 4252.456
490.0998, 4251.840
490.5819, 4249.060
491.0640, 4243.856
491.5461, 4233.168
492.0282, 4216.018
492.5103, 4200.675
492.9925, 4190.967
493.4746, 4187.462
493.9567, 4193.341
494.4388, 4208.851
494.9209, 4233.500
495.4030, 4271.247
495.8852, 4317.845
496.3673, 4363.976
496.8494, 4407.542
497.3315, 4447.093
497.8136, 4482.311
498.2957, 4512.790
498.7779, 4535.604
499.2600, 4550.181
499.7421, 4556.200
500.2242, 4554.017
500.7063, 4544.254
501.1884, 4523.715
501.6706, 4494.182
502.1527, 4452.507
502.6348, 4395.820
503.1169, 4318.335
503.5990, 4232.179
504.0811, 4137.587
504.5633, 4036.140
505.0454, 3930.503
505.5275, 3821.252
506.0096, 3709.863
506.4917, 3596.749
506.9738, 3480.549
507.4560, 3366.774
507.9381, 3255.157
508.4202, 3146.596
508.9023, 3042.250
509.3844, 2942.021
509.8665, 2844.223
510.3487, 2748.250
510.8308, 2655.115
511.3129, 2566.359
511.7950, 2481.908
512.2772, 2401.390
512.7593, 2324.540
513.2414, 2251.706
513.7235, 2181.885
514.2056, 2115.123
514.6877, 2052.697
515.1699, 1996.663
515.6520, 1944.668
516.1341, 1894.784
516.6162, 1847.293
517.0983, 1800.254
517.5804, 1750.698
518.0626, 1701.272
518.5447, 1656.328
519.0268, 1619.732
519.5089, 1584.189
519.9910, 1547.995
520.4731, 1511.205
520.9553, 1476.873
521.4374, 1446.053
521.9195, 1416.696
522.4016, 1387.760
522.8837, 1359.532
523.3658, 1331.664
523.8480, 1304.151
524.3301, 1276.944
524.8122, 1250.014
525.2943, 1223.530
525.7764, 1198.284
526.2585, 1174.588
526.7407, 1152.193
527.2228, 1129.563
527.7049, 1106.990
528.1870, 1086.834
528.6691, 1073.178
529.1512, 1061.063
529.6334, 1043.733
530.1155, 1020.378
530.5976, 997.7996
531.0797, 980.9030
531.5618, 966.0670
532.0439, 949.8758
532.5261, 929.9004
533.0082, 910.4789
533.4903, 892.0924
533.9724, 874.8885
534.4545, 858.7240
534.9366, 843.1260
535.4188, 829.3371
535.9009, 818.9044
536.3830, 811.6824
536.8651, 800.2432
537.3472, 782.3618
537.8293, 764.7303
538.3115, 752.4215
538.7936, 745.9143
539.2757, 738.6341
539.7578, 730.3067
540.2399, 721.2545
540.7220, 710.8997
541.2042, 699.8171
541.6863, 690.7366
542.1684, 685.4247
542.6505, 681.2933
543.1326, 674.0063
543.6147, 664.4623
544.0969, 655.9171
544.5790, 650.3000
545.0611, 646.6517
545.5432, 645.1355
546.0253, 645.9199
546.5074, 645.0884
546.9896, 638.9709
547.4717, 631.6953
547.9538, 626.6364
548.4359, 626.8967
548.9180, 625.9093
549.4001, 621.3661
549.8823, 615.8104
550.3644, 613.7439
550.8465, 616.9801
551.3286, 620.3541
551.8107, 622.9828
552.2928, 624.7628
552.7750, 624.3071
553.2571, 621.0416
553.7392, 618.3571
554.2213, 618.6705
554.7034, 621.5721
555.1855, 624.8031
555.6677, 628.2643
556.1498, 631.9824
556.6319, 635.7537
557.1140, 639.7895
557.5961, 644.6622
558.0782, 651.2496
558.5604, 657.5221
559.0425, 660.8253
559.5246, 662.5267
560.0067, 665.6633
560.4888, 672.6900
560.9709, 680.2968
561.4531, 686.6031
561.9352, 691.5795
562.4173, 697.7921
562.8994, 706.3148
563.3815, 715.5845
563.8636, 724.9901
564.3458, 734.5806
564.8279, 743.8984
565.3100, 752.5516
565.7921, 761.5591
566.2742, 772.2720
566.7563, 784.8967
567.2385, 797.6140
567.7206, 809.6132
568.2027, 821.9365
568.6848, 836.8116
569.1669, 854.0809
569.6490, 871.0796
570.1312, 885.3592
570.6133, 899.2111
571.0954, 915.6935
571.5775, 935.0168
572.0596, 955.8322
572.5417, 977.3196
573.0239, 1000.173
573.5060, 1024.759
573.9881, 1051.698
574.4702, 1079.466
574.9523, 1107.761
575.4344, 1136.965
575.9166, 1167.206
576.3987, 1200.041
576.8808, 1232.405
577.3629, 1262.784
577.8450, 1292.779
578.3271, 1328.414
578.8093, 1370.773
579.2914, 1415.270
579.7735, 1460.563
580.2556, 1505.871
580.7377, 1548.775
581.2198, 1588.607
581.7020, 1631.098
582.1841, 1683.758
582.6662, 1742.185
583.1483, 1796.390
583.6304, 1843.569
584.1125, 1890.063
584.5947, 1940.436
585.0768, 1993.836
585.5589, 2049.087
586.0410, 2108.167
586.5231, 2166.390
587.0052, 2220.356
587.4873, 2271.815
587.9694, 2324.367
588.4515, 2379.527
588.9337, 2435.727
589.4158, 2493.540
589.8979, 2553.022
590.3800, 2608.684
590.8621, 2660.607
591.3442, 2708.736
591.8264, 2752.457
592.3085, 2791.902
592.7906, 2828.230
593.2727, 2862.308
593.7548, 2890.214
594.2369, 2906.958
594.7191, 2913.804
595.2012, 2915.892
595.6833, 2915.587
596.1654, 2908.930
596.6475, 2891.276
597.1296, 2863.963
597.6118, 2829.733
598.0939, 2791.139
598.5760, 2744.937
599.0581, 2686.111
599.5402, 2616.889
600.0223, 2548.061
600.5045, 2482.191
600.9866, 2417.369
601.4687, 2351.563
601.9508, 2283.615
602.4329, 2220.011
602.9150, 2162.916
603.3972, 2107.760
603.8793, 2050.211
604.3614, 1989.518
604.8435, 1930.825
605.3256, 1874.837
605.8077, 1821.872
606.2899, 1774.727
606.7720, 1732.105
607.2541, 1690.029
607.7362, 1647.041
608.2183, 1603.742
608.7004, 1561.818
609.1826, 1520.608
609.6647, 1479.339
610.1468, 1435.145
610.6289, 1392.008
611.1110, 1354.159
611.5931, 1321.521
612.0753, 1286.380
612.5574, 1243.156
613.0395, 1199.737
613.5216, 1160.891
614.0037, 1128.436
614.4858, 1094.827
614.9680, 1059.429
615.4501, 1023.717
615.9322, 989.3466
616.4143, 956.4664
616.8964, 924.2476
617.3785, 892.5115
617.8607, 861.9011
618.3428, 833.4564
618.8249, 807.1024
619.3070, 782.5330
619.7891, 760.4470
620.2712, 739.4869
620.7534, 718.2319
621.2355, 696.7528
621.7176, 676.2527
622.1997, 656.7694
622.6818, 638.8599
623.1639, 623.0366
623.6461, 609.6588
624.1282, 596.1215
624.6103, 581.5305
625.0924, 567.2188
625.5745, 554.0558
626.0566, 542.0935
626.5388, 530.7719
627.0209, 520.3184
627.5030, 510.2734
627.9851, 499.5794
628.4672, 488.4268
628.9493, 479.2108
629.4315, 472.9808
629.9136, 468.0450
630.3957, 461.8382
630.8778, 454.7943
631.3599, 448.2911
631.8420, 443.0494
632.3242, 438.5691
632.8063, 434.9780
633.2884, 432.0403
633.7705, 428.3489
634.2526, 422.2419
634.7347, 416.2865
635.2169, 411.5854
635.6990, 408.2918
636.1811, 405.9619
636.6632, 405.1206
637.1453, 404.5716
637.6274, 403.5682
638.1096, 402.1102
638.5917, 399.9326
639.0738, 396.7473
639.5559, 393.5924
640.0380, 391.4345
640.5201, 390.3317
641.0023, 390.7796
641.4844, 393.5178
641.9665, 396.5997
642.4486, 398.4076
642.9307, 399.0112
643.4128, 398.5476
643.8950, 395.3405
644.3771, 392.7816
644.8592, 392.4838
645.3413, 394.2382
645.8234, 396.7314
646.3055, 401.0561
646.7877, 404.6971
647.2698, 406.5742
647.7519, 406.6225
648.2340, 407.1474
648.7161, 407.9225
649.1982, 409.7664
649.6804, 413.9633
650.1625, 420.1466
650.6446, 424.5023
651.1267, 426.6030
651.6088, 428.6217
652.0909, 433.3032
652.5731, 439.3080
653.0552, 444.1324
653.5373, 446.4830
654.0194, 449.1771
654.5015, 454.4451
654.9836, 461.1051
655.4658, 467.4445
655.9479, 472.0834
656.4300, 477.4344
656.9121, 484.1468
657.3942, 491.9720
657.8763, 500.2017
658.3585, 508.7689
658.8406, 518.0336
659.3227, 528.2748
659.8048, 539.3264
660.2869, 549.7150
660.7690, 559.3920
661.2512, 569.4400
661.7333, 579.9271
662.2154, 591.3386
662.6975, 605.0014
663.1796, 620.8851
663.6617, 636.9485
664.1439, 651.4991
664.6260, 665.7571
665.1081, 680.4890
665.5902, 695.0631
666.0723, 712.2943
666.5544, 735.5459
667.0366, 760.2323
667.5187, 781.9541
668.0008, 798.0898
668.4829, 816.8469
668.9650, 838.9747
669.4471, 863.3289
669.9293, 888.8449
670.4114, 915.5514
670.8935, 941.7663
671.3756, 967.0913
671.8577, 991.6854
672.3398, 1015.419
672.8220, 1038.962
673.3041, 1064.167
673.7862, 1092.995
674.2683, 1122.868
674.7504, 1153.164
675.2325, 1183.349
675.7147, 1210.291
676.1968, 1230.569
676.6789, 1250.119
677.1610, 1271.383
677.6431, 1294.712
678.1252, 1316.703
678.6074, 1338.452
679.0895, 1356.479
679.5716, 1368.172
680.0537, 1373.626
680.5358, 1375.386
681.0179, 1373.415
681.5001, 1368.551
681.9822, 1362.933
682.4643, 1354.796
682.9464, 1340.179
683.4285, 1317.458
683.9106, 1291.580
684.3928, 1265.504
684.8749, 1238.268
685.3570, 1208.367
685.8391, 1172.671
686.3212, 1137.386
686.8033, 1103.517
687.2855, 1070.329
687.7676, 1036.557
688.2497, 1001.203
688.7318, 966.7883
689.2139, 933.7936
689.6960, 901.6914
690.1782, 869.4678
690.6603, 837.2271
691.1424, 807.1227
691.6245, 780.5920
692.1066, 756.0493
692.5887, 731.1647
693.0709, 706.2098
693.5530, 682.2197
694.0351, 660.1438
694.5172, 639.1944
694.9993, 618.8922
695.4814, 599.1928
695.9636, 580.4130
696.4457, 562.1473
696.9278, 545.2418
697.4099, 530.4392
697.8920, 518.1863
698.3741, 504.7512
698.8563, 489.6143
699.3384, 474.9002
699.8205, 462.6877
700.3026, 452.6526
700.7847, 442.8050
701.2668, 432.9471
701.7490, 423.2740
702.2311, 413.8890
702.7132, 404.8372
703.1953, 396.1800
703.6774, 387.9065
704.1595, 380.0542
704.6417, 372.6800
705.1238, 365.6219
705.6059, 358.7702
706.0880, 352.0988
706.5701, 345.5629
707.0522, 339.2484
707.5344, 332.9744
708.0165, 326.1190
708.4986, 318.5894
708.9807, 312.3580
709.4628, 308.3699
709.9449, 305.5845
710.4271, 302.4431
710.9092, 298.9038
711.3913, 294.6883
711.8734, 289.1010
712.3555, 283.3215
712.8376, 277.9490
713.3198, 273.0057
713.8019, 268.6476
714.2840, 265.0183
714.7661, 261.8388
715.2482, 259.1166
715.7303, 256.8334
716.2125, 254.4665
716.6946, 251.9777
717.1767, 249.4656
717.6588, 247.0945
718.1409, 244.7909
718.6230, 242.1134
719.1052, 239.0216
719.5873, 235.8446
720.0694, 232.5063
720.5515, 229.3285
721.0336, 226.7133
721.5157, 224.7607
721.9979, 223.0464
722.4800, 221.7988
722.9621, 220.4148
723.4442, 218.3098
723.9263, 214.6886
724.4084, 212.0294
724.8906, 210.7366
725.3727, 209.8958
725.8548, 208.5973
726.3369, 206.7999
726.8190, 205.0218
727.3011, 203.4003
727.7833, 201.6092
728.2654, 198.8398
728.7475, 195.6234
729.2296, 193.2662
729.7117, 192.3667
730.1938, 191.9354
730.6760, 191.8938
731.1581, 191.7453
731.6402, 190.7260
732.1223, 187.2314
732.6044, 184.6566
733.0865, 183.9892
733.5687, 184.3337
734.0508, 183.8082
734.5329, 182.2453
735.0150, 180.4594
735.4971, 178.5389
735.9792, 176.6505
736.4614, 175.1088
736.9435, 173.9194
737.4256, 173.1109
737.9077, 172.7724
738.3898, 172.7619
738.8719, 173.3508
739.3541, 174.2399
739.8362, 174.3663
740.3183, 172.7384
740.8004, 170.8826
741.2825, 169.1394
741.7646, 167.5703
742.2468, 166.8658
742.7289, 167.3920
743.2110, 167.8816
743.6931, 167.9113
744.1752, 167.4312
744.6573, 165.6844
745.1395, 162.7384
745.6216, 160.4176
746.1037, 160.7409
746.5858, 162.0295
747.0679, 162.1709
747.5500, 161.0982
748.0322, 160.0352
748.5143, 159.3959
748.9964, 159.0545
749.4785, 159.0313
749.9606, 159.4483
750.4427, 159.5261
750.9249, 159.2625
751.4070, 158.6688
751.8891, 157.5292
752.3712, 155.8550
752.8533, 155.0574
753.3354, 155.2399
753.8176, 155.5996
754.2997, 155.2919
754.7818, 154.7004
755.2639, 154.4612
755.7460, 154.7321
756.2281, 154.9730
756.7103, 155.1388
757.1924, 155.0071
757.6745, 154.3085
758.1566, 152.2928
758.6387, 151.1907
759.1208, 151.3615
759.6030, 151.9974
760.0851, 152.4819
760.5672, 152.8399
761.0493, 152.0334
761.5314, 149.6803
762.0135, 147.2822
762.4957, 146.6576
762.9778, 147.2757
763.4599, 148.2663
763.9420, 149.7145
764.4241, 150.7078
764.9063, 150.3147
765.3884, 149.3568
765.8705, 148.8479
766.3526, 149.6721
766.8347, 149.8183
767.3168, 148.7754
767.7990, 147.4106
768.2811, 147.2483
768.7632, 148.3771
769.2453, 148.7602
769.7274, 147.7503
770.2095, 146.4410
770.6917, 146.6524
771.1738, 147.7305
771.6559, 148.2131
772.1380, 147.1873
772.6201, 145.9809
773.1022, 144.9740
773.5844, 144.3317
774.0665, 144.4076
774.5486, 146.5889
775.0307, 147.4392
775.5128, 146.0110
775.9949, 143.3625
776.4771, 141.7632
776.9592, 141.2200
777.4413, 141.2410
777.9234, 141.8384
778.4055, 142.6665
778.8876, 143.4481
779.3698, 144.0381
779.8519, 144.0612
780.3340, 142.8479
780.8161, 141.5459
781.2982, 140.4390
781.7803, 139.6409
782.2625, 139.5538
782.7446, 141.3249
783.2267, 141.8029
783.7088, 139.6680
784.1909, 136.2082
784.6730, 135.5380
785.1552, 137.6215
785.6373, 139.0574
786.1194, 138.1382
786.6015, 136.2554
787.0836, 135.3769
787.5657, 135.2182
788.0479, 135.0006
788.5300, 134.1809
789.0121, 133.4196
789.4942, 133.1939
789.9763, 133.2981
790.4584, 132.8857
790.9406, 131.5937
791.4227, 130.5143
791.9048, 130.1454
792.3869, 130.0953
792.8690, 128.6943
793.3511, 126.0673
793.8333, 124.3245
794.3154, 125.0008
794.7975, 126.6172
795.2796, 127.7349
795.7617, 128.3349
796.2438, 128.3053
796.7260, 127.3086
797.2081, 125.9961
797.6902, 124.3174
798.1723, 122.4909
798.6544, 121.3701
799.1365, 121.1924
799.6187, 121.1250
800.1008, 120.9572
800.5829, 120.6708
801.0650, 120.1007
801.5471, 119.3084
802.0292, 118.6794
802.5114, 118.5053
802.9935, 118.5254
803.4756, 118.4882
803.9577, 118.4410
804.4398, 118.5503
804.9219, 119.1527
805.4041, 119.5957
805.8862, 119.6791
806.3683, 119.4604
806.8504, 119.1642
807.3325, 118.7831
807.8146, 118.3542
808.2968, 117.8824
808.7789, 117.3754
809.2610, 116.8437
809.7431, 116.2909
810.2252, 115.7310
810.7073, 114.9956
811.1895, 114.4212
811.6716, 114.3830
812.1537, 114.7088
812.6358, 114.7541
813.1179, 114.1484
813.6000, 113.6363
814.0822, 113.4292
814.5643, 113.4214
815.0464, 113.2144
815.5285, 112.8053
816.0106, 112.4135
816.4927, 112.1049
816.9749, 111.8898
817.4570, 111.8441
817.9391, 111.9102
818.4212, 111.9217
818.9033, 111.6599
819.3854, 111.4760
819.8676, 111.7047
820.3497, 112.1344
820.8318, 112.0043
821.3139, 110.9036
821.7960, 110.2655
822.2781, 110.6727
822.7603, 111.5377
823.2424, 111.1897
823.7245, 109.8531
824.2066, 109.0146
824.6887, 109.6268
825.1708, 110.5393
825.6530, 110.7583
826.1351, 110.4709
826.6172, 110.0929
827.0993, 110.0724
827.5814, 109.5387
828.0635, 107.9439
828.5457, 105.9235
829.0278, 104.7442
829.5099, 104.4609
829.9920, 104.8228
830.4741, 106.0282
830.9562, 107.3434
831.4384, 107.5699
831.9205, 106.9611
832.4026, 106.1388
832.8847, 104.9517
833.3668, 104.1355
833.8489, 104.6152
834.3311, 105.5678
834.8132, 105.4620
835.2953, 102.9663
835.7774, 101.9983
836.2595, 103.6686
836.7416, 106.1079
837.2238, 105.8664
837.7059, 103.2957
838.1880, 101.7619
838.6701, 102.2271
839.1522, 103.2570
839.6343, 103.6796
840.1165, 103.6358
840.5986, 103.2846
841.0807, 102.3112
841.5628, 101.6405
842.0449, 101.7684
842.5270, 102.0707
843.0092, 101.8432
843.4913, 100.9126
843.9734, 100.5102
844.4555, 100.8503
844.9376, 101.3352
845.4197, 101.1689
845.9019, 100.6340
846.3840, 100.3700
846.8661, 100.5735
847.3482, 100.6790
847.8303, 100.3762
848.3124, 99.82572
848.7946, 99.09660
849.2767, 97.89928
849.7588, 97.42442
850.2409, 97.99025
850.7230, 98.67543
851.2051, 98.46671
851.6873, 97.57083
852.1694, 97.48347
852.6515, 98.32927
853.1336, 99.17454
853.6157, 99.18414
854.0978, 98.86553
854.5800, 98.72053
855.0621, 98.83775
855.5442, 98.86778
856.0263, 98.67261
856.5084, 98.44849
856.9905, 98.33467
857.4727, 98.33364
857.9548, 97.92796
858.4369, 97.05898
858.9190, 96.43023
859.4011, 96.97466
859.8832, 97.86128
860.3654, 97.58957
860.8475, 96.26276
861.3296, 95.09174
861.8117, 94.68655
862.2938, 94.51044
862.7759, 94.23011
863.2581, 93.89703
863.7402, 94.17688
864.2223, 95.41518
864.7044, 96.02977
865.1865, 95.01347
865.6686, 93.15719
866.1508, 92.45746
866.6329, 92.75861
867.1150, 93.41734
867.5971, 94.87864
868.0792, 95.83308
868.5613, 94.96618
869.0435, 92.92925
869.5256, 91.81892
870.0077, 92.24488
870.4898, 92.78143
870.9719, 93.29580
871.4540, 93.65645
871.9362, 93.51937
872.4183, 92.93040
872.9004, 92.20740
873.3825, 91.33275
873.8646, 90.60848
874.3467, 90.45976
874.8289, 90.61405
875.3110, 90.66164
875.7931, 90.00865
876.2752, 89.94397
876.7573, 91.00523
877.2394, 92.27254
877.7216, 92.57211
878.2037, 91.83830
878.6858, 91.26974
879.1679, 91.02914
879.6500, 90.84125
880.1321, 90.30465
880.6143, 89.66371
881.0964, 89.32252
881.5785, 89.43700
882.0606, 89.46446
882.5427, 88.87208
883.0248, 88.41042
883.5070, 88.68954
883.9891, 89.92583
884.4712, 90.52714
884.9533, 90.39687
885.4354, 90.09698
885.9175, 90.05867
886.3997, 90.16873
886.8818, 90.28787
887.3639, 90.38394
887.8460, 90.19624
888.3281, 89.12761
888.8102, 88.14719
889.2924, 87.85816
889.7745, 88.22926
890.2566, 88.61037
890.7387, 88.98676
891.2208, 89.43380
891.7029, 90.13473
892.1851, 90.83123
892.6672, 90.61655
893.1493, 89.72530
893.6314, 89.17202
894.1135, 90.08976
894.5956, 90.86659
895.0778, 90.25809
895.5599, 88.83365
896.0420, 88.10697
896.5241, 88.50121
897.0062, 88.84223
897.4883, 88.91428
897.9705, 88.88539
898.4526, 89.10558
898.9347, 89.50867
899.4168, 89.78311
899.8989, 89.83822
900.3810, 89.79299
900.8632, 89.73739
901.3453, 89.63831
901.8274, 89.44253
902.3095, 88.95871
902.7916, 88.73366
903.2737, 88.83873
903.7559, 89.09850
904.2380, 89.48756
904.7201, 89.95278
905.2022, 89.77618
905.6843, 88.89996
906.1664, 88.23262
906.6486, 88.97426
907.1307, 89.95915
907.6128, 89.97951
908.0949, 88.85561
908.5770, 88.09577
909.0591, 88.02754
909.5413, 88.20052
910.0234, 88.57671
910.5055, 89.05442
910.9876, 88.87991
911.4697, 88.08787
911.9518, 87.32453
912.4340, 86.81635
912.9161, 86.61485
913.3982, 87.09230
913.8803, 87.93929
914.3624, 88.29264
914.8445, 87.64078
915.3267, 86.75451
915.8088, 85.46699
916.2909, 84.24730
916.7730, 84.20882
917.2551, 85.32307
917.7372, 86.35191
918.2194, 87.11435
918.7015, 87.39456
919.1836, 86.43059
919.6657, 85.04556
920.1478, 84.42101
920.6299, 85.28803
921.1121, 85.93520
921.5942, 86.19016
922.0763, 86.08958
922.5584, 85.51405
923.0405, 84.43465
923.5226, 83.79952
924.0048, 83.65062
924.4869, 83.71664
924.9690, 83.84504
925.4511, 84.02373
925.9332, 84.35708
926.4153, 84.82105
926.8975, 84.90672
927.3796, 84.12076
927.8617, 83.30459
928.3438, 82.69063
928.8259, 82.27054
929.3080, 82.05399
929.7902, 82.03486
930.2723, 81.91512
930.7544, 81.46001
931.2365, 80.96352
931.7186, 80.82677
932.2007, 80.90244
932.6829, 80.88772
933.1650, 80.41306
933.6471, 80.24229
934.1292, 80.66064
934.6113, 81.24474
935.0934, 81.42612
935.5756, 81.20784
936.0577, 80.63283
936.5398, 79.63941
937.0219, 78.79134
937.5040, 78.77733
937.9861, 79.16404
938.4683, 79.48955
938.9504, 79.69071
939.4325, 79.76643
939.9146, 79.75690
940.3967, 79.57005
940.8788, 79.05783
941.3610, 78.26908
941.8431, 77.84450
942.3252, 77.77214
942.8073, 77.80879
943.2894, 77.86109
943.7715, 77.89975
944.2537, 77.90333
944.7358, 77.87106
945.2179, 77.80208
945.7000, 77.64218
946.1821, 77.52330
946.6642, 77.47868
947.1464, 77.47670
947.6285, 77.38579
948.1106, 77.24345
948.5927, 77.39835
949.0748, 78.04639
949.5569, 78.65497
950.0391, 78.80711
950.5212, 78.62782
951.0033, 78.20961
951.4854, 77.28108
951.9675, 76.83897
952.4496, 77.09947
952.9318, 77.48549
953.4139, 77.63982
953.8960, 77.54847
954.3781, 76.92805
954.8602, 75.83113
955.3423, 75.04575
955.8245, 75.32836
956.3066, 75.91196
956.7887, 76.33980
957.2708, 76.59111
957.7529, 76.73955
958.2350, 76.76585
958.7172, 76.75716
959.1993, 76.74375
959.6814, 76.70152
960.1635, 76.60845
960.6456, 76.44625
961.1277, 76.11995
961.6099, 75.43212
962.0920, 74.91561
962.5741, 75.04250
963.0562, 75.41044
963.5383, 75.56090
964.0204, 75.43159
964.5026, 75.18980
964.9847, 74.77934
965.4668, 74.46377
965.9489, 74.66688
966.4310, 75.08611
966.9131, 74.92330
967.3953, 74.20012
967.8774, 73.82446
968.3595, 74.72679
968.8416, 75.61475
969.3237, 75.88081
969.8058, 75.61121
970.2880, 75.07497
970.7701, 74.20596
971.2522, 73.58651
971.7343, 73.40439
972.2164, 73.57264
972.6985, 74.21017
973.1807, 75.05650
973.6628, 75.61208
974.1449, 75.75829
974.6270, 75.53993
975.1091, 74.53416
975.5912, 73.56868
976.0734, 73.55765
976.5555, 74.52953
977.0376, 74.95719
977.5197, 74.74802
978.0018, 74.30788
978.4839, 73.73936
978.9661, 73.26008
979.4482, 73.22398
979.9303, 73.60698
980.4124, 73.63065
980.8945, 72.78089
981.3766, 72.21158
981.8588, 72.34669
982.3409, 72.91191
982.8230, 73.09627
983.3051, 72.98643
983.7872, 73.08501
984.2693, 73.80586
984.7515, 74.32555
985.2336, 73.65934
985.7157, 72.62965
986.1978, 72.38725
986.6799, 73.66274
987.1620, 74.10378
987.6442, 73.48788
988.1263, 72.65321
988.6084, 72.30875
989.0905, 72.33745
989.5726, 72.49590
990.0547, 72.76598
990.5369, 73.11651
991.0190, 73.74076
991.5011, 74.22938
991.9832, 74.39691
992.4653, 74.27469
992.9474, 73.86275
993.4296, 73.11950
993.9117, 72.49762
994.3938, 72.10094
994.8759, 71.95257
995.3580, 72.28306
995.8401, 72.81847
996.3223, 73.10889
996.8044, 72.87773
997.2865, 72.75877
997.7686, 72.90598
998.2507, 73.11430
998.7328, 73.24330
999.2150, 73.29383
999.6971, 73.29708
1000.179, 73.25511
1000.661, 73.21122
1001.143, 73.06434
1001.626, 73.04132
1002.108, 73.56292
1002.590, 74.42541
1003.072, 74.59505
1003.554, 73.71239
1004.036, 72.87292
1004.518, 72.23358
1005.000, 71.86649
1005.482, 72.07393
1005.965, 72.64971
1006.447, 73.00328
1006.929, 72.91042
1007.411, 72.94334
1007.893, 73.69715
1008.375, 74.42097
1008.857, 74.47337
1009.339, 73.77046
1009.822, 73.68017
1010.304, 74.26408
1010.786, 74.78049
1011.268, 74.80984
1011.750, 74.46748
1012.232, 73.59441
1012.714, 72.45586
1013.196, 71.80043
1013.678, 72.29871
1014.161, 72.72201
1014.643, 72.91204
1015.125, 72.92317
1015.607, 72.78209
1016.089, 72.51614
1016.571, 72.31733
1017.053, 72.22794
1017.535, 72.05312
1018.018, 71.42957
1018.500, 70.82764
1018.982, 70.72126
1019.464, 71.14873
1019.946, 71.23380
1020.428, 70.94602
1020.910, 70.38988
1021.392, 69.37831
1021.874, 68.37794
1022.357, 68.44104
1022.839, 69.22980
1023.321, 69.95976
1023.803, 70.28408
1024.285, 70.60609
1024.767, 71.27975
1025.249, 71.77329
1025.731, 71.38703
1026.214, 70.10497
1026.696, 69.50505
1027.178, 69.67204
1027.660, 70.02437
1028.142, 70.31474
1028.624, 70.42427
1029.106, 70.11958
1029.588, 69.47240
1030.070, 69.08171
1030.553, 69.06139
1031.035, 69.14309
1031.517, 69.38998
1031.999, 69.49220
1032.481, 68.56367
1032.963, 67.07335
1033.445, 66.28715
1033.927, 66.70373
1034.410, 67.10323
1034.892, 66.68684
1035.374, 66.29051
1035.856, 66.58501
1036.338, 67.59655
1036.820, 67.98455
1037.302, 67.73193
1037.784, 67.45070
1038.266, 67.65248
1038.749, 67.88715
1039.231, 67.69983
1039.713, 67.18926
1040.195, 66.57864
1040.677, 65.58907
1041.159, 65.11116
1041.641, 65.34112
1042.123, 65.85411
1042.605, 66.36683
1043.088, 66.71904
1043.570, 66.14113
1044.052, 64.55740
1044.534, 63.54731
1045.016, 64.54311
1045.498, 65.75928
1045.980, 66.38596
1046.462, 66.45672
1046.945, 65.98609
1047.427, 64.94489
1047.909, 64.10362
1048.391, 63.72346
1048.873, 63.63862
1049.355, 63.88617
1049.837, 64.22868
1050.319, 64.32349
1050.802, 63.89622
1051.284, 63.76389
1051.766, 64.13068
1052.248, 64.35681
1052.730, 63.80416
1053.212, 62.77842
1053.694, 62.19341
1054.176, 62.01305
1054.658, 62.05370
1055.141, 62.28167
1055.623, 62.65601
1056.105, 63.39843
1056.587, 64.14314
1057.069, 64.28465
1057.551, 63.80485
1058.033, 63.31149
1058.515, 62.86214
1058.997, 62.54433
1059.480, 62.47451
1059.962, 62.54037
1060.444, 62.75419
1060.926, 63.10024
1061.408, 62.93863
1061.890, 61.94280
1062.372, 61.32444
1062.854, 61.65484
1063.337, 62.35012
1063.819, 62.29021
1064.301, 61.72998
1064.783, 61.17268
1065.265, 60.58799
1065.747, 60.45798
1066.229, 61.34533
1066.711, 62.34348
1067.193, 62.99746
1067.676, 63.29050
1068.158, 62.66845
1068.640, 61.21705
1069.122, 60.23914
1069.604, 61.10865
1070.086, 62.12981
1070.568, 62.00410
1071.050, 61.23901
1071.532, 61.05997
1072.015, 61.80341
1072.497, 61.96363
1072.979, 61.28309
1073.461, 60.49495
1073.943, 60.42230
1074.425, 60.70880
1074.907, 60.88717
1075.389, 60.91580
1075.872, 60.90408
1076.354, 60.66607
1076.836, 60.74424
1077.318, 61.49570
1077.800, 62.43454
1078.282, 62.27695
1078.764, 61.33923
1079.246, 60.84100
1079.729, 61.22834
1080.211, 61.60271
1080.693, 61.37425
1081.175, 61.01963
1081.657, 60.87513
1082.139, 60.94017
1082.621, 61.27123
1083.103, 61.87919
1083.585, 62.26029
1084.068, 61.93740
1084.550, 61.48429
1085.032, 61.53049
1085.514, 61.82059
1085.996, 61.89816
1086.478, 61.71872
1086.960, 61.24623
1087.442, 60.35759
1087.924, 59.56061
1088.406, 59.40209
1088.889, 59.63541
1089.371, 59.83204
1089.853, 59.98178
1090.335, 60.16956
1090.817, 60.75597
1091.299, 60.90216
1091.781, 60.17325
1092.263, 59.17240
1092.746, 59.17239
1093.228, 59.92959
1093.710, 60.19817
1094.192, 59.70713
1094.674, 59.29443
1095.156, 59.65184
1095.638, 60.13930
1096.120, 60.28056
1096.603, 60.13830
1097.085, 60.36087
1097.567, 60.98079
1098.049, 61.01966
1098.531, 59.80421
1099.013, 58.53244
1099.495, 58.61716
1099.977, 59.31883
1100.459, 59.66232
1100.942, 59.30017
1101.424, 59.27550
1101.906, 59.74433
1102.388, 60.04167
1102.870, 59.51915
1103.352, 58.65254
1103.834, 58.48721
1104.316, 58.75682
1104.798, 58.71696
1105.281, 57.42479
1105.763, 56.83871
1106.245, 57.54927
1106.727, 58.51880
1107.209, 58.45925
1107.691, 57.64742
1108.173, 57.27090
1108.655, 57.37040
1109.138, 57.48651
1109.620, 57.51662
1110.102, 57.31825
1110.584, 56.53740
1111.066, 55.61128
1111.548, 55.59834
1112.030, 56.47588
1112.512, 57.03960
1112.995, 57.06364
1113.477, 56.83910
1113.959, 56.31484
1114.441, 55.88674
1114.923, 56.02774
1115.405, 56.72175
1115.887, 57.03999
1116.369, 56.94103
1116.851, 56.69301
1117.333, 56.34284
1117.816, 55.98760
1118.298, 55.72461
1118.780, 55.55424
1119.262, 55.51955
1119.744, 55.78296
1120.226, 55.63569
1120.708, 54.84581
1121.190, 54.17778
1121.673, 54.19819
1122.155, 54.58801
1122.637, 54.49984
1123.119, 54.13145
1123.601, 54.02889
1124.083, 55.03263
1124.565, 55.37961
1125.047, 54.36869
1125.530, 53.22964
1126.012, 53.19962
1126.494, 54.06655
1126.976, 54.69512
1127.458, 55.06948
1127.940, 55.39142
1128.422, 56.10847
1128.904, 56.40797
1129.386, 55.45332
1129.869, 54.14167
1130.351, 54.04618
1130.833, 55.13573
1131.315, 55.48336
1131.797, 54.82522
1132.279, 54.16400
1132.761, 54.56843
1133.243, 55.02684
1133.725, 54.54678
1134.208, 53.40590
1134.690, 53.14454
1135.172, 53.89690
1135.654, 54.56570
1136.136, 54.93786
1136.618, 54.99730
1137.100, 54.43819
1137.582, 53.74132
1138.065, 53.44811
1138.547, 53.69022
1139.029, 53.96444
1139.511, 54.29038
1139.993, 54.59217
1140.475, 54.92928
1140.957, 55.08424
1141.439, 54.45728
1141.922, 53.48377
1142.404, 52.90575
1142.886, 53.01268
1143.368, 53.32449
1143.850, 54.02216
1144.332, 54.40038
1144.814, 53.71233
1145.296, 52.54869
1145.778, 52.62333
1146.260, 53.53882
1146.743, 54.13582
1147.225, 53.49191
1147.707, 53.14748
1148.189, 53.54276
1148.671, 54.00796
1149.153, 53.75219
1149.635, 53.02918
1150.117, 53.41642
1150.600, 54.71246
1151.082, 55.30117
1151.564, 53.28388
1152.046, 51.71679
1152.528, 51.87618
1153.010, 52.92034
1153.492, 54.02977
1153.974, 55.13339
1154.457, 55.22752
1154.939, 54.23615
1155.421, 53.31047
1155.903, 53.27604
1156.385, 53.48917
1156.867, 53.68560
1157.349, 53.81849
1157.831, 53.73675
1158.313, 53.43414
1158.796, 53.30466
1159.278, 53.41927
1159.760, 53.65853
1160.242, 54.30000
1160.724, 54.71430
1161.206, 54.04268
1161.688, 52.52319
1162.170, 52.15402
1162.652, 53.07205
1163.135, 53.61049
1163.617, 53.19139
1164.099, 52.62415
1164.581, 52.83186
1165.063, 53.29126
1165.545, 53.33251
1166.027, 52.81703
1166.509, 53.08830
1166.992, 54.35742
1167.474, 55.21962
1167.956, 54.98751
1168.438, 54.28868
1168.920, 53.72308
1169.402, 53.31606
1169.884, 53.12865
1170.366, 53.29794
1170.849, 53.22676
1171.331, 52.78117
1171.813, 52.57846
1172.295, 53.12042
1172.777, 53.96901
1173.259, 54.47921
1173.741, 54.74069
1174.223, 54.91479
1174.705, 54.93096
1175.188, 55.10358
1175.670, 55.55296
1176.152, 55.85521
1176.634, 55.61885
1177.116, 55.05180
1177.598, 54.44134
1178.080, 53.84763
1178.562, 53.43324
1179.044, 53.15961
1179.527, 53.28857
1180.009, 54.06022
1180.491, 54.76733
1180.973, 54.58788
1181.455, 53.89004
1181.937, 53.42765
1182.419, 53.23482
1182.901, 53.29321
1183.384, 53.75964
1183.866, 54.28202
1184.348, 54.84703
1184.830, 55.37004
1185.312, 55.90450
1185.794, 56.27930
1186.276, 55.73094
1186.758, 54.33852
1187.240, 53.56470
1187.723, 54.79738
1188.205, 55.72472
1188.687, 55.71854
1189.169, 55.24083
1189.651, 54.95078
1190.133, 54.82813
1190.615, 54.79198
1191.097, 54.83182
1191.579, 55.11047
1192.062, 56.34810
1192.544, 56.97739
1193.026, 56.26340
1193.508, 54.89262
1193.990, 54.25551
1194.472, 54.25163
1194.954, 54.66865
1195.436, 55.54235
1195.919, 56.11090
1196.401, 55.75496
1196.883, 55.31824
1197.365, 55.07508
1197.847, 55.05289
1198.329, 55.58169
1198.811, 56.42847
1199.293, 56.56249
1199.776, 55.50452
1200.258, 54.78657
1200.740, 55.59413
1201.222, 56.42242
1201.704, 56.51616
1202.186, 56.03838
1202.668, 55.49185
1203.150, 54.93562
1203.632, 54.59158
1204.115, 54.51507
1204.597, 54.70626
1205.079, 55.64647
1205.561, 56.35351
1206.043, 56.11719
1206.525, 55.18130
1207.007, 54.73696
1207.489, 54.73353
1207.971, 54.96759
1208.454, 55.61896
1208.936, 55.97038
1209.418, 55.29822
1209.900, 54.61031
1210.382, 54.62829
1210.864, 55.22323
1211.346, 55.56157
1211.828, 55.66199
1212.311, 55.59840
1212.793, 55.31771
1213.275, 55.00912
1213.757, 54.68748
1214.239, 54.41483
1214.721, 54.18246
1215.203, 54.02753
1215.685, 54.36823
1216.167, 55.10567
1216.650, 55.71711
1217.132, 55.78823
1217.614, 55.90300
1218.096, 56.47350
1218.578, 56.91814
1219.060, 56.61804
1219.542, 55.69505
1220.024, 54.82854
1220.506, 54.08936
1220.989, 53.76272
1221.471, 54.43384
1221.953, 54.95449
1222.435, 54.97162
1222.917, 54.74645
1223.399, 54.33718
1223.881, 53.89109
1224.363, 54.55137
1224.846, 56.06889
1225.328, 56.72258
1225.810, 54.49517
1226.292, 52.89119
1226.774, 52.93919
1227.256, 53.65845
1227.738, 54.02441
1228.220, 54.08287
1228.703, 53.83619
1229.185, 53.37830
1229.667, 53.31054
1230.149, 54.38562
1230.631, 55.25204
1231.113, 55.67696
1231.595, 55.69272
1232.077, 55.03415
1232.559, 54.06462
1233.042, 53.95580
1233.524, 54.67272
1234.006, 55.25869
1234.488, 55.04345
1234.970, 55.08158
1235.452, 55.71452
1235.934, 56.41044
1236.416, 56.41838
1236.898, 55.95473
1237.381, 55.38963
1237.863, 54.79089
1238.345, 54.39782
1238.827, 54.40414
1239.309, 54.51278
1239.791, 54.79530
1240.273, 54.90831
1240.755, 54.02435
1241.238, 52.79895
1241.720, 52.52050
1242.202, 53.23729
1242.684, 54.07601
1243.166, 55.26504
1243.648, 55.61491
1244.130, 54.62140
1244.612, 53.48072
1245.094, 53.98693
1245.577, 55.24568
1246.059, 55.98531
1246.541, 56.10780
1247.023, 55.88359
1247.505, 55.06786
1247.987, 54.84179
1248.469, 55.59797
1248.951, 56.49543
1249.433, 56.51739
1249.916, 56.04605
1250.398, 55.21344
1250.880, 54.16764
1251.362, 54.40400
1251.844, 56.43713
1252.326, 57.52691
1252.808, 56.94976
1253.290, 55.77513
1253.773, 54.53909
1254.255, 53.75979
1254.737, 54.39342
1255.219, 56.21878
1255.701, 56.58782
1256.183, 55.26683
1256.665, 54.64946
1257.147, 55.41972
1257.630, 56.21001
1258.112, 55.27880
1258.594, 54.21433
1259.076, 54.69960
1259.558, 56.28503
1260.040, 56.88829
1260.522, 56.51678
1261.004, 56.03325
1261.486, 55.56246
1261.969, 55.44483
1262.451, 56.52052
1262.933, 57.45344
1263.415, 57.13482
1263.897, 56.04913
1264.379, 55.92179
1264.861, 56.59913
1265.343, 56.95894
1265.825, 56.74265
1266.308, 56.32728
1266.790, 55.59961
1267.272, 55.10988
1267.754, 55.10546
1268.236, 55.50203
1268.718, 56.28504
1269.200, 57.28977
1269.682, 57.93046
1270.165, 58.10041
1270.647, 57.89668
1271.129, 56.91465
1271.611, 56.11726
1272.093, 55.82395
1272.575, 55.86174
1273.057, 55.96259
1273.539, 56.09666
1274.021, 56.21441
1274.504, 56.31503
1274.986, 56.29301
1275.468, 56.05745
1275.950, 55.85268
1276.432, 55.72400
1276.914, 55.71679
1277.396, 55.91294
1277.878, 56.27142
1278.360, 56.89773
1278.843, 57.81906
1279.325, 57.86143
1279.807, 56.64826
1280.289, 55.87830
1280.771, 56.12098
1281.253, 56.63047
1281.735, 56.47406
1282.217, 56.12093
1282.700, 56.11506
1283.182, 56.47305
1283.664, 56.67195
1284.146, 56.67533
1284.628, 57.00832
1285.110, 57.89976
1285.592, 58.67968
1286.074, 58.67434
1286.557, 58.39288
1287.039, 58.10781
1287.521, 57.90102
1288.003, 58.17154
1288.485, 58.85884
1288.967, 59.24689
1289.449, 59.17072
1289.931, 58.86204
1290.413, 58.01597
1290.896, 57.52651
1291.378, 58.04044
1291.860, 58.98769
1292.342, 58.77772
1292.824, 57.76547
1293.306, 57.22384
1293.788, 57.40498
1294.270, 57.52430
1294.752, 57.07747
1295.235, 56.78400
1295.717, 56.83809
1296.199, 57.13589
1296.681, 57.64791
1297.163, 58.21117
1297.645, 58.52829
1298.127, 58.56110
1298.609, 58.41653
1299.092, 57.94609
1299.574, 57.76294
1300.056, 58.00889
1300.538, 58.59005
1301.020, 59.97583
1301.502, 61.23720
1301.984, 60.97228
1302.466, 59.29374
1302.948, 58.52479
1303.431, 58.79147
1303.913, 59.15269
1304.395, 59.46067
1304.877, 59.67799
##END=



