##NAMES=Valleriite
##RRUFFID=R080119
##IDEAL CHEMISTRY=2[(Fe,Cu)S]&#183;1.53[(Mg,Al)(OH)_2_]
##LOCALITY=Transvaal, Complexe, Palabora, Sud√°frica
##OWNER=RRUFF
##SOURCE=Joan Abella i Creus
##DESCRIPTION=Dark metallic-bronze grains
##STATUS=The identification of this mineral is not yet confirmed.
##URL=rruff.info/R080119
91.87140, 0.0000000E+00
92.35352, 10.51021
92.83563, 10.70804
93.31775, 10.79265
93.79987, 10.71639
94.28198, 10.52058
94.76410, 10.30427
95.24622, 10.04244
95.72833, 9.816579
96.21045, 9.924626
96.69257, 10.39565
97.17468, 10.75365
97.65680, 10.27352
98.13892, 8.980697
98.62103, 8.390210
99.10315, 9.207365
99.58527, 11.14372
100.0674, 12.12330
100.5495, 11.93571
101.0316, 11.23351
101.5137, 10.72295
101.9958, 10.36891
102.4780, 10.32066
102.9601, 10.68688
103.4422, 11.53627
103.9243, 12.32666
104.4064, 12.97088
104.8885, 13.61526
105.3707, 14.58589
105.8528, 16.17690
106.3349, 17.66882
106.8170, 18.74787
107.2991, 19.05722
107.7813, 19.63278
108.2634, 20.60110
108.7455, 21.85809
109.2276, 23.01712
109.7097, 24.00640
110.1918, 24.95988
110.6740, 25.93451
111.1561, 26.82522
111.6382, 27.85672
112.1203, 29.03756
112.6024, 30.37633
113.0845, 31.86124
113.5667, 33.66563
114.0488, 35.51257
114.5309, 37.23582
115.0130, 38.52976
115.4951, 39.93236
115.9772, 41.69323
116.4594, 43.81787
116.9415, 45.84603
117.4236, 47.67224
117.9057, 49.29556
118.3878, 50.70905
118.8699, 51.55641
119.3521, 52.46977
119.8342, 53.87444
120.3163, 55.82983
120.7984, 57.90448
121.2805, 59.58450
121.7626, 61.22133
122.2448, 63.41579
122.7269, 67.83604
123.2090, 72.27998
123.6911, 74.31315
124.1732, 73.31725
124.6553, 71.42683
125.1375, 70.29492
125.6196, 69.81916
126.1017, 69.67548
126.5838, 69.59861
127.0659, 69.73988
127.5480, 70.39341
128.0302, 71.66286
128.5123, 73.32961
128.9944, 75.27592
129.4765, 77.46072
129.9586, 79.50057
130.4407, 81.18562
130.9229, 82.51372
131.4050, 83.41177
131.8871, 83.65589
132.3692, 83.62878
132.8513, 84.23530
133.3334, 85.37881
133.8156, 86.33989
134.2977, 86.77143
134.7798, 86.98775
135.2619, 87.38315
135.7440, 88.08118
136.2261, 89.01680
136.7083, 89.85897
137.1904, 90.49696
137.6725, 91.38767
138.1546, 93.39682
138.6367, 96.93318
139.1188, 99.37805
139.6010, 99.92923
140.0831, 98.59451
140.5652, 97.11189
141.0473, 95.32533
141.5294, 93.57526
142.0115, 92.39497
142.4937, 92.04354
142.9758, 91.59982
143.4579, 90.65690
143.9400, 88.96642
144.4221, 88.01431
144.9042, 88.03538
145.3864, 88.63685
145.8685, 89.16415
146.3506, 89.59658
146.8327, 89.98886
147.3148, 90.39209
147.7969, 90.94852
148.2791, 91.18520
148.7612, 90.88490
149.2433, 90.29021
149.7254, 89.95205
150.2075, 89.90091
150.6896, 90.07967
151.1718, 90.49381
151.6539, 91.58578
152.1360, 92.27366
152.6181, 92.17089
153.1002, 91.59575
153.5823, 91.49985
154.0645, 92.64224
154.5466, 93.77169
155.0287, 94.30910
155.5108, 93.92932
155.9929, 93.28596
156.4750, 92.29211
156.9572, 91.05178
157.4393, 90.01517
157.9214, 89.22704
158.4035, 88.68739
158.8856, 88.39236
159.3677, 88.59011
159.8499, 88.78111
160.3320, 88.77391
160.8141, 88.61114
161.2962, 88.55067
161.7783, 88.86892
162.2604, 89.24327
162.7426, 89.40772
163.2247, 89.28664
163.7068, 88.94016
164.1889, 88.32687
164.6710, 87.46730
165.1531, 86.56184
165.6353, 85.59323
166.1174, 84.66837
166.5995, 83.90236
167.0816, 83.39132
167.5637, 83.00850
168.0458, 82.69118
168.5280, 82.43951
169.0101, 82.22251
169.4922, 81.91337
169.9743, 81.64780
170.4564, 81.61924
170.9385, 82.48815
171.4207, 83.28248
171.9028, 82.99846
172.3849, 81.56300
172.8670, 79.90081
173.3491, 78.47411
173.8312, 77.32345
174.3134, 76.52497
174.7955, 76.44273
175.2776, 76.59373
175.7597, 76.33684
176.2418, 75.59106
176.7239, 74.84536
177.2061, 74.63948
177.6882, 74.80114
178.1703, 74.86526
178.6524, 74.47161
179.1345, 73.86906
179.6166, 73.53822
180.0988, 73.55274
180.5809, 73.57082
181.0630, 73.08585
181.5451, 72.22214
182.0272, 71.49934
182.5093, 71.28027
182.9915, 71.38847
183.4736, 71.36173
183.9557, 71.12199
184.4378, 70.91249
184.9199, 71.14865
185.4020, 71.76577
185.8842, 72.33945
186.3663, 72.68667
186.8484, 72.80920
187.3305, 72.65758
187.8126, 72.17826
188.2947, 71.55383
188.7769, 71.04684
189.2590, 70.65451
189.7411, 70.31918
190.2232, 69.97346
190.7053, 69.63982
191.1874, 69.44579
191.6696, 69.39552
192.1517, 69.49592
192.6338, 69.84939
193.1159, 70.46877
193.5980, 71.00351
194.0801, 71.20740
194.5623, 71.10210
195.0444, 71.01296
195.5265, 71.00285
196.0086, 70.97295
196.4907, 70.57801
196.9728, 69.74592
197.4550, 69.14616
197.9371, 69.38525
198.4192, 70.48272
198.9013, 71.13270
199.3834, 71.14205
199.8655, 70.72668
200.3477, 70.31261
200.8298, 69.85072
201.3119, 69.62582
201.7940, 69.92545
202.2761, 70.81489
202.7582, 71.49596
203.2404, 71.88815
203.7225, 72.03987
204.2046, 72.04240
204.6867, 71.85400
205.1688, 71.66151
205.6509, 71.58296
206.1331, 71.63023
206.6152, 71.71048
207.0973, 71.81908
207.5794, 71.95412
208.0615, 72.11426
208.5436, 72.30685
209.0258, 72.50584
209.5079, 72.67170
209.9900, 72.77187
210.4721, 73.00841
210.9542, 73.48076
211.4363, 74.07124
211.9185, 74.33830
212.4006, 74.14397
212.8827, 73.92313
213.3648, 73.93459
213.8469, 74.20655
214.3290, 74.61633
214.8112, 75.23092
215.2933, 75.95787
215.7754, 76.46470
216.2575, 76.65514
216.7396, 76.80702
217.2217, 77.11831
217.7039, 77.70842
218.1860, 78.07150
218.6681, 78.07884
219.1502, 77.84807
219.6323, 77.81621
220.1144, 78.05422
220.5966, 78.37111
221.0787, 78.69290
221.5608, 79.10378
222.0429, 79.27832
222.5250, 79.10909
223.0071, 78.69936
223.4893, 78.39988
223.9714, 78.11588
224.4535, 78.08679
224.9356, 78.50600
225.4177, 79.64673
225.8998, 80.57797
226.3820, 81.25679
226.8641, 81.69872
227.3462, 81.89635
227.8283, 81.67949
228.3104, 81.47670
228.7925, 81.50684
229.2747, 81.82970
229.7568, 82.26606
230.2389, 82.87973
230.7210, 83.59485
231.2031, 84.13249
231.6852, 84.35824
232.1674, 84.60350
232.6495, 85.04502
233.1316, 85.81541
233.6137, 86.47892
234.0958, 86.96760
234.5779, 87.34849
235.0601, 87.79053
235.5422, 88.26408
236.0243, 88.85054
236.5064, 89.63375
236.9885, 90.85371
237.4706, 91.70509
237.9528, 91.92562
238.4349, 91.83801
238.9170, 92.29898
239.3991, 93.72846
239.8812, 95.07785
240.3633, 95.85081
240.8455, 95.67596
241.3276, 95.85435
241.8097, 96.51381
242.2918, 97.47660
242.7739, 98.35991
243.2560, 99.15165
243.7382, 99.88306
244.2203, 100.5623
244.7024, 101.1803
245.1845, 101.7695
245.6666, 102.3122
246.1487, 102.8336
246.6309, 103.3979
247.1130, 104.0374
247.5951, 104.6667
248.0772, 105.2134
248.5593, 105.5911
249.0414, 106.2440
249.5236, 107.3887
250.0057, 108.6699
250.4878, 109.4647
250.9699, 109.4188
251.4520, 109.5221
251.9341, 110.1528
252.4163, 111.4728
252.8984, 112.5357
253.3805, 113.3271
253.8626, 113.8756
254.3447, 114.1733
254.8268, 114.0892
255.3090, 114.0315
255.7911, 114.1181
256.2732, 114.3641
256.7553, 114.6424
257.2374, 115.0032
257.7195, 115.3482
258.2017, 115.5449
258.6838, 115.5300
259.1659, 115.5117
259.6480, 115.5155
260.1301, 115.5368
260.6122, 115.7404
261.0944, 116.2934
261.5765, 116.8225
262.0586, 116.8348
262.5407, 116.0229
263.0228, 115.5667
263.5049, 115.8547
263.9871, 116.8479
264.4692, 117.4572
264.9513, 117.6066
265.4334, 117.5058
265.9155, 117.2749
266.3976, 116.8098
266.8798, 116.6002
267.3619, 116.8388
267.8440, 117.4442
268.3261, 117.7061
268.8082, 117.5086
269.2903, 117.2107
269.7725, 117.1054
270.2546, 117.2350
270.7367, 117.3435
271.2188, 117.3214
271.7009, 117.2617
272.1830, 117.6614
272.6652, 118.7000
273.1473, 119.6965
273.6294, 120.1390
274.1115, 119.9253
274.5936, 119.7582
275.0757, 119.6964
275.5579, 119.7300
276.0400, 119.8272
276.5221, 119.9806
277.0042, 120.2235
277.4863, 120.6129
277.9684, 121.1635
278.4506, 121.6579
278.9327, 122.0959
279.4148, 122.4533
279.8969, 122.6395
280.3790, 122.6294
280.8611, 122.6316
281.3433, 122.7823
281.8254, 123.0811
282.3075, 123.3169
282.7896, 123.4971
283.2717, 123.5898
283.7538, 123.5376
284.2360, 123.3391
284.7181, 123.0461
285.2002, 122.6376
285.6823, 122.1314
286.1644, 121.7128
286.6465, 121.4103
287.1287, 121.1037
287.6108, 120.6280
288.0929, 119.9895
288.5750, 119.3125
289.0571, 118.5611
289.5392, 117.8020
290.0214, 117.3994
290.5035, 117.3959
290.9856, 117.4080
291.4677, 117.0151
291.9498, 116.2647
292.4319, 115.4504
292.9141, 114.5582
293.3962, 113.7098
293.8783, 113.3191
294.3604, 113.3967
294.8425, 113.4027
295.3246, 112.7351
295.8068, 111.5883
296.2889, 110.6209
296.7710, 109.9871
297.2531, 109.5977
297.7352, 109.3572
298.2173, 109.2571
298.6995, 109.2186
299.1816, 109.2800
299.6637, 109.3544
300.1458, 109.2557
300.6279, 108.9360
301.1100, 108.4597
301.5922, 107.7487
302.0743, 106.8943
302.5564, 106.2722
303.0385, 106.3114
303.5206, 106.6463
304.0027, 106.7203
304.4849, 106.4102
304.9670, 106.0465
305.4491, 105.9581
305.9312, 106.0638
306.4133, 106.1690
306.8954, 106.2754
307.3776, 106.2842
307.8597, 106.0184
308.3418, 105.4390
308.8239, 104.9170
309.3060, 104.7285
309.7881, 104.7771
310.2703, 104.9145
310.7524, 105.0779
311.2345, 105.3105
311.7166, 105.7142
312.1987, 106.2786
312.6808, 106.7309
313.1630, 106.6514
313.6451, 106.4810
314.1272, 106.6968
314.6093, 107.8492
315.0914, 109.0445
315.5735, 109.8950
316.0557, 110.4215
316.5378, 110.7380
317.0199, 110.6509
317.5020, 110.5126
317.9841, 110.5785
318.4662, 110.9402
318.9484, 111.4621
319.4305, 112.2489
319.9126, 113.1784
320.3947, 113.9281
320.8768, 114.4593
321.3589, 114.7472
321.8411, 114.6677
322.3232, 113.8546
322.8053, 113.5449
323.2874, 114.4680
323.7695, 115.9475
324.2516, 116.9121
324.7338, 116.9420
325.2159, 116.6686
325.6980, 116.1681
326.1801, 115.3228
326.6622, 114.8074
327.1443, 114.9865
327.6265, 115.3745
328.1086, 115.4831
328.5907, 115.0235
329.0728, 114.6009
329.5549, 114.3934
330.0370, 114.4049
330.5192, 114.0945
331.0013, 113.2321
331.4834, 112.2423
331.9655, 111.4001
332.4476, 110.7215
332.9297, 110.1692
333.4119, 109.8182
333.8940, 109.6011
334.3761, 109.2196
334.8582, 108.6224
335.3403, 107.9547
335.8224, 107.2953
336.3046, 106.6693
336.7867, 105.9681
337.2688, 105.1847
337.7509, 104.3231
338.2330, 103.3180
338.7151, 102.0813
339.1973, 101.0080
339.6794, 100.3728
340.1615, 100.2239
340.6436, 99.48100
341.1257, 97.94116
341.6078, 96.27190
342.0900, 95.46419
342.5721, 95.61160
343.0542, 95.54372
343.5363, 94.85972
344.0184, 93.69947
344.5005, 92.60953
344.9827, 91.59750
345.4648, 90.66807
345.9469, 89.89011
346.4290, 89.22935
346.9111, 88.49451
347.3932, 87.60876
347.8754, 86.67139
348.3575, 85.91843
348.8396, 85.33636
349.3217, 84.74585
349.8038, 83.96983
350.2859, 83.10181
350.7681, 82.42090
351.2502, 82.01285
351.7323, 81.58495
352.2144, 80.78005
352.6965, 79.66990
353.1786, 78.49446
353.6608, 77.15607
354.1429, 75.92032
354.6250, 75.29077
355.1071, 75.31091
355.5892, 75.19495
356.0714, 74.12646
356.5535, 72.57754
357.0356, 71.24734
357.5177, 70.61137
357.9998, 70.09368
358.4819, 69.31632
358.9641, 68.30730
359.4462, 67.23687
359.9283, 66.04534
360.4104, 64.90926
360.8925, 63.98054
361.3746, 63.33881
361.8568, 62.82694
362.3389, 62.51255
362.8210, 62.28484
363.3031, 61.88611
363.7852, 61.10360
364.2673, 60.23743
364.7495, 59.42392
365.2316, 58.69230
365.7137, 57.95532
366.1958, 57.08467
366.6779, 56.24650
367.1600, 55.62836
367.6422, 55.53845
368.1243, 55.37366
368.6064, 54.98202
369.0885, 54.34761
369.5706, 53.74691
370.0527, 53.10313
370.5349, 52.54916
371.0170, 52.18127
371.4991, 52.19802
371.9812, 52.06618
372.4633, 51.68365
372.9454, 51.12927
373.4276, 50.69302
373.9097, 50.42485
374.3918, 50.17967
374.8739, 49.87291
375.3560, 49.45002
375.8381, 49.22941
376.3203, 49.31898
376.8024, 49.47358
377.2845, 49.25611
377.7666, 48.58247
378.2487, 48.00310
378.7308, 47.71942
379.2130, 47.69167
379.6951, 47.71799
380.1772, 47.81705
380.6593, 47.87372
381.1414, 47.76037
381.6235, 47.49329
382.1057, 47.20119
382.5878, 46.88322
383.0699, 46.59431
383.5520, 46.43750
384.0341, 46.40756
384.5162, 46.46461
384.9984, 46.71430
385.4805, 47.01561
385.9626, 47.01112
386.4447, 46.61865
386.9268, 46.17385
387.4089, 46.00247
387.8911, 46.03883
388.3732, 46.13989
388.8553, 46.41222
389.3374, 46.61241
389.8195, 46.42739
390.3016, 45.88017
390.7838, 45.33428
391.2659, 44.89063
391.7480, 44.62361
392.2301, 44.62888
392.7122, 45.11263
393.1943, 45.62449
393.6765, 46.07892
394.1586, 46.41183
394.6407, 46.43533
395.1228, 45.72262
395.6049, 44.97623
396.0870, 44.56481
396.5692, 44.63899
397.0513, 44.70594
397.5334, 44.72816
398.0155, 44.67447
398.4976, 44.50640
398.9797, 43.98899
399.4619, 43.60315
399.9440, 43.50970
400.4261, 43.70617
400.9082, 43.74503
401.3903, 43.47959
401.8724, 43.19454
402.3546, 43.08211
402.8367, 43.25422
403.3188, 43.35516
403.8009, 43.34885
404.2830, 43.26706
404.7651, 43.23357
405.2473, 43.34505
405.7294, 43.22352
406.2115, 42.53965
406.6936, 41.26648
407.1757, 40.69554
407.6578, 40.98897
408.1400, 41.54463
408.6221, 41.62653
409.1042, 41.24730
409.5863, 40.99303
410.0684, 41.08209
410.5505, 41.34432
411.0327, 41.36704
411.5148, 41.15557
411.9969, 40.88655
412.4790, 40.56200
412.9611, 40.27925
413.4432, 40.35731
413.9254, 40.93043
414.4075, 41.50741
414.8896, 41.52778
415.3717, 41.14332
415.8538, 40.70629
416.3359, 40.28469
416.8181, 39.95237
417.3002, 39.84490
417.7823, 39.95288
418.2644, 40.01313
418.7465, 39.75218
419.2286, 39.42496
419.7108, 39.28558
420.1929, 39.50543
420.6750, 39.77651
421.1571, 40.11228
421.6392, 40.42218
422.1213, 40.46130
422.6035, 39.81181
423.0856, 39.18221
423.5677, 38.88994
424.0498, 39.07081
424.5319, 39.19611
425.0140, 39.15204
425.4962, 39.07096
425.9783, 39.09784
426.4604, 39.45542
426.9425, 39.58438
427.4246, 39.27068
427.9067, 38.61275
428.3889, 38.34362
428.8710, 38.62539
429.3531, 39.00859
429.8352, 39.28115
430.3173, 39.45142
430.7994, 39.40450
431.2816, 39.05055
431.7637, 38.61757
432.2458, 38.49626
432.7279, 38.70100
433.2100, 38.97876
433.6921, 39.32604
434.1743, 39.66471
434.6564, 39.63409
435.1385, 39.22285
435.6206, 38.77722
436.1027, 38.63196
436.5848, 38.68531
437.0670, 38.65538
437.5491, 38.47337
438.0312, 38.23353
438.5133, 37.94999
438.9954, 37.68147
439.4775, 37.59064
439.9597, 38.02908
440.4418, 38.51362
440.9239, 38.56700
441.4060, 38.16197
441.8881, 37.68474
442.3702, 37.15335
442.8524, 36.75426
443.3345, 36.67296
443.8166, 37.35625
444.2987, 37.89695
444.7808, 37.85169
445.2629, 37.42953
445.7451, 37.24253
446.2272, 37.73552
446.7093, 38.20857
447.1914, 38.36016
447.6735, 38.03860
448.1556, 37.87022
448.6378, 38.06093
449.1199, 38.26795
449.6020, 38.09783
450.0841, 37.24971
450.5662, 36.66942
451.0483, 36.55588
451.5305, 36.81615
452.0126, 37.06311
452.4947, 37.32476
452.9768, 37.49316
453.4589, 37.46864
453.9410, 37.24436
454.4232, 37.10270
454.9053, 37.06173
455.3874, 37.05790
455.8695, 36.93871
456.3516, 36.74281
456.8337, 36.78527
457.3159, 37.36488
457.7980, 38.07727
458.2801, 38.07250
458.7622, 37.44623
459.2443, 36.86699
459.7264, 36.91118
460.2086, 37.23336
460.6907, 37.38364
461.1728, 37.28026
461.6549, 37.08831
462.1370, 36.87654
462.6191, 36.66370
463.1013, 36.48207
463.5834, 36.35105
464.0655, 36.24615
464.5476, 36.14065
465.0297, 36.04224
465.5118, 36.01502
465.9940, 36.22864
466.4761, 36.40717
466.9582, 36.38162
467.4403, 35.93003
467.9224, 35.65168
468.4045, 35.69297
468.8867, 35.85614
469.3688, 35.84424
469.8509, 35.51226
470.3330, 35.27295
470.8151, 35.25034
471.2972, 35.41882
471.7794, 35.51820
472.2615, 35.55579
472.7436, 35.50772
473.2257, 35.28141
473.7078, 34.87000
474.1899, 34.72178
474.6721, 34.91938
475.1542, 35.24779
475.6363, 35.41527
476.1184, 35.43440
476.6005, 35.38045
477.0826, 35.20679
477.5648, 35.02385
478.0469, 35.07991
478.5290, 35.34433
479.0111, 35.53881
479.4932, 35.38280
479.9753, 35.08307
480.4575, 34.88572
480.9396, 34.85408
481.4217, 34.86254
481.9038, 34.81771
482.3859, 34.76783
482.8680, 34.78498
483.3502, 34.98967
483.8323, 35.17081
484.3144, 35.23907
484.7965, 35.19904
485.2786, 35.16254
485.7607, 35.04474
486.2429, 35.01550
486.7250, 35.20084
487.2071, 35.90072
487.6892, 36.15055
488.1713, 35.74696
488.6534, 35.03630
489.1356, 34.48158
489.6177, 34.06375
490.0998, 33.86846
490.5819, 33.96473
491.0640, 34.29381
491.5461, 34.57819
492.0283, 34.82628
492.5104, 34.98703
492.9925, 35.07774
493.4746, 35.06585
493.9567, 34.68822
494.4388, 33.85091
494.9210, 33.02690
495.4031, 32.71260
495.8852, 32.82786
496.3673, 33.18698
496.8494, 34.01537
497.3315, 34.77232
497.8137, 34.81231
498.2958, 34.28657
498.7779, 33.81688
499.2600, 33.76548
499.7421, 33.85754
500.2242, 33.90082
500.7064, 33.85396
501.1885, 33.84010
501.6706, 34.02625
502.1527, 34.20711
502.6348, 34.17121
503.1169, 33.62013
503.5991, 33.17492
504.0812, 32.89048
504.5633, 32.76052
505.0454, 32.78822
505.5275, 33.10979
506.0096, 33.35277
506.4918, 33.34333
506.9739, 33.05629
507.4560, 32.79699
507.9381, 32.53862
508.4202, 32.37928
508.9023, 32.46256
509.3845, 32.77453
509.8666, 33.08900
510.3487, 33.39035
510.8308, 33.62757
511.3129, 33.68269
511.7950, 33.58465
512.2772, 33.46791
512.7593, 33.40975
513.2414, 33.36875
513.7235, 33.22878
514.2056, 33.00112
514.6877, 32.93804
515.1699, 33.51978
515.6520, 34.17397
516.1341, 34.31057
516.6162, 33.43451
517.0983, 32.75312
517.5804, 32.81322
518.0626, 33.28654
518.5447, 33.63485
519.0268, 33.73452
519.5089, 33.73637
519.9910, 33.56364
520.4731, 33.24583
520.9553, 33.32825
521.4374, 34.17272
521.9195, 34.87704
522.4016, 34.81637
522.8837, 33.75983
523.3658, 33.21039
523.8480, 33.30495
524.3301, 33.64400
524.8122, 33.68973
525.2943, 33.46131
525.7764, 33.25130
526.2585, 33.11507
526.7407, 33.06947
527.2228, 33.23927
527.7049, 33.57344
528.1870, 33.77050
528.6691, 33.48799
529.1512, 33.05291
529.6334, 32.87455
530.1155, 32.98715
530.5976, 33.10885
531.0797, 32.90479
531.5618, 32.70442
532.0439, 32.86441
532.5261, 33.96906
533.0082, 34.72866
533.4903, 34.56051
533.9724, 33.85365
534.4545, 33.43868
534.9366, 33.65109
535.4188, 33.86573
535.9009, 33.97026
536.3830, 33.96481
536.8651, 33.80431
537.3472, 33.38197
537.8293, 33.01648
538.3115, 32.99070
538.7936, 33.34410
539.2757, 33.45554
539.7578, 33.24778
540.2399, 32.92979
540.7220, 32.76560
541.2042, 32.73875
541.6863, 32.73433
542.1684, 32.68041
542.6505, 32.67491
543.1326, 32.97047
543.6147, 33.46966
544.0969, 33.80628
544.5790, 33.63445
545.0611, 33.28978
545.5432, 33.02531
546.0253, 32.86450
546.5074, 32.75848
546.9896, 32.58062
547.4717, 32.51117
547.9538, 32.70996
548.4359, 33.78564
548.9180, 34.32811
549.4001, 33.86751
549.8823, 32.92797
550.3644, 32.39680
550.8465, 32.44060
551.3286, 32.58054
551.8107, 32.74792
552.2928, 32.92290
552.7750, 32.89635
553.2571, 32.60654
553.7392, 32.41682
554.2213, 32.71208
554.7034, 33.36531
555.1855, 33.59121
555.6677, 33.31096
556.1498, 32.91380
556.6319, 32.80994
557.1140, 32.89514
557.5961, 32.95950
558.0782, 32.94129
558.5604, 32.88600
559.0425, 32.77670
559.5246, 32.65830
560.0067, 32.63286
560.4888, 32.91225
560.9709, 33.13976
561.4531, 33.07321
561.9352, 32.70835
562.4173, 32.52551
562.8994, 32.70963
563.3815, 32.99662
563.8636, 33.28487
564.3458, 33.65434
564.8279, 33.78769
565.3100, 33.60896
565.7921, 33.29241
566.2742, 33.04146
566.7563, 32.85361
567.2385, 32.74524
567.7206, 32.73191
568.2027, 32.78677
568.6848, 32.84800
569.1669, 32.92069
569.6490, 33.03798
570.1312, 33.35428
570.6133, 33.66521
571.0954, 33.59772
571.5775, 33.16830
572.0596, 32.76052
572.5417, 32.61432
573.0239, 32.59846
573.5060, 32.60862
573.9881, 32.63256
574.4702, 32.66358
574.9523, 32.69554
575.4344, 32.73567
575.9166, 32.79440
576.3987, 32.98050
576.8808, 33.03411
577.3629, 32.82672
577.8450, 32.47782
578.3271, 32.40516
578.8093, 32.69685
579.2914, 33.00287
579.7735, 33.18636
580.2556, 33.25625
580.7377, 33.29412
581.2198, 33.29873
581.7020, 33.27591
582.1841, 33.18779
582.6662, 33.07945
583.1483, 33.10014
583.6304, 33.30336
584.1125, 33.44481
584.5947, 33.17864
585.0768, 32.74639
585.5589, 32.50405
586.0410, 32.73644
586.5231, 32.99961
587.0052, 33.18480
587.4874, 33.26559
587.9695, 33.16869
588.4516, 32.61387
588.9337, 32.15493
589.4158, 31.91965
589.8979, 31.90792
590.3801, 32.17781
590.8622, 32.94103
591.3443, 33.61254
591.8264, 33.73783
592.3085, 33.27044
592.7906, 33.00538
593.2728, 32.98140
593.7549, 33.10733
594.2370, 33.41638
594.7191, 33.81321
595.2012, 33.87827
595.6833, 33.35783
596.1655, 32.77275
596.6476, 32.73109
597.1297, 33.07084
597.6118, 33.41479
598.0939, 33.68968
598.5760, 33.83694
599.0582, 33.77660
599.5403, 33.53121
600.0224, 33.29415
600.5045, 32.97340
600.9866, 32.79370
601.4688, 32.91069
601.9509, 33.45110
602.4330, 33.71335
602.9151, 33.57445
603.3972, 33.32500
603.8793, 33.23170
604.3615, 33.31187
604.8436, 33.37297
605.3257, 33.42058
605.8078, 33.37398
606.2899, 32.95652
606.7720, 32.27763
607.2542, 31.88366
607.7363, 32.11588
608.2184, 32.58390
608.7005, 32.90598
609.1826, 33.08939
609.6647, 33.14802
610.1469, 32.96825
610.6290, 32.76600
611.1111, 32.67770
611.5932, 32.71332
612.0753, 32.76426
612.5574, 32.94197
613.0396, 33.02226
613.5217, 32.82482
614.0038, 32.03443
614.4859, 31.84286
614.9680, 32.56002
615.4501, 33.45730
615.9323, 33.54092
616.4144, 32.75217
616.8965, 32.29322
617.3786, 32.46055
617.8607, 32.92580
618.3428, 33.19620
618.8250, 33.28468
619.3071, 33.24497
619.7892, 33.02452
620.2713, 32.74374
620.7534, 32.45847
621.2355, 32.19569
621.7177, 32.09289
622.1998, 32.38095
622.6819, 32.71471
623.1640, 32.88422
623.6461, 32.84208
624.1282, 32.84917
624.6104, 32.91640
625.0925, 33.05269
625.5746, 33.31756
626.0567, 33.91233
626.5388, 33.99128
627.0209, 33.33495
627.5031, 32.50104
627.9852, 32.30540
628.4673, 32.71725
628.9494, 33.07086
629.4315, 33.16436
629.9136, 33.21096
630.3958, 33.67952
630.8779, 34.39634
631.3600, 34.83381
631.8421, 34.57336
632.3242, 34.06833
632.8063, 33.55235
633.2885, 33.06021
633.7706, 32.71630
634.2527, 32.68300
634.7348, 32.70759
635.2169, 32.67474
635.6990, 32.57180
636.1812, 32.44402
636.6633, 32.20677
637.1454, 32.05119
637.6275, 32.16684
638.1096, 32.61946
638.5917, 32.92184
639.0739, 32.19374
639.5560, 33.25482
640.0381, 33.83968
640.5202, 33.97390
641.0023, 32.30781
641.4844, 32.96646
641.9666, 32.69345
642.4487, 32.38224
642.9308, 33.36808
643.4129, 31.96385
643.8950, 32.92912
644.3771, 32.94852
644.8593, 33.40082
645.3414, 32.91573
645.8235, 32.72016
646.3056, 33.46230
646.7877, 33.68522
647.2698, 33.09222
647.7520, 33.57203
648.2341, 32.13506
648.7162, 32.38009
649.1983, 33.35085
649.6804, 32.80497
650.1625, 33.30194
650.6447, 33.40172
651.1268, 32.95551
651.6089, 33.42328
652.0910, 33.23015
652.5731, 32.69152
653.0552, 32.38752
653.5374, 32.55705
654.0195, 32.74755
654.5016, 32.58799
654.9837, 32.29671
655.4658, 32.19320
655.9479, 32.62880
656.4301, 32.94963
656.9122, 32.97323
657.3943, 32.79362
657.8764, 32.64237
658.3585, 32.47260
658.8406, 32.45152
659.3228, 32.71269
659.8049, 33.16206
660.2870, 33.20924
660.7691, 32.83452
661.2512, 32.57201
661.7333, 32.93290
662.2155, 33.59320
662.6976, 33.91068
663.1797, 33.86906
663.6618, 33.76377
664.1439, 33.85107
664.6260, 33.93560
665.1082, 33.79021
665.5903, 33.25750
666.0724, 32.92587
666.5545, 33.09891
667.0366, 33.44694
667.5187, 33.66309
668.0009, 33.68566
668.4830, 33.71804
668.9651, 33.81728
669.4472, 33.87803
669.9293, 33.62288
670.4114, 33.04509
670.8936, 32.80506
671.3757, 33.21780
671.8578, 33.84047
672.3399, 33.85125
672.8220, 33.42631
673.3041, 33.16747
673.7863, 33.68539
674.2684, 34.21440
674.7505, 34.09154
675.2326, 33.44484
675.7147, 32.95602
676.1968, 32.04635
676.6790, 33.14980
677.1611, 33.77704
677.6432, 33.95364
678.1253, 32.32994
678.6074, 33.03096
679.0895, 32.80034
679.5717, 32.53152
680.0538, 33.55973
680.5359, 32.19788
681.0180, 33.20553
681.5001, 33.26732
681.9822, 33.76200
682.4644, 33.31929
682.9465, 33.16611
683.4286, 33.95063
683.9107, 33.25182
684.3928, 33.20852
684.8749, 33.10348
685.3571, 33.02891
685.8392, 33.07346
686.3213, 33.06907
686.8034, 32.92272
687.2855, 31.98095
687.7676, 33.00852
688.2498, 33.55986
688.7319, 33.66059
689.2140, 31.96100
689.6961, 32.58614
690.1782, 32.27963
690.6603, 31.93493
691.1425, 32.88725
691.6246, 31.44952
692.1067, 32.38129
692.5888, 32.36720
693.0709, 32.78600
693.5530, 32.26741
694.0352, 31.87229
694.5173, 31.88416
694.9994, 32.00148
695.4815, 32.22797
695.9636, 32.27515
696.4457, 31.82953
696.9279, 31.46109
697.4100, 31.47705
697.8921, 31.96330
698.3742, 32.23478
698.8563, 32.23942
699.3384, 32.18915
699.8206, 32.31240
700.3027, 32.55387
700.7848, 32.63448
701.2669, 32.50872
701.7490, 32.34922
702.2311, 32.35727
702.7133, 32.42165
703.1954, 32.37099
703.6775, 32.07309
704.1596, 31.84487
704.6417, 31.87737
705.1238, 32.02475
705.6060, 32.08191
706.0881, 31.96194
706.5702, 31.88094
707.0523, 31.88547
707.5344, 31.92007
708.0165, 31.84425
708.4987, 31.64659
708.9808, 31.52151
709.4629, 31.54198
709.9450, 31.64918
710.4271, 31.78213
710.9092, 31.91652
711.3914, 31.96677
711.8735, 31.74237
712.3556, 31.54132
712.8377, 31.62257
713.3198, 31.93207
713.8019, 32.18392
714.2841, 32.38946
714.7662, 32.42808
715.2483, 32.17814
715.7304, 31.65677
716.2125, 31.37627
716.6946, 31.39151
717.1768, 31.49140
717.6589, 31.56147
718.1410, 31.60997
718.6231, 31.72508
719.1052, 31.91114
719.5873, 32.03252
720.0695, 31.88923
720.5516, 31.66356
721.0337, 31.58210
721.5158, 31.67848
721.9979, 31.87777
722.4800, 32.34895
722.9622, 32.78068
723.4443, 32.91222
723.9264, 32.58801
724.4085, 32.22779
724.8906, 31.73663
725.3727, 31.31667
725.8549, 31.20609
726.3370, 31.42553
726.8191, 31.63969
727.3012, 31.81640
727.7833, 31.94909
728.2654, 31.99083
728.7476, 31.98083
729.2297, 32.02494
729.7118, 32.20269
730.1939, 32.33661
730.6760, 32.26738
731.1581, 32.08525
731.6403, 31.92848
732.1224, 31.84338
732.6045, 31.76904
733.0866, 31.67937
733.5687, 31.60113
734.0508, 31.62326
734.5330, 31.80372
735.0151, 31.81377
735.4972, 31.46890
735.9793, 31.01354
736.4614, 31.11640
736.9435, 31.66099
737.4257, 32.04726
737.9078, 31.78107
738.3899, 31.37397
738.8720, 31.31920
739.3541, 31.52781
739.8362, 31.68779
740.3184, 31.63349
740.8005, 31.56417
741.2826, 31.57578
741.7647, 31.65231
742.2468, 31.63723
742.7289, 31.47849
743.2111, 31.36002
743.6932, 31.39192
744.1753, 31.53940
744.6574, 31.59248
745.1395, 31.55342
745.6216, 31.51281
746.1038, 31.55001
746.5859, 31.61309
747.0680, 31.62166
747.5501, 31.57613
748.0322, 31.57331
748.5143, 31.74108
748.9965, 31.89910
749.4786, 31.92439
749.9607, 31.77681
750.4428, 31.66180
750.9249, 31.55510
751.4070, 31.51787
751.8892, 31.64987
752.3713, 31.94658
752.8534, 32.06911
753.3355, 30.92396
753.8176, 32.00319
754.2997, 32.60621
754.7819, 32.75859
755.2640, 31.11066
755.7461, 31.78746
756.2282, 31.53262
756.7103, 31.23957
757.1924, 32.24356
757.6746, 30.85748
758.1567, 31.84090
758.6388, 31.60011
759.1209, 31.56720
759.6030, 31.61881
760.0851, 31.51648
760.5673, 31.25201
761.0494, 31.04112
761.5315, 30.89609
762.0136, 30.85567
762.4957, 31.02174
762.9778, 31.31362
763.4600, 31.58868
763.9421, 31.81781
764.4242, 32.00066
764.9063, 32.21466
765.3884, 32.35105
765.8705, 32.27108
766.3527, 31.62000
766.8348, 31.24922
767.3169, 31.26721
767.7990, 31.51168
768.2811, 31.79053
768.7632, 32.11215
769.2454, 32.27486
769.7275, 32.19501
770.2096, 32.04664
770.6917, 32.10273
771.1738, 32.27652
771.6559, 32.37438
772.1381, 32.27274
772.6202, 32.15352
773.1023, 32.09927
773.5844, 32.09566
774.0665, 32.12098
774.5486, 32.23573
775.0308, 32.27937
775.5129, 32.18845
775.9950, 32.04497
776.4771, 32.06263
776.9592, 32.24993
777.4413, 32.35826
777.9235, 32.30728
778.4056, 32.15499
778.8877, 31.86620
779.3698, 31.54414
779.8519, 31.45420
780.3340, 31.98324
780.8162, 32.49590
781.2983, 32.71456
781.7804, 32.69398
782.2625, 32.56721
782.7446, 32.17779
783.2267, 31.97941
783.7089, 32.13245
784.1910, 32.49695
784.6731, 32.71825
785.1552, 32.79735
785.6373, 32.64012
786.1194, 32.00566
786.6016, 31.34615
787.0837, 31.49146
787.5658, 32.17849
788.0479, 32.67981
788.5300, 32.45688
789.0121, 32.17124
789.4943, 32.12877
789.9764, 32.26453
790.4585, 32.28690
790.9406, 32.08938
791.4227, 31.98323
791.9048, 32.09588
792.3870, 32.33637
792.8691, 32.34926
793.3512, 32.15760
793.8333, 32.12156
794.3154, 32.59872
794.7975, 33.16072
795.2797, 33.22667
795.7618, 32.92583
796.2439, 32.66832
796.7260, 32.57496
797.2081, 32.60249
797.6902, 32.85136
798.1724, 33.22655
798.6545, 33.35177
799.1366, 33.14907
799.6187, 32.88187
800.1008, 32.55058
800.5829, 32.26855
801.0651, 32.54663
801.5472, 33.27694
802.0293, 33.76871
802.5114, 33.37515
802.9935, 32.78963
803.4756, 32.66278
803.9578, 32.88277
804.4399, 33.06958
804.9220, 33.14425
805.4041, 33.12728
805.8862, 33.02409
806.3683, 32.83932
806.8505, 32.52444
807.3326, 31.99827
807.8147, 31.76438
808.2968, 32.16116
808.7789, 32.84233
809.2610, 32.97449
809.7432, 32.67885
810.2253, 32.44937
810.7074, 32.59832
811.1895, 32.84750
811.6716, 33.08457
812.1537, 33.28592
812.6359, 33.37524
813.1180, 33.25527
813.6001, 33.14363
814.0822, 33.10741
814.5643, 33.10873
815.0464, 32.95550
815.5286, 32.64227
816.0107, 32.49973
816.4928, 32.77568
816.9749, 33.18177
817.4570, 33.30268
817.9391, 33.18995
818.4213, 32.99570
818.9034, 32.64143
819.3855, 32.37373
819.8676, 32.34463
820.3497, 32.49065
820.8318, 32.58970
821.3140, 32.63663
821.7961, 32.63506
822.2782, 32.54581
822.7603, 32.44609
823.2424, 32.58562
823.7245, 32.91818
824.2067, 33.13773
824.6888, 33.05824
825.1709, 32.89503
825.6530, 32.85827
826.1351, 32.88762
826.6172, 32.85040
827.0994, 32.68560
827.5815, 32.47029
828.0636, 32.13136
828.5457, 31.79182
829.0278, 31.74520
829.5099, 32.04475
829.9921, 32.28874
830.4742, 32.38131
830.9563, 32.36920
831.4384, 32.25558
831.9205, 32.09851
832.4026, 32.05168
832.8848, 32.26704
833.3669, 32.46605
833.8490, 32.48082
834.3311, 32.39209
834.8132, 32.34347
835.2953, 32.43039
835.7775, 32.37062
836.2596, 32.04386
836.7417, 31.67768
837.2238, 31.70300
837.7059, 32.07224
838.1880, 32.34309
838.6702, 32.41035
839.1523, 32.37517
839.6344, 32.24122
840.1165, 32.10477
840.5986, 32.11789
841.0807, 32.49159
841.5629, 32.73209
842.0450, 32.64191
842.5271, 32.44265
843.0092, 32.35143
843.4913, 32.38944
843.9734, 32.42094
844.4556, 32.43739
844.9377, 32.43328
845.4198, 32.34592
845.9019, 32.24408
846.3840, 32.33097
846.8661, 32.71848
847.3483, 32.93223
847.8304, 32.38205
848.3125, 31.73172
848.7946, 31.64916
849.2767, 32.57412
849.7589, 32.98357
850.2410, 32.71428
850.7231, 32.23796
851.2052, 31.89946
851.6873, 31.70487
852.1694, 31.74276
852.6516, 32.02974
853.1337, 32.27007
853.6158, 32.15216
854.0979, 31.91400
854.5800, 31.77706
855.0621, 31.77417
855.5443, 31.82225
856.0264, 31.97259
856.5085, 32.09883
856.9906, 32.13464
857.4727, 32.08040
857.9548, 32.00310
858.4370, 31.89614
858.9191, 31.84185
859.4012, 31.93872
859.8833, 32.10583
860.3654, 32.25871
860.8475, 32.37959
861.3297, 32.36577
861.8118, 32.07529
862.2939, 31.72903
862.7760, 31.38093
863.2581, 31.05089
863.7402, 30.89321
864.2224, 30.94583
864.7045, 31.05492
865.1866, 31.21300
865.6687, 31.34460
866.1508, 31.17204
866.6329, 30.76913
867.1151, 30.46214
867.5972, 30.43150
868.0793, 30.53830
868.5614, 30.81995
869.0435, 31.18151
869.5256, 31.30453
870.0078, 30.96127
870.4899, 30.77136
870.9720, 30.89626
871.4541, 31.18873
871.9362, 31.33635
872.4183, 31.35125
872.9005, 31.33422
873.3826, 31.33788
873.8647, 31.27535
874.3468, 30.91861
874.8289, 30.48241
875.3110, 30.29726
875.7932, 30.85012
876.2753, 31.11651
876.7574, 30.89645
877.2395, 30.47388
877.7216, 30.13237
878.2037, 29.86739
878.6859, 29.86566
879.1680, 30.20701
879.6501, 30.52079
880.1322, 30.29588
880.6143, 29.82969
881.0964, 29.57086
881.5786, 29.64463
882.0607, 29.72441
882.5428, 29.68860
883.0249, 29.62416
883.5070, 29.58877
883.9891, 29.58442
884.4713, 29.60639
884.9534, 29.66447
885.4355, 29.69713
885.9176, 29.65390
886.3997, 29.55014
886.8818, 29.36345
887.3640, 29.11039
887.8461, 28.98825
888.3282, 29.31492
888.8103, 29.61372
889.2924, 29.55287
889.7745, 29.15907
890.2567, 28.92882
890.7388, 28.88919
891.2209, 28.94480
891.7030, 29.10532
892.1851, 29.30120
892.6672, 29.32790
893.1494, 29.22025
893.6315, 29.12817
894.1136, 29.14556
894.5957, 29.18213
895.0778, 29.20628
895.5599, 29.20954
896.0421, 29.16105
896.5242, 28.97948
897.0063, 28.93551
897.4884, 29.14646
897.9705, 29.40965
898.4526, 29.30485
898.9348, 28.90735
899.4169, 28.54742
899.8990, 28.27633
900.3811, 28.15124
900.8632, 28.41462
901.3453, 28.75269
901.8275, 28.78986
902.3096, 28.12714
902.7917, 27.77803
903.2738, 27.87357
903.7559, 28.09689
904.2380, 28.17919
904.7202, 28.13077
905.2023, 28.03571
905.6844, 27.89963
906.1665, 27.74366
906.6486, 27.54462
907.1307, 27.36414
907.6129, 27.24486
908.0950, 27.19117
908.5771, 27.24462
909.0592, 27.51463
909.5413, 27.74522
910.0234, 27.84501
910.5056, 27.81799
910.9877, 27.60519
911.4698, 27.22382
911.9519, 26.99716
912.4340, 27.29047
912.9161, 27.67984
913.3983, 27.76495
913.8804, 27.59587
914.3625, 27.31113
914.8446, 26.64568
915.3267, 26.27660
915.8088, 26.44168
916.2910, 26.86889
916.7731, 27.01145
917.2552, 26.87538
917.7373, 26.71213
918.2194, 26.54935
918.7015, 26.47170
919.1837, 26.63110
919.6658, 26.90989
920.1479, 27.16066
920.6300, 27.40865
921.1121, 27.48669
921.5942, 27.32246
922.0764, 27.05065
922.5585, 26.73182
923.0406, 26.35923
923.5227, 26.14853
924.0048, 26.10846
924.4869, 26.20261
924.9691, 26.61726
925.4512, 27.01530
925.9333, 26.86705
926.4154, 26.18378
926.8975, 25.80053
927.3796, 26.35147
927.8618, 26.78725
928.3439, 26.69256
928.8260, 26.20084
929.3081, 26.03891
929.7902, 26.19942
930.2723, 26.32770
930.7545, 26.21454
931.2366, 26.05290
931.7187, 26.08252
932.2008, 26.23077
932.6829, 26.34794
933.1650, 26.47820
933.6472, 26.43683
934.1293, 26.06436
934.6114, 25.64481
935.0935, 25.62487
935.5756, 25.99998
936.0577, 26.32044
936.5399, 26.52258
937.0220, 26.65536
937.5041, 26.79297
937.9862, 26.87002
938.4683, 26.80406
938.9504, 26.57139
939.4326, 26.23818
939.9147, 25.59950
940.3968, 25.15247
940.8789, 25.23684
941.3610, 25.79953
941.8431, 26.19056
942.3253, 26.41139
942.8074, 26.41653
943.2895, 25.97609
943.7716, 25.47333
944.2537, 25.26415
944.7358, 25.29554
945.2180, 25.34152
945.7001, 25.35408
946.1822, 25.37723
946.6643, 25.42326
947.1464, 25.48025
947.6285, 25.50994
948.1107, 25.52068
948.5928, 25.60033
949.0749, 25.81666
949.5570, 25.95623
950.0391, 25.70596
950.5212, 25.33441
951.0034, 25.15603
951.4855, 25.31015
951.9676, 25.46960
952.4497, 25.63497
952.9318, 25.79362
953.4139, 25.92803
953.8961, 26.04487
954.3782, 26.21512
954.8603, 26.43018
955.3424, 26.56356
955.8245, 26.50893
956.3066, 26.36081
956.7888, 26.09030
957.2709, 25.74842
957.7530, 25.70039
958.2351, 26.14495
958.7172, 26.42134
959.1993, 26.30703
959.6815, 25.98213
960.1636, 25.78929
960.6457, 25.71390
961.1278, 25.73821
961.6099, 25.97131
962.0920, 26.06512
962.5742, 25.65924
963.0563, 25.09636
963.5384, 24.76688
964.0205, 24.70608
964.5026, 24.83120
964.9847, 25.19638
965.4669, 25.55071
965.9490, 25.60707
966.4311, 25.50116
966.9132, 25.53993
967.3953, 25.72922
967.8774, 25.88614
968.3596, 25.92455
968.8417, 25.89991
969.3238, 25.81293
969.8059, 25.68393
970.2880, 25.60340
970.7701, 25.57679
971.2523, 25.53801
971.7344, 25.43240
972.2165, 25.35774
972.6986, 25.54673
973.1807, 25.85192
973.6628, 25.98130
974.1450, 25.68674
974.6271, 25.47687
975.1092, 25.48608
975.5913, 25.57913
976.0734, 25.62998
976.5555, 25.63636
977.0377, 25.75527
977.5198, 26.00360
978.0019, 26.14500
978.4840, 25.81891
978.9661, 25.40758
979.4482, 25.35314
979.9304, 25.65619
980.4125, 25.81014
980.8946, 25.69761
981.3767, 25.48818
981.8588, 25.17704
982.3409, 24.84020
982.8231, 24.67542
983.3052, 24.67650
983.7873, 24.83064
984.2694, 25.22211
984.7515, 25.59073
985.2336, 25.79225
985.7158, 25.84631
986.1979, 25.75384
986.6800, 25.37219
987.1621, 25.22616
987.6442, 25.39722
988.1263, 25.57575
988.6085, 25.33572
989.0906, 24.92273
989.5727, 25.08386
990.0548, 25.78441
990.5369, 26.25754
991.0190, 25.91704
991.5012, 25.44338
991.9833, 25.10421
992.4654, 24.89902
992.9475, 24.81534
993.4296, 24.85636
993.9117, 25.02975
994.3939, 25.42731
994.8760, 25.75854
995.3581, 25.43620
995.8402, 24.84409
996.3223, 24.62405
996.8044, 25.21166
997.2866, 25.56866
997.7687, 25.47011
998.2508, 25.19842
998.7329, 24.85901
999.2150, 24.47294
999.6971, 24.60446
1000.179, 25.23354
1000.661, 25.73862
1001.143, 25.49236
1001.626, 25.12290
1002.108, 25.20034
1002.590, 25.61432
1003.072, 25.71500
1003.554, 25.31592
1004.036, 24.96727
1004.518, 24.77200
1005.000, 24.69661
1005.483, 24.72469
1005.965, 24.82678
1006.447, 24.94052
1006.929, 25.07381
1007.411, 25.12467
1007.893, 24.83939
1008.375, 24.62596
1008.857, 24.86059
1009.339, 25.60891
1009.822, 25.80418
1010.304, 25.39087
1010.786, 25.03382
1011.268, 25.30894
1011.750, 25.77152
1012.232, 25.81675
1012.714, 25.57428
1013.196, 25.42652
1013.679, 25.61326
1014.161, 25.72855
1014.643, 25.66287
1015.125, 25.56128
1015.607, 25.67340
1016.089, 25.95525
1016.571, 26.17005
1017.053, 26.29246
1017.535, 26.23006
1018.018, 25.67416
1018.500, 25.08907
1018.982, 24.88472
1019.464, 25.09422
1019.946, 25.20148
1020.428, 25.20157
1020.910, 25.09980
1021.392, 24.79143
1021.875, 24.49985
1022.357, 24.78529
1022.839, 25.42337
1023.321, 25.88667
1023.803, 25.87143
1024.285, 25.81531
1024.767, 25.80387
1025.249, 25.81210
1025.731, 25.84215
1026.214, 25.89564
1026.696, 25.79651
1027.178, 25.53149
1027.660, 25.28221
1028.142, 25.13669
1028.624, 25.11004
1029.106, 25.29787
1029.588, 25.65604
1030.071, 25.83517
1030.553, 25.74303
1031.035, 25.65054
1031.517, 25.61791
1031.999, 25.62516
1032.481, 25.65538
1032.963, 25.69402
1033.445, 25.69918
1033.927, 25.64907
1034.410, 25.60787
1034.892, 25.59458
1035.374, 25.61058
1035.856, 25.66809
1036.338, 25.76940
1036.820, 25.82147
1037.302, 25.82420
1037.784, 25.74979
1038.266, 25.40463
1038.749, 25.12142
1039.231, 25.37945
1039.713, 25.95370
1040.195, 26.29529
1040.677, 26.24123
1041.159, 26.03402
1041.641, 25.60919
1042.123, 25.20055
1042.605, 25.13462
1043.088, 25.30955
1043.570, 25.47382
1044.052, 25.60021
1044.534, 25.61367
1045.016, 25.31894
1045.498, 25.05840
1045.980, 25.04626
1046.462, 25.21686
1046.945, 25.29935
1047.427, 25.29675
1047.909, 25.08407
1048.391, 24.47469
1048.873, 23.98658
1049.355, 24.39080
1049.837, 25.16570
1050.319, 25.60203
1050.802, 25.39507
1051.284, 25.19682
1051.766, 24.97781
1052.248, 24.86097
1052.730, 25.01245
1053.212, 25.32490
1053.694, 25.46305
1054.176, 25.44953
1054.658, 25.39585
1055.141, 25.34084
1055.623, 25.27220
1056.105, 25.14332
1056.587, 25.02160
1057.069, 25.05176
1057.551, 25.24249
1058.033, 25.23203
1058.515, 24.95116
1058.998, 24.68564
1059.480, 24.79583
1059.962, 24.96777
1060.444, 24.80756
1060.926, 24.29046
1061.408, 24.22149
1061.890, 24.84356
1062.372, 25.31301
1062.854, 25.32037
1063.337, 25.05033
1063.819, 24.72198
1064.301, 24.41005
1064.783, 24.31315
1065.265, 24.63021
1065.747, 24.81541
1066.229, 24.60471
1066.711, 24.30016
1067.193, 24.03532
1067.676, 23.82096
1068.158, 23.91791
1068.640, 24.30231
1069.122, 24.61321
1069.604, 24.52928
1070.086, 24.40140
1070.568, 24.50548
1071.050, 24.72899
1071.532, 24.79894
1072.015, 24.62982
1072.497, 24.61920
1072.979, 24.84413
1073.461, 25.06454
1073.943, 24.98523
1074.425, 24.76343
1074.907, 24.58588
1075.389, 24.47470
1075.872, 24.46462
1076.354, 24.62920
1076.836, 24.81701
1077.318, 25.03721
1077.800, 25.20298
1078.282, 25.06588
1078.764, 24.70020
1079.246, 24.34498
1079.729, 24.00089
1080.211, 23.89022
1080.693, 24.40201
1081.175, 24.97474
1081.657, 25.18989
1082.139, 25.04892
1082.621, 24.72740
1083.103, 24.21684
1083.585, 23.89193
1084.068, 24.11665
1084.550, 24.44578
1085.032, 24.40735
1085.514, 24.17932
1085.996, 24.09202
1086.478, 24.33085
1086.960, 24.36273
1087.442, 24.11657
1087.925, 23.83476
1088.407, 23.76503
1088.889, 23.80853
1089.371, 23.72919
1089.853, 23.55881
1090.335, 23.56234
1090.817, 24.12043
1091.299, 24.49344
1091.781, 24.46915
1092.264, 24.21752
1092.746, 23.99370
1093.228, 23.81019
1093.710, 23.72202
1094.192, 23.73392
1094.674, 23.88924
1095.156, 24.47612
1095.638, 24.98255
1096.120, 25.01496
1096.603, 24.64111
1097.085, 24.25161
1097.567, 23.83615
1098.049, 23.70519
1098.531, 24.10604
1099.013, 24.55299
1099.495, 24.48342
1099.977, 24.18094
1100.459, 24.02925
1100.942, 24.20347
1101.424, 24.11622
1101.906, 23.66878
1102.388, 23.28081
1102.870, 23.28408
1103.352, 23.49600
1103.834, 23.59422
1104.316, 23.60183
1104.799, 23.58069
1105.281, 23.51677
1105.763, 23.47994
1106.245, 23.50090
1106.727, 23.51955
1107.209, 23.40549
1107.691, 23.22620
1108.173, 23.35665
1108.656, 23.78823
1109.138, 24.08500
1109.620, 23.83846
1110.102, 23.57876
1110.584, 23.57485
1111.066, 23.71838
1111.548, 23.77341
1112.030, 23.74266
1112.512, 23.77914
1112.995, 23.93073
1113.477, 24.01321
1113.959, 23.80080
1114.441, 23.49934
1114.923, 23.27577
1115.405, 23.13894
1115.887, 23.01445
1116.369, 22.89411
1116.852, 22.83017
1117.334, 22.85342
1117.816, 22.91538
1118.298, 22.88237
1118.780, 22.87514
1119.262, 23.12657
1119.744, 23.91388
1120.226, 24.17862
1120.708, 23.66782
1121.191, 23.19057
1121.673, 23.34210
1122.155, 23.79349
1122.637, 23.67916
1123.119, 23.19952
1123.601, 22.90797
1124.083, 23.31015
1124.565, 23.49773
1125.047, 23.21701
1125.530, 22.83978
1126.012, 22.73950
1126.494, 22.85227
1126.976, 22.75349
1127.458, 22.47421
1127.940, 22.38465
1128.422, 22.94584
1128.904, 23.46201
1129.386, 23.60178
1129.869, 23.52263
1130.351, 23.41228
1130.833, 23.27279
1131.315, 23.23807
1131.797, 23.32683
1132.279, 23.46426
1132.761, 23.78752
1133.243, 23.96390
1133.726, 23.59704
1134.208, 22.83194
1134.690, 22.37451
1135.172, 22.23716
1135.654, 22.36779
1136.136, 22.83029
1136.618, 23.27209
1137.100, 23.26365
1137.583, 23.04915
1138.065, 22.88674
1138.547, 22.82214
1139.029, 22.71518
1139.511, 22.55865
1139.993, 22.35597
1140.475, 22.01541
1140.957, 21.77818
1141.439, 22.30091
1141.922, 23.11159
1142.404, 23.33943
1142.886, 22.37541
1143.368, 21.94275
1143.850, 22.40184
1144.332, 22.87993
1144.814, 22.73633
1145.296, 22.27493
1145.779, 22.35983
1146.261, 22.80499
1146.743, 23.06901
1147.225, 22.70759
1147.707, 22.46935
1148.189, 22.55160
1148.671, 22.66931
1149.153, 22.52307
1149.635, 22.18825
1150.118, 22.02066
1150.600, 22.01855
1151.082, 22.09785
1151.564, 22.40912
1152.046, 22.54832
1152.528, 22.19345
1153.010, 21.73215
1153.492, 21.72467
1153.974, 22.12720
1154.457, 22.49369
1154.939, 22.77937
1155.421, 22.90817
1155.903, 22.70432
1156.385, 22.45049
1156.867, 22.27704
1157.349, 22.18710
1157.831, 22.25952
1158.313, 22.49968
1158.796, 22.41058
1159.278, 21.85099
1159.760, 21.44414
1160.242, 22.03424
1160.724, 22.73679
1161.206, 22.70614
1161.688, 22.05243
1162.170, 21.82270
1162.653, 22.05565
1163.135, 22.30750
1163.617, 22.48704
1164.099, 22.53518
1164.581, 22.21720
1165.063, 21.84718
1165.545, 21.84614
1166.027, 22.30833
1166.510, 22.30344
1166.992, 21.70440
1167.474, 21.37919
1167.956, 21.83454
1168.438, 22.45271
1168.920, 22.37431
1169.402, 21.96544
1169.884, 21.75271
1170.366, 21.90359
1170.849, 22.05502
1171.331, 22.24061
1171.813, 22.30264
1172.295, 22.05671
1172.777, 21.72616
1173.259, 21.68468
1173.741, 21.83228
1174.223, 21.97592
1174.706, 22.15555
1175.188, 22.14893
1175.670, 21.91167
1176.152, 21.60116
1176.634, 21.14527
1177.116, 20.78990
1177.598, 21.29378
1178.080, 22.31870
1178.563, 22.83985
1179.045, 22.00528
1179.527, 21.42305
1180.009, 21.24595
1180.491, 21.28105
1180.973, 21.36646
1181.455, 21.51098
1181.937, 21.80473
1182.419, 22.19594
1182.901, 22.43600
1183.384, 22.29684
1183.866, 22.17067
1184.348, 22.10599
1184.830, 22.10297
1185.312, 22.24296
1185.794, 22.42779
1186.276, 22.30274
1186.758, 21.88634
1187.240, 21.67187
1187.723, 22.22587
1188.205, 22.51428
1188.687, 22.18518
1189.169, 21.62083
1189.651, 21.44238
1190.133, 21.55148
1190.615, 21.68660
1191.097, 21.81306
1191.580, 21.86311
1192.062, 21.67425
1192.544, 21.56901
1193.026, 21.65015
1193.508, 21.87670
1193.990, 22.32505
1194.472, 22.84721
1194.954, 22.80758
1195.437, 22.01621
1195.919, 21.40202
1196.401, 21.42217
1196.883, 21.70755
1197.365, 22.24845
1197.847, 22.83484
1198.329, 22.69759
1198.811, 22.04724
1199.293, 21.73589
1199.776, 22.05050
1200.258, 22.34876
1200.740, 22.20653
1201.222, 22.12295
1201.704, 22.43562
1202.186, 22.96707
1202.668, 22.94989
1203.150, 22.50128
1203.633, 22.06586
1204.115, 21.73289
1204.597, 21.58030
1205.079, 21.84271
1205.561, 22.10544
1206.043, 22.13106
1206.525, 21.95458
1207.007, 21.61826
1207.490, 21.20948
1207.972, 21.13770
1208.454, 21.77409
1208.936, 22.34628
1209.418, 22.51778
1209.900, 22.50297
1210.382, 22.37978
1210.864, 22.17890
1211.346, 22.15838
1211.828, 22.27628
1212.311, 22.32831
1212.793, 22.18319
1213.275, 22.01608
1213.757, 21.78652
1214.239, 21.66471
1214.721, 21.91242
1215.203, 22.42867
1215.685, 22.29338
1216.167, 21.63745
1216.650, 21.15803
1217.132, 21.33119
1217.614, 21.57197
1218.096, 21.77782
1218.578, 21.89423
1219.060, 21.81483
1219.542, 21.58419
1220.024, 21.52397
1220.507, 21.61244
1220.989, 21.69446
1221.471, 21.66531
1221.953, 21.65527
1222.435, 21.68043
1222.917, 21.76230
1223.399, 22.00959
1223.881, 22.34504
1224.364, 22.26756
1224.846, 21.84935
1225.328, 21.62344
1225.810, 22.17061
1226.292, 22.49634
1226.774, 22.24255
1227.256, 21.84541
1227.738, 21.89339
1228.220, 22.22649
1228.703, 22.22708
1229.185, 21.90877
1229.667, 21.60617
1230.149, 21.37803
1230.631, 21.34536
1231.113, 21.66344
1231.595, 21.97152
1232.077, 21.61172
1232.560, 20.91019
1233.042, 20.88424
1233.524, 21.51644
1234.006, 22.07085
1234.488, 22.35706
1234.970, 22.30839
1235.452, 21.75315
1235.934, 21.16434
1236.417, 21.32508
1236.899, 21.89175
1237.381, 22.03924
1237.863, 21.75355
1238.345, 21.61249
1238.827, 21.99228
1239.309, 22.23274
1239.791, 22.17837
1240.273, 22.05395
1240.755, 22.24798
1241.238, 22.55112
1241.720, 22.51188
1242.202, 22.12804
1242.684, 21.89130
1243.166, 22.04027
1243.648, 21.99177
1244.130, 21.52768
1244.612, 21.12370
1245.094, 21.59961
1245.577, 22.43672
1246.059, 22.87452
1246.541, 22.86289
1247.023, 22.68593
1247.505, 22.29545
1247.987, 22.00497
1248.469, 21.88390
1248.951, 21.86791
1249.434, 21.94122
1249.916, 22.03431
1250.398, 22.05849
1250.880, 22.00959
1251.362, 21.97180
1251.844, 21.94429
1252.326, 21.93561
1252.808, 21.93539
1253.291, 22.00983
1253.773, 22.38960
1254.255, 22.76022
1254.737, 22.73184
1255.219, 22.33813
1255.701, 22.18979
1256.183, 22.31999
1256.665, 22.40939
1257.147, 22.38583
1257.630, 22.30666
1258.112, 22.17291
1258.594, 22.04944
1259.076, 21.99055
1259.558, 21.99128
1260.040, 22.06684
1260.522, 22.21454
1261.004, 22.22189
1261.487, 22.01506
1261.969, 21.85078
1262.451, 21.99979
1262.933, 22.18457
1263.415, 22.22453
1263.897, 22.15254
1264.379, 22.06524
1264.861, 21.96560
1265.344, 21.87831
1265.826, 21.80976
1266.308, 21.75066
1266.790, 21.64896
1267.272, 21.61279
1267.754, 21.69019
1268.236, 21.86169
1268.718, 22.14598
1269.200, 22.48486
1269.682, 22.64486
1270.165, 22.56772
1270.647, 22.46558
1271.129, 22.37984
1271.611, 22.34406
1272.093, 22.36685
1272.575, 22.44798
1273.057, 22.65517
1273.539, 22.90376
1274.021, 22.98879
1274.504, 22.86507
1274.986, 22.72272
1275.468, 22.60149
1275.950, 22.45750
1276.432, 22.26676
1276.914, 22.06758
1277.396, 21.82452
1277.878, 21.65667
1278.361, 21.82151
1278.843, 22.37050
1279.325, 22.68527
1279.807, 22.73808
1280.289, 22.49633
1280.771, 21.83557
1281.253, 21.24668
1281.735, 21.52193
1282.218, 22.04404
1282.700, 22.03757
1283.182, 21.50599
1283.664, 21.42495
1284.146, 21.82965
1284.628, 22.32909
1285.110, 22.88736
1285.592, 23.23611
1286.074, 22.95468
1286.557, 22.53750
1287.039, 22.36339
1287.521, 22.38521
1288.003, 22.42994
1288.485, 22.49421
1288.967, 22.54615
1289.449, 22.58265
1289.931, 22.57175
1290.414, 22.39865
1290.896, 22.28835
1291.378, 22.38625
1291.860, 22.58445
1292.342, 22.60111
1292.824, 22.48389
1293.306, 22.37493
1293.788, 22.29389
1294.271, 22.31608
1294.753, 22.60359
1295.235, 22.83294
1295.717, 22.93747
1296.199, 22.90537
1296.681, 22.57069
1297.163, 22.14381
1297.645, 22.05388
1298.127, 22.35419
1298.609, 22.58724
1299.092, 22.71418
1299.574, 22.69205
1300.056, 22.45337
1300.538, 22.26351
1301.020, 22.70416
1301.502, 23.19452
1301.984, 22.85684
1302.466, 21.77560
1302.948, 21.46017
1303.431, 22.03657
1303.913, 22.51771
1304.395, 22.74393
##END=



