##NAMES=Vanadinite
##RRUFFID=R050530
##IDEAL CHEMISTRY=Pb^2+^_5_(V^5+^O_4_)_3_Cl
##LOCALITY=Hillsboro, Sierra County, New Mexico, USA
##OWNER=RRUFF
##SOURCE=University of Arizona Mineral Museum
##DESCRIPTION=Yellow hexagonal prisms
##STATUS=The identification of this mineral has been confirmed by X-ray diffraction and chemical analysis
##URL=rruff.info/R050530
##MEASURED CHEMISTRY=Pb_5.00_((V_0.93_As_0.07_)O_4_)_3_Cl_1.00_
90.92609, 0.0000000E+00
91.40820, 132.7648
91.89032, 132.9287
92.37244, 132.9561
92.85455, 132.8404
93.33667, 132.5433
93.81879, 131.4647
94.30090, 130.0956
94.78302, 130.1026
95.26514, 132.5450
95.74725, 135.9929
96.22937, 137.1659
96.71149, 135.9392
97.19360, 133.7447
97.67572, 131.2231
98.15784, 128.4438
98.63995, 127.2343
99.12207, 128.5654
99.60419, 132.1104
100.0863, 135.0100
100.5684, 137.0565
101.0505, 138.8842
101.5327, 141.4943
102.0148, 145.2004
102.4969, 148.5466
102.9790, 150.7190
103.4611, 151.1645
103.9432, 153.5380
104.4253, 158.6567
104.9075, 165.2557
105.3896, 170.3573
105.8717, 171.4739
106.3538, 174.5416
106.8359, 181.9871
107.3180, 195.6939
107.8002, 210.4072
108.2823, 226.3014
108.7644, 243.2015
109.2465, 261.1429
109.7286, 276.6840
110.2107, 295.5212
110.6929, 320.4223
111.1750, 354.5009
111.6571, 390.9525
112.1392, 428.1678
112.6213, 466.6693
113.1034, 511.2227
113.5856, 563.4893
114.0677, 622.2500
114.5498, 686.0988
115.0319, 748.7402
115.5140, 822.6263
115.9961, 909.8084
116.4783, 1010.422
116.9604, 1125.820
117.4425, 1261.642
117.9246, 1412.540
118.4067, 1571.183
118.8888, 1743.169
119.3710, 1917.679
119.8531, 2088.891
120.3352, 2255.545
120.8173, 2421.141
121.2994, 2588.281
121.7815, 2754.392
122.2637, 2915.683
122.7458, 3067.877
123.2279, 3213.915
123.7100, 3354.432
124.1921, 3488.214
124.6742, 3621.846
125.1564, 3749.774
125.6385, 3879.414
126.1206, 4034.963
126.6027, 4233.285
127.0848, 4465.334
127.5669, 4714.869
128.0491, 4979.996
128.5312, 5260.824
129.0133, 5557.938
129.4954, 5869.052
129.9775, 6197.839
130.4596, 6554.261
130.9418, 6930.145
131.4239, 7307.167
131.9060, 7681.602
132.3881, 8056.771
132.8702, 8437.850
133.3523, 8827.727
133.8345, 9209.209
134.3166, 9566.556
134.7987, 9902.774
135.2808, 10226.76
135.7629, 10545.82
136.2450, 10859.36
136.7272, 11156.35
137.2093, 11438.76
137.6914, 11704.23
138.1735, 11947.85
138.6556, 12164.96
139.1377, 12376.67
139.6199, 12589.85
140.1020, 12802.66
140.5841, 13012.38
141.0662, 13212.80
141.5483, 13415.12
142.0304, 13636.52
142.5126, 13886.39
142.9947, 14123.30
143.4768, 14284.67
143.9589, 14330.25
144.4410, 14395.48
144.9231, 14494.28
145.4053, 14603.78
145.8874, 14690.99
146.3695, 14750.40
146.8516, 14796.64
147.3337, 14834.57
147.8158, 14870.53
148.2980, 14885.81
148.7801, 14879.93
149.2622, 14854.65
149.7443, 14813.55
150.2264, 14766.90
150.7085, 14695.30
151.1907, 14592.39
151.6728, 14440.92
152.1549, 14285.49
152.6370, 14130.92
153.1191, 13972.23
153.6012, 13801.13
154.0834, 13609.34
154.5655, 13411.19
155.0476, 13209.25
155.5297, 13000.37
156.0118, 12797.21
156.4939, 12598.80
156.9761, 12405.40
157.4582, 12225.20
157.9403, 12066.37
158.4224, 11916.60
158.9045, 11768.00
159.3866, 11616.45
159.8688, 11471.15
160.3509, 11334.29
160.8330, 11206.21
161.3151, 11088.87
161.7972, 10983.83
162.2793, 10889.22
162.7615, 10803.62
163.2436, 10730.04
163.7257, 10661.98
164.2078, 10593.41
164.6899, 10525.56
165.1720, 10468.01
165.6541, 10431.26
166.1363, 10404.47
166.6184, 10376.94
167.1005, 10347.47
167.5826, 10314.13
168.0647, 10271.56
168.5468, 10220.70
169.0290, 10174.65
169.5111, 10140.90
169.9932, 10116.86
170.4753, 10099.10
170.9574, 10093.99
171.4395, 10089.98
171.9217, 10078.94
172.4038, 10060.87
172.8859, 10035.06
173.3680, 9997.175
173.8501, 9951.729
174.3322, 9905.859
174.8144, 9865.377
175.2965, 9824.454
175.7786, 9775.503
176.2607, 9717.696
176.7428, 9659.507
177.2249, 9612.166
177.7071, 9570.893
178.1892, 9522.848
178.6713, 9460.356
179.1534, 9387.897
179.6355, 9313.268
180.1176, 9236.306
180.5998, 9154.083
181.0819, 9060.033
181.5640, 8956.901
182.0461, 8850.957
182.5282, 8748.116
183.0103, 8645.111
183.4925, 8535.248
183.9746, 8418.727
184.4567, 8296.080
184.9388, 8166.147
185.4209, 8028.958
185.9030, 7892.271
186.3852, 7757.751
186.8673, 7626.327
187.3494, 7495.988
187.8315, 7366.796
188.3136, 7240.380
188.7957, 7116.108
189.2779, 6994.845
189.7600, 6872.159
190.2421, 6740.594
190.7242, 6604.641
191.2063, 6489.858
191.6884, 6402.156
192.1706, 6325.145
192.6527, 6228.839
193.1348, 6113.228
193.6169, 5997.725
194.0990, 5889.922
194.5811, 5789.972
195.0633, 5694.804
195.5454, 5605.595
196.0275, 5518.433
196.5096, 5427.560
196.9917, 5331.710
197.4738, 5241.385
197.9560, 5163.930
198.4381, 5099.717
198.9202, 5034.192
199.4023, 4966.567
199.8844, 4898.338
200.3665, 4834.142
200.8487, 4774.414
201.3308, 4714.638
201.8129, 4651.146
202.2950, 4583.265
202.7771, 4521.008
203.2592, 4464.459
203.7414, 4413.090
204.2235, 4365.999
204.7056, 4324.532
205.1877, 4283.572
205.6698, 4240.036
206.1519, 4193.074
206.6341, 4148.327
207.1162, 4106.186
207.5983, 4066.566
208.0804, 4030.353
208.5625, 3999.013
209.0446, 3967.593
209.5268, 3933.798
210.0089, 3897.331
210.4910, 3859.093
210.9731, 3816.337
211.4552, 3773.626
211.9373, 3744.180
212.4195, 3733.165
212.9016, 3722.658
213.3837, 3703.305
213.8658, 3671.686
214.3479, 3643.396
214.8300, 3618.373
215.3121, 3596.820
215.7943, 3580.333
216.2764, 3572.178
216.7585, 3562.386
217.2406, 3545.518
217.7227, 3518.722
218.2048, 3494.266
218.6870, 3472.128
219.1691, 3452.383
219.6512, 3434.913
220.1333, 3420.174
220.6154, 3406.709
221.0975, 3393.621
221.5797, 3380.885
222.0618, 3368.912
222.5439, 3357.156
223.0260, 3346.526
223.5081, 3339.672
223.9902, 3340.654
224.4724, 3338.583
224.9545, 3328.148
225.4366, 3304.981
225.9187, 3285.652
226.4008, 3269.514
226.8829, 3257.413
227.3651, 3251.466
227.8472, 3254.264
228.3293, 3258.831
228.8114, 3263.164
229.2935, 3268.582
229.7757, 3269.287
230.2578, 3263.100
230.7399, 3253.181
231.2220, 3245.646
231.7041, 3241.465
232.1862, 3238.054
232.6684, 3234.165
233.1505, 3228.725
233.6326, 3226.314
234.1147, 3228.155
234.5968, 3232.336
235.0789, 3235.063
235.5611, 3234.116
236.0432, 3235.371
236.5253, 3241.615
237.0074, 3254.978
237.4895, 3265.321
237.9716, 3272.115
238.4538, 3276.254
238.9359, 3278.686
239.4180, 3277.066
239.9001, 3277.632
240.3822, 3282.354
240.8643, 3291.614
241.3465, 3303.376
241.8286, 3319.733
242.3107, 3337.102
242.7928, 3350.006
243.2749, 3355.380
243.7570, 3361.486
244.2392, 3370.462
244.7213, 3382.594
245.2034, 3396.393
245.6855, 3413.679
246.1676, 3431.259
246.6497, 3443.936
247.1319, 3444.999
247.6140, 3453.737
248.0961, 3477.544
248.5782, 3518.980
249.0603, 3552.127
249.5424, 3572.194
250.0246, 3588.904
250.5067, 3613.702
250.9888, 3651.002
251.4709, 3687.718
251.9530, 3720.573
252.4351, 3749.540
252.9173, 3780.152
253.3994, 3812.436
253.8815, 3846.681
254.3636, 3883.417
254.8457, 3922.691
255.3278, 3963.051
255.8100, 4002.992
256.2921, 4042.853
256.7742, 4089.827
257.2563, 4145.080
257.7384, 4205.724
258.2205, 4268.776
258.7026, 4335.031
259.1848, 4402.942
259.6669, 4471.466
260.1490, 4541.400
260.6311, 4613.750
261.1132, 4687.706
261.5953, 4765.345
262.0775, 4846.032
262.5596, 4928.109
263.0417, 5020.543
263.5238, 5126.896
264.0059, 5244.377
264.4880, 5364.050
264.9702, 5482.255
265.4523, 5608.136
265.9344, 5747.616
266.4165, 5904.295
266.8986, 6064.365
267.3807, 6224.081
267.8629, 6388.626
268.3450, 6578.353
268.8271, 6802.069
269.3092, 7034.600
269.7913, 7265.403
270.2734, 7489.801
270.7556, 7729.337
271.2377, 7987.542
271.7198, 8262.573
272.2019, 8551.857
272.6840, 8854.721
273.1661, 9175.119
273.6483, 9514.464
274.1304, 9871.069
274.6125, 10250.97
275.0946, 10654.71
275.5767, 11077.62
276.0588, 11509.08
276.5410, 11944.28
277.0231, 12405.78
277.5052, 12894.83
277.9873, 13413.25
278.4694, 13950.80
278.9515, 14503.60
279.4337, 15082.59
279.9158, 15707.09
280.3979, 16376.33
280.8800, 17071.85
281.3621, 17773.98
281.8442, 18487.08
282.3264, 19225.32
282.8085, 19988.43
283.2906, 20778.06
283.7727, 21600.66
284.2548, 22456.65
284.7369, 23328.89
285.2191, 24233.03
285.7012, 25144.49
286.1833, 26003.90
286.6654, 26813.14
287.1475, 27562.56
287.6296, 28248.87
288.1118, 28870.94
288.5939, 29385.15
289.0760, 29794.92
289.5581, 30079.41
290.0402, 30187.74
290.5223, 30117.90
291.0045, 29917.62
291.4866, 29616.17
291.9687, 29213.60
292.4508, 28702.57
292.9329, 28061.14
293.4150, 27340.43
293.8972, 26582.81
294.3793, 25791.97
294.8614, 25004.83
295.3435, 24242.36
295.8256, 23507.12
296.3077, 22808.40
296.7899, 22149.10
297.2720, 21540.42
297.7541, 21008.40
298.2362, 20551.85
298.7183, 20155.16
299.2004, 19810.54
299.6826, 19521.89
300.1647, 19285.80
300.6468, 19101.70
301.1289, 18981.63
301.6110, 18943.23
302.0931, 18978.41
302.5753, 19065.43
303.0574, 19196.02
303.5395, 19371.78
304.0216, 19592.42
304.5037, 19859.81
304.9858, 20171.29
305.4680, 20525.86
305.9501, 20923.55
306.4322, 21362.31
306.9143, 21839.93
307.3964, 22362.93
307.8785, 22949.20
308.3607, 23595.11
308.8428, 24284.89
309.3249, 25003.92
309.8070, 25762.67
310.2891, 26569.43
310.7712, 27432.19
311.2534, 28349.73
311.7355, 29307.55
312.2176, 30321.12
312.6997, 31419.84
313.1818, 32628.01
313.6639, 33906.59
314.1461, 35235.36
314.6282, 36598.89
315.1103, 38014.28
315.5924, 39508.18
316.0745, 41053.29
316.5566, 42619.26
317.0388, 44233.38
317.5209, 45817.63
318.0030, 47367.03
318.4851, 48908.12
318.9672, 50298.05
319.4493, 51526.86
319.9315, 52563.01
320.4136, 53379.18
320.8957, 54022.73
321.3778, 54382.56
321.8599, 54429.74
322.3420, 54162.13
322.8242, 53584.93
323.3063, 52665.43
323.7884, 51453.32
324.2705, 49991.96
324.7526, 48125.31
325.2347, 46166.22
325.7169, 44174.74
326.1990, 42141.71
326.6811, 40143.56
327.1632, 38152.68
327.6453, 36220.24
328.1274, 34375.61
328.6096, 32598.22
329.0917, 30924.65
329.5738, 29369.41
330.0559, 27932.38
330.5380, 26589.42
331.0201, 25353.38
331.5023, 24197.32
331.9844, 23105.95
332.4665, 22083.72
332.9486, 21139.58
333.4307, 20298.98
333.9128, 19527.51
334.3950, 18782.64
334.8771, 18041.98
335.3592, 17357.81
335.8413, 16757.14
336.3234, 16241.98
336.8055, 15755.67
337.2877, 15296.40
337.7698, 14875.26
338.2519, 14500.25
338.7340, 14177.10
339.2161, 13890.22
339.6982, 13640.57
340.1803, 13425.38
340.6624, 13240.97
341.1446, 13083.99
341.6267, 12962.60
342.1088, 12881.32
342.5909, 12841.14
343.0730, 12829.43
343.5551, 12843.70
344.0373, 12886.66
344.5194, 12962.04
345.0015, 13070.24
345.4836, 13215.62
345.9657, 13399.72
346.4478, 13622.88
346.9300, 13888.78
347.4121, 14202.57
347.8942, 14549.28
348.3763, 14922.42
348.8584, 15318.43
349.3405, 15724.45
349.8227, 16135.51
350.3048, 16552.84
350.7869, 16980.48
351.2690, 17417.00
351.7511, 17859.75
352.2332, 18306.74
352.7154, 18753.88
353.1975, 19192.29
353.6796, 19619.91
354.1617, 20036.80
354.6438, 20432.39
355.1259, 20811.92
355.6081, 21202.78
356.0902, 21621.38
356.5723, 22064.83
357.0544, 22530.15
357.5365, 23003.99
358.0186, 23516.53
358.5008, 24081.65
358.9829, 24699.29
359.4650, 25369.77
359.9471, 26122.64
360.4292, 26906.69
360.9113, 27706.67
361.3935, 28520.50
361.8756, 29297.45
362.3577, 30069.27
362.8398, 30774.57
363.3219, 31343.59
363.8040, 31821.50
364.2862, 32099.39
364.7683, 32145.87
365.2504, 31960.57
365.7325, 31560.97
366.2146, 30924.40
366.6967, 30092.36
367.1789, 29090.67
367.6610, 27811.24
368.1431, 26493.10
368.6252, 25112.40
369.1073, 23688.74
369.5894, 22309.21
370.0716, 20937.20
370.5537, 19635.26
371.0358, 18413.32
371.5179, 17269.59
372.0000, 16206.63
372.4821, 15238.04
372.9643, 14350.48
373.4464, 13530.59
373.9285, 12786.80
374.4106, 12107.40
374.8927, 11490.20
375.3748, 10932.08
375.8570, 10415.76
376.3391, 9938.833
376.8212, 9499.405
377.3033, 9091.537
377.7854, 8718.611
378.2675, 8369.136
378.7497, 8037.855
379.2318, 7729.533
379.7139, 7449.490
380.1960, 7201.175
380.6781, 6968.728
381.1602, 6744.591
381.6424, 6530.156
382.1245, 6335.795
382.6066, 6161.386
383.0887, 6002.679
383.5708, 5854.003
384.0529, 5715.639
384.5351, 5581.514
385.0172, 5446.608
385.4993, 5317.840
385.9814, 5203.750
386.4635, 5104.973
386.9456, 5014.406
387.4278, 4927.869
387.9099, 4846.809
388.3920, 4772.768
388.8741, 4707.821
389.3562, 4648.038
389.8383, 4590.922
390.3205, 4535.454
390.8026, 4480.429
391.2847, 4420.380
391.7668, 4363.682
392.2489, 4317.359
392.7310, 4284.051
393.2132, 4252.928
393.6953, 4222.136
394.1774, 4189.923
394.6595, 4153.861
395.1416, 4105.845
395.6237, 4061.359
396.1059, 4028.264
396.5880, 4005.861
397.0701, 3980.532
397.5522, 3945.090
398.0343, 3909.176
398.5164, 3878.576
398.9986, 3857.099
399.4807, 3836.728
399.9628, 3817.479
400.4449, 3799.153
400.9270, 3781.230
401.4091, 3764.333
401.8913, 3747.228
402.3734, 3728.230
402.8555, 3705.552
403.3376, 3691.528
403.8197, 3688.859
404.3018, 3691.639
404.7840, 3693.689
405.2661, 3694.471
405.7482, 3696.324
406.2303, 3699.911
406.7124, 3704.794
407.1945, 3709.235
407.6767, 3713.018
408.1588, 3717.171
408.6409, 3723.137
409.1230, 3730.618
409.6051, 3735.919
410.0872, 3738.718
410.5694, 3739.477
411.0515, 3740.130
411.5336, 3740.051
412.0157, 3735.034
412.4978, 3721.344
412.9799, 3702.043
413.4621, 3685.896
413.9442, 3672.572
414.4263, 3651.325
414.9084, 3609.480
415.3905, 3554.735
415.8727, 3498.972
416.3548, 3446.477
416.8369, 3391.536
417.3190, 3326.187
417.8011, 3254.302
418.2832, 3184.911
418.7654, 3127.411
419.2475, 3071.191
419.7296, 3009.550
420.2117, 2940.493
420.6938, 2870.073
421.1759, 2796.019
421.6581, 2723.835
422.1402, 2658.466
422.6223, 2610.015
423.1044, 2559.828
423.5865, 2500.893
424.0686, 2435.160
424.5508, 2375.844
425.0329, 2329.637
425.5150, 2286.215
425.9971, 2240.927
426.4792, 2191.835
426.9613, 2145.026
427.4435, 2099.956
427.9256, 2057.828
428.4077, 2021.052
428.8898, 1990.861
429.3719, 1962.448
429.8540, 1934.914
430.3362, 1908.227
430.8183, 1879.382
431.3004, 1847.605
431.7825, 1816.359
432.2646, 1788.400
432.7467, 1763.823
433.2289, 1741.089
433.7110, 1720.562
434.1931, 1701.544
434.6752, 1683.682
435.1573, 1666.783
435.6394, 1648.848
436.1216, 1626.527
436.6036, 1602.743
437.0858, 1585.579
437.5679, 1575.249
438.0500, 1565.318
438.5321, 1549.359
439.0142, 1530.095
439.4963, 1512.049
439.9785, 1496.429
440.4606, 1482.606
440.9427, 1472.131
441.4248, 1463.497
441.9069, 1452.332
442.3890, 1431.455
442.8712, 1411.002
443.3533, 1399.345
443.8354, 1399.885
444.3175, 1396.483
444.7996, 1378.718
445.2817, 1356.482
445.7639, 1339.968
446.2460, 1336.785
446.7281, 1333.003
447.2102, 1326.228
447.6923, 1316.644
448.1744, 1306.125
448.6566, 1292.916
449.1387, 1280.542
449.6208, 1271.188
450.1029, 1267.227
450.5850, 1258.381
451.0671, 1242.040
451.5493, 1223.617
452.0314, 1211.226
452.5135, 1206.245
452.9956, 1201.881
453.4777, 1196.728
453.9598, 1190.831
454.4420, 1184.174
454.9241, 1176.818
455.4062, 1168.734
455.8883, 1159.647
456.3704, 1149.794
456.8525, 1140.203
457.3347, 1131.072
457.8168, 1122.590
458.2989, 1115.297
458.7810, 1108.990
459.2631, 1103.292
459.7452, 1100.121
460.2274, 1096.125
460.7095, 1085.938
461.1916, 1070.382
461.6737, 1056.769
462.1558, 1051.422
462.6379, 1048.894
463.1201, 1044.063
463.6022, 1034.908
464.0843, 1025.650
464.5664, 1016.700
465.0485, 1008.968
465.5306, 1003.907
466.0128, 1006.062
466.4949, 1006.748
466.9770, 1002.527
467.4591, 993.1393
467.9412, 985.3431
468.4233, 980.2194
468.9055, 975.8571
469.3876, 971.1771
469.8697, 966.2824
470.3518, 960.8547
470.8339, 954.6007
471.3160, 947.9874
471.7982, 941.7440
472.2803, 935.8221
472.7624, 930.4608
473.2445, 925.7733
473.7266, 921.7316
474.2087, 918.6813
474.6909, 916.7869
475.1730, 914.5051
475.6551, 910.0174
476.1372, 903.9103
476.6193, 898.6266
477.1014, 894.5944
477.5836, 891.3853
478.0657, 889.2575
478.5478, 887.6382
479.0299, 884.9506
479.5120, 878.9664
479.9941, 872.5267
480.4763, 868.9097
480.9584, 867.8187
481.4405, 866.1207
481.9226, 860.8369
482.4047, 854.9780
482.8868, 851.0526
483.3690, 850.3579
483.8511, 850.0432
484.3332, 850.4489
484.8153, 850.5137
485.2974, 848.5124
485.7795, 842.1229
486.2617, 835.8444
486.7438, 829.7337
487.2259, 823.8472
487.7080, 822.2726
488.1901, 829.0503
488.6722, 834.8854
489.1544, 833.1167
489.6365, 820.5781
490.1186, 813.3756
490.6007, 813.7184
491.0828, 816.9965
491.5649, 815.9122
492.0471, 810.3172
492.5292, 803.7429
493.0113, 796.3326
493.4934, 789.3138
493.9755, 787.2294
494.4576, 789.8364
494.9398, 791.5472
495.4219, 786.5915
495.9040, 778.2660
496.3861, 773.1235
496.8682, 772.3403
497.3503, 772.0243
497.8325, 768.3842
498.3146, 763.1895
498.7967, 759.1080
499.2788, 758.5625
499.7609, 758.1541
500.2430, 755.9569
500.7252, 752.4001
501.2073, 749.3286
501.6894, 747.1452
502.1715, 745.7529
502.6536, 745.5772
503.1357, 748.0672
503.6179, 747.6376
504.1000, 742.2988
504.5821, 735.2474
505.0642, 729.6490
505.5463, 726.2167
506.0284, 722.5695
506.5106, 717.9576
506.9927, 713.0477
507.4748, 710.5064
507.9569, 710.8979
508.4390, 710.8710
508.9211, 708.3268
509.4033, 703.6411
509.8854, 700.0029
510.3675, 697.4721
510.8496, 695.4661
511.3317, 693.5567
511.8138, 691.7159
512.2960, 690.0848
512.7781, 689.0944
513.2602, 687.4125
513.7423, 682.9880
514.2244, 676.7423
514.7065, 670.9147
515.1887, 665.8015
515.6708, 662.0736
516.1529, 660.8466
516.6350, 662.0331
517.1171, 662.8235
517.5992, 662.9534
518.0814, 661.8812
518.5635, 659.0512
519.0456, 651.9182
519.5277, 647.1554
520.0098, 646.5372
520.4919, 647.8287
520.9741, 647.8872
521.4562, 646.8036
521.9383, 644.1134
522.4204, 638.6147
522.9025, 631.2300
523.3846, 628.4489
523.8668, 631.2124
524.3489, 634.6795
524.8310, 636.4257
525.3131, 636.4213
525.7952, 633.7447
526.2773, 627.8939
526.7595, 622.0452
527.2416, 620.6275
527.7237, 622.1372
528.2058, 622.7408
528.6879, 621.3141
529.1700, 618.5197
529.6522, 613.6371
530.1343, 607.7379
530.6164, 603.7720
531.0985, 604.7177
531.5806, 606.9244
532.0627, 608.8301
532.5449, 610.3908
533.0270, 609.8574
533.5091, 604.0197
533.9912, 597.6057
534.4733, 594.0458
534.9554, 596.0057
535.4376, 597.4836
535.9197, 599.1906
536.4018, 600.0536
536.8839, 597.5795
537.3660, 589.7909
537.8481, 583.9939
538.3303, 582.6240
538.8124, 584.7952
539.2945, 586.0624
539.7766, 586.4814
540.2587, 585.5385
540.7408, 581.5219
541.2230, 575.6694
541.7051, 573.1765
542.1872, 574.7054
542.6693, 577.1000
543.1514, 577.4656
543.6335, 576.4365
544.1157, 575.1801
544.5978, 574.0245
545.0799, 572.8045
545.5620, 571.7946
546.0441, 570.6613
546.5262, 568.5781
547.0084, 563.2219
547.4905, 558.6843
547.9726, 556.9240
548.4547, 558.2538
548.9368, 559.6702
549.4189, 561.9808
549.9011, 563.4028
550.3832, 562.7222
550.8653, 558.6024
551.3474, 555.6161
551.8295, 554.5200
552.3116, 553.7699
552.7938, 550.4401
553.2759, 544.0667
553.7580, 539.7463
554.2401, 539.4109
554.7222, 541.4912
555.2043, 542.5057
555.6865, 542.4457
556.1686, 541.2698
556.6507, 537.6055
557.1328, 533.3550
557.6149, 531.4626
558.0970, 532.1034
558.5792, 533.7190
559.0613, 536.7578
559.5434, 539.4761
560.0255, 539.8546
560.5076, 535.7631
560.9897, 532.3260
561.4719, 531.6387
561.9540, 532.5681
562.4361, 533.2319
562.9182, 533.5748
563.4003, 533.3862
563.8824, 532.3715
564.3646, 530.6924
564.8467, 529.4518
565.3288, 528.6625
565.8109, 528.2617
566.2930, 528.2552
566.7751, 528.6481
567.2573, 529.3033
567.7394, 530.3246
568.2215, 531.1361
568.7036, 530.7915
569.1857, 529.6724
569.6678, 529.2697
570.1500, 530.0676
570.6321, 531.2586
571.1142, 532.3564
571.5963, 533.1363
572.0784, 533.0892
572.5605, 530.6859
573.0427, 528.5386
573.5248, 528.4913
574.0069, 530.2777
574.4890, 531.9430
574.9711, 532.9349
575.4532, 533.5989
575.9354, 533.9659
576.4175, 533.7948
576.8996, 534.2535
577.3817, 535.7986
577.8638, 537.5197
578.3459, 538.6991
578.8281, 539.3539
579.3102, 539.1722
579.7923, 537.8048
580.2744, 536.0438
580.7565, 535.0056
581.2386, 534.7374
581.7208, 536.3160
582.2029, 541.8856
582.6850, 548.3474
583.1671, 549.3312
583.6492, 545.6681
584.1313, 542.3082
584.6134, 542.7737
585.0955, 544.7463
585.5776, 545.8871
586.0598, 545.8242
586.5419, 546.4998
587.0240, 549.7206
587.5061, 553.4798
587.9882, 556.1095
588.4703, 556.5111
588.9525, 556.9199
589.4346, 557.2527
589.9167, 557.7224
590.3988, 558.7334
590.8809, 560.4987
591.3630, 562.2590
591.8452, 564.0685
592.3273, 565.6571
592.8094, 565.1486
593.2915, 562.2924
593.7736, 561.2310
594.2557, 565.6724
594.7379, 573.5787
595.2200, 579.8773
595.7021, 584.4138
596.1842, 587.8483
596.6663, 590.4944
597.1484, 592.4170
597.6306, 593.5542
598.1127, 593.5731
598.5948, 593.7397
599.0769, 594.1940
599.5590, 595.2947
600.0411, 597.5012
600.5233, 602.2466
601.0054, 606.5150
601.4875, 609.7400
601.9696, 612.1586
602.4517, 614.4670
602.9338, 616.5908
603.4160, 618.8293
603.8981, 621.4559
604.3802, 624.3824
604.8623, 626.2350
605.3444, 626.8193
605.8265, 628.0034
606.3087, 632.7081
606.7908, 639.0663
607.2729, 640.7827
607.7550, 636.7369
608.2371, 633.3027
608.7192, 637.0338
609.2014, 644.6523
609.6835, 651.8189
610.1656, 657.4595
610.6477, 661.9232
611.1298, 664.3412
611.6119, 665.8609
612.0941, 668.5948
612.5762, 676.1403
613.0583, 681.2081
613.5404, 680.8210
614.0225, 676.3768
614.5046, 675.7415
614.9868, 680.4660
615.4689, 685.4918
615.9510, 688.5391
616.4331, 689.6868
616.9152, 690.4186
617.3973, 690.5151
617.8795, 692.0402
618.3616, 699.1042
618.8437, 708.7670
619.3258, 713.0179
619.8079, 709.9170
620.2900, 706.0966
620.7722, 706.5116
621.2543, 710.0509
621.7364, 715.2263
622.2185, 724.6414
622.7006, 731.8421
623.1827, 733.0912
623.6649, 730.6724
624.1470, 730.0800
624.6291, 733.4124
625.1112, 736.7361
625.5933, 738.9838
626.0754, 740.4069
626.5576, 742.9974
627.0397, 747.1307
627.5218, 751.1729
628.0039, 754.5927
628.4860, 757.2806
628.9681, 757.5652
629.4503, 755.2279
629.9324, 753.4987
630.4145, 756.7217
630.8966, 762.1311
631.3787, 764.2687
631.8608, 761.2019
632.3430, 758.9771
632.8251, 763.4354
633.3072, 770.4537
633.7893, 775.0126
634.2714, 772.4842
634.7535, 771.1763
635.2357, 774.5624
635.7178, 780.1073
636.1999, 781.7592
636.6820, 776.3951
637.1641, 772.9020
637.6462, 774.0022
638.1284, 778.8002
638.6105, 782.6318
639.0926, 785.4159
639.5747, 788.0870
640.0568, 792.0787
640.5389, 796.3090
641.0211, 796.8729
641.5032, 793.7975
641.9853, 790.3935
642.4674, 788.6320
642.9495, 788.2628
643.4316, 789.5411
643.9138, 793.1691
644.3959, 795.6135
644.8780, 793.4659
645.3601, 790.2927
645.8422, 789.6518
646.3243, 795.5214
646.8065, 799.2166
647.2886, 799.3470
647.7707, 797.8137
648.2528, 798.2848
648.7349, 801.4878
649.2170, 803.5322
649.6992, 803.0654
650.1813, 801.1780
650.6634, 800.5677
651.1455, 801.1776
651.6276, 802.3790
652.1097, 804.0112
652.5919, 805.9471
653.0740, 807.5187
653.5561, 808.9435
654.0382, 812.0500
654.5203, 820.5873
655.0024, 829.0707
655.4846, 833.5537
655.9667, 832.6838
656.4488, 832.0607
656.9309, 831.1447
657.4130, 831.7623
657.8951, 835.6134
658.3773, 844.4200
658.8594, 851.2010
659.3415, 855.2343
659.8236, 858.1027
660.3057, 862.0659
660.7878, 866.9484
661.2700, 871.1385
661.7521, 874.1483
662.2342, 876.5794
662.7163, 879.0001
663.1984, 881.5006
663.6805, 884.3315
664.1627, 886.1330
664.6448, 889.6379
665.1269, 897.9178
665.6090, 909.6263
666.0911, 919.4125
666.5732, 923.7944
667.0554, 928.4138
667.5375, 935.3981
668.0196, 944.7349
668.5017, 952.8734
668.9838, 959.1291
669.4659, 965.8851
669.9481, 975.1073
670.4302, 986.4965
670.9123, 996.2343
671.3944, 1004.174
671.8765, 1011.610
672.3586, 1019.191
672.8408, 1027.148
673.3229, 1035.779
673.8050, 1044.945
674.2871, 1055.750
674.7692, 1070.883
675.2513, 1087.111
675.7335, 1100.884
676.2156, 1108.480
676.6977, 1116.855
677.1798, 1127.729
677.6619, 1139.530
678.1440, 1149.697
678.6262, 1156.706
679.1083, 1166.556
679.5904, 1181.733
680.0725, 1199.427
680.5546, 1211.999
681.0367, 1219.869
681.5189, 1230.645
682.0010, 1250.856
682.4831, 1274.149
682.9652, 1290.415
683.4473, 1300.772
683.9294, 1311.999
684.4116, 1327.116
684.8937, 1344.627
685.3758, 1365.312
685.8579, 1389.199
686.3400, 1409.467
686.8221, 1417.463
687.3043, 1428.143
687.7864, 1450.161
688.2685, 1487.065
688.7506, 1514.422
689.2327, 1529.332
689.7148, 1543.064
690.1970, 1567.870
690.6791, 1601.843
691.1612, 1630.553
691.6433, 1651.194
692.1254, 1671.662
692.6075, 1699.382
693.0897, 1732.570
693.5718, 1769.132
694.0539, 1811.370
694.5360, 1851.312
695.0181, 1882.286
695.5002, 1909.781
695.9824, 1943.102
696.4645, 1986.959
696.9466, 2031.987
697.4287, 2075.731
697.9108, 2120.629
698.3929, 2173.824
698.8751, 2237.582
699.3572, 2300.033
699.8393, 2356.229
700.3214, 2410.192
700.8035, 2470.750
701.2856, 2537.698
701.7678, 2609.839
702.2499, 2687.438
702.7320, 2769.476
703.2141, 2854.448
703.6962, 2942.904
704.1783, 3036.825
704.6605, 3136.698
705.1426, 3242.357
705.6247, 3355.073
706.1068, 3475.530
706.5889, 3594.942
707.0710, 3708.347
707.5532, 3827.367
708.0353, 3962.073
708.5174, 4112.454
708.9995, 4261.133
709.4816, 4407.619
709.9637, 4558.054
710.4459, 4717.630
710.9280, 4886.617
711.4101, 5063.058
711.8922, 5248.816
712.3743, 5436.548
712.8564, 5618.076
713.3386, 5800.559
713.8207, 5994.808
714.3028, 6211.604
714.7849, 6424.791
715.2670, 6633.013
715.7491, 6837.670
716.2313, 7045.548
716.7134, 7257.186
717.1955, 7462.957
717.6776, 7664.948
718.1597, 7854.869
718.6418, 8020.361
719.1240, 8161.224
719.6061, 8281.247
720.0882, 8384.182
720.5703, 8461.564
721.0524, 8506.702
721.5345, 8518.455
722.0167, 8494.137
722.4988, 8420.028
722.9809, 8323.259
723.4630, 8218.874
723.9451, 8102.076
724.4272, 7944.831
724.9094, 7733.932
725.3915, 7510.597
725.8736, 7287.655
726.3557, 7066.454
726.8378, 6841.338
727.3199, 6610.307
727.8021, 6387.068
728.2842, 6181.319
728.7663, 5987.185
729.2484, 5795.087
729.7305, 5607.477
730.2126, 5436.331
730.6948, 5295.710
731.1769, 5168.428
731.6590, 5043.794
732.1411, 4919.087
732.6232, 4808.246
733.1053, 4715.608
733.5875, 4631.532
734.0696, 4551.579
734.5517, 4475.255
735.0338, 4403.824
735.5159, 4336.274
735.9980, 4275.630
736.4802, 4224.529
736.9623, 4182.335
737.4444, 4150.372
737.9265, 4129.882
738.4086, 4109.000
738.8907, 4067.926
739.3729, 4026.771
739.8550, 4008.962
740.3371, 4031.294
740.8192, 4052.388
741.3013, 4064.497
741.7834, 4072.353
742.2656, 4078.844
742.7477, 4080.960
743.2298, 4092.059
743.7119, 4113.876
744.1940, 4143.741
744.6761, 4179.743
745.1583, 4220.980
745.6404, 4261.431
746.1225, 4297.110
746.6046, 4336.798
747.0867, 4391.600
747.5688, 4455.956
748.0510, 4519.504
748.5331, 4573.106
749.0152, 4633.073
749.4973, 4708.209
749.9794, 4791.831
750.4615, 4869.159
750.9437, 4933.480
751.4258, 5006.636
751.9079, 5094.503
752.3900, 5192.863
752.8721, 5294.842
753.3542, 5398.900
753.8364, 5507.183
754.3185, 5619.052
754.8006, 5735.457
755.2827, 5855.993
755.7648, 5981.167
756.2469, 6109.220
756.7291, 6236.442
757.2112, 6369.058
757.6933, 6514.455
758.1754, 6668.960
758.6575, 6817.139
759.1396, 6951.471
759.6218, 7091.854
760.1039, 7246.485
760.5860, 7412.118
761.0681, 7590.561
761.5502, 7780.815
762.0323, 7970.522
762.5145, 8151.975
762.9966, 8331.216
763.4787, 8515.086
763.9608, 8704.388
764.4429, 8902.476
764.9250, 9113.350
765.4072, 9331.420
765.8893, 9554.042
766.3714, 9783.338
766.8535, 10013.41
767.3356, 10240.36
767.8177, 10475.93
768.2999, 10724.54
768.7820, 10984.93
769.2641, 11246.38
769.7462, 11507.43
770.2283, 11777.62
770.7104, 12064.33
771.1926, 12364.04
771.6747, 12673.60
772.1568, 12990.16
772.6389, 13315.15
773.1210, 13650.67
773.6031, 13993.03
774.0853, 14338.50
774.5674, 14685.51
775.0495, 15047.33
775.5316, 15425.60
776.0137, 15817.57
776.4958, 16228.10
776.9780, 16656.62
777.4601, 17085.00
777.9422, 17514.29
778.4243, 17952.56
778.9064, 18413.64
779.3885, 18889.35
779.8707, 19377.14
780.3528, 19876.90
780.8349, 20384.51
781.3170, 20882.90
781.7991, 21393.28
782.2812, 21932.55
782.7633, 22509.55
783.2454, 23087.93
783.7275, 23656.19
784.2097, 24225.33
784.6918, 24800.68
785.1739, 25378.36
785.6560, 25973.40
786.1381, 26591.06
786.6202, 27202.62
787.1024, 27777.32
787.5845, 28336.36
788.0666, 28895.55
788.5487, 29463.52
789.0308, 30028.03
789.5129, 30602.60
789.9951, 31166.81
790.4772, 31698.24
790.9593, 32192.42
791.4414, 32682.14
791.9235, 33174.17
792.4056, 33660.79
792.8878, 34147.11
793.3699, 34627.60
793.8520, 35079.84
794.3341, 35505.02
794.8162, 35916.93
795.2983, 36333.93
795.7805, 36751.61
796.2626, 37165.79
796.7447, 37558.82
797.2268, 37993.68
797.7089, 38506.51
798.1910, 39061.21
798.6732, 39623.16
799.1553, 40195.41
799.6374, 40789.46
800.1195, 41397.96
800.6016, 42051.71
801.0837, 42787.30
801.5659, 43600.30
802.0480, 44493.18
802.5301, 45461.80
803.0122, 46478.46
803.4943, 47504.99
803.9764, 48587.99
804.4586, 49777.26
804.9407, 51089.93
805.4228, 52492.70
805.9049, 54001.95
806.3870, 55566.77
806.8691, 57177.38
807.3513, 58823.23
807.8334, 60550.14
808.3155, 62366.05
808.7976, 64231.18
809.2797, 66116.48
809.7618, 68024.77
810.2440, 69915.98
810.7261, 71781.59
811.2082, 73720.73
811.6903, 75803.12
812.1724, 77983.05
812.6545, 80195.05
813.1367, 82427.20
813.6188, 84757.19
814.1009, 87177.84
814.5830, 89668.04
815.0651, 92208.91
815.5472, 94799.58
816.0294, 97427.34
816.5115, 100069.0
816.9936, 102767.4
817.4757, 105567.4
817.9578, 108404.6
818.4399, 111194.7
818.9221, 113894.6
819.4042, 116581.7
819.8863, 119329.4
820.3684, 122031.3
820.8505, 124661.1
821.3326, 127264.8
821.8148, 129647.9
822.2969, 131801.3
822.7790, 133740.3
823.2611, 135486.1
823.7432, 137004.8
824.2253, 138158.3
824.7075, 138925.1
825.1896, 139399.4
825.6717, 139697.4
826.1538, 139698.2
826.6359, 139311.1
827.1180, 138532.7
827.6002, 137302.0
828.0823, 135567.8
828.5644, 133491.4
829.0465, 131146.7
829.5286, 128564.7
830.0107, 125791.9
830.4929, 122855.7
830.9750, 119702.5
831.4571, 116281.9
831.9392, 112653.8
832.4213, 108913.9
832.9034, 105119.0
833.3856, 101305.6
833.8677, 97458.02
834.3498, 93690.51
834.8319, 90046.88
835.3140, 86538.52
835.7961, 83046.55
836.2783, 79537.61
836.7604, 76130.84
837.2425, 72888.77
837.7246, 69801.43
838.2067, 66846.63
838.6888, 63999.49
839.1710, 61267.00
839.6531, 58649.29
840.1352, 56131.54
840.6173, 53732.79
841.0994, 51441.51
841.5815, 49260.16
842.0637, 47168.79
842.5458, 45180.07
843.0279, 43304.68
843.5100, 41535.43
843.9921, 39815.18
844.4742, 38156.67
844.9564, 36587.71
845.4385, 35143.66
845.9206, 33788.18
846.4027, 32467.73
846.8848, 31188.91
847.3669, 29972.86
847.8491, 28831.54
848.3312, 27753.02
848.8133, 26724.08
849.2954, 25743.48
849.7775, 24835.25
850.2596, 24004.78
850.7418, 23212.86
851.2239, 22449.57
851.7060, 21713.18
852.1881, 21015.18
852.6702, 20347.09
853.1523, 19704.04
853.6345, 19073.62
854.1166, 18469.99
854.5987, 17905.66
855.0808, 17376.05
855.5629, 16860.10
856.0450, 16356.76
856.5272, 15869.61
857.0093, 15401.11
857.4914, 14953.91
857.9735, 14538.00
858.4556, 14155.94
858.9377, 13782.18
859.4199, 13417.86
859.9020, 13065.65
860.3841, 12731.45
860.8662, 12414.66
861.3483, 12107.55
861.8304, 11809.82
862.3126, 11524.53
862.7947, 11258.27
863.2768, 11003.64
863.7589, 10756.08
864.2410, 10512.97
864.7231, 10277.75
865.2053, 10047.57
865.6874, 9828.333
866.1695, 9628.162
866.6516, 9439.878
867.1337, 9246.388
867.6158, 9043.944
868.0980, 8846.784
868.5801, 8657.930
869.0622, 8478.334
869.5443, 8311.544
870.0264, 8159.430
870.5085, 7999.507
870.9907, 7829.357
871.4728, 7663.341
871.9549, 7517.302
872.4370, 7386.337
872.9191, 7249.022
873.4012, 7104.548
873.8834, 6965.503
874.3655, 6845.841
874.8476, 6730.308
875.3297, 6604.423
875.8118, 6468.207
876.2939, 6338.349
876.7761, 6215.512
877.2582, 6100.896
877.7403, 5997.438
878.2224, 5901.784
878.7045, 5798.449
879.1866, 5687.898
879.6688, 5581.996
880.1509, 5490.205
880.6330, 5403.503
881.1151, 5312.232
881.5972, 5218.277
882.0793, 5128.750
882.5615, 5049.942
883.0436, 4969.323
883.5257, 4881.295
884.0078, 4791.605
884.4899, 4715.587
884.9720, 4654.255
885.4542, 4586.628
885.9363, 4504.318
886.4184, 4420.152
886.9005, 4352.481
887.3826, 4294.409
887.8647, 4234.104
888.3469, 4163.813
888.8290, 4097.810
889.3111, 4045.395
889.7932, 3997.010
890.2753, 3941.596
890.7574, 3875.546
891.2396, 3819.298
891.7217, 3775.571
892.2038, 3733.996
892.6859, 3679.525
893.1680, 3619.891
893.6501, 3572.283
894.1323, 3539.773
894.6144, 3505.749
895.0965, 3457.455
895.5786, 3407.604
896.0607, 3365.593
896.5428, 3332.682
897.0250, 3295.960
897.5071, 3254.291
897.9892, 3212.922
898.4713, 3174.088
898.9534, 3138.148
899.4355, 3106.121
899.9177, 3077.652
900.3998, 3048.397
900.8819, 3014.159
901.3640, 2980.678
901.8461, 2953.128
902.3282, 2930.311
902.8104, 2902.904
903.2925, 2868.469
903.7746, 2835.684
904.2567, 2807.687
904.7388, 2782.541
905.2209, 2755.960
905.7031, 2728.277
906.1852, 2700.811
906.6673, 2673.187
907.1494, 2646.864
907.6315, 2624.537
908.1136, 2603.609
908.5958, 2579.725
909.0779, 2548.809
909.5600, 2522.093
910.0421, 2501.525
910.5242, 2483.263
911.0063, 2462.707
911.4885, 2440.104
911.9706, 2415.401
912.4527, 2388.379
912.9348, 2363.095
913.4169, 2343.688
913.8990, 2326.940
914.3812, 2310.532
914.8633, 2294.739
915.3454, 2275.761
915.8275, 2250.911
916.3096, 2227.278
916.7917, 2209.797
917.2739, 2197.227
917.7560, 2181.124
918.2381, 2161.734
918.7202, 2142.294
919.2023, 2124.863
919.6844, 2108.255
920.1666, 2092.449
920.6487, 2076.807
921.1308, 2058.006
921.6129, 2032.127
922.0950, 2008.982
922.5771, 1992.092
923.0593, 1978.567
923.5414, 1960.468
924.0235, 1938.844
924.5056, 1920.045
924.9877, 1908.127
925.4698, 1896.104
925.9520, 1876.907
926.4341, 1854.182
926.9162, 1833.180
927.3983, 1813.812
927.8804, 1798.690
928.3625, 1789.985
928.8447, 1782.559
929.3268, 1770.565
929.8089, 1754.782
930.2910, 1740.705
930.7731, 1728.718
931.2552, 1717.427
931.7374, 1705.928
932.2195, 1694.116
932.7016, 1681.599
933.1837, 1668.389
933.6658, 1655.273
934.1479, 1641.938
934.6301, 1629.359
935.1122, 1618.667
935.5943, 1608.906
936.0764, 1594.604
936.5585, 1576.498
937.0406, 1560.983
937.5228, 1554.397
938.0049, 1548.750
938.4870, 1537.451
938.9691, 1522.560
939.4512, 1509.058
939.9333, 1497.882
940.4155, 1487.225
940.8976, 1476.510
941.3797, 1466.748
941.8618, 1461.088
942.3439, 1458.265
942.8260, 1451.676
943.3082, 1439.245
943.7903, 1427.123
944.2724, 1420.654
944.7545, 1416.342
945.2366, 1411.278
945.7188, 1405.503
946.2009, 1396.581
946.6830, 1382.558
947.1651, 1369.644
947.6472, 1363.176
948.1293, 1361.282
948.6115, 1355.593
949.0936, 1346.606
949.5757, 1337.949
950.0578, 1332.968
950.5399, 1328.039
951.0220, 1320.208
951.5042, 1310.472
951.9863, 1303.537
952.4684, 1301.375
952.9505, 1296.712
953.4326, 1287.215
953.9147, 1275.624
954.3969, 1265.968
954.8790, 1258.112
955.3611, 1252.053
955.8432, 1248.950
956.3253, 1244.642
956.8074, 1234.196
957.2896, 1223.267
957.7717, 1217.519
958.2538, 1218.874
958.7359, 1218.738
959.2180, 1217.183
959.7001, 1213.713
960.1823, 1207.443
960.6644, 1199.034
961.1465, 1188.444
961.6286, 1176.322
962.1107, 1168.109
962.5928, 1172.324
963.0750, 1174.782
963.5571, 1167.932
964.0392, 1154.485
964.5213, 1144.551
965.0034, 1138.491
965.4855, 1132.957
965.9677, 1126.976
966.4498, 1120.951
966.9319, 1116.236
967.4140, 1111.744
967.8961, 1105.362
968.3782, 1093.554
968.8604, 1085.393
969.3425, 1085.550
969.8246, 1087.071
970.3067, 1083.610
970.7888, 1074.932
971.2709, 1069.560
971.7531, 1067.914
972.2352, 1066.338
972.7173, 1061.240
973.1994, 1055.152
973.6815, 1051.330
974.1636, 1049.581
974.6458, 1045.592
975.1279, 1036.628
975.6100, 1028.163
976.0921, 1021.363
976.5742, 1016.280
977.0563, 1014.223
977.5385, 1014.477
978.0206, 1012.593
978.5027, 1006.104
978.9848, 998.9479
979.4669, 992.8917
979.9490, 988.5119
980.4311, 986.9852
980.9132, 992.2872
981.3953, 991.3187
981.8774, 982.2404
982.3596, 971.5931
982.8417, 965.5956
983.3238, 962.7198
983.8059, 958.2344
984.2880, 952.0887
984.7701, 946.9238
985.2523, 945.8245
985.7344, 944.5731
986.2165, 940.1595
986.6986, 933.5468
987.1807, 929.1916
987.6628, 927.7372
988.1450, 924.7742
988.6271, 918.5135
989.1092, 911.1434
989.5913, 904.9957
990.0734, 900.3252
990.5555, 897.8670
991.0377, 899.5908
991.5198, 899.8809
992.0019, 897.4279
992.4840, 893.0786
992.9661, 886.5241
993.4482, 877.6021
993.9304, 871.9518
994.4125, 869.6506
994.8946, 869.0598
995.3767, 870.3595
995.8588, 871.6542
996.3409, 871.5414
996.8231, 869.8882
997.3052, 866.2181
997.7873, 858.2091
998.2694, 852.3271
998.7515, 850.4871
999.2336, 850.8219
999.7158, 849.4186
1000.198, 846.9193
1000.680, 846.4059
1001.162, 850.0450
1001.644, 851.0920
1002.126, 841.5086
1002.608, 829.8779
1003.091, 824.6820
1003.573, 827.5531
1004.055, 827.4637
1004.537, 823.7665
1005.019, 820.2372
1005.501, 820.3937
1005.983, 821.8907
1006.465, 820.2590
1006.948, 816.2110
1007.430, 812.5006
1007.912, 810.2955
1008.394, 808.5653
1008.876, 806.9617
1009.358, 805.7058
1009.840, 806.0046
1010.322, 807.7320
1010.804, 805.6878
1011.287, 798.2790
1011.769, 791.2233
1012.251, 791.2485
1012.733, 793.5155
1013.215, 793.0031
1013.697, 788.4729
1014.179, 784.7823
1014.661, 782.1191
1015.143, 780.3925
1015.626, 780.5541
1016.108, 781.1400
1016.590, 776.0309
1017.072, 767.0955
1017.554, 761.1058
1018.036, 763.4813
1018.518, 766.8459
1019.000, 768.1066
1019.483, 768.6533
1019.965, 770.8835
1020.447, 775.7094
1020.929, 776.7802
1021.411, 773.3930
1021.893, 768.0140
1022.375, 760.0751
1022.857, 753.2496
1023.339, 753.9449
1023.822, 762.2219
1024.304, 767.3638
1024.786, 765.1802
1025.268, 761.5549
1025.750, 757.3994
1026.232, 753.5167
1026.714, 752.2209
1027.196, 753.2991
1027.679, 756.1104
1028.161, 762.0049
1028.643, 765.7996
1029.125, 762.9486
1029.607, 756.8868
1030.089, 750.7158
1030.571, 743.2651
1031.053, 741.7709
1031.536, 747.4531
1032.018, 753.1838
1032.500, 752.8115
1032.982, 749.6168
1033.464, 748.9149
1033.946, 750.2617
1034.428, 751.3217
1034.910, 751.2761
1035.392, 750.6442
1035.875, 748.6063
1036.357, 746.9680
1036.839, 750.4816
1037.321, 758.2029
1037.803, 760.4569
1038.285, 755.0330
1038.767, 749.1185
1039.249, 748.8629
1039.731, 750.3078
1040.214, 749.8113
1040.696, 746.9458
1041.178, 746.3929
1041.660, 748.7241
1042.142, 751.2259
1042.624, 752.6027
1043.106, 753.5814
1043.588, 755.7407
1044.071, 758.5699
1044.553, 760.9620
1045.035, 763.6647
1045.517, 764.0966
1045.999, 760.4234
1046.481, 755.8392
1046.963, 753.0296
1047.445, 751.9590
1047.927, 752.9799
1048.410, 756.0272
1048.892, 758.4081
1049.374, 758.5630
1049.856, 757.0298
1050.338, 753.0400
1050.820, 747.4935
1051.302, 744.3643
1051.784, 744.2023
1052.266, 744.7054
1052.749, 745.4802
1053.231, 746.5716
1053.713, 748.5189
1054.195, 750.6414
1054.677, 751.7614
1055.159, 751.4865
1055.641, 751.1991
1056.123, 751.0027
1056.606, 751.2213
1057.088, 752.1483
1057.570, 753.6212
1058.052, 754.5214
1058.534, 755.0023
1059.016, 756.1249
1059.498, 759.0295
1059.980, 761.8554
1060.463, 764.2346
1060.945, 765.4226
1061.427, 763.9163
1061.909, 757.9009
1062.391, 756.3375
1062.873, 759.9603
1063.355, 765.2960
1063.837, 770.9435
1064.319, 775.5303
1064.802, 776.0991
1065.284, 773.3313
1065.766, 771.8568
1066.248, 773.9094
1066.730, 776.1205
1067.212, 778.2123
1067.694, 779.7819
1068.176, 779.5990
1068.658, 778.2029
1069.141, 777.6036
1069.623, 778.2352
1070.105, 779.3085
1070.587, 779.6110
1071.069, 780.9623
1071.551, 785.2714
1072.033, 792.1260
1072.515, 795.8698
1072.998, 796.3260
1073.480, 797.3716
1073.962, 801.3661
1074.444, 805.6605
1074.926, 807.1487
1075.408, 807.0685
1075.890, 807.2145
1076.372, 806.6410
1076.854, 809.5732
1077.337, 817.6959
1077.819, 824.7897
1078.301, 824.2484
1078.783, 819.2780
1079.265, 816.9346
1079.747, 817.1745
1080.229, 818.6909
1080.711, 822.5104
1081.193, 825.3971
1081.676, 825.2906
1082.158, 824.9113
1082.640, 830.4225
1083.122, 840.7970
1083.604, 845.4421
1084.086, 842.5586
1084.568, 838.0645
1085.050, 835.2111
1085.532, 833.4609
1086.015, 833.0161
1086.497, 833.5781
1086.979, 832.1407
1087.461, 827.9917
1087.943, 827.1649
1088.425, 833.0837
1088.907, 840.0273
1089.389, 840.5229
1089.872, 837.2296
1090.354, 833.6547
1090.836, 829.6697
1091.318, 828.2744
1091.800, 830.5760
1092.282, 833.2440
1092.764, 834.7658
1093.246, 834.8970
1093.729, 831.9486
1094.211, 826.7571
1094.693, 822.5856
1095.175, 820.3400
1095.657, 819.9301
1096.139, 822.7485
1096.621, 826.1061
1097.103, 826.9095
1097.585, 825.2790
1098.068, 824.2627
1098.550, 824.0234
1099.032, 823.3444
1099.514, 820.6331
1099.996, 817.8832
1100.478, 816.1246
1100.960, 815.4918
1101.442, 816.4949
1101.924, 819.7293
1102.407, 821.1191
1102.889, 819.7609
1103.371, 817.0191
1103.853, 813.1827
1104.335, 809.5511
1104.817, 807.8800
1105.299, 808.5973
1105.781, 808.9679
1106.264, 809.0348
1106.746, 808.0309
1107.228, 805.1769
1107.710, 801.6945
1108.192, 800.0142
1108.674, 799.6542
1109.156, 799.5617
1109.638, 799.7067
1110.120, 799.3993
1110.603, 797.9385
1111.085, 796.6260
1111.567, 796.2396
1112.049, 796.7191
1112.531, 797.8490
1113.013, 799.5048
1113.495, 800.9506
1113.977, 801.9095
1114.459, 802.4681
1114.942, 803.1163
1115.424, 803.1053
1115.906, 801.0315
1116.388, 796.5302
1116.870, 794.2978
1117.352, 794.6435
1117.834, 795.5054
1118.316, 795.3046
1118.799, 794.8995
1119.281, 795.2336
1119.763, 796.0198
1120.245, 795.6227
1120.727, 792.9104
1121.209, 793.5441
1121.691, 799.2563
1122.173, 805.4011
1122.656, 806.6082
1123.138, 804.7805
1123.620, 801.5873
1124.102, 797.1537
1124.584, 795.4412
1125.066, 798.6337
1125.548, 800.4553
1126.030, 798.0358
1126.512, 794.4808
1126.995, 797.1559
1127.477, 803.4430
1127.959, 807.3009
1128.441, 807.1736
1128.923, 804.9906
1129.405, 797.9840
1129.887, 793.0907
1130.369, 795.0924
1130.851, 801.9117
1131.334, 803.6349
1131.816, 801.0671
1132.298, 798.0246
1132.780, 795.3591
1133.262, 793.7582
1133.744, 794.0318
1134.226, 795.1565
1134.708, 796.5731
1135.191, 798.4077
1135.673, 797.8315
1136.155, 794.8867
1136.637, 791.1798
1137.119, 786.1788
1137.601, 782.3096
1138.083, 782.5444
1138.565, 784.8340
1139.047, 784.9585
1139.530, 782.7482
1140.012, 778.6073
1140.494, 772.2297
1140.976, 767.1971
1141.458, 768.7284
1141.940, 771.7451
1142.422, 770.2028
1142.904, 765.0260
1143.386, 763.2585
1143.869, 767.0625
1144.351, 768.4471
1144.833, 765.4750
1145.315, 761.4209
1145.797, 762.0916
1146.279, 763.5373
1146.761, 758.9948
1147.243, 747.5318
1147.726, 738.8580
1148.208, 734.9125
1148.690, 732.6720
1149.172, 731.7653
1149.654, 731.1763
1150.136, 729.0795
1150.618, 725.8149
1151.100, 721.7911
1151.583, 716.7577
1152.065, 712.6490
1152.547, 709.9108
1153.029, 708.3007
1153.511, 708.3815
1153.993, 709.1940
1154.475, 707.4024
1154.957, 703.5673
1155.439, 699.6225
1155.922, 696.7618
1156.404, 692.8645
1156.886, 684.0839
1157.368, 676.9564
1157.850, 677.2021
1158.332, 683.5908
1158.814, 683.2642
1159.296, 677.2594
1159.778, 672.3102
1160.261, 674.5795
1160.743, 675.6554
1161.225, 669.6122
1161.707, 661.6941
1162.189, 657.3354
1162.671, 656.5984
1163.153, 656.7643
1163.635, 657.6975
1164.118, 657.9333
1164.600, 656.1910
1165.082, 653.7309
1165.564, 651.5450
1166.046, 649.0953
1166.528, 644.6722
1167.010, 637.6447
1167.492, 635.8937
1167.974, 640.4736
1168.457, 644.2655
1168.939, 639.6768
1169.421, 633.4293
1169.903, 630.9916
1170.385, 631.6721
1170.867, 631.2783
1171.349, 629.7865
1171.831, 627.0602
1172.313, 622.8741
1172.796, 618.8885
1173.278, 616.7819
1173.760, 615.8043
1174.242, 615.9932
1174.724, 617.0767
1175.206, 615.3939
1175.688, 610.1933
1176.170, 605.4535
1176.653, 602.0353
1177.135, 600.0931
1177.617, 601.3299
1178.099, 603.3525
1178.581, 603.2126
1179.063, 600.2904
1179.545, 596.2164
1180.027, 590.2565
1180.510, 586.1725
1180.992, 586.1293
1181.474, 587.2191
1181.956, 585.2173
1182.438, 581.3221
1182.920, 577.0308
1183.402, 571.8951
1183.884, 570.1232
1184.366, 573.5364
1184.849, 575.3607
1185.331, 571.4962
1185.813, 564.9229
1186.295, 560.7258
1186.777, 558.0923
1187.259, 555.6270
1187.741, 553.4702
1188.223, 550.0941
1188.705, 544.7256
1189.188, 539.9249
1189.670, 537.2483
1190.152, 536.3383
1190.634, 538.5919
1191.116, 541.7291
1191.598, 540.2382
1192.080, 525.3431
1192.562, 517.1494
1193.045, 518.8073
1193.527, 522.5778
1194.009, 522.4178
1194.491, 519.6169
1194.973, 516.4655
1195.455, 513.2772
1195.937, 510.9510
1196.419, 510.5084
1196.901, 510.1035
1197.384, 510.0497
1197.866, 508.9749
1198.348, 504.5274
1198.830, 498.3511
1199.312, 494.7560
1199.794, 493.3748
1200.276, 491.5526
1200.758, 488.4218
1201.240, 484.2904
1201.723, 478.3127
1202.205, 472.9966
1202.687, 473.0420
1203.169, 475.7015
1203.651, 473.2608
1204.133, 465.9631
1204.615, 460.4200
1205.097, 461.1762
1205.580, 461.0801
1206.062, 458.6072
1206.544, 454.9746
1207.026, 451.4004
1207.508, 448.1939
1207.990, 446.8153
1208.472, 447.2447
1208.954, 446.3387
1209.437, 442.6230
1209.919, 437.4604
1210.401, 430.2284
1210.883, 423.0567
1211.365, 419.7431
1211.847, 419.1834
1212.329, 419.2501
1212.811, 419.6885
1213.293, 418.0867
1213.776, 410.8932
1214.258, 405.3259
1214.740, 403.6708
1215.222, 404.0926
1215.704, 404.0199
1216.186, 402.9758
1216.668, 399.2444
1217.150, 392.2035
1217.632, 386.4897
1218.115, 384.1656
1218.597, 382.0232
1219.079, 378.6879
1219.561, 375.4066
1220.043, 375.3015
1220.525, 377.0107
1221.007, 377.4485
1221.489, 375.7796
1221.972, 374.1801
1222.454, 373.8981
1222.936, 372.3061
1223.418, 367.8548
1223.900, 362.1076
1224.382, 357.6312
1224.864, 354.6076
1225.346, 353.7715
1225.828, 356.0104
1226.311, 357.4778
1226.793, 358.2271
1227.275, 356.9216
1227.757, 352.5037
1228.239, 346.1896
1228.721, 339.1391
1229.203, 332.4493
1229.685, 328.7314
1230.167, 329.8900
1230.650, 329.8920
1231.132, 327.8848
1231.614, 325.5330
1232.096, 323.3036
1232.578, 321.6761
1233.060, 322.8265
1233.542, 324.9471
1234.024, 324.4003
1234.507, 318.8072
1234.989, 314.4197
1235.471, 311.6525
1235.953, 309.6396
1236.435, 307.8820
1236.917, 306.6057
1237.399, 306.9077
1237.881, 307.7379
1238.364, 307.1110
1238.846, 303.6861
1239.328, 300.9525
1239.810, 298.9453
1240.292, 297.6211
1240.774, 297.5657
1241.256, 297.5878
1241.738, 295.2719
1242.220, 292.0810
1242.703, 290.9162
1243.185, 293.8872
1243.667, 293.1231
1244.149, 287.9044
1244.631, 283.3041
1245.113, 283.3261
1245.595, 285.0710
1246.077, 286.3893
1246.559, 286.8307
1247.042, 285.3554
1247.524, 281.3446
1248.006, 277.8162
1248.488, 274.7406
1248.970, 272.5372
1249.452, 271.7650
1249.934, 271.7116
1250.416, 272.6459
1250.899, 273.4979
1251.381, 272.4946
1251.863, 269.2313
1252.345, 266.2161
1252.827, 263.4689
1253.309, 261.6619
1253.791, 261.9431
1254.273, 262.5970
1254.755, 262.4485
1255.238, 261.9799
1255.720, 261.8216
1256.202, 261.9613
1256.684, 262.9556
1257.166, 264.6820
1257.648, 265.1495
1258.130, 261.8622
1258.612, 258.4615
1259.094, 256.6201
1259.577, 255.8444
1260.059, 256.1713
1260.541, 257.4120
1261.023, 256.3386
1261.505, 253.2901
1261.987, 251.4686
1262.469, 254.5882
1262.951, 256.6500
1263.434, 255.1277
1263.916, 252.4191
1264.398, 250.8596
1264.880, 250.1302
1265.362, 248.5371
1265.844, 246.2949
1266.326, 244.8232
1266.808, 246.1130
1267.291, 246.0094
1267.773, 242.5674
1268.255, 239.8320
1268.737, 243.7844
1269.219, 250.8802
1269.701, 251.5844
1270.183, 247.1437
1270.665, 243.5755
1271.147, 244.0299
1271.630, 243.4971
1272.112, 241.2973
1272.594, 239.0723
1273.076, 238.5923
1273.558, 238.9330
1274.040, 239.0855
1274.522, 238.7822
1275.004, 237.0541
1275.486, 232.0316
1275.969, 230.6823
1276.451, 234.0400
1276.933, 237.6733
1277.415, 237.1133
1277.897, 235.4223
1278.379, 236.4424
1278.861, 238.7330
1279.343, 238.4212
1279.825, 234.6394
1280.308, 232.0045
1280.790, 230.7635
1281.272, 230.1772
1281.754, 229.7390
1282.236, 229.7049
1282.718, 230.7010
1283.200, 232.0070
1283.682, 232.3912
1284.165, 231.8169
1284.647, 231.8011
1285.129, 232.3220
1285.611, 232.0694
1286.093, 228.6619
1286.575, 226.1931
1287.057, 227.4231
1287.539, 229.7738
1288.021, 230.5416
1288.504, 230.0164
1288.986, 229.9123
1289.468, 230.2112
1289.950, 230.4209
1290.432, 230.9920
1290.914, 230.2679
1291.396, 227.1659
1291.878, 224.2093
1292.360, 224.2929
1292.843, 226.1689
1293.325, 227.0107
1293.807, 226.8683
1294.289, 226.2122
1294.771, 224.1949
1295.253, 223.4717
1295.735, 224.5554
1296.217, 225.5714
1296.700, 224.5194
1297.182, 222.7393
1297.664, 221.4953
1298.146, 221.0959
1298.628, 222.7195
1299.110, 228.0456
1299.592, 229.0343
1300.074, 225.0711
1300.557, 220.8581
1301.039, 219.4293
1301.521, 219.3872
1302.003, 219.9192
1302.485, 220.9947
1302.967, 222.5468
1303.449, 224.7055
##END=



