##NAMES=Vanadinite
##RRUFFID=R050171
##IDEAL CHEMISTRY=Pb^2+^_5_(V^5+^O_4_)_3_Cl
##LOCALITY=Hamburg mine, La Paz County, Arizona, USA
##OWNER=RRUFF
##SOURCE=Marcus Origlieri
##DESCRIPTION=Red prismatic hexagonal crystals
##STATUS=The identification of this mineral has been confirmed by X-ray diffraction and chemical analysis
##URL=rruff.info/R050171
##MEASURED CHEMISTRY=Pb_5.00_((V_0.89_As_0.11_)O_4_)_3_Cl_1.00_
93.26398, 0.0000000E+00
93.74609, 54.73212
94.22821, 51.48010
94.71033, 53.24023
95.19244, 59.11275
95.67456, 65.85998
96.15668, 72.48170
96.63879, 79.03956
97.12091, 85.58327
97.60303, 91.98297
98.08514, 99.02008
98.56726, 107.9032
99.04938, 118.7029
99.53149, 130.0491
100.0136, 140.8534
100.4957, 151.0295
100.9778, 163.0114
101.4600, 176.8954
101.9421, 192.5264
102.4242, 209.3397
102.9063, 227.7183
103.3884, 246.5799
103.8705, 265.1036
104.3527, 283.4568
104.8348, 301.6551
105.3169, 320.1843
105.7990, 338.7365
106.2811, 356.4623
106.7632, 373.5435
107.2454, 389.4442
107.7275, 403.4889
108.2096, 415.2996
108.6917, 425.9719
109.1738, 434.8447
109.6559, 441.5290
110.1381, 450.7842
110.6202, 463.7716
111.1023, 478.9558
111.5844, 494.8397
112.0665, 511.1982
112.5486, 528.6396
113.0308, 547.4156
113.5129, 567.8611
113.9950, 589.0912
114.4771, 610.7379
114.9592, 633.0547
115.4413, 656.7425
115.9235, 683.1404
116.4056, 709.9681
116.8877, 735.9257
117.3698, 761.3599
117.8519, 785.8223
118.3340, 808.9689
118.8162, 831.0341
119.2983, 852.4857
119.7804, 874.0133
120.2625, 895.0598
120.7446, 914.9337
121.2267, 933.0557
121.7089, 950.8522
122.1910, 968.9850
122.6731, 987.4655
123.1552, 1006.348
123.6373, 1026.150
124.1194, 1046.159
124.6016, 1065.843
125.0837, 1084.551
125.5658, 1102.759
126.0479, 1120.465
126.5300, 1137.716
127.0121, 1155.582
127.4943, 1174.812
127.9764, 1195.241
128.4585, 1217.047
128.9406, 1240.396
129.4227, 1264.947
129.9048, 1289.588
130.3869, 1314.172
130.8691, 1340.006
131.3512, 1369.753
131.8333, 1398.139
132.3154, 1418.200
132.7975, 1432.701
133.2796, 1444.476
133.7618, 1456.717
134.2439, 1469.666
134.7260, 1483.084
135.2081, 1497.175
135.6902, 1512.157
136.1723, 1525.287
136.6545, 1534.837
137.1366, 1540.829
137.6187, 1546.129
138.1008, 1550.823
138.5829, 1555.055
139.0650, 1559.449
139.5472, 1564.227
140.0293, 1568.213
140.5114, 1571.086
140.9935, 1573.168
141.4756, 1572.055
141.9577, 1566.303
142.4399, 1557.170
142.9220, 1551.308
143.4041, 1550.311
143.8862, 1549.704
144.3683, 1546.181
144.8504, 1538.726
145.3326, 1530.864
145.8147, 1523.611
146.2968, 1516.787
146.7789, 1507.703
147.2610, 1494.668
147.7431, 1480.940
148.2253, 1469.162
148.7074, 1461.340
149.1895, 1452.807
149.6716, 1442.752
150.1537, 1430.977
150.6358, 1419.464
151.1180, 1408.118
151.6001, 1397.061
152.0822, 1386.586
152.5643, 1377.615
153.0464, 1368.214
153.5285, 1358.277
154.0107, 1348.206
154.4928, 1336.310
154.9749, 1320.116
155.4570, 1302.623
155.9391, 1287.624
156.4212, 1276.783
156.9034, 1267.229
157.3855, 1258.217
157.8676, 1250.125
158.3497, 1241.639
158.8318, 1232.721
159.3139, 1223.243
159.7961, 1212.906
160.2782, 1199.830
160.7603, 1187.262
161.2424, 1176.789
161.7245, 1169.092
162.2066, 1162.452
162.6888, 1156.476
163.1709, 1151.132
163.6530, 1146.363
164.1351, 1143.006
164.6172, 1139.644
165.0993, 1135.149
165.5815, 1128.286
166.0636, 1121.957
166.5457, 1118.202
167.0278, 1116.204
167.5099, 1113.478
167.9920, 1108.511
168.4742, 1102.369
168.9563, 1095.971
169.4384, 1089.405
169.9205, 1082.804
170.4026, 1076.285
170.8847, 1069.814
171.3669, 1063.334
171.8490, 1057.177
172.3311, 1050.909
172.8132, 1043.972
173.2953, 1035.829
173.7774, 1027.364
174.2596, 1019.354
174.7417, 1011.736
175.2238, 1004.215
175.7059, 996.8350
176.1880, 989.4396
176.6701, 981.8232
177.1523, 973.8882
177.6344, 965.6879
178.1165, 956.7227
178.5986, 946.9906
179.0807, 938.2780
179.5628, 933.8672
180.0450, 931.5721
180.5271, 926.3177
181.0092, 914.3536
181.4913, 899.1680
181.9734, 886.8220
182.4555, 877.3660
182.9377, 868.7336
183.4198, 858.4032
183.9019, 846.9958
184.3840, 836.9852
184.8661, 830.1794
185.3482, 825.2054
185.8304, 818.8685
186.3125, 811.1926
186.7946, 802.1922
187.2767, 790.9402
187.7588, 777.8477
188.2409, 765.9553
188.7231, 757.1400
189.2052, 750.5104
189.6873, 742.4879
190.1694, 732.7843
190.6515, 722.7866
191.1336, 714.2476
191.6158, 707.0906
192.0979, 700.1914
192.5800, 692.7817
193.0621, 685.0811
193.5442, 678.5583
194.0263, 673.4100
194.5085, 668.5958
194.9906, 662.4164
195.4727, 654.8607
195.9548, 647.6321
196.4369, 642.0958
196.9190, 638.0613
197.4012, 632.0077
197.8833, 623.3426
198.3654, 613.9730
198.8475, 607.3347
199.3296, 603.5685
199.8117, 600.4828
200.2939, 597.5803
200.7760, 594.8995
201.2581, 590.6227
201.7402, 584.2939
202.2223, 577.1220
202.7044, 571.3297
203.1866, 567.2228
203.6687, 563.1014
204.1508, 557.8554
204.6329, 551.2584
205.1150, 546.3319
205.5971, 543.6570
206.0793, 541.9935
206.5614, 538.5840
207.0435, 532.8328
207.5256, 527.8011
208.0077, 525.5346
208.4898, 526.8252
208.9720, 525.5313
209.4541, 520.5973
209.9362, 513.9641
210.4183, 509.8360
210.9004, 508.9111
211.3825, 508.5189
211.8647, 507.5517
212.3468, 505.9413
212.8289, 503.9801
213.3110, 501.4840
213.7931, 498.7540
214.2752, 496.6424
214.7574, 495.4956
215.2395, 494.0887
215.7216, 491.6805
216.2037, 487.8547
216.6858, 484.6968
217.1679, 482.3560
217.6500, 480.6085
218.1322, 479.0765
218.6143, 478.0250
219.0964, 476.6164
219.5785, 474.2214
220.0606, 469.9946
220.5427, 467.5259
221.0249, 467.6505
221.5070, 469.1596
221.9891, 469.1054
222.4712, 466.8187
222.9533, 464.2068
223.4354, 461.9777
223.9176, 459.7957
224.3997, 458.9762
224.8818, 460.2322
225.3639, 462.5183
225.8460, 463.3593
226.3281, 462.0672
226.8103, 460.5002
227.2924, 459.4875
227.7745, 459.2715
228.2566, 458.8966
228.7387, 458.2274
229.2208, 457.4595
229.7030, 457.1493
230.1851, 457.7714
230.6672, 458.0851
231.1493, 457.4988
231.6314, 455.5732
232.1135, 453.8927
232.5957, 452.2209
233.0778, 450.8928
233.5599, 450.8787
234.0420, 453.2940
234.5241, 455.2036
235.0062, 455.0290
235.4884, 451.1616
235.9705, 450.0230
236.4526, 452.9561
236.9347, 458.0174
237.4168, 461.1246
237.8989, 461.1970
238.3811, 461.0311
238.8632, 461.7942
239.3453, 464.1453
239.8274, 465.3243
240.3095, 464.6017
240.7916, 463.0939
241.2738, 462.9705
241.7559, 464.9420
242.2380, 467.1328
242.7201, 468.7606
243.2022, 469.3913
243.6843, 471.0608
244.1665, 474.4095
244.6486, 478.4401
245.1307, 481.3857
245.6128, 482.7314
246.0949, 483.8403
246.5770, 484.8988
247.0592, 485.5034
247.5413, 487.7677
248.0234, 492.3274
248.5055, 498.0963
248.9876, 503.3907
249.4697, 508.3254
249.9519, 512.6346
250.4340, 516.2128
250.9161, 519.0087
251.3982, 521.1190
251.8803, 521.3838
252.3624, 521.9020
252.8446, 525.8158
253.3267, 534.7932
253.8088, 543.9450
254.2909, 552.2459
254.7730, 559.8190
255.2551, 565.5908
255.7373, 568.6019
256.2194, 570.7882
256.7015, 574.3141
257.1836, 579.2250
257.6657, 585.3831
258.1478, 592.8056
258.6299, 601.4241
259.1121, 611.2804
259.5942, 622.9608
260.0763, 635.1937
260.5584, 647.0917
261.0405, 658.6879
261.5226, 669.4308
262.0048, 678.5125
262.4869, 685.9367
262.9690, 696.5085
263.4511, 711.1761
263.9332, 727.5162
264.4153, 743.0015
264.8975, 756.9882
265.3796, 772.5587
265.8617, 790.7631
266.3438, 811.2322
266.8259, 831.6227
267.3080, 851.2707
267.7902, 871.8682
268.2723, 894.5685
268.7544, 920.3426
269.2365, 945.7264
269.7186, 969.6450
270.2007, 992.8448
270.6829, 1018.376
271.1650, 1046.609
271.6471, 1076.234
272.1292, 1105.503
272.6113, 1134.140
273.0934, 1164.099
273.5756, 1195.456
274.0577, 1227.987
274.5398, 1261.861
275.0219, 1297.086
275.5040, 1332.935
275.9861, 1368.782
276.4683, 1404.475
276.9504, 1441.382
277.4325, 1479.981
277.9146, 1519.513
278.3967, 1557.798
278.8788, 1594.330
279.3610, 1631.563
279.8431, 1670.487
280.3252, 1710.781
280.8073, 1753.540
281.2894, 1799.634
281.7715, 1847.083
282.2537, 1891.296
282.7358, 1931.843
283.2179, 1973.876
283.7000, 2021.063
284.1821, 2073.315
284.6642, 2123.496
285.1464, 2171.852
285.6285, 2217.794
286.1106, 2259.782
286.5927, 2297.763
287.0748, 2334.654
287.5569, 2374.130
288.0391, 2414.728
288.5212, 2444.506
289.0033, 2462.480
289.4854, 2474.609
289.9675, 2489.647
290.4496, 2506.877
290.9318, 2517.359
291.4139, 2517.233
291.8960, 2508.024
292.3781, 2494.061
292.8602, 2475.065
293.3423, 2453.227
293.8245, 2430.485
294.3066, 2406.623
294.7887, 2380.326
295.2708, 2350.566
295.7529, 2318.763
296.2350, 2286.496
296.7172, 2253.943
297.1993, 2225.067
297.6814, 2204.103
298.1635, 2189.273
298.6456, 2175.645
299.1277, 2160.880
299.6099, 2147.844
300.0920, 2141.534
300.5741, 2141.459
301.0562, 2144.837
301.5383, 2148.917
302.0204, 2155.256
302.5026, 2167.054
302.9847, 2186.077
303.4668, 2208.513
303.9489, 2230.253
304.4310, 2251.631
304.9131, 2275.533
305.3953, 2303.150
305.8774, 2334.229
306.3595, 2368.042
306.8416, 2404.292
307.3237, 2443.445
307.8058, 2486.746
308.2880, 2532.933
308.7701, 2579.015
309.2522, 2622.523
309.7343, 2666.315
310.2164, 2713.065
310.6985, 2763.539
311.1807, 2816.010
311.6628, 2869.395
312.1449, 2924.595
312.6270, 2981.237
313.1091, 3040.158
313.5912, 3100.271
314.0734, 3161.853
314.5555, 3224.657
315.0376, 3287.944
315.5197, 3352.505
316.0018, 3417.357
316.4839, 3479.808
316.9661, 3538.592
317.4482, 3595.952
317.9303, 3654.875
318.4124, 3713.995
318.8945, 3766.801
319.3766, 3813.677
319.8588, 3851.113
320.3409, 3876.174
320.8230, 3888.620
321.3051, 3888.584
321.7872, 3875.417
322.2693, 3849.669
322.7515, 3813.037
323.2336, 3766.516
323.7157, 3708.805
324.1978, 3638.294
324.6799, 3551.683
325.1620, 3460.041
325.6442, 3364.423
326.1263, 3264.828
326.6084, 3161.233
327.0905, 3047.111
327.5726, 2935.014
328.0547, 2828.647
328.5369, 2730.817
329.0190, 2633.019
329.5011, 2532.225
329.9832, 2433.351
330.4653, 2342.348
330.9474, 2261.513
331.4296, 2185.716
331.9117, 2113.813
332.3938, 2046.100
332.8759, 1983.589
333.3580, 1927.243
333.8401, 1874.418
334.3223, 1823.421
334.8044, 1772.466
335.2865, 1726.099
335.7686, 1685.909
336.2507, 1650.888
336.7328, 1617.548
337.2150, 1584.746
337.6971, 1555.070
338.1792, 1529.786
338.6613, 1509.515
339.1434, 1491.955
339.6255, 1476.842
340.1077, 1464.485
340.5898, 1455.595
341.0719, 1450.786
341.5540, 1447.508
342.0361, 1443.905
342.5182, 1439.772
343.0003, 1440.781
343.4825, 1447.729
343.9646, 1458.009
344.4467, 1467.550
344.9288, 1476.209
345.4109, 1487.528
345.8930, 1502.912
346.3752, 1521.951
346.8573, 1542.518
347.3394, 1564.854
347.8215, 1588.237
348.3036, 1611.458
348.7857, 1634.946
349.2679, 1661.074
349.7500, 1691.231
350.2321, 1723.470
350.7142, 1754.539
351.1963, 1784.210
351.6784, 1811.751
352.1606, 1834.196
352.6427, 1854.098
353.1248, 1877.166
353.6069, 1905.226
354.0890, 1934.736
354.5711, 1961.786
355.0533, 1987.109
355.5354, 2013.302
356.0175, 2041.882
356.4996, 2071.706
356.9817, 2101.694
357.4638, 2131.635
357.9460, 2163.006
358.4281, 2197.268
358.9102, 2233.645
359.3923, 2270.443
359.8744, 2307.648
360.3565, 2344.724
360.8387, 2382.552
361.3208, 2420.857
361.8029, 2454.317
362.2850, 2482.015
362.7671, 2503.016
363.2492, 2516.552
363.7314, 2522.431
364.2135, 2520.797
364.6956, 2513.775
365.1777, 2499.681
365.6598, 2473.150
366.1419, 2428.863
366.6241, 2374.714
367.1062, 2314.432
367.5883, 2246.816
368.0704, 2175.836
368.5525, 2100.942
369.0346, 2023.339
369.5168, 1943.643
369.9989, 1855.389
370.4810, 1771.625
370.9631, 1695.483
371.4452, 1627.907
371.9273, 1560.079
372.4095, 1489.865
372.8916, 1422.010
373.3737, 1360.242
373.8558, 1306.283
374.3379, 1254.748
374.8200, 1204.385
375.3022, 1155.391
375.7843, 1110.407
376.2664, 1069.545
376.7485, 1031.539
377.2306, 995.6522
377.7127, 961.6173
378.1949, 930.1935
378.6770, 901.8171
379.1591, 875.9359
379.6412, 852.5613
380.1233, 831.6638
380.6054, 811.6801
381.0876, 792.2379
381.5697, 773.2938
382.0518, 753.0198
382.5339, 731.0670
383.0160, 710.6859
383.4981, 697.1575
383.9803, 689.1412
384.4624, 680.0298
384.9445, 667.1663
385.4266, 652.8683
385.9087, 640.9323
386.3908, 631.2870
386.8730, 622.7227
387.3551, 614.7169
387.8372, 607.0502
388.3193, 599.2308
388.8014, 591.0712
389.2835, 583.0613
389.7657, 575.6200
390.2478, 568.6505
390.7299, 562.1026
391.2120, 556.0194
391.6941, 550.2872
392.1762, 544.8942
392.6584, 539.8933
393.1405, 535.1471
393.6226, 531.1819
394.1047, 527.2075
394.5868, 522.4299
395.0689, 514.9570
395.5511, 508.2651
396.0332, 504.0233
396.5153, 501.8292
396.9974, 499.4808
397.4795, 495.9272
397.9616, 492.4113
398.4438, 489.7753
398.9259, 489.6184
399.4080, 487.6644
399.8901, 481.6482
400.3722, 473.8613
400.8543, 468.6375
401.3365, 468.0933
401.8186, 467.6056
402.3007, 466.1006
402.7828, 463.5092
403.2649, 460.3746
403.7470, 455.8693
404.2292, 451.6939
404.7113, 449.7292
405.1934, 451.0692
405.6755, 451.3368
406.1576, 449.7592
406.6397, 446.7270
407.1219, 443.2733
407.6040, 439.0334
408.0861, 435.7699
408.5682, 435.4633
409.0503, 438.0318
409.5324, 437.6557
410.0146, 433.6042
410.4967, 427.9788
410.9788, 423.6554
411.4609, 420.5439
411.9430, 417.4078
412.4251, 413.7600
412.9073, 409.8005
413.3894, 405.6981
413.8715, 401.4446
414.3536, 397.3492
414.8357, 394.3665
415.3178, 391.5583
415.8000, 386.9561
416.2821, 379.2484
416.7642, 371.2482
417.2463, 365.7266
417.7284, 362.0316
418.2105, 358.5939
418.6927, 354.6842
419.1748, 350.6280
419.6569, 346.6520
420.1390, 342.7651
420.6211, 338.8127
421.1032, 334.7521
421.5854, 330.4987
422.0675, 325.9638
422.5496, 320.1655
423.0317, 315.0327
423.5138, 311.5822
423.9959, 309.5123
424.4781, 306.6616
424.9602, 301.6696
425.4423, 296.6682
425.9244, 292.6821
426.4065, 290.3719
426.8886, 287.9109
427.3708, 285.2162
427.8529, 282.3802
428.3350, 279.4666
428.8171, 276.1380
429.2992, 273.3561
429.7813, 271.4703
430.2635, 270.4591
430.7456, 269.5759
431.2277, 269.1123
431.7098, 268.1466
432.1919, 265.6270
432.6740, 261.3901
433.1562, 257.6455
433.6383, 254.6436
434.1204, 252.2976
434.6025, 250.6630
435.0846, 249.7214
435.5667, 248.6853
436.0489, 247.1372
436.5310, 245.1625
437.0131, 242.9248
437.4952, 240.3908
437.9773, 237.9889
438.4594, 236.2881
438.9415, 235.0199
439.4236, 233.5992
439.9058, 231.7042
440.3879, 229.7673
440.8700, 228.2701
441.3521, 227.0910
441.8342, 225.7974
442.3163, 223.9092
442.7985, 221.9697
443.2806, 220.4160
443.7627, 219.3820
444.2448, 218.4493
444.7269, 217.6495
445.2090, 216.7938
445.6912, 215.6613
446.1733, 213.7815
446.6554, 212.0363
447.1375, 210.5915
447.6196, 209.4511
448.1017, 208.7142
448.5839, 208.9776
449.0660, 209.1546
449.5481, 208.7208
450.0302, 207.3402
450.5123, 206.0327
450.9944, 204.8031
451.4766, 203.6607
451.9587, 202.5879
452.4408, 201.4834
452.9229, 200.7731
453.4050, 200.8108
453.8871, 201.4194
454.3693, 200.9492
454.8514, 199.1837
455.3335, 197.2714
455.8156, 196.2676
456.2977, 196.0547
456.7798, 195.4065
457.2620, 194.0281
457.7441, 192.4830
458.2262, 191.7900
458.7083, 191.7373
459.1904, 191.3372
459.6725, 189.6273
460.1547, 187.4932
460.6368, 186.2474
461.1189, 185.8690
461.6010, 185.6443
462.0831, 185.2702
462.5652, 184.6806
463.0474, 183.7254
463.5295, 181.9396
464.0116, 180.5208
464.4937, 180.5730
464.9758, 181.4323
465.4579, 181.7311
465.9401, 180.5515
466.4222, 179.1610
466.9043, 178.1025
467.3864, 177.4732
467.8685, 176.7149
468.3506, 175.2815
468.8328, 174.0056
469.3149, 173.5475
469.7970, 174.9248
470.2791, 175.4019
470.7612, 174.4051
471.2433, 172.4935
471.7255, 171.2240
472.2076, 170.8483
472.6897, 170.4715
473.1718, 169.6935
473.6539, 168.5163
474.1360, 167.5124
474.6182, 166.7034
475.1003, 165.9926
475.5824, 165.1898
476.0645, 164.3397
476.5466, 163.8788
477.0287, 163.9591
477.5109, 164.3489
477.9930, 164.8346
478.4751, 165.3581
478.9572, 165.6398
479.4393, 165.6658
479.9214, 165.2888
480.4036, 163.9670
480.8857, 161.6441
481.3678, 159.8451
481.8499, 160.2388
482.3320, 161.4655
482.8141, 161.9688
483.2963, 160.6005
483.7784, 159.3787
484.2605, 159.4540
484.7426, 160.2859
485.2247, 160.5359
485.7068, 159.1894
486.1890, 157.8480
486.6711, 157.1358
487.1532, 157.2451
487.6353, 157.2074
488.1174, 157.1177
488.5995, 156.8078
489.0817, 155.9634
489.5638, 153.8580
490.0459, 153.1735
490.5280, 154.8223
491.0101, 157.6356
491.4922, 158.5982
491.9744, 157.4364
492.4565, 155.7879
492.9386, 154.0729
493.4207, 152.3836
493.9028, 151.5800
494.3849, 151.7382
494.8671, 151.9540
495.3492, 151.2883
495.8313, 149.9986
496.3134, 148.7774
496.7955, 147.7286
497.2776, 146.8990
497.7598, 146.3788
498.2419, 146.1308
498.7240, 146.0740
499.2061, 146.5506
499.6882, 146.9176
500.1703, 146.4244
500.6525, 145.0822
501.1346, 144.3139
501.6167, 145.4814
502.0988, 146.9461
502.5809, 147.4725
503.0630, 146.0300
503.5452, 144.9303
504.0273, 144.7760
504.5094, 145.0759
504.9915, 144.9768
505.4736, 144.1174
505.9557, 143.4034
506.4379, 143.1504
506.9200, 143.3161
507.4021, 143.0358
507.8842, 142.0369
508.3663, 141.2184
508.8484, 141.4113
509.3306, 142.6474
509.8127, 143.2933
510.2948, 143.1786
510.7769, 142.6265
511.2590, 141.9158
511.7411, 141.1066
512.2233, 140.5784
512.7054, 140.6908
513.1875, 140.9668
513.6696, 140.6099
514.1517, 139.7276
514.6339, 138.9096
515.1160, 138.9417
515.5981, 138.9811
516.0802, 137.9522
516.5623, 135.4050
517.0444, 133.4931
517.5266, 133.8696
518.0087, 135.1429
518.4908, 135.7952
518.9729, 134.4246
519.4550, 133.5772
519.9371, 134.2605
520.4193, 136.0170
520.9014, 136.8374
521.3835, 136.2293
521.8656, 135.3190
522.3477, 134.3590
522.8298, 133.2583
523.3120, 132.9561
523.7941, 133.7418
524.2762, 134.7433
524.7583, 135.0746
525.2404, 134.7088
525.7225, 134.5150
526.2047, 134.7481
526.6868, 134.9725
527.1689, 134.0499
527.6510, 132.2207
528.1331, 130.9826
528.6152, 131.6104
529.0974, 132.9881
529.5795, 133.6326
530.0616, 133.5536
530.5437, 133.0005
531.0258, 131.6164
531.5079, 130.1230
531.9901, 129.2044
532.4722, 129.1311
532.9543, 129.2438
533.4364, 129.2969
533.9185, 129.3811
534.4006, 129.6203
534.8828, 130.3713
535.3649, 130.9092
535.8470, 130.9751
536.3291, 130.6658
536.8112, 130.5379
537.2933, 130.8205
537.7755, 130.9204
538.2576, 130.4560
538.7397, 129.2957
539.2218, 128.6289
539.7039, 128.5469
540.1860, 128.7218
540.6682, 128.8974
541.1503, 129.0575
541.6324, 129.0369
542.1145, 128.8261
542.5966, 128.3734
543.0787, 127.2068
543.5609, 125.6215
544.0430, 124.7165
544.5251, 125.8760
545.0072, 127.4675
545.4893, 127.6414
545.9714, 126.4719
546.4536, 125.4793
546.9357, 125.6266
547.4178, 126.1754
547.8999, 126.5796
548.3820, 126.7034
548.8641, 126.7787
549.3463, 126.8272
549.8284, 126.8587
550.3105, 126.8821
550.7926, 126.8332
551.2747, 126.8735
551.7568, 127.0543
552.2390, 127.3419
552.7211, 127.6415
553.2032, 128.0310
553.6853, 128.1924
554.1674, 127.8069
554.6495, 126.9388
555.1317, 126.6915
555.6138, 127.1474
556.0959, 127.6258
556.5780, 127.4063
557.0601, 126.6973
557.5422, 125.9932
558.0244, 125.2896
558.5065, 124.9026
558.9886, 125.4172
559.4707, 126.4704
559.9528, 127.3243
560.4349, 127.8717
560.9171, 127.9592
561.3992, 127.2275
561.8813, 125.8166
562.3634, 124.7080
562.8455, 123.7176
563.3276, 123.4368
563.8098, 124.4968
564.2919, 127.7370
564.7740, 129.3225
565.2561, 128.4181
565.7382, 126.6858
566.2203, 125.5977
566.7025, 125.1720
567.1846, 125.4263
567.6667, 126.6155
568.1488, 128.1451
568.6309, 128.5935
569.1130, 128.0206
569.5952, 127.6892
570.0773, 128.4770
570.5594, 129.7014
571.0415, 129.9516
571.5236, 129.3286
572.0057, 128.7514
572.4879, 129.1202
572.9700, 129.7047
573.4521, 129.6328
573.9342, 128.6329
574.4163, 127.8392
574.8984, 127.8599
575.3806, 128.3059
575.8627, 128.7839
576.3448, 129.1891
576.8269, 129.6543
577.3090, 130.4232
577.7911, 131.2313
578.2733, 131.4239
578.7554, 130.6440
579.2375, 129.9485
579.7196, 129.6609
580.2017, 129.7401
580.6838, 129.7740
581.1660, 129.7087
581.6481, 129.9152
582.1302, 130.9626
582.6123, 132.5680
583.0944, 133.5434
583.5765, 133.8018
584.0587, 133.5417
584.5408, 132.2347
585.0229, 130.6883
585.5050, 130.4066
585.9871, 132.7232
586.4692, 135.0090
586.9513, 135.5211
587.4334, 134.8750
587.9155, 134.3303
588.3976, 134.0618
588.8798, 134.1647
589.3619, 134.7599
589.8440, 135.8481
590.3261, 137.0021
590.8082, 138.3784
591.2903, 139.6009
591.7725, 140.5735
592.2546, 141.3896
592.7367, 141.2472
593.2188, 139.8833
593.7009, 138.2417
594.1830, 137.2007
594.6652, 136.7794
595.1473, 137.1239
595.6294, 138.4938
596.1115, 140.0766
596.5936, 140.7124
597.0757, 140.6749
597.5579, 140.6893
598.0400, 141.1602
598.5221, 141.7461
599.0042, 142.2042
599.4863, 142.5604
599.9684, 142.9586
600.4506, 143.4988
600.9327, 144.0484
601.4148, 144.5293
601.8969, 144.9008
602.3790, 145.3388
602.8611, 145.8493
603.3433, 146.4271
603.8254, 147.1895
604.3075, 148.4000
604.7896, 148.6319
605.2717, 147.4422
605.7538, 145.8812
606.2360, 145.7295
606.7181, 146.8777
607.2002, 148.2136
607.6823, 149.5977
608.1644, 150.7611
608.6465, 151.1547
609.1287, 150.9145
609.6108, 150.5398
610.0929, 150.0531
610.5750, 149.7321
611.0571, 149.6665
611.5392, 149.8804
612.0214, 150.7212
612.5035, 153.1714
612.9856, 155.6577
613.4677, 157.2533
613.9498, 157.6711
614.4319, 157.5565
614.9141, 156.5614
615.3962, 155.3490
615.8783, 154.5434
616.3604, 154.1018
616.8425, 154.3075
617.3246, 155.3596
617.8068, 156.8358
618.2889, 157.9191
618.7710, 158.6441
619.2531, 159.2388
619.7352, 159.7804
620.2173, 160.2672
620.6995, 160.6369
621.1816, 160.9295
621.6637, 161.3265
622.1458, 162.2476
622.6279, 163.0867
623.1100, 163.2292
623.5922, 162.5415
624.0743, 162.2834
624.5564, 163.1871
625.0385, 164.3597
625.5206, 165.1677
626.0027, 165.2867
626.4849, 165.7685
626.9670, 166.9201
627.4491, 168.1059
627.9312, 168.4889
628.4133, 168.0102
628.8954, 167.1104
629.3776, 165.5651
629.8597, 164.1566
630.3418, 164.6944
630.8239, 166.8014
631.3060, 168.6830
631.7881, 169.4666
632.2703, 169.5992
632.7524, 169.3313
633.2345, 168.7588
633.7166, 168.3500
634.1987, 167.8509
634.6808, 167.9797
635.1630, 169.7770
635.6451, 173.9066
636.1272, 175.7782
636.6093, 172.4634
637.0914, 168.8421
637.5735, 168.1826
638.0557, 171.8174
638.5378, 174.2903
639.0199, 175.3428
639.5020, 175.5385
639.9841, 175.4226
640.4662, 175.0225
640.9484, 174.7247
641.4305, 174.5537
641.9126, 174.6513
642.3947, 175.4442
642.8768, 176.6892
643.3589, 177.7377
643.8411, 178.4703
644.3232, 178.7346
644.8053, 177.9856
645.2874, 176.5309
645.7695, 175.7832
646.2516, 176.6891
646.7338, 177.9387
647.2159, 179.0713
647.6980, 180.1056
648.1801, 180.7878
648.6622, 181.0071
649.1443, 181.0613
649.6265, 180.9246
650.1086, 180.5205
650.5907, 181.4632
651.0728, 184.1312
651.5549, 186.8344
652.0370, 187.4057
652.5192, 186.4482
653.0013, 185.6291
653.4834, 185.1642
653.9655, 185.3610
654.4476, 187.2646
654.9297, 189.8749
655.4119, 191.5414
655.8940, 190.3356
656.3761, 189.4576
656.8582, 190.4317
657.3403, 192.6832
657.8224, 194.0838
658.3046, 193.9838
658.7867, 193.8057
659.2688, 193.7559
659.7509, 193.9024
660.2330, 195.2495
660.7151, 198.0828
661.1973, 200.6089
661.6794, 201.4080
662.1615, 200.9491
662.6436, 200.8923
663.1257, 201.2890
663.6078, 202.0653
664.0900, 203.5850
664.5721, 205.2591
665.0542, 206.2875
665.5363, 206.3183
666.0184, 206.5209
666.5005, 207.3863
666.9827, 208.6957
667.4648, 210.2217
667.9469, 212.1799
668.4290, 214.0389
668.9111, 215.7367
669.3932, 217.3729
669.8754, 219.2138
670.3575, 221.4163
670.8396, 222.9632
671.3217, 223.3246
671.8038, 223.1463
672.2859, 223.8698
672.7681, 225.4356
673.2502, 227.5468
673.7323, 230.7940
674.2144, 234.0319
674.6965, 235.4177
675.1786, 235.3520
675.6608, 236.1182
676.1429, 239.7605
676.6250, 243.7513
677.1071, 246.8007
677.5892, 248.7353
678.0714, 250.0784
678.5535, 250.1332
679.0356, 250.4543
679.5177, 252.1093
679.9998, 255.4554
680.4819, 258.3557
680.9641, 260.7140
681.4462, 263.0261
681.9283, 266.0938
682.4104, 269.6679
682.8925, 272.5526
683.3746, 274.4016
683.8568, 276.1240
684.3389, 278.8330
684.8210, 281.9972
685.3031, 284.8177
685.7852, 285.8307
686.2673, 287.8148
686.7495, 292.8882
687.2316, 299.5167
687.7137, 304.1110
688.1958, 304.6292
688.6779, 306.0807
689.1600, 309.8817
689.6422, 315.3080
690.1243, 319.4774
690.6064, 322.2948
691.0885, 324.8137
691.5706, 327.1458
692.0527, 329.6606
692.5349, 333.5091
693.0170, 338.6053
693.4991, 344.2764
693.9812, 350.4371
694.4633, 356.7482
694.9454, 363.0339
695.4276, 369.2421
695.9097, 374.7704
696.3918, 378.1920
696.8739, 381.7746
697.3560, 387.0835
697.8381, 394.6402
698.3203, 402.1476
698.8024, 409.5022
699.2845, 416.9832
699.7666, 424.9905
700.2487, 433.5404
700.7308, 440.9674
701.2130, 446.7359
701.6951, 452.7846
702.1772, 461.9328
702.6593, 473.1551
703.1414, 484.0648
703.6235, 494.0394
704.1057, 503.6242
704.5878, 512.9747
705.0699, 522.2183
705.5520, 531.5571
706.0341, 540.4126
706.5162, 550.1597
706.9984, 561.1586
707.4805, 573.1698
707.9626, 586.3351
708.4447, 601.5399
708.9268, 614.6932
709.4089, 623.3666
709.8911, 629.6613
710.3732, 640.3895
710.8553, 655.1561
711.3374, 669.3497
711.8195, 679.7176
712.3016, 688.4982
712.7838, 697.7123
713.2659, 707.4178
713.7480, 718.1417
714.2301, 731.9754
714.7122, 745.3121
715.1943, 756.0972
715.6765, 763.7739
716.1586, 772.3659
716.6407, 783.5597
717.1228, 793.4382
717.6049, 799.3478
718.0870, 800.9125
718.5692, 803.2490
719.0513, 806.5879
719.5334, 809.2961
720.0155, 809.8406
720.4976, 808.6253
720.9797, 806.6057
721.4619, 803.9956
721.9440, 800.1749
722.4261, 793.7113
722.9082, 786.3981
723.3903, 780.1836
723.8724, 777.5671
724.3546, 772.5464
724.8367, 762.8474
725.3188, 751.2693
725.8009, 740.6664
726.2830, 731.3885
726.7651, 721.9759
727.2473, 711.9908
727.7294, 701.9143
728.2115, 692.1367
728.6936, 682.7543
729.1757, 674.9623
729.6578, 669.8625
730.1400, 665.3049
730.6221, 658.2412
731.1042, 650.0002
731.5863, 643.4988
732.0684, 641.9387
732.5505, 640.0932
733.0327, 635.6191
733.5148, 629.2845
733.9969, 624.1766
734.4790, 619.9485
734.9611, 617.9418
735.4432, 619.5858
735.9254, 623.5001
736.4075, 622.9554
736.8896, 617.9604
737.3717, 614.2796
737.8538, 616.6314
738.3359, 621.5660
738.8181, 623.5964
739.3002, 623.1512
739.7823, 623.0305
740.2644, 624.3927
740.7465, 626.8235
741.2286, 630.3444
741.7108, 634.9675
742.1929, 639.4836
742.6750, 643.3741
743.1571, 647.7071
743.6392, 653.0731
744.1213, 659.5016
744.6035, 666.5372
745.0856, 674.3766
745.5677, 681.6457
746.0498, 685.8387
746.5319, 688.8136
747.0140, 694.8245
747.4962, 704.3320
747.9783, 714.5275
748.4604, 723.6323
748.9425, 732.6165
749.4246, 742.4547
749.9067, 753.8765
750.3889, 764.1649
750.8710, 771.5006
751.3531, 778.8826
751.8352, 788.6613
752.3173, 801.2230
752.7994, 814.6194
753.2816, 829.0034
753.7637, 843.9044
754.2458, 859.8008
754.7279, 876.0524
755.2100, 890.8461
755.6921, 903.2197
756.1743, 916.1082
756.6564, 932.1603
757.1385, 949.8666
757.6206, 967.3446
758.1027, 984.2772
758.5848, 1001.001
759.0670, 1017.250
759.5491, 1033.657
760.0312, 1051.355
760.5133, 1070.543
760.9954, 1089.922
761.4775, 1108.998
761.9597, 1128.875
762.4418, 1151.923
762.9239, 1177.602
763.4060, 1202.742
763.8881, 1226.046
764.3702, 1249.162
764.8524, 1271.900
765.3345, 1295.323
765.8166, 1321.031
766.2987, 1351.427
766.7808, 1382.254
767.2629, 1412.520
767.7451, 1442.490
768.2272, 1473.328
768.7093, 1504.643
769.1914, 1536.522
769.6735, 1568.700
770.1556, 1601.753
770.6378, 1637.738
771.1199, 1676.055
771.6020, 1713.561
772.0841, 1747.932
772.5662, 1781.941
773.0483, 1816.800
773.5305, 1853.266
774.0126, 1893.261
774.4947, 1940.546
774.9768, 1988.039
775.4589, 2034.502
775.9410, 2079.797
776.4232, 2121.429
776.9053, 2157.555
777.3874, 2197.849
777.8695, 2247.356
778.3516, 2302.462
778.8337, 2352.978
779.3159, 2399.705
779.7980, 2447.627
780.2801, 2500.232
780.7622, 2554.170
781.2443, 2605.981
781.7264, 2656.143
782.2086, 2705.951
782.6907, 2754.688
783.1728, 2804.555
783.6549, 2856.433
784.1370, 2909.700
784.6191, 2962.266
785.1012, 3013.477
785.5833, 3064.872
786.0654, 3117.124
786.5475, 3170.223
787.0297, 3222.680
787.5118, 3275.375
787.9939, 3328.974
788.4760, 3387.438
788.9581, 3445.685
789.4402, 3497.295
789.9224, 3543.734
790.4045, 3593.942
790.8866, 3652.617
791.3687, 3713.659
791.8508, 3773.983
792.3329, 3834.393
792.8151, 3896.193
793.2972, 3960.364
793.7793, 4022.572
794.2614, 4077.211
794.7435, 4129.868
795.2256, 4195.708
795.7078, 4273.605
796.1899, 4351.424
796.6720, 4420.731
797.1541, 4489.808
797.6362, 4562.760
798.1183, 4640.614
798.6005, 4725.446
799.0826, 4822.603
799.5647, 4919.645
800.0468, 5009.727
800.5289, 5094.187
801.0110, 5192.993
801.4932, 5306.418
801.9753, 5425.192
802.4574, 5542.794
802.9395, 5662.284
803.4216, 5788.428
803.9037, 5921.151
804.3859, 6059.509
804.8680, 6205.813
805.3501, 6354.364
805.8322, 6502.937
806.3143, 6650.732
806.7964, 6803.634
807.2786, 6960.055
807.7607, 7121.286
808.2428, 7288.616
808.7249, 7461.082
809.2070, 7632.468
809.6891, 7802.913
810.1713, 7976.556
810.6534, 8156.619
811.1355, 8338.977
811.6176, 8517.634
812.0997, 8693.208
812.5818, 8870.686
813.0640, 9051.850
813.5461, 9235.857
814.0282, 9423.939
814.5103, 9616.354
814.9924, 9804.888
815.4745, 9989.423
815.9567, 10176.13
816.4388, 10372.83
816.9209, 10574.31
817.4030, 10762.25
817.8851, 10938.64
818.3672, 11112.88
818.8494, 11299.89
819.3315, 11478.91
819.8136, 11630.42
820.2957, 11757.17
820.7778, 11879.59
821.2599, 12009.79
821.7421, 12129.09
822.2242, 12232.51
822.7063, 12319.71
823.1884, 12381.99
823.6705, 12418.41
824.1526, 12438.30
824.6348, 12451.09
825.1169, 12447.46
825.5990, 12406.67
826.0811, 12334.55
826.5632, 12250.33
827.0453, 12172.59
827.5275, 12076.31
828.0096, 11941.12
828.4917, 11773.34
828.9738, 11610.76
829.4559, 11467.32
829.9380, 11301.00
830.4202, 11095.85
830.9023, 10862.20
831.3844, 10621.89
831.8665, 10377.51
832.3486, 10132.67
832.8307, 9894.193
833.3129, 9654.378
833.7950, 9404.533
834.2771, 9147.559
834.7592, 8891.938
835.2413, 8637.412
835.7234, 8384.017
836.2056, 8129.395
836.6877, 7875.312
837.1698, 7632.526
837.6519, 7404.256
838.1340, 7178.862
838.6161, 6950.913
839.0983, 6723.506
839.5804, 6496.218
840.0625, 6272.405
840.5446, 6061.948
841.0267, 5872.456
841.5089, 5689.469
841.9910, 5503.917
842.4731, 5318.912
842.9552, 5139.996
843.4373, 4967.404
843.9194, 4800.634
844.4016, 4639.009
844.8837, 4483.667
845.3658, 4340.802
845.8479, 4208.457
846.3300, 4077.589
846.8121, 3945.272
847.2943, 3815.869
847.7764, 3692.695
848.2585, 3574.923
848.7406, 3462.977
849.2227, 3356.208
849.7048, 3255.077
850.1870, 3160.944
850.6691, 3070.858
851.1512, 2981.406
851.6333, 2892.129
852.1154, 2805.968
852.5975, 2723.242
853.0797, 2645.678
853.5618, 2576.315
854.0439, 2512.446
854.5260, 2448.855
855.0081, 2384.709
855.4902, 2322.692
855.9724, 2265.105
856.4545, 2209.611
856.9366, 2154.043
857.4187, 2097.483
857.9008, 2042.255
858.3829, 1988.253
858.8651, 1937.309
859.3472, 1892.505
859.8293, 1852.472
860.3114, 1810.350
860.7935, 1765.374
861.2756, 1722.659
861.7578, 1686.587
862.2399, 1653.365
862.7220, 1619.109
863.2041, 1583.354
863.6862, 1549.842
864.1683, 1519.925
864.6505, 1491.352
865.1326, 1463.547
865.6147, 1436.270
866.0968, 1409.640
866.5789, 1383.435
867.0610, 1358.205
867.5432, 1334.191
868.0253, 1311.085
868.5074, 1288.054
868.9895, 1265.043
869.4716, 1243.034
869.9537, 1221.682
870.4359, 1201.950
870.9180, 1184.994
871.4001, 1169.887
871.8822, 1151.524
872.3643, 1129.304
872.8464, 1108.483
873.3286, 1091.213
873.8107, 1076.077
874.2928, 1060.864
874.7749, 1045.501
875.2570, 1030.147
875.7391, 1013.805
876.2213, 998.2135
876.7034, 984.9608
877.1855, 972.7502
877.6676, 958.6864
878.1497, 941.8740
878.6318, 925.8672
879.1140, 911.3934
879.5961, 897.8976
880.0782, 884.2707
880.5603, 870.6325
881.0424, 857.3192
881.5245, 844.2871
882.0067, 831.9703
882.4888, 821.4683
882.9709, 811.4952
883.4530, 800.3671
883.9351, 786.3075
884.4172, 774.0446
884.8994, 764.4606
885.3815, 755.2177
885.8636, 743.4187
886.3457, 729.6164
886.8278, 718.5393
887.3099, 710.7974
887.7921, 703.2419
888.2742, 692.9923
888.7563, 681.8285
889.2384, 671.3348
889.7205, 661.5732
890.2026, 653.1813
890.6848, 647.4171
891.1669, 641.5244
891.6490, 634.1046
892.1311, 625.2692
892.6132, 616.8120
893.0953, 608.7997
893.5775, 601.4473
894.0596, 595.4514
894.5417, 589.8549
895.0238, 583.3861
895.5059, 576.1393
895.9880, 568.8928
896.4702, 560.7298
896.9523, 554.0049
897.4344, 550.2645
897.9165, 548.1129
898.3986, 542.2733
898.8807, 532.3405
899.3629, 524.5595
899.8450, 521.8387
900.3271, 520.6328
900.8092, 515.8618
901.2913, 508.7937
901.7734, 501.9634
902.2556, 495.6920
902.7377, 490.5408
903.2198, 487.3803
903.7019, 485.1179
904.1840, 482.6092
904.6661, 479.9059
905.1483, 476.6773
905.6304, 472.7764
906.1125, 468.6058
906.5946, 464.4434
907.0767, 460.3091
907.5588, 456.2974
908.0410, 452.4194
908.5231, 448.7325
909.0052, 445.6954
909.4873, 442.5414
909.9694, 438.4669
910.4515, 433.2200
910.9337, 429.5388
911.4158, 427.7092
911.8979, 426.2903
912.3800, 424.6554
912.8621, 422.6090
913.3442, 419.4539
913.8264, 415.3599
914.3085, 411.5431
914.7906, 409.1931
915.2727, 406.7308
915.7548, 403.0132
916.2369, 398.4656
916.7191, 395.0897
917.2012, 393.3647
917.6833, 391.0515
918.1654, 387.1710
918.6475, 382.8299
919.1296, 380.4355
919.6118, 379.3296
920.0939, 377.6856
920.5760, 374.4707
921.0581, 371.1267
921.5402, 368.2437
922.0223, 365.6384
922.5045, 362.9780
922.9866, 360.1166
923.4687, 357.6130
923.9508, 355.5695
924.4329, 353.6467
924.9150, 351.7824
925.3972, 349.7266
925.8793, 346.4943
926.3614, 341.8477
926.8435, 338.1223
927.3256, 337.9512
927.8077, 338.1302
928.2899, 336.1891
928.7720, 331.9900
929.2541, 327.9937
929.7362, 323.9147
930.2183, 321.0465
930.7004, 320.9188
931.1826, 322.1161
931.6647, 320.7698
932.1468, 317.3437
932.6289, 313.8277
933.1110, 310.8513
933.5931, 308.3837
934.0753, 306.5124
934.5574, 305.1216
935.0395, 304.0224
935.5216, 303.5876
936.0037, 302.0068
936.4858, 298.5361
936.9680, 294.6494
937.4501, 292.8629
937.9322, 292.4060
938.4143, 291.4337
938.8964, 289.2404
939.3785, 287.2756
939.8607, 286.6715
940.3428, 286.3645
940.8249, 285.3631
941.3070, 283.3968
941.7891, 282.0472
942.2712, 281.5910
942.7534, 280.6474
943.2355, 277.2363
943.7176, 272.8457
944.1997, 270.7271
944.6818, 270.7538
945.1639, 270.7884
945.6461, 269.7891
946.1282, 268.5239
946.6103, 267.2930
947.0924, 266.0948
947.5745, 264.7929
948.0566, 263.2823
948.5388, 262.4088
949.0209, 262.8248
949.5030, 263.3459
949.9851, 261.6385
950.4672, 258.6554
950.9493, 256.4618
951.4315, 256.2356
951.9136, 255.9969
952.3957, 255.5667
952.8778, 254.5770
953.3599, 252.2761
953.8420, 248.2216
954.3242, 246.4156
954.8063, 247.3369
955.2884, 248.4355
955.7705, 246.9857
956.2526, 244.4851
956.7347, 242.9793
957.2169, 242.6254
957.6990, 242.3269
958.1811, 241.7693
958.6632, 241.1605
959.1453, 240.8018
959.6274, 240.4526
960.1096, 238.4187
960.5917, 234.6983
961.0738, 231.7416
961.5559, 230.7483
962.0380, 230.7086
962.5201, 231.0940
963.0023, 231.4773
963.4844, 231.0856
963.9665, 228.5843
964.4486, 226.9000
964.9307, 226.5647
965.4128, 226.7279
965.8950, 226.5719
966.3771, 226.0771
966.8592, 224.9940
967.3413, 223.3068
967.8234, 221.0668
968.3055, 216.8141
968.7877, 213.1174
969.2698, 213.0045
969.7519, 217.0541
970.2340, 219.1630
970.7161, 218.3808
971.1982, 217.0220
971.6804, 215.8739
972.1625, 214.9311
972.6446, 214.2646
973.1267, 213.7938
973.6088, 213.1256
974.0909, 211.6084
974.5731, 210.4160
975.0552, 210.3616
975.5373, 211.0036
976.0194, 211.6756
976.5015, 212.7330
976.9836, 212.6029
977.4658, 210.9183
977.9479, 208.8225
978.4300, 207.6984
978.9121, 207.1434
979.3942, 206.1736
979.8763, 204.6585
980.3585, 203.5087
980.8406, 203.4559
981.3227, 203.6576
981.8048, 203.8032
982.2869, 203.8459
982.7690, 203.2318
983.2511, 201.8928
983.7332, 200.5471
984.2153, 199.3115
984.6974, 198.4785
985.1796, 198.9998
985.6617, 200.1412
986.1438, 200.3953
986.6259, 198.2782
987.1080, 196.5645
987.5901, 195.6738
988.0723, 195.2868
988.5544, 195.3178
989.0365, 195.7175
989.5186, 195.0163
990.0007, 193.0171
990.4828, 191.2160
990.9650, 191.1465
991.4471, 191.6105
991.9292, 191.5574
992.4113, 190.8897
992.8934, 190.2097
993.3755, 189.5228
993.8577, 188.8931
994.3398, 188.3322
994.8219, 187.8571
995.3040, 187.4408
995.7861, 187.1458
996.2682, 187.2613
996.7504, 188.4862
997.2325, 189.1487
997.7146, 187.7950
998.1967, 185.6842
998.6788, 184.3887
999.1609, 184.2250
999.6431, 183.8204
1000.125, 183.0905
1000.607, 182.4118
1001.089, 182.2261
1001.572, 182.2780
1002.054, 182.0741
1002.536, 181.6397
1003.018, 181.4773
1003.500, 182.4110
1003.982, 182.9183
1004.464, 182.5355
1004.946, 181.3878
1005.428, 179.4671
1005.911, 176.8324
1006.393, 175.3810
1006.875, 175.9046
1007.357, 177.1208
1007.839, 178.2919
1008.321, 179.1889
1008.803, 179.5065
1009.285, 178.8567
1009.768, 178.4062
1010.250, 178.3158
1010.732, 178.1089
1011.214, 177.1496
1011.696, 175.7952
1012.178, 175.5476
1012.660, 176.2732
1013.142, 177.0583
1013.624, 177.8698
1014.107, 178.1078
1014.589, 176.9360
1015.071, 175.0754
1015.553, 174.2927
1016.035, 174.8613
1016.517, 174.8148
1016.999, 173.7107
1017.481, 172.2708
1017.964, 171.0621
1018.446, 170.2456
1018.928, 170.1433
1019.410, 170.9369
1019.892, 171.6537
1020.374, 172.1536
1020.856, 172.4590
1021.338, 172.6172
1021.820, 172.5840
1022.303, 171.9362
1022.785, 170.7762
1023.267, 169.8560
1023.749, 169.6804
1024.231, 169.7245
1024.713, 169.7926
1025.195, 169.7986
1025.677, 169.5876
1026.160, 169.1344
1026.642, 168.4358
1027.124, 167.3178
1027.606, 166.5518
1028.088, 167.4295
1028.570, 169.0491
1029.052, 169.6645
1029.534, 169.1759
1030.016, 168.6265
1030.499, 168.2269
1030.981, 168.1020
1031.463, 168.3798
1031.945, 168.9134
1032.427, 169.2673
1032.909, 169.4317
1033.391, 169.2990
1033.873, 168.8038
1034.355, 168.0799
1034.838, 166.6702
1035.320, 165.3844
1035.802, 165.3562
1036.284, 167.4809
1036.766, 168.5795
1037.248, 168.3805
1037.730, 167.9268
1038.212, 168.0677
1038.695, 168.4651
1039.177, 168.0448
1039.659, 167.0371
1040.141, 166.4223
1040.623, 167.3045
1041.105, 167.8519
1041.587, 167.0332
1042.069, 165.8357
1042.552, 165.9679
1043.034, 167.4515
1043.516, 168.3013
1043.998, 168.2412
1044.480, 167.7052
1044.962, 166.8124
1045.444, 165.8180
1045.926, 164.7370
1046.408, 163.5567
1046.891, 163.6400
1047.373, 165.6781
1047.855, 167.2682
1048.337, 167.4186
1048.819, 166.7249
1049.301, 166.1925
1049.783, 165.8576
1050.265, 165.8831
1050.747, 166.8771
1051.230, 167.1533
1051.712, 165.1528
1052.194, 162.9949
1052.676, 162.3854
1053.158, 163.4140
1053.640, 163.9032
1054.122, 163.8522
1054.604, 163.7519
1055.087, 163.9575
1055.569, 164.2325
1056.051, 164.3611
1056.533, 164.3971
1057.015, 164.5658
1057.497, 165.0625
1057.979, 165.2439
1058.461, 165.0451
1058.943, 164.4462
1059.426, 163.0038
1059.908, 161.2803
1060.390, 160.3105
1060.872, 160.2492
1061.354, 160.7349
1061.836, 162.5034
1062.318, 163.7907
1062.800, 163.6683
1063.282, 162.5749
1063.765, 162.3569
1064.247, 162.9270
1064.729, 163.4993
1065.211, 163.6831
1065.693, 164.0223
1066.175, 165.4177
1066.657, 166.9207
1067.139, 167.2983
1067.622, 166.0875
1068.104, 165.7219
1068.586, 166.4248
1069.068, 166.8494
1069.550, 165.4410
1070.032, 163.5139
1070.514, 163.2338
1070.996, 164.2208
1071.479, 165.1582
1071.961, 166.1657
1072.443, 166.2376
1072.925, 164.8338
1073.407, 163.0480
1073.889, 162.3801
1074.371, 162.6077
1074.853, 162.6577
1075.335, 162.4085
1075.818, 162.6616
1076.300, 164.8365
1076.782, 166.7610
1077.264, 166.7944
1077.746, 165.4780
1078.228, 165.2520
1078.710, 166.1744
1079.192, 166.7728
1079.674, 166.6532
1080.157, 165.9256
1080.639, 163.7281
1081.121, 161.4794
1081.603, 161.1658
1082.085, 163.9745
1082.567, 165.6375
1083.049, 165.9588
1083.531, 165.6109
1084.013, 164.8092
1084.496, 163.7025
1084.978, 162.3319
1085.460, 160.9453
1085.942, 160.2090
1086.424, 160.8313
1086.906, 161.5555
1087.388, 162.3047
1087.870, 162.8668
1088.353, 162.9581
1088.835, 162.6205
1089.317, 162.2734
1089.799, 161.9352
1090.281, 161.5826
1090.763, 160.9236
1091.245, 160.5132
1091.727, 161.1189
1092.209, 162.1948
1092.692, 161.9791
1093.174, 160.1982
1093.656, 159.3246
1094.138, 159.9486
1094.620, 160.8934
1095.102, 160.8750
1095.584, 160.4701
1096.066, 160.4320
1096.548, 160.9045
1097.031, 160.7114
1097.513, 159.3707
1097.995, 158.4811
1098.477, 158.8561
1098.959, 159.7577
1099.441, 159.6028
1099.923, 158.7880
1100.405, 158.2439
1100.888, 158.4886
1101.370, 158.3863
1101.852, 157.0287
1102.334, 155.9635
1102.816, 156.4859
1103.298, 158.2880
1103.780, 158.7390
1104.262, 158.0065
1104.745, 157.3101
1105.227, 157.7250
1105.709, 157.8695
1106.191, 156.4628
1106.673, 154.6490
1107.155, 154.1188
1107.637, 155.0375
1108.119, 155.9153
1108.601, 156.6766
1109.083, 157.4292
1109.566, 158.9615
1110.048, 159.9718
1110.530, 158.6293
1111.012, 155.5047
1111.494, 153.7687
1111.976, 153.9816
1112.458, 154.3777
1112.940, 154.7103
1113.423, 154.9539
1113.905, 155.0767
1114.387, 155.0925
1114.869, 155.0404
1115.351, 154.9298
1115.833, 154.6469
1116.315, 154.1163
1116.797, 153.4789
1117.280, 152.6646
1117.762, 151.8845
1118.244, 151.6497
1118.726, 151.8749
1119.208, 152.3229
1119.690, 152.9561
1120.172, 153.7128
1120.654, 154.9742
1121.136, 155.9491
1121.619, 156.1329
1122.101, 155.5846
1122.583, 154.7458
1123.065, 153.6676
1123.547, 152.7907
1124.029, 152.0636
1124.511, 151.9601
1124.993, 153.5849
1125.475, 155.5554
1125.958, 156.0047
1126.440, 154.5783
1126.922, 153.5896
1127.404, 153.0736
1127.886, 152.8443
1128.368, 152.8738
1128.850, 153.0333
1129.332, 153.3760
1129.815, 153.7377
1130.297, 153.6340
1130.779, 152.8487
1131.261, 152.2258
1131.743, 151.8851
1132.225, 151.5813
1132.707, 150.8891
1133.189, 150.1660
1133.672, 150.0711
1134.154, 150.5490
1134.636, 150.5693
1135.118, 149.2973
1135.600, 148.7717
1136.082, 149.6369
1136.564, 151.0649
1137.046, 152.0802
1137.528, 152.5319
1138.010, 151.7966
1138.493, 149.6312
1138.975, 148.0333
1139.457, 148.0576
1139.939, 148.4932
1140.421, 149.0789
1140.903, 149.6613
1141.385, 149.6877
1141.867, 149.3114
1142.350, 149.2370
1142.832, 149.9211
1143.314, 150.1443
1143.796, 148.6129
1144.278, 147.0218
1144.760, 146.6195
1145.242, 147.2639
1145.724, 147.3107
1146.207, 146.8115
1146.689, 146.2174
1147.171, 145.5227
1147.653, 145.1375
1148.135, 145.7352
1148.617, 146.5562
1149.099, 146.7039
1149.581, 146.0559
1150.063, 145.4630
1150.546, 144.9246
1151.028, 144.5585
1151.510, 144.8271
1151.992, 144.9521
1152.474, 143.8933
1152.956, 142.3149
1153.438, 141.6982
1153.920, 142.4989
1154.402, 142.6501
1154.885, 141.9308
1155.367, 141.2697
1155.849, 141.7755
1156.331, 142.5886
1156.813, 142.7727
1157.295, 142.3864
1157.777, 141.8533
1158.259, 141.0954
1158.742, 140.5416
1159.224, 140.2652
1159.706, 140.1697
1160.188, 140.1772
1160.670, 140.2768
1161.152, 140.5886
1161.634, 141.0799
1162.116, 141.1091
1162.599, 140.4492
1163.081, 139.5085
1163.563, 138.1913
1164.045, 137.0068
1164.527, 137.1285
1165.009, 137.8721
1165.491, 137.7039
1165.973, 136.2609
1166.455, 135.5392
1166.938, 136.8920
1167.420, 137.6805
1167.902, 136.7478
1168.384, 135.0288
1168.866, 134.9631
1169.348, 135.8622
1169.830, 135.6323
1170.312, 133.2201
1170.794, 131.9322
1171.277, 134.1385
1171.759, 136.2905
1172.241, 136.7578
1172.723, 135.9334
1173.205, 135.1140
1173.687, 134.3182
1174.169, 133.5332
1174.651, 132.6315
1175.134, 132.0221
1175.616, 132.1662
1176.098, 132.3795
1176.580, 132.2910
1177.062, 131.8968
1177.544, 130.9093
1178.026, 129.5003
1178.508, 128.6144
1178.990, 129.1479
1179.473, 129.7111
1179.955, 129.5777
1180.437, 129.2941
1180.919, 129.3901
1181.401, 129.8558
1181.883, 130.2076
1182.365, 130.4169
1182.847, 130.2027
1183.329, 128.6474
1183.812, 127.4822
1184.294, 128.2006
1184.776, 129.4765
1185.258, 129.7448
1185.740, 128.9918
1186.222, 127.4019
1186.704, 125.0317
1187.186, 123.3812
1187.669, 124.0783
1188.151, 125.1668
1188.633, 125.6296
1189.115, 125.5624
1189.597, 125.0138
1190.079, 123.9392
1190.561, 123.5042
1191.043, 123.8247
1191.526, 124.2044
1192.008, 124.0432
1192.490, 123.7927
1192.972, 123.8197
1193.454, 123.9905
1193.936, 123.9399
1194.418, 123.6578
1194.900, 123.2893
1195.382, 122.8572
1195.865, 122.3539
1196.347, 121.8877
1196.829, 121.2509
1197.311, 120.0317
1197.793, 118.4877
1198.275, 117.6806
1198.757, 117.6624
1199.239, 117.7404
1199.721, 117.8086
1200.204, 117.7659
1200.686, 117.2627
1201.168, 116.8201
1201.650, 116.9970
1202.132, 117.6988
1202.614, 118.2481
1203.096, 118.6646
1203.578, 118.5663
1204.061, 117.7613
1204.543, 116.8030
1205.025, 116.1639
1205.507, 115.6566
1205.989, 115.0716
1206.471, 114.4105
1206.953, 114.0607
1207.435, 114.0399
1207.917, 113.9747
1208.400, 113.7974
1208.882, 113.3726
1209.364, 112.1159
1209.846, 110.8506
1210.328, 110.7089
1210.810, 111.6569
1211.292, 111.6861
1211.774, 110.7359
1212.256, 110.0418
1212.739, 110.2104
1213.221, 110.4782
1213.703, 109.9576
1214.185, 109.2566
1214.667, 109.1802
1215.149, 109.7883
1215.631, 109.7138
1216.113, 108.9482
1216.596, 107.7524
1217.078, 105.7030
1217.560, 104.2733
1218.042, 105.6500
1218.524, 107.7666
1219.006, 108.0897
1219.488, 106.4115
1219.970, 105.2563
1220.453, 104.6348
1220.935, 104.3016
1221.417, 104.2252
1221.899, 104.2584
1222.381, 104.2371
1222.863, 104.2979
1223.345, 104.7956
1223.827, 105.9101
1224.309, 105.2400
1224.792, 102.7899
1225.274, 100.8035
1225.756, 100.7601
1226.238, 101.2888
1226.720, 101.6738
1227.202, 101.9323
1227.684, 102.0998
1228.166, 102.1753
1228.648, 102.2564
1229.131, 102.3336
1229.613, 102.1390
1230.095, 101.0067
1230.577, 100.1197
1231.059, 100.7183
1231.541, 101.6341
1232.023, 101.3102
1232.505, 99.65018
1232.988, 98.79805
1233.470, 98.71564
1233.952, 98.64389
1234.434, 98.13411
1234.916, 97.49825
1235.398, 96.57948
1235.880, 95.86613
1236.362, 96.05613
1236.844, 97.11961
1237.327, 97.72499
1237.809, 97.85315
1238.291, 97.62254
1238.773, 96.66505
1239.255, 95.88964
1239.737, 95.86384
1240.219, 96.10387
1240.701, 96.12123
1241.183, 95.94740
1241.666, 95.96618
1242.148, 96.13113
1242.630, 95.96272
1243.112, 94.65547
1243.594, 93.68620
1244.076, 93.63997
1244.558, 93.98064
1245.040, 94.19258
1245.523, 94.28113
1246.005, 94.26189
1246.487, 94.14315
1246.969, 93.97489
1247.451, 93.74711
1247.933, 93.49324
1248.415, 93.09531
1248.897, 92.85405
1249.380, 93.45793
1249.862, 94.43655
1250.344, 94.15195
1250.826, 92.74855
1251.308, 91.43037
1251.790, 90.08576
1252.272, 89.96749
1252.754, 91.80406
1253.236, 93.70861
1253.719, 93.13771
1254.201, 91.23665
1254.683, 90.20370
1255.165, 90.05516
1255.647, 90.24889
1256.129, 91.09250
1256.611, 91.42855
1257.093, 91.01360
1257.575, 90.43886
1258.058, 90.30040
1258.540, 90.42699
1259.022, 90.70735
1259.504, 91.04980
1259.986, 91.05795
1260.468, 90.51924
1260.950, 90.19249
1261.432, 90.22469
1261.915, 90.16125
1262.397, 89.11806
1262.879, 88.08681
1263.361, 88.47317
1263.843, 89.86474
1264.325, 90.54871
1264.807, 90.37588
1265.289, 89.70168
1265.771, 88.46927
1266.254, 87.60764
1266.736, 88.51540
1267.218, 89.61797
1267.700, 89.44194
1268.182, 88.43181
1268.664, 87.96868
1269.146, 88.08859
1269.628, 88.28931
1270.110, 88.53130
1270.593, 88.59037
1271.075, 88.21019
1271.557, 87.69255
1272.039, 87.02204
1272.521, 86.45270
1273.003, 86.51855
1273.485, 87.14892
1273.967, 87.44057
1274.450, 87.32799
1274.932, 87.07105
1275.414, 86.51978
1275.896, 86.26640
1276.378, 86.80460
1276.860, 87.41298
1277.342, 86.90604
1277.824, 85.61401
1278.306, 84.72914
1278.789, 84.34666
1279.271, 84.40663
1279.753, 85.05896
1280.235, 86.03271
1280.717, 87.61574
1281.199, 88.81645
1281.681, 88.15065
1282.163, 86.36582
1282.646, 84.73476
1283.128, 83.44228
1283.610, 82.87193
1284.092, 83.46589
1284.574, 84.17372
1285.056, 84.95127
1285.538, 85.60943
1286.020, 85.89635
1286.502, 85.99788
1286.984, 86.25285
1287.467, 86.54875
1287.949, 86.38992
1288.431, 85.53853
1288.913, 85.04621
1289.395, 85.00671
1289.877, 85.25914
1290.359, 85.96210
1290.841, 86.61695
1291.324, 86.72209
1291.806, 86.47137
1292.288, 86.31876
1292.770, 86.25935
1293.252, 86.48934
1293.734, 87.00551
1294.216, 87.21925
1294.698, 86.47337
1295.181, 85.60724
1295.663, 84.79269
1296.145, 84.32510
1296.627, 84.83647
1297.109, 86.13133
1297.591, 86.61714
1298.073, 86.31545
1298.555, 85.80724
1299.037, 85.45142
1299.520, 84.74302
1300.002, 83.14098
1300.484, 81.91109
1300.966, 82.89568
1301.448, 84.96306
1301.930, 84.79863
1302.412, 83.03429
1302.894, 82.18568
1303.376, 84.22438
1303.859, 85.30318
1304.341, 85.03619
1304.823, 84.41676
1305.305, 83.92403
1305.787, 83.58474
##END=



