##NAMES=Vanadiocarpholite
##RRUFFID=R080099
##IDEAL CHEMISTRY=Mn^2+^V^3+^AlSi_2_O_6_(OH)_4_
##LOCALITY=Molinello mine, Graveglia Valley, Ne, Genova Province, Liguria, Italy
##OWNER=RRUFF
##SOURCE=Michael Scott
##DESCRIPTION=Yellow brown fibrous, associated with quartz crystals on matrix
##STATUS=The identification of this mineral has been confirmed only by single crystal X-ray diffraction.
##URL=rruff.info/R080099
92.52344, 133.4799
93.00555, 134.7681
93.48767, 134.7346
93.96979, 134.5568
94.45190, 134.9089
94.93402, 135.9887
95.41614, 135.3107
95.89825, 132.7512
96.38037, 129.1263
96.86249, 124.9252
97.34460, 121.8169
97.82672, 120.3860
98.30884, 119.2766
98.79095, 118.5582
99.27307, 117.8499
99.75519, 116.6148
100.2373, 114.8637
100.7194, 112.7804
101.2015, 110.9079
101.6837, 109.2178
102.1658, 107.6638
102.6479, 106.0721
103.1300, 104.3753
103.6121, 103.1050
104.0942, 102.8787
104.5764, 103.3120
105.0585, 103.9577
105.5406, 104.6617
106.0227, 105.4531
106.5048, 106.4995
106.9869, 108.2151
107.4691, 109.5055
107.9512, 109.9489
108.4333, 109.6326
108.9154, 108.7788
109.3975, 107.2922
109.8796, 104.9208
110.3618, 103.5480
110.8439, 103.8410
111.3260, 104.5376
111.8081, 105.2627
112.2902, 105.8890
112.7723, 106.4040
113.2544, 106.8230
113.7366, 107.4388
114.2187, 107.2914
114.7008, 105.6590
115.1829, 103.6875
115.6650, 102.5159
116.1471, 102.5539
116.6293, 103.2212
117.1114, 103.1120
117.5935, 101.7089
118.0756, 100.6123
118.5577, 100.2192
119.0398, 100.4085
119.5220, 100.9756
120.0041, 102.0498
120.4862, 103.2406
120.9683, 103.6891
121.4504, 102.9795
121.9325, 102.2365
122.4147, 102.5583
122.8968, 104.0530
123.3789, 105.2886
123.8610, 105.2925
124.3431, 104.7290
124.8252, 104.1350
125.3074, 103.6294
125.7895, 103.2368
126.2716, 102.9969
126.7537, 102.8736
127.2358, 103.0089
127.7179, 103.5821
128.2001, 104.3571
128.6822, 105.0185
129.1643, 105.3421
129.6464, 105.3669
130.1285, 105.5727
130.6107, 106.4453
131.0928, 107.0408
131.5749, 107.0890
132.0570, 106.6628
132.5391, 105.9706
133.0212, 105.1910
133.5034, 104.3255
133.9855, 103.2968
134.4676, 101.7927
134.9497, 100.4057
135.4318, 99.43279
135.9139, 98.91411
136.3960, 98.75855
136.8782, 98.34261
137.3603, 99.20683
137.8424, 99.74804
138.3245, 99.98359
138.8066, 98.99802
139.2887, 99.58928
139.7709, 99.54865
140.2530, 99.48207
140.7351, 100.2953
141.2172, 99.48730
141.6993, 100.2865
142.1814, 100.4442
142.6636, 100.8955
143.1457, 100.7110
143.6278, 100.7229
144.1099, 101.3708
144.5920, 101.6665
145.0741, 101.5392
145.5563, 102.2067
146.0384, 103.0727
146.5205, 104.1858
147.0026, 105.0689
147.4847, 105.3433
147.9668, 105.5514
148.4490, 105.9272
148.9311, 106.5343
149.4132, 107.3807
149.8953, 108.5010
150.3774, 110.0190
150.8595, 111.5986
151.3417, 113.2551
151.8238, 114.9175
152.3059, 116.4550
152.7880, 117.8216
153.2701, 119.1924
153.7522, 120.9919
154.2344, 123.6564
154.7165, 126.2915
155.1986, 128.9354
155.6807, 131.5204
156.1628, 133.9634
156.6449, 136.2107
157.1271, 138.2958
157.6092, 140.3377
158.0913, 142.1746
158.5734, 144.1644
159.0555, 146.4866
159.5376, 149.0485
160.0198, 151.6269
160.5019, 154.1337
160.9840, 156.5346
161.4661, 158.7410
161.9482, 160.6344
162.4303, 162.4713
162.9125, 164.6406
163.3946, 167.1093
163.8767, 169.0413
164.3588, 169.9828
164.8409, 169.9645
165.3230, 169.0224
165.8052, 166.7906
166.2873, 163.9651
166.7694, 161.5539
167.2515, 159.7498
167.7336, 157.6563
168.2157, 154.5341
168.6979, 150.9618
169.1800, 147.6097
169.6621, 144.8842
170.1442, 142.4709
170.6263, 139.3882
171.1084, 135.0354
171.5906, 130.9728
172.0727, 127.6391
172.5548, 124.8590
173.0369, 122.4039
173.5190, 120.1794
174.0011, 118.1526
174.4833, 116.0459
174.9654, 113.3477
175.4475, 111.0968
175.9296, 109.7463
176.4117, 109.0078
176.8938, 108.3279
177.3760, 107.2838
177.8581, 105.8600
178.3402, 104.6856
178.8223, 104.0103
179.3044, 103.3131
179.7865, 102.3151
180.2687, 101.1121
180.7508, 100.0377
181.2329, 99.41292
181.7150, 99.29391
182.1971, 98.90359
182.6792, 97.94676
183.1614, 97.00497
183.6435, 96.41956
184.1256, 96.20052
184.6077, 96.14949
185.0898, 96.15268
185.5719, 96.20327
186.0541, 96.02964
186.5362, 95.27375
187.0183, 94.49335
187.5004, 94.27868
187.9825, 94.71248
188.4646, 95.29533
188.9468, 95.65559
189.4289, 95.80690
189.9110, 95.75491
190.3931, 95.33150
190.8752, 94.75447
191.3573, 94.35377
191.8395, 94.17311
192.3216, 94.11746
192.8037, 94.11514
193.2858, 94.17176
193.7679, 94.32206
194.2500, 94.72442
194.7322, 95.24819
195.2143, 95.46094
195.6964, 95.24791
196.1785, 94.85933
196.6606, 94.27461
197.1427, 93.63391
197.6249, 93.26439
198.1070, 93.52483
198.5891, 93.73222
199.0712, 94.38326
199.5533, 94.71130
200.0354, 94.73367
200.5176, 93.53492
200.9997, 93.91300
201.4818, 93.65916
201.9639, 93.37941
202.4460, 93.97942
202.9281, 92.95829
203.4103, 93.54433
203.8924, 93.48884
204.3745, 93.72696
204.8566, 93.32926
205.3387, 93.12795
205.8208, 93.56267
206.3030, 93.64520
206.7851, 93.17430
207.2672, 92.49693
207.7493, 92.15282
208.2314, 92.09508
208.7135, 92.29515
209.1957, 92.57443
209.6778, 92.78386
210.1599, 92.92422
210.6420, 92.95538
211.1241, 92.84618
211.6062, 92.67899
212.0884, 92.48006
212.5705, 92.25818
213.0526, 92.02921
213.5347, 91.81963
214.0168, 91.63611
214.4989, 91.31324
214.9811, 90.80777
215.4632, 90.21085
215.9453, 89.56309
216.4274, 88.87151
216.9095, 88.14441
217.3916, 87.34216
217.8737, 86.47806
218.3559, 85.85847
218.8380, 85.77583
219.3201, 85.74995
219.8022, 85.36892
220.2843, 84.60242
220.7664, 83.64665
221.2486, 82.53452
221.7307, 81.33487
222.2128, 80.38018
222.6949, 79.83132
223.1770, 79.48960
223.6591, 79.13976
224.1413, 78.76620
224.6234, 78.44639
225.1055, 78.34145
225.5876, 78.32520
226.0697, 78.15009
226.5518, 77.60632
227.0340, 76.94411
227.5161, 76.57610
227.9982, 76.59199
228.4803, 76.58888
228.9624, 76.32645
229.4445, 75.90564
229.9267, 75.42500
230.4088, 74.88306
230.8909, 74.33489
231.3730, 73.84770
231.8551, 73.34077
232.3372, 73.12100
232.8194, 73.52122
233.3015, 74.18550
233.7836, 74.69357
234.2657, 74.83555
234.7478, 74.78323
235.2299, 74.94050
235.7121, 75.43491
236.1942, 75.88860
236.6763, 76.29504
237.1584, 76.57344
237.6405, 76.59555
238.1227, 76.27974
238.6048, 75.77592
239.0869, 75.48619
239.5690, 75.60219
240.0511, 75.59399
240.5332, 75.16735
241.0154, 74.67006
241.4975, 74.46331
241.9796, 74.70226
242.4617, 75.24857
242.9438, 75.76668
243.4259, 76.28213
243.9081, 76.72200
244.3902, 77.16419
244.8723, 77.49741
245.3544, 77.51775
245.8365, 77.15941
246.3186, 76.68301
246.8008, 76.70473
247.2829, 77.74616
247.7650, 78.55383
248.2471, 79.11903
248.7292, 79.42292
249.2113, 79.28288
249.6935, 78.67567
250.1756, 77.99107
250.6577, 78.01348
251.1398, 79.50822
251.6219, 80.63594
252.1040, 81.31887
252.5862, 81.68946
253.0683, 81.70596
253.5504, 81.39660
254.0325, 81.10599
254.5146, 81.44167
254.9967, 83.12133
255.4789, 84.06849
255.9610, 83.56369
256.4431, 82.74626
256.9252, 82.75092
257.4073, 83.80598
257.8894, 85.08935
258.3716, 85.43143
258.8537, 84.17505
259.3358, 83.73778
259.8179, 84.81622
260.3000, 86.29441
260.7821, 87.12379
261.2643, 87.14646
261.7464, 87.06312
262.2285, 87.71497
262.7106, 89.35863
263.1927, 90.45134
263.6748, 90.47275
264.1570, 90.24783
264.6391, 90.51659
265.1212, 91.34140
265.6033, 92.22191
266.0854, 92.65768
266.5675, 92.62108
267.0497, 92.77390
267.5318, 93.30824
268.0139, 93.91170
268.4960, 94.28020
268.9781, 94.41203
269.4602, 94.63232
269.9424, 95.27396
270.4245, 96.24637
270.9066, 96.88564
271.3887, 96.98729
271.8708, 96.89626
272.3529, 96.81297
272.8351, 96.74733
273.3172, 96.74986
273.7993, 96.86588
274.2814, 97.07834
274.7635, 97.30029
275.2456, 97.51985
275.7278, 97.75957
276.2099, 98.06496
276.6920, 98.42351
277.1741, 98.70235
277.6562, 98.70389
278.1383, 98.69047
278.6205, 99.17033
279.1026, 100.3573
279.5847, 101.5842
280.0668, 102.3304
280.5489, 102.6887
281.0310, 103.2091
281.5132, 104.1711
281.9953, 105.2995
282.4774, 106.1443
282.9595, 106.6408
283.4416, 107.2316
283.9237, 108.2130
284.4059, 109.5167
284.8880, 110.8773
285.3701, 112.2435
285.8522, 113.6276
286.3343, 115.1108
286.8164, 116.6841
287.2986, 118.0831
287.7807, 119.0310
288.2628, 119.6783
288.7449, 120.4754
289.2270, 121.4320
289.7091, 122.6638
290.1913, 124.4462
290.6734, 126.6147
291.1555, 128.6157
291.6376, 130.0660
292.1197, 131.1660
292.6018, 132.3955
293.0840, 133.7680
293.5661, 135.2759
294.0482, 137.0254
294.5303, 138.8870
295.0124, 140.6442
295.4945, 142.1507
295.9767, 143.5213
296.4588, 144.9662
296.9409, 146.5128
297.4230, 148.0434
297.9051, 149.3620
298.3872, 150.6833
298.8694, 152.3539
299.3515, 154.6641
299.8336, 157.0297
300.3157, 158.5271
300.7978, 158.9770
301.2799, 159.7041
301.7621, 161.7741
302.2442, 164.0654
302.7263, 165.3767
303.2084, 165.3274
303.6905, 165.2995
304.1726, 166.9661
304.6548, 170.4109
305.1369, 173.4496
305.6190, 175.2333
306.1011, 176.6900
306.5832, 178.6194
307.0653, 181.0528
307.5475, 183.3205
308.0296, 184.6216
308.5117, 185.0729
308.9938, 186.1983
309.4759, 188.7277
309.9580, 191.3427
310.4402, 193.0901
310.9223, 194.1329
311.4044, 195.1407
311.8865, 196.5884
312.3686, 198.3541
312.8507, 199.9395
313.3329, 201.3342
313.8150, 202.5323
314.2971, 203.4150
314.7792, 204.1423
315.2613, 205.0405
315.7434, 206.4097
316.2256, 207.9454
316.7077, 208.9767
317.1898, 209.4059
317.6719, 209.6114
318.1540, 209.8402
318.6361, 209.9163
319.1183, 209.5339
319.6004, 208.4746
320.0825, 207.2841
320.5646, 206.9241
321.0467, 207.6281
321.5288, 207.6687
322.0110, 206.0369
322.4931, 203.7660
322.9752, 201.6235
323.4573, 199.7383
323.9394, 197.7753
324.4215, 195.3788
324.9037, 192.5714
325.3858, 189.7475
325.8679, 186.9622
326.3500, 184.1997
326.8321, 181.5901
327.3142, 179.0606
327.7964, 176.2270
328.2785, 172.5912
328.7606, 168.3647
329.2427, 164.5408
329.7248, 161.2378
330.2069, 158.2624
330.6891, 155.5782
331.1712, 153.0943
331.6533, 150.6138
332.1354, 148.0686
332.6175, 145.4612
333.0996, 142.6938
333.5818, 139.5887
334.0639, 136.8610
334.5460, 135.2117
335.0281, 134.0320
335.5102, 132.6587
335.9923, 130.8437
336.4745, 128.9500
336.9566, 127.3903
337.4387, 126.1857
337.9208, 125.0524
338.4029, 123.8735
338.8850, 122.7545
339.3671, 121.8607
339.8492, 121.2213
340.3314, 120.5199
340.8135, 119.4017
341.2956, 117.9523
341.7777, 116.7743
342.2598, 116.0333
342.7419, 115.5192
343.2241, 115.1024
343.7062, 114.7558
344.1883, 114.3462
344.6704, 113.8139
345.1525, 113.1739
345.6346, 112.5197
346.1168, 111.9428
346.5989, 111.0758
347.0810, 109.2329
347.5631, 106.9482
348.0452, 105.1722
348.5273, 104.3230
349.0095, 103.9251
349.4916, 103.5853
349.9737, 103.3119
350.4558, 102.7832
350.9379, 101.7434
351.4200, 100.4087
351.9022, 99.14928
352.3843, 98.00094
352.8664, 96.88638
353.3485, 95.63455
353.8306, 94.34605
354.3127, 93.50150
354.7949, 93.42752
355.2770, 93.51373
355.7591, 92.88712
356.2412, 91.56838
356.7233, 90.38476
357.2054, 89.77785
357.6876, 89.44303
358.1697, 88.83562
358.6518, 87.84124
359.1339, 86.90905
359.6160, 86.59225
360.0981, 86.73051
360.5803, 86.46127
361.0624, 85.37326
361.5445, 84.07320
362.0266, 82.94493
362.5087, 82.01118
362.9908, 81.41048
363.4730, 81.35291
363.9551, 81.60882
364.4372, 81.45327
364.9193, 80.66766
365.4014, 79.87702
365.8835, 79.21647
366.3657, 78.74509
366.8478, 78.71080
367.3299, 79.28836
367.8120, 79.94347
368.2941, 79.71398
368.7762, 78.33897
369.2584, 77.30602
369.7405, 77.09879
370.2226, 77.16138
370.7047, 76.96470
371.1868, 76.44045
371.6689, 75.79759
372.1511, 75.16438
372.6332, 74.54476
373.1153, 74.27587
373.5974, 74.78663
374.0795, 75.19067
374.5616, 74.90630
375.0438, 74.16067
375.5259, 73.57535
376.0080, 73.50713
376.4901, 73.80382
376.9722, 73.93189
377.4543, 73.81126
377.9365, 73.62943
378.4186, 73.24815
378.9007, 72.88459
379.3828, 72.86050
379.8649, 73.24095
380.3470, 73.70261
380.8292, 73.76968
381.3113, 73.21815
381.7934, 72.94138
382.2755, 72.80545
382.7576, 73.01414
383.2397, 73.92686
383.7219, 75.34427
384.2040, 76.65088
384.6861, 77.35105
385.1682, 77.48273
385.6503, 77.61259
386.1324, 77.69440
386.6146, 77.82858
387.0967, 78.03892
387.5788, 78.30922
388.0609, 78.62240
388.5430, 78.97018
389.0251, 79.34956
389.5073, 79.75932
389.9894, 80.21362
390.4715, 80.67101
390.9536, 81.07384
391.4357, 81.51832
391.9178, 82.14720
392.4000, 82.92029
392.8821, 83.61037
393.3642, 83.98355
393.8463, 84.03141
394.3284, 84.04058
394.8105, 84.05120
395.2927, 83.96571
395.7748, 83.68981
396.2569, 83.31185
396.7390, 82.99989
397.2211, 82.87498
397.7032, 82.78309
398.1854, 82.33482
398.6675, 81.38670
399.1496, 80.51343
399.6317, 79.97434
400.1138, 79.50723
400.5959, 78.86598
401.0781, 78.01627
401.5602, 77.24128
402.0423, 76.88653
402.5244, 76.90602
403.0065, 76.78416
403.4886, 76.46831
403.9708, 75.98119
404.4529, 75.35525
404.9350, 74.59595
405.4171, 73.69394
405.8992, 72.44680
406.3813, 71.16013
406.8635, 70.35501
407.3456, 70.07278
407.8277, 69.89073
408.3098, 69.66184
408.7919, 69.37444
409.2740, 69.00839
409.7562, 68.53152
410.2383, 68.05540
410.7204, 67.58219
411.2025, 67.15622
411.6846, 66.91773
412.1667, 66.92589
412.6489, 67.06111
413.1310, 67.25654
413.6131, 67.51640
414.0952, 67.54987
414.5773, 67.17381
415.0594, 66.63976
415.5416, 66.07947
416.0237, 65.53651
416.5058, 65.21799
416.9879, 65.30987
417.4700, 65.72527
417.9521, 65.98243
418.4343, 65.92482
418.9164, 65.92413
419.3985, 66.21881
419.8806, 66.59100
420.3627, 66.64506
420.8448, 66.25905
421.3270, 65.77300
421.8091, 65.70181
422.2912, 66.22335
422.7733, 66.68260
423.2554, 67.20856
423.7375, 67.56772
424.2197, 67.43778
424.7018, 66.98029
425.1839, 66.72951
425.6660, 67.11247
426.1481, 67.99203
426.6302, 68.42826
427.1124, 67.93742
427.5945, 67.56965
428.0766, 67.35932
428.5587, 67.37535
429.0408, 67.25952
429.5229, 68.12389
430.0051, 68.66528
430.4872, 68.90099
430.9693, 67.91558
431.4514, 68.50699
431.9335, 68.46648
432.4156, 68.40005
432.8978, 69.21343
433.3799, 68.40563
433.8620, 69.20502
434.3441, 69.36285
434.8262, 69.81430
435.3083, 69.62994
435.7905, 69.64198
436.2726, 70.29003
436.7547, 70.58590
437.2368, 70.32833
437.7189, 70.79846
438.2010, 69.96844
438.6832, 70.27934
439.1653, 70.48195
439.6474, 70.61564
440.1295, 70.60588
440.6116, 70.38180
441.0938, 70.09998
441.5759, 69.91280
442.0580, 69.78346
442.5401, 69.59135
443.0222, 69.25361
443.5043, 68.87331
443.9865, 68.49503
444.4686, 68.13683
444.9507, 67.96321
445.4328, 68.11900
445.9149, 68.43938
446.3970, 68.51620
446.8792, 68.23026
447.3613, 68.08367
447.8434, 68.41202
448.3255, 68.86156
448.8076, 68.98869
449.2897, 68.72327
449.7719, 68.26663
450.2540, 67.77366
450.7361, 67.23606
451.2182, 66.86530
451.7003, 66.56502
452.1824, 66.50473
452.6646, 66.98175
453.1467, 67.68988
453.6288, 68.10704
454.1109, 68.00454
454.5930, 67.59808
455.0751, 67.30559
455.5573, 67.13998
456.0394, 67.07563
456.5215, 67.22474
457.0036, 67.36234
457.4857, 67.35551
457.9678, 67.21194
458.4500, 67.01118
458.9321, 66.80895
459.4142, 66.60212
459.8963, 66.36462
460.3784, 66.05970
460.8605, 65.79201
461.3427, 65.54832
461.8248, 65.36858
462.3069, 65.37849
462.7890, 65.60772
463.2711, 65.71349
463.7532, 65.25428
464.2354, 64.27187
464.7175, 63.37149
465.1996, 62.56583
465.6817, 61.94707
466.1638, 61.70189
466.6459, 61.68492
467.1281, 61.52839
467.6102, 61.08960
468.0923, 60.47917
468.5744, 59.74599
469.0565, 58.90517
469.5386, 58.14579
470.0208, 57.47992
470.5029, 57.01358
470.9850, 57.06668
471.4671, 57.77291
471.9492, 58.16046
472.4313, 57.90974
472.9135, 57.26507
473.3956, 56.32002
473.8777, 55.15657
474.3598, 54.17067
474.8419, 53.69154
475.3240, 53.66748
475.8062, 53.59942
476.2883, 53.60463
476.7704, 53.43122
477.2525, 52.90175
477.7346, 52.22156
478.2167, 51.63456
478.6989, 51.20393
479.1810, 50.82992
479.6631, 50.34395
480.1452, 49.66325
480.6273, 49.31725
481.1094, 49.85750
481.5916, 50.16730
482.0737, 49.67850
482.5558, 48.74126
483.0379, 47.97064
483.5200, 47.65927
484.0021, 47.65431
484.4843, 47.71943
484.9664, 47.90246
485.4485, 47.92807
485.9306, 47.52207
486.4127, 47.13214
486.8948, 47.12614
487.3770, 47.44506
487.8591, 47.69572
488.3412, 47.57724
488.8233, 47.26463
489.3054, 47.09581
489.7875, 47.08400
490.2697, 47.13259
490.7518, 47.29150
491.2339, 47.41919
491.7160, 47.22615
492.1981, 46.57802
492.6802, 46.00702
493.1624, 45.76690
493.6445, 45.73419
494.1266, 45.75644
494.6087, 45.80413
495.0908, 45.82174
495.5729, 45.71362
496.0551, 45.48856
496.5372, 45.61454
497.0193, 46.38368
497.5014, 47.10627
497.9835, 47.67292
498.4656, 48.03226
498.9478, 48.06178
499.4299, 47.74009
499.9120, 47.28984
500.3941, 47.03631
500.8762, 47.02969
501.3583, 47.01432
501.8405, 46.99661
502.3226, 46.96343
502.8047, 46.78559
503.2868, 46.60898
503.7689, 46.73848
504.2510, 47.36792
504.7331, 48.18399
505.2152, 48.61270
505.6974, 48.61091
506.1795, 48.48890
506.6616, 48.18398
507.1437, 47.89474
507.6258, 47.67452
508.1079, 47.56266
508.5901, 47.75064
509.0722, 48.70734
509.5543, 49.83057
510.0364, 50.17663
510.5185, 49.74982
511.0006, 49.15779
511.4828, 48.58135
511.9649, 48.10355
512.4470, 47.91590
512.9291, 48.05976
513.4113, 48.27802
513.8934, 48.46416
514.3755, 48.71811
514.8576, 49.30047
515.3397, 50.14393
515.8218, 50.69203
516.3040, 50.47303
516.7861, 49.62791
517.2682, 49.18247
517.7503, 49.34403
518.2324, 49.66590
518.7145, 50.31433
519.1967, 50.98507
519.6788, 51.38380
520.1609, 51.47245
520.6430, 51.42576
521.1251, 51.39183
521.6072, 51.37243
522.0894, 51.44190
522.5715, 51.69661
523.0536, 51.88547
523.5357, 51.77696
524.0178, 51.63000
524.4999, 51.81066
524.9821, 52.44216
525.4642, 53.07478
525.9463, 53.23592
526.4284, 53.03082
526.9105, 52.94029
527.3926, 53.04416
527.8748, 53.22411
528.3569, 53.42894
528.8390, 53.63902
529.3211, 53.78563
529.8032, 53.74378
530.2853, 53.77130
530.7675, 54.10230
531.2496, 54.58580
531.7317, 54.92660
532.2138, 55.03945
532.6959, 55.01554
533.1780, 54.95308
533.6602, 54.83828
534.1423, 54.77146
534.6244, 54.57215
535.1065, 54.60477
535.5886, 55.27808
536.0707, 56.19207
536.5529, 56.66909
537.0350, 56.44946
537.5171, 55.99014
537.9992, 56.08551
538.4813, 56.90263
538.9634, 57.40061
539.4456, 57.19257
539.9277, 57.03607
540.4098, 57.39455
540.8919, 58.03975
541.3740, 58.49226
541.8561, 58.52069
542.3383, 58.37785
542.8204, 58.29934
543.3025, 58.29559
543.7846, 58.48293
544.2667, 58.92620
544.7488, 59.49784
545.2310, 60.18653
545.7131, 60.95900
546.1952, 61.37934
546.6773, 61.03598
547.1594, 60.63987
547.6415, 60.65431
548.1237, 60.98706
548.6058, 61.41239
549.0879, 61.84564
549.5700, 62.22150
550.0521, 62.42528
550.5342, 62.40884
551.0164, 62.35728
551.4985, 62.11383
551.9806, 61.99922
552.4627, 61.72037
552.9448, 62.57077
553.4269, 63.08840
553.9091, 63.29067
554.3912, 62.26204
554.8733, 62.80051
555.3554, 62.69732
555.8375, 62.55847
556.3196, 63.28963
556.8018, 62.38992
557.2839, 63.08765
557.7660, 63.13409
558.2481, 63.46440
558.7302, 63.14915
559.2123, 63.02055
559.6945, 63.51822
560.1766, 63.65398
560.6587, 63.22657
561.1408, 63.51710
561.6229, 62.49775
562.1050, 62.60955
562.5872, 63.20382
563.0693, 62.75968
563.5514, 63.01312
564.0335, 62.04079
564.5156, 62.20260
564.9977, 62.66710
565.4799, 62.81929
565.9620, 62.42056
566.4441, 61.82648
566.9262, 61.63250
567.4083, 61.98377
567.8904, 62.14361
568.3726, 61.89167
568.8547, 61.66930
569.3368, 61.65928
569.8189, 61.77071
570.3010, 61.84896
570.7831, 61.83736
571.2653, 61.77907
571.7474, 61.78301
572.2295, 61.81722
572.7116, 61.57801
573.1937, 60.92838
573.6758, 60.22197
574.1580, 59.71471
574.6401, 59.39269
575.1222, 59.20391
575.6043, 59.24714
576.0864, 59.30531
576.5685, 59.34480
577.0507, 59.30811
577.5328, 58.99827
578.0149, 58.39223
578.4970, 57.89397
578.9791, 58.01600
579.4612, 58.80783
579.9434, 58.97305
580.4255, 57.82000
580.9076, 56.84113
581.3897, 56.39463
581.8718, 56.20755
582.3539, 56.01448
582.8361, 55.73726
583.3182, 55.38394
583.8003, 54.89048
584.2824, 54.29583
584.7645, 53.90709
585.2466, 53.76258
585.7288, 53.72083
586.2108, 53.88885
586.6929, 54.03235
587.1750, 53.78640
587.6572, 53.05778
588.1393, 52.23660
588.6214, 51.24428
589.1035, 50.38970
589.5856, 50.25382
590.0677, 50.80095
590.5499, 51.30324
591.0320, 51.29162
591.5141, 50.87838
591.9962, 50.47711
592.4783, 50.08490
592.9604, 49.71416
593.4426, 49.42306
593.9247, 49.10654
594.4068, 48.57373
594.8889, 47.93552
595.3710, 47.54932
595.8531, 47.69719
596.3353, 48.14141
596.8174, 48.33690
597.2995, 48.25991
597.7816, 48.05220
598.2637, 47.66293
598.7458, 47.23810
599.2280, 46.86320
599.7101, 46.54896
600.1922, 46.35105
600.6743, 46.46297
601.1564, 46.54625
601.6385, 46.26284
602.1207, 45.71328
602.6028, 45.16020
603.0849, 44.68300
603.5670, 44.35092
604.0491, 44.29554
604.5313, 44.60158
605.0134, 44.64931
605.4955, 44.19759
605.9776, 43.80061
606.4597, 43.71547
606.9418, 43.75027
607.4240, 43.65129
607.9061, 43.34776
608.3882, 42.95446
608.8703, 42.53886
609.3524, 42.11709
609.8345, 41.91036
610.3167, 41.95984
610.7988, 42.13938
611.2809, 42.70738
611.7630, 43.21873
612.2451, 42.93820
612.7272, 41.60871
613.2094, 40.42408
613.6915, 39.98110
614.1736, 39.95008
614.6557, 39.99755
615.1378, 40.06852
615.6199, 40.11858
616.1021, 40.13295
616.5842, 40.07699
617.0663, 39.84498
617.5484, 39.26154
618.0305, 38.79249
618.5126, 38.47313
618.9948, 38.22353
619.4769, 38.04770
619.9590, 37.90191
620.4411, 37.68003
620.9232, 37.29827
621.4053, 36.93126
621.8875, 36.97241
622.3696, 37.40988
622.8517, 37.45103
623.3338, 36.77709
623.8159, 36.04414
624.2980, 35.87369
624.7802, 36.09568
625.2623, 36.15633
625.7444, 35.89547
626.2265, 35.59231
626.7086, 35.37052
627.1907, 35.18609
627.6729, 34.93353
628.1550, 34.61470
628.6371, 34.42151
629.1192, 34.56852
629.6013, 34.97602
630.0834, 34.94565
630.5656, 33.95431
631.0477, 33.40363
631.5298, 33.84681
632.0119, 34.47483
632.4940, 34.71745
632.9761, 34.55737
633.4583, 34.26646
633.9404, 33.89992
634.4225, 33.58459
634.9046, 33.67525
635.3867, 34.11753
635.8688, 34.10621
636.3510, 33.22154
636.8331, 32.20763
637.3152, 32.01385
637.7973, 32.74458
638.2794, 33.22624
638.7615, 33.39046
639.2437, 33.36661
639.7258, 33.06092
640.2079, 32.66108
640.6900, 32.43385
641.1721, 32.43783
641.6542, 32.51682
642.1364, 32.49057
642.6185, 32.37552
643.1006, 32.41642
643.5827, 32.72713
644.0648, 32.94022
644.5469, 32.77922
645.0291, 32.55412
645.5112, 32.58774
645.9933, 32.89860
646.4754, 33.13065
646.9575, 33.14117
647.4396, 32.98268
647.9218, 32.54192
648.4039, 31.94427
648.8860, 31.76343
649.3681, 32.27260
649.8502, 32.94582
650.3323, 32.91421
650.8145, 31.87574
651.2966, 31.52939
651.7787, 32.50225
652.2608, 33.41312
652.7429, 33.79129
653.2250, 33.89581
653.7072, 34.10279
654.1893, 34.50045
654.6714, 34.81586
655.1535, 34.73778
655.6356, 34.37305
656.1177, 34.02702
656.5999, 33.68665
657.0820, 33.59531
657.5641, 34.02268
658.0462, 34.61911
658.5283, 34.65270
659.0104, 33.99376
659.4926, 33.55988
659.9747, 33.68771
660.4568, 33.87929
660.9389, 33.76506
661.4210, 33.48192
661.9031, 33.32003
662.3853, 33.39664
662.8674, 33.67769
663.3495, 34.19745
663.8316, 34.98888
664.3137, 35.49223
664.7958, 35.61213
665.2780, 35.61485
665.7601, 35.55700
666.2422, 35.47559
666.7243, 35.40456
667.2064, 35.34479
667.6885, 35.32336
668.1707, 35.21885
668.6528, 35.24803
669.1349, 35.83569
669.6170, 36.83522
670.0991, 37.60426
670.5812, 37.84300
671.0634, 37.69442
671.5455, 37.36174
672.0276, 36.74801
672.5097, 36.32843
672.9918, 36.13355
673.4739, 36.11080
673.9561, 36.24134
674.4382, 36.54197
674.9203, 37.18073
675.4024, 38.19233
675.8845, 38.94021
676.3666, 38.46325
676.8488, 37.47527
677.3309, 37.83085
677.8130, 39.57783
678.2951, 40.79703
678.7772, 40.47235
679.2593, 39.32535
679.7415, 38.62551
680.2236, 38.44334
680.7057, 38.56042
681.1878, 39.22406
681.6699, 39.91498
682.1520, 40.54610
682.6342, 41.00021
683.1163, 41.06441
683.5984, 40.69786
684.0805, 40.21958
684.5626, 39.95531
685.0447, 39.87425
685.5269, 39.77835
686.0090, 39.63251
686.4911, 39.65942
686.9732, 40.00817
687.4553, 40.53541
687.9374, 41.03811
688.4196, 41.52428
688.9017, 41.93450
689.3838, 42.21513
689.8659, 42.46023
690.3480, 42.59434
690.8301, 42.77057
691.3123, 43.37459
691.7944, 44.47783
692.2765, 45.50348
692.7586, 45.70129
693.2407, 45.14812
693.7228, 44.94845
694.2050, 45.20396
694.6871, 45.53510
695.1692, 45.80492
695.6513, 46.09660
696.1334, 46.45589
696.6155, 46.88741
697.0977, 47.52704
697.5798, 48.68411
698.0619, 49.81337
698.5440, 50.45566
699.0261, 50.78280
699.5082, 51.11862
699.9904, 51.56791
700.4725, 52.12774
700.9546, 52.81110
701.4367, 53.60667
701.9188, 54.37390
702.4009, 55.16766
702.8831, 55.81934
703.3652, 55.98192
703.8473, 56.22116
704.3294, 57.10571
704.8115, 58.53469
705.2936, 59.76134
705.7758, 60.28606
706.2579, 60.68881
706.7400, 61.48896
707.2221, 62.52790
707.7042, 63.46879
708.1863, 64.23074
708.6685, 64.90823
709.1506, 65.55276
709.6327, 66.20263
710.1148, 67.18184
710.5969, 68.86757
711.0790, 70.17964
711.5612, 70.85407
712.0433, 71.24685
712.5254, 71.50283
713.0075, 71.65782
713.4896, 71.78587
713.9717, 72.03731
714.4539, 72.04153
714.9360, 71.20653
715.4181, 69.92415
715.9002, 69.21578
716.3823, 69.20571
716.8644, 69.04397
717.3466, 68.05532
717.8287, 66.51860
718.3108, 65.49349
718.7929, 65.60057
719.2750, 65.03844
719.7571, 63.31001
720.2393, 61.39223
720.7214, 59.66546
721.2035, 58.13216
721.6856, 56.73687
722.1677, 55.48424
722.6498, 54.27200
723.1320, 52.91344
723.6141, 51.56330
724.0962, 50.68364
724.5783, 50.25160
725.0604, 49.56810
725.5425, 48.19896
726.0247, 46.52154
726.5068, 45.30859
726.9889, 44.73888
727.4710, 44.09146
727.9531, 43.33531
728.4352, 42.54089
728.9174, 41.58460
729.3995, 40.67426
729.8816, 40.13028
730.3637, 40.00997
730.8458, 39.95642
731.3279, 39.76433
731.8101, 39.45670
732.2922, 38.97808
732.7743, 38.38232
733.2564, 38.06256
733.7385, 38.20506
734.2206, 38.36060
734.7028, 37.89799
735.1849, 36.74843
735.6670, 36.02163
736.1491, 35.97049
736.6312, 36.03785
737.1133, 36.25969
737.5955, 36.47181
738.0776, 36.57804
738.5597, 36.54816
739.0418, 36.31261
739.5239, 35.65767
740.0060, 34.99760
740.4882, 34.94571
740.9703, 35.28316
741.4524, 35.24862
741.9345, 34.68682
742.4166, 34.23873
742.8987, 34.50850
743.3809, 35.27847
743.8630, 35.43340
744.3451, 34.47395
744.8272, 33.80642
745.3093, 33.68763
745.7914, 33.68536
746.2736, 33.50563
746.7557, 33.28341
747.2378, 33.37604
747.7199, 33.98654
748.2020, 34.52740
748.6841, 34.55006
749.1663, 34.20783
749.6484, 33.57609
750.1305, 32.76180
750.6126, 32.38248
751.0947, 32.79972
751.5768, 33.53979
752.0590, 33.70894
752.5411, 33.10976
753.0232, 32.89083
753.5053, 33.49285
753.9874, 33.88403
754.4695, 33.58195
754.9517, 33.02953
755.4338, 32.70724
755.9159, 32.66344
756.3980, 32.60372
756.8801, 32.29502
757.3622, 31.98717
757.8444, 31.99615
758.3265, 32.18700
758.8086, 32.20227
759.2907, 31.96044
759.7728, 31.70291
760.2549, 31.67579
760.7371, 31.83094
761.2192, 31.86528
761.7013, 31.73589
762.1834, 31.60703
762.6655, 31.62347
763.1476, 31.52194
763.6298, 30.86562
764.1119, 29.96362
764.5940, 29.75723
765.0761, 30.98457
765.5582, 31.80803
766.0403, 30.85445
766.5225, 29.35429
767.0046, 28.64260
767.4867, 28.72056
767.9688, 29.06907
768.4509, 29.43578
768.9330, 29.65163
769.4152, 29.31189
769.8973, 28.37933
770.3794, 27.88699
770.8615, 28.01514
771.3436, 28.14067
771.8257, 27.90585
772.3079, 27.58645
772.7900, 27.63243
773.2721, 28.07839
773.7542, 28.40891
774.2363, 28.51439
774.7184, 28.51952
775.2006, 28.39820
775.6827, 28.25842
776.1648, 28.31933
776.6469, 28.55581
777.1290, 28.61954
777.6111, 28.17169
778.0933, 27.46942
778.5754, 27.08524
779.0575, 27.01093
779.5396, 27.07049
780.0217, 27.26341
780.5038, 27.47558
780.9860, 27.66682
781.4681, 27.79647
781.9502, 27.67371
782.4323, 26.90433
782.9144, 26.54193
783.3965, 26.95153
783.8787, 27.46183
784.3608, 27.76324
784.8429, 27.87180
785.3250, 27.83128
785.8071, 27.65439
786.2892, 27.50423
786.7714, 27.59265
787.2535, 27.77017
787.7356, 27.71192
788.2177, 27.44964
788.6998, 27.27219
789.1819, 27.28707
789.6641, 27.40093
790.1462, 27.50574
790.6283, 27.60160
791.1104, 27.71342
791.5925, 27.88218
792.0746, 27.99592
792.5568, 28.00175
793.0389, 27.97758
793.5210, 27.95988
794.0031, 27.95708
794.4852, 27.98007
794.9673, 28.00808
795.4495, 28.10994
795.9316, 28.45938
796.4137, 28.83057
796.8958, 28.89737
797.3779, 28.68399
797.8600, 28.37764
798.3422, 28.06638
798.8243, 27.89811
799.3064, 28.25285
799.7885, 29.16567
800.2706, 29.51964
800.7527, 29.13329
801.2349, 28.71464
801.7170, 28.46435
802.1991, 28.39071
802.6812, 28.62823
803.1633, 29.18397
803.6454, 29.40551
804.1276, 28.71721
804.6097, 28.31494
805.0918, 29.03205
805.5739, 29.98734
806.0560, 30.15728
806.5381, 29.60655
807.0203, 29.15682
807.5024, 29.31200
807.9845, 29.14396
808.4666, 29.75689
808.9487, 29.60061
809.4308, 29.82333
809.9130, 30.50185
810.3951, 31.03121
810.8772, 31.04613
811.3593, 30.74479
811.8414, 30.51010
812.3235, 30.31703
812.8057, 30.28336
813.2878, 30.56972
813.7699, 30.81650
814.2520, 30.93344
814.7341, 30.96253
815.2162, 30.82515
815.6984, 30.57445
816.1805, 30.65961
816.6626, 31.58688
817.1447, 32.58071
817.6268, 33.07919
818.1089, 33.26130
818.5911, 33.38926
819.0732, 33.50674
819.5553, 33.53413
820.0374, 33.40644
820.5195, 33.22749
821.0016, 33.22108
821.4838, 33.39177
821.9659, 33.57843
822.4480, 33.78649
822.9301, 33.95308
823.4122, 34.02793
823.8943, 34.05775
824.3765, 34.10481
824.8586, 34.14612
825.3407, 34.32982
825.8228, 34.74160
826.3049, 35.19762
826.7870, 35.71101
827.2692, 36.18940
827.7513, 36.54932
828.2334, 36.77999
828.7155, 36.88956
829.1976, 36.82184
829.6797, 36.75076
830.1619, 36.79853
830.6440, 37.00952
831.1261, 37.61119
831.6082, 38.56871
832.0903, 39.35601
832.5724, 39.66213
833.0546, 39.68432
833.5367, 39.78060
834.0188, 39.94223
834.5009, 40.26917
834.9830, 40.93339
835.4651, 41.40807
835.9473, 41.29778
836.4294, 41.06311
836.9115, 41.21960
837.3936, 41.75236
837.8757, 42.32861
838.3578, 42.90765
838.8400, 43.50982
839.3221, 44.18596
839.8042, 44.86137
840.2863, 45.48626
840.7684, 46.04159
841.2505, 46.48558
841.7327, 46.78654
842.2148, 47.06913
842.6969, 47.48213
843.1790, 47.99497
843.6611, 48.53677
844.1432, 49.10086
844.6254, 49.67422
845.1075, 50.25621
845.5896, 50.82139
846.0717, 51.34243
846.5538, 51.81665
847.0359, 52.21003
847.5181, 52.24808
848.0002, 52.74821
848.4823, 54.36065
848.9644, 56.03053
849.4465, 56.95791
849.9286, 57.36156
850.4108, 57.93755
850.8929, 58.88347
851.3750, 59.81011
851.8571, 60.46083
852.3392, 61.14820
852.8214, 62.14729
853.3035, 63.38268
853.7856, 64.71383
854.2677, 66.07818
854.7498, 67.36131
855.2319, 68.41276
855.7141, 69.32606
856.1962, 70.23937
856.6783, 71.18530
857.1604, 72.50510
857.6425, 74.29382
858.1246, 76.17964
858.6068, 77.87596
859.0889, 79.38049
859.5710, 80.64539
860.0531, 81.42480
860.5352, 82.64186
861.0173, 84.73445
861.4995, 86.72986
861.9816, 88.22054
862.4637, 89.36524
862.9458, 90.22117
863.4279, 90.74957
863.9100, 91.74345
864.3922, 93.87448
864.8743, 95.99014
865.3564, 97.34521
865.8385, 98.42192
866.3206, 99.83865
866.8027, 101.5982
867.2849, 103.2969
867.7670, 104.6894
868.2491, 105.9564
868.7312, 107.2589
869.2133, 108.6225
869.6954, 110.2306
870.1776, 112.0598
870.6597, 113.6327
871.1418, 114.7208
871.6239, 115.5706
872.1060, 116.4971
872.5881, 117.5001
873.0703, 118.7423
873.5524, 120.3531
874.0345, 121.8927
874.5166, 123.5131
874.9987, 124.7620
875.4808, 124.7610
875.9630, 124.0985
876.4451, 124.6314
876.9272, 127.1820
877.4093, 129.3898
877.8914, 130.5405
878.3735, 131.4746
878.8557, 132.5641
879.3378, 133.8588
879.8199, 135.4145
880.3020, 137.2253
880.7841, 139.0945
881.2662, 141.0506
881.7484, 142.8555
882.2305, 143.9445
882.7126, 144.7107
883.1947, 146.2884
883.6768, 148.7219
884.1589, 150.8978
884.6411, 152.0807
885.1232, 152.6647
885.6053, 153.2596
886.0874, 153.8468
886.5695, 155.2542
887.0516, 157.7595
887.5338, 159.9515
888.0159, 161.1899
888.4980, 162.0360
888.9801, 163.1585
889.4622, 164.5581
889.9443, 165.7310
890.4265, 166.4264
890.9086, 167.2585
891.3907, 168.4704
891.8728, 169.6540
892.3549, 170.4778
892.8370, 171.1125
893.3192, 171.9696
893.8013, 173.1940
894.2834, 174.1902
894.7655, 174.5358
895.2476, 174.6603
895.7297, 174.5702
896.2119, 174.6569
896.6940, 175.9058
897.1761, 178.2053
897.6582, 179.9082
898.1403, 179.6943
898.6224, 178.8257
899.1046, 179.3887
899.5867, 181.1239
900.0688, 182.9975
900.5509, 184.9033
901.0330, 186.6234
901.5151, 188.0535
901.9973, 189.2808
902.4794, 190.3488
902.9615, 191.2567
903.4436, 192.8556
903.9257, 195.5877
904.4078, 197.8481
904.8900, 199.0025
905.3721, 199.9949
905.8542, 201.6747
906.3363, 203.7516
906.8184, 205.3187
907.3005, 206.3149
907.7827, 206.9034
908.2648, 206.8231
908.7469, 206.6550
909.2290, 206.8035
909.7111, 206.9530
910.1932, 206.7156
910.6754, 206.0449
911.1575, 205.1167
911.6396, 204.0974
912.1217, 202.7225
912.6038, 200.7328
913.0859, 198.2816
913.5681, 195.4731
914.0502, 192.3993
914.5323, 189.2999
915.0144, 186.2740
915.4965, 183.0253
915.9786, 179.0701
916.4607, 174.6019
916.9428, 170.2762
917.4249, 166.0874
917.9070, 162.1090
918.3892, 158.3828
918.8713, 154.5887
919.3534, 150.4664
919.8355, 146.1357
920.3176, 142.0766
920.7997, 138.4461
921.2819, 134.3494
921.7640, 129.5493
922.2461, 124.7175
922.7282, 119.9828
923.2103, 115.4757
923.6924, 111.4885
924.1746, 107.9848
924.6567, 104.3818
925.1388, 100.4080
925.6209, 96.68272
926.1030, 93.40047
926.5851, 90.32952
927.0673, 87.31911
927.5494, 84.42123
928.0315, 81.80584
928.5136, 79.54224
928.9957, 77.17832
929.4778, 74.36355
929.9600, 71.47654
930.4421, 68.58974
930.9242, 65.92243
931.4063, 63.87697
931.8884, 62.39218
932.3705, 61.01395
932.8527, 59.47508
933.3348, 57.96768
933.8169, 56.80577
934.2990, 55.85210
934.7811, 54.70314
935.2632, 53.38305
935.7454, 52.21670
936.2275, 51.31142
936.7096, 50.42571
937.1917, 49.28077
937.6738, 48.02716
938.1559, 47.33352
938.6381, 47.31249
939.1202, 46.87918
939.6023, 45.73452
940.0844, 44.84304
940.5665, 44.82678
941.0486, 45.15870
941.5308, 44.99703
942.0129, 44.28722
942.4950, 43.67400
942.9771, 43.13656
943.4592, 42.72557
943.9413, 42.69025
944.4235, 42.54282
944.9056, 41.71025
945.3877, 40.60138
945.8698, 40.18450
946.3519, 40.76616
946.8340, 41.18799
947.3162, 41.05676
947.7983, 40.80774
948.2804, 40.64611
948.7625, 40.50404
949.2446, 40.25668
949.7267, 39.93250
950.2089, 39.71116
950.6910, 39.72634
951.1731, 39.67922
951.6552, 39.22210
952.1373, 38.65265
952.6194, 38.40769
953.1016, 38.35748
953.5837, 38.07624
954.0658, 37.47918
954.5479, 36.93567
955.0300, 36.80970
955.5121, 36.79219
955.9943, 36.09602
956.4764, 36.09739
956.9585, 34.79978
957.4406, 35.55273
957.9227, 35.98777
958.4048, 35.50819
958.8870, 34.59179
959.3691, 33.82643
959.8512, 33.21029
960.3333, 32.67088
960.8154, 32.15473
961.2975, 32.23857
961.7797, 33.26225
962.2618, 34.10614
962.7439, 34.02174
963.2260, 33.29152
963.7081, 32.43226
964.1902, 31.29238
964.6724, 30.85132
965.1545, 31.68514
965.6366, 32.25791
966.1187, 31.95790
966.6008, 31.52489
967.0829, 31.61955
967.5651, 32.03425
968.0472, 32.11102
968.5293, 31.65942
969.0114, 31.28052
969.4935, 31.10142
969.9756, 30.95527
970.4578, 30.71789
970.9399, 30.50879
971.4220, 30.51405
971.9041, 30.68912
972.3862, 30.77483
972.8683, 30.71069
973.3505, 30.48048
973.8326, 29.88572
974.3147, 29.29162
974.7968, 29.01106
975.2789, 28.98105
975.7610, 29.03475
976.2432, 29.14613
976.7253, 29.47486
977.2074, 30.36897
977.6895, 31.08786
978.1716, 30.51749
978.6537, 29.37122
979.1359, 28.83757
979.6180, 28.91453
980.1001, 29.09887
980.5822, 29.20216
981.0643, 29.42133
981.5464, 30.11400
982.0286, 30.88803
982.5107, 30.60170
982.9928, 29.52070
983.4749, 28.97444
983.9570, 29.12446
984.4391, 29.36142
984.9213, 29.37552
985.4034, 29.22122
985.8855, 28.89693
986.3676, 28.46790
986.8497, 28.61577
987.3318, 29.41092
987.8140, 29.96877
988.2961, 30.12550
988.7782, 29.94971
989.2603, 29.36255
989.7424, 28.69511
990.2245, 28.68681
990.7067, 29.46113
991.1888, 29.86135
991.6709, 29.68986
992.1530, 29.64158
992.6351, 29.95881
993.1172, 30.32936
993.5994, 30.58007
994.0815, 30.68182
994.5636, 30.52347
995.0457, 29.97613
995.5278, 29.53256
996.0099, 29.06366
996.4921, 28.86277
996.9742, 29.17421
997.4563, 29.63990
997.9384, 29.98844
998.4205, 30.23608
998.9026, 30.47232
999.3848, 30.70404
999.8669, 30.93157
1000.349, 31.20633
1000.831, 31.41694
1001.313, 31.47252
1001.795, 31.46243
1002.277, 31.48083
1002.760, 31.53085
1003.242, 31.58227
1003.724, 31.66487
1004.206, 31.64660
1004.688, 31.19995
1005.170, 30.89495
1005.652, 31.40653
1006.134, 32.23094
1006.617, 32.52787
1007.099, 32.26064
1007.581, 32.07180
1008.063, 32.25392
1008.545, 32.67759
1009.027, 33.45757
1009.509, 34.25305
1009.991, 34.71557
1010.473, 34.85217
1010.956, 34.62611
1011.438, 34.11003
1011.920, 33.72726
1012.402, 33.81790
1012.884, 34.04041
1013.366, 33.97729
1013.848, 33.74319
1014.330, 33.49126
1014.813, 33.27460
1015.295, 33.24731
1015.777, 33.43483
1016.259, 33.58393
1016.741, 33.42084
1017.223, 33.21283
1017.705, 33.59348
1018.187, 34.34282
1018.669, 34.74639
1019.152, 34.73453
1019.634, 34.22560
1020.116, 33.20457
1020.598, 32.23082
1021.080, 31.89175
1021.562, 32.01689
1022.044, 32.20503
1022.526, 32.43770
1023.008, 32.46940
1023.491, 32.27556
1023.973, 32.15508
1024.455, 32.23357
1024.937, 32.45267
1025.419, 32.81850
1025.901, 33.19713
1026.383, 32.81420
1026.865, 31.58268
1027.348, 30.98096
1027.830, 31.23933
1028.312, 31.63833
1028.794, 31.92820
1029.276, 31.95806
1029.758, 31.47727
1030.240, 30.57459
1030.722, 29.93576
1031.204, 29.53123
1031.687, 29.60286
1032.169, 30.38337
1032.651, 31.00747
1033.133, 30.97147
1033.615, 30.76499
1034.097, 31.07634
1034.579, 31.85141
1035.061, 32.22947
1035.544, 32.06166
1036.026, 31.86419
1036.508, 31.58188
1036.990, 31.46290
1037.472, 31.74426
1037.954, 32.12442
1038.436, 32.21181
1038.918, 32.01414
1039.401, 31.74554
1039.883, 31.31326
1040.365, 30.97756
1040.847, 30.52030
1041.329, 30.48018
1041.811, 31.53319
1042.293, 32.83701
1042.775, 32.63679
1043.257, 33.43093
1043.740, 33.90220
1044.222, 34.06770
1044.704, 33.01205
1045.186, 33.53326
1045.668, 33.42252
1046.150, 33.28589
1046.632, 34.02900
1047.114, 33.15099
1047.596, 33.88015
1048.079, 33.96788
1048.561, 34.34912
1049.043, 34.09453
1049.525, 33.13401
1050.007, 34.06261
1050.489, 34.65264
1050.971, 34.92136
1051.453, 33.95340
1051.936, 34.54690
1052.418, 34.49257
1052.900, 34.39675
1053.382, 35.16507
1053.864, 34.29665
1054.346, 35.01980
1054.828, 35.08580
1055.310, 35.42982
1055.792, 35.12241
1056.275, 34.99574
1056.757, 35.48950
1057.239, 35.61547
1057.721, 35.17242
1058.203, 35.44143
1058.685, 34.39470
1059.167, 34.47327
1059.649, 35.02845
1060.131, 34.53936
1060.614, 34.63010
1061.096, 34.79479
1061.578, 34.60882
1062.060, 34.43380
1062.542, 34.33809
1063.024, 34.34948
1063.506, 34.65352
1063.988, 34.95344
1064.471, 34.87508
1064.953, 34.47323
1065.435, 34.09634
1065.917, 33.87241
1066.399, 33.54533
1066.881, 32.80312
1067.363, 32.17216
1067.845, 32.19364
1068.328, 32.31398
1068.810, 31.75489
1069.292, 30.74181
1069.774, 30.24472
1070.256, 30.67739
1070.738, 30.77298
1071.220, 29.55989
1071.702, 28.35835
1072.184, 28.02933
1072.667, 28.03037
1073.149, 27.78246
1073.631, 27.35004
1074.113, 27.11058
1074.595, 27.18797
1075.077, 27.15090
1075.559, 26.71098
1076.041, 26.22003
1076.523, 25.96824
1077.006, 25.68179
1077.488, 24.89001
1077.970, 23.89693
1078.452, 23.46549
1078.934, 23.77406
1079.416, 24.02321
1079.898, 23.59062
1080.380, 23.35042
1080.862, 24.11250
1081.345, 24.94898
1081.827, 24.92366
1082.309, 24.37449
1082.791, 24.06562
1083.273, 24.12353
1083.755, 24.04659
1084.237, 23.41900
1084.719, 22.89837
1085.202, 22.71944
1085.684, 22.84928
1086.166, 23.59635
1086.648, 24.46098
1087.130, 24.62481
1087.612, 24.05240
1088.094, 23.48901
1088.576, 23.15153
1089.058, 22.98590
1089.541, 23.19093
1090.023, 23.32407
1090.505, 22.84918
1090.987, 22.25420
1091.469, 22.33116
1091.951, 22.96995
1092.433, 23.25084
1092.915, 22.75941
1093.397, 22.28101
1093.880, 22.16710
1094.362, 22.10382
1094.844, 21.77822
1095.326, 21.50556
1095.808, 21.79872
1096.290, 22.45043
1096.772, 22.70571
1097.254, 22.28819
1097.737, 21.95764
1098.219, 22.19985
1098.701, 22.29408
1099.183, 21.63199
1099.665, 20.92564
1100.147, 20.94814
1100.629, 21.39916
1101.111, 21.49893
1101.594, 21.08947
1102.076, 20.74425
1102.558, 20.71297
1103.040, 20.63108
1103.522, 20.21569
1104.004, 19.87383
1104.486, 20.06335
1104.968, 20.43748
1105.450, 20.33041
1105.932, 19.70323
1106.415, 19.37436
1106.897, 19.75143
1107.379, 20.05965
1107.861, 20.08716
1108.343, 20.08384
1108.825, 20.33311
1109.307, 20.52007
1109.789, 20.10316
1110.272, 19.19586
1110.754, 18.70999
1111.236, 18.96495
1111.718, 19.18878
1112.200, 19.52179
1112.682, 18.95573
1113.164, 19.63124
1113.646, 19.98371
1114.129, 20.03041
1114.611, 18.85613
1115.093, 19.25866
1115.575, 19.02929
1116.057, 18.77398
1116.539, 19.39846
1117.021, 18.40178
1117.503, 19.01229
1117.985, 18.98125
1118.468, 19.24370
1118.950, 18.87046
1119.432, 18.69360
1119.914, 19.15278
1120.396, 19.25977
1120.878, 18.81333
1121.360, 19.09459
1121.842, 18.07570
1122.324, 18.19770
1122.807, 18.81181
1123.289, 18.39735
1123.771, 18.69022
1124.253, 18.71369
1124.735, 17.51291
1125.217, 18.44124
1125.699, 18.44881
1126.181, 17.76933
1126.664, 17.96923
1127.146, 18.66248
1127.628, 19.35666
1128.110, 19.63782
1128.592, 19.52213
1129.074, 18.93348
1129.556, 17.77162
1130.038, 17.28387
1130.521, 17.55212
1131.003, 17.98488
1131.485, 18.49930
1131.967, 18.82934
1132.449, 18.28201
1132.931, 19.01112
1133.413, 19.41722
1133.895, 19.51766
1134.377, 18.39698
1134.859, 18.85313
1135.342, 18.67734
1135.824, 18.47565
1136.306, 19.15373
1136.788, 18.21066
1137.270, 18.87479
1137.752, 18.89735
1138.234, 19.21354
1138.716, 18.89391
1139.199, 18.77065
1139.681, 19.28343
1140.163, 19.44404
1140.645, 19.05121
1141.127, 19.38607
1141.609, 18.42079
1142.091, 18.59640
1142.573, 19.26425
1143.056, 18.90337
1143.538, 19.24986
1144.020, 19.32694
1144.502, 17.95096
1144.984, 17.74460
1145.466, 17.95786
1145.948, 18.06832
1146.430, 17.85679
1146.912, 17.67346
1147.395, 17.92104
1147.877, 18.24592
1148.359, 18.21638
1148.841, 18.03321
1149.323, 17.97932
1149.805, 18.01574
1150.287, 17.99285
1150.769, 17.87906
1151.251, 17.71777
1151.734, 17.43728
1152.216, 17.35764
1152.698, 18.02433
1153.180, 18.63343
1153.662, 18.22718
1154.144, 17.54927
1154.626, 17.73975
1155.108, 18.59927
1155.591, 19.07933
1156.073, 18.86420
1156.555, 18.51010
1157.037, 17.96316
1157.519, 17.64721
1158.001, 17.88276
1158.483, 18.26872
1158.965, 18.59457
1159.448, 18.81091
1159.930, 18.80836
1160.412, 18.58617
1160.894, 18.52863
1161.376, 18.79226
1161.858, 19.04083
1162.340, 19.37464
1162.822, 19.52258
1163.304, 19.31012
1163.786, 18.93845
1164.269, 18.47876
1164.751, 18.04012
1165.233, 18.05956
1165.715, 17.76362
1166.197, 17.52414
1166.679, 17.82878
1167.161, 17.36168
1167.643, 17.93691
1168.126, 18.58812
1168.608, 18.77415
1169.090, 18.63778
1169.572, 18.32447
1170.054, 17.90238
1170.536, 18.00288
1171.018, 18.66669
1171.500, 18.84873
1171.983, 18.44278
1172.465, 18.12573
1172.947, 18.13322
1173.429, 18.25476
1173.911, 18.32797
1174.393, 18.33985
1174.875, 18.21982
1175.357, 18.23537
1175.839, 17.99782
1176.322, 18.09391
1176.804, 18.08306
1177.286, 17.94097
1177.768, 17.76313
1178.250, 17.59695
1178.732, 17.52387
1179.214, 17.60976
1179.696, 17.84782
1180.178, 18.44301
1180.661, 19.04219
1181.143, 18.97313
1181.625, 18.48335
1182.107, 18.21786
1182.589, 18.27026
1183.071, 17.63195
1183.553, 18.37126
1184.035, 18.78757
1184.518, 18.89822
1185.000, 17.78775
1185.482, 18.25411
1185.964, 18.08854
1186.446, 17.89706
1186.928, 18.58535
1187.410, 17.65249
1187.892, 18.32682
1188.375, 18.35959
1188.857, 18.68599
1189.339, 18.37657
1189.821, 18.26353
1190.303, 18.78652
1190.785, 18.95733
1191.267, 18.57471
1191.749, 18.91978
1192.231, 17.96470
1192.714, 18.15052
1193.196, 18.10019
1193.678, 18.82626
1194.160, 19.22932
1194.642, 19.32673
1195.124, 18.20301
1195.606, 18.65612
1196.088, 18.47731
1196.570, 18.27260
1197.053, 18.94761
1197.535, 18.00151
1198.017, 18.66260
1198.499, 18.68213
1198.981, 18.99528
1199.463, 18.67261
1199.945, 18.54633
1200.427, 19.05607
1200.910, 19.21362
1201.392, 18.81776
1201.874, 19.14958
1202.356, 18.18127
1202.838, 18.21795
1203.320, 17.85645
1203.802, 17.59442
1204.284, 17.73066
1204.766, 18.10852
1205.249, 18.08777
1205.731, 17.52958
1206.213, 17.08658
1206.695, 17.19224
1207.177, 17.46489
1207.659, 17.75931
1208.141, 17.94222
1208.623, 17.79085
1209.105, 17.53288
1209.588, 17.48024
1210.070, 17.58159
1210.552, 17.52439
1211.034, 17.19473
1211.516, 17.20550
1211.998, 18.13655
1212.480, 18.78302
1212.962, 18.54212
1213.445, 18.31309
1213.927, 18.83858
1214.409, 19.39064
1214.891, 19.00458
1215.373, 17.97591
1215.855, 17.67994
1216.337, 18.36773
1216.819, 18.66857
1217.302, 18.47100
1217.784, 18.33115
1218.266, 18.39230
1218.748, 18.36779
1219.230, 18.08402
1219.712, 17.69539
1220.194, 17.36128
1220.676, 17.13789
1221.158, 17.25659
1221.641, 17.65510
1222.123, 18.03361
1222.605, 18.36460
1223.087, 18.68178
1223.569, 18.95890
1224.051, 18.94621
1224.533, 18.49144
1225.015, 17.96857
1225.497, 17.85491
1225.980, 17.77543
1226.462, 17.03435
1226.944, 16.25450
1227.426, 16.44746
1227.908, 17.18600
1228.390, 17.51859
1228.872, 17.29967
1229.354, 16.87386
1229.837, 16.13237
1230.319, 15.85915
1230.801, 16.78596
1231.283, 17.62836
1231.765, 17.79707
1232.247, 17.71181
1232.729, 17.71290
1233.211, 17.68296
1233.693, 17.27610
1234.176, 16.52450
1234.658, 16.44793
1235.140, 17.46969
1235.622, 17.83474
1236.104, 17.28504
1236.586, 16.68265
1237.068, 16.19098
1237.550, 16.17621
1238.032, 16.99950
1238.515, 18.04597
1238.997, 18.29888
1239.479, 17.89287
1239.961, 17.15380
1240.443, 16.25284
1240.925, 16.10818
1241.407, 16.61987
1241.889, 16.89041
1242.372, 16.70711
1242.854, 16.62563
1243.336, 17.02041
1243.818, 17.42692
1244.300, 17.40760
1244.782, 17.19494
1245.264, 16.85869
1245.746, 16.58918
1246.229, 16.63531
1246.711, 16.90955
1247.193, 17.30339
1247.675, 17.74950
1248.157, 17.85111
1248.639, 17.17374
1249.121, 16.83106
1249.603, 17.40034
1250.085, 17.80010
1250.568, 17.65005
1251.050, 17.26922
1251.532, 16.72638
1252.014, 16.22277
1252.496, 16.11766
1252.978, 16.37352
1253.460, 16.59526
1253.942, 16.79202
1254.424, 16.79683
1254.907, 16.58644
1255.389, 16.70667
1255.871, 17.29753
1256.353, 17.61878
1256.835, 17.17108
1257.317, 16.56953
1257.799, 16.63383
1258.281, 17.03736
1258.764, 17.32683
1259.246, 17.44469
1259.728, 17.10232
1260.210, 16.56493
1260.692, 16.48989
1261.174, 16.90968
1261.656, 17.30547
1262.138, 17.48505
1262.620, 17.56012
1263.103, 17.44730
1263.585, 17.42187
1264.067, 17.86513
1264.549, 18.16230
1265.031, 17.70882
1265.513, 16.95981
1265.995, 16.51227
1266.477, 16.35474
1266.959, 16.43126
1267.442, 16.85684
1267.924, 17.03279
1268.406, 16.91831
1268.888, 16.72074
1269.370, 16.46101
1269.852, 16.24425
1270.334, 16.11565
1270.816, 16.16665
1271.299, 16.54938
1271.781, 16.47950
1272.263, 17.01568
1272.745, 16.75777
1273.227, 16.85118
1273.709, 17.16850
1274.191, 17.42262
1274.673, 17.51767
1275.156, 17.27413
1275.638, 16.66591
1276.120, 16.23058
1276.602, 16.26365
1277.084, 16.53367
1277.566, 17.24634
1278.048, 17.77807
1278.530, 17.71506
1279.012, 17.32247
1279.495, 16.66142
1279.977, 15.95513
1280.459, 15.67364
1280.941, 15.81894
1281.423, 16.21128
1281.905, 17.01961
1282.387, 17.41804
1282.869, 17.29480
1283.351, 17.09813
1283.834, 16.96127
1284.316, 16.71141
1284.798, 16.20002
1285.280, 15.77146
1285.762, 15.83967
1286.244, 16.41434
##END=



