##NAMES=Vanadinite
##RRUFFID=R050376
##IDEAL CHEMISTRY=Pb^2+^_5_(V^5+^O_4_)_3_Cl
##LOCALITY=Morocco
##OWNER=RRUFF
##SOURCE=Eugene Schlepp
##DESCRIPTION=Red hoppered crystal
##STATUS=The identification of this mineral has been confirmed by X-ray diffraction and chemical analysis
##URL=rruff.info/R050376
##MEASURED CHEMISTRY=Pb_5.00_(V_1.00_O_4_)_3_Cl_1.00_
91.87140, 0.0000000E+00
92.35352, 46.34788
92.83563, 43.45681
93.31775, 42.22615
93.79987, 42.86032
94.28198, 45.18308
94.76410, 48.75908
95.24622, 53.57838
95.72833, 59.50828
96.21045, 66.27644
96.69257, 73.93037
97.17468, 82.14225
97.65680, 90.34151
98.13892, 98.57759
98.62103, 107.8302
99.10315, 118.1153
99.58527, 129.5094
100.0674, 141.9097
100.5495, 154.9752
101.0316, 169.5698
101.5137, 186.5543
101.9958, 206.2380
102.4780, 227.6017
102.9601, 250.1362
103.4422, 273.7136
103.9243, 299.1618
104.4064, 326.6143
104.8885, 355.9791
105.3707, 388.1008
105.8528, 424.5682
106.3349, 461.1912
106.8170, 496.4440
107.2991, 531.6023
107.7813, 562.9019
108.2634, 588.6056
108.7455, 610.3345
109.2276, 632.6012
109.7097, 659.0093
110.1918, 683.5248
110.6740, 703.6793
111.1561, 713.5990
111.6382, 725.6827
112.1203, 740.8630
112.6024, 759.0789
113.0845, 779.1202
113.5667, 800.0271
114.0488, 823.0233
114.5309, 849.1981
115.0130, 880.3963
115.4951, 913.0566
115.9772, 947.1048
116.4594, 982.7333
116.9415, 1017.207
117.4236, 1049.025
117.9057, 1079.370
118.3878, 1109.377
118.8699, 1139.682
119.3521, 1169.923
119.8342, 1200.555
120.3163, 1231.704
120.7984, 1262.041
121.2805, 1291.558
121.7626, 1319.665
122.2448, 1345.349
122.7269, 1364.489
123.2090, 1382.740
123.6911, 1406.927
124.1732, 1439.211
124.6553, 1471.385
125.1375, 1493.612
125.6196, 1508.811
126.1017, 1526.215
126.5838, 1551.472
127.0659, 1582.606
127.5480, 1616.818
128.0302, 1654.964
128.5123, 1693.866
128.9944, 1727.395
129.4765, 1756.303
129.9586, 1787.608
130.4407, 1828.890
130.9229, 1877.563
131.4050, 1923.021
131.8871, 1960.955
132.3692, 1995.393
132.8513, 2034.118
133.3334, 2073.943
133.8156, 2107.646
134.2977, 2138.231
134.7798, 2172.820
135.2619, 2203.956
135.7440, 2229.720
136.2261, 2250.763
136.7083, 2271.704
137.1904, 2292.591
137.6725, 2313.707
138.1546, 2337.591
138.6367, 2366.267
139.1188, 2387.418
139.6010, 2396.115
140.0831, 2392.347
140.5652, 2393.067
141.0473, 2399.354
141.5294, 2408.442
142.0115, 2416.925
142.4937, 2425.059
142.9758, 2432.121
143.4579, 2438.317
143.9400, 2444.115
144.4221, 2446.110
144.9042, 2442.370
145.3864, 2435.864
145.8685, 2431.919
146.3506, 2432.678
146.8327, 2432.918
147.3148, 2431.088
147.7969, 2427.345
148.2791, 2421.272
148.7612, 2412.917
149.2433, 2402.364
149.7254, 2389.520
150.2075, 2373.929
150.6896, 2356.640
151.1718, 2337.921
151.6539, 2313.480
152.1360, 2293.849
152.6181, 2282.711
153.1002, 2277.032
153.5823, 2267.788
154.0645, 2251.825
154.5466, 2233.900
155.0287, 2216.219
155.5108, 2198.284
155.9929, 2181.067
156.4750, 2164.709
156.9572, 2149.156
157.4393, 2134.665
157.9214, 2120.923
158.4035, 2108.281
158.8856, 2096.913
159.3677, 2088.459
159.8499, 2079.632
160.3320, 2069.021
160.8141, 2057.037
161.2962, 2046.040
161.7783, 2036.573
162.2604, 2028.701
162.7426, 2022.474
163.2247, 2018.963
163.7068, 2016.172
164.1889, 2013.549
164.6710, 2011.064
165.1531, 2008.107
165.6353, 2003.950
166.1174, 1999.295
166.5995, 1994.899
167.0816, 1990.615
167.5637, 1986.942
168.0458, 1984.248
168.5280, 1982.544
169.0101, 1981.373
169.4922, 1982.110
169.9743, 1982.896
170.4564, 1981.120
170.9385, 1971.898
171.4207, 1961.933
171.9028, 1958.724
172.3849, 1962.915
172.8670, 1965.942
173.3491, 1959.990
173.8312, 1948.235
174.3134, 1936.693
174.7955, 1927.839
175.2776, 1920.887
175.7597, 1915.590
176.2418, 1912.136
176.7239, 1908.445
177.2061, 1902.994
177.6882, 1895.740
178.1703, 1886.688
178.6524, 1875.608
179.1345, 1862.688
179.6166, 1847.990
180.0988, 1831.113
180.5809, 1813.851
181.0630, 1798.933
181.5451, 1785.517
182.0272, 1770.879
182.5093, 1752.838
182.9915, 1732.374
183.4736, 1712.101
183.9557, 1691.970
184.4378, 1672.155
184.9199, 1652.632
185.4020, 1633.633
185.8842, 1614.234
186.3663, 1593.865
186.8484, 1572.719
187.3305, 1552.123
187.8126, 1531.812
188.2947, 1512.457
188.7769, 1495.880
189.2590, 1481.920
189.7411, 1467.203
190.2232, 1448.245
190.7053, 1426.109
191.1874, 1407.887
191.6696, 1395.193
192.1517, 1384.251
192.6338, 1367.333
193.1159, 1344.247
193.5980, 1320.509
194.0801, 1299.251
194.5623, 1280.419
195.0444, 1261.948
195.5265, 1243.641
196.0086, 1225.833
196.4907, 1209.503
196.9728, 1194.794
197.4550, 1180.281
197.9371, 1164.552
198.4192, 1147.551
198.9013, 1132.896
199.3834, 1121.632
199.8655, 1112.174
200.3477, 1100.352
200.8298, 1085.810
201.3119, 1070.577
201.7940, 1054.905
202.2761, 1038.481
202.7582, 1025.410
203.2404, 1016.790
203.7225, 1011.197
204.2046, 1004.912
204.6867, 997.9403
205.1688, 990.2557
205.6509, 981.7560
206.1331, 972.2587
206.6152, 962.8433
207.0973, 953.4440
207.5794, 944.2628
208.0615, 935.7757
208.5436, 927.7708
209.0258, 920.9793
209.5079, 916.2609
209.9900, 914.1647
210.4721, 911.7679
210.9542, 909.3136
211.4363, 906.2330
211.9185, 900.1229
212.4006, 889.6840
212.8827, 878.9308
213.3648, 870.3209
213.8469, 863.8136
214.3290, 859.3151
214.8112, 857.5375
215.2933, 857.6091
215.7754, 856.2914
216.2575, 853.0863
216.7396, 849.4067
217.2217, 845.9938
217.7039, 842.7487
218.1860, 840.2672
218.6681, 839.4170
219.1502, 839.2576
219.6323, 835.8378
220.1144, 827.2070
220.5966, 818.7272
221.0787, 813.6525
221.5608, 813.1400
222.0429, 813.0625
222.5250, 813.8353
223.0071, 814.8256
223.4893, 813.5903
223.9714, 809.4813
224.4535, 804.1877
224.9356, 797.9693
225.4177, 788.8439
225.8998, 783.9670
226.3820, 785.3120
226.8641, 790.9395
227.3462, 793.9883
227.8283, 793.0773
228.3104, 791.6869
228.7925, 791.7625
229.2747, 794.5404
229.7568, 795.9427
230.2389, 795.5592
230.7210, 793.7559
231.2031, 791.5950
231.6852, 788.6271
232.1674, 785.9598
232.6495, 784.1397
233.1316, 783.2786
233.6137, 783.0691
234.0958, 783.8575
234.5779, 785.2270
235.0601, 786.1771
235.5422, 787.5292
236.0243, 787.2880
236.5064, 783.9636
236.9885, 774.2896
237.4706, 768.9348
237.9528, 769.4838
238.4349, 773.9988
238.9170, 777.9915
239.3991, 782.4206
239.8812, 784.8800
240.3633, 783.6235
240.8455, 775.3512
241.3276, 771.7898
241.8097, 775.1481
242.2918, 782.4429
242.7739, 787.0401
243.2560, 787.3314
243.7382, 787.4138
244.2203, 788.8607
244.7024, 792.1868
245.1845, 795.5826
245.6666, 799.8983
246.1487, 803.8734
246.6309, 804.6678
247.1130, 799.4032
247.5951, 795.7126
248.0772, 797.1970
248.5593, 806.5253
249.0414, 810.7960
249.5236, 806.5283
250.0057, 799.3873
250.4878, 799.2123
250.9699, 810.1238
251.4520, 820.6750
251.9341, 826.8640
252.4163, 827.6219
252.8984, 829.5213
253.3805, 833.0153
253.8626, 837.3304
254.3447, 841.1436
254.8268, 843.9923
255.3090, 847.3651
255.7911, 851.4225
256.2732, 856.0377
256.7553, 862.8405
257.2374, 873.4020
257.7195, 884.6357
258.2017, 892.2007
258.6838, 893.6527
259.1659, 897.2467
259.6480, 905.8504
260.1301, 919.6525
260.6122, 931.1475
261.0944, 939.2694
261.5765, 946.4606
262.0586, 955.2188
262.5407, 965.5791
263.0228, 977.3880
263.5049, 990.8167
263.9871, 1005.912
264.4692, 1020.497
264.9513, 1034.096
265.4334, 1048.156
265.9155, 1064.580
266.3976, 1083.798
266.8798, 1102.783
267.3619, 1120.135
267.8440, 1136.534
268.3261, 1156.417
268.8082, 1180.397
269.2903, 1206.447
269.7725, 1233.177
270.2546, 1260.523
270.7367, 1287.093
271.2188, 1311.814
271.7009, 1335.466
272.1830, 1362.470
272.6652, 1393.600
273.1473, 1425.401
273.6294, 1454.977
274.1115, 1481.289
274.5936, 1512.083
275.0757, 1549.438
275.5579, 1591.100
276.0400, 1629.220
276.5221, 1662.948
277.0042, 1696.488
277.4863, 1732.165
277.9684, 1770.041
278.4506, 1808.877
278.9327, 1848.330
279.4148, 1889.019
279.8969, 1932.890
280.3790, 1980.392
280.8611, 2027.976
281.3433, 2073.518
281.8254, 2117.241
282.3075, 2161.441
282.7896, 2206.104
283.2717, 2252.110
283.7538, 2301.243
284.2360, 2353.600
284.7181, 2406.921
285.2002, 2462.527
285.6823, 2519.463
286.1644, 2568.107
286.6465, 2606.875
287.1287, 2641.420
287.6108, 2680.990
288.0929, 2724.911
288.5750, 2760.888
289.0571, 2782.243
289.5392, 2792.000
290.0214, 2801.951
290.5035, 2812.391
290.9856, 2820.428
291.4677, 2822.804
291.9498, 2819.912
292.4319, 2813.757
292.9141, 2802.307
293.3962, 2789.422
293.8783, 2785.363
294.3604, 2790.286
294.8425, 2796.944
295.3246, 2795.044
295.8068, 2789.095
296.2889, 2794.415
296.7710, 2816.497
297.2531, 2849.509
297.7352, 2882.833
298.2173, 2916.993
298.6995, 2958.275
299.1816, 3010.038
299.6637, 3072.142
300.1458, 3143.710
300.6279, 3226.410
301.1100, 3315.826
301.5922, 3403.400
302.0743, 3491.264
302.5564, 3587.738
303.0385, 3701.751
303.5206, 3826.431
304.0027, 3953.454
304.4849, 4079.373
304.9670, 4212.242
305.4491, 4360.709
305.9312, 4520.936
306.4133, 4683.786
306.8954, 4845.062
307.3776, 5006.907
307.8597, 5167.616
308.3418, 5328.253
308.8239, 5492.687
309.3060, 5661.157
309.7881, 5837.565
310.2703, 6022.426
310.7524, 6217.770
311.2345, 6422.833
311.7166, 6636.137
312.1987, 6857.549
312.6808, 7083.419
313.1630, 7310.934
313.6451, 7544.224
314.1272, 7789.823
314.6093, 8055.917
315.0914, 8325.580
315.5735, 8588.178
316.0557, 8844.632
316.5378, 9100.131
317.0199, 9362.287
317.5020, 9620.090
317.9841, 9871.961
318.4662, 10132.11
318.9484, 10355.93
319.4305, 10527.23
319.9126, 10650.81
320.3947, 10739.18
320.8768, 10810.46
321.3589, 10836.65
321.8411, 10802.71
322.3232, 10701.04
322.8053, 10553.97
323.2874, 10357.33
323.7695, 10119.38
324.2516, 9853.186
324.7338, 9543.510
325.2159, 9221.714
325.6980, 8894.049
326.1801, 8556.693
326.6622, 8227.716
327.1443, 7901.444
327.6265, 7584.892
328.1086, 7284.090
328.5907, 7002.049
329.0728, 6736.097
329.5549, 6489.066
330.0370, 6260.139
330.5192, 6036.303
331.0013, 5810.632
331.4834, 5594.269
331.9655, 5393.192
332.4476, 5214.212
332.9297, 5037.807
333.4119, 4861.370
333.8940, 4686.692
334.3761, 4523.950
334.8582, 4377.227
335.3403, 4241.329
335.8224, 4114.436
336.3046, 3995.988
336.7867, 3887.538
337.2688, 3789.556
337.7509, 3700.445
338.2330, 3613.407
338.7151, 3526.360
339.1973, 3449.892
339.6794, 3387.535
340.1615, 3339.989
340.6436, 3303.458
341.1257, 3279.670
341.6078, 3264.014
342.0900, 3248.374
342.5721, 3232.008
343.0542, 3229.925
343.5363, 3249.838
344.0184, 3287.311
344.5005, 3322.530
344.9827, 3354.126
345.4648, 3391.482
345.9469, 3443.162
346.4290, 3508.879
346.9111, 3580.273
347.3932, 3655.984
347.8754, 3736.825
348.3575, 3825.965
348.8396, 3922.099
349.3217, 4015.891
349.8038, 4103.825
350.2859, 4183.671
350.7681, 4250.422
351.2502, 4303.593
351.7323, 4342.954
352.2144, 4370.928
352.6965, 4385.608
353.1786, 4380.334
353.6608, 4348.555
354.1429, 4296.690
354.6250, 4230.304
355.1071, 4149.544
355.5892, 4060.687
356.0714, 3962.966
356.5535, 3861.536
357.0356, 3763.912
357.5177, 3670.388
357.9998, 3583.269
358.4819, 3506.615
358.9641, 3439.548
359.4462, 3379.363
359.9283, 3323.468
360.4104, 3274.414
360.8925, 3235.295
361.3746, 3212.307
361.8568, 3189.656
362.3389, 3162.317
362.8210, 3130.686
363.3031, 3095.099
363.7852, 3060.588
364.2673, 3018.194
364.7495, 2964.027
365.2316, 2897.530
365.7137, 2819.480
366.1958, 2726.936
366.6779, 2624.825
367.1600, 2518.087
367.6422, 2401.188
368.1243, 2286.087
368.6064, 2173.870
369.0885, 2064.093
369.5706, 1961.770
370.0527, 1866.932
370.5349, 1778.936
371.0170, 1696.102
371.4991, 1618.424
371.9812, 1547.357
372.4633, 1482.817
372.9454, 1424.750
373.4276, 1375.137
373.9097, 1337.695
374.3918, 1301.246
374.8739, 1260.120
375.3560, 1210.810
375.8381, 1170.947
376.3203, 1142.898
376.8024, 1121.759
377.2845, 1100.630
377.7666, 1079.531
378.2487, 1059.079
378.7308, 1039.368
379.2130, 1020.489
379.6951, 1005.825
380.1772, 995.9240
380.6593, 986.7406
381.1414, 973.1532
381.6235, 955.9940
382.1057, 942.1074
382.5878, 933.6208
383.0699, 928.3143
383.5520, 922.7404
384.0341, 916.8042
384.5162, 910.0555
384.9984, 900.6891
385.4805, 890.4404
385.9626, 882.8348
386.4447, 878.2215
386.9268, 876.2343
387.4089, 878.8552
387.8911, 883.8916
388.3732, 886.3512
388.8553, 880.6957
389.3374, 873.5250
389.8195, 871.2121
390.3016, 873.6825
390.7838, 877.8981
391.2659, 882.8993
391.7480, 888.2758
392.2301, 893.6190
392.7122, 898.8960
393.1943, 904.0241
393.6765, 909.3081
394.1586, 914.4618
394.6407, 918.5618
395.1228, 920.1804
395.6049, 921.6052
396.0870, 924.3117
396.5692, 929.2614
397.0513, 932.8446
397.5334, 933.5767
398.0155, 932.8339
398.4976, 932.3330
398.9797, 932.0358
399.4619, 932.1847
399.9440, 931.8243
400.4261, 930.9598
400.9082, 934.4557
401.3903, 945.5213
401.8724, 957.8698
402.3546, 967.6047
402.8367, 973.8625
403.3188, 978.8534
403.8009, 981.1813
404.2830, 982.9686
404.7651, 990.0865
405.2473, 1003.859
405.7294, 1018.991
406.2115, 1033.596
406.6936, 1047.544
407.1757, 1061.576
407.6578, 1076.038
408.1400, 1089.763
408.6221, 1100.525
409.1042, 1108.440
409.5863, 1119.081
410.0684, 1135.444
410.5505, 1154.250
411.0327, 1169.228
411.5148, 1180.412
411.9969, 1187.529
412.4790, 1190.740
412.9611, 1189.820
413.4432, 1184.115
413.9254, 1173.325
414.4075, 1158.406
414.8896, 1139.913
415.3717, 1118.073
415.8538, 1093.448
416.3359, 1065.223
416.8181, 1035.186
417.3002, 1005.039
417.7823, 974.4641
418.2644, 944.3506
418.7465, 914.3726
419.2286, 884.7079
419.7108, 855.7988
420.1929, 826.3577
420.6750, 799.0287
421.1571, 776.1260
421.6392, 756.0551
422.1213, 735.2862
422.6035, 710.2166
423.0856, 686.6039
423.5677, 667.0505
424.0498, 653.1377
424.5319, 638.8472
425.0140, 622.5954
425.4962, 606.1876
425.9783, 591.3321
426.4604, 577.6917
426.9425, 566.2138
427.4246, 558.0889
427.9067, 552.5726
428.3889, 544.7275
428.8710, 533.3112
429.3531, 521.7999
429.8352, 511.9216
430.3173, 503.9830
430.7994, 496.8893
431.2816, 490.7709
431.7637, 485.2292
432.2458, 479.9649
432.7279, 475.0192
433.2100, 469.5136
433.6921, 462.7591
434.1743, 455.2290
434.6564, 448.9407
435.1385, 443.8382
435.6206, 439.1129
436.1027, 433.9000
436.5848, 428.5029
437.0670, 423.8473
437.5491, 420.2899
438.0312, 417.0495
438.5133, 413.2366
438.9954, 408.9835
439.4775, 404.6484
439.9597, 400.4297
440.4418, 396.2126
440.9239, 391.4745
441.4060, 386.1882
441.8881, 382.0679
442.3702, 381.6750
442.8524, 382.2448
443.3345, 381.0764
443.8166, 375.6124
444.2987, 370.4669
444.7808, 367.9023
445.2629, 366.8400
445.7451, 364.1027
446.2272, 356.3713
446.7093, 349.2468
447.1914, 344.9864
447.6735, 344.4230
448.1556, 344.3477
448.6378, 346.0504
449.1199, 347.3766
449.6020, 345.7616
450.0841, 338.9170
450.5662, 334.1342
451.0483, 333.3676
451.5305, 335.4589
452.0126, 335.0789
452.4947, 331.6131
452.9768, 327.5649
453.4589, 324.2894
453.9410, 321.7824
454.4232, 319.0119
454.9053, 315.8340
455.3874, 312.6446
455.8695, 309.7653
456.3516, 307.2157
456.8337, 305.3104
457.3159, 304.5772
457.7980, 304.1596
458.2801, 302.2319
458.7622, 299.0112
459.2443, 295.9374
459.7264, 294.6357
460.2086, 293.8514
460.6907, 291.5128
461.1728, 286.8261
461.6549, 282.9822
462.1370, 283.3744
462.6191, 285.8873
463.1013, 287.4194
463.5834, 286.2632
464.0655, 284.3984
464.5476, 282.5907
465.0297, 280.8405
465.5118, 278.8837
465.9940, 276.2873
466.4761, 273.7621
466.9582, 271.7520
467.4403, 270.7807
467.9224, 269.4031
468.4045, 267.5947
468.8867, 265.3761
469.3688, 262.5748
469.8509, 258.2845
470.3330, 255.1920
470.8151, 254.2406
471.2972, 255.1930
471.7794, 255.4409
472.2615, 254.6840
472.7436, 254.0556
473.2257, 254.8073
473.7078, 256.9868
474.1899, 257.3428
474.6721, 255.2744
475.1542, 252.3285
475.6363, 251.0716
476.1184, 251.1759
476.6005, 250.5030
477.0826, 247.4726
477.5648, 243.5858
478.0469, 241.1865
478.5290, 240.2099
479.0111, 240.0709
479.4932, 241.4770
479.9753, 243.0083
480.4575, 242.6180
480.9396, 239.2407
481.4217, 236.2700
481.9038, 236.9143
482.3859, 239.0747
482.8680, 239.6567
483.3502, 235.2580
483.8323, 231.4229
484.3144, 230.8581
484.7965, 233.3210
485.2786, 234.4853
485.7607, 232.3437
486.2429, 229.8148
486.7250, 228.4188
487.2071, 229.0798
487.6892, 228.8687
488.1713, 227.1892
488.6534, 225.0593
489.1356, 224.0044
489.6177, 224.3874
490.0998, 224.7995
490.5819, 224.9337
491.0640, 224.8332
491.5461, 224.5599
492.0283, 224.0391
492.5104, 223.9000
492.9925, 225.5467
493.4746, 228.2621
493.9567, 227.6676
494.4388, 222.9604
494.9210, 217.5536
495.4031, 215.3122
495.8852, 215.4031
496.3673, 215.7097
496.8494, 215.7873
497.3315, 215.4120
497.8137, 213.8871
498.2958, 211.5514
498.7779, 209.8708
499.2600, 210.0274
499.7421, 210.8053
500.2242, 211.4647
500.7064, 211.9757
501.1885, 212.1030
501.6706, 211.8276
502.1527, 211.1187
502.6348, 209.9433
503.1169, 207.4545
503.5991, 205.5174
504.0812, 204.5141
504.5633, 204.2361
505.0454, 203.9279
505.5275, 203.6818
506.0096, 203.2531
506.4918, 202.4952
506.9739, 201.3644
507.4560, 200.3370
507.9381, 199.4123
508.4202, 198.5896
508.9023, 197.7810
509.3845, 197.0072
509.8666, 196.7122
510.3487, 197.1332
510.8308, 197.7849
511.3129, 198.0283
511.7950, 197.8416
512.2772, 197.1187
512.7593, 195.5362
513.2414, 193.5310
513.7235, 191.3177
514.2056, 188.9523
514.6877, 187.2618
515.1699, 187.1706
515.6520, 187.7888
516.1341, 188.4058
516.6162, 189.2927
517.0983, 189.3186
517.5804, 187.3451
518.0626, 184.4276
518.5447, 182.2978
519.0268, 181.5519
519.5089, 181.2900
519.9910, 181.4788
520.4731, 182.0774
520.9553, 182.4529
521.4374, 182.5124
521.9195, 182.4845
522.4016, 182.5305
522.8837, 182.7148
523.3658, 182.6703
523.8480, 182.4318
524.3301, 181.8881
524.8122, 180.6077
525.2943, 178.6724
525.7764, 177.3142
526.2585, 176.8818
526.7407, 177.2016
527.2228, 178.6066
527.7049, 180.7868
528.1870, 181.9057
528.6691, 179.6870
529.1512, 176.4111
529.6334, 174.9484
530.1155, 175.5391
530.5976, 176.1532
531.0797, 175.4444
531.5618, 174.2136
532.0439, 173.2577
532.5261, 172.8645
533.0082, 172.6120
533.4903, 172.4917
533.9724, 172.4244
534.4545, 172.2346
534.9366, 171.5757
535.4188, 171.1784
535.9009, 171.2654
536.3830, 171.8270
536.8651, 172.4382
537.3472, 173.2125
537.8293, 173.8195
538.3115, 174.1448
538.7936, 174.2271
539.2757, 173.2792
539.7578, 170.8970
540.2399, 168.5437
540.7220, 168.5971
541.2042, 170.6278
541.6863, 172.1839
542.1684, 172.4993
542.6505, 171.9900
543.1326, 170.8716
543.6147, 169.3434
544.0969, 168.1459
544.5790, 167.8981
545.0611, 168.0641
545.5432, 168.3360
546.0253, 168.7012
546.5074, 168.7954
546.9896, 168.3239
547.4717, 167.5940
547.9538, 166.8469
548.4359, 165.9207
548.9180, 165.2630
549.4001, 165.1876
549.8823, 165.3121
550.3644, 164.9415
550.8465, 163.6836
551.3286, 162.6865
551.8107, 162.3834
552.2928, 162.6213
552.7750, 162.1422
553.2571, 160.7688
553.7392, 159.5418
554.2213, 159.1024
554.7034, 159.3934
555.1855, 160.3868
555.6677, 162.2354
556.1498, 163.6255
556.6319, 162.4766
557.1140, 159.9049
557.5961, 158.2864
558.0782, 158.7471
558.5604, 159.6099
559.0425, 159.2587
559.5246, 158.2763
560.0067, 157.9665
560.4888, 159.9770
560.9709, 161.7692
561.4531, 161.9230
561.9352, 160.4030
562.4173, 159.2650
562.8994, 158.8264
563.3815, 158.8143
563.8636, 159.1768
564.3458, 160.2290
564.8279, 160.7917
565.3100, 160.7789
565.7921, 160.3955
566.2742, 159.6032
566.7563, 158.2406
567.2385, 158.2193
567.7206, 160.5680
568.2027, 163.7124
568.6848, 163.4939
569.1669, 160.4014
569.6490, 158.1116
570.1312, 159.7928
570.6133, 162.9001
571.0954, 163.3543
571.5775, 161.2533
572.0596, 159.3850
572.5417, 159.7712
573.0239, 161.0365
573.5060, 162.0527
573.9881, 162.6740
574.4702, 162.9134
574.9523, 162.1669
575.4344, 161.2660
575.9166, 161.2826
576.3987, 163.6001
576.8808, 165.0538
577.3629, 164.8415
577.8450, 163.5811
578.3271, 163.4974
578.8093, 165.1516
579.2914, 166.2634
579.7735, 165.3349
580.2556, 162.8399
580.7377, 162.7946
581.2198, 165.3964
581.7020, 168.3185
582.1841, 169.9292
582.6662, 170.3661
583.1483, 169.6650
583.6304, 167.6130
584.1125, 165.6747
584.5947, 165.1247
585.0768, 165.5299
585.5589, 166.2705
586.0410, 167.6720
586.5231, 168.7697
587.0052, 168.7553
587.4874, 168.1036
587.9695, 168.0817
588.4516, 169.6514
588.9337, 171.1488
589.4158, 172.1557
589.8979, 172.6725
590.3801, 172.7348
590.8622, 171.9303
591.3443, 171.3963
591.8264, 172.0983
592.3085, 174.1617
592.7906, 175.4163
593.2728, 175.7096
593.7549, 175.4846
594.2370, 174.8103
594.7191, 173.9682
595.2012, 174.1715
595.6833, 176.0833
596.1655, 178.4079
596.6476, 180.1293
597.1297, 181.1553
597.6118, 181.3161
598.0939, 179.1382
598.5760, 177.3188
599.0582, 177.7225
599.5403, 180.1236
600.0224, 182.1424
600.5045, 183.2772
600.9866, 183.8802
601.4688, 184.0470
601.9509, 183.6419
602.4330, 183.3770
602.9151, 183.1000
603.3972, 183.1800
603.8793, 184.1808
604.3615, 186.2539
604.8436, 187.5828
605.3257, 187.7904
605.8078, 187.5415
606.2899, 187.7912
606.7720, 188.4810
607.2542, 189.3263
607.7363, 190.1270
608.2184, 191.1258
608.7005, 192.8806
609.1826, 195.1422
609.6647, 196.9821
610.1469, 197.5026
610.6290, 197.8356
611.1111, 198.8473
611.5932, 200.6360
612.0753, 201.8092
612.5574, 201.5264
613.0396, 201.0015
613.5217, 200.9787
614.0038, 201.8631
614.4859, 202.0775
614.9680, 201.0683
615.4501, 200.1331
615.9323, 201.1223
616.4144, 204.1546
616.8965, 206.6996
617.3786, 208.2384
617.8607, 209.1325
618.3428, 210.1057
618.8250, 211.0193
619.3071, 211.2898
619.7892, 209.6781
620.2713, 207.9837
620.7534, 208.3177
621.2355, 210.2971
621.7177, 212.1302
622.1998, 212.6728
622.6819, 213.0517
623.1640, 213.9745
623.6461, 215.6063
624.1282, 217.0533
624.6104, 218.8393
625.0925, 219.8977
625.5746, 219.1842
626.0567, 215.1655
626.5388, 214.0750
627.0209, 217.0490
627.5031, 221.2625
627.9852, 222.6583
628.4673, 221.3696
628.9494, 220.3717
629.4315, 220.3525
629.9136, 220.9608
630.3958, 221.9148
630.8779, 223.0799
631.3600, 224.0414
631.8421, 224.4570
632.3242, 224.7103
632.8063, 224.9012
633.2885, 225.1158
633.7706, 225.7811
634.2527, 228.2030
634.7348, 230.1189
635.2169, 230.1301
635.6990, 227.7312
636.1812, 226.2883
636.6633, 226.1873
637.1454, 226.5529
637.6275, 226.7544
638.1096, 226.7268
638.5917, 226.9773
639.0739, 227.5308
639.5560, 228.3603
640.0381, 229.6016
640.5202, 231.1451
641.0023, 232.5804
641.4844, 234.0761
641.9666, 234.9010
642.4487, 233.5752
642.9308, 231.0365
643.4129, 229.3453
643.8950, 230.2285
644.3771, 231.3125
644.8593, 231.4994
645.3414, 230.9156
645.8235, 230.3624
646.3056, 229.5780
646.7877, 229.2733
647.2698, 229.8174
647.7520, 231.2527
648.2341, 232.5030
648.7162, 233.6921
649.1983, 234.3514
649.6804, 233.6695
650.1625, 231.8802
650.6447, 231.2291
651.1268, 231.8607
651.6089, 233.3665
652.0910, 235.9973
652.5731, 239.0465
653.0552, 241.1537
653.5374, 241.5248
654.0195, 242.0112
654.5016, 244.5553
654.9837, 247.7489
655.4658, 249.5404
655.9479, 247.2763
656.4301, 246.0245
656.9122, 247.7558
657.3943, 251.1803
657.8764, 252.5616
658.3585, 250.6518
658.8406, 249.6856
659.3228, 251.3558
659.8049, 255.0371
660.2870, 257.3584
660.7691, 258.2713
661.2512, 258.9603
661.7333, 259.8891
662.2155, 261.1920
662.6976, 263.4909
663.1797, 266.7535
663.6618, 269.5137
664.1439, 270.7049
664.6260, 270.9706
665.1082, 270.4557
665.5903, 268.4154
666.0724, 268.3385
666.5545, 272.7296
667.0366, 278.5331
667.5187, 282.9376
668.0009, 285.4678
668.4830, 287.5126
668.9651, 288.8210
669.4472, 290.0439
669.9293, 292.4498
670.4114, 296.0577
670.8936, 299.3069
671.3757, 301.8144
671.8578, 303.7055
672.3399, 304.6208
672.8220, 305.0129
673.3041, 306.4084
673.7863, 310.9933
674.2684, 315.6367
674.7505, 317.4402
675.2326, 317.0519
675.7147, 317.7964
676.1968, 321.8006
676.6790, 326.1609
677.1611, 329.5063
677.6432, 331.7959
678.1253, 334.4663
678.6074, 337.5670
679.0895, 340.9178
679.5717, 344.7228
680.0538, 349.0123
680.5359, 351.5185
681.0180, 352.0013
681.5001, 352.1855
681.9822, 353.4139
682.4644, 355.6419
682.9465, 358.9008
683.4286, 363.4162
683.9107, 368.1419
684.3928, 372.1325
684.8749, 376.0309
685.3571, 380.6719
685.8392, 388.0377
686.3213, 394.0294
686.8034, 397.0495
687.2855, 398.6746
687.7676, 401.3295
688.2498, 405.3141
688.7319, 409.7126
689.2140, 414.4393
689.6961, 419.4315
690.1782, 424.3834
690.6603, 429.3056
691.1425, 434.3479
691.6246, 440.1535
692.1067, 445.8294
692.5888, 448.8964
693.0709, 450.1935
693.5530, 453.4370
694.0352, 463.0378
694.5173, 473.2488
694.9994, 479.8368
695.4815, 482.4219
695.9636, 486.9973
696.4457, 495.9735
696.9279, 505.6441
697.4100, 514.3306
697.8921, 521.8262
698.3742, 529.4113
698.8563, 536.6965
699.3384, 545.2663
699.8206, 557.5323
700.3027, 572.4928
700.7848, 585.5511
701.2669, 595.9487
701.7490, 606.5659
702.2311, 620.6708
702.7133, 636.5294
703.1954, 651.7433
703.6775, 665.5588
704.1596, 679.0432
704.6417, 691.4586
705.1238, 704.3538
705.6060, 719.7721
706.0881, 738.6018
706.5702, 758.8427
707.0523, 781.1459
707.5344, 804.2488
708.0165, 824.3895
708.4987, 841.1167
708.9808, 860.6801
709.4629, 885.6296
709.9450, 913.5698
710.4271, 940.1175
710.9092, 965.6050
711.3914, 992.2784
711.8735, 1021.686
712.3556, 1051.928
712.8377, 1082.060
713.3198, 1112.214
713.8019, 1142.301
714.2841, 1172.397
714.7662, 1202.773
715.2483, 1233.570
715.7304, 1264.742
716.2125, 1295.250
716.6946, 1325.441
717.1768, 1354.617
717.6589, 1381.543
718.1410, 1406.797
718.6231, 1433.435
719.1052, 1461.841
719.5873, 1489.007
720.0695, 1515.445
720.5516, 1538.502
721.0337, 1554.836
721.5158, 1563.633
721.9979, 1568.373
722.4800, 1568.841
722.9622, 1567.145
723.4443, 1564.926
723.9264, 1562.448
724.4085, 1559.435
724.8906, 1557.186
725.3727, 1552.798
725.8549, 1542.482
726.3370, 1525.687
726.8191, 1509.514
727.3012, 1494.723
727.7833, 1481.542
728.2654, 1472.233
728.7476, 1464.916
729.2297, 1454.635
729.7118, 1438.058
730.1939, 1422.346
730.6760, 1413.003
731.1581, 1407.695
731.6403, 1402.654
732.1224, 1397.544
732.6045, 1391.942
733.0866, 1384.977
733.5687, 1377.840
734.0508, 1373.166
734.5330, 1371.404
735.0151, 1370.307
735.4972, 1369.408
735.9793, 1368.668
736.4614, 1367.749
736.9435, 1366.809
737.4257, 1366.643
737.9078, 1367.427
738.3899, 1369.338
738.8720, 1372.460
739.3541, 1376.814
739.8362, 1382.468
740.3184, 1389.298
740.8005, 1397.556
741.2826, 1408.140
741.7647, 1420.661
742.2468, 1431.328
742.7289, 1438.377
743.2111, 1447.885
743.6932, 1463.350
744.1753, 1483.726
744.6574, 1503.473
745.1395, 1522.436
745.6216, 1540.878
746.1038, 1556.593
746.5859, 1573.019
747.0680, 1594.563
747.5501, 1621.373
748.0322, 1649.473
748.5143, 1676.868
748.9965, 1705.127
749.4786, 1735.407
749.9607, 1768.141
750.4428, 1802.522
750.9249, 1839.783
751.4070, 1877.471
751.8892, 1912.868
752.3713, 1946.335
752.8534, 1982.389
753.3355, 2021.541
753.8176, 2062.567
754.2997, 2103.927
754.7819, 2146.515
755.2640, 2192.211
755.7461, 2240.859
756.2282, 2292.918
756.7103, 2349.892
757.1924, 2409.238
757.6746, 2467.769
758.1567, 2521.137
758.6388, 2582.282
759.1209, 2655.714
759.6030, 2732.319
760.0851, 2801.054
760.5673, 2861.999
761.0494, 2930.095
761.5315, 3007.483
762.0136, 3090.149
762.4957, 3173.370
762.9778, 3258.019
763.4600, 3347.187
763.9421, 3441.460
764.4242, 3539.159
764.9063, 3638.505
765.3884, 3741.092
765.8705, 3848.900
766.3527, 3964.611
766.8348, 4081.716
767.3169, 4199.250
767.7990, 4320.143
768.2811, 4450.644
768.7632, 4591.183
769.2454, 4732.534
769.7275, 4870.248
770.2096, 5010.909
770.6917, 5164.914
771.1738, 5327.620
771.6559, 5490.822
772.1381, 5642.552
772.6202, 5805.287
773.1023, 5997.997
773.5844, 6207.005
774.0665, 6406.487
774.5486, 6580.125
775.0308, 6763.959
775.5129, 6965.612
775.9950, 7178.733
776.4771, 7385.675
776.9592, 7587.914
777.4413, 7791.285
777.9235, 7998.580
778.4056, 8209.455
778.8877, 8426.509
779.3698, 8646.854
779.8519, 8863.840
780.3340, 9075.202
780.8162, 9278.680
781.2983, 9474.922
781.7804, 9663.602
782.2625, 9844.096
782.7446, 10015.69
783.2267, 10178.51
783.7089, 10333.74
784.1910, 10479.55
784.6731, 10611.63
785.1552, 10730.56
785.6373, 10840.79
786.1194, 10944.66
786.6016, 11038.69
787.0837, 11117.80
787.5658, 11181.66
788.0479, 11228.62
788.5300, 11252.55
789.0121, 11263.48
789.4943, 11263.48
789.9764, 11253.10
790.4585, 11234.54
790.9406, 11203.96
791.4227, 11172.99
791.9048, 11144.35
792.3870, 11117.97
792.8691, 11095.05
793.3512, 11075.10
793.8333, 11053.31
794.3154, 11025.73
794.7975, 10996.59
795.2797, 10968.49
795.7618, 10942.92
796.2439, 10925.86
796.7260, 10919.33
797.2081, 10922.01
797.6902, 10930.14
798.1724, 10946.74
798.6545, 10987.20
799.1366, 11058.85
799.6187, 11133.75
800.1008, 11198.78
800.5829, 11263.21
801.0651, 11358.46
801.5472, 11480.65
802.0293, 11608.63
802.5114, 11722.01
802.9935, 11842.30
803.4756, 11991.29
803.9578, 12163.34
804.4399, 12337.09
804.9220, 12494.08
805.4041, 12668.09
805.8862, 12870.42
806.3683, 13096.81
806.8505, 13330.40
807.3326, 13571.31
807.8147, 13822.63
808.2968, 14087.96
808.7789, 14365.21
809.2610, 14650.48
809.7432, 14943.77
810.2253, 15244.96
810.7074, 15557.04
811.1895, 15874.34
811.6716, 16192.33
812.1537, 16514.54
812.6359, 16854.19
813.1180, 17233.79
813.6001, 17602.77
814.0822, 17942.90
814.5643, 18267.80
815.0464, 18625.57
815.5286, 19015.54
816.0107, 19397.64
816.4928, 19753.24
816.9749, 20093.23
817.4570, 20433.71
817.9391, 20770.77
818.4213, 21103.60
818.9034, 21448.33
819.3855, 21766.80
819.8676, 22029.41
820.3497, 22249.06
820.8318, 22473.39
821.3140, 22718.57
821.7961, 22926.13
822.2782, 23086.43
822.7603, 23194.72
823.2424, 23242.36
823.7245, 23231.97
824.2067, 23180.81
824.6888, 23091.74
825.1709, 22970.01
825.6530, 22834.73
826.1351, 22667.39
826.6172, 22433.00
827.0994, 22082.59
827.5815, 21706.53
828.0636, 21326.84
828.5457, 20932.32
829.0278, 20484.79
829.5099, 19980.81
829.9921, 19458.67
830.4742, 18923.33
830.9563, 18384.80
831.4384, 17860.36
831.9205, 17340.56
832.4026, 16796.89
832.8848, 16192.88
833.3669, 15589.86
833.8490, 15012.90
834.3311, 14457.64
834.8132, 13917.98
835.2953, 13392.82
835.7775, 12882.01
836.2596, 12389.15
836.7417, 11911.23
837.2238, 11445.11
837.7059, 10985.62
838.1880, 10540.74
838.6702, 10108.14
839.1523, 9691.904
839.6344, 9295.574
840.1165, 8917.452
840.5986, 8561.905
841.0807, 8237.240
841.5629, 7921.745
842.0450, 7612.034
842.5271, 7312.027
843.0092, 7028.566
843.4913, 6763.931
843.9734, 6500.786
844.4556, 6234.773
844.9377, 5980.747
845.4198, 5760.783
845.9019, 5565.905
846.3840, 5372.083
846.8661, 5173.563
847.3483, 4982.882
847.8304, 4808.669
848.3125, 4644.576
848.7946, 4484.430
849.2767, 4327.013
849.7589, 4178.403
850.2410, 4038.695
850.7231, 3907.531
851.2052, 3785.257
851.6873, 3672.107
852.1694, 3563.863
852.6516, 3459.963
853.1337, 3358.296
853.6158, 3250.558
854.0979, 3147.025
854.5800, 3058.690
855.0621, 2988.718
855.5443, 2916.883
856.0264, 2837.597
856.5085, 2757.703
856.9906, 2680.216
857.4727, 2605.447
857.9548, 2536.248
858.4370, 2472.564
858.9191, 2412.960
859.4012, 2357.230
859.8833, 2303.598
860.3654, 2250.302
860.8475, 2197.170
861.3297, 2143.739
861.8118, 2083.926
862.2939, 2028.767
862.7760, 1985.339
863.2581, 1952.154
863.7402, 1916.994
864.2224, 1879.529
864.7045, 1841.680
865.1866, 1804.172
865.6687, 1766.805
866.1508, 1728.841
866.6329, 1690.863
867.1151, 1656.901
867.5972, 1632.940
868.0793, 1609.749
868.5614, 1580.048
869.0435, 1546.458
869.5256, 1518.593
870.0078, 1501.191
870.4899, 1481.858
870.9720, 1457.449
871.4541, 1430.464
871.9362, 1406.371
872.4183, 1384.807
872.9005, 1362.637
873.3826, 1338.178
873.8647, 1314.325
874.3468, 1294.443
874.8289, 1276.795
875.3110, 1259.003
875.7932, 1240.412
876.2753, 1221.845
876.7574, 1202.772
877.2395, 1184.378
877.7216, 1168.844
878.2037, 1156.600
878.6859, 1139.742
879.1680, 1116.416
879.6501, 1092.801
880.1322, 1074.836
880.6143, 1060.918
881.0964, 1049.260
881.5786, 1040.125
882.0607, 1030.405
882.5428, 1018.717
883.0249, 1006.221
883.5070, 993.9495
883.9891, 982.0347
884.4713, 968.9351
884.9534, 954.5297
885.4355, 940.0989
885.9176, 926.0402
886.3997, 912.8528
886.8818, 902.6732
887.3640, 895.1891
887.8461, 886.4909
888.3282, 872.3849
888.8103, 858.4543
889.2924, 848.4572
889.7745, 842.1218
890.2567, 834.0625
890.7388, 823.4830
891.2209, 813.8166
891.7030, 806.8124
892.1851, 801.4266
892.6672, 795.4810
893.1494, 788.6896
893.6315, 779.9994
894.1136, 764.6832
894.5957, 751.4069
895.0778, 747.9243
895.5599, 750.0073
896.0421, 746.5403
896.5242, 733.3701
897.0063, 722.2443
897.4884, 715.4932
897.9705, 711.1208
898.4526, 705.6777
898.9348, 699.5002
899.4169, 694.4460
899.8990, 691.5522
900.3811, 687.9971
900.8632, 679.9005
901.3453, 670.6168
901.8275, 663.9375
902.3096, 662.7399
902.7917, 660.6559
903.2738, 657.9962
903.7559, 653.8241
904.2380, 646.5607
904.7202, 636.5701
905.2023, 627.3251
905.6844, 619.0875
906.1665, 613.4807
906.6486, 614.9460
907.1307, 617.6649
907.6129, 615.9150
908.0950, 608.9052
908.5771, 602.2225
909.0592, 596.2105
909.5413, 591.2979
910.0234, 587.8296
910.5056, 585.6395
910.9877, 584.0497
911.4698, 582.9984
911.9519, 581.2691
912.4340, 578.0392
912.9161, 573.9005
913.3983, 568.8121
913.8804, 563.3247
914.3625, 559.0231
914.8446, 557.9537
915.3267, 555.9940
915.8088, 551.9677
916.2910, 547.0157
916.7731, 543.3481
917.2552, 540.9368
917.7373, 539.3028
918.2194, 538.6448
918.7015, 537.6689
919.1837, 534.6436
919.6658, 530.5482
920.1479, 526.8524
920.6300, 524.7754
921.1121, 521.0716
921.5942, 514.7938
922.0764, 507.3247
922.5585, 499.1497
923.0406, 490.1727
923.5227, 483.9985
924.0048, 480.9116
924.4869, 477.9797
924.9691, 472.5555
925.4512, 466.0819
925.9333, 459.9974
926.4154, 454.4037
926.8975, 449.5097
927.3796, 445.9022
927.8618, 442.4396
928.3439, 438.7424
928.8260, 434.8580
929.3081, 430.8736
929.7902, 426.7802
930.2723, 423.0481
930.7545, 420.3298
931.2366, 417.6003
931.7187, 412.8790
932.2008, 407.4012
932.6829, 403.7125
933.1650, 405.1964
933.6472, 404.9227
934.1293, 401.4634
934.6114, 396.4151
935.0935, 391.8371
935.5756, 387.6958
936.0577, 384.0572
936.5399, 380.9425
937.0220, 378.5045
937.5041, 377.7020
937.9862, 377.2865
938.4683, 375.6083
938.9504, 372.0345
939.4326, 369.2705
939.9147, 368.9637
940.3968, 368.0295
940.8789, 364.2445
941.3610, 357.9976
941.8431, 354.5364
942.3253, 353.7481
942.8074, 353.1919
943.2895, 351.3102
943.7716, 348.9616
944.2537, 346.6898
944.7358, 344.5838
945.2180, 342.8710
945.7001, 342.1679
946.1822, 341.0805
946.6643, 339.3276
947.1464, 337.0828
947.6285, 334.3179
948.1107, 331.2179
948.5928, 329.5418
949.0749, 330.2150
949.5570, 330.8215
950.0391, 329.4621
950.5212, 326.7078
951.0034, 323.0310
951.4855, 317.3521
951.9676, 313.5780
952.4497, 312.2400
952.9318, 311.9481
953.4139, 312.1245
953.8961, 312.5265
954.3782, 311.7155
954.8603, 309.6930
955.3424, 306.8841
955.8245, 302.3870
956.3066, 298.2390
956.7888, 296.0207
957.2709, 295.6117
957.7530, 295.4772
958.2351, 296.1235
958.7172, 295.5785
959.1993, 292.9424
959.6815, 289.2827
960.1636, 286.9996
960.6457, 285.6855
961.1278, 283.9933
961.6099, 281.0555
962.0920, 278.5104
962.5742, 277.8085
963.0563, 277.7075
963.5384, 276.7806
964.0205, 274.6812
964.5026, 272.5508
964.9847, 270.3012
965.4669, 268.4139
965.9490, 267.6636
966.4311, 267.5106
966.9132, 266.9771
967.3953, 265.9714
967.8774, 264.1656
968.3596, 259.8027
968.8417, 256.2364
969.3238, 255.6798
969.8059, 257.3367
970.2880, 257.7668
970.7701, 256.9280
971.2523, 255.0181
971.7344, 251.3727
972.2165, 247.9211
972.6986, 248.3579
973.1807, 250.8166
973.6628, 251.6504
974.1450, 248.4565
974.6271, 245.6956
975.1092, 244.2887
975.5913, 243.5395
976.0734, 243.0303
976.5555, 242.7840
977.0377, 241.7288
977.5198, 239.7903
978.0019, 237.8301
978.4840, 236.5903
978.9661, 235.6382
979.4482, 234.6702
979.9304, 233.6392
980.4125, 232.1429
980.8946, 229.0314
981.3767, 227.2651
981.8588, 228.2949
982.3409, 230.7751
982.8231, 230.8358
983.3052, 228.8304
983.7873, 226.5480
984.2694, 224.3536
984.7515, 222.5959
985.2336, 221.7841
985.7158, 221.4345
986.1979, 220.9077
986.6800, 219.9444
987.1621, 219.3277
987.6442, 219.1856
988.1263, 219.0270
988.6085, 218.4231
989.0906, 217.4628
989.5727, 216.1501
990.0548, 214.5645
990.5369, 213.5111
991.0190, 213.9900
991.5012, 214.5173
991.9833, 214.5093
992.4654, 213.9785
992.9475, 212.7738
993.4296, 210.8135
993.9117, 208.9770
994.3939, 207.3554
994.8760, 206.3530
995.3581, 207.3259
995.8402, 209.0273
996.3223, 209.3322
996.8044, 206.5852
997.2866, 204.9566
997.7687, 205.8941
998.2508, 207.0583
998.7329, 206.3869
999.2150, 204.0175
999.6971, 203.3263
1000.179, 204.2841
1000.661, 204.9173
1001.143, 202.7915
1001.626, 200.7358
1002.108, 201.5921
1002.590, 204.6550
1003.072, 205.9691
1003.554, 204.3238
1004.036, 203.4220
1004.518, 204.3589
1005.000, 205.7384
1005.483, 204.8692
1005.965, 202.5327
1006.447, 200.8744
1006.929, 200.5686
1007.411, 200.2491
1007.893, 198.6237
1008.375, 197.2560
1008.857, 197.4330
1009.339, 199.3158
1009.822, 200.4286
1010.304, 200.7107
1010.786, 200.8675
1011.268, 201.4559
1011.750, 202.0799
1012.232, 202.1658
1012.714, 201.8616
1013.196, 201.6036
1013.679, 201.7698
1014.161, 201.5909
1014.643, 200.6538
1015.125, 199.6979
1015.607, 200.2430
1016.089, 201.9062
1016.571, 201.9810
1017.053, 199.9068
1017.535, 198.1630
1018.018, 199.4008
1018.500, 201.1487
1018.982, 201.0746
1019.464, 198.9980
1019.946, 198.8496
1020.428, 201.3167
1020.910, 203.1314
1021.392, 202.4810
1021.875, 200.7784
1022.357, 201.0242
1022.839, 202.3845
1023.321, 202.8634
1023.803, 199.9892
1024.285, 198.6992
1024.767, 201.5307
1025.249, 205.3108
1025.731, 207.0302
1026.214, 206.6789
1026.696, 206.1039
1027.178, 205.3658
1027.660, 205.1527
1028.142, 206.4972
1028.624, 208.2050
1029.106, 209.4731
1029.588, 210.1867
1030.071, 209.9670
1030.553, 208.1565
1031.035, 207.0496
1031.517, 207.3525
1031.999, 208.3731
1032.481, 209.0637
1032.963, 209.4500
1033.445, 209.4261
1033.927, 208.6292
1034.410, 208.6841
1034.892, 211.6313
1035.374, 214.5433
1035.856, 215.1319
1036.338, 213.3241
1036.820, 213.0867
1037.302, 214.4522
1037.784, 215.8703
1038.266, 216.5476
1038.749, 216.6942
1039.231, 215.9919
1039.713, 214.9585
1040.195, 214.9123
1040.677, 217.3233
1041.159, 218.4014
1041.641, 217.3999
1042.123, 215.8551
1042.605, 215.8037
1043.088, 216.7102
1043.570, 216.7931
1044.052, 215.8687
1044.534, 215.6821
1045.016, 218.3695
1045.498, 220.8229
1045.980, 221.3307
1046.462, 220.2673
1046.945, 219.1205
1047.427, 217.8631
1047.909, 217.0359
1048.391, 216.6718
1048.873, 217.1560
1049.355, 220.2185
1049.837, 223.8293
1050.319, 225.1237
1050.802, 222.1060
1051.284, 220.0758
1051.766, 219.3645
1052.248, 219.0989
1052.730, 218.6809
1053.212, 218.2279
1053.694, 218.0948
1054.176, 218.2648
1054.658, 218.6600
1055.141, 219.4291
1055.623, 220.1940
1056.105, 220.7212
1056.587, 221.2237
1057.069, 222.0993
1057.551, 223.3651
1058.033, 224.5651
1058.515, 225.7402
1058.998, 225.9874
1059.480, 222.8756
1059.962, 219.6275
1060.444, 219.7743
1060.926, 223.6467
1061.408, 226.3193
1061.890, 227.6216
1062.372, 227.6189
1062.854, 225.8014
1063.337, 223.4963
1063.819, 223.2306
1064.301, 224.4637
1064.783, 226.1632
1065.265, 228.5241
1065.747, 230.1072
1066.229, 229.8932
1066.711, 229.3234
1067.193, 229.3567
1067.676, 229.9396
1068.158, 229.6610
1068.640, 228.6347
1069.122, 228.5355
1069.604, 231.3340
1070.086, 234.4529
1070.568, 236.3197
1071.050, 237.2374
1071.532, 238.0907
1072.015, 239.3195
1072.497, 238.6519
1072.979, 235.3262
1073.461, 232.4222
1073.943, 233.7533
1074.425, 237.2600
1074.907, 240.4820
1075.389, 243.1290
1075.872, 244.8629
1076.354, 244.9845
1076.836, 244.9784
1077.318, 245.0695
1077.800, 245.4355
1078.282, 246.9713
1078.764, 249.1945
1079.246, 250.2218
1079.729, 249.2617
1080.211, 248.1820
1080.693, 247.7842
1081.175, 247.8652
1081.657, 248.3039
1082.139, 249.0977
1082.621, 249.8513
1083.103, 250.5731
1083.585, 251.1334
1084.068, 251.4680
1084.550, 251.6085
1085.032, 251.7555
1085.514, 251.6863
1085.996, 250.8686
1086.478, 248.1754
1086.960, 247.4234
1087.442, 249.3287
1087.925, 251.2999
1088.407, 250.4642
1088.889, 248.2051
1089.371, 246.9940
1089.853, 246.8341
1090.335, 246.8996
1090.817, 247.1738
1091.299, 247.2650
1091.781, 247.0408
1092.264, 246.6399
1092.746, 246.2399
1093.228, 245.8762
1093.710, 245.7776
1094.192, 246.0103
1094.674, 246.2281
1095.156, 246.9018
1095.638, 246.8320
1096.120, 244.8778
1096.603, 241.3747
1097.085, 238.1210
1097.567, 235.0561
1098.049, 234.0141
1098.531, 236.5561
1099.013, 239.5004
1099.495, 239.5233
1099.977, 237.9470
1100.459, 236.2868
1100.942, 234.2782
1101.424, 234.1884
1101.906, 236.8101
1102.388, 238.7693
1102.870, 236.9638
1103.352, 233.5225
1103.834, 232.6899
1104.316, 233.7024
1104.799, 234.4341
1105.281, 234.1103
1105.763, 233.4412
1106.245, 232.3451
1106.727, 231.2367
1107.209, 230.7484
1107.691, 230.6723
1108.173, 230.0433
1108.656, 228.8516
1109.138, 227.8503
1109.620, 227.5358
1110.102, 227.4366
1110.584, 227.5847
1111.066, 227.6783
1111.548, 226.9066
1112.030, 225.2849
1112.512, 224.0257
1112.995, 223.3520
1113.477, 222.9451
1113.959, 222.3707
1114.441, 222.0538
1114.923, 222.5330
1115.405, 223.7845
1115.887, 224.7358
1116.369, 225.4246
1116.852, 225.6578
1117.334, 225.4325
1117.816, 224.5909
1118.298, 222.2598
1118.780, 219.4548
1119.262, 217.6280
1119.744, 217.2162
1120.226, 217.5839
1120.708, 218.9155
1121.191, 220.4749
1121.673, 222.2097
1122.155, 223.6517
1122.637, 223.5606
1123.119, 222.2771
1123.601, 220.7406
1124.083, 218.4719
1124.565, 217.1797
1125.047, 217.0081
1125.530, 217.9165
1126.012, 220.8547
1126.494, 225.0405
1126.976, 225.5394
1127.458, 222.6177
1127.940, 219.8317
1128.422, 219.1467
1128.904, 219.1134
1129.386, 219.3757
1129.869, 219.7240
1130.351, 219.8880
1130.833, 219.8661
1131.315, 219.6226
1131.797, 219.1465
1132.279, 218.5120
1132.761, 217.6062
1133.243, 216.7165
1133.726, 216.2360
1134.208, 215.9958
1134.690, 214.9843
1135.172, 213.0186
1135.654, 211.6268
1136.136, 211.1670
1136.618, 211.3525
1137.100, 212.4404
1137.583, 213.6369
1138.065, 214.3251
1138.547, 214.4652
1139.029, 212.3165
1139.511, 206.6699
1139.993, 202.9188
1140.475, 203.9487
1140.957, 206.7879
1141.439, 206.7102
1141.922, 205.0755
1142.404, 204.3891
1142.886, 206.2473
1143.368, 206.1299
1143.850, 202.8871
1144.332, 199.5518
1144.814, 197.9133
1145.296, 197.6085
1145.779, 198.4185
1146.261, 199.7673
1146.743, 199.9928
1147.225, 197.4413
1147.707, 195.0425
1148.189, 193.0923
1148.671, 191.5951
1149.153, 190.6542
1149.635, 190.1797
1150.118, 189.7176
1150.600, 189.2768
1151.082, 188.9880
1151.564, 189.6325
1152.046, 189.5378
1152.528, 187.5172
1153.010, 184.9225
1153.492, 183.4619
1153.974, 183.0897
1154.457, 183.5748
1154.939, 184.8764
1155.421, 185.7367
1155.903, 185.1942
1156.385, 184.0669
1156.867, 182.3693
1157.349, 180.5616
1157.831, 179.8468
1158.313, 180.2441
1158.796, 180.0987
1159.278, 179.0570
1159.760, 178.0714
1160.242, 178.2474
1160.724, 178.5686
1161.206, 178.0101
1161.688, 176.7319
1162.170, 176.1474
1162.653, 176.2801
1163.135, 176.9624
1163.617, 178.4022
1164.099, 179.5190
1164.581, 178.9093
1165.063, 177.5662
1165.545, 176.5634
1166.027, 176.0660
1166.510, 175.1909
1166.992, 173.8691
1167.474, 172.5204
1167.956, 171.2825
1168.438, 170.1512
1168.920, 168.6448
1169.402, 167.4322
1169.884, 167.7598
1170.366, 171.0281
1170.849, 171.4430
1171.331, 167.9555
1171.813, 165.3538
1172.295, 167.1721
1172.777, 170.6968
1173.259, 171.7688
1173.741, 171.1281
1174.223, 170.2056
1174.706, 169.3743
1175.188, 168.1107
1175.670, 166.0826
1176.152, 164.4559
1176.634, 164.6118
1177.116, 165.5143
1177.598, 164.9025
1178.080, 163.2400
1178.563, 161.9835
1179.045, 162.1792
1179.527, 161.8538
1180.009, 160.5833
1180.491, 159.3186
1180.973, 159.1473
1181.455, 159.5956
1181.937, 159.6720
1182.419, 159.3570
1182.901, 158.7684
1183.384, 157.1862
1183.866, 156.5240
1184.348, 157.4098
1184.830, 158.7255
1185.312, 159.2387
1185.794, 159.0323
1186.276, 158.1129
1186.758, 156.5560
1187.240, 155.1597
1187.723, 154.6245
1188.205, 153.7893
1188.687, 152.2226
1189.169, 150.4365
1189.651, 149.1578
1190.133, 148.3637
1190.615, 148.2664
1191.097, 148.8903
1191.580, 149.0120
1192.062, 147.2608
1192.544, 145.9530
1193.026, 145.9358
1193.508, 146.7103
1193.990, 147.6405
1194.472, 148.4375
1194.954, 147.7699
1195.437, 145.1944
1195.919, 143.1322
1196.401, 143.2553
1196.883, 143.4890
1197.365, 143.0643
1197.847, 142.0840
1198.329, 140.3601
1198.811, 138.2915
1199.293, 137.6123
1199.776, 139.1101
1200.258, 140.2883
1200.740, 139.9946
1201.222, 138.9995
1201.704, 137.4802
1202.186, 135.6617
1202.668, 134.4841
1203.150, 133.8626
1203.633, 133.5224
1204.115, 133.6004
1204.597, 133.2961
1205.079, 131.7175
1205.561, 130.1818
1206.043, 129.6154
1206.525, 129.7322
1207.007, 128.8560
1207.490, 127.2824
1207.972, 126.3989
1208.454, 127.4367
1208.936, 127.8645
1209.418, 125.8133
1209.900, 123.5228
1210.382, 122.6684
1210.864, 122.8945
1211.346, 121.3161
1211.828, 118.4244
1212.311, 116.7443
1212.793, 118.8437
1213.275, 120.1026
1213.757, 117.8208
1214.239, 115.0217
1214.721, 114.1155
1215.203, 114.7729
1215.685, 114.3397
1216.167, 113.0007
1216.650, 111.7384
1217.132, 110.8826
1217.614, 110.4034
1218.096, 110.5077
1218.578, 110.7522
1219.060, 111.0310
1219.542, 111.1773
1220.024, 109.4676
1220.507, 106.3271
1220.989, 104.2045
1221.471, 105.6512
1221.953, 106.4938
1222.435, 105.2689
1222.917, 103.3105
1223.399, 101.9707
1223.881, 101.0761
1224.364, 99.51707
1224.846, 97.46352
1225.328, 96.19897
1225.810, 96.97322
1226.292, 97.84917
1226.774, 98.60045
1227.256, 98.90517
1227.738, 98.18346
1228.220, 96.70560
1228.703, 95.45326
1229.185, 94.42497
1229.667, 93.22005
1230.149, 90.87955
1230.631, 89.50320
1231.113, 89.90887
1231.595, 90.82367
1232.077, 90.48778
1232.560, 89.37393
1233.042, 88.77330
1233.524, 88.74101
1234.006, 88.91142
1234.488, 90.02122
1234.970, 89.95155
1235.452, 88.00620
1235.934, 85.32732
1236.417, 83.25092
1236.899, 81.69570
1237.381, 80.48848
1237.863, 79.63588
1238.345, 79.25155
1238.827, 79.80120
1239.309, 80.22786
1239.791, 80.41953
1240.273, 80.30509
1240.755, 79.45145
1241.238, 78.36834
1241.720, 78.26886
1242.202, 79.12338
1242.684, 79.20113
1243.166, 77.56967
1243.648, 76.43768
1244.130, 76.31125
1244.612, 76.54202
1245.094, 76.29984
1245.577, 75.83892
1246.059, 75.54555
1246.541, 75.43903
1247.023, 75.34062
1247.505, 75.38606
1247.987, 74.92766
1248.469, 73.70706
1248.951, 72.38130
1249.434, 71.92982
1249.916, 71.77095
1250.398, 70.99368
1250.880, 69.64323
1251.362, 69.42049
1251.844, 70.76096
1252.326, 71.38627
1252.808, 70.64980
1253.291, 69.69098
1253.773, 69.89369
1254.255, 70.38081
1254.737, 70.28607
1255.219, 69.58447
1255.701, 68.83604
1256.183, 68.03426
1256.665, 67.15829
1257.147, 66.12941
1257.630, 65.47776
1258.112, 66.20043
1258.594, 67.09827
1259.076, 67.08216
1259.558, 66.32449
1260.040, 65.47551
1260.522, 64.54848
1261.004, 64.31187
1261.487, 65.06898
1261.969, 65.60343
1262.451, 64.32877
1262.933, 63.19036
1263.415, 63.85138
1263.897, 65.54945
1264.379, 65.50298
1264.861, 63.98461
1265.344, 63.03288
1265.826, 63.14655
1266.308, 63.39262
1266.790, 63.23912
1267.272, 63.06673
1267.754, 63.02587
1268.236, 63.12353
1268.718, 63.51927
1269.200, 64.07642
1269.682, 64.22004
1270.165, 63.78876
1270.647, 63.48806
1271.129, 64.07117
1271.611, 64.21411
1272.093, 63.38926
1272.575, 62.01626
1273.057, 60.46824
1273.539, 59.13299
1274.021, 59.32955
1274.504, 61.50401
1274.986, 62.00325
1275.468, 58.87376
1275.950, 56.92924
1276.432, 57.86254
1276.914, 60.06094
1277.396, 61.55958
1277.878, 62.38979
1278.361, 62.43400
1278.843, 61.63858
1279.325, 61.19678
1279.807, 61.36965
1280.289, 61.08712
1280.771, 59.90657
1281.253, 58.63424
1281.735, 58.12214
1282.218, 58.11210
1282.700, 58.44877
1283.182, 59.07500
1283.664, 59.43401
1284.146, 59.50558
1284.628, 59.54345
1285.110, 59.62283
1285.592, 59.61904
1286.074, 59.50263
1286.557, 59.17986
1287.039, 58.26806
1287.521, 57.11237
1288.003, 57.21352
1288.485, 58.44115
1288.967, 59.26388
1289.449, 59.33941
1289.931, 59.06020
1290.414, 58.35800
1290.896, 57.71890
1291.378, 57.46372
1291.860, 57.36650
1292.342, 56.49844
1292.824, 55.30215
1293.306, 55.65314
1293.788, 58.01093
1294.271, 59.54855
1294.753, 58.25506
1295.235, 57.12243
1295.717, 56.99265
1296.199, 57.31054
1296.681, 57.30094
1297.163, 56.98372
1297.645, 56.11976
1298.127, 54.69083
1298.609, 54.38293
1299.092, 55.93931
1299.574, 56.85483
1300.056, 56.38575
1300.538, 55.68176
1301.020, 56.28396
1301.502, 57.34169
1301.984, 57.90045
1302.466, 57.90509
1302.948, 57.88990
1303.431, 57.87893
1303.913, 57.69740
1304.395, 57.32187
##END=



