##NAMES=Vanadinite
##RRUFFID=R050171
##IDEAL CHEMISTRY=Pb^2+^_5_(V^5+^O_4_)_3_Cl
##LOCALITY=Hamburg mine, La Paz County, Arizona, USA
##OWNER=RRUFF
##SOURCE=Marcus Origlieri
##DESCRIPTION=Red prismatic hexagonal crystals
##STATUS=The identification of this mineral has been confirmed by X-ray diffraction and chemical analysis
##URL=rruff.info/R050171
##MEASURED CHEMISTRY=Pb_5.00_((V_0.89_As_0.11_)O_4_)_3_Cl_1.00_
93.46680, 3904.195
93.94891, 3884.257
94.43103, 3893.076
94.91315, 3902.354
95.39526, 3890.391
95.87738, 3858.352
96.35950, 3813.749
96.84161, 3756.712
97.32373, 3685.878
97.80585, 3606.678
98.28796, 3526.587
98.77008, 3446.544
99.25220, 3368.404
99.73431, 3294.280
100.2164, 3224.065
100.6985, 3150.183
101.1807, 3081.235
101.6628, 3015.575
102.1449, 2950.442
102.6270, 2883.410
103.1091, 2814.508
103.5912, 2748.265
104.0734, 2683.623
104.5555, 2621.102
105.0376, 2560.100
105.5197, 2500.659
106.0018, 2443.532
106.4839, 2389.339
106.9661, 2337.472
107.4482, 2289.466
107.9303, 2244.834
108.4124, 2202.629
108.8945, 2162.232
109.3766, 2123.614
109.8588, 2086.927
110.3409, 2052.541
110.8230, 2020.222
111.3051, 1991.581
111.7872, 1968.768
112.2693, 1949.332
112.7515, 1929.302
113.2336, 1907.576
113.7157, 1885.745
114.1978, 1865.453
114.6799, 1846.710
115.1620, 1829.145
115.6442, 1812.534
116.1263, 1796.833
116.6084, 1782.850
117.0905, 1769.804
117.5726, 1759.530
118.0547, 1754.213
118.5369, 1754.335
119.0190, 1756.262
119.5011, 1754.362
119.9832, 1745.619
120.4653, 1740.338
120.9474, 1740.270
121.4296, 1743.453
121.9117, 1748.594
122.3938, 1755.127
122.8759, 1762.914
123.3580, 1771.628
123.8401, 1782.775
124.3223, 1793.232
124.8044, 1802.595
125.2865, 1811.102
125.7686, 1818.825
126.2507, 1825.715
126.7328, 1831.965
127.2150, 1840.382
127.6971, 1851.061
128.1792, 1863.177
128.6613, 1877.372
129.1434, 1893.203
129.6255, 1908.394
130.1077, 1921.158
130.5898, 1931.536
131.0719, 1941.884
131.5540, 1952.175
132.0361, 1962.622
132.5182, 1973.672
133.0004, 1985.514
133.4825, 1997.228
133.9646, 2007.869
134.4467, 2017.856
134.9288, 2027.775
135.4109, 2038.410
135.8931, 2049.256
136.3752, 2058.606
136.8573, 2065.629
137.3394, 2072.001
137.8215, 2078.679
138.3036, 2085.566
138.7858, 2092.235
139.2679, 2098.575
139.7500, 2104.691
140.2321, 2109.647
140.7142, 2113.948
141.1963, 2116.630
141.6785, 2116.348
142.1606, 2113.511
142.6427, 2110.136
143.1248, 2108.928
143.6069, 2111.578
144.0890, 2112.538
144.5712, 2112.045
145.0533, 2110.111
145.5354, 2106.620
146.0175, 2101.580
146.4996, 2095.174
146.9817, 2087.608
147.4639, 2077.120
147.9460, 2068.342
148.4281, 2063.843
148.9102, 2060.428
149.3923, 2053.512
149.8744, 2040.919
150.3566, 2025.440
150.8387, 2013.790
151.3208, 2007.341
151.8029, 2000.099
152.2850, 1988.713
152.7671, 1974.482
153.2493, 1961.754
153.7314, 1952.220
154.2135, 1945.434
154.6956, 1940.081
155.1777, 1936.925
155.6598, 1933.469
156.1420, 1926.874
156.6241, 1916.930
157.1062, 1908.402
157.5883, 1905.309
158.0704, 1903.753
158.5525, 1900.276
159.0347, 1893.767
159.5168, 1885.854
159.9989, 1878.913
160.4810, 1873.219
160.9631, 1867.948
161.4452, 1862.604
161.9274, 1857.602
162.4095, 1853.145
162.8916, 1849.257
163.3737, 1846.290
163.8558, 1845.719
164.3379, 1851.924
164.8201, 1854.622
165.3022, 1850.730
165.7843, 1842.877
166.2664, 1834.080
166.7485, 1825.923
167.2306, 1818.633
167.7128, 1814.015
168.1949, 1815.381
168.6770, 1815.882
169.1591, 1814.321
169.6412, 1810.733
170.1233, 1805.259
170.6055, 1797.774
171.0876, 1788.303
171.5697, 1780.375
172.0518, 1775.701
172.5339, 1770.654
173.0160, 1763.906
173.4982, 1755.384
173.9803, 1745.082
174.4624, 1732.563
174.9445, 1717.956
175.4266, 1704.314
175.9087, 1692.409
176.3909, 1680.867
176.8730, 1669.061
177.3551, 1656.959
177.8372, 1643.488
178.3193, 1626.811
178.8014, 1607.904
179.2836, 1590.161
179.7657, 1576.383
180.2478, 1563.419
180.7299, 1545.576
181.2120, 1521.074
181.6941, 1496.584
182.1763, 1477.315
182.6584, 1461.259
183.1405, 1445.176
183.6226, 1427.368
184.1047, 1408.414
184.5868, 1390.110
185.0690, 1373.041
185.5511, 1355.836
186.0332, 1337.385
186.5153, 1318.386
186.9974, 1300.061
187.4795, 1283.496
187.9617, 1268.527
188.4438, 1253.356
188.9259, 1238.294
189.4080, 1222.572
189.8901, 1205.175
190.3722, 1186.883
190.8544, 1169.342
191.3365, 1154.198
191.8186, 1141.626
192.3007, 1128.151
192.7828, 1113.424
193.2649, 1098.070
193.7471, 1081.496
194.2292, 1064.366
194.7113, 1048.058
195.1934, 1033.978
195.6755, 1022.301
196.1576, 1011.610
196.6398, 1002.874
197.1219, 994.0199
197.6040, 984.0594
198.0861, 972.9922
198.5682, 961.1804
199.0503, 948.7960
199.5325, 935.5045
200.0146, 924.3327
200.4967, 916.4412
200.9788, 909.5682
201.4609, 902.0799
201.9430, 893.8459
202.4252, 886.0952
202.9073, 880.3888
203.3894, 877.0220
203.8715, 871.7275
204.3536, 862.6725
204.8357, 852.5573
205.3179, 843.8961
205.8000, 837.0023
206.2821, 830.9039
206.7642, 824.5926
207.2463, 818.1801
207.7284, 812.6350
208.2106, 808.4846
208.6927, 805.1934
209.1748, 802.2284
209.6569, 799.6914
210.1390, 796.8962
210.6211, 792.9362
211.1033, 788.2188
211.5854, 783.7062
212.0675, 779.9957
212.5496, 776.6924
213.0317, 772.6300
213.5138, 767.0777
213.9960, 762.2972
214.4781, 760.1737
214.9602, 759.7848
215.4423, 759.3101
215.9244, 757.7211
216.4065, 755.2887
216.8886, 753.1336
217.3708, 751.5674
217.8529, 749.7772
218.3350, 746.8826
218.8171, 743.5450
219.2992, 741.0780
219.7813, 740.7454
220.2635, 742.0735
220.7456, 741.6835
221.2277, 737.4519
221.7098, 734.0446
222.1919, 733.1276
222.6740, 734.0366
223.1562, 735.7273
223.6383, 737.8475
224.1204, 740.2028
224.6025, 740.2900
225.0846, 734.7904
225.5667, 730.3542
226.0489, 728.7516
226.5310, 729.2874
227.0131, 730.5976
227.4952, 731.8120
227.9773, 732.9250
228.4594, 733.9589
228.9416, 734.9105
229.4237, 735.7709
229.9058, 736.2573
230.3879, 736.6561
230.8700, 737.6396
231.3521, 739.8033
231.8343, 742.9690
232.3164, 744.1743
232.7985, 741.0076
233.2806, 738.6242
233.7627, 738.6788
234.2448, 740.5361
234.7270, 742.7630
235.2091, 744.4557
235.6912, 745.7100
236.1733, 747.4622
236.6554, 750.3463
237.1375, 752.9636
237.6197, 754.8621
238.1018, 756.1593
238.5839, 757.0581
239.0660, 757.5411
239.5481, 757.8272
240.0302, 759.1595
240.5124, 761.8698
240.9945, 765.0057
241.4766, 768.8195
241.9587, 772.8662
242.4408, 775.7759
242.9229, 776.4374
243.4051, 775.8630
243.8872, 777.4467
244.3693, 781.7542
244.8514, 786.9525
245.3335, 792.6783
245.8156, 798.7368
246.2978, 804.6548
246.7799, 810.4776
247.2620, 815.6826
247.7441, 819.1749
248.2262, 820.2585
248.7083, 821.3937
249.1905, 823.5082
249.6726, 826.6081
250.1547, 830.7223
250.6368, 835.8297
251.1189, 842.1779
251.6010, 850.2916
252.0832, 860.6890
252.5653, 870.4333
253.0474, 877.3032
253.5295, 881.9510
254.0116, 887.4612
254.4937, 894.6131
254.9759, 903.0953
255.4580, 912.4553
255.9401, 922.7269
256.4222, 933.1600
256.9043, 943.1664
257.3864, 952.8698
257.8686, 962.7736
258.3507, 972.3693
258.8328, 983.0878
259.3149, 996.1502
259.7970, 1011.353
260.2791, 1027.024
260.7613, 1041.975
261.2434, 1056.390
261.7255, 1071.528
262.2076, 1087.385
262.6897, 1104.218
263.1718, 1121.433
263.6540, 1139.419
264.1361, 1159.540
264.6182, 1183.537
265.1003, 1210.713
265.5824, 1237.524
266.0645, 1263.422
266.5467, 1289.442
267.0288, 1315.269
267.5109, 1341.572
267.9930, 1369.645
268.4751, 1400.648
268.9572, 1434.029
269.4394, 1467.813
269.9215, 1503.021
270.4036, 1537.095
270.8857, 1568.516
271.3678, 1598.442
271.8499, 1628.635
272.3321, 1659.981
272.8142, 1692.328
273.2963, 1724.647
273.7784, 1756.147
274.2605, 1788.753
274.7426, 1824.377
275.2248, 1860.842
275.7069, 1894.461
276.1890, 1923.211
276.6711, 1949.967
277.1532, 1982.365
277.6353, 2024.365
278.1175, 2064.951
278.5996, 2101.054
279.0817, 2135.429
279.5638, 2170.190
280.0459, 2206.284
280.5280, 2244.017
281.0102, 2284.724
281.4923, 2329.847
281.9744, 2374.702
282.4565, 2419.644
282.9386, 2463.585
283.4207, 2505.492
283.9029, 2545.127
284.3850, 2582.888
284.8671, 2618.892
285.3492, 2651.552
285.8313, 2686.472
286.3134, 2725.261
286.7956, 2764.988
287.2777, 2805.345
287.7598, 2845.371
288.2419, 2882.903
288.7240, 2915.616
289.2061, 2942.930
289.6883, 2966.294
290.1704, 2984.302
290.6525, 2999.893
291.1346, 3013.016
291.6167, 3024.590
292.0988, 3036.577
292.5810, 3050.826
293.0631, 3067.437
293.5452, 3084.910
294.0273, 3097.856
294.5094, 3116.958
294.9915, 3146.060
295.4737, 3184.352
295.9558, 3228.991
296.4379, 3277.546
296.9200, 3330.563
297.4021, 3393.764
297.8842, 3472.298
298.3664, 3556.550
298.8485, 3644.513
299.3306, 3737.011
299.8127, 3835.511
300.2948, 3940.669
300.7769, 4051.148
301.2591, 4160.884
301.7412, 4265.970
302.2233, 4374.649
302.7054, 4489.873
303.1875, 4607.225
303.6696, 4722.747
304.1518, 4834.408
304.6339, 4942.729
305.1160, 5050.535
305.5981, 5157.158
306.0802, 5263.015
306.5623, 5367.183
307.0445, 5470.937
307.5266, 5575.374
308.0087, 5680.667
308.4908, 5787.625
308.9729, 5898.089
309.4550, 6016.123
309.9372, 6126.639
310.4193, 6224.167
310.9014, 6320.521
311.3835, 6423.249
311.8656, 6532.488
312.3477, 6642.909
312.8299, 6748.296
313.3120, 6848.777
313.7941, 6948.803
314.2762, 7053.345
314.7583, 7153.251
315.2404, 7245.948
315.7226, 7331.248
316.2047, 7409.763
316.6868, 7481.475
317.1689, 7546.505
317.6510, 7606.721
318.1331, 7678.070
318.6153, 7727.166
319.0974, 7744.864
319.5795, 7735.638
320.0616, 7707.121
320.5437, 7663.350
321.0258, 7602.655
321.5080, 7518.521
321.9901, 7409.563
322.4722, 7275.527
322.9543, 7107.824
323.4364, 6920.350
323.9185, 6722.966
324.4007, 6521.067
324.8828, 6314.854
325.3649, 6106.117
325.8470, 5888.778
326.3291, 5680.094
326.8112, 5473.867
327.2934, 5277.970
327.7755, 5095.763
328.2576, 4928.353
328.7397, 4774.861
329.2218, 4634.325
329.7039, 4507.925
330.1861, 4388.541
330.6682, 4276.057
331.1503, 4169.383
331.6324, 4067.655
332.1145, 3971.101
332.5966, 3881.565
333.0788, 3800.381
333.5609, 3727.393
334.0430, 3660.378
334.5251, 3601.135
335.0072, 3545.790
335.4893, 3495.214
335.9715, 3447.913
336.4536, 3401.106
336.9357, 3353.517
337.4178, 3307.373
337.8999, 3270.820
338.3820, 3247.650
338.8642, 3229.442
339.3463, 3216.496
339.8284, 3207.025
340.3105, 3199.389
340.7926, 3193.150
341.2747, 3189.346
341.7568, 3189.114
342.2390, 3191.132
342.7211, 3200.547
343.2032, 3219.909
343.6853, 3243.376
344.1674, 3269.083
344.6495, 3296.148
345.1317, 3323.405
345.6138, 3349.256
346.0959, 3373.384
346.5780, 3401.519
347.0601, 3439.826
347.5422, 3476.338
348.0244, 3506.542
348.5065, 3532.762
348.9886, 3559.719
349.4707, 3590.372
349.9528, 3623.494
350.4349, 3653.692
350.9171, 3681.809
351.3992, 3705.575
351.8813, 3724.611
352.3634, 3739.776
352.8455, 3752.163
353.3276, 3762.182
353.8098, 3768.441
354.2919, 3767.727
354.7740, 3757.619
355.2561, 3747.834
355.7382, 3740.078
356.2203, 3732.429
356.7025, 3722.305
357.1846, 3710.372
357.6667, 3701.050
358.1488, 3700.876
358.6309, 3710.432
359.1130, 3713.056
359.5952, 3701.243
360.0773, 3690.609
360.5594, 3687.822
361.0415, 3690.992
361.5236, 3696.766
362.0057, 3706.070
362.4879, 3714.616
362.9700, 3708.591
363.4521, 3684.088
363.9342, 3653.127
364.4163, 3622.579
364.8984, 3587.212
365.3806, 3541.312
365.8627, 3482.872
366.3448, 3414.140
366.8269, 3335.615
367.3090, 3245.852
367.7911, 3156.580
368.2733, 3069.504
368.7554, 2984.652
369.2375, 2900.874
369.7196, 2818.219
370.2017, 2740.851
370.6838, 2673.393
371.1660, 2614.294
371.6481, 2556.492
372.1302, 2497.944
372.6123, 2443.757
373.0944, 2397.689
373.5765, 2358.137
374.0587, 2321.541
374.5408, 2286.651
375.0229, 2254.179
375.5050, 2225.069
375.9871, 2199.397
376.4692, 2177.400
376.9514, 2160.214
377.4335, 2146.749
377.9156, 2135.415
378.3977, 2126.561
378.8798, 2118.501
379.3619, 2110.144
379.8441, 2101.568
380.3262, 2092.654
380.8083, 2082.146
381.2904, 2073.346
381.7725, 2071.682
382.2546, 2076.836
382.7368, 2080.764
383.2189, 2080.495
383.7010, 2077.692
384.1831, 2073.626
384.6652, 2068.266
385.1473, 2065.025
385.6295, 2067.497
386.1116, 2074.894
386.5937, 2080.547
387.0758, 2081.829
387.5579, 2083.526
388.0400, 2089.385
388.5222, 2098.257
389.0043, 2106.099
389.4864, 2110.748
389.9685, 2113.664
390.4506, 2118.575
390.9327, 2126.182
391.4149, 2133.801
391.8970, 2140.627
392.3791, 2147.292
392.8612, 2155.095
393.3433, 2164.202
393.8254, 2172.523
394.3076, 2177.122
394.7897, 2176.704
395.2718, 2180.030
395.7539, 2189.746
396.2360, 2200.448
396.7181, 2209.294
397.2003, 2216.542
397.6824, 2223.558
398.1645, 2231.271
398.6466, 2239.428
399.1287, 2247.017
399.6108, 2254.149
400.0930, 2260.471
400.5751, 2266.265
401.0572, 2271.099
401.5393, 2273.504
402.0214, 2273.380
402.5035, 2273.746
402.9857, 2279.615
403.4678, 2294.148
403.9499, 2305.028
404.4320, 2311.198
404.9141, 2315.310
405.3962, 2316.944
405.8784, 2317.461
406.3605, 2319.975
406.8426, 2327.177
407.3247, 2338.252
407.8068, 2347.084
408.2889, 2352.969
408.7711, 2357.290
409.2532, 2359.205
409.7353, 2360.398
410.2174, 2362.840
410.6995, 2367.208
411.1816, 2372.194
411.6638, 2376.130
412.1459, 2379.020
412.6280, 2380.710
413.1101, 2380.487
413.5922, 2379.539
414.0743, 2378.409
414.5565, 2377.122
415.0386, 2375.547
415.5207, 2373.458
416.0028, 2371.015
416.4849, 2369.206
416.9670, 2369.021
417.4492, 2366.991
417.9313, 2359.554
418.4134, 2349.770
418.8955, 2341.218
419.3776, 2334.496
419.8597, 2329.799
420.3419, 2328.272
420.8240, 2329.518
421.3061, 2329.707
421.7882, 2327.410
422.2703, 2324.128
422.7524, 2321.445
423.2346, 2319.299
423.7167, 2317.923
424.1988, 2318.118
424.6809, 2318.797
425.1630, 2318.303
425.6451, 2316.473
426.1273, 2314.575
426.6094, 2313.359
427.0915, 2312.894
427.5736, 2313.121
428.0557, 2315.172
428.5378, 2316.681
429.0200, 2316.267
429.5021, 2314.589
429.9842, 2312.960
430.4663, 2311.844
430.9484, 2310.984
431.4305, 2309.917
431.9127, 2308.302
432.3948, 2307.402
432.8769, 2308.603
433.3590, 2309.468
433.8411, 2307.419
434.3232, 2303.049
434.8054, 2299.599
435.2875, 2299.868
435.7696, 2303.284
436.2517, 2303.817
436.7338, 2298.758
437.2159, 2293.853
437.6981, 2290.382
438.1802, 2287.280
438.6623, 2283.203
439.1444, 2277.750
439.6265, 2271.635
440.1086, 2265.783
440.5908, 2260.031
441.0729, 2255.126
441.5550, 2253.046
442.0371, 2249.972
442.5192, 2243.765
443.0013, 2235.171
443.4835, 2226.232
443.9656, 2218.168
444.4477, 2210.827
444.9298, 2204.214
445.4119, 2199.011
445.8940, 2192.730
446.3762, 2183.209
446.8583, 2173.005
447.3404, 2164.435
447.8225, 2157.957
448.3046, 2152.238
448.7867, 2146.668
449.2689, 2141.073
449.7510, 2134.522
450.2331, 2127.144
450.7152, 2118.283
451.1973, 2106.031
451.6794, 2091.783
452.1616, 2079.164
452.6437, 2069.841
453.1258, 2061.991
453.6079, 2054.579
454.0900, 2047.398
454.5721, 2039.176
455.0543, 2029.274
455.5364, 2018.151
456.0185, 2006.146
456.5006, 1992.464
456.9827, 1981.032
457.4648, 1975.162
457.9470, 1970.635
458.4291, 1962.936
458.9112, 1951.581
459.3933, 1938.386
459.8754, 1924.384
460.3575, 1909.639
460.8397, 1897.279
461.3218, 1889.000
461.8039, 1880.704
462.2860, 1871.016
462.7681, 1860.789
463.2502, 1851.396
463.7324, 1843.284
464.2145, 1835.684
464.6966, 1827.302
465.1787, 1817.750
465.6608, 1808.730
466.1429, 1801.528
466.6251, 1793.613
467.1072, 1782.897
467.5893, 1770.507
468.0714, 1759.095
468.5535, 1750.304
469.0356, 1743.529
469.5178, 1737.303
469.9999, 1732.302
470.4820, 1725.944
470.9641, 1716.413
471.4462, 1705.962
471.9283, 1695.905
472.4105, 1686.487
472.8926, 1678.017
473.3747, 1671.117
473.8568, 1665.397
474.3389, 1659.591
474.8210, 1653.696
475.3032, 1647.496
475.7853, 1640.348
476.2674, 1632.865
476.7495, 1626.561
477.2316, 1623.161
477.7137, 1618.740
478.1959, 1609.042
478.6780, 1596.095
479.1601, 1585.783
479.6422, 1580.227
480.1243, 1576.658
480.6064, 1571.681
481.0886, 1565.053
481.5707, 1558.354
482.0528, 1551.682
482.5349, 1544.958
483.0170, 1537.691
483.4991, 1530.303
483.9813, 1524.173
484.4634, 1520.169
484.9455, 1517.413
485.4276, 1513.257
485.9097, 1506.351
486.3918, 1499.971
486.8740, 1495.100
487.3561, 1490.044
487.8382, 1482.941
488.3203, 1474.124
488.8024, 1465.889
489.2845, 1460.215
489.7667, 1456.862
490.2488, 1453.357
490.7309, 1449.815
491.2130, 1445.901
491.6951, 1440.838
492.1772, 1435.754
492.6594, 1432.212
493.1415, 1430.612
493.6236, 1428.918
494.1057, 1424.981
494.5878, 1419.007
495.0699, 1412.648
495.5521, 1405.384
496.0342, 1399.126
496.5163, 1396.625
496.9984, 1396.165
497.4805, 1393.795
497.9626, 1386.844
498.4448, 1379.674
498.9269, 1376.913
499.4090, 1377.171
499.8911, 1374.904
500.3732, 1367.582
500.8553, 1359.125
501.3375, 1355.738
501.8196, 1358.957
502.3017, 1359.127
502.7838, 1353.162
503.2659, 1346.121
503.7480, 1341.292
504.2302, 1338.345
504.7123, 1335.358
505.1944, 1331.184
505.6765, 1326.477
506.1586, 1323.178
506.6407, 1322.557
507.1228, 1321.329
507.6049, 1319.240
508.0871, 1316.710
508.5692, 1313.894
509.0513, 1310.891
509.5334, 1307.957
510.0155, 1305.563
510.4977, 1303.281
510.9798, 1298.649
511.4619, 1289.848
511.9440, 1282.809
512.4261, 1280.413
512.9083, 1280.012
513.3904, 1279.895
513.8725, 1279.781
514.3546, 1278.649
514.8367, 1274.851
515.3188, 1269.489
515.8010, 1265.957
516.2831, 1264.938
516.7652, 1263.774
517.2473, 1260.103
517.7294, 1254.950
518.2115, 1251.826
518.6937, 1252.850
519.1758, 1252.952
519.6579, 1248.313
520.1400, 1241.731
520.6221, 1238.096
521.1042, 1238.516
521.5864, 1240.177
522.0685, 1240.174
522.5506, 1238.416
523.0327, 1235.831
523.5148, 1231.254
523.9969, 1227.267
524.4791, 1225.640
524.9612, 1224.776
525.4433, 1221.791
525.9254, 1215.840
526.4075, 1209.755
526.8896, 1208.698
527.3718, 1214.311
527.8539, 1216.274
528.3360, 1211.260
528.8181, 1205.967
529.3002, 1203.297
529.7823, 1202.322
530.2645, 1201.089
530.7466, 1198.687
531.2287, 1196.091
531.7108, 1195.041
532.1929, 1195.358
532.6750, 1193.892
533.1572, 1188.738
533.6393, 1183.538
534.1214, 1183.518
534.6035, 1187.661
535.0856, 1189.042
535.5677, 1184.390
536.0499, 1178.141
536.5320, 1172.698
537.0141, 1168.359
537.4962, 1165.879
537.9783, 1165.767
538.4604, 1166.575
538.9426, 1165.733
539.4247, 1162.382
539.9068, 1159.487
540.3889, 1156.973
540.8710, 1154.953
541.3531, 1153.413
541.8353, 1152.404
542.3174, 1152.326
542.7995, 1153.534
543.2816, 1154.837
543.7637, 1153.189
544.2458, 1147.378
544.7280, 1142.623
545.2101, 1140.979
545.6922, 1139.397
546.1743, 1135.662
546.6564, 1130.430
547.1385, 1126.300
547.6207, 1125.113
548.1028, 1125.220
548.5849, 1124.271
549.0670, 1122.296
549.5491, 1119.905
550.0313, 1117.118
550.5134, 1114.300
550.9955, 1112.273
551.4776, 1111.144
551.9597, 1109.160
552.4418, 1104.826
552.9240, 1100.495
553.4061, 1098.339
553.8882, 1097.850
554.3703, 1096.958
554.8524, 1094.526
555.3345, 1091.555
555.8167, 1090.552
556.2988, 1094.050
556.7809, 1094.421
557.2630, 1088.938
557.7451, 1083.262
558.2272, 1080.634
558.7094, 1080.398
559.1915, 1080.409
559.6736, 1079.612
560.1557, 1077.894
560.6378, 1074.633
561.1199, 1069.475
561.6021, 1065.085
562.0842, 1062.059
562.5663, 1060.037
563.0484, 1058.919
563.5305, 1058.552
564.0126, 1058.113
564.4948, 1057.524
564.9769, 1056.571
565.4590, 1055.240
565.9411, 1053.422
566.4232, 1050.285
566.9053, 1045.203
567.3875, 1039.755
567.8696, 1036.310
568.3517, 1035.335
568.8338, 1035.251
569.3159, 1037.518
569.7980, 1039.243
570.2802, 1038.847
570.7623, 1036.762
571.2444, 1033.804
571.7265, 1030.354
572.2086, 1026.902
572.6907, 1024.542
573.1729, 1023.682
573.6550, 1022.100
574.1371, 1017.583
574.6192, 1014.655
575.1013, 1017.135
575.5834, 1022.408
576.0656, 1024.975
576.5477, 1022.092
577.0298, 1017.429
577.5119, 1014.718
577.9940, 1013.716
578.4761, 1013.383
578.9583, 1013.823
579.4404, 1013.805
579.9225, 1011.696
580.4046, 1007.667
580.8867, 1005.107
581.3688, 1005.201
581.8510, 1005.591
582.3331, 1005.310
582.8152, 1004.664
583.2973, 1004.241
583.7794, 1004.171
584.2615, 1003.916
584.7437, 1002.695
585.2258, 1000.390
585.7079, 999.2263
586.1900, 1000.443
586.6721, 1001.247
587.1542, 1000.986
587.6363, 999.9691
588.1184, 998.1844
588.6005, 995.6891
589.0826, 993.7372
589.5648, 993.9484
590.0469, 995.6688
590.5290, 996.3140
591.0111, 995.5044
591.4932, 994.8981
591.9753, 995.9341
592.4575, 997.5768
592.9396, 997.1810
593.4217, 993.6486
593.9038, 990.9925
594.3859, 991.3486
594.8680, 992.6448
595.3502, 992.4503
595.8323, 990.8613
596.3144, 989.5588
596.7965, 989.6100
597.2786, 991.0511
597.7607, 994.3201
598.2429, 1002.435
598.7250, 1006.808
599.2071, 1004.976
599.6892, 1001.403
600.1713, 997.9755
600.6534, 995.2339
601.1356, 993.7970
601.6177, 994.4777
602.0998, 996.0130
602.5819, 995.7489
603.0640, 993.6831
603.5461, 993.2969
604.0283, 996.2023
604.5104, 999.9982
604.9925, 1001.854
605.4746, 1002.034
605.9567, 1002.610
606.4388, 1004.183
606.9210, 1005.918
607.4031, 1007.610
607.8852, 1009.056
608.3673, 1009.697
608.8494, 1009.410
609.3315, 1009.075
609.8137, 1009.893
610.2958, 1012.019
610.7779, 1013.665
611.2600, 1014.695
611.7421, 1015.364
612.2242, 1015.979
612.7064, 1016.141
613.1885, 1014.730
613.6706, 1011.648
614.1527, 1009.669
614.6348, 1012.203
615.1169, 1017.692
615.5991, 1021.313
616.0812, 1022.694
616.5633, 1023.607
617.0454, 1025.279
617.5275, 1026.859
618.0096, 1026.134
618.4918, 1022.081
618.9739, 1019.358
619.4560, 1020.284
619.9381, 1021.801
620.4202, 1020.506
620.9023, 1017.445
621.3845, 1016.829
621.8666, 1021.111
622.3487, 1027.524
622.8308, 1029.550
623.3129, 1025.326
623.7950, 1022.619
624.2772, 1022.970
624.7593, 1023.772
625.2414, 1023.773
625.7235, 1023.397
626.2056, 1023.789
626.6877, 1025.773
627.1699, 1027.331
627.6520, 1025.634
628.1341, 1021.869
628.6162, 1020.157
629.0983, 1021.366
629.5804, 1022.940
630.0626, 1022.699
630.5447, 1020.990
631.0268, 1020.564
631.5089, 1023.045
631.9910, 1024.430
632.4731, 1022.889
632.9553, 1020.810
633.4374, 1021.018
633.9195, 1023.119
634.4016, 1023.980
634.8837, 1020.971
635.3658, 1015.727
635.8480, 1013.651
636.3301, 1015.796
636.8122, 1016.549
637.2943, 1013.511
637.7764, 1009.976
638.2585, 1009.015
638.7407, 1009.998
639.2228, 1009.993
639.7049, 1008.090
640.1870, 1004.910
640.6691, 999.6255
641.1512, 993.6029
641.6334, 990.1500
642.1155, 990.1429
642.5976, 991.7570
643.0797, 993.4086
643.5618, 995.0957
644.0439, 994.6957
644.5261, 990.6419
645.0082, 986.3410
645.4903, 981.1600
645.9724, 976.6693
646.4545, 974.8696
646.9366, 975.5498
647.4188, 976.0609
647.9009, 974.1827
648.3830, 970.9556
648.8651, 968.7151
649.3472, 967.4911
649.8293, 966.3495
650.3115, 965.0515
650.7936, 963.6021
651.2757, 962.2542
651.7578, 961.0630
652.2399, 958.5333
652.7220, 953.0773
653.2042, 947.8010
653.6863, 943.9258
654.1684, 941.3668
654.6505, 940.2770
655.1326, 940.5168
655.6147, 940.9028
656.0969, 940.0984
656.5790, 938.1681
657.0611, 936.1060
657.5432, 933.2601
658.0253, 931.6698
658.5074, 933.7453
658.9896, 936.3392
659.4717, 936.6906
659.9538, 934.6429
660.4359, 931.8486
660.9180, 928.2271
661.4001, 924.8049
661.8823, 922.9092
662.3644, 922.1864
662.8465, 921.0939
663.3286, 918.9938
663.8107, 917.0871
664.2928, 917.2516
664.7750, 920.0319
665.2571, 921.1857
665.7392, 919.1144
666.2213, 917.2770
666.7034, 915.9850
667.1855, 915.6021
667.6677, 917.1047
668.1498, 920.4183
668.6319, 923.1095
669.1140, 923.2327
669.5961, 921.3495
670.0782, 918.0641
670.5604, 913.3964
671.0425, 910.0620
671.5246, 909.2571
672.0067, 910.1754
672.4888, 911.9448
672.9709, 914.9272
673.4531, 916.8053
673.9352, 917.3571
674.4173, 916.9790
674.8994, 915.0038
675.3815, 912.5518
675.8636, 910.9199
676.3458, 910.5446
676.8279, 911.3981
677.3100, 914.2449
677.7921, 918.4496
678.2742, 919.1317
678.7563, 914.8916
679.2385, 912.4984
679.7206, 915.8611
680.2027, 921.1063
680.6848, 923.4056
681.1669, 922.7740
681.6490, 921.4015
682.1312, 918.3557
682.6133, 916.1496
683.0954, 917.0804
683.5775, 919.9841
684.0596, 922.6834
684.5417, 924.4526
685.0239, 925.6221
685.5060, 926.5176
685.9881, 927.1439
686.4702, 927.7131
686.9523, 927.9694
687.4344, 928.6582
687.9166, 930.9364
688.3987, 933.0734
688.8808, 932.7697
689.3629, 930.2852
689.8450, 929.7399
690.3271, 935.5828
690.8093, 941.9458
691.2914, 941.2153
691.7735, 936.3384
692.2556, 936.4785
692.7377, 944.3913
693.2198, 953.6877
693.7020, 957.1919
694.1841, 954.9413
694.6662, 954.5397
695.1483, 956.8537
695.6304, 959.8398
696.1125, 962.9502
696.5947, 966.7029
697.0768, 972.1937
697.5589, 978.9932
698.0410, 984.7611
698.5231, 987.3758
699.0052, 989.2842
699.4874, 993.7249
699.9695, 1000.186
700.4516, 1006.623
700.9337, 1012.482
701.4158, 1018.163
701.8979, 1023.771
702.3801, 1029.407
702.8622, 1036.830
703.3443, 1046.994
703.8264, 1057.695
704.3085, 1070.241
704.7906, 1082.027
705.2728, 1090.272
705.7549, 1095.804
706.2370, 1102.103
706.7191, 1110.920
707.2012, 1121.566
707.6833, 1134.192
708.1655, 1148.085
708.6476, 1158.872
709.1297, 1165.294
709.6118, 1171.333
710.0939, 1180.251
710.5760, 1191.443
711.0582, 1201.579
711.5403, 1210.751
712.0224, 1218.885
712.5045, 1224.897
712.9866, 1230.813
713.4688, 1238.026
713.9509, 1246.352
714.4330, 1255.091
714.9151, 1264.056
715.3972, 1272.474
715.8793, 1279.563
716.3615, 1285.267
716.8436, 1289.178
717.3257, 1290.960
717.8078, 1292.368
718.2899, 1294.203
718.7720, 1296.553
719.2542, 1300.157
719.7363, 1307.225
720.2184, 1310.022
720.7005, 1306.849
721.1826, 1300.257
721.6647, 1290.285
722.1469, 1278.353
722.6290, 1266.500
723.1111, 1255.476
723.5932, 1244.778
724.0753, 1234.238
724.5574, 1223.568
725.0396, 1211.227
725.5217, 1196.808
726.0038, 1183.306
726.4859, 1172.667
726.9680, 1162.946
727.4501, 1151.085
727.9323, 1136.659
728.4144, 1122.581
728.8965, 1107.180
729.3786, 1094.115
729.8607, 1086.111
730.3428, 1080.938
730.8250, 1075.930
731.3071, 1070.409
731.7892, 1064.894
732.2713, 1059.717
732.7534, 1054.997
733.2355, 1051.202
733.7177, 1048.369
734.1998, 1045.674
734.6819, 1042.777
735.1640, 1040.122
735.6461, 1037.981
736.1282, 1036.422
736.6104, 1036.146
737.0925, 1038.917
737.5746, 1040.665
738.0567, 1038.992
738.5388, 1036.842
739.0209, 1036.932
739.5031, 1039.262
739.9852, 1042.606
740.4673, 1046.653
740.9494, 1050.009
741.4315, 1048.885
741.9136, 1043.956
742.3958, 1043.511
742.8779, 1049.357
743.3600, 1057.200
743.8421, 1064.635
744.3242, 1071.716
744.8063, 1078.610
745.2885, 1086.153
745.7706, 1091.773
746.2527, 1093.197
746.7348, 1094.644
747.2169, 1098.487
747.6990, 1104.266
748.1812, 1110.778
748.6633, 1117.557
749.1454, 1125.178
749.6275, 1134.328
750.1096, 1144.756
750.5917, 1155.405
751.0739, 1166.266
751.5560, 1178.251
752.0381, 1192.479
752.5202, 1206.511
753.0023, 1216.394
753.4844, 1220.996
753.9666, 1228.503
754.4487, 1241.372
754.9308, 1253.891
755.4129, 1263.412
755.8950, 1272.503
756.3771, 1284.135
756.8593, 1298.307
757.3414, 1312.371
757.8235, 1323.408
758.3056, 1335.009
758.7877, 1354.563
759.2698, 1379.890
759.7520, 1399.917
760.2341, 1411.996
760.7162, 1422.849
761.1983, 1437.689
761.6804, 1456.052
762.1625, 1475.983
762.6447, 1498.260
763.1268, 1520.977
763.6089, 1545.542
764.0910, 1569.012
764.5731, 1588.256
765.0552, 1605.740
765.5374, 1626.275
766.0195, 1651.482
766.5016, 1678.638
766.9837, 1707.006
767.4658, 1735.460
767.9479, 1761.311
768.4301, 1785.150
768.9122, 1810.952
769.3943, 1840.553
769.8764, 1872.233
770.3585, 1902.842
770.8406, 1932.148
771.3228, 1964.155
771.8049, 2002.492
772.2870, 2037.939
772.7691, 2063.036
773.2512, 2087.926
773.7333, 2122.701
774.2155, 2166.523
774.6976, 2209.264
775.1797, 2245.042
775.6618, 2280.579
776.1439, 2321.763
776.6260, 2365.327
777.1082, 2405.316
777.5903, 2441.435
778.0724, 2479.396
778.5545, 2523.630
779.0366, 2571.512
779.5187, 2615.595
780.0009, 2655.614
780.4830, 2695.001
780.9651, 2733.396
781.4472, 2772.101
781.9293, 2811.626
782.4114, 2851.975
782.8936, 2892.652
783.3757, 2934.359
783.8578, 2974.248
784.3399, 3008.298
784.8220, 3043.491
785.3041, 3086.575
785.7863, 3133.492
786.2684, 3176.820
786.7505, 3214.714
787.2326, 3250.630
787.7147, 3287.968
788.1968, 3326.044
788.6790, 3362.096
789.1611, 3395.869
789.6432, 3432.231
790.1253, 3473.506
790.6074, 3514.527
791.0895, 3549.693
791.5717, 3579.646
792.0538, 3610.999
792.5359, 3643.597
793.0180, 3677.840
793.5001, 3713.786
793.9822, 3751.430
794.4644, 3792.508
794.9465, 3835.307
795.4286, 3875.317
795.9107, 3909.955
796.3928, 3947.837
796.8749, 3998.224
797.3571, 4056.689
797.8392, 4115.157
798.3213, 4173.239
798.8034, 4230.827
799.2855, 4287.543
799.7676, 4348.026
800.2498, 4419.228
800.7319, 4501.860
801.2140, 4582.976
801.6961, 4659.420
802.1782, 4740.375
802.6603, 4826.461
803.1425, 4918.902
803.6246, 5020.444
804.1067, 5129.666
804.5888, 5238.849
805.0709, 5341.870
805.5530, 5449.676
806.0352, 5567.995
806.5173, 5693.500
806.9994, 5825.683
807.4815, 5961.757
807.9636, 6096.052
808.4457, 6224.890
808.9279, 6352.232
809.4100, 6482.500
809.8921, 6616.422
810.3742, 6756.021
810.8563, 6903.366
811.3384, 7045.643
811.8206, 7173.805
812.3027, 7297.515
812.7848, 7430.897
813.2669, 7575.536
813.7490, 7714.656
814.2311, 7847.492
814.7133, 7975.116
815.1954, 8095.058
815.6775, 8210.881
816.1596, 8324.979
816.6417, 8437.365
817.1238, 8548.104
817.6060, 8658.347
818.0881, 8763.028
818.5702, 8858.227
819.0523, 8942.931
819.5344, 9012.678
820.0165, 9068.367
820.4987, 9119.738
820.9808, 9172.609
821.4629, 9219.885
821.9450, 9248.981
822.4271, 9259.781
822.9092, 9253.086
823.3914, 9227.668
823.8735, 9186.793
824.3556, 9129.069
824.8377, 9057.779
825.3198, 8978.510
825.8019, 8890.978
826.2841, 8787.644
826.7662, 8668.678
827.2483, 8532.487
827.7304, 8372.490
828.2125, 8198.883
828.6946, 8020.758
829.1768, 7839.800
829.6589, 7654.348
830.1410, 7464.475
830.6231, 7268.223
831.1052, 7059.956
831.5873, 6842.773
832.0695, 6629.255
832.5516, 6420.273
833.0337, 6212.230
833.5158, 6002.880
833.9979, 5794.476
834.4800, 5587.869
834.9622, 5382.120
835.4443, 5187.897
835.9264, 5013.881
836.4085, 4839.983
836.8906, 4657.006
837.3727, 4477.522
837.8549, 4309.622
838.3370, 4152.962
838.8191, 4003.337
839.3012, 3859.499
839.7833, 3721.177
840.2654, 3588.481
840.7476, 3460.903
841.2297, 3337.705
841.7118, 3218.904
842.1939, 3106.580
842.6760, 3001.457
843.1581, 2900.895
843.6403, 2801.319
844.1224, 2703.827
844.6045, 2614.871
845.0866, 2535.361
845.5687, 2456.800
846.0508, 2376.059
846.5330, 2298.524
847.0151, 2230.820
847.4972, 2171.799
847.9793, 2110.018
848.4614, 2040.233
848.9435, 1975.974
849.4257, 1917.934
849.9078, 1864.689
850.3899, 1817.816
850.8720, 1774.317
851.3541, 1728.511
851.8362, 1678.431
852.3184, 1630.698
852.8005, 1590.264
853.2826, 1552.599
853.7647, 1512.882
854.2468, 1472.306
854.7289, 1433.313
855.2111, 1397.052
855.6932, 1365.250
856.1753, 1340.647
856.6574, 1319.920
857.1395, 1294.045
857.6216, 1262.996
858.1038, 1231.765
858.5859, 1200.299
859.0680, 1172.888
859.5501, 1153.599
860.0322, 1138.827
860.5143, 1119.647
860.9965, 1093.336
861.4786, 1071.053
861.9607, 1055.240
862.4428, 1040.160
862.9249, 1024.610
863.4070, 1008.715
863.8892, 992.3441
864.3713, 975.6193
864.8534, 959.8190
865.3355, 946.0010
865.8176, 932.3146
866.2997, 917.3058
866.7819, 901.9147
867.2640, 887.1683
867.7461, 873.3655
868.2282, 861.4868
868.7103, 852.0468
869.1924, 842.6993
869.6746, 829.1447
870.1567, 812.7387
870.6388, 800.8788
871.1209, 793.7670
871.6030, 786.6982
872.0851, 778.1723
872.5673, 768.6937
873.0494, 758.6594
873.5315, 748.1493
874.0136, 738.1063
874.4957, 728.3877
874.9778, 719.3110
875.4600, 711.6420
875.9421, 703.9048
876.4242, 695.2946
876.9063, 686.1881
877.3884, 677.2170
877.8705, 668.5099
878.3527, 659.8597
878.8348, 650.5889
879.3169, 642.0294
879.7990, 635.6305
880.2811, 630.3256
880.7632, 625.0744
881.2454, 619.3732
881.7275, 612.1176
882.2096, 602.2010
882.6917, 591.5729
883.1738, 582.8174
883.6559, 575.7363
884.1381, 569.9647
884.6202, 565.3777
885.1023, 561.1080
885.5844, 556.8361
886.0665, 551.9274
886.5486, 545.1725
887.0308, 536.4994
887.5129, 529.0358
887.9950, 523.0361
888.4771, 517.4559
888.9592, 511.6451
889.4413, 506.5995
889.9235, 503.9913
890.4056, 502.9159
890.8877, 499.7123
891.3698, 492.8616
891.8519, 486.6691
892.3340, 482.0544
892.8162, 477.9545
893.2983, 473.9944
893.7804, 470.0768
894.2625, 466.2787
894.7446, 462.5630
895.2267, 458.5607
895.7089, 453.3897
896.1910, 448.4967
896.6731, 445.9534
897.1552, 444.4998
897.6373, 442.0058
898.1194, 438.1910
898.6016, 433.2875
899.0837, 427.3233
899.5658, 421.6724
900.0479, 419.2295
900.5300, 419.4454
901.0121, 417.4408
901.4943, 412.9309
901.9764, 408.7084
902.4585, 405.7491
902.9406, 403.2466
903.4227, 400.2486
903.9048, 396.9162
904.3870, 394.8834
904.8691, 395.4466
905.3512, 394.6768
905.8333, 391.2442
906.3154, 387.6022
906.7975, 385.0740
907.2797, 383.0365
907.7618, 380.4835
908.2439, 377.2864
908.7260, 374.2551
909.2081, 371.5732
909.6902, 369.1469
910.1724, 367.0617
910.6545, 365.1387
911.1366, 363.0847
911.6187, 360.9852
912.1008, 359.2707
912.5829, 358.2411
913.0651, 357.1624
913.5472, 355.1485
914.0293, 352.7261
914.5114, 350.8789
914.9935, 349.4460
915.4756, 347.4275
915.9578, 344.5724
916.4398, 342.0816
916.9219, 341.3696
917.4041, 341.6657
917.8862, 340.1734
918.3683, 336.8671
918.8504, 334.7092
919.3325, 334.4315
919.8146, 333.4951
920.2968, 330.2087
920.7789, 325.7560
921.2610, 322.2950
921.7431, 319.9252
922.2252, 317.9085
922.7073, 316.3729
923.1895, 314.9834
923.6716, 313.9637
924.1537, 312.7927
924.6358, 310.7933
925.1179, 308.3193
925.6000, 306.6074
926.0822, 306.2564
926.5643, 305.5635
927.0464, 304.0099
927.5285, 302.0927
928.0106, 299.6269
928.4927, 297.2468
928.9749, 296.2025
929.4570, 296.4090
929.9391, 295.9208
930.4212, 293.1191
930.9033, 290.0105
931.3854, 288.4359
931.8676, 287.7842
932.3497, 287.3454
932.8318, 286.8833
933.3139, 286.0187
933.7960, 284.5912
934.2781, 282.8835
934.7603, 281.0123
935.2424, 279.2040
935.7245, 278.5370
936.2066, 278.8613
936.6887, 278.2410
937.1708, 276.2263
937.6530, 273.7373
938.1351, 271.2799
938.6172, 269.1448
939.0993, 268.2454
939.5814, 268.9634
940.0635, 268.7166
940.5457, 267.0939
941.0278, 265.4612
941.5099, 263.8718
941.9920, 262.9691
942.4741, 263.9475
942.9562, 266.4885
943.4384, 267.3384
943.9205, 265.6268
944.4026, 263.6346
944.8847, 260.8053
945.3668, 258.4432
945.8489, 257.2143
946.3311, 256.8356
946.8132, 257.1490
947.2953, 258.0685
947.7774, 258.5656
948.2595, 258.4735
948.7416, 257.6431
949.2238, 255.1912
949.7059, 252.5944
950.1880, 251.7531
950.6701, 252.0402
951.1522, 251.2957
951.6343, 248.7314
952.1165, 246.2426
952.5986, 245.5393
953.0807, 245.6935
953.5628, 245.5505
954.0449, 245.2026
954.5270, 245.0622
955.0092, 245.1021
955.4913, 244.6106
955.9734, 243.0683
956.4555, 241.2842
956.9376, 240.7884
957.4197, 241.2645
957.9019, 241.0101
958.3840, 239.9841
958.8661, 238.6454
959.3482, 237.0372
959.8303, 236.2383
960.3124, 237.5566
960.7946, 240.1373
961.2767, 240.3092
961.7588, 237.3551
962.2409, 235.7979
962.7230, 236.4971
963.2051, 236.9933
963.6873, 236.0908
964.1694, 234.6120
964.6515, 233.5625
965.1336, 232.9384
965.6157, 232.5220
966.0978, 232.9559
966.5800, 232.5785
967.0621, 230.4336
967.5442, 228.3662
968.0263, 227.4425
968.5084, 227.1421
968.9905, 226.5889
969.4727, 225.6768
969.9548, 225.0223
970.4369, 224.6930
970.9190, 224.7353
971.4011, 225.6081
971.8832, 226.4927
972.3654, 226.8497
972.8475, 226.5833
973.3296, 225.3902
973.8117, 223.0482
974.2938, 221.4153
974.7759, 222.0426
975.2581, 223.3492
975.7402, 224.7120
976.2223, 225.4616
976.7044, 224.1628
977.1865, 221.1949
977.6686, 218.5706
978.1508, 217.2745
978.6329, 217.0853
979.1150, 218.6454
979.5971, 220.6788
980.0792, 220.5885
980.5613, 218.8803
981.0435, 217.3138
981.5256, 216.4199
982.0077, 216.5421
982.4898, 218.1424
982.9719, 220.0696
983.4540, 219.6857
983.9362, 217.5029
984.4183, 216.5669
984.9004, 217.0313
985.3825, 217.9675
985.8646, 219.1270
986.3467, 219.7108
986.8289, 218.7514
987.3110, 216.7686
987.7931, 216.0645
988.2752, 216.9187
988.7573, 216.5569
989.2394, 214.2263
989.7216, 212.8065
990.2037, 213.8220
990.6858, 215.8519
991.1679, 217.2018
991.6500, 217.8847
992.1321, 218.1594
992.6143, 217.9646
993.0964, 217.4646
993.5785, 216.2610
994.0606, 215.3588
994.5427, 215.3577
995.0248, 215.9062
995.5070, 216.6685
995.9891, 217.7093
996.4712, 217.9901
996.9533, 216.9299
997.4354, 215.9142
997.9175, 215.2574
998.3997, 214.5981
998.8818, 213.2723
999.3639, 211.9705
999.8460, 212.1111
1000.328, 213.9675
1000.810, 215.3203
1001.292, 214.9909
1001.774, 214.8792
1002.257, 216.4142
1002.739, 217.8764
1003.221, 217.2830
1003.703, 215.5287
1004.185, 214.9560
1004.667, 216.2308
1005.149, 217.2058
1005.631, 216.2415
1006.114, 215.2351
1006.596, 215.6228
1007.078, 216.6406
1007.560, 217.6492
1008.042, 218.3460
1008.524, 218.0822
1009.006, 216.5488
1009.488, 215.4264
1009.970, 216.5940
1010.453, 218.3834
1010.935, 218.9627
1011.417, 218.7733
1011.899, 218.4414
1012.381, 218.2485
1012.863, 218.7699
1013.345, 220.3377
1013.827, 221.9498
1014.310, 222.7488
1014.792, 222.6906
1015.274, 220.8667
1015.756, 218.2041
1016.238, 217.7057
1016.720, 219.6953
1017.202, 222.1461
1017.684, 223.8889
1018.166, 224.8161
1018.649, 224.3908
1019.131, 223.0603
1019.613, 222.5494
1020.095, 222.7445
1020.577, 222.3513
1021.059, 221.1324
1021.541, 221.1760
1022.023, 224.1487
1022.505, 228.0269
1022.988, 228.5377
1023.470, 226.0607
1023.952, 225.5160
1024.434, 226.9696
1024.916, 228.3763
1025.398, 229.2055
1025.880, 230.0385
1026.362, 231.3657
1026.845, 232.8643
1027.327, 233.7698
1027.809, 234.0620
1028.291, 233.9195
1028.773, 233.1901
1029.255, 232.9196
1029.737, 233.4746
1030.219, 234.2815
1030.702, 234.9190
1031.184, 235.3915
1031.666, 235.6375
1032.148, 235.5143
1032.630, 235.9873
1033.112, 237.2605
1033.594, 238.5672
1034.076, 239.7706
1034.558, 240.8095
1035.041, 241.5903
1035.523, 242.2023
1036.005, 242.9377
1036.487, 243.8866
1036.969, 244.6360
1037.451, 245.0483
1037.933, 245.5289
1038.415, 246.1508
1038.897, 246.9227
1039.380, 247.9570
1039.862, 249.1253
1040.344, 249.9679
1040.826, 250.2880
1041.308, 250.8523
1041.790, 251.6562
1042.272, 252.7111
1042.754, 254.7335
1043.237, 256.3422
1043.719, 255.8734
1044.201, 254.1838
1044.683, 253.8613
1045.165, 255.5518
1045.647, 256.7756
1046.129, 256.9816
1046.611, 257.3121
1047.094, 258.5002
1047.576, 259.5349
1048.058, 259.0500
1048.540, 257.8587
1049.022, 258.3574
1049.504, 261.3735
1049.986, 263.5288
1050.468, 263.8897
1050.950, 263.9780
1051.432, 263.4927
1051.915, 263.6216
1052.397, 266.1202
1052.879, 269.8078
1053.361, 271.5809
1053.843, 270.5391
1054.325, 270.3262
1054.807, 272.4835
1055.289, 274.5957
1055.772, 275.7215
1056.254, 276.5124
1056.736, 277.5468
1057.218, 278.6810
1057.700, 279.4623
1058.182, 279.7693
1058.664, 280.1938
1059.146, 280.9704
1059.629, 281.8095
1060.111, 282.7722
1060.593, 283.5918
1061.075, 283.8338
1061.557, 283.8430
1062.039, 284.2729
1062.521, 285.2486
1063.003, 286.6235
1063.485, 288.6835
1063.968, 290.7001
1064.450, 292.3452
1064.932, 293.8261
1065.414, 295.6917
1065.896, 297.3691
1066.378, 297.2079
1066.860, 295.0342
1067.342, 294.6481
1067.824, 299.6547
1068.307, 303.8925
1068.789, 303.6280
1069.271, 302.5172
1069.753, 303.6171
1070.235, 305.9980
1070.717, 307.6109
1071.199, 308.2066
1071.681, 309.2651
1072.164, 311.7451
1072.646, 314.2472
1073.128, 316.4306
1073.610, 318.1207
1074.092, 318.9176
1074.574, 319.2805
1075.056, 319.6810
1075.538, 320.3143
1076.021, 321.7150
1076.503, 324.4804
1076.985, 327.2426
1077.467, 329.9635
1077.949, 331.8144
1078.431, 331.3605
1078.913, 330.1107
1079.395, 330.1306
1079.877, 331.5169
1080.359, 333.2062
1080.842, 334.9851
1081.324, 336.5523
1081.806, 337.7051
1082.288, 338.6727
1082.770, 339.1412
1083.252, 339.8453
1083.734, 342.2337
1084.216, 345.7196
1084.698, 347.7623
1085.181, 347.2409
1085.663, 346.9534
1086.145, 347.7991
1086.627, 349.6933
1087.109, 353.5488
1087.591, 357.6798
1088.073, 360.1440
1088.555, 361.3242
1089.038, 362.8069
1089.520, 365.0644
1090.002, 366.9353
1090.484, 367.9807
1090.966, 368.4695
1091.448, 368.0384
1091.930, 367.5495
1092.412, 367.4073
1092.895, 367.9467
1093.377, 369.9678
1093.859, 373.6256
1094.341, 376.8197
1094.823, 378.7399
1095.305, 380.1389
1095.787, 380.6156
1096.269, 381.3787
1096.751, 383.7799
1097.234, 386.8885
1097.716, 388.9981
1098.198, 389.9912
1098.680, 391.4451
1099.162, 394.1283
1099.644, 396.8540
1100.126, 399.6567
1100.608, 401.9518
1101.090, 403.2548
1101.573, 403.9225
1102.055, 404.2471
1102.537, 404.3576
1103.019, 404.5955
1103.501, 404.6101
1103.983, 405.7519
1104.465, 409.7638
1104.947, 413.2353
1105.430, 413.5834
1105.912, 413.4767
1106.394, 415.9796
1106.876, 420.2838
1107.358, 423.2722
1107.840, 424.2213
1108.322, 425.1134
1108.804, 425.7896
1109.286, 427.0897
1109.769, 429.7917
1110.251, 432.7137
1110.733, 435.4476
1111.215, 437.5988
1111.697, 438.0657
1112.179, 436.4172
1112.661, 436.1864
1113.143, 438.6229
1113.625, 441.0076
1114.108, 442.0065
1114.590, 443.9223
1115.072, 449.5026
1115.554, 455.8111
1116.036, 458.0943
1116.518, 456.5215
1117.000, 457.6175
1117.482, 464.5001
1117.965, 468.3217
1118.447, 466.3121
1118.929, 464.9566
1119.411, 466.6800
1119.893, 470.0405
1120.375, 474.0783
1120.857, 478.4877
1121.339, 481.9547
1121.822, 484.4949
1122.304, 485.9165
1122.786, 485.2106
1123.268, 485.8608
1123.750, 489.5153
1124.232, 493.2450
1124.714, 494.5123
1125.196, 494.7969
1125.678, 497.5206
1126.161, 502.9347
1126.643, 506.9228
1127.125, 509.2538
1127.607, 510.9786
1128.089, 512.0280
1128.571, 513.3813
1129.053, 515.6165
1129.535, 518.2494
1130.017, 520.6061
1130.500, 522.7635
1130.982, 525.2911
1131.464, 528.2123
1131.946, 531.0297
1132.428, 533.7042
1132.910, 536.0585
1133.392, 538.0014
1133.874, 539.5159
1134.357, 540.3585
1134.839, 541.3729
1135.321, 545.2990
1135.803, 551.6735
1136.285, 555.6301
1136.767, 557.1969
1137.249, 558.3716
1137.731, 559.6524
1138.214, 560.8887
1138.696, 561.9038
1139.178, 563.9592
1139.660, 569.8634
1140.142, 577.7733
1140.624, 581.5275
1141.106, 582.3889
1141.588, 585.1505
1142.070, 589.9460
1142.552, 593.5986
1143.035, 594.9259
1143.517, 596.0242
1143.999, 598.6769
1144.481, 602.3491
1144.963, 607.1416
1145.445, 611.8470
1145.927, 613.3618
1146.409, 613.0251
1146.892, 614.9163
1147.374, 619.5388
1147.856, 623.7858
1148.338, 625.7437
1148.820, 627.8203
1149.302, 633.0113
1149.784, 638.5829
1150.266, 641.4695
1150.749, 642.9932
1151.231, 645.0309
1151.713, 647.6923
1152.195, 650.0576
1152.677, 651.8488
1153.159, 654.9645
1153.641, 661.8622
1154.123, 668.5269
1154.605, 672.2626
1155.088, 675.1541
1155.570, 678.7355
1156.052, 682.8612
1156.534, 687.3719
1157.016, 692.0692
1157.498, 695.8671
1157.980, 697.4225
1158.462, 700.2784
1158.944, 706.0468
1159.427, 712.3749
1159.909, 719.1180
1160.391, 725.1992
1160.873, 728.7094
1161.355, 730.8759
1161.837, 735.4247
1162.319, 743.3432
1162.801, 750.0697
1163.284, 755.8733
1163.766, 759.9274
1164.248, 760.0402
1164.730, 761.5620
1165.212, 768.3011
1165.694, 776.7835
1166.176, 781.8942
1166.658, 784.1787
1167.141, 788.9567
1167.623, 797.1833
1168.105, 803.6608
1168.587, 807.5660
1169.069, 812.2841
1169.551, 819.2467
1170.033, 825.6854
1170.515, 829.1107
1170.997, 831.5264
1171.479, 837.9430
1171.962, 847.7809
1172.444, 852.4595
1172.926, 852.4137
1173.408, 858.2590
1173.890, 871.3683
1174.372, 882.6128
1174.854, 887.7529
1175.336, 891.9360
1175.819, 900.8102
1176.301, 911.8706
1176.783, 919.8505
1177.265, 925.9596
1177.747, 933.8236
1178.229, 942.8163
1178.711, 949.2228
1179.193, 952.9863
1179.676, 958.9850
1180.158, 970.1540
1180.640, 982.2101
1181.122, 991.1263
1181.604, 998.7360
1182.086, 1006.660
1182.568, 1014.931
1183.050, 1022.825
1183.532, 1031.171
1184.015, 1043.053
1184.497, 1058.733
1184.979, 1071.346
1185.461, 1075.075
1185.943, 1079.517
1186.425, 1089.665
1186.907, 1101.286
1187.389, 1111.719
1187.871, 1121.932
1188.354, 1133.674
1188.836, 1146.349
1189.318, 1157.279
1189.800, 1165.175
1190.282, 1174.737
1190.764, 1188.118
1191.246, 1200.604
1191.728, 1209.534
1192.211, 1219.752
1192.693, 1235.100
1193.175, 1251.828
1193.657, 1264.066
1194.139, 1272.755
1194.621, 1287.039
1195.103, 1309.150
1195.585, 1326.742
1196.068, 1338.102
1196.550, 1351.006
1197.032, 1367.927
1197.514, 1385.635
1197.996, 1401.692
1198.478, 1417.093
1198.960, 1433.710
1199.442, 1451.228
1199.924, 1468.395
1200.406, 1485.279
1200.889, 1502.453
1201.371, 1520.103
1201.853, 1539.330
1202.335, 1560.305
1202.817, 1580.302
1203.299, 1596.770
1203.781, 1613.298
1204.263, 1634.761
1204.746, 1659.355
1205.228, 1685.520
1205.710, 1712.162
1206.192, 1737.110
1206.674, 1760.621
1207.156, 1784.219
1207.638, 1808.292
1208.120, 1834.333
1208.603, 1864.365
1209.085, 1894.835
1209.567, 1923.842
1210.049, 1952.778
1210.531, 1981.162
1211.013, 2010.811
1211.495, 2045.489
1211.977, 2083.936
1212.459, 2119.406
1212.942, 2149.490
1213.424, 2181.365
1213.906, 2215.995
1214.388, 2251.829
1214.870, 2289.860
1215.352, 2327.431
1215.834, 2363.007
1216.316, 2397.376
1216.798, 2431.540
1217.281, 2465.636
1217.763, 2499.259
1218.245, 2532.435
1218.727, 2564.844
1219.209, 2595.962
1219.691, 2631.777
1220.173, 2673.967
1220.655, 2714.538
1221.138, 2747.864
1221.620, 2778.313
1222.102, 2813.140
1222.584, 2849.694
1223.066, 2880.359
1223.548, 2907.383
1224.030, 2938.031
1224.512, 2971.094
1224.995, 2999.709
1225.477, 3022.727
1225.959, 3046.007
1226.441, 3073.491
1226.923, 3100.021
1227.405, 3120.285
1227.887, 3138.956
1228.369, 3160.570
1228.851, 3182.146
1229.333, 3200.851
1229.816, 3216.428
1230.298, 3227.771
1230.780, 3235.059
1231.262, 3246.929
1231.744, 3270.216
1232.226, 3290.283
1232.708, 3304.184
1233.190, 3315.755
1233.673, 3321.779
1234.155, 3331.801
1234.637, 3355.523
1235.119, 3386.413
1235.601, 3410.295
1236.083, 3427.262
1236.565, 3448.061
1237.047, 3473.129
1237.530, 3499.221
1238.012, 3526.175
1238.494, 3552.068
1238.976, 3576.169
1239.458, 3600.827
1239.940, 3627.904
1240.422, 3657.580
1240.904, 3690.863
1241.386, 3727.132
1241.869, 3766.096
1242.351, 3806.562
1242.833, 3845.069
1243.315, 3882.677
1243.797, 3923.939
1244.279, 3970.013
1244.761, 4017.301
1245.243, 4064.720
1245.725, 4111.503
1246.208, 4154.591
1246.690, 4200.002
1247.172, 4252.842
1247.654, 4309.171
1248.136, 4365.743
1248.618, 4421.754
1249.100, 4476.249
1249.582, 4529.145
1250.065, 4582.501
1250.547, 4634.286
1251.029, 4690.717
1251.511, 4753.305
1251.993, 4818.100
1252.475, 4885.123
1252.957, 4951.882
1253.439, 5017.042
1253.922, 5079.250
1254.404, 5134.518
1254.886, 5185.088
1255.368, 5248.417
1255.850, 5323.170
1256.332, 5399.059
1256.814, 5474.304
1257.296, 5543.956
1257.778, 5607.149
1258.260, 5672.521
1258.743, 5746.048
1259.225, 5820.103
1259.707, 5884.637
1260.189, 5946.899
1260.671, 6017.847
1261.153, 6089.513
1261.635, 6146.245
1262.117, 6197.499
1262.600, 6266.872
1263.082, 6354.210
1263.564, 6430.880
1264.046, 6483.574
1264.528, 6539.641
1265.010, 6608.103
1265.492, 6675.289
1265.974, 6736.331
1266.457, 6796.268
1266.939, 6857.643
1267.421, 6919.544
1267.903, 6981.001
1268.385, 7041.673
1268.867, 7098.731
1269.349, 7152.212
1269.831, 7205.054
1270.313, 7257.264
1270.796, 7308.858
1271.278, 7359.890
1271.760, 7410.180
1272.242, 7459.677
1272.724, 7507.877
1273.206, 7554.534
1273.688, 7599.751
1274.170, 7641.923
1274.652, 7683.909
1275.135, 7730.374
1275.617, 7779.376
1276.099, 7826.592
1276.581, 7872.766
1277.063, 7922.331
1277.545, 7977.175
1278.027, 8028.208
1278.509, 8073.673
1278.992, 8113.919
1279.474, 8143.155
1279.956, 8174.887
1280.438, 8216.380
1280.920, 8259.975
1281.402, 8298.338
1281.884, 8335.060
1282.366, 8380.276
1282.849, 8432.975
1283.331, 8467.334
1283.813, 8483.090
1284.295, 8515.085
1284.777, 8565.654
1285.259, 8611.332
1285.741, 8645.028
1286.223, 8674.979
1286.705, 8706.977
1287.188, 8741.338
##END=



