##NAMES=Vanadinite
##RRUFFID=R050533
##IDEAL CHEMISTRY=Pb^2+^_5_(V^5+^O_4_)_3_Cl
##LOCALITY=Ahumada mine, Los Lamentos, Mexico
##OWNER=RRUFF
##SOURCE=University of Arizona Mineral Museum
##DESCRIPTION=Greenish-brown hexagonal prisms
##STATUS=The identification of this mineral has been confirmed by X-ray diffraction and chemical analysis
##URL=rruff.info/R050533
##MEASURED CHEMISTRY=Pb_5.00_((V_0.95_As_0.05_)O_4_)_3_Cl_1.00_
92.37695, 645.1088
92.85907, 635.7823
93.34119, 637.9589
93.82330, 646.6618
94.30542, 653.2278
94.78754, 655.7414
95.26965, 655.5703
95.75177, 653.4816
96.23389, 649.7478
96.71600, 644.7842
97.19812, 639.3427
97.68024, 633.5941
98.16235, 627.8135
98.64447, 622.4024
99.12659, 617.6494
99.60870, 611.0671
100.0908, 604.4426
100.5729, 597.4218
101.0551, 589.1617
101.5372, 578.9758
102.0193, 567.2983
102.5014, 556.9768
102.9835, 548.3971
103.4656, 540.6183
103.9478, 533.8017
104.4299, 527.5898
104.9120, 521.4677
105.3941, 515.0049
105.8762, 508.0478
106.3583, 501.6332
106.8405, 496.1575
107.3226, 490.6180
107.8047, 484.1215
108.2868, 476.6900
108.7689, 469.4043
109.2510, 463.5545
109.7332, 459.2037
110.2153, 455.3077
110.6974, 451.7757
111.1795, 448.6104
111.6616, 445.8163
112.1437, 443.4494
112.6259, 441.4143
113.1080, 439.5048
113.5901, 437.7237
114.0722, 436.3210
114.5543, 435.5317
115.0364, 435.3324
115.5185, 435.3454
116.0007, 435.4279
116.4828, 435.7869
116.9649, 436.6440
117.4470, 438.0166
117.9291, 439.5934
118.4112, 440.8805
118.8934, 441.5039
119.3755, 442.7779
119.8576, 444.8432
120.3397, 447.4892
120.8218, 450.7346
121.3039, 454.5703
121.7861, 458.7071
122.2682, 462.3470
122.7503, 464.9046
123.2324, 467.5125
123.7145, 470.0705
124.1966, 472.7532
124.6788, 475.8335
125.1609, 479.5457
125.6430, 483.7784
126.1251, 487.5615
126.6072, 490.4572
127.0893, 493.4554
127.5715, 496.9273
128.0536, 500.8618
128.5357, 505.1187
129.0178, 509.8379
129.4999, 514.8410
129.9821, 519.1945
130.4642, 522.2849
130.9463, 525.0521
131.4284, 528.6404
131.9105, 533.2859
132.3926, 537.8308
132.8748, 541.3484
133.3569, 544.1694
133.8390, 546.6835
134.3211, 548.5846
134.8032, 550.2327
135.2853, 553.0861
135.7674, 558.3111
136.2496, 563.1703
136.7317, 566.3537
137.2138, 568.1335
137.6959, 569.2320
138.1780, 570.1578
138.6601, 570.9197
139.1423, 571.4295
139.6244, 571.4145
140.1065, 571.3679
140.5886, 571.6014
141.0707, 572.0466
141.5528, 572.3590
142.0350, 572.1389
142.5171, 571.3035
142.9992, 570.0308
143.4813, 568.3962
143.9634, 566.3814
144.4455, 563.7404
144.9277, 560.4929
145.4098, 557.1251
145.8919, 554.4933
146.3740, 553.5342
146.8561, 551.5226
147.3382, 547.6777
147.8204, 542.9279
148.3025, 538.3873
148.7846, 534.4483
149.2667, 530.8400
149.7488, 526.9088
150.2309, 522.4606
150.7131, 518.3000
151.1952, 515.2496
151.6773, 512.8348
152.1594, 509.4734
152.6415, 504.0529
153.1236, 497.8548
153.6058, 492.9128
154.0879, 489.5205
154.5700, 486.5484
155.0521, 483.1519
155.5342, 479.3258
156.0163, 475.4807
156.4985, 471.5505
156.9806, 467.8231
157.4627, 464.6579
157.9448, 462.2155
158.4269, 460.0246
158.9090, 457.2857
159.3912, 453.6644
159.8733, 450.3600
160.3554, 447.8125
160.8375, 445.5991
161.3196, 443.3348
161.8017, 440.8546
162.2839, 438.2724
162.7660, 435.9489
163.2481, 433.9712
163.7302, 432.1720
164.2123, 430.6805
164.6944, 429.2969
165.1766, 427.8223
165.6587, 426.1418
166.1408, 424.2578
166.6229, 422.1163
167.1050, 418.8129
167.5871, 416.2286
168.0693, 415.2555
168.5514, 415.2903
169.0335, 415.1211
169.5156, 413.9223
169.9977, 411.7679
170.4798, 410.0591
170.9620, 409.1410
171.4441, 408.2413
171.9262, 407.0953
172.4083, 405.6895
172.8904, 404.0172
173.3725, 402.0097
173.8547, 399.7020
174.3368, 397.5053
174.8189, 395.4449
175.3010, 393.4628
175.7831, 391.5557
176.2652, 389.7220
176.7474, 387.8561
177.2295, 385.9100
177.7116, 383.8652
178.1937, 381.7238
178.6758, 379.5616
179.1579, 377.2688
179.6401, 374.6518
180.1222, 371.6885
180.6043, 368.4774
181.0864, 364.8069
181.5685, 360.9666
182.0506, 357.5030
182.5328, 354.8986
183.0149, 352.8299
183.4970, 350.2336
183.9791, 346.8515
184.4612, 343.3094
184.9433, 339.9407
185.4255, 336.6397
185.9076, 333.1751
186.3897, 329.3332
186.8718, 325.1656
187.3539, 321.3284
187.8360, 317.9276
188.3182, 314.7840
188.8003, 312.0550
189.2824, 309.5458
189.7645, 306.8464
190.2466, 303.5420
190.7287, 299.5587
191.2109, 296.4893
191.6930, 295.1384
192.1751, 293.8954
192.6572, 292.4630
193.1393, 290.7348
193.6214, 288.5739
194.1036, 285.7915
194.5857, 282.2144
195.0678, 279.3794
195.5499, 277.7266
196.0320, 276.2257
196.5141, 274.3795
196.9963, 272.2104
197.4784, 270.0232
197.9605, 268.1078
198.4426, 266.5068
198.9247, 264.9528
199.4068, 263.4408
199.8890, 261.9733
200.3711, 260.5200
200.8532, 259.0859
201.3353, 257.7742
201.8174, 256.7378
202.2995, 255.9909
202.7817, 254.9979
203.2638, 253.4145
203.7459, 251.7627
204.2280, 250.6382
204.7101, 250.1245
205.1922, 249.6110
205.6744, 248.4003
206.1565, 246.6547
206.6386, 245.1736
207.1207, 244.2641
207.6028, 243.6484
208.0849, 242.9548
208.5671, 242.1367
209.0492, 241.3150
209.5313, 240.6410
210.0134, 240.0413
210.4955, 239.3479
210.9776, 238.3570
211.4598, 237.2451
211.9419, 236.4557
212.4240, 236.1768
212.9061, 235.8411
213.3882, 235.0236
213.8703, 233.9210
214.3525, 232.8823
214.8346, 232.0775
215.3167, 231.4738
215.7988, 230.9601
216.2809, 230.4877
216.7630, 230.2018
217.2451, 230.3105
217.7273, 230.6040
218.2094, 230.7207
218.6915, 230.4247
219.1736, 229.7699
219.6557, 229.0719
220.1378, 228.2636
220.6200, 227.4990
221.1021, 226.7348
221.5842, 226.0528
222.0663, 225.5895
222.5484, 225.4660
223.0305, 225.6441
223.5127, 225.7552
223.9948, 225.8918
224.4769, 225.8438
224.9590, 225.4391
225.4411, 224.8310
225.9232, 224.2682
226.4054, 223.9134
226.8875, 223.7542
227.3696, 223.6227
227.8517, 223.6518
228.3338, 223.5708
228.8159, 223.0899
229.2981, 222.4725
229.7802, 222.2432
230.2623, 222.7938
230.7444, 224.0098
231.2265, 224.5569
231.7086, 223.8010
232.1908, 223.1284
232.6729, 222.8773
233.1550, 222.9607
233.6371, 223.1840
234.1192, 223.4450
234.6013, 223.7309
235.0835, 223.9417
235.5656, 224.0246
236.0477, 224.1064
236.5298, 224.2289
237.0119, 224.3777
237.4940, 224.5132
237.9762, 224.6041
238.4583, 224.6724
238.9404, 224.8277
239.4225, 225.2296
239.9046, 225.5256
240.3867, 225.4553
240.8689, 225.1736
241.3510, 225.0770
241.8331, 225.3906
242.3152, 225.9924
242.7973, 226.5000
243.2794, 226.8177
243.7616, 227.2048
244.2437, 227.8823
244.7258, 228.7354
245.2079, 229.3669
245.6900, 229.4932
246.1721, 229.4542
246.6543, 229.9745
247.1364, 231.2453
247.6185, 232.4870
248.1006, 233.3032
248.5827, 233.7666
249.0648, 234.0990
249.5470, 234.2298
250.0291, 234.4508
250.5112, 235.1481
250.9933, 236.3439
251.4754, 237.7791
251.9576, 239.5625
252.4397, 241.5440
252.9218, 243.0430
253.4039, 243.5799
253.8860, 243.9412
254.3681, 245.0278
254.8503, 246.8347
255.3324, 248.6854
255.8145, 250.0763
256.2966, 251.1190
256.7787, 252.3907
257.2608, 254.0527
257.7430, 255.9041
258.2251, 257.6488
258.7072, 259.3387
259.1893, 261.3227
259.6714, 263.9171
260.1535, 267.0285
260.6357, 270.1744
261.1178, 273.2834
261.5999, 276.4631
262.0820, 279.6501
262.5641, 282.9272
263.0462, 286.5451
263.5284, 290.9338
264.0105, 295.8971
264.4926, 300.2546
264.9747, 303.1749
265.4568, 306.6892
265.9389, 311.9420
266.4211, 318.4168
266.9032, 325.0169
267.3853, 331.0039
267.8674, 336.5952
268.3495, 342.8339
268.8316, 350.0062
269.3138, 357.4717
269.7959, 364.9380
270.2780, 372.4974
270.7601, 380.3028
271.2422, 388.4444
271.7243, 396.8776
272.2065, 405.3792
272.6886, 414.0345
273.1707, 422.5268
273.6528, 430.5312
274.1349, 438.4565
274.6170, 446.6523
275.0992, 455.3098
275.5813, 464.3775
276.0634, 473.6647
276.5455, 483.2384
277.0276, 492.9848
277.5097, 502.6423
277.9919, 512.5422
278.4740, 523.0480
278.9561, 534.3345
279.4382, 546.0762
279.9203, 557.8583
280.4024, 569.8302
280.8846, 581.3895
281.3667, 592.0131
281.8488, 602.5515
282.3309, 613.6494
282.8130, 625.4445
283.2951, 637.5105
283.7773, 649.3143
284.2594, 661.0530
284.7415, 671.9657
285.2236, 682.4766
285.7057, 691.9828
286.1878, 700.1298
286.6700, 706.8414
287.1521, 712.3134
287.6342, 716.8265
288.1163, 720.4809
288.5984, 722.5222
289.0805, 723.2496
289.5627, 722.2806
290.0448, 719.2021
290.5269, 714.1495
291.0090, 707.6063
291.4911, 699.9150
291.9732, 691.0399
292.4554, 681.6562
292.9375, 671.8884
293.4196, 661.4728
293.9017, 649.7292
294.3838, 637.2380
294.8659, 625.0970
295.3481, 614.0695
295.8302, 604.0967
296.3123, 594.9918
296.7944, 587.0961
297.2765, 579.7486
297.7586, 572.4439
298.2408, 565.7051
298.7229, 560.4557
299.2050, 557.2526
299.6871, 555.7288
300.1692, 554.5067
300.6513, 553.3423
301.1335, 552.8725
301.6156, 553.0114
302.0977, 553.9215
302.5798, 555.8898
303.0619, 559.0127
303.5440, 562.9493
304.0262, 567.0488
304.5083, 571.2105
304.9904, 575.6956
305.4725, 580.1068
305.9546, 585.0334
306.4367, 591.0701
306.9189, 598.3002
307.4010, 606.2880
307.8831, 614.4150
308.3652, 622.5017
308.8473, 631.2498
309.3294, 640.6717
309.8116, 650.6579
310.2937, 661.1291
310.7758, 672.0829
311.2579, 683.5479
311.7400, 695.5254
312.2221, 708.2241
312.7043, 720.6133
313.1864, 732.0582
313.6685, 743.9066
314.1506, 756.9551
314.6327, 770.9172
315.1148, 785.1201
315.5970, 799.0978
316.0791, 812.8162
316.5612, 825.7249
317.0433, 838.6531
317.5254, 849.9417
318.0075, 859.2042
318.4897, 866.5599
318.9718, 872.2888
319.4539, 876.5473
319.9360, 879.1577
320.4181, 879.5906
320.9002, 879.1457
321.3824, 874.2886
321.8645, 863.6752
322.3466, 849.2747
322.8287, 832.4745
323.3108, 813.9644
323.7929, 794.0463
324.2751, 773.3935
324.7572, 751.7053
325.2393, 729.6493
325.7214, 706.4797
326.2035, 683.3979
326.6856, 660.7808
327.1678, 638.8771
327.6499, 617.9482
328.1320, 598.1769
328.6141, 579.5250
329.0962, 562.1985
329.5783, 546.1206
330.0605, 531.2033
330.5426, 517.6978
331.0247, 505.3318
331.5068, 493.5903
331.9889, 482.0005
332.4710, 470.6381
332.9532, 460.7889
333.4353, 453.0680
333.9174, 446.2286
334.3995, 440.2980
334.8816, 435.0784
335.3637, 430.2673
335.8459, 425.7289
336.3280, 421.6652
336.8101, 418.8508
337.2922, 418.2028
337.7743, 417.5204
338.2564, 416.1680
338.7386, 414.9571
339.2206, 414.4924
339.7028, 414.9795
340.1849, 416.4137
340.6670, 418.8465
341.1491, 422.5025
341.6312, 426.6410
342.1133, 431.0281
342.5955, 435.9858
343.0776, 441.6325
343.5597, 448.0144
344.0418, 455.1925
344.5239, 463.2846
345.0060, 472.3246
345.4882, 481.6756
345.9703, 491.5788
346.4524, 501.5991
346.9345, 511.6214
347.4166, 521.6826
347.8987, 531.9256
348.3809, 542.4252
348.8630, 553.0961
349.3451, 563.3312
349.8272, 572.7996
350.3093, 582.4971
350.7914, 592.5465
351.2736, 602.9225
351.7557, 613.5359
352.2378, 624.3859
352.7199, 635.4650
353.2020, 646.7050
353.6841, 658.0963
354.1663, 669.6717
354.6484, 680.9892
355.1305, 692.8330
355.6126, 705.7101
356.0947, 719.6181
356.5768, 734.1266
357.0590, 748.9039
357.5411, 763.8643
358.0232, 779.1809
358.5053, 795.4875
358.9874, 811.3976
359.4695, 826.3558
359.9517, 840.4664
360.4338, 854.0904
360.9159, 867.9588
361.3980, 881.1342
361.8801, 891.0251
362.3622, 897.6063
362.8444, 900.6054
363.3265, 901.0729
363.8086, 897.7986
364.2907, 889.0380
364.7728, 874.0349
365.2549, 854.5335
365.7371, 832.5995
366.2192, 808.1702
366.7013, 780.9257
367.1834, 748.7542
367.6655, 715.1995
368.1476, 682.2744
368.6298, 650.1111
369.1119, 619.5696
369.5940, 591.7020
370.0761, 566.1317
370.5582, 541.1700
371.0403, 516.0853
371.5225, 492.8195
372.0046, 472.9278
372.4867, 455.6969
372.9688, 439.4359
373.4509, 423.4520
373.9330, 408.2219
374.4152, 394.5236
374.8973, 382.4657
375.3794, 371.4654
375.8615, 361.5274
376.3436, 352.5030
376.8257, 344.0941
377.3079, 336.3047
377.7900, 329.0294
378.2721, 322.2765
378.7542, 315.9908
379.2363, 309.8991
379.7184, 303.7831
380.2006, 298.0365
380.6827, 293.1913
381.1648, 289.2169
381.6469, 285.5839
382.1290, 282.3983
382.6111, 279.3275
383.0933, 275.7864
383.5754, 271.6646
384.0575, 267.6795
384.5396, 264.3346
385.0217, 261.6518
385.5038, 259.2376
385.9860, 257.3000
386.4681, 255.4471
386.9502, 253.4062
387.4323, 251.2472
387.9144, 249.1850
388.3965, 247.3286
388.8787, 245.6382
389.3608, 244.0356
389.8429, 242.5547
390.3250, 241.0537
390.8071, 239.2955
391.2892, 237.5907
391.7714, 236.4064
392.2535, 235.8316
392.7356, 235.4374
393.2177, 234.7490
393.6998, 233.7192
394.1819, 232.5253
394.6641, 230.8102
395.1462, 229.2577
395.6283, 228.4767
396.1104, 228.2316
396.5925, 227.7486
397.0746, 226.4719
397.5568, 224.6115
398.0389, 223.3019
398.5210, 223.0850
399.0031, 222.7951
399.4852, 222.2136
399.9673, 221.5383
400.4495, 221.0049
400.9316, 220.6834
401.4137, 220.4446
401.8958, 220.1408
402.3779, 219.9426
402.8600, 219.1799
403.3422, 217.1283
403.8243, 215.2294
404.3064, 214.3367
404.7885, 214.2779
405.2706, 214.3352
405.7527, 213.9665
406.2349, 213.2285
406.7170, 212.6095
407.1991, 212.3820
407.6812, 211.8691
408.1633, 210.6486
408.6454, 209.2039
409.1276, 208.0692
409.6097, 207.4419
410.0918, 207.1150
410.5739, 206.9072
411.0560, 206.9293
411.5381, 206.4749
412.0203, 204.8895
412.5024, 203.2450
412.9845, 202.2293
413.4666, 201.7689
413.9487, 201.3010
414.4308, 200.4067
414.9130, 199.1919
415.3951, 198.0285
415.8772, 196.8787
416.3593, 195.8763
416.8414, 195.2636
417.3235, 194.7937
417.8057, 194.1102
418.2878, 193.0439
418.7699, 191.9081
419.2520, 190.9719
419.7341, 190.2274
420.2162, 189.6089
420.6984, 189.1280
421.1805, 188.7339
421.6626, 188.4335
422.1447, 188.2341
422.6268, 187.8295
423.1089, 186.8809
423.5911, 185.7643
424.0732, 185.0471
424.5553, 184.7957
425.0374, 184.5808
425.5195, 184.0826
426.0016, 183.3328
426.4838, 182.6336
426.9659, 181.9289
427.4480, 181.3317
427.9301, 181.0694
428.4122, 180.9411
428.8943, 180.4435
429.3765, 179.3492
429.8586, 178.0714
430.3407, 177.3490
430.8228, 177.5506
431.3049, 177.5349
431.7870, 177.1198
432.2692, 176.6182
432.7513, 176.2590
433.2334, 176.0455
433.7155, 175.8495
434.1976, 175.5726
434.6797, 175.2190
435.1619, 174.8384
435.6440, 174.4415
436.1261, 173.9993
436.6082, 173.3976
437.0903, 172.7925
437.5724, 172.3969
438.0546, 172.2769
438.5367, 172.2561
439.0188, 172.0475
439.5009, 171.5799
439.9830, 171.1510
440.4651, 170.6836
440.9473, 170.3291
441.4294, 170.2090
441.9115, 170.2706
442.3936, 170.3779
442.8757, 170.4853
443.3578, 170.5447
443.8400, 170.3723
444.3221, 169.9003
444.8042, 169.3633
445.2863, 168.7863
445.7684, 168.2147
446.2505, 167.6756
446.7327, 167.1694
447.2148, 166.7699
447.6969, 166.5828
448.1790, 166.5763
448.6611, 166.5926
449.1432, 166.6607
449.6254, 166.6436
450.1075, 166.3305
450.5896, 165.8206
451.0717, 165.4193
451.5538, 165.2010
452.0359, 165.1310
452.5181, 165.3752
453.0002, 165.8416
453.4823, 165.8176
453.9644, 164.7946
454.4465, 163.3100
454.9286, 162.6225
455.4108, 162.9026
455.8929, 163.2520
456.3750, 163.6366
456.8571, 163.8992
457.3392, 163.7928
457.8214, 163.3148
458.3035, 162.7746
458.7856, 162.4447
459.2677, 162.3277
459.7498, 162.1635
460.2319, 161.7693
460.7141, 161.5433
461.1962, 161.8490
461.6783, 162.3121
462.1604, 162.3288
462.6425, 161.6838
463.1246, 160.7906
463.6068, 160.4006
464.0889, 160.8444
464.5710, 160.9176
465.0531, 160.2246
465.5352, 159.5528
466.0173, 159.3164
466.4995, 159.4213
466.9816, 159.5418
467.4637, 159.4680
467.9458, 159.2572
468.4279, 159.0964
468.9100, 159.0130
469.3922, 158.9069
469.8743, 158.7354
470.3564, 158.5363
470.8385, 158.3245
471.3206, 158.1035
471.8027, 157.9128
472.2849, 157.7548
472.7670, 157.6471
473.2491, 157.7086
473.7312, 158.0325
474.2133, 158.2840
474.6954, 158.1880
475.1776, 157.8371
475.6597, 157.4178
476.1418, 156.8565
476.6239, 156.3619
477.1060, 156.1348
477.5881, 156.0986
478.0703, 156.0152
478.5524, 155.7994
479.0345, 155.5366
479.5166, 155.3380
479.9987, 155.1985
480.4808, 155.1662
480.9630, 155.4565
481.4451, 155.6797
481.9272, 155.4768
482.4093, 154.9535
482.8914, 154.4986
483.3735, 154.3515
483.8557, 154.4215
484.3378, 154.3799
484.8199, 154.0706
485.3020, 153.8721
485.7841, 153.8873
486.2662, 153.9488
486.7484, 153.8939
487.2305, 153.7282
487.7126, 153.6092
488.1947, 153.7018
488.6768, 153.9874
489.1589, 154.1913
489.6411, 154.4136
490.1232, 154.3753
490.6053, 153.7869
491.0874, 153.0238
491.5695, 152.5122
492.0516, 152.3754
492.5338, 152.4338
493.0159, 152.6182
493.4980, 152.8923
493.9801, 152.8728
494.4622, 152.3665
494.9443, 151.8235
495.4265, 151.6166
495.9086, 151.6665
496.3907, 151.7912
496.8728, 152.1397
497.3549, 152.3770
497.8370, 152.0763
498.3192, 151.3925
498.8013, 150.9303
499.2834, 150.9538
499.7655, 151.2040
500.2476, 151.2662
500.7297, 151.0887
501.2119, 150.9002
501.6940, 150.6485
502.1761, 150.4427
502.6582, 150.4214
503.1403, 150.5243
503.6224, 150.5297
504.1045, 150.2830
504.5866, 149.8889
505.0688, 149.7330
505.5509, 150.0436
506.0330, 150.2386
506.5151, 150.3353
506.9972, 150.2799
507.4793, 149.9400
507.9615, 149.3737
508.4436, 148.8459
508.9257, 148.5813
509.4078, 148.5456
509.8899, 148.5718
510.3720, 148.7681
510.8542, 148.7863
511.3363, 148.1789
511.8184, 147.4952
512.3005, 147.3972
512.7827, 148.0582
513.2648, 148.6672
513.7469, 148.4730
514.2290, 147.7507
514.7111, 147.3040
515.1932, 147.2532
515.6754, 147.3856
516.1575, 147.6217
516.6396, 147.9158
517.1217, 148.0664
517.6038, 148.0122
518.0859, 147.8764
518.5681, 147.7067
519.0502, 147.4948
519.5323, 147.1827
520.0144, 146.7570
520.4965, 146.3720
520.9786, 146.2204
521.4608, 146.3372
521.9429, 146.4845
522.4250, 146.7702
522.9071, 146.9666
523.3892, 146.9460
523.8713, 146.7962
524.3535, 146.6567
524.8356, 146.5851
525.3177, 146.5236
525.7998, 146.3591
526.2819, 146.0550
526.7640, 145.8260
527.2462, 145.6138
527.7283, 145.5677
528.2104, 145.9717
528.6925, 146.5816
529.1746, 146.8111
529.6567, 146.2333
530.1389, 145.4487
530.6210, 145.3888
531.1031, 145.9985
531.5852, 146.2541
532.0673, 145.6955
532.5494, 144.9339
533.0316, 144.7760
533.5137, 145.1763
533.9958, 145.5042
534.4779, 145.5844
534.9600, 145.5864
535.4421, 145.6710
535.9243, 145.7989
536.4064, 145.8130
536.8885, 145.6319
537.3706, 145.3278
537.8527, 145.0487
538.3348, 144.7536
538.8170, 144.5719
539.2991, 144.5815
539.7812, 144.6258
540.2633, 144.5832
540.7454, 144.4959
541.2275, 144.5199
541.7097, 144.7753
542.1918, 145.1197
542.6739, 145.1506
543.1560, 144.7585
543.6381, 144.4024
544.1202, 144.1863
544.6024, 144.0227
545.0845, 143.8498
545.5666, 143.6754
546.0487, 143.5601
546.5308, 143.6567
547.0129, 143.7688
547.4951, 143.4597
547.9772, 142.7461
548.4593, 142.3263
548.9414, 142.6098
549.4235, 143.2020
549.9056, 143.3519
550.3878, 142.9845
550.8699, 142.7375
551.3520, 142.7249
551.8341, 142.8817
552.3162, 143.3344
552.7983, 143.9403
553.2805, 144.2163
553.7626, 143.8528
554.2447, 143.0893
554.7268, 142.6180
555.2089, 142.5582
555.6910, 142.5967
556.1732, 142.9062
556.6553, 143.1416
557.1374, 143.0204
557.6195, 142.6254
558.1016, 142.2631
558.5837, 142.1309
559.0659, 142.1445
559.5480, 142.0864
560.0301, 141.9259
560.5122, 141.8874
560.9943, 142.1561
561.4764, 142.4545
561.9586, 142.5131
562.4407, 142.3413
562.9228, 142.1107
563.4049, 141.7608
563.8870, 141.4686
564.3691, 141.5089
564.8513, 141.8167
565.3334, 142.0324
565.8155, 141.9926
566.2976, 141.7764
566.7797, 141.5101
567.2618, 141.0856
567.7440, 140.8883
568.2261, 141.0955
568.7082, 141.3661
569.1903, 141.4996
569.6724, 141.5340
570.1545, 141.6120
570.6367, 141.8128
571.1188, 142.0618
571.6009, 142.2272
572.0830, 142.3435
572.5651, 142.2315
573.0472, 141.5359
573.5294, 140.9408
574.0115, 140.9055
574.4936, 141.2687
574.9757, 141.5591
575.4578, 141.5381
575.9399, 141.4239
576.4221, 141.5071
576.9042, 141.7399
577.3863, 141.8189
577.8684, 141.6145
578.3505, 141.3691
578.8326, 141.4566
579.3148, 141.9186
579.7969, 141.8831
580.2790, 140.7171
580.7611, 139.6868
581.2432, 139.5565
581.7253, 139.9328
582.2075, 140.0631
582.6896, 139.7048
583.1717, 139.3199
583.6538, 139.6148
584.1359, 140.7359
584.6180, 141.4890
585.1002, 141.7352
585.5823, 141.7575
586.0643, 141.5300
586.5464, 141.1855
587.0286, 140.8743
587.5107, 140.6338
587.9928, 140.4721
588.4749, 140.3912
588.9570, 140.3933
589.4391, 140.5442
589.9213, 140.9074
590.4034, 141.1465
590.8855, 140.9734
591.3676, 140.4970
591.8497, 140.1448
592.3318, 139.8350
592.8140, 139.7753
593.2961, 140.3487
593.7782, 141.0283
594.2603, 141.1015
594.7424, 140.5754
595.2245, 140.0866
595.7067, 140.1754
596.1888, 140.7102
596.6709, 140.9110
597.1530, 140.4521
597.6351, 140.2286
598.1172, 140.6662
598.5994, 141.1121
599.0815, 140.9442
599.5636, 140.2632
600.0457, 139.7891
600.5278, 140.2016
601.0099, 140.9686
601.4921, 140.8919
601.9742, 139.9545
602.4563, 139.4601
602.9384, 140.0283
603.4205, 141.0052
603.9026, 141.4746
604.3848, 141.4385
604.8669, 141.3835
605.3490, 141.4616
605.8311, 141.4610
606.3132, 141.1499
606.7953, 140.6662
607.2775, 140.2990
607.7596, 140.1631
608.2417, 140.2010
608.7238, 140.3672
609.2059, 140.7330
609.6880, 140.8667
610.1702, 140.4546
610.6523, 140.1682
611.1344, 140.3218
611.6165, 140.6917
612.0986, 140.9746
612.5807, 141.0849
613.0629, 141.1001
613.5450, 141.1000
614.0271, 141.0614
614.5092, 140.8748
614.9913, 140.5068
615.4734, 140.1417
615.9556, 139.8281
616.4377, 139.6301
616.9198, 139.7729
617.4019, 140.4523
617.8840, 141.0604
618.3661, 141.6211
618.8483, 141.9600
619.3304, 141.7419
619.8125, 141.1091
620.2946, 140.6147
620.7767, 140.6292
621.2589, 141.0058
621.7410, 141.3594
622.2231, 141.7717
622.7052, 141.9154
623.1873, 141.4250
623.6694, 140.9463
624.1516, 140.8609
624.6337, 141.0922
625.1158, 141.3903
625.5979, 141.7363
626.0800, 141.9960
626.5621, 141.9552
627.0443, 141.7021
627.5264, 141.5693
628.0085, 141.6513
628.4906, 141.7440
628.9727, 141.6485
629.4548, 141.3640
629.9370, 141.0471
630.4191, 140.3543
630.9012, 140.0639
631.3833, 140.6909
631.8654, 141.5995
632.3475, 142.1678
632.8297, 142.2892
633.3118, 142.1761
633.7939, 141.9434
634.2760, 141.6543
634.7581, 141.6239
635.2402, 141.9479
635.7224, 142.1468
636.2045, 141.9363
636.6866, 141.6594
637.1687, 141.7550
637.6508, 142.1958
638.1329, 142.4230
638.6151, 142.0183
639.0972, 141.5436
639.5793, 141.5181
640.0614, 141.8027
640.5435, 142.0100
641.0256, 142.0025
641.5078, 141.8932
641.9899, 141.8336
642.4720, 141.8366
642.9541, 141.7805
643.4362, 141.5075
643.9183, 141.3624
644.4005, 141.5770
644.8826, 141.8758
645.3647, 141.8805
645.8468, 141.5427
646.3289, 141.2910
646.8110, 141.6044
647.2932, 142.2400
647.7753, 142.6191
648.2574, 142.7252
648.7395, 142.5857
649.2216, 142.1147
649.7037, 141.5286
650.1859, 141.2153
650.6680, 141.2059
651.1501, 141.2968
651.6322, 141.6115
652.1143, 141.8865
652.5964, 141.9776
653.0786, 141.9142
653.5607, 141.7215
654.0428, 141.4197
654.5249, 141.1474
655.0070, 141.1043
655.4891, 141.2968
655.9713, 141.5601
656.4534, 141.9679
656.9355, 142.3024
657.4176, 142.4122
657.8997, 142.4106
658.3818, 142.4554
658.8640, 142.5890
659.3461, 142.5640
659.8282, 142.0275
660.3103, 141.4347
660.7924, 141.3690
661.2745, 141.7546
661.7567, 142.1375
662.2388, 142.3024
662.7209, 142.3038
663.2030, 142.2345
663.6851, 142.0620
664.1672, 141.9230
664.6494, 141.7372
665.1315, 141.6738
665.6136, 141.8575
666.0957, 142.1737
666.5778, 142.4662
667.0599, 142.6928
667.5421, 142.9005
668.0242, 143.2018
668.5063, 143.5015
668.9884, 143.4881
669.4705, 143.1375
669.9526, 142.9026
670.4348, 143.0554
670.9169, 143.4307
671.3990, 143.6619
671.8811, 143.6389
672.3632, 143.7480
672.8453, 144.1273
673.3275, 144.5094
673.8096, 144.8164
674.2917, 145.0029
674.7738, 144.9693
675.2559, 144.6804
675.7380, 144.3535
676.2202, 144.2517
676.7023, 144.3617
677.1844, 144.5378
677.6665, 144.7528
678.1486, 145.1272
678.6307, 145.8703
679.1129, 146.7289
679.5950, 147.2320
680.0771, 147.3432
680.5592, 147.3003
681.0413, 146.9234
681.5234, 146.6185
682.0056, 146.7071
682.4877, 147.1247
682.9698, 147.7356
683.4519, 148.4747
683.9340, 149.1634
684.4161, 149.4881
684.8983, 149.4031
685.3804, 149.4678
685.8625, 149.6529
686.3446, 150.0411
686.8267, 151.0412
687.3088, 152.0703
687.7910, 152.2839
688.2731, 151.4998
688.7552, 151.0800
689.2373, 151.9292
689.7194, 153.2144
690.2015, 154.1197
690.6837, 154.6742
691.1658, 155.1087
691.6479, 155.5157
692.1300, 155.9625
692.6121, 156.5898
693.0942, 157.4526
693.5764, 158.0590
694.0585, 157.9509
694.5406, 158.2087
695.0227, 159.4971
695.5048, 161.0642
695.9869, 162.0218
696.4691, 162.2648
696.9512, 162.6296
697.4333, 163.8245
697.9154, 165.2884
698.3975, 166.1600
698.8796, 166.5684
699.3618, 167.2418
699.8439, 168.4385
700.3260, 170.0131
700.8081, 171.8423
701.2902, 174.0020
701.7723, 175.6958
702.2545, 176.3171
702.7366, 177.1980
703.2187, 178.7421
703.7008, 180.5577
704.1829, 182.2295
704.6650, 183.7324
705.1472, 185.4191
705.6293, 187.5923
706.1114, 190.0166
706.5935, 192.3340
707.0756, 194.5486
707.5577, 196.7146
708.0399, 198.8494
708.5220, 200.9393
709.0041, 202.9519
709.4862, 204.8861
709.9683, 206.9449
710.4504, 209.4884
710.9326, 211.6929
711.4147, 213.0776
711.8968, 214.3255
712.3789, 216.0639
712.8610, 218.2660
713.3431, 220.4334
713.8253, 222.1870
714.3074, 223.8817
714.7895, 226.3591
715.2716, 229.4210
715.7537, 231.6686
716.2358, 232.7239
716.7180, 233.2889
717.2001, 233.8537
717.6822, 234.4230
718.1643, 235.0473
718.6464, 235.9580
719.1285, 236.5896
719.6107, 237.1350
720.0928, 237.1741
720.5749, 236.2397
721.0570, 234.5401
721.5391, 232.5987
722.0212, 230.6268
722.5034, 228.7491
722.9855, 227.4316
723.4676, 226.4524
723.9497, 224.3585
724.4318, 220.8189
724.9139, 217.2447
725.3961, 214.5806
725.8782, 212.4492
726.3603, 209.8520
726.8424, 206.4866
727.3245, 203.3413
727.8066, 200.3439
728.2888, 197.6848
728.7709, 195.5865
729.2530, 193.8767
729.7351, 192.3516
730.2172, 190.9315
730.6993, 189.4214
731.1815, 187.5100
731.6636, 185.3389
732.1457, 183.4031
732.6278, 181.7117
733.1099, 180.3615
733.5920, 179.4724
734.0742, 178.8062
734.5563, 178.0085
735.0384, 177.0449
735.5205, 176.1050
736.0026, 174.9074
736.4847, 174.0625
736.9669, 174.0523
737.4490, 174.3648
737.9311, 174.4559
738.4132, 174.2104
738.8953, 173.7616
739.3774, 173.0984
739.8596, 172.3917
740.3417, 172.0259
740.8238, 171.9822
741.3059, 171.9585
741.7880, 171.8470
742.2701, 171.8562
742.7523, 172.2514
743.2344, 172.9937
743.7165, 173.4602
744.1986, 173.4864
744.6807, 173.4855
745.1628, 173.3021
745.6450, 173.2779
746.1271, 173.8179
746.6092, 174.7484
747.0913, 175.5330
747.5734, 175.8867
748.0555, 176.0872
748.5377, 176.3775
749.0198, 176.7929
749.5019, 177.5271
749.9840, 178.6216
750.4661, 179.7073
750.9482, 180.5944
751.4304, 181.2873
751.9125, 181.7731
752.3946, 181.8046
752.8767, 182.2221
753.3588, 183.1218
753.8409, 184.2702
754.3231, 185.7774
754.8052, 187.3826
755.2873, 188.7279
755.7694, 189.7323
756.2515, 190.6415
756.7336, 191.4881
757.2158, 192.4351
757.6979, 193.9111
758.1800, 195.8031
758.6621, 197.3600
759.1442, 198.2962
759.6263, 199.0665
760.1085, 200.1604
760.5906, 201.5734
761.0727, 203.5178
761.5548, 206.6948
762.0369, 209.3606
762.5190, 210.8467
763.0012, 212.0958
763.4833, 213.8382
763.9654, 215.9920
764.4475, 218.0126
764.9296, 219.5032
765.4117, 221.1161
765.8939, 223.5171
766.3760, 226.3814
766.8581, 229.1094
767.3402, 231.6403
767.8223, 234.2320
768.3044, 237.0650
768.7866, 240.0412
769.2687, 242.8319
769.7508, 245.3322
770.2329, 248.0765
770.7150, 251.2262
771.1971, 254.4331
771.6793, 257.3664
772.1614, 260.3340
772.6435, 263.8032
773.1256, 267.8700
773.6077, 271.9199
774.0898, 275.6585
774.5720, 279.3220
775.0541, 282.9664
775.5362, 286.7105
776.0183, 290.8779
776.5004, 295.5114
776.9825, 300.1841
777.4647, 304.3687
777.9468, 308.2739
778.4289, 312.9601
778.9110, 318.6099
779.3931, 324.2445
779.8752, 329.6605
780.3574, 334.9254
780.8395, 339.9223
781.3216, 344.7845
781.8037, 349.9589
782.2858, 355.6480
782.7679, 361.4243
783.2501, 367.0927
783.7322, 372.8783
784.2143, 379.1341
784.6964, 385.6520
785.1785, 391.8441
785.6606, 397.4520
786.1428, 402.9669
786.6249, 408.8424
787.1070, 415.1411
787.5891, 422.3776
788.0712, 430.5856
788.5533, 438.4996
789.0355, 445.5054
789.5176, 451.9206
789.9997, 458.0129
790.4818, 463.5370
790.9639, 470.3690
791.4460, 479.7614
791.9282, 488.8222
792.4103, 496.4583
792.8924, 503.8239
793.3745, 511.9914
793.8566, 521.0197
794.3387, 530.5762
794.8209, 540.6768
795.3030, 550.9521
795.7851, 560.7829
796.2672, 570.6385
796.7493, 581.6543
797.2314, 593.9255
797.7136, 606.3616
798.1957, 618.2549
798.6778, 629.9991
799.1599, 642.3422
799.6420, 655.1974
800.1241, 669.0799
800.6063, 684.1334
801.0884, 700.0606
801.5705, 716.9534
802.0526, 734.4343
802.5347, 751.7546
803.0168, 768.8116
803.4990, 787.0329
803.9811, 807.1158
804.4632, 828.0964
804.9453, 849.1513
805.4274, 870.6786
805.9095, 893.5974
806.3917, 917.8599
806.8738, 942.7850
807.3559, 967.9047
807.8380, 992.9949
808.3201, 1017.156
808.8022, 1040.569
809.2844, 1064.203
809.7665, 1088.185
810.2486, 1112.649
810.7307, 1137.551
811.2128, 1162.965
811.6949, 1188.745
812.1771, 1215.092
812.6592, 1241.194
813.1413, 1266.536
813.6234, 1292.076
814.1055, 1317.996
814.5876, 1344.274
815.0698, 1370.927
815.5519, 1397.844
816.0340, 1424.215
816.5161, 1449.107
816.9982, 1473.364
817.4803, 1498.537
817.9625, 1523.677
818.4446, 1545.755
818.9267, 1564.336
819.4088, 1582.562
819.8909, 1603.476
820.3730, 1625.241
820.8552, 1640.740
821.3373, 1648.757
821.8194, 1656.242
822.3015, 1664.747
822.7836, 1671.535
823.2657, 1675.751
823.7479, 1676.780
824.2300, 1673.081
824.7121, 1663.734
825.1942, 1653.214
825.6763, 1644.230
826.1584, 1632.464
826.6406, 1614.794
827.1227, 1593.052
827.6048, 1569.941
828.0869, 1546.063
828.5690, 1520.170
829.0511, 1491.164
829.5333, 1459.931
830.0154, 1427.700
830.4975, 1394.551
830.9796, 1361.107
831.4617, 1327.507
831.9438, 1292.453
832.4260, 1254.611
832.9081, 1215.191
833.3902, 1177.440
833.8723, 1142.027
834.3544, 1106.410
834.8365, 1069.842
835.3187, 1034.239
835.8008, 1000.465
836.2829, 968.0180
836.7650, 935.9127
837.2471, 904.1188
837.7292, 873.5980
838.2114, 844.7105
838.6935, 816.9565
839.1756, 790.0502
839.6577, 764.0375
840.1398, 739.0714
840.6219, 715.0540
841.1041, 691.8732
841.5862, 669.3878
842.0683, 647.7787
842.5504, 627.5709
843.0325, 608.6862
843.5146, 590.6176
843.9968, 573.4549
844.4789, 556.6620
844.9610, 539.9303
845.4431, 523.7015
845.9252, 508.9307
846.4073, 495.9065
846.8895, 482.7243
847.3716, 468.5811
847.8537, 455.4133
848.3358, 443.7731
848.8179, 433.0330
849.3000, 422.8647
849.7822, 413.1005
850.2643, 403.1660
850.7464, 392.1859
851.2285, 382.0289
851.7106, 374.1070
852.1927, 367.3506
852.6749, 360.6610
853.1570, 353.8954
853.6391, 347.2284
854.1212, 340.7641
854.6033, 334.3989
855.0854, 327.9390
855.5676, 321.4844
856.0497, 315.6851
856.5318, 310.5576
857.0139, 305.2645
857.4960, 299.4217
857.9781, 293.7743
858.4603, 289.1733
858.9424, 285.5365
859.4245, 281.8093
859.9066, 278.0118
860.3887, 274.0924
860.8708, 269.7757
861.3530, 265.5901
861.8351, 261.8667
862.3172, 258.4460
862.7993, 254.9810
863.2814, 251.3329
863.7635, 248.0233
864.2457, 245.5941
864.7278, 243.2538
865.2099, 240.2441
865.6920, 236.9282
866.1741, 233.9931
866.6563, 231.5751
867.1384, 229.4680
867.6205, 227.5874
868.1026, 225.7722
868.5847, 223.6694
869.0668, 221.3365
869.5490, 219.1332
870.0311, 217.1131
870.5132, 215.1281
870.9953, 213.0646
871.4774, 210.9924
871.9595, 209.0582
872.4417, 207.2876
872.9238, 205.5021
873.4059, 203.7185
873.8880, 201.8781
874.3701, 199.8014
874.8522, 197.7922
875.3344, 196.1935
875.8165, 194.9309
876.2986, 193.5323
876.7807, 191.7225
877.2628, 190.0461
877.7449, 188.8061
878.2271, 187.6926
878.7092, 186.4950
879.1913, 185.2016
879.6734, 183.7969
880.1555, 182.2883
880.6376, 180.9091
881.1198, 180.0251
881.6019, 179.3611
882.0840, 178.3159
882.5661, 177.0087
883.0482, 176.0575
883.5303, 175.6078
884.0125, 175.1098
884.4946, 174.0781
884.9767, 172.6857
885.4588, 171.4971
885.9409, 170.5361
886.4230, 169.6472
886.9052, 168.8538
887.3873, 168.0446
887.8694, 167.1398
888.3515, 166.1946
888.8336, 165.2264
889.3157, 164.1830
889.7979, 163.5288
890.2800, 163.7269
890.7621, 163.7243
891.2442, 163.2700
891.7263, 162.4773
892.2084, 161.2865
892.6906, 159.8526
893.1727, 158.5429
893.6548, 157.4154
894.1369, 156.6781
894.6190, 156.7528
895.1011, 157.0882
895.5833, 157.1057
896.0654, 156.8141
896.5475, 156.2987
897.0296, 155.6159
897.5117, 154.9506
897.9938, 154.5005
898.4760, 154.1669
898.9581, 153.6838
899.4402, 153.0636
899.9223, 152.4543
900.4044, 151.8817
900.8865, 151.2730
901.3687, 150.5486
901.8508, 149.8282
902.3329, 149.3833
902.8150, 149.2679
903.2971, 149.1567
903.7792, 149.0705
904.2614, 148.9559
904.7435, 148.8984
905.2256, 148.7200
905.7077, 148.1549
906.1898, 147.2948
906.6719, 146.6479
907.1541, 146.3005
907.6362, 146.1368
908.1183, 146.4016
908.6004, 146.5846
909.0825, 146.1787
909.5646, 145.4837
910.0468, 145.1061
910.5289, 145.1812
911.0110, 145.1552
911.4931, 144.4683
911.9752, 143.6529
912.4573, 143.2132
912.9395, 143.1035
913.4216, 143.3561
913.9037, 143.8746
914.3858, 144.2183
914.8679, 144.1140
915.3500, 143.7499
915.8321, 143.3575
916.3142, 142.9668
916.7963, 142.8755
917.2784, 143.1142
917.7606, 143.1956
918.2427, 142.9391
918.7248, 142.5015
919.2069, 142.0075
919.6890, 141.4874
920.1711, 141.1628
920.6533, 141.0865
921.1354, 141.1021
921.6175, 141.4841
922.0996, 141.5781
922.5817, 140.8174
923.0638, 139.6567
923.5460, 138.7336
924.0281, 138.0794
924.5102, 137.5405
924.9923, 137.0561
925.4744, 136.7293
925.9565, 136.7744
926.4387, 136.8516
926.9208, 136.6335
927.4029, 136.1662
927.8850, 135.6751
928.3671, 135.2315
928.8492, 134.8129
929.3314, 134.3971
929.8135, 134.0036
930.2956, 133.5597
930.7777, 133.1772
931.2598, 133.1829
931.7419, 133.5891
932.2241, 133.9461
932.7062, 133.9097
933.1883, 133.6004
933.6704, 133.1149
934.1525, 132.5378
934.6346, 132.2933
935.1168, 132.4129
935.5989, 132.5577
936.0810, 132.5733
936.5631, 132.5206
937.0452, 132.4793
937.5273, 132.4482
938.0095, 132.3970
938.4916, 132.3065
938.9737, 132.3092
939.4558, 132.5754
939.9379, 132.6210
940.4200, 131.9414
940.9022, 130.8902
941.3843, 130.3893
941.8664, 130.6621
942.3485, 130.7953
942.8306, 130.6698
943.3127, 130.5621
943.7949, 130.5186
944.2770, 130.5433
944.7591, 130.7232
945.2412, 130.9845
945.7233, 131.0306
946.2054, 130.6784
946.6876, 130.3656
947.1697, 130.3310
947.6518, 130.3136
948.1339, 130.0876
948.6160, 129.7610
949.0981, 129.5114
949.5803, 129.3774
950.0624, 129.2992
950.5445, 129.2811
951.0266, 129.2435
951.5087, 129.0467
951.9908, 128.8053
952.4730, 128.7731
952.9551, 128.8942
953.4372, 128.8420
953.9193, 128.4883
954.4014, 128.1205
954.8835, 128.1112
955.3657, 128.3166
955.8478, 128.3317
956.3299, 128.1720
956.8120, 127.9322
957.2941, 127.6298
957.7762, 127.3166
958.2584, 127.0117
958.7405, 126.7722
959.2226, 126.7443
959.7047, 126.9473
960.1868, 127.0296
960.6689, 126.9583
961.1511, 126.9202
961.6332, 127.0360
962.1153, 127.0458
962.5974, 126.6222
963.0795, 125.9223
963.5616, 125.6556
964.0438, 126.1984
964.5259, 126.3670
965.0080, 125.9931
965.4901, 125.4598
965.9722, 124.4429
966.4543, 123.6532
966.9365, 124.1861
967.4186, 125.8444
967.9007, 126.6458
968.3828, 125.5563
968.8649, 124.7188
969.3470, 124.9205
969.8292, 125.1844
970.3113, 124.7672
970.7934, 124.0439
971.2755, 123.6559
971.7576, 123.7070
972.2397, 123.8180
972.7219, 123.7800
973.2040, 123.7801
973.6861, 124.0363
974.1682, 124.3259
974.6503, 124.4156
975.1324, 124.3033
975.6146, 124.0330
976.0967, 123.6258
976.5788, 123.2188
977.0609, 122.8780
977.5430, 122.6464
978.0251, 122.6562
978.5073, 122.8038
978.9894, 122.8860
979.4715, 122.8524
979.9536, 122.6174
980.4357, 122.1211
980.9178, 121.6572
981.4000, 121.7225
981.8821, 122.1653
982.3642, 122.4226
982.8463, 122.5008
983.3284, 122.4997
983.8105, 122.4434
984.2927, 122.2847
984.7748, 121.9663
985.2569, 121.6024
985.7390, 121.4676
986.2211, 121.5748
986.7032, 121.6929
987.1854, 121.8473
987.6675, 121.8031
988.1496, 121.3796
988.6317, 121.0802
989.1138, 121.4923
989.5959, 122.3527
990.0781, 122.4527
990.5602, 121.3437
991.0423, 120.8063
991.5244, 121.2085
992.0065, 121.5490
992.4886, 121.3827
992.9708, 121.0578
993.4529, 120.9595
993.9350, 121.0670
994.4171, 121.1381
994.8992, 121.1908
995.3813, 121.1779
995.8635, 121.0873
996.3456, 120.9422
996.8277, 120.7585
997.3098, 120.5244
997.7919, 120.1181
998.2740, 119.5735
998.7562, 119.3921
999.2383, 120.1105
999.7204, 120.5867
1000.203, 120.3058
1000.685, 119.9061
1001.167, 119.7490
1001.649, 119.8090
1002.131, 120.0707
1002.613, 120.5054
1003.095, 120.7897
1003.577, 120.8302
1004.059, 120.6231
1004.542, 119.8053
1005.024, 119.0314
1005.506, 119.0281
1005.988, 119.5929
1006.470, 120.2460
1006.952, 120.8236
1007.434, 121.1677
1007.916, 121.1909
1008.398, 120.9051
1008.881, 119.9500
1009.363, 118.9115
1009.845, 118.8009
1010.327, 119.4431
1010.809, 120.0013
1011.291, 120.1376
1011.773, 119.9705
1012.255, 119.3437
1012.738, 118.6968
1013.220, 118.8776
1013.702, 119.5486
1014.184, 119.8744
1014.666, 119.8008
1015.148, 119.7904
1015.630, 120.0673
1016.112, 120.2629
1016.594, 119.7653
1017.077, 118.9269
1017.559, 118.7165
1018.041, 119.0442
1018.523, 119.5727
1019.005, 120.2029
1019.487, 120.5810
1019.969, 120.5002
1020.451, 120.1537
1020.934, 119.8086
1021.416, 119.4580
1021.898, 119.0125
1022.380, 118.4783
1022.862, 118.0895
1023.344, 117.8892
1023.826, 117.8923
1024.308, 118.1338
1024.791, 118.4797
1025.273, 118.7164
1025.755, 118.8424
1026.237, 118.7008
1026.719, 118.2311
1027.201, 117.9766
1027.683, 118.0685
1028.165, 118.3446
1028.647, 118.7599
1029.130, 119.1553
1029.612, 119.1321
1030.094, 118.6234
1030.576, 118.6372
1031.058, 119.4030
1031.540, 119.8899
1032.022, 119.8221
1032.504, 119.5388
1032.986, 119.2222
1033.469, 118.9022
1033.951, 118.6346
1034.433, 118.4074
1034.915, 118.3185
1035.397, 118.4330
1035.879, 118.5436
1036.361, 118.5864
1036.843, 118.6513
1037.326, 118.8689
1037.808, 119.1196
1038.290, 119.1184
1038.772, 118.8290
1039.254, 118.4410
1039.736, 117.6909
1040.218, 117.2701
1040.700, 117.6279
1041.182, 118.0207
1041.665, 117.8521
1042.147, 117.3661
1042.629, 117.1074
1043.111, 117.0773
1043.593, 117.2616
1044.075, 118.1054
1044.557, 118.5468
1045.039, 118.0984
1045.521, 117.4478
1046.004, 116.8889
1046.486, 116.5174
1046.968, 116.5850
1047.450, 117.2306
1047.932, 117.6033
1048.414, 117.3450
1048.896, 117.1723
1049.378, 117.3154
1049.861, 117.5665
1050.343, 117.8949
1050.825, 118.1816
1051.307, 118.1940
1051.789, 117.8823
1052.271, 117.5094
1052.753, 116.8462
1053.235, 116.5063
1053.718, 117.0220
1054.200, 117.6106
1054.682, 117.5539
1055.164, 117.1889
1055.646, 117.2976
1056.128, 118.0284
1056.610, 118.4558
1057.092, 118.0642
1057.574, 117.6943
1058.057, 117.6526
1058.539, 117.7306
1059.021, 117.8722
1059.503, 117.9704
1059.985, 117.8092
1060.467, 117.3584
1060.949, 117.0335
1061.431, 116.9757
1061.913, 117.0599
1062.396, 117.4885
1062.878, 117.8004
1063.360, 117.5319
1063.842, 116.9409
1064.324, 116.4265
1064.806, 116.0726
1065.288, 115.9389
1065.770, 116.2816
1066.253, 116.5313
1066.735, 116.2828
1067.217, 116.0215
1067.699, 116.1665
1068.181, 116.5315
1068.663, 116.8304
1069.145, 117.0020
1069.627, 117.0373
1070.109, 116.8818
1070.592, 116.6750
1071.074, 116.3702
1071.556, 116.1471
1072.038, 116.1603
1072.520, 116.3302
1073.002, 116.6311
1073.484, 116.9866
1073.966, 117.0403
1074.448, 116.4220
1074.931, 116.0241
1075.413, 116.5660
1075.895, 117.1705
1076.377, 117.1791
1076.859, 116.8712
1077.341, 116.6414
1077.823, 116.5205
1078.305, 116.3241
1078.788, 115.9170
1079.270, 115.6615
1079.752, 115.7398
1080.234, 116.0173
1080.716, 116.6892
1081.198, 117.3088
1081.680, 117.2052
1082.162, 116.5606
1082.644, 116.2034
1083.127, 116.4370
1083.609, 116.7214
1084.091, 116.9379
1084.573, 116.9918
1085.055, 116.6682
1085.537, 116.2759
1086.019, 116.1532
1086.501, 116.2465
1086.984, 116.3281
1087.466, 116.3367
1087.948, 116.3629
1088.430, 116.5282
1088.912, 116.6164
1089.394, 116.3304
1089.876, 116.0765
1090.358, 116.3849
1090.840, 116.9728
1091.323, 117.1805
1091.805, 116.8733
1092.287, 116.5951
1092.769, 116.6642
1093.251, 116.6475
1093.733, 116.1611
1094.215, 115.7149
1094.697, 115.8750
1095.179, 116.2754
1095.662, 116.2526
1096.144, 115.7456
1096.626, 115.2742
1097.108, 114.8441
1097.590, 114.7152
1098.072, 115.2888
1098.554, 115.8470
1099.036, 115.9399
1099.519, 115.7465
1100.001, 115.3660
1100.483, 114.9179
1100.965, 114.9204
1101.447, 115.8267
1101.929, 116.4467
1102.411, 116.3230
1102.893, 116.0277
1103.375, 115.7923
1103.858, 115.5508
1104.340, 115.1817
1104.822, 114.7343
1105.304, 114.3639
1105.786, 114.0239
1106.268, 113.9939
1106.750, 114.7586
1107.232, 115.2648
1107.714, 114.8349
1108.197, 114.3224
1108.679, 114.5322
1109.161, 115.1344
1109.643, 115.2809
1110.125, 114.8098
1110.607, 114.5935
1111.089, 114.9280
1111.571, 115.2096
1112.054, 115.3096
1112.536, 115.3446
1113.018, 115.4170
1113.500, 115.4485
1113.982, 115.2575
1114.464, 114.8375
1114.946, 114.6304
1115.428, 114.7873
1115.911, 114.9096
1116.393, 115.0201
1116.875, 115.0332
1117.357, 114.8350
1117.839, 114.5994
1118.321, 114.5085
1118.803, 114.5469
1119.285, 114.6296
1119.767, 114.8200
1120.250, 114.8899
1120.732, 114.7569
1121.214, 114.6791
1121.696, 114.7784
1122.178, 114.8807
1122.660, 114.8658
1123.142, 114.7273
1123.624, 114.3799
1124.106, 113.7151
1124.589, 113.7697
1125.071, 114.8730
1125.553, 115.5121
1126.035, 115.2644
1126.517, 114.9136
1126.999, 114.9066
1127.481, 115.0959
1127.963, 115.2728
1128.446, 115.4274
1128.928, 115.4339
1129.410, 115.2767
1129.892, 115.0822
1130.374, 114.8434
1130.856, 114.7761
1131.338, 115.0080
1131.820, 115.2120
1132.302, 115.0292
1132.785, 114.5690
1133.267, 114.0817
1133.749, 113.5922
1134.231, 113.5931
1134.713, 114.0865
1135.195, 114.3981
1135.677, 114.3413
1136.159, 114.2152
1136.641, 114.2471
1137.124, 114.2489
1137.606, 113.7245
1138.088, 112.9248
1138.570, 112.8605
1139.052, 113.4049
1139.534, 114.0484
1140.016, 114.6603
1140.498, 115.0750
1140.981, 115.2158
1141.463, 115.0946
1141.945, 114.6096
1142.427, 114.0130
1142.909, 113.6615
1143.391, 113.5695
1143.873, 113.9656
1144.355, 114.6424
1144.838, 114.9460
1145.320, 114.7212
1145.802, 114.3147
1146.284, 113.8925
1146.766, 113.5816
1147.248, 113.6179
1147.730, 113.7470
1148.212, 113.5802
1148.694, 113.3171
1149.177, 113.3540
1149.659, 113.6770
1150.141, 114.0246
1150.623, 114.3179
1151.105, 114.4214
1151.587, 114.1400
1152.069, 113.7734
1152.551, 113.4603
1153.033, 113.2229
1153.516, 113.0745
1153.998, 113.0204
1154.480, 113.1372
1154.962, 113.4155
1155.444, 113.4915
1155.926, 113.0170
1156.408, 112.6604
1156.890, 112.6751
1157.373, 112.8039
1157.855, 112.9561
1158.337, 113.1028
1158.819, 113.2484
1159.301, 113.3721
1159.783, 113.3805
1160.265, 113.2232
1160.747, 113.0664
1161.229, 112.8039
1161.712, 112.7122
1162.194, 113.0685
1162.676, 113.3533
1163.158, 113.1273
1163.640, 112.6823
1164.122, 112.5726
1164.604, 112.8124
1165.086, 112.8290
1165.568, 112.4376
1166.051, 112.4269
1166.533, 113.0273
1167.015, 113.5546
1167.497, 113.7535
1167.979, 113.6648
1168.461, 113.2598
1168.943, 112.7006
1169.425, 112.5348
1169.908, 112.7754
1170.390, 112.9562
1170.872, 113.0676
1171.354, 113.1585
1171.836, 113.2417
1172.318, 113.1624
1172.800, 112.8097
1173.282, 112.4230
1173.765, 112.3616
1174.247, 112.5091
1174.729, 112.5135
1175.211, 112.4271
1175.693, 112.4708
1176.175, 112.6232
1176.657, 112.6625
1177.139, 112.5283
1177.621, 112.3898
1178.104, 112.3714
1178.586, 112.4024
1179.068, 112.4098
1179.550, 112.4073
1180.032, 112.4863
1180.514, 112.5335
1180.996, 112.2145
1181.478, 111.6576
1181.960, 111.4761
1182.443, 111.9089
1182.925, 112.2781
1183.407, 112.0823
1183.889, 111.8316
1184.371, 111.9018
1184.853, 111.9901
1185.335, 111.7390
1185.817, 111.3679
1186.300, 110.9124
1186.782, 110.5777
1187.264, 111.7895
1187.746, 116.5409
1188.228, 119.2524
1188.710, 117.6428
1189.192, 115.5570
1189.674, 113.9630
1190.156, 112.8098
1190.639, 112.0973
1191.121, 111.7450
1191.603, 111.6302
1192.085, 111.7794
1192.567, 111.7868
1193.049, 111.5324
1193.531, 111.5091
1194.013, 111.8678
1194.495, 112.1643
1194.978, 112.2160
1195.460, 112.1137
1195.942, 111.9313
1196.424, 111.7018
1196.906, 111.5157
1197.388, 111.3740
1197.870, 111.2790
1198.352, 111.2337
1198.835, 111.3161
1199.317, 111.5257
1199.799, 111.5856
1200.281, 111.3460
1200.763, 111.1341
1201.245, 111.3881
1201.727, 111.8259
1202.209, 112.0470
1202.692, 112.0100
1203.174, 111.3579
1203.656, 110.4354
1204.138, 110.2159
1204.620, 110.8054
1205.102, 111.4988
1205.584, 111.9831
1206.066, 112.2463
1206.548, 112.2399
1207.031, 112.0539
1207.513, 111.5795
1207.995, 111.1116
1208.477, 110.9566
1208.959, 111.0529
1209.441, 111.2737
1209.923, 111.5861
1210.405, 111.7743
1210.887, 111.8318
1211.370, 111.6927
1211.852, 110.9392
1212.334, 110.5026
1212.816, 111.1769
1213.298, 111.9134
1213.780, 111.6703
1214.262, 110.9341
1214.744, 111.0298
1215.227, 112.1058
1215.709, 112.3050
1216.191, 111.3202
1216.673, 110.7576
1217.155, 110.8907
1217.637, 111.1447
1218.119, 111.2973
1218.601, 111.2999
1219.083, 111.0707
1219.566, 110.7459
1220.048, 110.6899
1220.530, 110.8333
1221.012, 110.8108
1221.494, 110.6741
1221.976, 110.7310
1222.458, 111.0022
1222.940, 111.3279
1223.422, 111.6240
1223.905, 111.6443
1224.387, 110.9571
1224.869, 110.2285
1225.351, 110.2238
1225.833, 110.5463
1226.315, 110.7678
1226.797, 110.9353
1227.279, 111.2483
1227.762, 111.6575
1228.244, 111.8501
1228.726, 111.6814
1229.208, 111.5768
1229.690, 111.7665
1230.172, 111.9196
1230.654, 111.9536
1231.136, 111.8762
1231.619, 111.6157
1232.101, 111.2981
1232.583, 111.0685
1233.065, 110.9290
1233.547, 110.9033
1234.029, 111.0638
1234.511, 111.0589
1234.993, 110.7735
1235.475, 110.8058
1235.958, 111.3678
1236.440, 111.9111
1236.922, 112.1284
1237.404, 112.1037
1237.886, 111.9073
1238.368, 111.6178
1238.850, 111.4852
1239.332, 111.4726
1239.814, 111.4158
1240.297, 111.3276
1240.779, 111.3011
1241.261, 111.3606
1241.743, 111.5187
1242.225, 111.7888
1242.707, 112.0352
1243.189, 112.0971
1243.671, 112.1266
1244.154, 112.2628
1244.636, 112.4401
1245.118, 112.6690
1245.600, 112.8416
1246.082, 112.7287
1246.564, 112.3700
1247.046, 112.1205
1247.528, 112.0339
1248.010, 112.1332
1248.493, 112.5284
1248.975, 112.9620
1249.457, 113.6202
1249.939, 113.9510
1250.421, 113.4310
1250.903, 112.6796
1251.385, 112.5254
1251.867, 112.8776
1252.349, 113.2742
1252.832, 113.7419
1253.314, 113.8459
1253.796, 113.5612
1254.278, 113.4509
1254.760, 113.6397
1255.242, 113.9559
1255.724, 114.3117
1256.206, 114.5265
1256.689, 114.3465
1257.171, 113.9834
1257.653, 113.7183
1258.135, 113.5585
1258.617, 113.5018
1259.099, 113.5678
1259.581, 113.8719
1260.063, 114.3431
1260.546, 114.6532
1261.028, 114.6664
1261.510, 114.7593
1261.992, 115.3243
1262.474, 115.6849
1262.956, 115.3712
1263.438, 114.9947
1263.920, 114.7958
1264.402, 114.8556
1264.885, 115.4107
1265.367, 116.2595
1265.849, 116.6573
1266.331, 116.5053
1266.813, 116.5900
1267.295, 117.0264
1267.777, 117.0737
1268.259, 116.5482
1268.741, 116.2200
1269.224, 116.4242
1269.706, 116.8936
1270.188, 117.4350
1270.670, 117.8696
1271.152, 117.7918
1271.634, 117.3953
1272.116, 117.0143
1272.598, 116.7343
1273.081, 116.8042
1273.563, 117.1241
1274.045, 117.3070
1274.527, 117.2590
1275.009, 117.2767
1275.491, 117.5593
1275.973, 117.8226
1276.455, 117.7511
1276.938, 117.8449
1277.420, 118.6462
1277.902, 119.4882
1278.384, 119.8084
1278.866, 119.7047
1279.348, 119.3553
1279.830, 118.7783
1280.312, 118.4149
1280.794, 118.2931
1281.276, 118.2831
1281.759, 118.3761
1282.241, 118.6134
1282.723, 119.0256
1283.205, 119.3616
1283.687, 119.4634
1284.169, 119.5246
1284.651, 119.8298
1285.133, 120.2126
1285.616, 120.3697
1286.098, 120.2909
##END=



