##NAMES=Vanadinite
##RRUFFID=R050189
##IDEAL CHEMISTRY=Pb^2+^_5_(V^5+^O_4_)_3_Cl
##LOCALITY=Puzzler mine, Yuma County, Arizona, USA
##OWNER=RRUFF
##SOURCE=Dave Bunk Minerals
##DESCRIPTION=Red and green hexagonal prisms
##STATUS=The identification of this mineral has been confirmed by X-ray diffraction and chemical analysis
##URL=rruff.info/R050189
##MEASURED CHEMISTRY=Pb_5.00_(V_1.00_O_4_)_3_Cl_1.00_
93.77539, 101.6749
94.25751, 96.78966
94.73962, 98.94181
95.22174, 107.1237
95.70386, 117.7242
96.18597, 130.1270
96.66809, 143.9464
97.15021, 154.4868
97.63232, 159.2344
98.11444, 171.2279
98.59656, 219.5812
99.07867, 305.7135
99.56079, 376.0260
100.0429, 394.8024
100.5250, 361.1253
101.0071, 346.5105
101.4893, 355.6842
101.9714, 382.0703
102.4535, 411.7338
102.9356, 445.4529
103.4177, 480.8758
103.8998, 516.1012
104.3820, 550.8711
104.8641, 587.2662
105.3462, 624.7077
105.8283, 663.8230
106.3104, 712.8521
106.7925, 786.4757
107.2747, 853.5198
107.7568, 889.8900
108.2389, 869.6428
108.7210, 856.5114
109.2031, 858.6652
109.6852, 876.7982
110.1674, 897.7723
110.6495, 921.8419
111.1316, 948.8489
111.6137, 978.6398
112.0958, 1011.433
112.5779, 1047.176
113.0601, 1086.340
113.5422, 1129.731
114.0243, 1174.319
114.5064, 1222.033
114.9885, 1269.933
115.4706, 1315.010
115.9528, 1356.865
116.4349, 1395.231
116.9170, 1428.196
117.3991, 1453.618
117.8812, 1481.253
118.3633, 1519.329
118.8455, 1562.034
119.3276, 1597.818
119.8097, 1616.005
120.2918, 1629.431
120.7739, 1647.726
121.2560, 1675.625
121.7382, 1703.418
122.2203, 1724.921
122.7024, 1741.303
123.1845, 1756.476
123.6666, 1771.484
124.1487, 1786.859
124.6309, 1803.297
125.1130, 1819.494
125.5951, 1838.026
126.0772, 1861.047
126.5593, 1888.546
127.0414, 1920.406
127.5236, 1958.779
128.0057, 2001.328
128.4878, 2043.828
128.9699, 2081.311
129.4520, 2119.232
129.9341, 2167.227
130.4162, 2225.498
130.8984, 2289.185
131.3805, 2355.171
131.8626, 2423.034
132.3447, 2490.808
132.8268, 2556.126
133.3089, 2620.513
133.7911, 2683.822
134.2732, 2739.067
134.7553, 2785.048
135.2374, 2823.674
135.7195, 2855.194
136.2016, 2887.330
136.6838, 2926.748
137.1659, 2973.082
137.6480, 3006.798
138.1301, 3025.196
138.6122, 3036.317
139.0943, 3055.747
139.5765, 3085.719
140.0586, 3114.643
140.5407, 3137.530
141.0228, 3154.145
141.5049, 3166.233
141.9870, 3171.650
142.4692, 3173.950
142.9513, 3184.757
143.4334, 3209.940
143.9155, 3232.405
144.3976, 3241.794
144.8797, 3230.695
145.3619, 3224.594
145.8440, 3226.784
146.3261, 3235.473
146.8082, 3241.815
147.2903, 3247.043
147.7724, 3248.759
148.2546, 3245.460
148.7367, 3235.830
149.2188, 3223.231
149.7009, 3206.796
150.1830, 3186.857
150.6651, 3169.157
151.1473, 3158.942
151.6294, 3147.857
152.1115, 3130.133
152.5936, 3098.768
153.0757, 3068.536
153.5578, 3041.467
154.0400, 3017.951
154.5221, 2994.590
155.0042, 2970.801
155.4863, 2946.951
155.9684, 2923.358
156.4505, 2899.733
156.9327, 2876.212
157.4148, 2852.789
157.8969, 2829.698
158.3790, 2806.298
158.8611, 2781.617
159.3432, 2756.670
159.8254, 2732.481
160.3075, 2707.204
160.7896, 2684.548
161.2717, 2666.973
161.7538, 2655.701
162.2359, 2643.810
162.7181, 2627.223
163.2002, 2609.031
163.6823, 2593.503
164.1644, 2582.053
164.6465, 2573.751
165.1286, 2568.509
165.6108, 2566.740
166.0929, 2566.125
166.5750, 2566.499
167.0571, 2567.118
167.5392, 2566.647
168.0213, 2561.395
168.5035, 2556.558
168.9856, 2557.102
169.4677, 2565.745
169.9498, 2573.541
170.4319, 2573.299
170.9140, 2567.502
171.3962, 2561.974
171.8783, 2560.816
172.3604, 2561.026
172.8425, 2559.227
173.3246, 2553.958
173.8067, 2548.727
174.2889, 2548.323
174.7710, 2551.028
175.2531, 2551.235
175.7352, 2543.163
176.2173, 2531.270
176.6994, 2522.172
177.1816, 2518.752
177.6637, 2515.481
178.1458, 2504.416
178.6279, 2487.042
179.1100, 2471.227
179.5921, 2466.286
180.0743, 2466.028
180.5564, 2457.911
181.0385, 2436.894
181.5206, 2410.269
182.0027, 2389.277
182.4848, 2373.198
182.9670, 2355.736
183.4491, 2329.104
183.9312, 2296.866
184.4133, 2270.463
184.8954, 2255.217
185.3775, 2243.685
185.8597, 2220.532
186.3418, 2186.032
186.8239, 2150.522
187.3060, 2123.935
187.7881, 2103.945
188.2702, 2081.301
188.7523, 2052.192
189.2345, 2019.983
189.7166, 1993.675
190.1987, 1973.421
190.6808, 1952.619
191.1629, 1923.398
191.6451, 1887.040
192.1272, 1854.212
192.6093, 1828.271
193.0914, 1807.076
193.5735, 1783.275
194.0556, 1756.269
194.5378, 1729.376
195.0199, 1707.448
195.5020, 1690.163
195.9841, 1669.119
196.4662, 1640.517
196.9483, 1606.794
197.4305, 1578.870
197.9126, 1557.521
198.3947, 1538.486
198.8768, 1518.149
199.3589, 1496.310
199.8410, 1474.714
200.3232, 1453.498
200.8053, 1432.887
201.2874, 1414.197
201.7695, 1398.187
202.2516, 1382.135
202.7337, 1362.191
203.2159, 1337.781
203.6980, 1315.840
204.1801, 1298.480
204.6622, 1285.325
205.1443, 1272.913
205.6264, 1261.618
206.1086, 1250.255
206.5907, 1237.250
207.0728, 1222.347
207.5549, 1207.781
208.0370, 1193.615
208.5191, 1179.980
209.0013, 1169.889
209.4834, 1164.867
209.9655, 1160.504
210.4476, 1151.364
210.9297, 1135.870
211.4118, 1121.779
211.8940, 1110.915
212.3761, 1103.219
212.8582, 1096.271
213.3403, 1090.192
213.8224, 1084.670
214.3045, 1079.599
214.7867, 1075.224
215.2688, 1070.427
215.7509, 1064.808
216.2330, 1058.419
216.7151, 1051.896
217.1972, 1044.721
217.6794, 1038.068
218.1615, 1033.694
218.6436, 1032.948
219.1257, 1030.736
219.6078, 1025.432
220.0899, 1016.963
220.5721, 1010.046
221.0542, 1004.970
221.5363, 1001.140
222.0184, 998.3472
222.5005, 997.5250
222.9826, 995.3538
223.4648, 990.2009
223.9469, 981.9103
224.4290, 978.1320
224.9111, 981.3771
225.3932, 986.1937
225.8753, 986.8223
226.3575, 980.8367
226.8396, 975.9667
227.3217, 974.5319
227.8038, 976.5938
228.2859, 975.7183
228.7680, 970.5933
229.2502, 964.0425
229.7323, 958.6097
230.2144, 953.9157
230.6965, 951.1042
231.1786, 951.1068
231.6607, 953.9203
232.1429, 954.9432
232.6250, 953.6914
233.1071, 951.2025
233.5892, 948.1915
234.0713, 943.8294
234.5534, 940.6172
235.0356, 939.0343
235.5177, 939.0641
235.9998, 940.2697
236.4819, 944.1302
236.9640, 947.5402
237.4461, 947.4131
237.9283, 940.8125
238.4104, 936.6088
238.8925, 937.1999
239.3746, 942.2459
239.8567, 944.3300
240.3388, 941.6547
240.8210, 938.1384
241.3031, 936.9487
241.7852, 939.5222
242.2673, 941.5197
242.7494, 942.4379
243.2315, 942.3032
243.7137, 941.2495
244.1958, 938.2097
244.6779, 935.5531
245.1600, 935.1354
245.6421, 938.2201
246.1242, 940.9388
246.6064, 942.8596
247.0885, 944.0674
247.5706, 944.9691
248.0527, 944.7679
248.5348, 945.3190
249.0169, 947.9879
249.4990, 953.9091
249.9812, 959.5978
250.4633, 965.6510
250.9454, 971.3721
251.4275, 972.6676
251.9096, 965.9222
252.3917, 960.0146
252.8739, 960.6265
253.3560, 971.0380
253.8381, 979.9918
254.3202, 986.7576
254.8023, 991.6299
255.2844, 995.2010
255.7666, 996.0294
256.2487, 997.9160
256.7308, 1003.354
257.2129, 1014.616
257.6950, 1023.100
258.1772, 1027.379
258.6593, 1029.066
259.1414, 1032.556
259.6235, 1038.182
260.1056, 1045.045
260.5877, 1052.862
261.0699, 1061.476
261.5520, 1071.416
262.0341, 1083.325
262.5162, 1096.151
262.9983, 1108.041
263.4804, 1118.889
263.9626, 1128.856
264.4447, 1137.405
264.9268, 1143.701
265.4089, 1152.807
265.8910, 1165.424
266.3731, 1180.262
266.8553, 1195.443
267.3374, 1210.713
267.8195, 1226.774
268.3016, 1243.387
268.7837, 1260.672
269.2658, 1279.456
269.7480, 1299.540
270.2301, 1321.375
270.7122, 1345.866
271.1943, 1373.835
271.6764, 1401.114
272.1585, 1424.776
272.6407, 1444.783
273.1228, 1470.635
273.6049, 1504.087
274.0870, 1539.593
274.5691, 1570.246
275.0512, 1594.443
275.5334, 1621.006
276.0155, 1652.714
276.4976, 1689.102
276.9797, 1724.672
277.4618, 1758.452
277.9439, 1794.057
278.4261, 1835.545
278.9081, 1883.131
279.3903, 1932.727
279.8724, 1983.429
280.3545, 2034.975
280.8366, 2088.433
281.3187, 2143.994
281.8008, 2200.781
282.2830, 2256.499
282.7651, 2311.030
283.2472, 2372.738
283.7293, 2444.934
284.2114, 2524.311
284.6935, 2599.340
285.1757, 2669.933
285.6578, 2740.415
286.1399, 2815.800
286.6220, 2895.355
287.1041, 2969.756
287.5862, 3038.326
288.0684, 3100.617
288.5505, 3154.615
289.0326, 3200.569
289.5147, 3239.389
289.9968, 3270.853
290.4789, 3295.445
290.9611, 3315.985
291.4432, 3333.750
291.9253, 3345.227
292.4074, 3342.954
292.8895, 3327.773
293.3716, 3308.598
293.8538, 3286.903
294.3359, 3264.519
294.8180, 3246.533
295.3001, 3233.049
295.7822, 3225.472
296.2643, 3228.233
296.7465, 3239.561
297.2286, 3251.199
297.7107, 3251.912
298.1928, 3251.950
298.6749, 3274.745
299.1570, 3321.075
299.6392, 3378.516
300.1213, 3433.116
300.6034, 3488.579
301.0855, 3552.138
301.5676, 3626.489
302.0497, 3711.246
302.5319, 3805.259
303.0140, 3909.209
303.4961, 4020.585
303.9782, 4137.981
304.4603, 4261.571
304.9424, 4397.092
305.4246, 4547.438
305.9067, 4706.817
306.3888, 4866.185
306.8709, 5026.106
307.3530, 5194.277
307.8351, 5373.016
308.3173, 5562.023
308.7994, 5760.013
309.2815, 5968.311
309.7636, 6186.860
310.2457, 6410.594
310.7278, 6645.232
311.2100, 6900.276
311.6921, 7185.232
312.1742, 7492.521
312.6563, 7808.245
313.1384, 8130.829
313.6205, 8467.431
314.1027, 8826.846
314.5848, 9205.201
315.0669, 9598.127
315.5490, 9998.236
316.0311, 10418.90
316.5132, 10864.97
316.9954, 11341.38
317.4775, 11820.13
317.9596, 12300.33
318.4417, 12770.49
318.9238, 13223.77
319.4059, 13684.71
319.8881, 14099.75
320.3702, 14454.33
320.8523, 14748.54
321.3344, 14957.27
321.8165, 15067.70
322.2986, 15092.56
322.7808, 15041.59
323.2629, 14921.75
323.7450, 14721.11
324.2271, 14421.02
324.7092, 14033.51
325.1913, 13606.20
325.6735, 13116.55
326.1556, 12611.20
326.6377, 12112.54
327.1198, 11613.58
327.6019, 11134.62
328.0840, 10673.26
328.5662, 10234.75
329.0483, 9819.010
329.5304, 9430.813
330.0125, 9064.653
330.4946, 8719.716
330.9767, 8397.137
331.4589, 8092.560
331.9410, 7810.159
332.4231, 7543.169
332.9052, 7281.924
333.3873, 7025.437
333.8694, 6771.887
334.3516, 6521.762
334.8337, 6273.294
335.3158, 6035.364
335.7979, 5811.860
336.2800, 5596.634
336.7621, 5386.052
337.2443, 5173.445
337.7264, 4978.535
338.2085, 4802.603
338.6906, 4646.658
339.1727, 4507.235
339.6548, 4383.540
340.1370, 4277.788
340.6191, 4190.995
341.1012, 4125.646
341.5833, 4071.977
342.0654, 4030.286
342.5475, 3999.357
343.0297, 3974.839
343.5118, 3955.673
343.9939, 3952.246
344.4760, 3972.760
344.9581, 4015.714
345.4402, 4065.805
345.9224, 4120.984
346.4045, 4186.995
346.8866, 4270.080
347.3687, 4370.728
347.8508, 4486.492
348.3329, 4619.962
348.8151, 4767.340
349.2972, 4921.212
349.7793, 5081.325
350.2614, 5239.864
350.7435, 5389.548
351.2256, 5529.717
351.7078, 5663.038
352.1899, 5797.677
352.6720, 5915.395
353.1541, 5997.268
353.6362, 6043.632
354.1183, 6051.532
354.6005, 6012.079
355.0826, 5935.728
355.5647, 5833.997
356.0468, 5705.891
356.5289, 5561.491
357.0110, 5400.994
357.4932, 5229.243
357.9753, 5057.614
358.4574, 4880.523
358.9395, 4712.751
359.4216, 4569.191
359.9037, 4451.953
360.3859, 4348.884
360.8680, 4252.023
361.3501, 4166.625
361.8322, 4099.697
362.3143, 4071.539
362.7964, 4045.958
363.2786, 4007.146
363.7607, 3955.790
364.2428, 3902.948
364.7249, 3865.336
365.2070, 3820.253
365.6891, 3752.088
366.1713, 3647.777
366.6534, 3532.701
367.1355, 3410.523
367.6176, 3281.223
368.0997, 3146.005
368.5818, 2994.599
369.0640, 2846.344
369.5461, 2707.394
370.0282, 2579.079
370.5103, 2456.197
370.9924, 2336.515
371.4745, 2222.453
371.9567, 2116.644
372.4388, 2018.971
372.9209, 1931.359
373.4030, 1855.448
373.8851, 1791.172
374.3672, 1727.793
374.8494, 1662.951
375.3315, 1601.242
375.8136, 1547.069
376.2957, 1500.549
376.7778, 1459.712
377.2599, 1425.472
377.7421, 1396.194
378.2242, 1367.229
378.7063, 1338.743
379.1884, 1310.815
379.6705, 1283.314
380.1526, 1255.997
380.6348, 1231.724
381.1169, 1210.779
381.5990, 1192.522
382.0811, 1176.444
382.5632, 1162.571
383.0453, 1148.821
383.5275, 1134.132
384.0096, 1119.089
384.4917, 1105.727
384.9738, 1094.070
385.4559, 1083.783
385.9380, 1074.040
386.4202, 1065.360
386.9023, 1059.051
387.3844, 1055.744
387.8665, 1054.353
388.3486, 1054.079
388.8307, 1054.712
389.3129, 1055.405
389.7950, 1054.182
390.2771, 1053.434
390.7592, 1056.416
391.2413, 1064.215
391.7234, 1072.270
392.2056, 1077.089
392.6877, 1080.085
393.1698, 1083.557
393.6519, 1089.164
394.1340, 1094.824
394.6161, 1099.195
395.0983, 1102.291
395.5804, 1105.665
396.0625, 1111.735
396.5446, 1117.263
397.0267, 1119.766
397.5089, 1114.847
397.9910, 1111.565
398.4731, 1112.239
398.9552, 1115.817
399.4373, 1119.135
399.9194, 1124.376
400.4016, 1127.044
400.8837, 1123.968
401.3658, 1110.254
401.8479, 1105.838
402.3300, 1115.365
402.8121, 1131.283
403.2942, 1144.345
403.7763, 1151.497
404.2585, 1161.857
404.7406, 1178.399
405.2227, 1200.355
405.7048, 1218.088
406.1869, 1228.915
406.6690, 1241.148
407.1512, 1261.607
407.6333, 1291.389
408.1154, 1319.760
408.5975, 1344.855
409.0796, 1369.429
409.5617, 1401.599
410.0439, 1441.588
410.5260, 1479.672
411.0081, 1510.708
411.4902, 1535.731
411.9723, 1561.519
412.4544, 1588.793
412.9366, 1611.807
413.4187, 1625.874
413.9008, 1631.655
414.3829, 1631.100
414.8650, 1625.444
415.3471, 1612.963
415.8293, 1590.355
416.3114, 1558.433
416.7935, 1521.916
417.2756, 1481.772
417.7577, 1439.451
418.2398, 1397.178
418.7220, 1355.017
419.2041, 1312.404
419.6862, 1267.632
420.1683, 1221.716
420.6504, 1177.518
421.1325, 1135.072
421.6147, 1094.289
422.0968, 1054.838
422.5789, 1016.438
423.0610, 980.9279
423.5431, 949.5837
424.0252, 920.4629
424.5074, 891.6931
424.9895, 860.7501
425.4716, 833.9982
425.9537, 813.8651
426.4358, 797.9303
426.9179, 780.7313
427.4001, 760.4762
427.8822, 740.8891
428.3643, 723.0498
428.8464, 707.0902
429.3285, 692.0097
429.8106, 678.0484
430.2928, 664.7111
430.7749, 651.0157
431.2570, 636.4744
431.7391, 624.1722
432.2212, 615.3246
432.7033, 608.6792
433.1855, 600.0538
433.6676, 589.2119
434.1497, 578.4438
434.6318, 569.4364
435.1139, 561.8363
435.5960, 553.3875
436.0782, 543.7584
436.5603, 533.9641
437.0424, 524.9442
437.5245, 516.7549
438.0066, 509.7567
438.4887, 504.2815
438.9709, 499.9081
439.4530, 496.8111
439.9351, 494.6927
440.4172, 491.6098
440.8993, 485.0641
441.3814, 477.4367
441.8636, 471.5525
442.3457, 468.6575
442.8278, 465.2975
443.3099, 458.4612
443.7920, 450.0340
444.2741, 442.9451
444.7563, 438.8880
445.2384, 435.8361
445.7205, 433.4410
446.2026, 431.6637
446.6847, 429.2068
447.1668, 424.2485
447.6490, 419.5827
448.1311, 416.9859
448.6132, 419.5451
449.0953, 420.2391
449.5774, 418.6752
450.0595, 415.3118
450.5417, 410.9284
451.0238, 404.7813
451.5059, 399.0212
451.9880, 394.3202
452.4701, 390.6767
452.9522, 387.4907
453.4344, 384.6675
453.9165, 382.4025
454.3986, 381.3537
454.8807, 381.6357
455.3628, 380.2597
455.8449, 376.2309
456.3271, 371.0472
456.8092, 368.2795
457.2913, 367.6691
457.7734, 366.0546
458.2555, 360.1085
458.7376, 352.2328
459.2198, 348.0370
459.7019, 347.8795
460.1840, 348.4596
460.6661, 347.1536
461.1482, 344.5738
461.6303, 341.6530
462.1125, 338.2137
462.5946, 335.1562
463.0767, 333.9588
463.5588, 333.8242
464.0409, 332.4618
464.5230, 327.2527
465.0052, 321.7465
465.4873, 318.0043
465.9694, 316.4183
466.4515, 315.5641
466.9336, 316.2428
467.4157, 316.9606
467.8979, 316.3092
468.3800, 312.2608
468.8621, 309.0651
469.3442, 307.5225
469.8263, 307.2017
470.3084, 306.4195
470.7906, 305.3189
471.2727, 303.5338
471.7548, 300.6150
472.2369, 296.1857
472.7190, 293.1358
473.2011, 291.8297
473.6833, 291.1028
474.1654, 289.2255
474.6475, 286.0924
475.1296, 284.3573
475.6117, 285.0033
476.0938, 287.0121
476.5760, 288.4539
477.0581, 289.2831
477.5402, 288.7788
478.0223, 285.5091
478.5044, 280.8098
478.9865, 277.2319
479.4687, 274.9779
479.9508, 273.4975
480.4329, 272.6398
480.9150, 272.1810
481.3971, 271.8216
481.8792, 271.8762
482.3614, 271.5440
482.8435, 269.9297
483.3256, 267.4652
483.8077, 265.5036
484.2898, 265.2207
484.7719, 265.0596
485.2541, 264.1329
485.7362, 262.0973
486.2183, 260.4560
486.7004, 259.1418
487.1825, 258.4507
487.6646, 258.7788
488.1468, 262.2213
488.6289, 263.2714
489.1110, 260.3198
489.5931, 254.6801
490.0752, 250.7737
490.5573, 248.9235
491.0395, 248.0041
491.5216, 247.6424
492.0037, 247.8493
492.4858, 248.3875
492.9679, 249.4349
493.4500, 250.1344
493.9322, 249.0386
494.4143, 246.5079
494.8964, 245.0551
495.3785, 245.5735
495.8606, 246.7648
496.3427, 246.7933
496.8249, 245.8169
497.3070, 244.4231
497.7891, 242.1656
498.2712, 240.0974
498.7533, 239.8564
499.2354, 241.5210
499.7176, 242.5555
500.1997, 240.5795
500.6818, 237.6958
501.1639, 235.9145
501.6460, 236.5317
502.1281, 237.0624
502.6103, 237.1001
503.0924, 236.5645
503.5745, 235.2686
504.0566, 232.4738
504.5387, 229.6634
505.0208, 227.1370
505.5030, 224.8976
505.9851, 223.0198
506.4672, 221.2948
506.9493, 220.2368
507.4314, 220.4308
507.9135, 222.2829
508.3957, 223.5235
508.8778, 223.9344
509.3599, 223.7999
509.8420, 223.7992
510.3241, 223.9153
510.8062, 223.0426
511.2884, 220.1665
511.7705, 216.2978
512.2526, 214.0272
512.7347, 213.2406
513.2168, 212.7520
513.6989, 211.5620
514.1810, 210.1920
514.6631, 209.3616
515.1453, 209.1939
515.6274, 209.4680
516.1095, 211.0470
516.5916, 212.6798
517.0737, 212.6948
517.5558, 208.5306
518.0380, 204.6978
518.5201, 203.1828
519.0022, 203.4929
519.4843, 203.1980
519.9664, 200.2610
520.4485, 198.1331
520.9307, 198.6698
521.4128, 203.1467
521.8949, 204.8979
522.3770, 202.5990
522.8591, 199.0381
523.3412, 196.9173
523.8234, 196.5876
524.3055, 196.2479
524.7876, 195.6167
525.2697, 194.8735
525.7518, 194.5998
526.2339, 194.7914
526.7161, 194.6335
527.1982, 193.2308
527.6803, 191.2537
528.1624, 190.6963
528.6445, 191.5166
529.1266, 192.3237
529.6088, 191.9674
530.0909, 190.9373
530.5730, 189.9561
531.0551, 189.2553
531.5372, 188.3377
532.0193, 186.1845
532.5015, 183.7392
532.9836, 182.4902
533.4657, 184.2047
533.9478, 185.8560
534.4299, 186.2884
534.9120, 185.6197
535.3942, 185.2741
535.8763, 186.1638
536.3584, 186.6252
536.8405, 185.6517
537.3226, 182.4138
537.8047, 181.2397
538.2869, 183.1714
538.7690, 185.7318
539.2511, 185.6735
539.7332, 182.6317
540.2153, 180.8609
540.6974, 181.4316
541.1796, 183.3091
541.6617, 184.8705
542.1438, 186.0328
542.6259, 186.0580
543.1080, 183.3888
543.5901, 179.7835
544.0723, 178.4261
544.5544, 179.2435
545.0365, 180.1588
545.5186, 179.5888
546.0007, 178.4140
546.4828, 177.5050
546.9650, 177.0275
547.4471, 176.8514
547.9292, 177.1596
548.4113, 177.6692
548.8934, 177.9893
549.3755, 178.3831
549.8577, 178.1924
550.3398, 176.7563
550.8219, 174.4589
551.3040, 173.4294
551.7861, 174.3031
552.2682, 175.3905
552.7504, 176.1498
553.2325, 176.6435
553.7146, 175.7724
554.1967, 173.1202
554.6788, 170.3669
555.1609, 169.3970
555.6431, 170.0091
556.1252, 170.5847
556.6073, 170.8301
557.0894, 170.9501
557.5715, 171.2964
558.0536, 171.7624
558.5358, 172.0352
559.0179, 172.1650
559.5000, 171.8902
559.9821, 170.2854
560.4642, 167.7150
560.9464, 166.5443
561.4285, 170.0145
561.9106, 173.6531
562.3927, 174.2723
562.8748, 170.1333
563.3569, 167.3194
563.8391, 167.7861
564.3212, 169.1974
564.8033, 169.4296
565.2854, 167.4996
565.7675, 166.4423
566.2496, 167.0307
566.7318, 168.3892
567.2139, 167.9436
567.6960, 165.3228
568.1781, 163.6070
568.6602, 164.6376
569.1423, 167.4533
569.6245, 168.4037
570.1066, 167.5172
570.5887, 166.1037
571.0708, 164.3873
571.5529, 163.0075
572.0350, 163.4796
572.5172, 166.3581
572.9993, 168.7818
573.4814, 167.9775
573.9635, 165.7692
574.4456, 164.3969
574.9277, 165.3077
575.4099, 166.2951
575.8920, 166.7079
576.3741, 166.7417
576.8562, 166.9502
577.3383, 167.7391
577.8204, 168.2835
578.3026, 168.2375
578.7847, 167.6222
579.2668, 167.5582
579.7489, 168.3263
580.2310, 168.9776
580.7131, 168.6481
581.1953, 167.3612
581.6774, 166.7802
582.1595, 167.0905
582.6416, 167.6961
583.1237, 167.9249
583.6058, 167.8668
584.0880, 167.7606
584.5701, 167.6206
585.0522, 167.5480
585.5343, 167.6488
586.0164, 167.8961
586.4985, 168.2220
586.9807, 168.5021
587.4628, 168.9380
587.9449, 169.5685
588.4270, 170.4074
588.9091, 171.6336
589.3912, 174.3451
589.8734, 176.5539
590.3555, 177.1555
590.8376, 175.4805
591.3197, 174.3832
591.8018, 173.9230
592.2839, 173.9615
592.7661, 174.4637
593.2482, 175.4839
593.7303, 176.4676
594.2124, 177.4165
594.6945, 178.1276
595.1766, 178.0668
595.6588, 177.3895
596.1409, 176.9145
596.6230, 177.0966
597.1051, 177.6139
597.5872, 178.1087
598.0693, 178.5858
598.5515, 179.1176
599.0336, 179.1604
599.5157, 179.6940
599.9978, 181.8905
600.4799, 186.3103
600.9620, 189.3330
601.4442, 189.5117
601.9263, 188.3619
602.4084, 187.0014
602.8905, 184.6623
603.3726, 183.5862
603.8547, 184.0776
604.3369, 185.6408
604.8190, 187.7509
605.3011, 190.5945
605.7832, 192.6185
606.2653, 193.1034
606.7474, 192.7543
607.2296, 193.5774
607.7117, 195.3431
608.1938, 196.2268
608.6759, 193.6884
609.1580, 190.3849
609.6401, 190.1270
610.1223, 192.8944
610.6044, 196.0449
611.0865, 198.6590
611.5686, 200.6689
612.0507, 201.9759
612.5328, 202.4316
613.0150, 202.6108
613.4971, 202.3231
613.9792, 201.9699
614.4613, 201.9449
614.9434, 202.2829
615.4255, 202.8989
615.9077, 203.8277
616.3898, 205.0006
616.8719, 206.3615
617.3540, 207.9569
617.8361, 209.2409
618.3182, 209.9618
618.8004, 210.2450
619.2825, 210.2331
619.7646, 209.9735
620.2467, 209.8662
620.7288, 209.9767
621.2109, 210.4859
621.6931, 211.8174
622.1752, 214.0181
622.6573, 216.0026
623.1394, 217.4219
623.6215, 218.2603
624.1036, 218.3568
624.5858, 216.6711
625.0679, 216.2575
625.5500, 218.6390
626.0321, 221.6981
626.5142, 222.8161
626.9963, 220.8196
627.4785, 220.1677
627.9606, 222.2631
628.4427, 225.4274
628.9248, 224.7645
629.4069, 220.2541
629.8890, 217.4342
630.3712, 219.9097
630.8533, 224.8413
631.3354, 226.5190
631.8175, 225.3642
632.2996, 224.0649
632.7817, 224.3438
633.2639, 225.2437
633.7460, 226.0314
634.2281, 226.6344
634.7102, 227.0229
635.1923, 227.0938
635.6744, 227.0056
636.1566, 226.8889
636.6387, 226.9841
637.1208, 226.5650
637.6029, 225.1938
638.0850, 223.7037
638.5671, 223.1612
639.0493, 223.6596
639.5314, 224.6409
640.0135, 226.2946
640.4956, 227.9513
640.9777, 227.9897
641.4598, 226.6684
641.9420, 225.6646
642.4241, 225.8190
642.9062, 226.6127
643.3883, 227.7355
643.8704, 229.0524
644.3525, 229.9320
644.8347, 229.8438
645.3168, 229.4016
645.7989, 228.7377
646.2810, 227.7928
646.7631, 227.6165
647.2452, 229.2388
647.7274, 230.9557
648.2095, 231.8422
648.6916, 231.6760
649.1737, 231.2818
649.6558, 230.4627
650.1379, 229.7956
650.6201, 230.2566
651.1022, 231.7314
651.5843, 232.3358
652.0664, 231.4696
652.5485, 230.3445
653.0306, 230.8531
653.5128, 232.3925
653.9949, 233.5697
654.4770, 233.2458
654.9591, 232.9283
655.4412, 233.6980
655.9233, 235.2575
656.4055, 236.7289
656.8876, 237.3645
657.3697, 238.3549
657.8518, 240.5980
658.3339, 243.9554
658.8160, 245.6778
659.2982, 245.0885
659.7803, 244.1497
660.2624, 243.6075
660.7445, 243.4644
661.2266, 245.0164
661.7087, 248.5059
662.1909, 251.8260
662.6730, 252.3769
663.1551, 251.3942
663.6372, 251.8986
664.1193, 254.6422
664.6014, 257.4041
665.0836, 257.7850
665.5657, 257.4811
666.0478, 258.5975
666.5299, 263.2891
667.0120, 267.3701
667.4941, 269.3302
667.9763, 270.1831
668.4584, 271.8438
668.9405, 275.0403
669.4226, 277.6392
669.9047, 278.9406
670.3868, 279.4915
670.8690, 281.0052
671.3511, 283.5195
671.8332, 286.3916
672.3153, 289.6861
672.7974, 292.9587
673.2795, 295.2680
673.7617, 296.7047
674.2438, 297.9261
674.7259, 298.1416
675.2080, 299.1338
675.6901, 303.2330
676.1722, 310.8386
676.6544, 316.9837
677.1365, 318.9225
677.6186, 319.8222
678.1007, 321.6996
678.5828, 324.9506
679.0649, 328.2669
679.5471, 331.7148
680.0292, 335.1160
680.5113, 338.0306
680.9934, 340.4752
681.4755, 343.6083
681.9576, 347.8101
682.4398, 352.0835
682.9219, 354.4781
683.4040, 355.8184
683.8861, 358.2711
684.3682, 363.4675
684.8503, 368.6776
685.3325, 371.7775
685.8146, 373.4743
686.2967, 375.2716
686.7788, 376.8488
687.2609, 379.4438
687.7430, 384.7105
688.2252, 391.5440
688.7073, 394.8610
689.1894, 392.2938
689.6715, 391.5962
690.1536, 396.3659
690.6357, 405.6728
691.1179, 413.2874
691.6000, 419.2108
692.0821, 424.2923
692.5642, 428.8598
693.0463, 433.1820
693.5284, 437.4492
694.0106, 441.6815
694.4927, 446.9179
694.9748, 455.5591
695.4569, 464.2915
695.9390, 470.0713
696.4211, 470.9363
696.9033, 473.6803
697.3854, 480.4549
697.8675, 488.5645
698.3496, 495.6563
698.8317, 500.5610
699.3138, 508.8499
699.7960, 521.8486
700.2781, 535.9556
700.7602, 544.6656
701.2423, 549.2947
701.7244, 558.6507
702.2065, 576.5167
702.6887, 595.9756
703.1708, 607.8688
703.6529, 615.5548
704.1350, 625.2776
704.6171, 639.8282
705.0992, 656.5525
705.5814, 675.5790
706.0635, 696.1420
706.5456, 715.4997
707.0277, 731.7168
707.5098, 749.5831
707.9919, 770.3890
708.4741, 793.8241
708.9562, 818.1189
709.4383, 842.8425
709.9204, 870.2487
710.4025, 902.8250
710.8846, 938.6528
711.3667, 972.5424
711.8488, 1004.445
712.3309, 1035.251
712.8130, 1061.654
713.2952, 1089.765
713.7773, 1126.199
714.2594, 1172.119
714.7415, 1217.864
715.2236, 1259.632
715.7057, 1302.414
716.1879, 1349.547
716.6700, 1403.991
717.1521, 1451.539
717.6342, 1489.929
718.1163, 1526.989
718.5984, 1571.448
719.0806, 1622.062
719.5627, 1665.076
720.0448, 1698.710
720.5269, 1729.914
721.0090, 1770.032
721.4911, 1811.726
721.9733, 1843.952
722.4554, 1861.661
722.9375, 1873.272
723.4196, 1881.787
723.9017, 1886.774
724.3839, 1887.810
724.8660, 1885.675
725.3481, 1878.111
725.8302, 1863.448
726.3123, 1844.258
726.7944, 1825.300
727.2766, 1806.471
727.7587, 1786.368
728.2408, 1763.553
728.7229, 1741.122
729.2050, 1726.905
729.6871, 1718.474
730.1693, 1707.890
730.6514, 1688.697
731.1335, 1668.471
731.6156, 1652.290
732.0977, 1639.387
732.5798, 1627.392
733.0620, 1614.848
733.5441, 1604.062
734.0262, 1596.281
734.5083, 1590.990
734.9904, 1584.354
735.4725, 1575.747
735.9547, 1567.838
736.4368, 1561.618
736.9189, 1557.087
737.4010, 1554.918
737.8831, 1554.942
738.3652, 1554.812
738.8474, 1552.753
739.3295, 1549.927
739.8116, 1546.323
740.2937, 1542.176
740.7758, 1541.826
741.2579, 1548.910
741.7401, 1558.688
742.2222, 1569.068
742.7043, 1580.253
743.1864, 1589.878
743.6685, 1596.727
744.1506, 1604.532
744.6328, 1615.781
745.1149, 1630.409
745.5970, 1648.280
746.0791, 1669.248
746.5612, 1691.291
747.0433, 1711.328
747.5255, 1731.688
748.0076, 1755.458
748.4897, 1783.397
748.9718, 1814.100
749.4539, 1848.235
749.9360, 1883.690
750.4182, 1918.827
750.9003, 1952.855
751.3824, 1987.824
751.8645, 2023.118
752.3466, 2060.616
752.8287, 2102.547
753.3109, 2149.512
753.7930, 2195.721
754.2751, 2240.324
754.7572, 2287.048
755.2393, 2343.957
755.7214, 2406.205
756.2036, 2465.074
756.6857, 2514.512
757.1678, 2566.223
757.6499, 2626.265
758.1320, 2692.509
758.6141, 2760.841
759.0963, 2830.689
759.5784, 2903.823
760.0605, 2982.425
760.5426, 3063.595
761.0247, 3140.917
761.5068, 3213.689
761.9890, 3294.275
762.4711, 3386.521
762.9532, 3485.928
763.4353, 3583.159
763.9174, 3680.053
764.3995, 3783.685
764.8817, 3898.993
765.3638, 4016.915
765.8459, 4130.939
766.3280, 4244.341
766.8101, 4362.053
767.2922, 4486.589
767.7744, 4612.888
768.2565, 4739.365
768.7386, 4868.085
769.2207, 5009.610
769.7028, 5164.091
770.1849, 5330.505
770.6671, 5511.762
771.1492, 5701.435
771.6313, 5886.604
772.1134, 6069.608
772.5955, 6258.599
773.0776, 6457.638
773.5598, 6663.865
774.0419, 6874.306
774.5240, 7090.048
775.0061, 7316.422
775.4882, 7559.675
775.9703, 7807.402
776.4525, 8053.125
776.9346, 8300.561
777.4167, 8558.603
777.8988, 8829.174
778.3809, 9098.985
778.8630, 9356.561
779.3452, 9611.954
779.8273, 9885.677
780.3094, 10173.88
780.7915, 10470.78
781.2736, 10786.44
781.7557, 11093.48
782.2379, 11368.00
782.7200, 11612.65
783.2021, 11872.32
783.6842, 12163.54
784.1663, 12448.46
784.6484, 12719.42
785.1306, 12973.60
785.6127, 13204.73
786.0948, 13412.22
786.5769, 13606.16
787.0590, 13789.56
787.5411, 13963.93
788.0233, 14135.48
788.5054, 14300.57
788.9875, 14426.94
789.4696, 14476.12
789.9517, 14498.17
790.4338, 14517.86
790.9160, 14536.83
791.3981, 14547.61
791.8802, 14555.36
792.3623, 14546.07
792.8444, 14511.34
793.3265, 14453.02
793.8087, 14389.00
794.2908, 14318.90
794.7729, 14246.46
795.2550, 14168.94
795.7371, 14094.17
796.2192, 14035.92
796.7014, 13993.12
797.1835, 13954.36
797.6656, 13911.13
798.1477, 13872.92
798.6298, 13843.18
799.1119, 13821.38
799.5941, 13815.54
800.0762, 13824.90
800.5583, 13851.09
801.0404, 13897.47
801.5225, 13961.99
802.0046, 14031.41
802.4868, 14106.08
802.9689, 14195.65
803.4510, 14307.38
803.9331, 14437.30
804.4152, 14581.50
804.8973, 14740.04
805.3795, 14914.54
805.8616, 15109.92
806.3437, 15320.70
806.8258, 15542.34
807.3079, 15773.01
807.7900, 16035.21
808.2722, 16334.06
808.7543, 16645.00
809.2364, 16943.72
809.7185, 17243.26
810.2006, 17594.94
810.6827, 17992.09
811.1649, 18396.66
811.6470, 18777.43
812.1291, 19159.42
812.6112, 19558.98
813.0933, 19977.08
813.5754, 20412.11
814.0576, 20874.99
814.5397, 21343.02
815.0218, 21798.57
815.5039, 22247.73
815.9860, 22730.27
816.4681, 23250.59
816.9503, 23775.75
817.4324, 24289.03
817.9145, 24794.11
818.3966, 25288.22
818.8787, 25771.42
819.3608, 26256.68
819.8430, 26762.28
820.3251, 27262.61
820.8072, 27752.80
821.2893, 28231.37
821.7714, 28640.13
822.2535, 28951.60
822.7357, 29235.03
823.2178, 29528.49
823.6999, 29813.51
824.1820, 30022.21
824.6641, 30155.06
825.1462, 30215.89
825.6284, 30209.61
826.1105, 30131.74
826.5926, 29981.06
827.0747, 29755.18
827.5568, 29449.16
828.0389, 29033.46
828.5211, 28562.69
829.0032, 28054.61
829.4853, 27508.76
829.9674, 26903.62
830.4495, 26234.07
830.9316, 25537.43
831.4138, 24820.46
831.8959, 24087.67
832.3780, 23325.01
832.8601, 22539.52
833.3422, 21747.90
833.8243, 20950.15
834.3065, 20156.61
834.7886, 19373.71
835.2707, 18595.97
835.7528, 17829.54
836.2349, 17061.77
836.7170, 16325.31
837.1992, 15632.92
837.6813, 14981.14
838.1634, 14343.34
838.6455, 13715.49
839.1276, 13115.58
839.6097, 12551.94
840.0919, 12016.32
840.5740, 11501.49
841.0561, 11003.34
841.5382, 10532.20
842.0203, 10097.13
842.5024, 9676.527
842.9846, 9259.990
843.4667, 8855.662
843.9488, 8480.439
844.4309, 8137.051
844.9130, 7809.249
845.3951, 7497.595
845.8773, 7199.220
846.3594, 6909.515
846.8415, 6631.006
847.3236, 6370.792
847.8057, 6133.539
848.2878, 5909.729
848.7700, 5699.115
849.2521, 5498.721
849.7342, 5306.198
850.2163, 5121.999
850.6984, 4943.021
851.1805, 4767.919
851.6627, 4599.628
852.1448, 4442.731
852.6269, 4297.091
853.1090, 4155.236
853.5911, 4014.407
854.0732, 3880.641
854.5554, 3760.434
855.0375, 3650.785
855.5196, 3546.717
856.0017, 3447.988
856.4838, 3352.175
856.9659, 3259.057
857.4481, 3168.552
857.9302, 3080.147
858.4123, 2994.076
858.8944, 2914.558
859.3765, 2842.196
859.8586, 2772.374
860.3408, 2699.412
860.8229, 2625.816
861.3050, 2557.546
861.7871, 2494.754
862.2692, 2435.792
862.7513, 2380.795
863.2335, 2327.919
863.7156, 2274.921
864.1977, 2222.265
864.6798, 2171.016
865.1619, 2120.828
865.6440, 2074.110
866.1262, 2034.905
866.6083, 2000.759
867.0904, 1963.330
867.5725, 1922.426
868.0546, 1882.057
868.5367, 1843.049
869.0189, 1806.274
869.5010, 1773.500
869.9831, 1744.267
870.4652, 1715.454
870.9473, 1686.764
871.4294, 1658.402
871.9116, 1631.208
872.3937, 1604.207
872.8758, 1571.437
873.3579, 1533.277
873.8400, 1499.289
874.3221, 1476.804
874.8043, 1458.210
875.2864, 1436.774
875.7685, 1412.924
876.2506, 1388.397
876.7327, 1361.966
877.2148, 1337.157
877.6970, 1314.938
878.1791, 1294.652
878.6612, 1274.394
879.1433, 1254.025
879.6254, 1235.784
880.1075, 1220.649
880.5897, 1206.324
881.0718, 1189.188
881.5539, 1170.645
882.0360, 1153.477
882.5181, 1139.710
883.0002, 1125.214
883.4824, 1105.586
883.9645, 1086.111
884.4466, 1073.474
884.9287, 1071.393
885.4108, 1061.678
885.8929, 1041.689
886.3751, 1019.982
886.8572, 1007.448
887.3393, 1000.208
887.8214, 988.5588
888.3035, 970.8643
888.7856, 953.1989
889.2678, 938.2337
889.7499, 925.5787
890.2320, 915.8054
890.7141, 909.7946
891.1962, 901.0831
891.6783, 889.0599
892.1605, 876.1906
892.6426, 863.2518
893.1247, 850.8085
893.6068, 841.1616
894.0889, 834.0260
894.5710, 827.2523
895.0532, 819.8076
895.5353, 811.7264
896.0174, 802.2635
896.4995, 791.7542
896.9816, 783.8671
897.4637, 780.8713
897.9459, 776.3033
898.4280, 767.9365
898.9101, 757.0279
899.3922, 746.7128
899.8743, 737.1542
900.3564, 730.3011
900.8386, 729.2177
901.3207, 727.9125
901.8028, 720.0091
902.2849, 708.6180
902.7670, 699.1421
903.2491, 694.6669
903.7313, 689.8705
904.2134, 684.4087
904.6955, 678.3812
905.1776, 671.2842
905.6597, 663.2398
906.1418, 657.7767
906.6240, 655.8578
907.1061, 653.9936
907.5882, 648.7679
908.0703, 641.7653
908.5524, 634.3246
909.0345, 625.9735
909.5167, 619.9540
909.9988, 617.8829
910.4809, 616.6340
910.9630, 614.4508
911.4451, 611.3333
911.9272, 607.6078
912.4094, 603.2853
912.8915, 597.8427
913.3736, 589.0568
913.8557, 580.2214
914.3378, 575.6281
914.8199, 574.9777
915.3021, 574.2889
915.7842, 573.2437
916.2663, 570.8844
916.7484, 566.3918
917.2305, 560.5025
917.7126, 556.2308
918.1948, 553.5980
918.6769, 550.2432
919.1590, 544.7698
919.6411, 538.8798
920.1232, 534.4703
920.6053, 531.2545
921.0875, 528.7188
921.5696, 528.2714
922.0517, 526.3226
922.5338, 521.5923
923.0159, 515.7189
923.4980, 510.8402
923.9802, 507.0682
924.4623, 502.2442
924.9444, 496.0979
925.4265, 489.5240
925.9086, 483.3025
926.3907, 477.3104
926.8729, 471.3498
927.3550, 465.2519
927.8371, 459.8505
928.3192, 456.1318
928.8013, 452.5423
929.2834, 448.2661
929.7656, 443.2887
930.2477, 438.5073
930.7298, 433.9048
931.2119, 429.3203
931.6940, 423.7423
932.1761, 418.7623
932.6583, 417.4742
933.1404, 418.7900
933.6225, 418.3985
934.1046, 413.5390
934.5867, 408.2783
935.0688, 403.4248
935.5510, 399.0237
936.0331, 395.4559
936.5152, 392.6914
936.9973, 390.2145
937.4794, 387.9442
937.9615, 385.7930
938.4437, 384.2563
938.9258, 382.5895
939.4079, 379.4541
939.8900, 372.8536
940.3721, 368.5004
940.8542, 369.1988
941.3364, 370.3785
941.8185, 367.9769
942.3006, 361.8449
942.7827, 357.7648
943.2648, 355.9860
943.7469, 353.8796
944.2291, 347.7409
944.7112, 341.1874
945.1933, 338.5575
945.6754, 339.8586
946.1575, 340.3658
946.6396, 338.5620
947.1218, 336.3247
947.6039, 334.1217
948.0860, 331.9245
948.5681, 329.8707
949.0502, 327.8839
949.5323, 324.7297
950.0145, 318.6108
950.4966, 313.0855
950.9787, 312.7240
951.4608, 315.0311
951.9429, 315.9482
952.4250, 313.2475
952.9072, 310.8667
953.3893, 308.9034
953.8714, 307.3779
954.3535, 306.6346
954.8356, 306.4769
955.3177, 305.4929
955.7999, 303.5308
956.2820, 301.0003
956.7641, 297.6751
957.2462, 294.3229
957.7283, 291.6560
958.2104, 289.7901
958.6925, 287.8290
959.1746, 285.4372
959.6567, 283.5868
960.1389, 283.1448
960.6210, 283.3473
961.1031, 281.2175
961.5852, 277.2588
962.0673, 273.8928
962.5494, 272.7021
963.0316, 271.9866
963.5137, 271.3067
963.9958, 270.2973
964.4779, 268.1778
964.9600, 264.1975
965.4421, 260.9681
965.9243, 258.6585
966.4064, 257.4314
966.8885, 258.4872
967.3706, 260.6089
967.8527, 260.6090
968.3348, 257.8479
968.8170, 254.9429
969.2991, 253.3166
969.7812, 252.0395
970.2633, 250.5374
970.7454, 248.7885
971.2275, 246.9962
971.7097, 245.1212
972.1918, 243.3697
972.6739, 242.0272
973.1560, 240.7129
973.6381, 238.1879
974.1202, 235.1018
974.6024, 233.2944
975.0845, 235.2726
975.5666, 236.3762
976.0487, 234.9639
976.5308, 232.3377
977.0129, 230.2254
977.4951, 228.6626
977.9772, 227.1598
978.4593, 225.5841
978.9414, 224.5486
979.4235, 225.4816
979.9056, 226.8564
980.3878, 226.6398
980.8699, 224.2965
981.3520, 222.4551
981.8341, 221.7957
982.3162, 221.2794
982.7983, 220.5653
983.2805, 219.5971
983.7626, 217.7682
984.2447, 215.2061
984.7268, 213.0789
985.2089, 212.5171
985.6910, 212.0809
986.1732, 210.5109
986.6553, 208.3586
987.1374, 206.7880
987.6195, 205.7623
988.1016, 205.7735
988.5837, 207.4201
989.0659, 208.8864
989.5480, 206.8838
990.0301, 202.9159
990.5122, 201.7061
990.9943, 203.9957
991.4764, 206.0500
991.9586, 205.6779
992.4407, 204.4210
992.9228, 203.2050
993.4049, 202.0500
993.8870, 200.5565
994.3691, 198.6716
994.8513, 196.8730
995.3334, 195.1691
995.8155, 193.9138
996.2976, 193.9408
996.7797, 194.7993
997.2618, 195.4828
997.7440, 195.9171
998.2261, 195.7103
998.7082, 194.2735
999.1903, 192.7076
999.6724, 192.4264
1000.155, 193.3898
1000.637, 193.9417
1001.119, 193.9480
1001.601, 193.4785
1002.083, 192.0509
1002.565, 190.5625
1003.047, 189.8717
1003.529, 190.0584
1004.011, 190.2650
1004.494, 190.5683
1004.976, 190.5693
1005.458, 190.0160
1005.940, 189.1962
1006.422, 188.8104
1006.904, 188.7765
1007.386, 188.8459
1007.868, 189.0579
1008.351, 189.1208
1008.833, 188.6579
1009.315, 188.1135
1009.797, 188.0110
1010.279, 188.5392
1010.761, 188.7693
1011.243, 188.6879
1011.725, 188.3210
1012.207, 187.4398
1012.690, 186.4284
1013.172, 185.6805
1013.654, 185.2637
1014.136, 185.4153
1014.618, 187.2217
1015.100, 188.2962
1015.582, 187.6951
1016.064, 186.2666
1016.547, 185.9404
1017.029, 186.6322
1017.511, 187.7965
1017.993, 189.4954
1018.475, 190.9175
1018.957, 191.1264
1019.439, 190.8980
1019.921, 191.0880
1020.403, 192.0060
1020.886, 192.2468
1021.368, 191.4799
1021.850, 191.0508
1022.332, 192.4009
1022.814, 194.4433
1023.296, 194.2777
1023.778, 192.4615
1024.260, 191.0277
1024.743, 190.8829
1025.225, 191.2770
1025.707, 191.7449
1026.189, 192.7460
1026.671, 195.6979
1027.153, 200.7671
1027.635, 202.6704
1028.117, 200.3944
1028.599, 197.6998
1029.082, 198.9083
1029.564, 200.9811
1030.046, 200.0979
1030.528, 195.5955
1031.010, 194.3567
1031.492, 198.1198
1031.974, 202.3252
1032.456, 205.5607
1032.938, 207.7807
1033.421, 208.5302
1033.903, 208.1837
1034.385, 208.0275
1034.867, 208.8556
1035.349, 209.3938
1035.831, 208.0062
1036.313, 206.7762
1036.795, 208.1754
1037.278, 212.9555
1037.760, 215.0935
1038.242, 214.3191
1038.724, 213.0564
1039.206, 212.7950
1039.688, 213.3503
1040.170, 215.2893
1040.652, 218.0895
1041.135, 219.1508
1041.617, 216.5269
1042.099, 214.5640
1042.581, 214.0726
1043.063, 214.5384
1043.545, 215.1802
1044.027, 216.0163
1044.509, 217.1788
1044.991, 218.8068
1045.474, 220.1347
1045.956, 220.4386
1046.438, 220.5261
1046.920, 221.0966
1047.402, 222.1266
1047.884, 222.1150
1048.366, 220.9705
1048.848, 220.0705
1049.330, 220.1546
1049.813, 220.7254
1050.295, 221.6333
1050.777, 222.5016
1051.259, 222.6404
1051.741, 220.1521
1052.223, 219.7346
1052.705, 222.2470
1053.187, 225.4274
1053.670, 227.4367
1054.152, 228.2495
1054.634, 227.1939
1055.116, 224.4389
1055.598, 222.3083
1056.080, 222.5912
1056.562, 223.2561
1057.044, 223.3265
1057.526, 223.0561
1058.009, 223.0638
1058.491, 223.3430
1058.973, 224.0451
1059.455, 225.2559
1059.937, 226.6992
1060.419, 228.9486
1060.901, 230.7939
1061.383, 230.5738
1061.865, 227.4710
1062.348, 225.1764
1062.830, 223.7537
1063.312, 223.2995
1063.794, 223.9867
1064.276, 225.5794
1064.758, 228.0876
1065.240, 231.0007
1065.722, 232.7530
1066.205, 231.4108
1066.687, 230.5500
1067.169, 231.6797
1067.651, 233.3834
1068.133, 234.3697
1068.615, 234.6215
1069.097, 234.8450
1069.579, 235.0657
1070.062, 235.9199
1070.544, 239.3323
1071.026, 242.2774
1071.508, 241.1662
1071.990, 237.2832
1072.472, 237.1414
1072.954, 242.2238
1073.436, 246.9890
1073.918, 250.7811
1074.401, 252.9406
1074.883, 251.0919
1075.365, 247.7234
1075.847, 247.2510
1076.329, 250.7882
1076.811, 253.6576
1077.293, 254.1721
1077.775, 254.3741
1078.257, 255.0402
1078.740, 255.9971
1079.222, 256.6170
1079.704, 256.9569
1080.186, 257.2947
1080.668, 257.6229
1081.150, 258.1903
1081.632, 259.1262
1082.114, 260.3912
1082.596, 262.0604
1083.079, 264.3853
1083.561, 265.4407
1084.043, 265.1613
1084.525, 264.5629
1085.007, 264.1180
1085.489, 263.9294
1085.971, 264.1837
1086.453, 264.7817
1086.936, 265.4455
1087.418, 266.4493
1087.900, 266.8185
1088.382, 266.3050
1088.864, 265.4775
1089.346, 264.7003
1089.828, 264.2533
1090.310, 265.2762
1090.792, 267.8297
1091.275, 269.0090
1091.757, 266.0256
1092.239, 263.3814
1092.721, 262.8920
1093.203, 263.6538
1093.685, 262.8633
1094.167, 260.8526
1094.649, 259.8686
1095.131, 260.9027
1095.614, 261.7170
1096.096, 260.3415
1096.578, 258.3671
1097.060, 257.3310
1097.542, 257.3362
1098.024, 256.0705
1098.506, 253.3886
1098.988, 251.2207
1099.471, 250.7575
1099.953, 251.1189
1100.435, 252.1410
1100.917, 253.0403
1101.399, 252.3199
1101.881, 247.7615
1102.363, 245.4334
1102.845, 246.0021
1103.328, 247.1963
1103.810, 247.3465
1104.292, 246.5847
1104.774, 244.6546
1105.256, 241.9006
1105.738, 240.0739
1106.220, 241.2676
1106.702, 241.5083
1107.184, 239.4347
1107.667, 236.5938
1108.149, 235.0834
1108.631, 234.8808
1109.113, 236.6950
1109.595, 240.7526
1110.077, 243.1502
1110.559, 239.6851
1111.041, 235.5194
1111.523, 233.8567
1112.006, 234.0781
1112.488, 233.1794
1112.970, 231.1239
1113.452, 231.1404
1113.934, 234.6698
1114.416, 238.8567
1114.898, 241.9321
1115.380, 243.5644
1115.863, 242.7398
1116.345, 238.8499
1116.827, 237.1921
1117.309, 238.3407
1117.791, 238.9714
1118.273, 236.8499
1118.755, 233.9203
1119.237, 233.3299
1119.719, 233.9957
1120.202, 233.7868
1120.684, 230.6214
1121.166, 229.2920
1121.648, 230.5301
1122.130, 232.4031
1122.612, 233.6263
1123.094, 234.2000
1123.576, 233.7998
1124.058, 232.6617
1124.541, 231.8390
1125.023, 231.8188
1125.505, 232.2470
1125.987, 233.7124
1126.469, 234.8096
1126.951, 233.0646
1127.433, 229.0462
1127.915, 226.4154
1128.398, 225.4854
1128.880, 225.4728
1129.362, 226.5473
1129.844, 227.7237
1130.326, 228.5913
1130.808, 229.1356
1131.290, 229.2915
1131.772, 229.0597
1132.255, 228.4253
1132.737, 227.2918
1133.219, 226.2638
1133.701, 225.9032
1134.183, 225.8395
1134.665, 225.7442
1135.147, 225.6032
1135.629, 225.8556
1136.111, 226.7130
1136.594, 226.5686
1137.076, 224.5173
1137.558, 221.9159
1138.040, 220.1149
1138.522, 219.0145
1139.004, 218.6097
1139.486, 219.2730
1139.968, 219.3974
1140.450, 218.8374
1140.933, 218.0675
1141.415, 216.9013
1141.897, 216.0681
1142.379, 218.0072
1142.861, 221.2271
1143.343, 222.3945
1143.825, 218.7349
1144.307, 215.4800
1144.790, 212.9182
1145.272, 211.0760
1145.754, 210.3208
1146.236, 210.2752
1146.718, 209.9033
1147.200, 209.1579
1147.682, 207.9035
1148.164, 204.9588
1148.646, 203.0836
1149.129, 203.4404
1149.611, 204.4315
1150.093, 203.9875
1150.575, 202.3717
1151.057, 200.9941
1151.539, 199.9671
1152.021, 199.0307
1152.503, 198.8776
1152.985, 197.7947
1153.468, 193.9628
1153.950, 189.2471
1154.432, 187.7192
1154.914, 189.1734
1155.396, 190.1176
1155.878, 189.8967
1156.360, 190.1874
1156.842, 194.2428
1157.325, 197.5230
1157.807, 195.4764
1158.289, 189.6722
1158.771, 186.6890
1159.253, 186.6418
1159.735, 186.5461
1160.217, 185.6449
1160.699, 184.3736
1161.182, 182.7527
1161.664, 181.2291
1162.146, 180.4155
1162.628, 180.3582
1163.110, 179.5999
1163.592, 178.0002
1164.074, 176.8106
1164.556, 176.5565
1165.038, 176.8692
1165.521, 178.0073
1166.003, 179.1136
1166.485, 178.8276
1166.967, 176.4234
1167.449, 175.0043
1167.931, 174.7629
1168.413, 174.6001
1168.895, 173.9011
1169.377, 172.9260
1169.860, 171.6065
1170.342, 170.4068
1170.824, 170.2282
1171.306, 172.2937
1171.788, 173.5567
1172.270, 173.9888
1172.752, 173.6946
1173.234, 172.4034
1173.717, 170.6355
1174.199, 169.1786
1174.681, 167.9982
1175.163, 166.9915
1175.645, 165.9844
1176.127, 165.4418
1176.609, 165.5751
1177.091, 165.7548
1177.573, 165.2823
1178.056, 164.4322
1178.538, 163.5671
1179.020, 162.8119
1179.502, 162.6421
1179.984, 164.6019
1180.466, 165.0410
1180.948, 162.8452
1181.430, 159.9527
1181.912, 158.5448
1182.395, 158.4019
1182.877, 159.5502
1183.359, 161.7936
1183.841, 163.0166
1184.323, 161.5806
1184.805, 159.8802
1185.287, 158.2793
1185.769, 157.0042
1186.252, 156.8604
1186.734, 157.3162
1187.216, 156.4796
1187.698, 154.0569
1188.180, 152.2971
1188.662, 152.9926
1189.144, 153.6086
1189.626, 153.1613
1190.109, 152.2255
1190.591, 152.5452
1191.073, 153.5426
1191.555, 152.7406
1192.037, 149.3018
1192.519, 146.7555
1193.001, 147.8123
1193.483, 148.9669
1193.965, 148.5221
1194.448, 147.1016
1194.930, 146.9877
1195.412, 147.7673
1195.894, 147.6047
1196.376, 145.6674
1196.858, 144.0108
1197.340, 144.2182
1197.822, 144.3218
1198.304, 143.1024
1198.787, 140.9365
1199.269, 139.4611
1199.751, 138.6646
1200.233, 138.5665
1200.715, 139.6544
1201.197, 140.2495
1201.679, 139.3458
1202.161, 137.8038
1202.644, 135.9079
1203.126, 133.8619
1203.608, 133.5005
1204.090, 134.4364
1204.572, 134.5535
1205.054, 132.4644
1205.536, 130.2150
1206.018, 128.4733
1206.500, 127.2268
1206.983, 126.7705
1207.465, 126.9559
1207.947, 125.8004
1208.429, 123.5566
1208.911, 121.7472
1209.393, 121.6276
1209.875, 121.5101
1210.357, 120.5323
1210.839, 119.3710
1211.322, 118.7333
1211.804, 118.5438
1212.286, 117.4947
1212.768, 115.6889
1213.250, 114.0469
1213.732, 112.7466
1214.214, 112.0966
1214.696, 112.7946
1215.179, 113.7279
1215.661, 113.8568
1216.143, 113.2119
1216.625, 111.9215
1217.107, 110.0461
1217.589, 108.1318
1218.071, 106.1546
1218.553, 104.5563
1219.036, 103.5929
1219.518, 103.0131
1220.000, 102.7056
1220.482, 102.5863
1220.964, 101.8191
1221.446, 100.4398
1221.928, 99.27339
1222.410, 98.95490
1222.892, 98.70220
1223.375, 98.08852
1223.857, 97.50616
1224.339, 97.98079
1224.821, 99.08977
1225.303, 98.01491
1225.785, 94.73043
1226.267, 91.82442
1226.749, 90.82225
1227.231, 90.34583
1227.714, 90.17220
1228.196, 89.93270
1228.678, 88.88203
1229.160, 87.26526
1229.642, 86.28979
1230.124, 86.01093
1230.606, 85.10509
1231.088, 81.60570
1231.571, 79.14494
1232.053, 79.24276
1232.535, 80.35161
1233.017, 79.64877
1233.499, 77.80917
1233.981, 77.12543
1234.463, 77.82058
1234.945, 78.16718
1235.427, 77.15596
1235.910, 75.96046
1236.392, 74.74854
1236.874, 73.72741
1237.356, 73.46225
1237.838, 73.64503
1238.320, 73.50597
1238.802, 72.94563
1239.284, 72.35070
1239.766, 72.14690
1240.249, 71.42825
1240.731, 69.74904
1241.213, 67.81492
1241.695, 66.73227
1242.177, 66.28952
1242.659, 66.22350
1243.141, 66.51328
1243.623, 66.37676
1244.106, 65.38038
1244.588, 64.46955
1245.070, 63.85488
1245.552, 63.50841
1246.034, 63.57308
1246.516, 63.78184
1246.998, 63.68029
1247.480, 63.19169
1247.963, 62.59440
1248.445, 61.75402
1248.927, 61.33247
1249.409, 61.71143
1249.891, 62.11687
1250.373, 61.17756
1250.855, 59.69307
1251.337, 58.72581
1251.819, 58.46768
1252.302, 58.21335
1252.784, 57.92708
1253.266, 57.71850
1253.748, 57.72628
1254.230, 57.52612
1254.712, 55.95605
1255.194, 54.29188
1255.676, 54.43169
1256.158, 56.60279
1256.641, 56.64916
1257.123, 54.20113
1257.605, 52.28762
1258.087, 51.90581
1258.569, 52.18456
1259.051, 52.60072
1259.533, 52.98131
1260.015, 53.20331
1260.498, 53.25056
1260.980, 52.81340
1261.462, 51.88937
1261.944, 50.95694
1262.426, 50.08019
1262.908, 49.53479
1263.390, 49.94342
1263.872, 50.42508
1264.354, 50.10183
1264.837, 49.19228
1265.319, 49.28132
1265.801, 50.23777
1266.283, 50.81559
1266.765, 50.61491
1267.247, 50.09489
1267.729, 49.01380
1268.211, 48.26703
1268.693, 48.54656
1269.176, 49.48440
1269.658, 49.68708
1270.140, 49.28470
1270.622, 48.84028
1271.104, 48.53345
1271.586, 48.05742
1272.068, 46.69156
1272.550, 45.91213
1273.033, 46.68659
1273.515, 48.13011
1273.997, 47.64500
1274.479, 46.00202
1274.961, 45.26738
1275.443, 46.13743
1275.925, 46.76106
1276.407, 46.71307
1276.890, 46.50871
1277.372, 46.34389
1277.854, 46.14015
1278.336, 45.62014
1278.818, 45.00311
1279.300, 44.67387
1279.782, 44.74327
1280.264, 44.94810
1280.746, 45.37757
1281.229, 45.56106
1281.711, 45.31059
1282.193, 44.77628
1282.675, 43.89812
1283.157, 43.00629
1283.639, 42.47173
1284.121, 42.34281
1284.603, 42.77164
1285.085, 43.84790
1285.568, 44.67797
1286.050, 45.00563
1286.532, 44.88403
1287.014, 44.00106
1287.496, 42.98601
1287.978, 42.37476
1288.460, 42.15883
1288.942, 42.34437
1289.425, 42.90541
1289.907, 43.46154
1290.389, 43.98897
1290.871, 44.09850
1291.353, 42.95280
1291.835, 41.91424
1292.317, 41.87952
1292.799, 42.54925
1293.281, 42.91607
1293.764, 43.02172
1294.246, 43.01676
1294.728, 42.91150
1295.210, 42.84747
1295.692, 43.08535
1296.174, 43.08547
1296.656, 42.53870
1297.138, 41.79383
1297.620, 41.56600
1298.103, 41.71520
1298.585, 42.03135
1299.067, 42.51255
1299.549, 42.78980
1300.031, 42.80109
1300.513, 42.70686
1300.995, 42.54749
1301.477, 42.28413
1301.960, 41.73763
1302.442, 41.14388
1302.924, 40.86617
1303.406, 40.94897
1303.888, 40.74825
1304.370, 40.15386
1304.852, 39.90627
1305.334, 40.12086
##END=



