##NAMES=Vanadinite
##RRUFFID=R050376
##IDEAL CHEMISTRY=Pb^2+^_5_(V^5+^O_4_)_3_Cl
##LOCALITY=Morocco
##OWNER=RRUFF
##SOURCE=Eugene Schlepp
##DESCRIPTION=Red hoppered crystal
##STATUS=The identification of this mineral has been confirmed by X-ray diffraction and chemical analysis
##URL=rruff.info/R050376
##MEASURED CHEMISTRY=Pb_5.00_(V_1.00_O_4_)_3_Cl_1.00_
92.52344, 2056.882
93.00555, 2036.247
93.48767, 2040.254
93.96979, 2119.521
94.45190, 2195.031
94.93402, 2259.298
95.41614, 2283.143
95.89825, 2277.247
96.38037, 2260.629
96.86249, 2234.783
97.34460, 2204.333
97.82672, 2172.530
98.30884, 2138.153
98.79095, 2100.356
99.27307, 2057.456
99.75519, 2010.490
100.2373, 1966.686
100.7194, 1926.619
101.2015, 1885.757
101.6837, 1841.410
102.1658, 1797.263
102.6479, 1756.247
103.1300, 1718.329
103.6121, 1681.138
104.0942, 1642.563
104.5764, 1603.097
105.0585, 1564.332
105.5406, 1526.707
106.0227, 1489.763
106.5048, 1452.264
106.9869, 1411.709
107.4691, 1373.345
107.9512, 1338.943
108.4333, 1308.076
108.9154, 1279.923
109.3975, 1254.142
109.8796, 1230.978
110.3618, 1208.158
110.8439, 1184.117
111.3260, 1161.481
111.8081, 1141.418
112.2902, 1124.170
112.7723, 1109.218
113.2544, 1095.952
113.7366, 1084.779
114.2187, 1074.945
114.7008, 1066.711
115.1829, 1059.496
115.6650, 1052.573
116.1471, 1045.636
116.6293, 1039.415
117.1114, 1035.997
117.5935, 1036.489
118.0756, 1037.142
118.5577, 1036.196
119.0398, 1034.671
119.5220, 1035.128
120.0041, 1039.059
120.4862, 1045.586
120.9683, 1052.065
121.4504, 1058.171
121.9325, 1064.710
122.4147, 1072.170
122.8968, 1080.542
123.3789, 1089.891
123.8610, 1100.953
124.3431, 1112.818
124.8252, 1124.589
125.3074, 1135.740
125.7895, 1146.951
126.2716, 1159.860
126.7537, 1175.481
127.2358, 1190.903
127.7179, 1204.820
128.2001, 1218.086
128.6822, 1232.052
129.1643, 1247.569
129.6464, 1264.542
130.1285, 1280.880
130.6107, 1297.488
131.0928, 1312.613
131.5749, 1324.512
132.0570, 1334.331
132.5391, 1344.709
133.0212, 1358.035
133.5034, 1375.027
133.9855, 1390.495
134.4676, 1403.554
134.9497, 1416.158
135.4318, 1429.834
135.9139, 1444.526
136.3960, 1458.668
136.8782, 1470.303
137.3603, 1478.943
137.8424, 1487.017
138.3245, 1494.160
138.8066, 1500.968
139.2887, 1508.652
139.7709, 1517.901
140.2530, 1526.196
140.7351, 1529.623
141.2172, 1528.715
141.6993, 1527.209
142.1814, 1527.120
142.6636, 1527.813
143.1457, 1526.852
143.6278, 1523.186
144.1099, 1518.148
144.5920, 1513.414
145.0741, 1508.973
145.5563, 1503.273
146.0384, 1494.471
146.5205, 1482.211
147.0026, 1470.120
147.4847, 1459.668
147.9668, 1448.978
148.4490, 1436.979
148.9311, 1423.494
149.4132, 1408.935
149.8953, 1393.872
150.3774, 1377.899
150.8595, 1362.037
151.3417, 1346.463
151.8238, 1331.014
152.3059, 1315.648
152.7880, 1300.433
153.2701, 1285.117
153.7522, 1269.291
154.2344, 1251.746
154.7165, 1235.186
155.1986, 1220.210
155.6807, 1206.094
156.1628, 1191.842
156.6449, 1176.965
157.1271, 1161.764
157.6092, 1147.569
158.0913, 1134.446
158.5734, 1121.909
159.0555, 1109.793
159.5376, 1098.188
160.0198, 1087.327
160.5019, 1077.359
160.9840, 1068.323
161.4661, 1060.062
161.9482, 1052.960
162.4303, 1046.171
162.9125, 1039.148
163.3946, 1031.907
163.8767, 1024.807
164.3588, 1017.910
164.8409, 1011.417
165.3230, 1005.634
165.8052, 1000.987
166.2873, 996.7640
166.7694, 992.0457
167.2515, 986.6066
167.7336, 981.3912
168.2157, 977.1360
168.6979, 973.2712
169.1800, 969.0936
169.6621, 964.2393
170.1442, 958.9318
170.6263, 953.6563
171.1084, 947.9130
171.5906, 943.1319
172.0727, 940.5969
172.5548, 938.9842
173.0369, 936.4559
173.5190, 931.8480
174.0011, 925.3512
174.4833, 918.5829
174.9654, 910.8278
175.4475, 903.4736
175.9296, 897.3172
176.4117, 891.7844
176.8938, 885.7775
177.3760, 878.4584
177.8581, 869.7944
178.3402, 861.0198
178.8223, 852.1877
179.3044, 843.2371
179.7865, 834.4592
180.2687, 825.6339
180.7508, 816.2053
181.2329, 805.7353
181.7150, 794.0850
182.1971, 782.0748
182.6792, 769.0799
183.1614, 756.3162
183.6435, 744.4520
184.1256, 733.5433
184.6077, 723.2790
185.0898, 713.5839
185.5719, 704.4952
186.0541, 694.8105
186.5362, 685.4741
187.0183, 674.9717
187.5004, 661.0865
187.9825, 643.3663
188.4646, 625.5974
188.9468, 611.4115
189.4289, 600.1616
189.9110, 589.2053
190.3931, 577.8948
190.8752, 566.5829
191.3573, 555.6267
191.8395, 544.9484
192.3216, 534.9493
192.8037, 526.5809
193.2858, 519.1963
193.7679, 511.2323
194.2500, 501.2407
194.7322, 490.0772
195.2143, 480.4033
195.6964, 472.8239
196.1785, 466.0664
196.6606, 459.5956
197.1427, 453.2650
197.6249, 446.8019
198.1070, 439.8487
198.5891, 432.4998
199.0712, 425.7454
199.5533, 419.9835
200.0354, 414.4285
200.5176, 408.7115
200.9997, 402.9745
201.4818, 397.5952
201.9639, 392.9975
202.4460, 389.2068
202.9281, 385.1066
203.4103, 380.1048
203.8924, 375.3521
204.3745, 371.5735
204.8566, 368.3974
205.3387, 364.8880
205.8208, 360.0553
206.3030, 353.5776
206.7851, 348.6882
207.2672, 346.9200
207.7493, 345.1187
208.2314, 341.9244
208.7135, 337.5285
209.1957, 332.9348
209.6778, 328.9984
210.1599, 325.7542
210.6420, 323.1437
211.1241, 321.7090
211.6062, 320.3107
212.0884, 318.3826
212.5705, 315.9224
213.0526, 313.1812
213.5347, 310.2838
214.0168, 307.1924
214.4989, 304.6715
214.9811, 303.0874
215.4632, 301.7263
215.9453, 300.0968
216.4274, 298.1817
216.9095, 296.3164
217.3916, 294.8031
217.8737, 293.6577
218.3559, 292.5023
218.8380, 291.2959
219.3201, 290.0923
219.8022, 289.0171
220.2843, 288.0800
220.7664, 286.9715
221.2486, 285.3228
221.7307, 283.2547
222.2128, 281.3671
222.6949, 279.6738
223.1770, 278.2320
223.6591, 277.2251
224.1413, 276.7176
224.6234, 276.2012
225.1055, 275.0103
225.5876, 273.5714
226.0697, 272.7415
226.5518, 273.3185
227.0340, 274.3306
227.5161, 274.1451
227.9982, 272.3674
228.4803, 270.7610
228.9624, 270.7027
229.4445, 271.3665
229.9267, 271.6885
230.4088, 271.1638
230.8909, 270.1872
231.3730, 269.5155
231.8551, 269.2506
232.3372, 269.0455
232.8194, 267.9246
233.3015, 267.0135
233.7836, 268.0839
234.2657, 272.5470
234.7478, 278.3208
235.2299, 280.3949
235.7121, 276.8497
236.1942, 273.3497
236.6763, 271.2528
237.1584, 270.1731
237.6405, 269.8180
238.1227, 270.1179
238.6048, 270.8646
239.0869, 271.5329
239.5690, 272.0645
240.0511, 272.6227
240.5332, 273.1163
241.0154, 273.6963
241.4975, 274.5494
241.9796, 275.7578
242.4617, 277.1748
242.9438, 278.4235
243.4259, 279.4501
243.9081, 280.3769
244.3902, 280.9667
244.8723, 281.5889
245.3544, 282.5977
245.8365, 284.1339
246.3186, 286.0547
246.8008, 288.0560
247.2829, 290.0680
247.7650, 292.2793
248.2471, 294.6706
248.7292, 297.2553
249.2113, 300.2286
249.6935, 303.6137
250.1756, 306.9850
250.6577, 309.4665
251.1398, 309.6939
251.6219, 311.0077
252.1040, 313.8152
252.5862, 317.4178
253.0683, 321.3378
253.5504, 325.3857
254.0325, 329.4754
254.5146, 333.4300
254.9967, 336.8194
255.4789, 340.9321
255.9610, 346.2056
256.4431, 351.9145
256.9252, 357.4451
257.4073, 362.6657
257.8894, 367.8258
258.3716, 373.2213
258.8537, 378.7480
259.3358, 384.9997
259.8179, 392.0064
260.3000, 399.7387
260.7821, 408.2565
261.2643, 417.5717
261.7464, 427.4423
262.2285, 437.6379
262.7106, 448.2365
263.1927, 459.3990
263.6748, 470.9377
264.1570, 483.1338
264.6391, 496.0489
265.1212, 509.7065
265.6033, 524.3345
266.0854, 539.9639
266.5675, 556.7226
267.0497, 574.7568
267.5318, 594.6976
268.0139, 615.3936
268.4960, 635.9268
268.9781, 656.2193
269.4602, 676.7666
269.9424, 697.6638
270.4245, 719.1644
270.9066, 742.1893
271.3887, 767.4059
271.8708, 793.7587
272.3529, 820.6168
272.8351, 847.9792
273.3172, 875.3236
273.7993, 902.1590
274.2814, 928.9793
274.7635, 957.1823
275.2456, 986.9756
275.7278, 1017.785
276.2099, 1049.289
276.6920, 1081.478
277.1741, 1114.271
277.6562, 1147.245
278.1383, 1181.075
278.6205, 1216.250
279.1026, 1253.442
279.5847, 1291.247
280.0668, 1328.213
280.5489, 1364.858
281.0310, 1403.452
281.5132, 1445.291
281.9953, 1489.109
282.4774, 1532.950
282.9595, 1576.976
283.4416, 1620.011
283.9237, 1661.846
284.4059, 1702.170
284.8880, 1740.191
285.3701, 1775.725
285.8522, 1808.307
286.3343, 1838.308
286.8164, 1865.795
287.2986, 1889.915
287.7807, 1911.361
288.2628, 1929.258
288.7449, 1940.706
289.2270, 1945.446
289.7091, 1942.959
290.1913, 1932.566
290.6734, 1915.328
291.1555, 1893.676
291.6376, 1868.627
292.1197, 1840.146
292.6018, 1806.978
293.0840, 1767.819
293.5661, 1727.268
294.0482, 1687.078
294.5303, 1647.881
295.0124, 1610.470
295.4945, 1575.159
295.9767, 1542.180
296.4588, 1511.929
296.9409, 1484.368
297.4230, 1459.668
297.9051, 1437.359
298.3872, 1417.910
298.8694, 1402.275
299.3515, 1390.621
299.8336, 1383.056
300.3157, 1379.823
300.7978, 1381.071
301.2799, 1385.752
301.7621, 1395.055
302.2442, 1407.035
302.7263, 1419.956
303.2084, 1433.353
303.6905, 1448.791
304.1726, 1468.334
304.6548, 1492.058
305.1369, 1517.158
305.6190, 1542.885
306.1011, 1570.203
306.5832, 1599.467
307.0653, 1630.738
307.5475, 1664.185
308.0296, 1699.779
308.5117, 1737.492
308.9938, 1778.171
309.4759, 1822.895
309.9580, 1869.666
310.4402, 1916.237
310.9223, 1963.029
311.4044, 2011.934
311.8865, 2064.015
312.3686, 2118.901
312.8507, 2175.885
313.3329, 2234.751
313.8150, 2296.306
314.2971, 2363.128
314.7792, 2432.804
315.2613, 2501.406
315.7434, 2567.726
316.2256, 2631.851
316.7077, 2694.310
317.1898, 2756.155
317.6719, 2814.768
318.1540, 2872.435
318.6361, 2925.272
319.1183, 2968.635
319.6004, 3001.608
320.0825, 3024.026
320.5646, 3036.526
321.0467, 3039.657
321.5288, 3029.397
322.0110, 3002.293
322.4931, 2961.301
322.9752, 2907.097
323.4573, 2839.867
323.9394, 2762.401
324.4215, 2675.183
324.9037, 2578.878
325.3858, 2479.426
325.8679, 2375.128
326.3500, 2270.935
326.8321, 2169.360
327.3142, 2070.518
327.7964, 1975.480
328.2785, 1884.205
328.7606, 1797.184
329.2427, 1715.886
329.7248, 1640.681
330.2069, 1571.535
330.6891, 1508.549
331.1712, 1450.796
331.6533, 1396.275
332.1354, 1343.738
332.6175, 1294.042
333.0996, 1249.210
333.5818, 1209.537
334.0639, 1173.132
334.5460, 1139.707
335.0281, 1108.897
335.5102, 1080.780
335.9923, 1055.159
336.4745, 1032.321
336.9566, 1012.696
337.4387, 996.4565
337.9208, 981.6500
338.4029, 966.6282
338.8850, 953.7921
339.3671, 945.4879
339.8492, 941.9813
340.3314, 941.4168
340.8135, 942.2850
341.2956, 944.8049
341.7777, 950.3687
342.2598, 959.5323
342.7419, 971.6232
343.2241, 985.5151
343.7062, 1001.310
344.1883, 1019.716
344.6704, 1041.229
345.1525, 1065.568
345.6346, 1092.388
346.1168, 1121.945
346.5989, 1152.958
347.0810, 1184.799
347.5631, 1217.284
348.0452, 1250.627
348.5273, 1285.482
349.0095, 1320.660
349.4916, 1355.012
349.9737, 1388.406
350.4558, 1421.037
350.9379, 1451.932
351.4200, 1482.559
351.9022, 1515.157
352.3843, 1550.102
352.8664, 1585.908
353.3485, 1621.159
353.8306, 1656.242
354.3127, 1692.911
354.7949, 1732.557
355.2770, 1772.707
355.7591, 1809.522
356.2412, 1842.905
356.7233, 1879.209
357.2054, 1921.362
357.6876, 1967.631
358.1697, 2015.596
358.6518, 2065.041
359.1339, 2115.679
359.6160, 2167.418
360.0981, 2220.278
360.5803, 2272.498
361.0624, 2327.921
361.5445, 2379.429
362.0266, 2422.329
362.5087, 2456.412
362.9908, 2481.078
363.4730, 2498.014
363.9551, 2503.003
364.4372, 2487.091
364.9193, 2450.047
365.4014, 2395.654
365.8835, 2321.850
366.3657, 2232.385
366.8478, 2132.852
367.3299, 2024.556
367.8120, 1910.384
368.2941, 1791.976
368.7762, 1666.669
369.2584, 1549.377
369.7405, 1443.480
370.2226, 1346.227
370.7047, 1255.622
371.1868, 1170.822
371.6689, 1092.650
372.1511, 1021.306
372.6332, 957.1995
373.1153, 899.5991
373.5974, 849.2223
374.0795, 803.3718
374.5616, 760.6182
375.0438, 721.2067
375.5259, 685.6016
376.0080, 654.4047
376.4901, 626.9941
376.9722, 601.5450
377.4543, 578.5350
377.9365, 556.8703
378.4186, 536.1845
378.9007, 516.8866
379.3828, 499.8924
379.8649, 485.3467
380.3470, 472.1071
380.8292, 458.5503
381.3113, 444.0396
381.7934, 431.1159
382.2755, 420.4201
382.7576, 410.5062
383.2397, 400.6463
383.7219, 390.8189
384.2040, 381.4657
384.6861, 372.9692
385.1682, 365.2900
385.6503, 358.0609
386.1324, 351.3792
386.6146, 345.1124
387.0967, 339.2464
387.5788, 333.8434
388.0609, 329.0722
388.5430, 325.0175
389.0251, 321.3242
389.5073, 317.1961
389.9894, 312.1781
390.4715, 307.6780
390.9536, 303.8702
391.4357, 300.4397
391.9178, 297.1456
392.4000, 293.9932
392.8821, 291.1683
393.3642, 288.9796
393.8463, 287.4530
394.3284, 285.4976
394.8105, 282.5659
395.2927, 279.8066
395.7748, 277.7063
396.2569, 276.0210
396.7390, 274.3282
397.2211, 272.4359
397.7032, 270.3792
398.1854, 268.2597
398.6675, 266.0975
399.1496, 263.7890
399.6317, 261.1184
400.1138, 258.3895
400.5959, 255.7706
401.0781, 253.3019
401.5602, 251.0989
402.0423, 249.4008
402.5244, 248.1598
403.0065, 246.6566
403.4886, 244.1071
403.9708, 242.3864
404.4529, 243.4324
404.9350, 246.3253
405.4171, 248.4961
405.8992, 249.0532
406.3813, 248.1433
406.8635, 245.5033
407.3456, 240.9008
407.8277, 236.6549
408.3098, 233.8392
408.7919, 232.1304
409.2740, 231.0157
409.7562, 230.7538
410.2383, 230.3139
410.7204, 229.0764
411.2025, 227.1632
411.6846, 224.8617
412.1667, 222.1581
412.6489, 219.2996
413.1310, 216.6874
413.6131, 214.3112
414.0952, 211.4783
414.5773, 207.8458
415.0594, 203.8537
415.5416, 199.8260
416.0237, 195.8076
416.5058, 191.8472
416.9879, 187.9066
417.4700, 184.0773
417.9521, 180.8408
418.4343, 178.8409
418.9164, 176.5598
419.3985, 173.4436
419.8806, 169.8314
420.3627, 166.1052
420.8448, 162.3839
421.3270, 158.9179
421.8091, 156.1145
422.2912, 154.2926
422.7733, 152.2933
423.2554, 149.9717
423.7375, 147.6207
424.2197, 145.3513
424.7018, 143.2151
425.1839, 141.2971
425.6660, 139.6722
426.1481, 138.3101
426.6302, 136.9651
427.1124, 136.1093
427.5945, 134.6574
428.0766, 131.7420
428.5587, 128.5569
429.0408, 126.3362
429.5229, 125.4338
430.0051, 125.1838
430.4872, 124.7188
430.9693, 124.0282
431.4514, 123.1813
431.9335, 122.1331
432.4156, 120.9504
432.8978, 119.5048
433.3799, 117.9332
433.8620, 116.5520
434.3441, 115.6428
434.8262, 115.0007
435.3083, 113.9771
435.7905, 112.3780
436.2726, 110.9456
436.7547, 110.0415
437.2368, 109.3673
437.7189, 108.7039
438.2010, 108.0126
438.6832, 107.3010
439.1653, 106.6037
439.6474, 105.9032
440.1295, 105.0708
440.6116, 104.0273
441.0938, 102.9676
441.5759, 101.9860
442.0580, 101.1081
442.5401, 100.4675
443.0222, 100.4817
443.5043, 100.4910
443.9865, 99.62388
444.4686, 97.99641
444.9507, 96.69451
445.4328, 96.38461
445.9149, 96.54827
446.3970, 95.92873
446.8792, 94.22428
447.3613, 92.76220
447.8434, 91.96680
448.3255, 91.57896
448.8076, 91.39596
449.2897, 91.35292
449.7719, 91.20061
450.2540, 90.67103
450.7361, 89.73637
451.2182, 88.97758
451.7003, 88.59639
452.1824, 88.14393
452.6646, 87.29981
453.1467, 86.30428
453.6288, 85.62698
454.1109, 85.47310
454.5930, 85.54647
455.0751, 85.22484
455.5573, 84.13931
456.0394, 83.38219
456.5215, 83.26920
457.0036, 83.16055
457.4857, 82.61642
457.9678, 81.70856
458.4500, 80.80412
458.9321, 80.18607
459.4142, 79.80737
459.8963, 79.38457
460.3784, 78.89656
460.8605, 78.40215
461.3427, 77.89462
461.8248, 77.39664
462.3069, 76.94068
462.7890, 76.53474
463.2711, 76.12291
463.7532, 75.58753
464.2354, 74.94746
464.7175, 74.57860
465.1996, 74.79533
465.6817, 74.84630
466.1638, 73.96934
466.6459, 72.51800
467.1281, 71.38407
467.6102, 70.97977
468.0923, 70.91526
468.5744, 70.82262
469.0565, 70.70430
469.5386, 70.61294
470.0208, 70.61665
470.5029, 70.59570
470.9850, 70.30723
471.4671, 69.71478
471.9492, 69.13720
472.4313, 68.74704
472.9135, 68.35501
473.3956, 67.62766
473.8777, 66.59792
474.3598, 65.78397
474.8419, 65.64311
475.3240, 66.08159
475.8062, 66.16788
476.2883, 65.69544
476.7704, 65.17931
477.2525, 64.64675
477.7346, 64.15879
478.2167, 63.83392
478.6989, 63.68313
479.1810, 63.53642
479.6631, 63.14682
480.1452, 62.43813
480.6273, 61.88997
481.1094, 61.60005
481.5916, 61.37502
482.0737, 61.18521
482.5558, 61.01205
483.0379, 60.83294
483.5200, 60.63462
484.0021, 60.43169
484.4843, 60.25834
484.9664, 60.12525
485.4485, 59.97047
485.9306, 59.82755
486.4127, 59.61520
486.8948, 59.19719
487.3770, 58.62434
487.8591, 58.17897
488.3412, 58.13694
488.8233, 58.29560
489.3054, 58.26865
489.7875, 58.04472
490.2697, 57.71177
490.7518, 57.21693
491.2339, 56.69787
491.7160, 56.44218
492.1981, 56.57401
492.6802, 56.60926
493.1624, 56.25588
493.6445, 55.71361
494.1266, 55.26249
494.6087, 54.94999
495.0908, 54.73106
495.5729, 54.57717
496.0551, 54.48814
496.5372, 54.38726
497.0193, 54.23536
497.5014, 54.11872
497.9835, 54.14198
498.4656, 54.18885
498.9478, 54.07534
499.4299, 53.74760
499.9120, 53.33375
500.3941, 53.02288
500.8762, 52.84447
501.3583, 52.64310
501.8405, 52.48088
502.3226, 52.23243
502.8047, 51.70895
503.2868, 51.08825
503.7689, 50.71574
504.2510, 50.78273
504.7331, 51.06990
505.2152, 51.19155
505.6974, 51.13323
506.1795, 50.99920
506.6616, 50.76712
507.1437, 50.50294
507.6258, 50.26738
508.1079, 50.04955
508.5901, 49.79460
509.0722, 49.39840
509.5543, 48.98815
510.0364, 48.79876
510.5185, 48.82704
511.0006, 48.78267
511.4828, 48.50968
511.9649, 48.09979
512.4470, 47.74508
512.9291, 47.45188
513.4113, 47.17589
513.8934, 46.82037
514.3755, 46.53030
514.8576, 46.55073
515.3397, 46.84721
515.8218, 47.07196
516.3040, 46.95881
516.7861, 46.55201
517.2682, 46.17548
517.7503, 45.71067
518.2324, 45.43243
518.7145, 45.50682
519.1967, 45.69248
519.6788, 45.75724
520.1609, 45.66711
520.6430, 45.55504
521.1251, 45.58850
521.6072, 45.75720
522.0894, 45.67768
522.5715, 45.13039
523.0536, 44.68378
523.5357, 44.64879
524.0178, 44.75346
524.4999, 44.63026
524.9821, 44.16029
525.4642, 43.74048
525.9463, 43.83657
526.4284, 44.31870
526.9105, 44.59721
527.3926, 44.56810
527.8748, 44.39646
528.3569, 44.12626
528.8390, 43.81017
529.3211, 43.62941
529.8032, 43.70246
530.2853, 43.80096
530.7675, 43.90862
531.2496, 43.93607
531.7317, 43.60443
532.2138, 42.82486
532.6959, 42.03687
533.1780, 41.81650
533.6602, 42.29258
534.1423, 42.53654
534.6244, 42.45028
535.1065, 42.28062
535.5886, 42.03027
536.0707, 41.78351
536.5529, 41.69277
537.0350, 41.81316
537.5171, 41.97639
537.9992, 41.89440
538.4813, 41.51274
538.9634, 41.16097
539.4456, 40.73602
539.9277, 40.48380
540.4098, 40.63612
540.8919, 41.02263
541.3740, 41.31315
541.8561, 41.38476
542.3383, 41.29751
542.8204, 41.04009
543.3025, 40.64191
543.7846, 40.40276
544.2667, 40.43652
544.7488, 40.57037
545.2310, 40.62156
545.7131, 40.60020
546.1952, 40.59505
546.6773, 40.73632
547.1594, 40.78937
547.6415, 40.47409
548.1237, 39.95106
548.6058, 39.67110
549.0879, 39.82797
549.5700, 40.09964
550.0521, 39.90567
550.5342, 38.91047
551.0164, 38.49654
551.4985, 39.13654
551.9806, 39.78380
552.4627, 39.98987
552.9448, 39.86401
553.4269, 39.65183
553.9091, 39.46071
554.3912, 39.32774
554.8733, 39.35807
555.3554, 39.59217
555.8375, 39.70160
556.3196, 39.52930
556.8018, 39.35572
557.2839, 39.41592
557.7660, 39.61949
558.2481, 39.70286
558.7302, 39.48818
559.2123, 39.21551
559.6945, 39.16761
560.1766, 39.28742
560.6587, 39.28462
561.1408, 39.02966
561.6229, 38.76843
562.1050, 38.84592
562.5872, 39.33741
563.0693, 39.63128
563.5514, 39.63910
564.0335, 39.52937
564.5156, 39.31932
564.9977, 39.06691
565.4799, 38.85698
565.9620, 38.72429
566.4441, 38.64702
566.9262, 38.58001
567.4083, 38.49459
567.8904, 38.53624
568.3726, 38.81676
568.8547, 39.11481
569.3368, 39.40264
569.8189, 39.64593
570.3010, 39.80442
570.7831, 39.86995
571.2653, 39.82099
571.7474, 39.54254
572.2295, 39.08144
572.7116, 38.83660
573.1937, 38.93356
573.6758, 39.10308
574.1580, 39.12666
574.6401, 39.03697
575.1222, 38.96112
575.6043, 38.85894
576.0864, 38.83201
576.5685, 39.05769
577.0507, 39.35555
577.5328, 39.37489
578.0149, 39.04226
578.4970, 38.63858
578.9791, 38.46220
579.4612, 38.52109
579.9434, 38.60817
580.4255, 38.65253
580.9076, 38.81328
581.3897, 39.25119
581.8718, 39.75388
582.3539, 40.08707
582.8361, 40.20266
583.3182, 40.22402
583.8003, 40.30886
584.2824, 40.42560
584.7645, 40.29985
585.2466, 39.82857
585.7288, 39.40227
586.2108, 39.18371
586.6929, 39.14263
587.1750, 39.25557
587.6572, 39.54433
588.1393, 39.88426
588.6214, 40.31124
589.1035, 40.71009
589.5856, 40.87700
590.0677, 40.82037
590.5499, 40.77686
591.0320, 40.91017
591.5141, 41.15798
591.9962, 41.28693
592.4783, 41.16792
592.9604, 41.10758
593.4426, 41.20359
593.9247, 41.28160
594.4068, 41.15917
594.8889, 40.89949
595.3710, 40.73029
595.8531, 40.80879
596.3353, 41.05068
596.8174, 41.26577
597.2995, 41.44703
597.7816, 41.63810
598.2637, 41.85705
598.7458, 42.07953
599.2280, 42.30870
599.7101, 42.53254
600.1922, 42.68760
600.6743, 42.67849
601.1564, 42.65733
601.6385, 42.76463
602.1207, 42.96553
602.6028, 43.15364
603.0849, 43.29164
603.5670, 43.41821
604.0491, 43.57879
604.5313, 43.77168
605.0134, 44.01142
605.4955, 44.41279
605.9776, 44.72400
606.4597, 44.78727
606.9418, 44.74902
607.4240, 44.84711
607.9061, 45.13108
608.3882, 45.35404
608.8703, 45.08685
609.3524, 44.39709
609.8345, 44.26338
610.3167, 44.92220
610.7988, 45.58001
611.2809, 45.90016
611.7630, 45.95974
612.2451, 45.76024
612.7272, 45.18385
613.2094, 44.90361
613.6915, 45.49194
614.1736, 46.39728
614.6557, 46.98597
615.1378, 47.20613
615.6199, 47.11430
616.1021, 46.68356
616.5842, 46.12231
617.0663, 46.04966
617.5484, 46.99310
618.0305, 47.53105
618.5126, 47.39986
618.9948, 47.14710
619.4769, 46.95233
619.9590, 46.89872
620.4411, 47.15493
620.9232, 47.87955
621.4053, 48.66424
621.8875, 48.75529
622.3696, 48.16770
622.8517, 47.80152
623.3338, 47.82401
623.8159, 48.06597
624.2980, 48.52416
624.7802, 49.10302
625.2623, 49.47641
625.7444, 49.52131
626.2265, 49.46507
626.7086, 49.36577
627.1907, 49.24938
627.6729, 49.11102
628.1550, 48.96975
628.6371, 48.95325
629.1192, 49.19127
629.6013, 49.64848
630.0834, 50.03680
630.5656, 50.43089
631.0477, 50.62196
631.5298, 50.37101
632.0119, 50.09365
632.4940, 50.14043
632.9761, 50.48122
633.4583, 50.80159
633.9404, 50.88331
634.4225, 50.86409
634.9046, 51.00716
635.3867, 51.29182
635.8688, 51.39788
636.3510, 51.14782
636.8331, 50.87817
637.3152, 51.05290
637.7973, 51.73689
638.2794, 52.14135
638.7615, 52.06075
639.2437, 51.91993
639.7258, 51.85382
640.2079, 51.85237
640.6900, 51.90014
641.1721, 51.98784
641.6542, 52.09458
642.1364, 52.21269
642.6185, 52.33551
643.1006, 52.35565
643.5827, 52.20182
644.0648, 52.10276
644.5469, 52.17398
645.0291, 52.31545
645.5112, 52.48601
645.9933, 52.67836
646.4754, 52.74120
646.9575, 52.40919
647.4396, 52.05500
647.9218, 52.23462
648.4039, 52.79548
648.8860, 53.01274
649.3681, 52.56797
649.8502, 51.86702
650.3323, 51.52051
650.8145, 51.59989
651.2966, 51.71214
651.7787, 51.84269
652.2608, 52.02055
652.7429, 52.31488
653.2250, 52.63375
653.7072, 52.83787
654.1893, 52.89978
654.6714, 52.96476
655.1535, 53.21212
655.6356, 53.57163
656.1177, 53.80092
656.5999, 53.88304
657.0820, 53.90149
657.5641, 53.82426
658.0462, 53.76999
658.5283, 54.01422
659.0104, 54.62156
659.4926, 55.12642
659.9747, 55.47522
660.4568, 55.69165
660.9389, 55.69289
661.4210, 55.59023
661.9031, 55.58342
662.3853, 55.75219
662.8674, 56.04781
663.3495, 56.44257
663.8316, 56.95075
664.3137, 57.33143
664.7958, 57.54543
665.2780, 57.70115
665.7601, 57.68286
666.2422, 57.71265
666.7243, 58.13573
667.2064, 59.04322
667.6885, 59.83850
668.1707, 60.11041
668.6528, 60.21391
669.1349, 60.58613
669.6170, 61.18290
670.0991, 61.68337
670.5812, 61.92666
671.0634, 62.09215
671.5455, 62.52835
672.0276, 63.38565
672.5097, 63.93106
672.9918, 63.63723
673.4739, 63.61063
673.9561, 64.38652
674.4382, 65.52968
674.9203, 66.48821
675.4024, 67.12016
675.8845, 67.63425
676.3666, 68.08629
676.8488, 68.56660
677.3309, 69.39776
677.8130, 70.57920
678.2951, 71.47215
678.7772, 71.69224
679.2593, 71.61816
679.7415, 71.94561
680.2236, 72.81301
680.7057, 73.68487
681.1878, 74.70470
681.6699, 75.57987
682.1520, 75.99207
682.6342, 76.24873
683.1163, 76.85025
683.5984, 77.93651
684.0805, 79.12319
684.5626, 80.00833
685.0447, 80.63921
685.5269, 81.25014
686.0090, 81.82039
686.4911, 82.49317
686.9732, 83.26978
687.4553, 84.23562
687.9374, 85.65943
688.4196, 87.62316
688.9017, 89.22630
689.3838, 89.98421
689.8659, 90.68660
690.3480, 91.63859
690.8301, 92.91378
691.3123, 94.77658
691.7944, 97.24095
692.2765, 99.61394
692.7586, 100.9380
693.2407, 101.3377
693.7228, 102.5934
694.2050, 104.9800
694.6871, 107.5184
695.1692, 110.0251
695.6513, 112.4154
696.1334, 114.4925
696.6155, 116.2682
697.0977, 118.3702
697.5798, 121.2513
698.0619, 124.2857
698.5440, 126.9653
699.0261, 129.4687
699.5082, 132.0714
699.9904, 134.8813
700.4725, 138.0616
700.9546, 141.8126
701.4367, 146.1029
701.9188, 150.6417
702.4009, 155.7054
702.8831, 160.4482
703.3652, 164.1842
703.8473, 167.9044
704.3294, 172.3818
704.8115, 177.5675
705.2936, 182.9001
705.7758, 188.0315
706.2579, 193.3064
706.7400, 199.0183
707.2221, 205.1190
707.7042, 211.7655
708.1863, 218.9326
708.6685, 225.9430
709.1506, 232.0881
709.6327, 237.5561
710.1148, 243.7414
710.5969, 251.2216
711.0790, 258.3256
711.5612, 264.3539
712.0433, 270.4066
712.5254, 277.3622
713.0075, 284.9140
713.4896, 291.9206
713.9717, 297.5974
714.4539, 303.2415
714.9360, 310.3595
715.4181, 318.2611
715.9002, 325.3902
716.3823, 331.5086
716.8644, 336.9500
717.3466, 341.9648
717.8287, 346.4814
718.3108, 350.2956
718.7929, 353.1796
719.2750, 355.7435
719.7571, 358.9247
720.2393, 360.8929
720.7214, 360.6076
721.2035, 358.4574
721.6856, 355.1290
722.1677, 350.7426
722.6498, 345.8018
723.1320, 341.1365
723.6141, 336.0807
724.0962, 329.0094
724.5783, 319.8914
725.0604, 310.4261
725.5425, 301.4171
726.0247, 292.8902
726.5068, 284.9046
726.9889, 277.8857
727.4710, 270.0933
727.9531, 260.4654
728.4352, 251.3162
728.9174, 243.6315
729.3995, 236.7794
729.8816, 229.9314
730.3637, 222.9221
730.8458, 216.5340
731.3279, 211.5725
731.8101, 207.4115
732.2922, 203.0783
732.7743, 198.6025
733.2564, 194.2910
733.7385, 190.2265
734.2206, 186.5579
734.7028, 183.4608
735.1849, 180.9343
735.6670, 178.9986
736.1491, 178.2959
736.6312, 177.3719
737.1133, 175.5787
737.5955, 173.7618
738.0776, 172.7919
738.5597, 172.5836
739.0418, 172.2881
739.5239, 171.3568
740.0060, 170.2604
740.4882, 169.3111
740.9703, 168.6414
741.4524, 168.8792
741.9345, 170.1463
742.4166, 171.3678
742.8987, 171.5420
743.3809, 171.0098
743.8630, 171.5086
744.3451, 173.6867
744.8272, 175.7250
745.3093, 177.3840
745.7914, 179.0176
746.2736, 180.8525
746.7557, 182.7894
747.2378, 184.5749
747.7199, 186.0411
748.2020, 187.7160
748.6841, 190.1513
749.1663, 193.0132
749.6484, 195.6665
750.1305, 198.1216
750.6126, 200.7768
751.0947, 203.8186
751.5768, 207.2236
752.0590, 211.0429
752.5411, 215.4652
753.0232, 219.4316
753.5053, 222.5662
753.9874, 225.7426
754.4695, 229.0548
754.9517, 232.6390
755.4338, 236.6997
755.9159, 241.2393
756.3980, 245.8305
756.8801, 249.9874
757.3622, 254.3813
757.8444, 259.7762
758.3265, 265.8917
758.8086, 272.2413
759.2907, 278.5963
759.7728, 284.3865
760.2549, 288.7491
760.7371, 292.1677
761.2192, 297.6997
761.7013, 306.2553
762.1834, 314.5154
762.6655, 321.5027
763.1476, 328.4380
763.6298, 336.0660
764.1119, 344.2886
764.5940, 352.9508
765.0761, 362.1902
765.5582, 371.4688
766.0403, 380.2240
766.5225, 389.0683
767.0046, 398.8925
767.4867, 409.5479
767.9688, 420.0122
768.4509, 429.7715
768.9330, 439.8423
769.4152, 452.2609
769.8973, 467.2312
770.3794, 480.6032
770.8615, 491.4821
771.3436, 502.8621
771.8257, 516.1371
772.3079, 530.4833
772.7900, 544.4593
773.2721, 557.8893
773.7542, 572.6783
774.2363, 590.0219
774.7184, 607.8917
775.2006, 625.3451
775.6827, 642.6165
776.1648, 659.7129
776.6469, 676.8578
777.1290, 695.1858
777.6111, 715.8588
778.0933, 737.7484
778.5754, 757.9708
779.0575, 776.6342
779.5396, 795.7139
780.0217, 815.6993
780.5038, 836.1795
780.9860, 857.1581
781.4681, 878.4022
781.9502, 899.2467
782.4323, 919.3026
782.9144, 939.6749
783.3965, 961.1761
783.8787, 982.1315
784.3608, 1001.428
784.8429, 1019.653
785.3250, 1037.834
785.8071, 1056.310
786.2892, 1074.602
786.7714, 1092.211
787.2535, 1109.376
787.7356, 1126.767
788.2177, 1144.285
788.6998, 1161.281
789.1819, 1177.491
789.6641, 1193.346
790.1462, 1209.362
790.6283, 1225.539
791.1104, 1241.653
791.5925, 1257.762
792.0746, 1273.585
792.5568, 1288.533
793.0389, 1303.700
793.5210, 1319.227
794.0031, 1335.574
794.4852, 1353.850
794.9673, 1374.766
795.4495, 1397.073
795.9316, 1420.460
796.4137, 1444.381
796.8958, 1467.823
797.3779, 1491.093
797.8600, 1515.725
798.3422, 1542.497
798.8243, 1571.272
799.3064, 1601.846
799.7885, 1634.332
800.2706, 1668.260
800.7527, 1703.131
801.2349, 1740.588
801.7170, 1782.153
802.1991, 1825.795
802.6812, 1868.133
803.1633, 1908.874
803.6454, 1953.940
804.1276, 2004.960
804.6097, 2058.837
805.0918, 2114.356
805.5739, 2171.717
806.0560, 2231.251
806.5381, 2292.963
807.0203, 2357.868
807.5024, 2426.850
807.9845, 2497.532
808.4666, 2566.012
808.9487, 2633.309
809.4308, 2703.060
809.9130, 2775.968
810.3951, 2851.860
810.8772, 2931.118
811.3593, 3012.576
811.8414, 3094.423
812.3235, 3176.844
812.8057, 3260.600
813.2878, 3346.971
813.7699, 3433.454
814.2520, 3519.987
814.7341, 3606.167
815.2162, 3690.879
815.6984, 3774.312
816.1805, 3859.944
816.6626, 3953.208
817.1447, 4045.570
817.6268, 4131.418
818.1089, 4211.589
818.5911, 4286.661
819.0732, 4357.247
819.5553, 4425.276
820.0374, 4492.501
820.5195, 4557.170
821.0016, 4616.924
821.4838, 4671.885
821.9659, 4717.435
822.4480, 4752.968
822.9301, 4780.026
823.4122, 4799.604
823.8943, 4810.931
824.3765, 4812.542
824.8586, 4804.095
825.3407, 4787.390
825.8228, 4764.880
826.3049, 4731.256
826.7870, 4682.345
827.2692, 4622.817
827.7513, 4557.813
828.2334, 4487.497
828.7155, 4408.813
829.1976, 4319.309
829.6797, 4221.576
830.1619, 4117.230
830.6440, 4007.341
831.1261, 3894.666
831.6082, 3779.552
832.0903, 3663.316
832.5724, 3546.101
833.0546, 3428.144
833.5367, 3310.015
834.0188, 3191.124
834.5009, 3074.313
834.9830, 2958.979
835.4651, 2846.776
835.9473, 2739.457
836.4294, 2635.599
836.9115, 2531.773
837.3936, 2428.573
837.8757, 2330.156
838.3578, 2238.116
838.8400, 2149.319
839.3221, 2061.603
839.8042, 1976.765
840.2863, 1896.296
840.7684, 1820.268
841.2505, 1748.436
841.7327, 1680.461
842.2148, 1615.754
842.6969, 1553.590
843.1790, 1494.083
843.6611, 1436.991
844.1432, 1382.251
844.6254, 1329.074
845.1075, 1276.909
845.5896, 1227.088
846.0717, 1181.152
846.5538, 1139.347
847.0359, 1098.331
847.5181, 1057.538
848.0002, 1019.163
848.4823, 984.3924
848.9644, 951.3829
849.4465, 918.3820
849.9286, 885.9937
850.4108, 855.9678
850.8929, 829.1635
851.3750, 803.4661
851.8571, 778.1816
852.3392, 753.5170
852.8214, 729.3101
853.3035, 705.9056
853.7856, 683.9852
854.2677, 663.7375
854.7498, 644.6519
855.2319, 626.3797
855.7141, 608.8719
856.1962, 591.8661
856.6783, 575.4317
857.1604, 559.1539
857.6425, 542.9987
858.1246, 527.7792
858.6068, 514.3235
859.0889, 502.3257
859.5710, 490.5834
860.0531, 479.1976
860.5352, 467.7228
861.0173, 455.7338
861.4995, 444.2240
861.9816, 433.5501
862.4637, 423.5742
862.9458, 414.0947
863.4279, 405.1327
863.9100, 396.6923
864.3922, 389.3299
864.8743, 381.7913
865.3564, 373.0212
865.8385, 363.9763
866.3206, 355.7629
866.8027, 348.4839
867.2849, 341.7263
867.7670, 335.3406
868.2491, 329.1676
868.7312, 323.2236
869.2133, 317.3480
869.6954, 310.8715
870.1776, 303.8043
870.6597, 296.9630
871.1418, 290.6779
871.6239, 285.0673
872.1060, 280.3817
872.5881, 276.6216
873.0703, 272.4363
873.5524, 267.6572
874.0345, 262.8992
874.5166, 258.3400
874.9987, 253.7635
875.4808, 248.7020
875.9630, 243.4534
876.4451, 238.9842
876.9272, 235.8175
877.4093, 232.4139
877.8914, 228.2398
878.3735, 223.9669
878.8557, 219.8711
879.3378, 215.9710
879.8199, 212.2265
880.3020, 208.6145
880.7841, 205.1727
881.2662, 202.0171
881.7484, 198.9295
882.2305, 195.4122
882.7126, 191.7908
883.1947, 189.0476
883.6768, 187.2085
884.1589, 185.1668
884.6411, 182.2024
885.1232, 178.7465
885.6053, 175.6500
886.0874, 172.9194
886.5695, 170.2260
887.0516, 167.5568
887.5338, 165.0152
888.0159, 162.6497
888.4980, 160.4449
888.9801, 158.4499
889.4622, 156.6598
889.9443, 154.6469
890.4265, 151.9790
890.9086, 149.7159
891.3907, 148.1911
891.8728, 146.8657
892.3549, 145.5366
892.8370, 144.1229
893.3192, 142.4663
893.8013, 140.4839
894.2834, 138.6237
894.7655, 137.1619
895.2476, 135.8552
895.7297, 134.5680
896.2119, 133.2638
896.6940, 131.9274
897.1761, 130.5342
897.6582, 128.9780
898.1403, 127.1066
898.6224, 125.2424
899.1046, 123.9906
899.5867, 123.2050
900.0688, 122.1800
900.5509, 120.8528
901.0330, 119.6487
901.5151, 118.7815
901.9973, 118.0304
902.4794, 117.0495
902.9615, 115.8382
903.4436, 114.8746
903.9257, 114.1582
904.4078, 113.7209
904.8900, 113.9486
905.3721, 113.9675
905.8542, 112.8620
906.3363, 111.0339
906.8184, 109.7364
907.3005, 109.1290
907.7827, 108.7222
908.2648, 108.8747
908.7469, 108.7473
909.2290, 107.5711
909.7111, 106.0935
910.1932, 105.2794
910.6754, 105.1981
911.1575, 105.1907
911.6396, 104.9711
912.1217, 104.6586
912.6038, 104.3680
913.0859, 104.0340
913.5681, 103.4801
914.0502, 102.7840
914.5323, 102.2494
915.0144, 102.0073
915.4965, 101.8832
915.9786, 101.6467
916.4607, 101.3598
916.9428, 101.2391
917.4249, 101.2805
917.9070, 101.5126
918.3892, 101.9783
918.8713, 102.2110
919.3534, 101.7991
919.8355, 100.9500
920.3176, 100.3371
920.7997, 100.1158
921.2819, 99.53075
921.7640, 98.52565
922.2461, 97.23994
922.7282, 95.57767
923.2103, 93.78938
923.6924, 92.24698
924.1746, 90.92674
924.6567, 89.37286
925.1388, 87.32050
925.6209, 85.37952
926.1030, 83.70509
926.5851, 82.13441
927.0673, 80.51384
927.5494, 78.93987
928.0315, 77.58057
928.5136, 76.48535
928.9957, 75.60361
929.4778, 75.05668
929.9600, 74.56824
930.4421, 73.90573
930.9242, 73.14799
931.4063, 72.42634
931.8884, 71.74647
932.3705, 71.00801
932.8527, 70.12916
933.3348, 69.32558
933.8169, 68.95306
934.2990, 68.85662
934.7811, 68.59773
935.2632, 68.18777
935.7454, 67.91901
936.2275, 67.88913
936.7096, 67.69714
937.1917, 66.87464
937.6738, 65.68394
938.1559, 65.23414
938.6381, 65.65987
939.1202, 65.71162
939.6023, 65.17307
940.0844, 64.54794
940.5665, 64.02551
941.0486, 63.65330
941.5308, 63.58262
942.0129, 63.87932
942.4950, 63.73018
942.9771, 62.53615
943.4592, 61.80233
943.9413, 62.21518
944.4235, 62.66640
944.9056, 62.33385
945.3877, 61.56165
945.8698, 61.19024
946.3519, 61.47598
946.8340, 61.46799
947.3162, 60.44880
947.7983, 59.62355
948.2804, 59.92812
948.7625, 60.56700
949.2446, 60.59304
949.7267, 60.01314
950.2089, 59.38967
950.6910, 58.92896
951.1731, 58.61889
951.6552, 58.56501
952.1373, 58.57175
952.6194, 58.41311
953.1016, 58.10324
953.5837, 57.65130
954.0658, 57.09967
954.5479, 56.69270
955.0300, 56.67693
955.5121, 56.83033
955.9943, 56.74266
956.4764, 56.46522
956.9585, 56.21104
957.4406, 55.99574
957.9227, 55.71409
958.4048, 55.31517
958.8870, 54.84046
959.3691, 54.33100
959.8512, 53.79724
960.3333, 53.31736
960.8154, 52.89027
961.2975, 52.54893
961.7797, 52.32492
962.2618, 52.10555
962.7439, 51.80947
963.2260, 51.48827
963.7081, 51.28465
964.1902, 51.28263
964.6724, 50.93452
965.1545, 49.97068
965.6366, 49.10913
966.1187, 48.44866
966.6008, 48.01225
967.0829, 47.92525
967.5651, 48.06606
968.0472, 48.06684
968.5293, 47.89975
969.0114, 47.61289
969.4935, 46.95401
969.9756, 46.47980
970.4578, 46.63326
970.9399, 46.95915
971.4220, 46.94642
971.9041, 46.60743
972.3862, 46.28028
972.8683, 46.08904
973.3505, 45.90791
973.8326, 45.67855
974.3147, 45.42422
974.7968, 45.18268
975.2789, 44.92584
975.7610, 44.58625
976.2432, 44.16262
976.7253, 43.73429
977.2074, 43.31452
977.6895, 42.98439
978.1716, 42.86834
978.6537, 42.88512
979.1359, 42.92094
979.6180, 42.95417
980.1001, 43.01145
980.5822, 43.08939
981.0643, 43.00075
981.5464, 42.46437
982.0286, 41.72951
982.5107, 41.43269
982.9928, 41.48072
983.4749, 41.40648
983.9570, 41.15339
984.4391, 40.92075
984.9213, 40.80926
985.4034, 40.82229
985.8855, 41.02964
986.3676, 41.37353
986.8497, 41.28483
987.3318, 40.71838
987.8140, 40.25300
988.2961, 40.01292
988.7782, 39.81019
989.2603, 39.48820
989.7424, 39.18710
990.2245, 39.23457
990.7067, 39.70510
991.1888, 39.90287
991.6709, 39.71985
992.1530, 39.51701
992.6351, 39.28184
993.1172, 39.20528
993.5994, 39.62095
994.0815, 40.25749
994.5636, 40.22671
995.0457, 39.12813
995.5278, 38.49355
996.0099, 38.73203
996.4921, 38.89252
996.9742, 38.63065
997.4563, 38.28476
997.9384, 38.10632
998.4205, 38.08640
998.9026, 38.17842
999.3848, 38.46457
999.8669, 38.63483
1000.349, 38.63051
1000.831, 38.49650
1001.313, 38.15701
1001.795, 37.76727
1002.277, 37.41182
1002.760, 37.15501
1003.242, 37.21088
1003.724, 37.86663
1004.206, 38.28295
1004.688, 37.85676
1005.170, 37.26141
1005.652, 37.02467
1006.134, 36.96053
1006.617, 36.69624
1007.099, 36.22771
1007.581, 35.89431
1008.063, 35.88020
1008.545, 36.00903
1009.027, 36.26222
1009.509, 36.48549
1009.991, 36.45655
1010.473, 36.26035
1010.956, 36.07823
1011.438, 35.96638
1011.920, 35.93158
1012.402, 35.99706
1012.884, 36.09397
1013.366, 36.15830
1013.848, 36.18336
1014.330, 36.13999
1014.813, 36.04530
1015.295, 35.96400
1015.777, 35.91367
1016.259, 35.85618
1016.741, 35.76510
1017.223, 35.63236
1017.705, 35.43577
1018.187, 35.18509
1018.669, 34.88680
1019.152, 34.55863
1019.634, 34.31188
1020.116, 34.18722
1020.598, 34.13856
1021.080, 34.10714
1021.562, 34.13973
1022.044, 34.43606
1022.526, 34.95864
1023.008, 35.32952
1023.491, 35.51217
1023.973, 35.44517
1024.455, 35.07844
1024.937, 34.68532
1025.419, 34.58878
1025.901, 34.72468
1026.383, 34.79408
1026.865, 34.78964
1027.348, 34.85084
1027.830, 35.01603
1028.312, 35.08613
1028.794, 34.95448
1029.276, 34.73431
1029.758, 34.53648
1030.240, 34.38529
1030.722, 34.54774
1031.204, 35.17005
1031.687, 35.41546
1032.169, 35.09558
1032.651, 34.69913
1033.133, 34.38971
1033.615, 34.23144
1034.097, 34.35197
1034.579, 34.72496
1035.061, 34.93852
1035.544, 34.94756
1036.026, 34.90607
1036.508, 34.78790
1036.990, 34.68906
1037.472, 34.63947
1037.954, 34.65197
1038.436, 34.79936
1038.918, 35.06861
1039.401, 35.05147
1039.883, 34.41967
1040.365, 34.11911
1040.847, 34.38789
1041.329, 34.75495
1041.811, 35.09745
1042.293, 35.37280
1042.775, 35.51887
1043.257, 35.53721
1043.740, 35.50122
1044.222, 35.25439
1044.704, 35.19563
1045.186, 35.63525
1045.668, 35.92937
1046.150, 35.57934
1046.632, 35.07071
1047.114, 35.08882
1047.596, 35.59331
1048.079, 35.77794
1048.561, 35.38469
1049.043, 34.95568
1049.525, 34.33723
1050.007, 33.94370
1050.489, 34.16622
1050.971, 34.59381
1051.453, 34.70605
1051.936, 34.51841
1052.418, 34.44115
1052.900, 34.60724
1053.382, 34.77205
1053.864, 34.88577
1054.346, 34.99216
1054.828, 35.13999
1055.310, 35.27637
1055.792, 35.30883
1056.275, 35.25785
1056.757, 35.28502
1057.239, 35.54596
1057.721, 35.63652
1058.203, 35.21504
1058.685, 34.85876
1059.167, 34.96938
1059.649, 35.26357
1060.131, 35.43960
1060.614, 35.46954
1061.096, 35.39119
1061.578, 35.11576
1062.060, 34.99640
1062.542, 35.33398
1063.024, 35.65443
1063.506, 35.71666
1063.988, 35.59473
1064.471, 35.24320
1064.953, 34.79622
1065.435, 34.70858
1065.917, 35.22797
1066.399, 35.65453
1066.881, 35.70274
1067.363, 35.59052
1067.845, 35.28486
1068.328, 35.00476
1068.810, 35.01667
1069.292, 35.26350
1069.774, 35.51086
1070.256, 35.70699
1070.738, 35.82888
1071.220, 35.82196
1071.702, 35.78866
1072.184, 35.70254
1072.667, 35.68748
1073.149, 35.92762
1073.631, 36.33889
1074.113, 36.71861
1074.595, 37.02710
1075.077, 37.12793
1075.559, 36.81752
1076.041, 36.45123
1076.523, 36.02442
1077.006, 35.80768
1077.488, 36.29656
1077.970, 37.13656
1078.452, 37.46721
1078.934, 37.08686
1079.416, 36.82989
1079.898, 37.20641
1080.380, 37.62034
1080.862, 37.83343
1081.345, 37.88295
1081.827, 37.70152
1082.309, 37.42581
1082.791, 37.31043
1083.273, 37.39171
1083.755, 37.44234
1084.237, 37.28570
1084.719, 37.19206
1085.202, 37.26150
1085.684, 37.47304
1086.166, 38.08422
1086.648, 38.68463
1087.130, 38.47614
1087.612, 37.49579
1088.094, 36.88829
1088.576, 37.28393
1089.058, 37.70897
1089.541, 37.74471
1090.023, 37.66155
1090.505, 37.65808
1090.987, 37.64710
1091.469, 37.42040
1091.951, 37.04110
1092.433, 36.88569
1092.915, 37.16438
1093.397, 37.39601
1093.880, 37.38178
1094.362, 37.27806
1094.844, 37.09650
1095.326, 36.93287
1095.808, 36.27151
1096.290, 35.75602
1096.772, 37.81688
1097.254, 44.04099
1097.737, 47.66786
1098.219, 44.48328
1098.701, 40.65235
1099.183, 38.49139
1099.665, 37.31939
1100.147, 36.73446
1100.629, 36.49084
1101.111, 36.19850
1101.594, 35.77485
1102.076, 35.54207
1102.558, 35.80275
1103.040, 35.96531
1103.522, 35.74606
1104.004, 35.45525
1104.486, 35.21700
1104.968, 35.10206
1105.450, 35.28872
1105.932, 35.77289
1106.415, 36.02991
1106.897, 35.78753
1107.379, 35.56846
1107.861, 35.41508
1108.343, 35.37348
1108.825, 35.56861
1109.307, 35.82011
1109.789, 35.89124
1110.272, 35.80144
1110.754, 35.78269
1111.236, 36.02086
1111.718, 36.00576
1112.200, 35.42444
1112.682, 34.92657
1113.164, 34.72294
1113.646, 34.70597
1114.129, 34.87220
1114.611, 35.13932
1115.093, 35.24031
1115.575, 35.14253
1116.057, 34.96571
1116.539, 34.56021
1117.021, 34.30281
1117.503, 34.31420
1117.985, 34.43849
1118.468, 34.61681
1118.950, 34.81755
1119.432, 34.99074
1119.914, 35.14093
1120.396, 35.20176
1120.878, 35.12651
1121.360, 35.05120
1121.842, 34.91098
1122.324, 34.93986
1122.807, 35.39143
1123.289, 35.88171
1123.771, 35.88893
1124.253, 35.47821
1124.735, 35.19113
1125.217, 35.02401
1125.699, 34.98700
1126.181, 35.07854
1126.664, 35.34143
1127.146, 35.88519
1127.628, 36.34612
1128.110, 36.36408
1128.592, 36.07815
1129.074, 35.89321
1129.556, 35.82283
1130.038, 35.72977
1130.521, 35.62317
1131.003, 35.39241
1131.485, 34.97981
1131.967, 34.66600
1132.449, 34.65006
1132.931, 34.75189
1133.413, 34.64094
1133.895, 34.38026
1134.377, 34.48577
1134.859, 34.93962
1135.342, 35.15531
1135.824, 35.05747
1136.306, 34.84663
1136.788, 34.60456
1137.270, 34.47826
1137.752, 34.67267
1138.234, 34.99263
1138.716, 34.87502
1139.199, 34.45662
1139.681, 34.37663
1140.163, 34.60636
1140.645, 34.73133
1141.127, 34.64290
1141.609, 34.50035
1142.091, 34.41383
1142.573, 34.32068
1143.056, 34.16801
1143.538, 33.92754
1144.020, 33.38105
1144.502, 32.74131
1144.984, 32.62569
1145.466, 33.00385
1145.948, 33.33659
1146.430, 33.39389
1146.912, 33.38242
1147.395, 33.51339
1147.877, 33.63557
1148.359, 33.49715
1148.841, 33.29763
1149.323, 33.42109
1149.805, 33.69250
1150.287, 33.62959
1150.769, 33.16783
1151.251, 32.70024
1151.734, 32.38699
1152.216, 32.23675
1152.698, 32.44488
1153.180, 32.62395
1153.662, 32.24854
1154.144, 31.78576
1154.626, 32.00813
1155.108, 32.72277
1155.591, 33.04225
1156.073, 32.66833
1156.555, 32.30780
1157.037, 32.31207
1157.519, 32.24164
1158.001, 31.70614
1158.483, 31.23461
1158.965, 31.29162
1159.448, 31.66377
1159.930, 32.01805
1160.412, 32.32108
1160.894, 32.42900
1161.376, 32.19279
1161.858, 31.97050
1162.340, 31.80442
1162.822, 31.63897
1163.304, 31.38773
1163.786, 31.19949
1164.269, 31.30059
1164.751, 31.55603
1165.233, 31.45772
1165.715, 30.83645
1166.197, 30.64325
1166.679, 31.07304
1167.161, 31.38440
1167.643, 31.41879
1168.126, 31.33356
1168.608, 31.18859
1169.090, 31.05087
1169.572, 31.02380
1170.054, 31.09448
1170.536, 31.16642
1171.018, 31.23896
1171.500, 31.35589
1171.983, 31.52611
1172.465, 31.61930
1172.947, 31.59533
1173.429, 31.30496
1173.911, 30.55371
1174.393, 29.77402
1174.875, 29.93746
1175.357, 30.75131
1175.839, 31.09300
1176.322, 31.03940
1176.804, 31.00926
1177.286, 31.05426
1177.768, 30.94726
1178.250, 30.59204
1178.732, 30.28739
1179.214, 30.37223
1179.696, 30.58863
1180.178, 30.62397
1180.661, 30.53800
1181.143, 30.37770
1181.625, 30.18992
1182.107, 30.03184
1182.589, 29.93135
1183.071, 29.96920
1183.553, 30.25295
1184.035, 30.39736
1184.518, 29.98755
1185.000, 29.54983
1185.482, 29.44711
1185.964, 29.51761
1186.446, 29.60469
1186.928, 29.70267
1187.410, 29.86518
1187.892, 30.10335
1188.375, 30.27580
1188.857, 30.35720
1189.339, 30.35703
1189.821, 30.10205
1190.303, 29.97503
1190.785, 30.38858
1191.267, 30.84063
1191.749, 30.73839
1192.231, 30.22289
1192.714, 29.80782
1193.196, 29.40623
1193.678, 29.51645
1194.160, 30.53397
1194.642, 30.91504
1195.124, 30.11723
1195.606, 29.34885
1196.088, 29.32840
1196.570, 29.62528
1197.053, 29.62012
1197.535, 29.42035
1198.017, 29.62951
1198.499, 30.23328
1198.981, 30.63143
1199.463, 30.78295
1199.945, 30.62406
1200.427, 30.15315
1200.910, 29.80757
1201.392, 29.90618
1201.874, 30.11304
1202.356, 29.83492
1202.838, 29.38284
1203.320, 29.59918
1203.802, 30.10733
1204.284, 29.88825
1204.766, 29.12054
1205.249, 28.81368
1205.731, 29.22811
1206.213, 29.63006
1206.695, 29.49637
1207.177, 29.37483
1207.659, 29.89762
1208.141, 30.39498
1208.623, 30.12593
1209.105, 29.58566
1209.588, 29.39103
1210.070, 29.52860
1210.552, 29.75241
1211.034, 30.03398
1211.516, 30.17943
1211.998, 29.99494
1212.480, 29.88966
1212.962, 30.00237
1213.445, 30.17062
1213.927, 30.33702
1214.409, 30.49513
1214.891, 30.68003
1215.373, 30.84723
1215.855, 30.76401
1216.337, 30.30679
1216.819, 30.16079
1217.302, 30.40282
1217.784, 30.69189
1218.266, 31.00486
1218.748, 31.11346
1219.230, 30.86043
1219.712, 30.49460
1220.194, 30.33047
1220.676, 30.31908
1221.158, 30.28095
1221.641, 30.24674
1222.123, 30.39783
1222.605, 30.71748
1223.087, 31.15309
1223.569, 31.63368
1224.051, 31.77598
1224.533, 31.34820
1225.015, 30.88349
1225.497, 30.95084
1225.980, 31.24043
1226.462, 31.46184
1226.944, 31.62754
1227.426, 31.78802
1227.908, 31.89822
1228.390, 31.78077
1228.872, 31.47779
1229.354, 31.41407
1229.837, 31.83089
1230.319, 32.21394
1230.801, 32.40650
1231.283, 32.50570
1231.765, 32.57491
1232.247, 32.54591
1232.729, 32.15981
1233.211, 31.74338
1233.693, 31.99268
1234.176, 32.86892
1234.658, 33.17947
1235.140, 32.65314
1235.622, 32.38443
1236.104, 32.44468
1236.586, 32.69668
1237.068, 33.14390
1237.550, 33.57243
1238.032, 33.82330
1238.515, 33.97177
1238.997, 34.14249
1239.479, 34.31661
1239.961, 34.39342
1240.443, 34.40564
1240.925, 34.56953
1241.407, 34.82995
1241.889, 34.77488
1242.372, 34.35066
1242.854, 34.08142
1243.336, 34.31434
1243.818, 34.65285
1244.300, 34.60884
1244.782, 34.61648
1245.264, 35.33326
1245.746, 36.16219
1246.229, 36.29154
1246.711, 35.98734
1247.193, 35.87284
1247.675, 36.04784
1248.157, 36.31029
1248.639, 36.71634
1249.121, 36.99282
1249.603, 37.00117
1250.085, 36.99408
1250.568, 36.92941
1251.050, 37.03040
1251.532, 37.53528
1252.014, 38.21588
1252.496, 38.73531
1252.978, 39.07876
1253.460, 38.94358
1253.942, 38.21819
1254.424, 38.43422
1254.907, 39.73059
1255.389, 40.44017
1255.871, 40.11257
1256.353, 39.73690
1256.835, 39.94018
1257.317, 40.46995
1257.799, 41.11583
1258.281, 41.76075
1258.764, 42.20953
1259.246, 42.49371
1259.728, 42.62353
1260.210, 42.65871
1260.692, 42.64732
1261.174, 42.65466
1261.656, 42.90306
1262.138, 43.52605
1262.620, 44.14186
1263.103, 44.71270
1263.585, 45.04753
1264.067, 44.87446
1264.549, 44.63452
1265.031, 44.67479
1265.513, 44.80873
1265.995, 44.67212
1266.477, 44.37030
1266.959, 44.49670
1267.442, 45.20127
1267.924, 45.73500
1268.406, 46.10781
1268.888, 46.23090
1269.370, 46.05199
1269.852, 45.87988
1270.334, 45.85872
1270.816, 46.02912
1271.299, 46.47652
1271.781, 47.02608
1272.263, 47.36965
1272.745, 47.51681
1273.227, 47.34640
1273.709, 47.05293
1274.191, 47.18982
1274.673, 47.67444
1275.156, 47.91076
1275.638, 47.71769
1276.120, 47.55439
1276.602, 47.67491
1277.084, 47.87547
1277.566, 48.21502
1278.048, 48.41210
1278.530, 47.96944
1279.012, 47.58717
1279.495, 48.20581
1279.977, 49.34507
1280.459, 49.79130
1280.941, 49.52799
1281.423, 49.27566
1281.905, 48.98795
1282.387, 48.92735
1282.869, 49.13038
1283.351, 49.45682
1283.834, 49.87236
1284.316, 50.28988
1284.798, 50.61013
1285.280, 51.24525
1285.762, 52.69558
1286.244, 54.99825
##END=



