##NAMES=Vanadinite
##RRUFFID=R050189
##IDEAL CHEMISTRY=Pb^2+^_5_(V^5+^O_4_)_3_Cl
##LOCALITY=Puzzler mine, Yuma County, Arizona, USA
##OWNER=RRUFF
##SOURCE=Dave Bunk Minerals
##DESCRIPTION=Red and green hexagonal prisms
##STATUS=The identification of this mineral has been confirmed by X-ray diffraction and chemical analysis
##URL=rruff.info/R050189
##MEASURED CHEMISTRY=Pb_5.00_(V_1.00_O_4_)_3_Cl_1.00_
92.96582, 4594.656
93.44794, 4530.364
93.93005, 4535.832
94.41217, 4636.339
94.89429, 4696.602
95.37640, 4722.306
95.85852, 4723.343
96.34064, 4707.423
96.82275, 4680.249
97.30487, 4638.979
97.78699, 4582.454
98.26910, 4507.079
98.75122, 4427.643
99.23334, 4351.847
99.71545, 4277.196
100.1976, 4196.472
100.6797, 4121.560
101.1618, 4049.223
101.6439, 3971.175
102.1260, 3881.118
102.6081, 3783.597
103.0903, 3689.164
103.5724, 3596.479
104.0545, 3506.509
104.5366, 3418.410
105.0187, 3331.732
105.5008, 3245.584
105.9830, 3157.895
106.4651, 3067.824
106.9472, 2983.113
107.4293, 2901.059
107.9114, 2825.287
108.3935, 2759.164
108.8757, 2701.673
109.3578, 2649.373
109.8399, 2597.825
110.3220, 2545.867
110.8041, 2497.509
111.2862, 2450.886
111.7684, 2407.950
112.2505, 2371.615
112.7326, 2342.528
113.2147, 2318.007
113.6968, 2292.466
114.1789, 2263.680
114.6611, 2238.027
115.1432, 2217.214
115.6253, 2200.419
116.1074, 2185.450
116.5895, 2170.757
117.0716, 2158.497
117.5538, 2153.056
118.0359, 2157.350
118.5180, 2163.031
119.0001, 2162.540
119.4822, 2155.581
119.9643, 2152.102
120.4465, 2158.559
120.9286, 2171.177
121.4107, 2187.237
121.8928, 2207.890
122.3749, 2229.675
122.8570, 2244.787
123.3392, 2247.052
123.8213, 2254.319
124.3034, 2273.742
124.7855, 2300.705
125.2676, 2329.482
125.7497, 2356.416
126.2319, 2381.831
126.7140, 2409.507
127.1961, 2444.171
127.6782, 2476.984
128.1603, 2503.612
128.6424, 2526.215
129.1246, 2550.103
129.6067, 2580.695
130.0888, 2619.684
130.5709, 2656.390
131.0530, 2690.439
131.5351, 2723.413
132.0173, 2755.795
132.4994, 2787.965
132.9815, 2820.294
133.4636, 2853.000
133.9457, 2885.739
134.4278, 2921.403
134.9100, 2964.579
135.3921, 3009.190
135.8742, 3047.076
136.3563, 3075.125
136.8384, 3099.292
137.3205, 3130.134
137.8027, 3168.712
138.2848, 3201.848
138.7669, 3221.589
139.2490, 3230.676
139.7311, 3239.734
140.2132, 3251.095
140.6954, 3264.386
141.1775, 3280.097
141.6596, 3298.785
142.1417, 3315.533
142.6238, 3325.446
143.1059, 3327.963
143.5881, 3327.691
144.0702, 3326.496
144.5523, 3322.540
145.0344, 3313.902
145.5165, 3299.975
145.9986, 3282.337
146.4807, 3264.126
146.9629, 3247.077
147.4450, 3225.532
147.9271, 3196.104
148.4092, 3163.556
148.8913, 3132.701
149.3734, 3105.772
149.8556, 3081.635
150.3377, 3055.856
150.8198, 3027.510
151.3019, 2997.996
151.7840, 2968.509
152.2661, 2937.672
152.7483, 2902.947
153.2304, 2862.219
153.7125, 2815.933
154.1946, 2774.389
154.6767, 2739.992
155.1588, 2706.592
155.6410, 2671.997
156.1231, 2636.421
156.6052, 2601.068
157.0873, 2566.287
157.5694, 2532.816
158.0515, 2503.837
158.5337, 2481.679
159.0158, 2462.355
159.4979, 2443.136
159.9800, 2423.837
160.4621, 2405.180
160.9442, 2388.922
161.4264, 2373.899
161.9085, 2356.751
162.3906, 2334.075
162.8727, 2309.512
163.3548, 2288.668
163.8369, 2271.935
164.3191, 2258.872
164.8012, 2251.001
165.2833, 2246.393
165.7654, 2241.051
166.2475, 2231.692
166.7296, 2219.344
167.2118, 2209.621
167.6939, 2204.577
168.1760, 2200.058
168.6581, 2194.462
169.1402, 2187.850
169.6223, 2180.464
170.1045, 2172.027
170.5866, 2162.269
171.0687, 2154.567
171.5508, 2150.584
172.0329, 2147.373
172.5150, 2144.837
172.9972, 2142.385
173.4793, 2138.799
173.9614, 2132.913
174.4435, 2124.877
174.9256, 2113.585
175.4077, 2094.878
175.8899, 2076.682
176.3720, 2064.961
176.8541, 2059.708
177.3362, 2055.568
177.8183, 2045.550
178.3004, 2026.648
178.7826, 2007.837
179.2647, 1989.889
179.7468, 1971.569
180.2289, 1951.612
180.7110, 1929.823
181.1931, 1906.930
181.6752, 1884.093
182.1574, 1861.787
182.6395, 1838.218
183.1216, 1813.126
183.6037, 1786.625
184.0858, 1759.357
184.5679, 1731.587
185.0501, 1702.698
185.5322, 1670.128
186.0143, 1633.082
186.4964, 1599.339
186.9785, 1573.912
187.4606, 1554.073
187.9428, 1532.614
188.4249, 1507.145
188.9070, 1479.902
189.3891, 1453.419
189.8712, 1427.630
190.3533, 1402.848
190.8355, 1379.577
191.3176, 1357.626
191.7997, 1336.313
192.2818, 1315.167
192.7639, 1294.713
193.2460, 1275.652
193.7282, 1257.959
194.2103, 1240.235
194.6924, 1220.351
195.1745, 1197.635
195.6566, 1177.750
196.1387, 1164.840
196.6209, 1153.318
197.1030, 1140.382
197.5851, 1125.485
198.0672, 1109.708
198.5493, 1094.301
199.0314, 1079.369
199.5136, 1064.516
199.9957, 1049.204
200.4778, 1034.263
200.9599, 1019.637
201.4420, 1005.491
201.9241, 993.0165
202.4063, 984.6323
202.8884, 984.2556
203.3705, 980.1419
203.8526, 969.1367
204.3347, 956.5428
204.8168, 946.5576
205.2990, 940.3776
205.7811, 935.8516
206.2632, 928.8717
206.7453, 915.6223
207.2274, 905.4754
207.7095, 900.8320
208.1917, 897.8317
208.6738, 892.4054
209.1559, 883.2382
209.6380, 872.8301
210.1201, 866.2772
210.6022, 866.7676
211.0844, 866.6632
211.5665, 865.6167
212.0486, 863.8522
212.5307, 861.5187
213.0128, 858.6417
213.4949, 855.4795
213.9771, 852.6287
214.4592, 850.7583
214.9413, 847.8206
215.4234, 842.4995
215.9055, 836.0954
216.3876, 830.5153
216.8698, 826.4016
217.3519, 823.4176
217.8340, 821.0154
218.3161, 819.1165
218.7982, 817.7521
219.2803, 817.2140
219.7625, 817.2232
220.2446, 817.0560
220.7267, 816.3141
221.2088, 815.6446
221.6909, 816.1150
222.1730, 817.8251
222.6552, 819.5166
223.1373, 820.6523
223.6194, 821.2824
224.1015, 821.6322
224.5836, 821.8317
225.0657, 821.6063
225.5479, 820.6218
226.0300, 818.8584
226.5121, 817.0420
226.9942, 815.0507
227.4763, 813.1185
227.9584, 813.0188
228.4406, 816.4483
228.9227, 820.5284
229.4048, 822.9124
229.8869, 823.6247
230.3690, 823.8602
230.8511, 823.8337
231.3333, 823.6042
231.8154, 825.6707
232.2975, 833.1930
232.7796, 840.4855
233.2617, 843.5952
233.7438, 842.8540
234.2260, 841.7590
234.7081, 843.9728
235.1902, 849.8387
235.6723, 853.7274
236.1544, 852.1564
236.6365, 851.1405
237.1187, 853.5345
237.6008, 859.1415
238.0829, 866.0687
238.5650, 872.9031
239.0471, 879.7479
239.5292, 885.6835
240.0114, 889.3926
240.4935, 893.2656
240.9756, 898.9520
241.4577, 905.8991
241.9398, 911.9761
242.4219, 914.8154
242.9041, 913.7388
243.3862, 914.4878
243.8683, 916.8936
244.3504, 921.2713
244.8325, 928.9680
245.3146, 939.0433
245.7968, 949.1779
246.2789, 957.2158
246.7610, 962.9926
247.2431, 968.4501
247.7252, 973.3218
248.2073, 978.1818
248.6895, 982.9276
249.1716, 987.7990
249.6537, 993.0925
250.1358, 998.9074
250.6179, 1005.138
251.1000, 1014.017
251.5822, 1027.269
252.0643, 1041.074
252.5464, 1054.653
253.0285, 1067.714
253.5106, 1079.820
253.9927, 1090.642
254.4748, 1100.141
254.9570, 1109.740
255.4391, 1116.798
255.9212, 1126.557
256.4033, 1142.510
256.8854, 1162.801
257.3676, 1183.158
257.8497, 1200.844
258.3318, 1215.997
258.8139, 1230.551
259.2960, 1241.349
259.7781, 1254.971
260.2603, 1275.326
260.7424, 1300.369
261.2245, 1325.119
261.7066, 1346.308
262.1887, 1365.149
262.6708, 1388.074
263.1530, 1417.138
263.6351, 1447.034
264.1172, 1476.004
264.5993, 1504.620
265.0814, 1533.943
265.5635, 1563.920
266.0457, 1595.826
266.5278, 1634.168
267.0099, 1681.973
267.4920, 1729.953
267.9741, 1774.630
268.4562, 1817.476
268.9384, 1861.269
269.4204, 1906.919
269.9026, 1954.107
270.3847, 2002.467
270.8668, 2051.889
271.3489, 2101.885
271.8310, 2151.587
272.3131, 2201.447
272.7953, 2252.698
273.2774, 2305.626
273.7595, 2360.125
274.2416, 2416.405
274.7237, 2473.915
275.2058, 2534.288
275.6880, 2599.722
276.1701, 2668.330
276.6522, 2734.911
277.1343, 2797.558
277.6164, 2862.566
278.0985, 2940.608
278.5807, 3029.757
279.0628, 3122.098
279.5449, 3215.820
280.0270, 3311.109
280.5091, 3409.501
280.9912, 3511.263
281.4734, 3614.677
281.9555, 3717.121
282.4376, 3819.671
282.9197, 3925.808
283.4018, 4037.568
283.8839, 4152.955
284.3661, 4271.172
284.8482, 4392.905
285.3303, 4511.617
285.8124, 4623.231
286.2945, 4727.411
286.7766, 4821.741
287.2588, 4907.893
287.7409, 4982.340
288.2230, 5041.706
288.7051, 5086.097
289.1872, 5111.946
289.6693, 5114.035
290.1515, 5095.299
290.6336, 5060.481
291.1157, 5006.550
291.5978, 4940.990
292.0799, 4871.194
292.5620, 4797.094
293.0442, 4713.505
293.5263, 4610.900
294.0084, 4501.557
294.4905, 4402.127
294.9726, 4314.157
295.4547, 4234.566
295.9369, 4162.551
296.4190, 4097.839
296.9011, 4036.102
297.3832, 3972.519
297.8653, 3916.106
298.3474, 3874.421
298.8296, 3848.143
299.3117, 3833.194
299.7938, 3829.275
300.2759, 3835.272
300.7580, 3845.461
301.2401, 3858.786
301.7223, 3876.486
302.2044, 3897.984
302.6865, 3923.446
303.1686, 3954.719
303.6507, 3993.617
304.1328, 4039.346
304.6150, 4089.196
305.0971, 4143.107
305.5792, 4200.890
306.0613, 4262.257
306.5434, 4326.927
307.0255, 4394.000
307.5077, 4459.602
307.9898, 4528.085
308.4719, 4608.642
308.9540, 4702.278
309.4361, 4804.849
309.9182, 4914.036
310.4004, 5029.748
310.8825, 5154.364
311.3646, 5289.144
311.8467, 5432.812
312.3288, 5580.126
312.8109, 5730.106
313.2931, 5892.706
313.7752, 6077.718
314.2573, 6275.722
314.7394, 6476.443
315.2215, 6676.929
315.7036, 6880.997
316.1858, 7095.478
316.6679, 7319.823
317.1500, 7535.237
317.6321, 7736.912
318.1142, 7924.927
318.5963, 8107.011
319.0785, 8285.106
319.5606, 8435.432
320.0427, 8544.635
320.5248, 8613.021
321.0069, 8639.627
321.4890, 8623.865
321.9712, 8561.781
322.4533, 8456.240
322.9354, 8308.712
323.4175, 8126.877
323.8996, 7905.111
324.3817, 7651.188
324.8639, 7385.100
325.3460, 7103.877
325.8281, 6819.641
326.3102, 6536.241
326.7923, 6258.369
327.2744, 5996.597
327.7566, 5757.307
328.2387, 5536.143
328.7208, 5327.528
329.2029, 5131.943
329.6850, 4949.465
330.1671, 4782.274
330.6493, 4627.963
331.1314, 4482.713
331.6135, 4347.221
332.0956, 4219.522
332.5777, 4096.709
333.0598, 3979.166
333.5420, 3871.888
334.0241, 3779.354
334.5062, 3697.788
334.9883, 3619.564
335.4704, 3544.283
335.9525, 3474.171
336.4347, 3409.967
336.9168, 3352.174
337.3989, 3304.401
337.8810, 3268.607
338.3631, 3241.197
338.8452, 3217.648
339.3274, 3197.886
339.8094, 3183.395
340.2916, 3174.436
340.7737, 3171.299
341.2558, 3174.401
341.7379, 3183.789
342.2200, 3199.592
342.7021, 3222.555
343.1843, 3252.248
343.6664, 3288.537
344.1485, 3334.095
344.6306, 3384.697
345.1127, 3435.579
345.5948, 3486.814
346.0770, 3543.098
346.5591, 3608.912
347.0412, 3681.429
347.5233, 3750.393
348.0054, 3813.634
348.4875, 3877.102
348.9697, 3942.666
349.4518, 4010.838
349.9339, 4083.414
350.4160, 4161.983
350.8981, 4243.802
351.3802, 4325.963
351.8624, 4408.795
352.3445, 4488.868
352.8266, 4564.854
353.3087, 4637.497
353.7908, 4707.503
354.2729, 4774.806
354.7551, 4841.212
355.2372, 4907.313
355.7193, 4973.313
356.2014, 5047.110
356.6835, 5128.966
357.1656, 5219.101
357.6478, 5317.378
358.1299, 5424.117
358.6120, 5542.780
359.0941, 5676.583
359.5762, 5824.866
360.0583, 5981.808
360.5405, 6158.567
361.0226, 6331.974
361.5047, 6501.493
361.9868, 6660.760
362.4689, 6802.389
362.9510, 6924.874
363.4332, 7019.153
363.9153, 7058.565
364.3974, 7044.148
364.8795, 6978.869
365.3616, 6854.924
365.8438, 6683.824
366.3259, 6470.931
366.8080, 6218.411
367.2901, 5944.042
367.7722, 5666.425
368.2543, 5383.947
368.7365, 5108.632
369.2186, 4826.176
369.7007, 4563.540
370.1828, 4340.223
370.6649, 4151.368
371.1470, 3976.704
371.6292, 3801.417
372.1113, 3626.762
372.5934, 3468.808
373.0755, 3327.143
373.5576, 3201.840
374.0397, 3100.712
374.5219, 3014.752
375.0040, 2932.607
375.4861, 2848.934
375.9682, 2767.567
376.4503, 2695.959
376.9324, 2636.030
377.4146, 2584.183
377.8967, 2546.628
378.3788, 2511.995
378.8609, 2469.933
379.3430, 2420.329
379.8251, 2372.076
380.3073, 2335.268
380.7894, 2311.556
381.2715, 2287.662
381.7536, 2261.331
382.2357, 2236.878
382.7178, 2215.743
383.2000, 2197.628
383.6821, 2181.726
384.1642, 2167.771
384.6463, 2155.298
385.1284, 2142.486
385.6105, 2129.066
386.0927, 2115.734
386.5748, 2101.232
387.0569, 2087.528
387.5390, 2076.809
388.0211, 2069.616
388.5032, 2064.341
388.9854, 2059.166
389.4675, 2054.311
389.9496, 2048.450
390.4317, 2039.100
390.9138, 2030.776
391.3959, 2026.112
391.8781, 2024.703
392.3602, 2024.393
392.8423, 2024.944
393.3244, 2025.546
393.8065, 2021.369
394.2886, 2009.209
394.7708, 1998.698
395.2529, 1994.625
395.7350, 1994.724
396.2171, 1996.540
396.6992, 2000.039
397.1813, 2003.339
397.6635, 2003.967
398.1456, 2001.839
398.6277, 1998.953
399.1098, 1995.779
399.5919, 1992.173
400.0740, 1987.587
400.5562, 1981.894
401.0383, 1977.339
401.5204, 1974.606
402.0025, 1973.965
402.4846, 1976.939
402.9667, 1984.766
403.4489, 1992.598
403.9310, 1995.280
404.4131, 1994.222
404.8952, 1994.315
405.3773, 1998.029
405.8594, 2002.048
406.3416, 2002.155
406.8237, 1999.148
407.3058, 1998.926
407.7879, 2005.009
408.2700, 2015.268
408.7521, 2024.584
409.2343, 2033.986
409.7164, 2040.490
410.1985, 2040.157
410.6806, 2037.350
411.1627, 2039.586
411.6448, 2048.713
412.1269, 2058.221
412.6090, 2060.082
413.0912, 2052.298
413.5733, 2046.364
414.0554, 2044.245
414.5375, 2042.099
415.0196, 2036.738
415.5017, 2029.208
415.9839, 2023.167
416.4660, 2021.051
416.9481, 2021.975
417.4302, 2021.733
417.9123, 2020.997
418.3944, 2018.142
418.8766, 2010.219
419.3587, 2001.521
419.8408, 1996.804
420.3229, 1997.152
420.8050, 1999.618
421.2871, 2000.394
421.7693, 1999.202
422.2514, 1997.311
422.7335, 1995.292
423.2156, 1992.092
423.6977, 1985.563
424.1798, 1977.460
424.6620, 1971.669
425.1441, 1970.870
425.6262, 1974.024
426.1083, 1977.357
426.5904, 1981.262
427.0725, 1984.601
427.5547, 1987.434
428.0368, 1989.498
428.5189, 1990.441
429.0010, 1990.210
429.4831, 1989.219
429.9652, 1987.967
430.4474, 1986.451
430.9295, 1983.819
431.4116, 1977.959
431.8937, 1973.712
432.3758, 1975.472
432.8579, 1981.159
433.3401, 1984.823
433.8222, 1981.669
434.3043, 1976.343
434.7864, 1977.253
435.2685, 1985.063
435.7506, 1991.652
436.2328, 1992.853
436.7149, 1990.920
437.1970, 1989.445
437.6791, 1988.322
438.1612, 1988.325
438.6433, 1992.403
439.1255, 1997.545
439.6076, 1996.230
440.0897, 1986.189
440.5718, 1974.660
441.0539, 1969.402
441.5360, 1970.513
442.0182, 1969.815
442.5003, 1965.354
442.9824, 1960.382
443.4645, 1957.927
443.9466, 1956.888
444.4287, 1953.246
444.9109, 1944.502
445.3930, 1933.077
445.8751, 1925.416
446.3572, 1925.267
446.8393, 1923.304
447.3214, 1917.662
447.8036, 1910.922
448.2857, 1905.463
448.7678, 1901.499
449.2499, 1897.500
449.7320, 1892.036
450.2141, 1885.082
450.6963, 1877.158
451.1784, 1866.460
451.6605, 1856.680
452.1426, 1849.512
452.6247, 1843.576
453.1068, 1837.121
453.5890, 1829.428
454.0711, 1820.608
454.5532, 1811.103
455.0353, 1801.171
455.5174, 1789.559
455.9995, 1772.805
456.4817, 1757.026
456.9638, 1745.958
457.4459, 1739.036
457.9280, 1733.308
458.4101, 1727.653
458.8922, 1721.498
459.3744, 1712.931
459.8565, 1701.513
460.3386, 1689.056
460.8207, 1674.996
461.3028, 1660.938
461.7849, 1649.510
462.2671, 1641.861
462.7492, 1633.841
463.2313, 1621.785
463.7134, 1606.964
464.1955, 1592.954
464.6776, 1580.507
465.1598, 1569.068
465.6419, 1558.529
466.1240, 1548.809
466.6061, 1538.291
467.0882, 1525.763
467.5703, 1513.313
468.0525, 1502.333
468.5346, 1492.660
469.0167, 1483.635
469.4988, 1475.093
469.9809, 1466.558
470.4630, 1456.710
470.9452, 1444.010
471.4273, 1432.799
471.9094, 1424.269
472.3915, 1416.503
472.8736, 1407.927
473.3557, 1398.512
473.8379, 1389.422
474.3200, 1381.897
474.8021, 1375.662
475.2842, 1366.827
475.7663, 1351.484
476.2484, 1338.422
476.7306, 1331.114
477.2127, 1325.718
477.6948, 1317.451
478.1769, 1305.152
478.6590, 1292.764
479.1411, 1286.132
479.6233, 1285.917
480.1054, 1283.789
480.5875, 1278.316
481.0696, 1272.013
481.5517, 1266.195
482.0338, 1260.555
482.5159, 1254.208
482.9980, 1246.314
483.4802, 1238.246
483.9623, 1232.515
484.4444, 1229.131
484.9265, 1224.619
485.4086, 1217.346
485.8907, 1208.947
486.3729, 1201.444
486.8550, 1194.843
487.3371, 1188.568
487.8192, 1181.438
488.3013, 1175.056
488.7834, 1172.410
489.2656, 1173.292
489.7477, 1172.882
490.2298, 1167.812
490.7119, 1159.050
491.1940, 1151.512
491.6761, 1145.395
492.1583, 1139.915
492.6404, 1134.323
493.1225, 1129.562
493.6046, 1127.269
494.0867, 1127.482
494.5688, 1128.127
495.0510, 1126.992
495.5331, 1123.959
496.0152, 1120.781
496.4973, 1117.001
496.9794, 1113.591
497.4615, 1111.709
497.9437, 1110.002
498.4258, 1106.334
498.9079, 1099.903
499.3900, 1092.731
499.8721, 1087.573
500.3542, 1084.496
500.8364, 1083.235
501.3185, 1085.924
501.8006, 1088.055
502.2827, 1086.992
502.7648, 1083.412
503.2469, 1079.070
503.7291, 1074.128
504.2112, 1069.466
504.6933, 1067.175
505.1754, 1067.132
505.6575, 1064.965
506.1396, 1058.198
506.6218, 1049.663
507.1039, 1043.058
507.5860, 1038.220
508.0681, 1035.599
508.5502, 1037.766
509.0323, 1040.627
509.5145, 1039.185
509.9966, 1033.894
510.4787, 1029.579
510.9608, 1029.515
511.4429, 1032.425
511.9250, 1033.142
512.4072, 1029.776
512.8893, 1026.710
513.3714, 1024.908
513.8535, 1023.042
514.3356, 1019.153
514.8177, 1013.584
515.2999, 1009.144
515.7820, 1008.812
516.2641, 1012.151
516.7462, 1013.335
517.2283, 1012.170
517.7104, 1008.873
518.1926, 1000.670
518.6747, 992.1712
519.1568, 988.9256
519.6389, 992.1373
520.1210, 996.1178
520.6031, 994.8439
521.0853, 989.2014
521.5674, 985.2233
522.0495, 984.1967
522.5316, 982.8789
523.0137, 977.3478
523.4958, 970.1735
523.9780, 966.9026
524.4601, 971.1789
524.9422, 974.9615
525.4243, 971.1527
525.9064, 963.0427
526.3885, 958.6592
526.8707, 960.2191
527.3528, 964.0534
527.8349, 966.2873
528.3170, 966.7563
528.7991, 966.6465
529.2813, 966.8391
529.7634, 965.5778
530.2455, 961.3209
530.7276, 955.3109
531.2097, 949.1795
531.6918, 943.6232
532.1740, 939.2274
532.6561, 937.3209
533.1382, 939.1086
533.6203, 939.2943
534.1024, 935.3490
534.5845, 932.2376
535.0667, 932.6979
535.5488, 935.2162
536.0309, 936.8511
536.5130, 936.3395
536.9951, 934.1428
537.4772, 929.9554
537.9594, 923.6749
538.4415, 920.1857
538.9236, 921.9943
539.4057, 924.9655
539.8878, 925.3688
540.3699, 923.5386
540.8521, 921.0856
541.3342, 917.9423
541.8163, 914.7822
542.2984, 912.0643
542.7805, 909.8109
543.2626, 907.8950
543.7448, 906.1681
544.2269, 905.2122
544.7090, 906.3932
545.1911, 911.9154
545.6732, 913.4357
546.1553, 906.7804
546.6375, 900.0757
547.1196, 898.3649
547.6017, 900.3392
548.0838, 902.3102
548.5659, 902.3154
549.0480, 900.9261
549.5302, 899.1428
550.0123, 896.3182
550.4944, 895.0424
550.9765, 898.2718
551.4586, 900.8122
551.9407, 899.4254
552.4229, 895.0333
552.9050, 890.6942
553.3871, 887.4550
553.8692, 885.6985
554.3513, 886.8934
554.8334, 890.9564
555.3156, 893.6862
555.7977, 893.4608
556.2798, 891.7410
556.7619, 890.2618
557.2440, 889.0027
557.7261, 887.9672
558.2083, 887.9891
558.6904, 887.5365
559.1725, 884.8905
559.6546, 880.7101
560.1367, 876.8423
560.6188, 874.1279
561.1010, 872.6351
561.5831, 872.7020
562.0652, 875.5546
562.5473, 877.2029
563.0294, 877.3172
563.5115, 876.7411
563.9937, 874.9413
564.4758, 872.8693
564.9579, 872.3809
565.4400, 874.5288
565.9221, 878.3514
566.4042, 883.4051
566.8864, 890.4674
567.3685, 891.6368
567.8506, 880.8801
568.3327, 869.3007
568.8148, 864.9675
569.2969, 866.8143
569.7791, 870.9552
570.2612, 878.8330
570.7433, 886.0570
571.2254, 888.2883
571.7075, 886.4376
572.1896, 883.4615
572.6718, 880.1637
573.1539, 876.8695
573.6360, 873.7036
574.1181, 870.1677
574.6002, 869.7357
575.0823, 876.3676
575.5645, 881.7140
576.0466, 880.8029
576.5287, 876.5389
577.0108, 873.7448
577.4929, 874.3032
577.9750, 876.9201
578.4572, 880.1082
578.9393, 884.1151
579.4214, 886.8893
579.9035, 887.9489
580.3856, 888.2677
580.8677, 887.7936
581.3499, 887.0750
581.8320, 887.0092
582.3141, 887.9384
582.7962, 889.2847
583.2783, 890.6637
583.7604, 892.0491
584.2426, 893.2023
584.7247, 893.9822
585.2068, 895.2272
585.6889, 898.0089
586.1710, 901.9959
586.6531, 904.3893
587.1352, 904.8513
587.6173, 904.2230
588.0994, 901.1407
588.5815, 897.9196
589.0637, 897.6852
589.5458, 900.6955
590.0279, 904.3571
590.5100, 906.2601
590.9921, 906.5223
591.4742, 906.3234
591.9564, 904.5114
592.4385, 904.2474
592.9206, 907.5306
593.4027, 911.6673
593.8848, 914.5716
594.3669, 915.9437
594.8491, 916.1266
595.3312, 914.4922
595.8133, 912.1078
596.2954, 911.2622
596.7775, 912.0327
597.2596, 913.1903
597.7418, 913.9222
598.2239, 914.9629
598.7060, 918.3126
599.1881, 924.9106
599.6702, 929.7059
600.1523, 931.1970
600.6345, 931.2521
601.1166, 929.9376
601.5987, 928.3547
602.0808, 929.1669
602.5629, 933.8750
603.0450, 940.6823
603.5272, 946.1462
604.0093, 950.6927
604.4914, 952.5602
604.9735, 948.5602
605.4556, 944.8042
605.9377, 943.8504
606.4199, 945.1050
606.9020, 947.2907
607.3841, 950.2745
607.8662, 953.1105
608.3483, 954.4344
608.8304, 954.6489
609.3126, 955.8293
609.7947, 958.6252
610.2768, 961.1673
610.7589, 961.2455
611.2410, 959.3016
611.7231, 960.0200
612.2053, 966.3385
612.6874, 971.5790
613.1695, 972.9415
613.6516, 972.6478
614.1337, 973.4147
614.6158, 975.5602
615.0980, 977.4121
615.5801, 977.3807
616.0622, 975.7521
616.5443, 974.2527
617.0264, 971.3744
617.5085, 971.8367
617.9907, 981.0524
618.4728, 990.9351
618.9549, 995.1974
619.4370, 993.7028
619.9191, 990.6815
620.4012, 987.5205
620.8834, 984.5880
621.3655, 982.1564
621.8476, 980.3184
622.3297, 979.6460
622.8118, 980.2653
623.2939, 982.4997
623.7761, 987.4987
624.2582, 996.8198
624.7403, 1001.771
625.2224, 998.9377
625.7045, 995.5635
626.1866, 995.6961
626.6688, 997.1862
627.1509, 995.4796
627.6330, 989.3122
628.1151, 983.4764
628.5972, 985.4914
629.0793, 995.4083
629.5615, 1000.962
630.0436, 1000.459
630.5257, 998.9355
631.0078, 999.0099
631.4899, 999.3401
631.9720, 997.8548
632.4542, 993.8276
632.9363, 990.8442
633.4184, 991.7957
633.9005, 994.1476
634.3826, 994.9105
634.8647, 993.8765
635.3469, 991.1787
635.8290, 986.3923
636.3111, 981.5101
636.7932, 981.8991
637.2753, 992.5613
637.7574, 998.1593
638.2396, 995.7137
638.7217, 991.8342
639.2038, 989.8673
639.6859, 988.9020
640.1680, 986.3168
640.6501, 980.7393
641.1323, 975.0044
641.6144, 973.2736
642.0965, 974.9854
642.5786, 975.7192
643.0607, 974.6686
643.5428, 973.5924
644.0250, 974.6268
644.5071, 976.4593
644.9892, 974.3768
645.4713, 964.3763
645.9534, 957.5653
646.4355, 960.3099
646.9177, 965.6227
647.3998, 966.8135
647.8819, 963.5670
648.3640, 958.5385
648.8461, 953.2860
649.3282, 948.2397
649.8104, 944.6830
650.2925, 942.7825
650.7746, 941.8942
651.2567, 944.2339
651.7388, 945.2305
652.2209, 941.7968
652.7031, 935.0870
653.1852, 927.8187
653.6673, 919.4545
654.1494, 913.3868
654.6315, 913.9789
655.1136, 918.8380
655.5958, 923.1312
656.0779, 925.9098
656.5600, 925.4499
657.0421, 919.3475
657.5242, 908.8947
658.0063, 903.4120
658.4885, 908.7899
658.9706, 911.3969
659.4527, 908.6597
659.9348, 904.4172
660.4169, 900.6400
660.8990, 897.9303
661.3812, 897.2101
661.8633, 899.9349
662.3454, 903.0223
662.8275, 899.7200
663.3096, 890.3737
663.7917, 884.9816
664.2739, 886.9803
664.7560, 890.0496
665.2381, 887.5931
665.7202, 880.8433
666.2023, 878.6916
666.6844, 887.2211
667.1666, 893.1531
667.6487, 889.9102
668.1308, 883.3392
668.6129, 879.4537
669.0950, 879.0848
669.5771, 880.4479
670.0593, 882.4911
670.5414, 884.6799
671.0235, 884.9870
671.5056, 882.6638
671.9877, 881.1920
672.4698, 881.0724
672.9520, 882.1415
673.4341, 885.6334
673.9162, 890.2892
674.3983, 891.7228
674.8804, 885.9528
675.3625, 880.6245
675.8447, 882.5013
676.3268, 887.8346
676.8089, 889.6128
677.2910, 886.7473
677.7731, 883.0285
678.2552, 881.5446
678.7374, 881.9125
679.2195, 881.8296
679.7016, 879.2473
680.1837, 880.0320
680.6658, 888.6812
681.1479, 897.0875
681.6301, 899.5529
682.1122, 897.4576
682.5943, 895.7638
683.0764, 896.6012
683.5585, 898.7482
684.0406, 901.8260
684.5228, 905.1855
685.0049, 905.5463
685.4870, 902.0254
685.9691, 900.2943
686.4512, 905.6553
686.9333, 916.5838
687.4155, 923.8085
687.8976, 924.6119
688.3797, 925.3956
688.8618, 926.2858
689.3439, 927.3910
689.8260, 928.9446
690.3082, 930.7717
690.7903, 932.2049
691.2724, 932.6385
691.7545, 933.5167
692.2366, 937.4431
692.7188, 944.0133
693.2009, 949.7061
693.6830, 953.7277
694.1651, 957.9855
694.6472, 964.3564
695.1293, 971.9837
695.6115, 977.1437
696.0936, 977.3431
696.5757, 979.7535
697.0578, 987.1707
697.5399, 995.8616
698.0220, 1002.447
698.5042, 1007.743
698.9863, 1015.240
699.4684, 1026.904
699.9505, 1039.169
700.4326, 1044.912
700.9147, 1044.206
701.3969, 1047.643
701.8790, 1057.063
702.3611, 1068.362
702.8432, 1079.999
703.3253, 1091.517
703.8074, 1101.604
704.2896, 1109.230
704.7717, 1118.462
705.2538, 1131.157
705.7359, 1145.257
706.2180, 1160.197
706.7001, 1175.078
707.1823, 1187.068
707.6644, 1195.008
708.1465, 1202.714
708.6286, 1216.376
709.1107, 1236.260
709.5928, 1256.649
710.0750, 1278.975
710.5571, 1298.706
711.0392, 1310.487
711.5213, 1320.279
712.0034, 1336.494
712.4855, 1360.234
712.9677, 1383.147
713.4498, 1401.903
713.9319, 1419.365
714.4140, 1438.037
714.8961, 1457.254
715.3782, 1474.952
715.8604, 1490.433
716.3425, 1505.625
716.8246, 1522.935
717.3067, 1542.430
717.7888, 1560.934
718.2709, 1579.733
718.7531, 1594.932
719.2352, 1603.811
719.7173, 1609.539
720.1994, 1616.015
720.6815, 1622.849
721.1636, 1623.953
721.6458, 1614.261
722.1279, 1601.141
722.6100, 1590.818
723.0921, 1580.695
723.5742, 1565.247
724.0563, 1543.505
724.5385, 1518.908
725.0206, 1494.093
725.5027, 1469.377
725.9848, 1447.440
726.4669, 1430.844
726.9490, 1410.037
727.4312, 1378.577
727.9132, 1346.619
728.3953, 1321.519
728.8774, 1301.579
729.3596, 1280.221
729.8417, 1253.125
730.3238, 1228.544
730.8059, 1212.337
731.2880, 1201.337
731.7701, 1192.528
732.2523, 1184.721
732.7344, 1175.086
733.2165, 1161.609
733.6986, 1145.894
734.1807, 1131.503
734.6628, 1117.680
735.1450, 1108.645
735.6271, 1108.783
736.1092, 1108.450
736.5913, 1101.503
737.0734, 1091.464
737.5555, 1083.487
738.0377, 1078.253
738.5198, 1075.905
739.0019, 1079.536
739.4840, 1083.914
739.9661, 1082.854
740.4482, 1077.492
740.9304, 1072.357
741.4125, 1069.397
741.8946, 1067.830
742.3767, 1066.320
742.8588, 1064.756
743.3409, 1065.903
743.8231, 1070.774
744.3052, 1076.325
744.7873, 1082.553
745.2694, 1088.292
745.7515, 1092.219
746.2336, 1094.359
746.7158, 1096.235
747.1979, 1096.912
747.6800, 1098.925
748.1621, 1104.805
748.6442, 1112.916
749.1263, 1120.834
749.6085, 1127.859
750.0906, 1133.892
750.5727, 1138.525
751.0548, 1142.527
751.5369, 1149.247
752.0190, 1159.462
752.5012, 1168.992
752.9833, 1176.266
753.4654, 1183.777
753.9475, 1193.885
754.4296, 1205.654
754.9117, 1216.585
755.3939, 1224.603
755.8760, 1235.146
756.3581, 1253.613
756.8402, 1272.939
757.3223, 1284.889
757.8044, 1291.377
758.2866, 1300.045
758.7687, 1314.659
759.2508, 1333.280
759.7329, 1354.572
760.2150, 1378.379
760.6971, 1397.339
761.1793, 1409.713
761.6614, 1422.007
762.1435, 1436.152
762.6256, 1452.599
763.1077, 1472.314
763.5898, 1495.499
764.0720, 1519.616
764.5541, 1545.358
765.0362, 1570.875
765.5183, 1594.272
766.0004, 1617.313
766.4825, 1642.695
766.9647, 1670.574
767.4468, 1698.618
767.9289, 1724.018
768.4110, 1748.880
768.8931, 1777.727
769.3752, 1810.430
769.8574, 1847.202
770.3395, 1889.589
770.8216, 1931.269
771.3037, 1965.697
771.7858, 1994.947
772.2679, 2031.842
772.7501, 2084.456
773.2322, 2133.184
773.7143, 2173.369
774.1964, 2212.591
774.6785, 2253.711
775.1606, 2297.885
775.6428, 2345.992
776.1249, 2398.404
776.6070, 2454.491
777.0891, 2518.392
777.5712, 2584.054
778.0533, 2635.131
778.5355, 2672.034
779.0176, 2713.071
779.4997, 2766.129
779.9818, 2826.083
780.4639, 2885.739
780.9460, 2944.980
781.4282, 3006.167
781.9103, 3073.191
782.3924, 3136.985
782.8745, 3194.302
783.3566, 3249.008
783.8387, 3303.273
784.3209, 3357.898
784.8030, 3414.631
785.2851, 3475.634
785.7672, 3536.660
786.2493, 3596.757
786.7314, 3653.596
787.2136, 3699.757
787.6957, 3736.577
788.1778, 3778.018
788.6599, 3834.112
789.1420, 3896.158
789.6241, 3943.242
790.1063, 3972.731
790.5884, 4001.397
791.0705, 4028.613
791.5526, 4057.339
792.0347, 4089.395
792.5168, 4123.823
792.9990, 4159.617
793.4811, 4196.791
793.9632, 4234.007
794.4453, 4267.176
794.9274, 4304.016
795.4095, 4351.211
795.8917, 4404.345
796.3738, 4456.451
796.8559, 4506.268
797.3380, 4557.888
797.8201, 4614.614
798.3022, 4674.971
798.7844, 4733.909
799.2665, 4791.663
799.7486, 4856.899
800.2307, 4931.248
800.7128, 5015.325
801.1949, 5112.409
801.6771, 5219.224
802.1592, 5321.657
802.6413, 5409.282
803.1234, 5512.246
803.6055, 5638.874
804.0876, 5772.597
804.5698, 5903.048
805.0519, 6036.700
805.5340, 6185.447
806.0161, 6352.591
806.4982, 6522.864
806.9803, 6681.912
807.4625, 6840.430
807.9446, 7014.434
808.4267, 7200.452
808.9088, 7384.288
809.3909, 7561.948
809.8730, 7740.876
810.3552, 7929.484
810.8373, 8126.610
811.3194, 8324.570
811.8015, 8524.588
812.2836, 8722.956
812.7657, 8913.953
813.2479, 9109.755
813.7300, 9318.027
814.2121, 9536.295
814.6942, 9757.685
815.1763, 9984.609
815.6584, 10210.94
816.1406, 10430.61
816.6227, 10652.92
817.1048, 10889.69
817.5869, 11132.71
818.0690, 11363.68
818.5511, 11577.21
819.0333, 11781.60
819.5154, 11985.54
819.9975, 12186.67
820.4796, 12375.83
820.9617, 12553.01
821.4438, 12721.56
821.9260, 12884.97
822.4081, 13028.97
822.8902, 13141.55
823.3723, 13223.51
823.8544, 13279.12
824.3365, 13304.89
824.8187, 13308.84
825.3008, 13296.61
825.7829, 13258.14
826.2650, 13191.21
826.7471, 13093.68
827.2292, 12960.89
827.7114, 12791.36
828.1935, 12595.59
828.6756, 12378.45
829.1577, 12139.54
829.6398, 11876.17
830.1219, 11591.17
830.6041, 11286.01
831.0862, 10963.85
831.5683, 10635.49
832.0504, 10312.36
832.5325, 9990.530
833.0146, 9658.218
833.4968, 9314.998
833.9789, 8972.973
834.4610, 8631.118
834.9431, 8297.223
835.4252, 7974.170
835.9073, 7663.767
836.3895, 7371.300
836.8716, 7101.508
837.3537, 6833.179
837.8358, 6562.399
838.3179, 6296.335
838.8000, 6037.009
839.2822, 5786.987
839.7643, 5546.876
840.2464, 5317.841
840.7285, 5101.828
841.2106, 4900.725
841.6927, 4713.073
842.1749, 4538.802
842.6570, 4375.279
843.1391, 4216.560
843.6212, 4060.988
844.1033, 3908.044
844.5854, 3757.835
845.0676, 3611.844
845.5497, 3476.873
846.0318, 3352.510
846.5139, 3239.503
846.9960, 3140.844
847.4781, 3046.476
847.9603, 2954.149
848.4424, 2862.433
848.9245, 2768.524
849.4066, 2672.128
849.8887, 2581.395
850.3708, 2497.775
850.8530, 2419.679
851.3351, 2348.086
851.8172, 2280.736
852.2993, 2215.386
852.7814, 2151.941
853.2635, 2090.707
853.7457, 2031.453
854.2278, 1975.755
854.7099, 1925.703
855.1920, 1879.572
855.6741, 1833.871
856.1563, 1788.254
856.6384, 1743.693
857.1205, 1700.400
857.6026, 1659.280
858.0847, 1621.872
858.5668, 1588.107
859.0490, 1553.520
859.5311, 1517.392
860.0132, 1482.245
860.4953, 1448.634
860.9774, 1416.365
861.4595, 1384.560
861.9417, 1353.841
862.4238, 1327.446
862.9059, 1308.574
863.3880, 1288.084
863.8701, 1261.167
864.3522, 1235.208
864.8344, 1216.229
865.3165, 1201.067
865.7986, 1184.161
866.2807, 1164.147
866.7628, 1143.230
867.2449, 1122.294
867.7271, 1101.920
868.2092, 1083.234
868.6913, 1065.590
869.1733, 1046.282
869.6555, 1025.140
870.1376, 1006.470
870.6197, 993.7341
871.1018, 984.4667
871.5839, 972.8665
872.0660, 958.7067
872.5482, 943.6073
873.0303, 926.8107
873.5124, 911.5496
873.9945, 900.3031
874.4766, 890.2349
874.9587, 876.8107
875.4409, 859.4122
875.9230, 845.4707
876.4051, 838.4352
876.8872, 830.3657
877.3693, 818.3673
877.8514, 805.7054
878.3336, 794.9354
878.8157, 785.7954
879.2978, 777.0002
879.7799, 768.1635
880.2620, 759.5428
880.7441, 752.0156
881.2263, 744.3676
881.7084, 734.8274
882.1905, 723.8798
882.6726, 712.6884
883.1547, 701.7315
883.6368, 691.5814
884.1190, 682.7729
884.6011, 675.1877
885.0832, 668.8885
885.5653, 663.8832
886.0474, 658.4690
886.5295, 652.3266
887.0117, 646.0771
887.4938, 640.2213
887.9759, 634.3591
888.4580, 627.4216
888.9401, 618.9696
889.4222, 611.2825
889.9044, 605.2848
890.3865, 598.9133
890.8686, 589.8262
891.3507, 581.5516
891.8328, 578.3737
892.3149, 579.2467
892.7971, 577.9981
893.2792, 572.3751
893.7613, 565.6577
894.2434, 558.6570
894.7255, 551.6238
895.2076, 544.6084
895.6898, 537.7681
896.1719, 531.3329
896.6540, 525.3585
897.1361, 520.1088
897.6182, 516.0060
898.1003, 512.6895
898.5825, 509.5388
899.0646, 506.5997
899.5467, 504.4893
900.0288, 503.2551
900.5109, 501.4159
900.9930, 497.9424
901.4752, 493.0503
901.9573, 486.8317
902.4394, 478.8929
902.9215, 472.8315
903.4036, 469.0837
903.8857, 466.2570
904.3679, 464.1566
904.8500, 462.3366
905.3321, 460.2874
905.8142, 458.0208
906.2963, 455.6630
906.7784, 452.7989
907.2606, 450.4595
907.7427, 449.5608
908.2248, 448.4477
908.7069, 445.9705
909.1890, 442.5562
909.6711, 439.0557
910.1533, 435.6316
910.6354, 432.2970
911.1175, 429.0633
911.5996, 425.8911
912.0817, 422.2608
912.5638, 418.9097
913.0460, 417.4000
913.5281, 417.5535
914.0102, 417.3980
914.4923, 415.6357
914.9744, 413.3745
915.4565, 412.4622
915.9387, 412.3358
916.4208, 410.5701
916.9029, 407.3051
917.3850, 406.2477
917.8671, 409.0439
918.3492, 411.8380
918.8314, 409.8279
919.3135, 403.9221
919.7956, 400.9482
920.2777, 401.9066
920.7598, 401.4977
921.2419, 398.6112
921.7241, 395.0428
922.2062, 392.2200
922.6883, 389.2136
923.1704, 383.6916
923.6525, 374.4180
924.1346, 367.2841
924.6168, 363.0696
925.0989, 359.9828
925.5810, 357.8764
926.0631, 356.4387
926.5452, 356.0641
927.0273, 356.1636
927.5095, 354.7783
927.9916, 350.6516
928.4737, 347.1168
928.9558, 346.6974
929.4379, 346.7307
929.9200, 344.6623
930.4022, 341.4123
930.8843, 338.9270
931.3664, 337.5831
931.8485, 336.2247
932.3306, 333.9218
932.8127, 331.3592
933.2949, 329.6303
933.7770, 328.3772
934.2591, 326.5109
934.7412, 324.0575
935.2233, 322.0588
935.7054, 321.0102
936.1876, 320.5249
936.6697, 320.2927
937.1518, 320.1498
937.6339, 318.7577
938.1160, 315.9743
938.5981, 313.2243
939.0803, 310.6900
939.5624, 308.6351
940.0445, 307.3398
940.5266, 306.5498
941.0087, 305.6124
941.4908, 304.5562
941.9730, 303.2552
942.4551, 301.4578
942.9372, 299.8057
943.4193, 298.4708
943.9014, 297.3813
944.3835, 296.4060
944.8657, 295.6077
945.3478, 295.3282
945.8299, 296.0754
946.3120, 296.4728
946.7941, 295.7975
947.2762, 295.1476
947.7584, 295.8417
948.2405, 296.6342
948.7226, 295.0862
949.2047, 291.2332
949.6868, 288.6958
950.1689, 290.2739
950.6511, 292.4063
951.1332, 292.2270
951.6153, 291.1278
952.0974, 291.1806
952.5795, 291.9623
953.0616, 291.6061
953.5438, 289.4308
954.0259, 286.6055
954.5080, 283.8194
954.9901, 281.4987
955.4722, 281.0338
955.9543, 281.8049
956.4365, 281.1999
956.9186, 278.8951
957.4007, 276.8377
957.8828, 276.2370
958.3649, 276.3353
958.8470, 275.7692
959.3292, 274.5778
959.8113, 273.6658
960.2934, 272.9724
960.7755, 273.2927
961.2576, 275.2753
961.7397, 276.7400
962.2219, 275.6847
962.7040, 272.8009
963.1861, 270.4298
963.6682, 268.2478
964.1503, 267.7055
964.6324, 270.4428
965.1146, 271.9880
965.5967, 269.9097
966.0788, 266.6786
966.5609, 265.0516
967.0430, 264.7310
967.5251, 263.6190
968.0073, 260.0323
968.4894, 258.1639
968.9715, 259.7548
969.4536, 261.7112
969.9357, 262.8535
970.4178, 263.1752
970.9000, 262.8234
971.3821, 261.8010
971.8642, 259.9237
972.3463, 255.2807
972.8284, 252.1429
973.3105, 253.7275
973.7927, 256.7424
974.2748, 258.7682
974.7569, 259.5343
975.2390, 259.1078
975.7211, 257.5524
976.2032, 255.3980
976.6854, 251.7493
977.1675, 248.8913
977.6496, 250.1512
978.1317, 253.5217
978.6138, 255.8026
979.0959, 256.6364
979.5781, 256.5130
980.0602, 255.6743
980.5423, 254.8919
981.0244, 255.4863
981.5065, 256.6179
981.9886, 256.2320
982.4708, 254.5002
982.9529, 251.6211
983.4350, 247.8319
983.9171, 245.8228
984.3992, 247.4180
984.8813, 250.5987
985.3635, 251.7720
985.8456, 251.0965
986.3277, 250.9770
986.8098, 251.4789
987.2919, 251.6610
987.7740, 251.3248
988.2562, 250.2263
988.7383, 247.7816
989.2204, 245.0688
989.7025, 245.5289
990.1846, 250.2934
990.6667, 252.2824
991.1489, 250.4749
991.6310, 248.4206
992.1131, 246.7195
992.5952, 245.8953
993.0773, 246.7714
993.5594, 248.9164
994.0416, 250.4318
994.5237, 251.3883
995.0058, 251.5332
995.4879, 249.7742
995.9700, 248.5981
996.4521, 249.3639
996.9343, 250.6067
997.4164, 251.0951
997.8985, 250.8164
998.3806, 249.8676
998.8627, 247.3449
999.3448, 245.8649
999.8270, 246.3339
1000.309, 247.4094
1000.791, 249.0054
1001.273, 250.4407
1001.755, 250.5360
1002.238, 249.5218
1002.720, 249.4575
1003.202, 251.8068
1003.684, 253.6687
1004.166, 253.3126
1004.648, 252.4198
1005.130, 252.0994
1005.612, 252.2672
1006.094, 252.6824
1006.577, 253.2644
1007.059, 254.0171
1007.541, 255.6374
1008.023, 256.1456
1008.505, 252.1360
1008.987, 247.5966
1009.469, 248.2598
1009.951, 252.1311
1010.433, 253.7793
1010.916, 252.0089
1011.398, 250.2680
1011.880, 251.1130
1012.362, 253.0329
1012.844, 255.0075
1013.326, 256.3706
1013.808, 254.8089
1014.290, 251.4142
1014.773, 250.5905
1015.255, 253.6362
1015.737, 257.2299
1016.219, 258.4984
1016.701, 258.1765
1017.183, 256.7644
1017.665, 255.0164
1018.147, 256.1129
1018.629, 259.7961
1019.112, 262.1886
1019.594, 261.7411
1020.076, 259.9392
1020.558, 257.8884
1021.040, 256.3275
1021.522, 258.1393
1022.004, 262.8041
1022.486, 265.5876
1022.969, 265.9864
1023.451, 265.5090
1023.933, 264.7508
1024.415, 264.0168
1024.897, 263.5710
1025.379, 263.5362
1025.861, 264.5478
1026.343, 266.6324
1026.825, 269.6850
1027.308, 274.0785
1027.790, 276.3907
1028.272, 274.5539
1028.754, 271.5916
1029.236, 271.4435
1029.718, 273.6797
1030.200, 274.8174
1030.682, 274.4490
1031.165, 275.1993
1031.647, 278.1137
1032.129, 279.4460
1032.611, 276.4869
1033.093, 272.9477
1033.575, 274.1677
1034.057, 279.6354
1034.539, 281.7693
1035.021, 278.6295
1035.504, 277.5668
1035.986, 279.9888
1036.468, 282.9661
1036.950, 285.3402
1037.432, 287.4093
1037.914, 289.6606
1038.396, 292.0441
1038.878, 293.4870
1039.360, 293.3054
1039.843, 293.4931
1040.325, 294.0182
1040.807, 295.1433
1041.289, 297.8367
1041.771, 300.5334
1042.253, 300.9134
1042.735, 299.1364
1043.217, 298.5388
1043.700, 299.6699
1044.182, 301.1059
1044.664, 303.7374
1045.146, 305.5700
1045.628, 304.7385
1046.110, 303.3939
1046.592, 304.3290
1047.074, 307.2785
1047.557, 309.2147
1048.039, 308.8782
1048.521, 309.2200
1049.003, 311.3907
1049.485, 313.2808
1049.967, 313.5178
1050.449, 313.2823
1050.931, 313.9005
1051.413, 315.3188
1051.896, 316.7629
1052.378, 318.3831
1052.860, 319.4781
1053.342, 318.9538
1053.824, 319.0041
1054.306, 320.9050
1054.788, 323.7416
1055.270, 327.3214
1055.752, 330.9901
1056.235, 332.2182
1056.717, 328.9367
1057.199, 327.2627
1057.681, 330.0856
1058.163, 333.3704
1058.645, 335.8319
1059.127, 337.2053
1059.609, 336.7240
1060.092, 335.0092
1060.574, 333.9526
1061.056, 333.7714
1061.538, 335.0599
1062.020, 339.6003
1062.502, 343.7592
1062.984, 345.2092
1063.466, 345.7353
1063.948, 347.4724
1064.431, 349.9205
1064.913, 350.8835
1065.395, 349.4614
1065.877, 348.9319
1066.359, 351.4182
1066.841, 354.0651
1067.323, 354.8248
1067.805, 355.4740
1068.287, 358.3188
1068.770, 362.4398
1069.252, 365.1635
1069.734, 365.7808
1070.216, 366.3572
1070.698, 368.0164
1071.180, 369.5146
1071.662, 369.7861
1072.144, 369.9792
1072.627, 370.6160
1073.109, 372.2068
1073.591, 376.3188
1074.073, 383.1578
1074.555, 387.9366
1075.037, 386.4006
1075.519, 385.2101
1076.001, 388.6362
1076.484, 392.9214
1076.966, 394.8585
1077.448, 395.2528
1077.930, 395.7317
1078.412, 396.6619
1078.894, 398.1113
1079.376, 400.7147
1079.858, 402.8653
1080.340, 402.5773
1080.823, 402.7402
1081.305, 406.2974
1081.787, 411.4600
1082.269, 415.8424
1082.751, 418.9451
1083.233, 420.7364
1083.715, 421.0203
1084.197, 420.4075
1084.679, 417.2982
1085.161, 415.4108
1085.644, 417.8495
1086.126, 422.7363
1086.608, 429.4731
1087.090, 436.3498
1087.572, 437.5399
1088.054, 428.9456
1088.536, 423.6825
1089.018, 430.9501
1089.501, 439.0526
1089.983, 440.9615
1090.465, 440.0753
1090.947, 439.3611
1091.429, 439.4957
1091.911, 441.0233
1092.393, 444.1855
1092.875, 447.8045
1093.358, 452.9110
1093.840, 456.5021
1094.322, 455.2223
1094.804, 453.5385
1095.286, 455.9406
1095.768, 460.8671
1096.250, 464.9000
1096.732, 467.4394
1097.214, 468.7556
1097.697, 467.2563
1098.179, 466.8770
1098.661, 469.7573
1099.143, 473.5134
1099.625, 476.6546
1100.107, 479.4461
1100.589, 482.5008
1101.071, 485.8351
1101.553, 488.9330
1102.036, 492.2678
1102.518, 494.2516
1103.000, 493.3195
1103.482, 492.2344
1103.964, 491.4779
1104.446, 492.0736
1104.928, 496.0259
1105.410, 502.4429
1105.893, 507.0911
1106.375, 508.5139
1106.857, 510.4291
1107.339, 514.9629
1107.821, 518.2433
1108.303, 517.0942
1108.785, 515.6507
1109.267, 517.9394
1109.750, 522.6226
1110.232, 525.8116
1110.714, 526.7313
1111.196, 528.7173
1111.678, 533.3790
1112.160, 537.2935
1112.642, 539.6107
1113.124, 541.1047
1113.606, 541.4299
1114.089, 541.6194
1114.571, 543.8728
1115.053, 548.3696
1115.535, 550.5645
1116.017, 547.0587
1116.499, 546.8114
1116.981, 552.4081
1117.463, 558.4874
1117.945, 563.0328
1118.428, 566.9028
1118.910, 570.8808
1119.392, 574.9764
1119.874, 579.3572
1120.356, 584.9028
1120.838, 588.3260
1121.320, 588.3701
1121.802, 588.6354
1122.285, 589.2618
1122.767, 592.0269
1123.249, 599.6253
1123.731, 609.2990
1124.213, 614.0835
1124.695, 613.4471
1125.177, 612.5547
1125.659, 610.6718
1126.141, 611.2084
1126.624, 615.4305
1127.106, 620.0726
1127.588, 623.1599
1128.070, 626.2265
1128.552, 631.9813
1129.034, 639.7566
1129.516, 643.1702
1129.998, 641.5582
1130.480, 641.1412
1130.963, 642.4182
1131.445, 645.2016
1131.927, 649.5217
1132.409, 654.9081
1132.891, 661.1672
1133.373, 667.4788
1133.855, 670.9800
1134.337, 671.9133
1134.820, 675.3476
1135.302, 681.3163
1135.784, 686.6322
1136.266, 690.5514
1136.748, 694.2227
1137.230, 698.4293
1137.712, 702.2775
1138.194, 703.9467
1138.677, 704.4064
1139.159, 706.7687
1139.641, 710.9716
1140.123, 717.8405
1140.605, 726.7081
1141.087, 732.3127
1141.569, 732.8366
1142.051, 733.6641
1142.533, 740.2098
1143.016, 748.8040
1143.498, 753.7496
1143.980, 756.2045
1144.462, 756.7926
1144.944, 757.4050
1145.426, 764.5470
1145.908, 777.8950
1146.390, 787.9437
1146.872, 789.0072
1147.355, 787.6745
1147.837, 788.2132
1148.319, 791.7885
1148.801, 803.0414
1149.283, 816.2958
1149.765, 821.9183
1150.247, 821.4359
1150.729, 821.9672
1151.212, 825.7855
1151.694, 831.5062
1152.176, 840.1185
1152.658, 847.9142
1153.140, 851.0681
1153.622, 853.7911
1154.104, 860.4631
1154.586, 868.9564
1155.068, 875.2669
1155.551, 879.5166
1156.033, 885.7672
1156.515, 896.4604
1156.997, 905.5353
1157.479, 910.2145
1157.961, 913.8314
1158.443, 915.2131
1158.925, 918.6389
1159.407, 930.1053
1159.890, 945.8411
1160.372, 957.1154
1160.854, 963.0392
1161.336, 966.7617
1161.818, 963.5962
1162.300, 965.8588
1162.782, 979.3934
1163.264, 993.1217
1163.747, 1001.965
1164.229, 1008.876
1164.711, 1017.186
1165.193, 1026.496
1165.675, 1034.269
1166.157, 1039.383
1166.639, 1046.750
1167.121, 1057.189
1167.604, 1067.363
1168.086, 1076.264
1168.568, 1085.186
1169.050, 1095.109
1169.532, 1105.149
1170.014, 1113.506
1170.496, 1120.488
1170.978, 1130.531
1171.460, 1143.720
1171.943, 1153.265
1172.425, 1158.305
1172.907, 1166.737
1173.389, 1181.690
1173.871, 1198.047
1174.353, 1211.272
1174.835, 1222.374
1175.317, 1232.037
1175.799, 1241.324
1176.282, 1255.193
1176.764, 1272.039
1177.246, 1285.027
1177.728, 1293.431
1178.210, 1301.542
1178.692, 1311.392
1179.174, 1321.850
1179.656, 1330.710
1180.139, 1340.693
1180.621, 1356.199
1181.103, 1374.342
1181.585, 1391.723
1182.067, 1408.088
1182.549, 1423.562
1183.031, 1438.541
1183.513, 1454.411
1183.995, 1472.318
1184.478, 1489.669
1184.960, 1504.506
1185.442, 1518.829
1185.924, 1533.063
1186.406, 1548.230
1186.888, 1565.849
1187.370, 1584.935
1187.852, 1603.308
1188.334, 1620.600
1188.817, 1637.549
1189.299, 1654.948
1189.781, 1670.852
1190.263, 1681.844
1190.745, 1694.927
1191.227, 1714.343
1191.709, 1736.424
1192.191, 1757.796
1192.674, 1778.937
1193.156, 1801.060
1193.638, 1823.991
1194.120, 1849.501
1194.602, 1878.962
1195.084, 1906.449
1195.566, 1930.388
1196.048, 1953.813
1196.531, 1977.911
1197.013, 2003.402
1197.495, 2031.547
1197.977, 2061.330
1198.459, 2089.101
1198.941, 2114.863
1199.423, 2140.632
1199.905, 2166.359
1200.387, 2191.000
1200.870, 2214.441
1201.352, 2241.146
1201.834, 2273.812
1202.316, 2308.056
1202.798, 2337.019
1203.280, 2365.068
1203.762, 2402.290
1204.244, 2443.369
1204.726, 2477.124
1205.209, 2505.865
1205.691, 2539.824
1206.173, 2580.578
1206.655, 2620.294
1207.137, 2653.722
1207.619, 2689.897
1208.101, 2739.736
1208.583, 2789.253
1209.066, 2824.876
1209.548, 2857.808
1210.030, 2902.013
1210.512, 2952.725
1210.994, 2995.572
1211.476, 3028.293
1211.958, 3066.106
1212.440, 3114.099
1212.922, 3163.622
1213.405, 3216.409
1213.887, 3266.494
1214.369, 3307.265
1214.851, 3349.654
1215.333, 3405.706
1215.815, 3468.718
1216.297, 3520.449
1216.779, 3559.956
1217.261, 3606.028
1217.744, 3660.134
1218.226, 3713.140
1218.708, 3763.719
1219.190, 3811.107
1219.672, 3853.801
1220.154, 3900.551
1220.636, 3960.253
1221.118, 4026.737
1221.600, 4089.852
1222.083, 4147.680
1222.565, 4189.014
1223.047, 4219.108
1223.529, 4258.087
1224.011, 4307.028
1224.493, 4352.543
1224.975, 4389.631
1225.457, 4427.150
1225.940, 4474.744
1226.422, 4520.629
1226.904, 4553.713
1227.386, 4578.812
1227.868, 4594.739
1228.350, 4609.896
1228.832, 4638.785
1229.314, 4677.365
1229.797, 4709.333
1230.279, 4730.700
1230.761, 4745.309
1231.243, 4746.346
1231.725, 4752.051
1232.207, 4770.910
1232.689, 4791.028
1233.171, 4806.892
1233.653, 4820.449
1234.135, 4833.670
1234.618, 4846.213
1235.100, 4856.589
1235.582, 4863.982
1236.064, 4874.796
1236.546, 4889.635
1237.028, 4904.055
1237.510, 4917.052
1237.992, 4932.467
1238.475, 4952.300
1238.957, 4973.423
1239.439, 4992.567
1239.921, 5010.640
1240.403, 5029.495
1240.885, 5048.860
1241.367, 5066.704
1241.849, 5084.637
1242.332, 5107.587
1242.814, 5135.810
1243.296, 5166.941
1243.778, 5199.980
1244.260, 5234.977
1244.742, 5272.709
1245.224, 5310.802
1245.706, 5345.614
1246.188, 5381.971
1246.671, 5424.939
1247.153, 5471.577
1247.635, 5518.320
1248.117, 5565.095
1248.599, 5612.943
1249.081, 5662.247
1249.563, 5710.777
1250.045, 5760.750
1250.527, 5805.535
1251.010, 5835.734
1251.492, 5876.454
1251.974, 5940.505
1252.456, 6011.849
1252.938, 6077.908
1253.420, 6138.821
1253.902, 6194.020
1254.384, 6244.174
1254.867, 6301.617
1255.349, 6366.023
1255.831, 6428.584
1256.313, 6488.557
1256.795, 6544.300
1257.277, 6595.900
1257.759, 6653.483
1258.241, 6725.150
1258.724, 6800.002
1259.206, 6865.266
1259.688, 6925.524
1260.170, 6983.324
1260.652, 7041.773
1261.134, 7105.383
1261.616, 7172.598
1262.098, 7241.613
1262.580, 7310.169
1263.063, 7367.374
1263.545, 7403.099
1264.027, 7444.245
1264.509, 7503.607
1264.991, 7561.112
1265.473, 7608.121
1265.955, 7653.852
1266.437, 7706.268
1266.919, 7758.250
1267.402, 7798.774
1267.884, 7829.989
1268.366, 7864.720
1268.848, 7902.968
1269.330, 7944.795
1269.812, 7990.413
1270.294, 8038.479
1270.776, 8088.224
1271.259, 8120.955
1271.741, 8127.234
1272.223, 8133.015
1272.705, 8166.595
1273.187, 8210.565
1273.669, 8238.683
1274.151, 8259.696
1274.633, 8285.695
1275.115, 8315.494
1275.598, 8347.956
1276.080, 8380.224
1276.562, 8403.440
1277.044, 8415.491
1277.526, 8434.919
1278.008, 8480.097
1278.490, 8515.859
1278.972, 8529.591
1279.454, 8537.209
1279.937, 8539.123
1280.419, 8544.963
1280.901, 8563.088
1281.383, 8588.761
1281.865, 8612.775
1282.347, 8635.478
1282.829, 8662.227
1283.311, 8693.576
1283.794, 8719.438
1284.276, 8739.083
1284.758, 8750.502
1285.240, 8754.017
1285.722, 8764.753
1286.204, 8791.809
##END=



