##NAMES=Vanadiocarpholite
##RRUFFID=R080099
##IDEAL CHEMISTRY=Mn^2+^V^3+^AlSi_2_O_6_(OH)_4_
##LOCALITY=Molinello mine, Graveglia Valley, Ne, Genova Province, Liguria, Italy
##OWNER=RRUFF
##SOURCE=Michael Scott
##DESCRIPTION=Yellow brown fibrous, associated with quartz crystals on matrix
##STATUS=The identification of this mineral has been confirmed only by single crystal X-ray diffraction.
##URL=rruff.info/R080099
91.87140, 0.0000000E+00
92.35352, 13.38913
92.83563, 13.35694
93.31775, 13.34361
93.79987, 13.35159
94.28198, 13.37877
94.76410, 13.41885
95.24622, 13.46862
95.72833, 13.53242
96.21045, 13.54937
96.69257, 13.50502
97.17468, 13.63140
97.65680, 14.31602
98.13892, 15.54523
98.62103, 16.43216
99.10315, 16.56136
99.58527, 16.10056
100.0674, 16.18413
100.5495, 16.86374
101.0316, 17.97453
101.5137, 19.33013
101.9958, 20.95423
102.4780, 22.77263
102.9601, 24.77963
103.4422, 26.99928
103.9243, 29.24583
104.4064, 31.55924
104.8885, 33.88649
105.3707, 36.17750
105.8528, 38.34237
106.3349, 40.57072
106.8170, 42.95148
107.2991, 45.74719
107.7813, 48.20549
108.2634, 50.41223
108.7455, 52.30406
109.2276, 53.59867
109.7097, 53.05999
110.1918, 52.83572
110.6740, 53.81689
111.1561, 57.57998
111.6382, 60.80385
112.1203, 62.73368
112.6024, 63.67833
113.0845, 65.41393
113.5667, 68.51321
114.0488, 72.32137
114.5309, 76.43702
115.0130, 81.19822
115.4951, 85.81979
115.9772, 90.08167
116.4594, 94.02124
116.9415, 97.79997
117.4236, 101.5274
117.9057, 105.1145
118.3878, 108.4523
118.8699, 111.3194
119.3521, 114.0974
119.8342, 117.0092
120.3163, 120.0673
120.7984, 123.2678
121.2805, 126.4130
121.7626, 129.7112
122.2448, 133.5184
122.7269, 139.0662
123.2090, 144.6893
123.6911, 148.8649
124.1732, 151.4457
124.6553, 152.5238
125.1375, 151.2908
125.6196, 148.3806
126.1017, 145.8002
126.5838, 144.5885
127.0659, 144.5291
127.5480, 145.2411
128.0302, 146.7071
128.5123, 148.8442
128.9944, 152.0127
129.4765, 156.0734
129.9586, 159.7265
130.4407, 161.7175
130.9229, 162.4206
131.4050, 163.4128
131.8871, 165.1241
132.3692, 167.1536
132.8513, 168.4833
133.3334, 168.8018
133.8156, 168.2170
134.2977, 167.2716
134.7798, 166.5548
135.2619, 166.5481
135.7440, 167.5314
136.2261, 169.2792
136.7083, 170.7655
137.1904, 171.8834
137.6725, 173.1071
138.1546, 175.0972
138.6367, 178.0547
139.1188, 180.7834
139.6010, 183.4685
140.0831, 186.1281
140.5652, 185.9445
141.0473, 182.1094
141.5294, 176.6339
142.0115, 171.9817
142.4937, 167.9632
142.9758, 165.0352
143.4579, 163.3992
143.9400, 163.2455
144.4221, 163.4245
144.9042, 163.9267
145.3864, 164.7473
145.8685, 165.8914
146.3506, 167.5594
146.8327, 169.2827
147.3148, 171.0052
147.7969, 173.0370
148.2791, 174.3323
148.7612, 174.3354
149.2433, 173.6605
149.7254, 173.7198
150.2075, 174.5066
150.6896, 176.0227
151.1718, 178.3055
151.6539, 182.1831
152.1360, 185.6187
152.6181, 188.3248
153.1002, 190.5295
153.5823, 192.8994
154.0645, 195.1818
154.5466, 197.8756
155.0287, 201.2454
155.5108, 207.2810
155.9929, 211.6955
156.4750, 212.8692
156.9572, 211.5917
157.4393, 211.0344
157.9214, 212.0280
158.4035, 213.8397
158.8856, 216.0103
159.3677, 218.8623
159.8499, 221.6485
160.3320, 224.1673
160.8141, 226.4340
161.2962, 228.5320
161.7783, 230.3440
162.2604, 232.0529
162.7426, 233.8099
163.2247, 236.5762
163.7068, 238.6068
164.1889, 239.0200
164.6710, 237.8694
165.1531, 236.0293
165.6353, 233.4352
166.1174, 230.5394
166.5995, 227.8289
167.0816, 226.0456
167.5637, 224.0797
168.0458, 220.9767
168.5280, 216.7567
169.0101, 212.5872
169.4922, 209.1456
169.9743, 206.2628
170.4564, 203.7294
170.9385, 202.0669
171.4207, 200.3556
171.9028, 197.5662
172.3849, 193.6276
172.8670, 189.6824
173.3491, 186.4745
173.8312, 183.8630
174.3134, 181.5704
174.7955, 179.6126
175.2776, 177.8651
175.7597, 176.1695
176.2418, 174.4917
176.7239, 172.9971
177.2061, 171.8197
177.6882, 170.9124
178.1703, 170.1667
178.6524, 169.7497
179.1345, 169.3958
179.6166, 168.5691
180.0988, 167.1558
180.5809, 165.6775
181.0630, 164.6913
181.5451, 164.1307
182.0272, 163.7729
182.5093, 163.5596
182.9915, 163.4552
183.4736, 163.4063
183.9557, 163.4302
184.4378, 163.4257
184.9199, 163.0704
185.4020, 162.4538
185.8842, 162.1769
186.3663, 162.9668
186.8484, 164.4450
187.3305, 165.1709
187.8126, 164.9641
188.2947, 164.1992
188.7769, 163.3269
189.2590, 162.3571
189.7411, 161.4858
190.2232, 160.7902
190.7053, 160.2760
191.1874, 159.9935
191.6696, 160.0012
192.1517, 160.1331
192.6338, 160.0854
193.1159, 159.8544
193.5980, 159.5577
194.0801, 159.2028
194.5623, 158.8040
195.0444, 158.6252
195.5265, 158.8111
196.0086, 159.0565
196.4907, 158.6291
196.9728, 157.4604
197.4550, 156.1904
197.9371, 155.1586
198.4192, 154.3654
198.9013, 153.7823
199.3834, 153.4972
199.8655, 153.3292
200.3477, 152.7508
200.8298, 151.6626
201.3119, 150.6197
201.7940, 150.0034
202.2761, 149.8599
202.7582, 149.6509
203.2404, 149.3746
203.7225, 148.9744
204.2046, 148.2017
204.6867, 146.9330
205.1688, 145.7147
205.6509, 144.9043
206.1331, 144.5391
206.6152, 144.3432
207.0973, 144.4075
207.5794, 144.5689
208.0615, 144.2712
208.5436, 143.3811
209.0258, 142.3805
209.5079, 141.5099
209.9900, 140.7295
210.4721, 140.2998
210.9542, 140.3559
211.4363, 140.7362
211.9185, 140.8843
212.4006, 140.7220
212.8827, 140.4921
213.3648, 140.4267
213.8469, 140.7015
214.3290, 140.4479
214.8112, 139.3768
215.2933, 137.7804
215.7754, 136.6960
216.2575, 136.2921
216.7396, 136.0779
217.2217, 135.8598
217.7039, 135.8130
218.1860, 135.1688
218.6681, 133.5776
219.1502, 131.4021
219.6323, 130.0321
220.1144, 129.7655
220.5966, 129.8155
221.0787, 129.7775
221.5608, 129.6642
222.0429, 129.4331
222.5250, 129.0701
223.0071, 128.5905
223.4893, 128.0452
223.9714, 127.3621
224.4535, 126.7224
224.9356, 126.2119
225.4177, 125.8408
225.8998, 125.5927
226.3820, 125.5083
226.8641, 125.5406
227.3462, 125.5368
227.8283, 125.5081
228.3104, 125.4250
228.7925, 125.2355
229.2747, 124.7655
229.7568, 124.5911
230.2389, 124.8306
230.7210, 125.3600
231.2031, 125.7845
231.6852, 126.0725
232.1674, 126.3006
232.6495, 126.4846
233.1316, 126.5466
233.6137, 126.7561
234.0958, 127.2374
234.5779, 127.8438
235.0601, 128.1251
235.5422, 127.8606
236.0243, 127.5965
236.5064, 127.5961
236.9885, 128.0404
237.4706, 128.3377
237.9528, 128.3941
238.4349, 128.3249
238.9170, 128.4483
239.3991, 128.9747
239.8812, 129.3772
240.3633, 129.3572
240.8455, 128.5312
241.3276, 128.2593
241.8097, 128.7814
242.2918, 129.7720
242.7739, 130.5059
243.2560, 130.5690
243.7382, 131.3136
244.2203, 131.9450
244.7024, 132.4692
245.1845, 132.5657
245.6666, 133.2146
246.1487, 133.6421
246.6309, 134.0606
247.1130, 134.7872
247.5951, 134.9459
248.0772, 135.6676
248.5593, 136.1646
249.0414, 136.7645
249.5236, 137.1417
250.0057, 137.5876
250.4878, 138.2563
250.9699, 138.8017
251.4520, 139.1531
251.9341, 139.7595
252.4163, 139.9105
252.8984, 140.4611
253.3805, 141.1841
253.8626, 141.5468
254.3447, 142.1572
254.8268, 142.6733
255.3090, 143.0649
255.7911, 143.7644
256.2732, 144.5920
256.7553, 145.4274
257.2374, 146.3657
257.7195, 147.2207
258.2017, 147.6968
258.6838, 147.5286
259.1659, 147.6132
259.6480, 148.3080
260.1301, 149.6476
260.6122, 150.4849
261.0944, 150.6537
261.5765, 150.5276
262.0586, 150.4648
262.5407, 150.4268
263.0228, 150.5620
263.5049, 150.9215
263.9871, 151.5031
264.4692, 152.1826
264.9513, 153.0708
265.4334, 153.8912
265.9155, 154.3706
266.3976, 154.4052
266.8798, 154.4117
267.3619, 154.4232
267.8440, 154.4559
268.3261, 154.6472
268.8082, 155.0163
269.2903, 155.5004
269.7725, 156.0863
270.2546, 156.8101
270.7367, 157.4336
271.2188, 157.9126
271.7009, 158.2612
272.1830, 158.4604
272.6652, 158.3687
273.1473, 158.5108
273.6294, 159.3919
274.1115, 161.1815
274.5936, 162.6526
275.0757, 163.6409
275.5579, 164.2773
276.0400, 164.8798
276.5221, 165.4379
277.0042, 165.9992
277.4863, 166.5507
277.9684, 167.0779
278.4506, 167.8132
278.9327, 168.8318
279.4148, 169.9913
279.8969, 170.9539
280.3790, 171.6835
280.8611, 172.4787
281.3433, 173.4650
281.8254, 174.6488
282.3075, 176.0564
282.7896, 177.7194
283.2717, 179.5578
283.7538, 181.5749
284.2360, 183.7901
284.7181, 185.7185
285.2002, 186.8679
285.6823, 187.3852
286.1644, 188.7578
286.6465, 191.1376
287.1287, 193.7676
287.6108, 195.4884
288.0929, 196.3642
288.5750, 197.6151
289.0571, 199.9935
289.5392, 203.1252
290.0214, 205.4189
290.5035, 206.8066
290.9856, 207.8651
291.4677, 209.0084
291.9498, 210.2779
292.4319, 211.9043
292.9141, 214.1297
293.3962, 216.6779
293.8783, 218.9391
294.3604, 220.9026
294.8425, 222.6817
295.3246, 224.2874
295.8068, 225.7927
296.2889, 227.4068
296.7710, 229.2227
297.2531, 231.1517
297.7352, 233.0757
298.2173, 234.9779
298.6995, 236.7896
299.1816, 238.2195
299.6637, 239.5295
300.1458, 241.2464
300.6279, 243.5202
301.1100, 246.1337
301.5922, 249.0455
302.0743, 252.1269
302.5564, 254.8568
303.0385, 257.0845
303.5206, 258.7297
304.0027, 259.4635
304.4849, 258.9834
304.9670, 258.6204
305.4491, 259.8950
305.9312, 262.2934
306.4133, 264.5850
306.8954, 266.2308
307.3776, 267.4400
307.8597, 268.2759
308.3418, 268.7224
308.8239, 269.2132
309.3060, 270.1050
309.7881, 271.2613
310.2703, 272.4338
310.7524, 273.6423
311.2345, 274.7623
311.7166, 275.6843
312.1987, 276.4095
312.6808, 277.0141
313.1630, 277.6314
313.6451, 278.1196
314.1272, 278.3306
314.6093, 278.1685
315.0914, 277.7538
315.5735, 276.9775
316.0557, 275.9213
316.5378, 275.0280
317.0199, 274.5655
317.5020, 274.2931
317.9841, 274.0462
318.4662, 273.8944
318.9484, 273.6146
319.4305, 273.5365
319.9126, 273.3193
320.3947, 272.0653
320.8768, 268.2595
321.3589, 264.3041
321.8411, 261.4890
322.3232, 260.5810
322.8053, 259.3994
323.2874, 257.4739
323.7695, 255.0357
324.2516, 252.4507
324.7338, 249.9995
325.2159, 247.2019
325.6980, 243.7375
326.1801, 239.3286
326.6622, 235.4035
327.1443, 232.3850
327.6265, 229.7281
328.1086, 226.8748
328.5907, 223.5711
329.0728, 220.3813
329.5549, 217.4202
330.0370, 214.6786
330.5192, 211.9448
331.0013, 209.1594
331.4834, 206.4136
331.9655, 203.7406
332.4476, 201.1419
332.9297, 198.5798
333.4119, 195.8907
333.8940, 193.2231
334.3761, 191.3739
334.8582, 190.8678
335.3403, 190.4043
335.8224, 189.2956
336.3046, 187.2834
336.7867, 185.3464
337.2688, 183.4080
337.7509, 181.6115
338.2330, 180.2467
338.7151, 179.4208
339.1973, 178.7246
339.6794, 178.0063
340.1615, 177.2708
340.6436, 176.6092
341.1257, 176.0974
341.6078, 175.5188
342.0900, 174.4706
342.5721, 172.9220
343.0542, 171.6149
343.5363, 170.8816
344.0184, 170.5703
344.5005, 170.0003
344.9827, 169.1610
345.4648, 168.1810
345.9469, 167.1096
346.4290, 165.9593
346.9111, 164.9496
347.3932, 164.1179
347.8754, 163.4322
348.3575, 163.0956
348.8396, 163.0431
349.3217, 162.5139
349.8038, 160.3672
350.2859, 157.3892
350.7681, 155.6717
351.2502, 155.6774
351.7323, 156.1107
352.2144, 155.5144
352.6965, 154.1194
353.1786, 152.6407
353.6608, 151.2862
354.1429, 150.1190
354.6250, 149.3275
355.1071, 148.9337
355.5892, 148.4924
356.0714, 147.5383
356.5535, 146.3441
357.0356, 145.3138
357.5177, 144.7823
357.9998, 144.3065
358.4819, 143.4909
358.9641, 142.4106
359.4462, 141.5051
359.9283, 141.1924
360.4104, 141.0510
360.8925, 140.7147
361.3746, 139.9765
361.8568, 139.2464
362.3389, 138.6379
362.8210, 138.1599
363.3031, 137.8187
363.7852, 137.8834
364.2673, 137.8703
364.7495, 137.4902
365.2316, 136.5734
365.7137, 135.8033
366.1958, 135.4591
366.6779, 135.2876
367.1600, 134.9876
367.6422, 134.2352
368.1243, 133.6530
368.6064, 133.4642
369.0885, 133.6971
369.5706, 133.7333
370.0527, 133.4584
370.5349, 133.0783
371.0170, 132.7147
371.4991, 132.3372
371.9812, 132.0289
372.4633, 131.7318
372.9454, 131.5109
373.4276, 131.6360
373.9097, 132.3131
374.3918, 132.9831
374.8739, 133.3913
375.3560, 133.5173
375.8381, 133.4677
376.3203, 133.1515
376.8024, 132.7776
377.2845, 132.6694
377.7666, 132.8540
378.2487, 133.1653
378.7308, 133.5905
379.2130, 134.1054
379.6951, 134.5075
380.1772, 134.7902
380.6593, 135.0067
381.1414, 135.1013
381.6235, 135.1127
382.1057, 135.4769
382.5878, 136.4311
383.0699, 137.5767
383.5520, 138.0293
384.0341, 137.8648
384.5162, 137.8093
384.9984, 138.5314
385.4805, 139.6699
385.9626, 140.3846
386.4447, 140.5268
386.9268, 140.5993
387.4089, 141.2195
387.8911, 142.1673
388.3732, 142.9333
388.8553, 143.1412
389.3374, 143.1583
389.8195, 143.2935
390.3016, 143.5482
390.7838, 143.8937
391.2659, 144.4385
391.7480, 145.0091
392.2301, 145.4317
392.7122, 145.6951
393.1943, 145.7566
393.6765, 145.5103
394.1586, 145.0333
394.6407, 144.5488
395.1228, 144.2773
395.6049, 143.9064
396.0870, 143.1903
396.5692, 141.9088
397.0513, 140.9324
397.5334, 140.7825
398.0155, 140.9102
398.4976, 140.6311
398.9797, 139.6149
399.4619, 138.4604
399.9440, 137.1388
400.4261, 135.6515
400.9082, 134.5682
401.3903, 134.1867
401.8724, 133.9222
402.3546, 133.3944
402.8367, 132.4725
403.3188, 131.5866
403.8009, 130.7938
404.2830, 130.0367
404.7651, 129.1470
405.2473, 128.0813
405.7294, 127.0303
406.2115, 126.0135
406.6936, 125.0318
407.1757, 124.4176
407.6578, 124.2559
408.1400, 124.2310
408.6221, 124.0297
409.1042, 123.6522
409.5863, 123.0512
410.0684, 122.1178
410.5505, 121.0295
411.0327, 120.1118
411.5148, 119.3638
411.9969, 118.8407
412.4790, 118.7085
412.9611, 118.8160
413.4432, 118.7661
413.9254, 118.4574
414.4075, 118.1778
414.8896, 118.4207
415.3717, 118.9427
415.8538, 119.1669
416.3359, 118.5360
416.8181, 117.6629
417.3002, 116.9606
417.7823, 116.4467
418.2644, 116.3916
418.7465, 117.5905
419.2286, 119.0194
419.7108, 119.6410
420.1929, 118.5883
420.6750, 117.5073
421.1571, 117.0228
421.6392, 116.9806
422.1213, 116.9971
422.6035, 116.9556
423.0856, 116.9634
423.5677, 117.1468
424.0498, 117.6723
424.5319, 117.7998
425.0140, 116.9411
425.4962, 115.9142
425.9783, 115.5639
426.4604, 116.5276
426.9425, 117.2318
427.4246, 117.3394
427.9067, 116.9622
428.3889, 116.8808
428.8710, 117.1915
429.3531, 117.6264
429.8352, 118.1182
430.3173, 118.7410
430.7994, 118.9469
431.2816, 118.5982
431.7637, 118.0243
432.2458, 117.7230
432.7279, 117.6975
433.2100, 117.8740
433.6921, 118.2727
434.1743, 118.8463
434.6564, 119.4898
435.1385, 120.2193
435.6206, 120.7849
436.1027, 120.9822
436.5848, 120.8516
437.0670, 120.4063
437.5491, 118.2013
438.0312, 119.8334
438.5133, 120.7702
438.9954, 121.0492
439.4775, 118.7000
439.9597, 119.7446
440.4418, 119.4291
440.9239, 119.0578
441.4060, 120.5800
441.8881, 118.6131
442.3702, 120.1053
442.8524, 120.2167
443.3345, 120.9601
443.8166, 120.3349
444.2987, 120.1325
444.7808, 121.2989
445.2629, 121.7074
445.7451, 120.9248
446.2272, 121.7083
446.7093, 119.6936
447.1914, 120.1343
447.6735, 121.6346
448.1556, 120.9207
448.6378, 121.7293
449.1199, 121.9580
449.6020, 119.5517
450.0841, 121.7280
450.5662, 121.9225
451.0483, 120.0821
451.5305, 122.1013
452.0126, 120.5415
452.4947, 120.2591
452.9768, 120.9382
453.4589, 120.6150
453.9410, 121.8720
454.4232, 121.6067
454.9053, 121.2054
455.3874, 121.3977
455.8695, 119.9080
456.3516, 120.8293
456.8337, 120.6062
457.3159, 120.6732
457.7980, 120.8731
458.2801, 120.9271
458.7622, 120.8502
459.2443, 120.7440
459.7264, 120.8186
460.2086, 120.8538
460.6907, 120.4744
461.1728, 119.5341
461.6549, 118.6329
462.1370, 118.2396
462.6191, 118.1635
463.1013, 118.1359
463.5834, 118.3112
464.0655, 118.2756
464.5476, 117.7190
465.0297, 116.7073
465.5118, 115.7886
465.9940, 115.2049
466.4761, 114.6981
466.9582, 114.1393
467.4403, 113.5387
467.9224, 112.8281
468.4045, 111.8526
468.8867, 110.8359
469.3688, 110.1140
469.8509, 109.9420
470.3330, 109.6204
470.8151, 108.9455
471.2972, 107.9594
471.7794, 107.1140
472.2615, 106.4488
472.7436, 105.7969
473.2257, 104.9650
473.7078, 103.9428
474.1899, 103.3137
474.6721, 103.2473
475.1542, 103.2246
475.6363, 102.3093
476.1184, 100.6482
476.6005, 99.18404
477.0826, 98.32032
477.5648, 97.86540
478.0469, 97.52338
478.5290, 97.29408
479.0111, 97.17673
479.4932, 97.40495
479.9753, 97.64439
480.4575, 97.43810
480.9396, 96.57963
481.4217, 95.68697
481.9038, 95.05265
482.3859, 94.65531
482.8680, 94.47608
483.3502, 94.91814
483.8323, 95.17796
484.3144, 94.78231
484.7965, 93.79139
485.2786, 93.12764
485.7607, 93.26319
486.2429, 93.50012
486.7250, 93.49553
487.2071, 93.17115
487.6892, 92.76049
488.1713, 92.17033
488.6534, 91.56124
489.1356, 91.14503
489.6177, 90.92146
490.0998, 90.92322
490.5819, 91.27579
491.0640, 91.85409
491.5461, 91.92126
492.0283, 91.40824
492.5104, 90.91183
492.9925, 90.85394
493.4746, 91.17531
493.9567, 91.63046
494.4388, 92.24724
494.9210, 92.77822
495.4031, 92.84395
495.8852, 92.60029
496.3673, 92.44308
496.8494, 92.53986
497.3315, 92.76406
497.8137, 93.02449
498.2958, 93.31634
498.7779, 93.61301
499.2600, 93.89444
499.7421, 94.18324
500.2242, 94.53757
500.7064, 95.02188
501.1885, 95.32540
501.6706, 95.07566
502.1527, 94.72401
502.6348, 94.73111
503.1169, 95.64285
503.5991, 96.33671
504.0812, 96.64787
504.5633, 96.64875
505.0454, 96.56667
505.5275, 96.23134
506.0096, 96.11423
506.4918, 95.90723
506.9739, 96.78618
507.4560, 97.45351
507.9381, 97.92065
508.4202, 97.58789
508.9023, 98.28804
509.3845, 98.57430
509.8666, 98.84355
510.3487, 99.68905
510.8308, 99.47266
511.3129, 100.3090
511.7950, 100.7252
512.2772, 101.3337
512.7593, 101.5257
513.2414, 102.5126
513.7235, 103.1801
514.2056, 103.7345
514.6877, 104.1818
515.1699, 104.2014
515.6520, 104.7732
516.1341, 105.1238
516.6162, 105.4652
517.0983, 106.1149
517.5804, 106.1966
518.0626, 106.8415
518.5447, 107.2614
519.0268, 107.7843
519.5089, 108.0845
519.9910, 108.4534
520.4731, 109.0451
520.9553, 109.5136
521.4374, 109.7880
521.9195, 110.3175
522.4016, 110.3914
522.8837, 110.8650
523.3658, 111.5111
523.8480, 111.7969
524.3301, 112.3303
524.8122, 112.7695
525.2943, 113.2205
525.7764, 113.9829
526.2585, 114.7778
526.7407, 115.4699
527.2228, 115.6885
527.7049, 115.5221
528.1870, 115.4778
528.6691, 116.0101
529.1512, 116.7569
529.6334, 117.2994
530.1155, 117.6080
530.5976, 117.8360
531.0797, 118.0444
531.5618, 118.2342
532.0439, 118.3957
532.5261, 118.4077
533.0082, 118.5608
533.4903, 119.1122
533.9724, 119.8387
534.4545, 120.2729
534.9366, 119.9958
535.4188, 119.8553
535.9009, 120.0874
536.3830, 120.6829
536.8651, 121.1965
537.3472, 121.5938
537.8293, 121.9800
538.3115, 122.4591
538.7936, 123.0497
539.2757, 123.4433
539.7578, 123.5851
540.2399, 123.6378
540.7220, 123.7468
541.2042, 123.9339
541.6863, 124.3583
542.1684, 125.2263
542.6505, 126.1720
543.1326, 126.5373
543.6147, 126.4806
544.0969, 126.6219
544.5790, 127.6914
545.0611, 128.8579
545.5432, 129.3470
546.0253, 129.0624
546.5074, 128.8005
546.9896, 128.8848
547.4717, 129.1384
547.9538, 129.4230
548.4359, 129.8457
548.9180, 130.1190
549.4001, 130.0569
549.8823, 129.8864
550.3644, 129.9951
550.8465, 130.4797
551.3286, 131.0882
551.8107, 131.8779
552.2928, 132.7715
552.7750, 133.0826
553.2571, 132.7020
553.7392, 132.2893
554.2213, 132.3360
554.7034, 132.7486
555.1855, 132.9971
555.6677, 133.0530
556.1498, 132.9647
556.6319, 132.6164
557.1140, 132.1780
557.5961, 130.4035
558.0782, 132.0700
558.5604, 133.0413
559.0425, 133.3547
559.5246, 131.0399
560.0067, 132.1189
560.4888, 131.8378
560.9709, 131.5010
561.4531, 133.0576
561.9352, 131.1251
562.4173, 132.6517
562.8994, 132.7975
563.3815, 133.5753
563.8636, 132.7530
564.3458, 132.7723
564.8279, 132.5828
565.3100, 132.0755
565.7921, 131.4956
566.2742, 131.2391
566.7563, 131.3638
567.2385, 131.2074
567.7206, 130.5378
568.2027, 129.6232
568.6848, 129.1181
569.1669, 128.9618
569.6490, 128.7533
570.1312, 128.2398
570.6133, 127.5566
571.0954, 126.9294
571.5775, 126.3444
572.0596, 125.6534
572.5417, 124.6197
573.0239, 123.5089
573.5060, 122.5487
573.9881, 121.7505
574.4702, 121.1590
574.9523, 120.9957
575.4344, 120.9642
575.9166, 120.6910
576.3987, 119.9449
576.8808, 119.2236
577.3629, 118.5797
577.8450, 117.9941
578.3271, 117.3913
578.8093, 116.7594
579.2914, 116.1515
579.7735, 115.6392
580.2556, 115.1940
580.7377, 114.4676
581.2198, 113.4324
581.7020, 112.4368
582.1841, 111.8203
582.6662, 111.4587
583.1483, 111.0489
583.6304, 110.5524
584.1125, 110.0338
584.5947, 109.4842
585.0768, 108.9695
585.5589, 108.5934
586.0410, 108.7324
586.5231, 108.6386
587.0052, 107.7460
587.4874, 106.3672
587.9695, 105.3538
588.4516, 105.3285
588.9337, 105.2038
589.4158, 104.5544
589.8979, 103.3749
590.3801, 102.6536
590.8622, 102.5503
591.3443, 102.6193
591.8264, 102.5936
592.3085, 102.4638
592.7906, 102.3770
593.2728, 102.3597
593.7549, 102.2936
594.2370, 101.9618
594.7191, 101.4426
595.2012, 101.0595
595.6833, 100.9275
596.1655, 100.8822
596.6476, 100.8262
597.1297, 100.7187
597.6118, 100.4643
598.0939, 99.97776
598.5760, 99.37366
599.0582, 98.59761
599.5403, 97.70802
600.0224, 97.05659
600.5045, 96.94593
600.9866, 96.90308
601.4688, 96.67702
601.9509, 96.17067
602.4330, 95.95010
602.9151, 96.24214
603.3972, 96.50665
603.8793, 96.11379
604.3615, 94.95351
604.8436, 94.36384
605.3257, 94.64940
605.8078, 95.21194
606.2899, 95.08215
606.7720, 94.37772
607.2542, 93.65519
607.7363, 93.09066
608.2184, 92.63741
608.7005, 92.24407
609.1826, 91.91930
609.6647, 91.70750
610.1469, 91.88103
610.6290, 91.96815
611.1111, 91.60339
611.5932, 90.74937
612.0753, 90.00874
612.5574, 89.60404
613.0396, 89.26125
613.5217, 88.81828
614.0038, 88.20309
614.4859, 87.65925
614.9680, 87.18543
615.4501, 86.78331
615.9323, 86.47294
616.4144, 86.25978
616.8965, 86.04601
617.3786, 85.82629
617.8607, 85.57547
618.3428, 85.24857
618.8250, 84.85178
619.3071, 84.41113
619.7892, 83.87562
620.2713, 83.34811
620.7534, 82.95079
621.2355, 82.65941
621.7177, 82.37533
622.1998, 81.99731
622.6819, 81.65826
623.1640, 81.51115
623.6461, 81.63872
624.1282, 81.44544
624.6104, 80.56152
625.0925, 79.60976
625.5746, 78.97713
626.0567, 78.74250
626.5388, 78.60366
627.0209, 78.59893
627.5031, 78.61269
627.9852, 78.43093
628.4673, 78.07020
628.9494, 77.90560
629.4315, 78.14703
629.9136, 78.40017
630.3958, 77.84541
630.8779, 76.76228
631.3600, 75.99564
631.8421, 76.32956
632.3242, 76.83473
632.8063, 76.75805
633.2885, 76.19807
633.7706, 75.74551
634.2527, 75.66219
634.7348, 75.68867
635.2169, 75.76189
635.6990, 75.92484
636.1812, 75.80582
636.6633, 75.23305
637.1454, 74.59285
637.6275, 74.13575
638.1096, 73.85559
638.5917, 73.80289
639.0739, 74.02116
639.5560, 74.34050
640.0381, 74.59814
640.5202, 74.78478
641.0023, 74.84216
641.4844, 74.71275
641.9666, 74.53849
642.4487, 74.38921
642.9308, 74.31233
643.4129, 74.41080
643.8950, 74.94615
644.3771, 75.45608
644.8593, 75.60642
645.3414, 75.49809
645.8235, 75.69411
646.3056, 76.85600
646.7877, 77.72388
647.2698, 77.72249
647.7520, 76.80217
648.2341, 76.60315
648.7162, 77.36562
649.1983, 78.18731
649.6804, 78.31152
650.1625, 77.82925
650.6447, 77.61453
651.1268, 77.72521
651.6089, 77.99498
652.0910, 78.29200
652.5731, 78.61749
653.0552, 78.97826
653.5374, 78.36086
654.0195, 80.41210
654.5016, 81.76820
654.9837, 82.46643
655.4658, 80.53648
655.9479, 82.00022
656.4301, 82.10408
656.9122, 82.15199
657.3943, 84.09345
657.8764, 82.54575
658.3585, 84.45719
658.8406, 84.98774
659.3228, 85.05704
659.8049, 85.46765
660.2870, 85.79311
660.7691, 86.02626
661.2512, 86.32082
661.7333, 86.76035
662.2155, 87.32834
662.6976, 88.05130
663.1797, 87.94268
663.6618, 90.13580
664.1439, 91.63369
664.6260, 92.47366
665.1082, 90.68568
665.5903, 92.29122
666.0724, 92.53677
666.5545, 92.72655
667.0366, 94.80983
667.5187, 93.40387
668.0009, 95.45727
668.4830, 96.12962
668.9651, 97.43401
669.4472, 97.36993
669.9293, 97.72853
670.4114, 98.67033
670.8936, 99.70421
671.3757, 100.2347
671.8578, 100.5761
672.3399, 101.3129
672.8220, 102.3305
673.3041, 103.2275
673.7863, 103.6305
674.2684, 103.9834
674.7505, 104.5335
675.2326, 105.2940
675.7147, 106.2803
676.1968, 107.6917
676.6790, 109.1672
677.1611, 110.5119
677.6432, 111.7250
678.1253, 113.0976
678.6074, 114.8601
679.0895, 116.3309
679.5717, 116.8520
680.0538, 116.4282
680.5359, 116.6633
681.0180, 117.6414
681.5001, 118.8464
681.9822, 119.7594
682.4644, 120.5221
682.9465, 121.3866
683.4286, 122.3995
683.9107, 123.5450
684.3928, 125.0736
684.8749, 126.6351
685.3571, 127.8297
685.8392, 128.0519
686.3213, 128.5341
686.8034, 129.4766
687.2855, 130.7947
687.7676, 132.4306
688.2498, 134.6088
688.7319, 136.5967
689.2140, 138.2530
689.6961, 139.6462
690.1782, 140.8022
690.6603, 141.7418
691.1425, 142.8550
691.6246, 144.5204
692.1067, 146.3585
692.5888, 147.6946
693.0709, 148.6372
693.5530, 149.6648
694.0352, 151.1426
694.5173, 152.6883
694.9994, 153.9559
695.4815, 154.9113
695.9636, 156.2736
696.4457, 158.6682
696.9279, 160.9800
697.4100, 162.5933
697.8921, 163.3209
698.3742, 164.7496
698.8563, 167.1508
699.3384, 169.4156
699.8206, 170.3302
700.3027, 170.1909
700.7848, 170.4480
701.2669, 171.2839
701.7490, 172.2714
702.2311, 172.9297
702.7133, 173.5123
703.1954, 174.4668
703.6775, 176.3565
704.1596, 177.6749
704.6417, 177.2204
705.1238, 176.0862
705.6060, 175.8377
706.0881, 177.4722
706.5702, 178.4492
707.0523, 178.3144
707.5344, 177.5552
708.0165, 177.2714
708.4987, 177.5200
708.9808, 177.3623
709.4629, 176.4206
709.9450, 175.0367
710.4271, 173.7383
710.9092, 172.5392
711.3914, 171.4422
711.8735, 170.5443
712.3556, 169.6872
712.8377, 169.0493
713.3198, 168.4455
713.8019, 167.0249
714.2841, 163.7259
714.7662, 160.3731
715.2483, 157.7048
715.7304, 155.6940
716.2125, 153.4593
716.6946, 150.9544
717.1768, 148.3106
717.6589, 145.6838
718.1410, 143.0134
718.6231, 139.8820
719.1052, 136.2370
719.5873, 132.7574
720.0695, 130.0259
720.5516, 127.6820
721.0337, 125.2112
721.5158, 122.5464
721.9979, 119.9250
722.4800, 117.3374
722.9622, 114.8859
723.4443, 112.6373
723.9264, 110.5520
724.4085, 108.8005
724.8906, 107.5114
725.3727, 106.3814
725.8549, 105.0871
726.3370, 103.5998
726.8191, 102.2202
727.3012, 101.0127
727.7833, 99.86785
728.2654, 98.62002
728.7476, 97.34780
729.2297, 96.26314
729.7118, 95.52890
730.1939, 94.78315
730.6760, 93.67181
731.1581, 92.43053
731.6403, 91.40388
732.1224, 90.84501
732.6045, 90.30391
733.0866, 89.76115
733.5687, 89.18220
734.0508, 88.46835
734.5330, 87.57007
735.0151, 86.71949
735.4972, 85.91840
735.9793, 85.25870
736.4614, 85.09043
736.9435, 85.30989
737.4257, 85.38258
737.9078, 84.86353
738.3899, 84.21548
738.8720, 83.85242
739.3541, 83.72037
739.8362, 83.63628
740.3184, 83.78123
740.8005, 83.71572
741.2826, 83.06821
741.7647, 81.95095
742.2468, 81.33144
742.7289, 81.33031
743.2111, 81.53065
743.6932, 81.82114
744.1753, 82.16166
744.6574, 82.34245
745.1395, 82.36184
745.6216, 82.20359
746.1038, 81.66978
746.5859, 81.05541
747.0680, 80.74258
747.5501, 80.74149
748.0322, 80.82381
748.5143, 80.97180
748.9965, 81.10317
749.4786, 81.17986
749.9607, 81.20771
750.4428, 81.10668
750.9249, 80.76061
751.4070, 80.47810
751.8892, 80.54910
752.3713, 80.96523
752.8534, 81.16238
753.3355, 81.12149
753.8176, 80.91711
754.2997, 80.57742
754.7819, 80.13822
755.2640, 79.58425
755.7461, 78.87066
756.2282, 78.36254
756.7103, 78.53684
757.1924, 78.83947
757.6746, 78.76749
758.1567, 77.91457
758.6388, 77.40064
759.1209, 77.43063
759.6030, 77.54407
760.0851, 77.17981
760.5673, 76.31001
761.0494, 75.78079
761.5315, 75.74966
762.0136, 75.79356
762.4957, 75.24475
762.9778, 74.44020
763.4600, 74.08488
763.9421, 74.61435
764.4242, 74.97826
764.9063, 74.36955
765.3884, 73.36182
765.8705, 72.66016
766.3527, 72.65281
766.8348, 72.54021
767.3169, 72.25010
767.7990, 71.87584
768.2811, 71.55378
768.7632, 71.28665
769.2454, 71.01726
769.7275, 70.73318
770.2096, 70.45225
770.6917, 70.22468
771.1738, 70.01976
771.6559, 69.76795
772.1381, 69.46355
772.6202, 69.07933
773.1023, 68.43759
773.5844, 67.74205
774.0665, 67.36757
774.5486, 67.56908
775.0308, 67.80597
775.5129, 68.10781
775.9950, 68.34486
776.4771, 68.12489
776.9592, 67.42453
777.4413, 66.93575
777.9235, 66.92189
778.4056, 67.11830
778.8877, 67.03564
779.3698, 66.83056
779.8519, 66.90647
780.3340, 68.02300
780.8162, 68.86147
781.2983, 68.57936
781.7804, 67.55413
782.2625, 66.80256
782.7446, 66.38929
783.2267, 66.28275
783.7089, 66.57423
784.1910, 67.11736
784.6731, 67.56779
785.1552, 67.92636
785.6373, 67.97861
786.1194, 67.43703
786.6016, 66.77124
787.0837, 66.74712
787.5658, 67.17784
788.0479, 67.54978
788.5300, 67.58266
789.0121, 67.54132
789.4943, 67.54400
789.9764, 67.56540
790.4585, 67.48178
790.9406, 67.14997
791.4227, 67.01197
791.9048, 67.30050
792.3870, 67.80700
792.8691, 67.74248
793.3512, 67.15248
793.8333, 66.74760
794.3154, 66.97646
794.7975, 67.46909
795.2797, 67.78976
795.7618, 67.99882
796.2439, 68.27164
796.7260, 69.00674
797.2081, 69.48579
797.6902, 69.20500
798.1724, 68.40367
798.6545, 68.02103
799.1366, 68.19658
799.6187, 68.42526
800.1008, 68.52244
800.5829, 68.56977
801.0651, 68.84832
801.5472, 69.32398
802.0293, 69.78868
802.5114, 70.14561
802.9935, 70.42538
803.4756, 70.62772
803.9578, 70.76980
804.4399, 70.90514
804.9220, 70.99007
805.4041, 71.14212
805.8862, 71.43747
806.3683, 71.82512
806.8505, 72.09335
807.3326, 72.23048
807.8147, 72.29166
808.2968, 72.21361
808.7789, 72.14548
809.2610, 72.56718
809.7432, 73.33980
810.2253, 73.89631
810.7074, 73.75793
811.1895, 73.47761
811.6716, 73.30608
812.1537, 73.26960
812.6359, 73.44328
813.1180, 73.99783
813.6001, 74.54621
814.0822, 75.00401
814.5643, 75.39568
815.0464, 75.80149
815.5286, 76.22055
816.0107, 76.62458
816.4928, 76.99930
816.9749, 77.35453
817.4570, 77.79230
817.9391, 78.22881
818.4213, 78.43553
818.9034, 77.84438
819.3855, 77.48325
819.8676, 77.98402
820.3497, 79.07265
820.8318, 79.77962
821.3140, 79.94550
821.7961, 80.08593
822.2782, 80.33064
822.7603, 80.62170
823.2424, 80.74390
823.7245, 80.75273
824.2067, 81.01897
824.6888, 81.92916
825.1709, 82.86714
825.6530, 83.13289
826.1351, 83.01476
826.6172, 83.14454
827.0994, 84.04056
827.5815, 84.80032
828.0636, 85.22378
828.5457, 85.42301
829.0278, 85.56304
829.5099, 85.58740
829.9921, 85.97165
830.4742, 86.91626
830.9563, 88.10712
831.4384, 89.15024
831.9205, 90.04020
832.4026, 90.75979
832.8848, 91.15665
833.3669, 91.60449
833.8490, 92.34484
834.3311, 93.24802
834.8132, 94.08221
835.2953, 94.67802
835.7775, 95.51717
836.2596, 96.74976
836.7417, 98.10314
837.2238, 99.11691
837.7059, 99.83317
838.1880, 100.5033
838.6702, 101.1548
839.1523, 101.8887
839.6344, 102.9591
840.1165, 104.1287
840.5986, 105.0157
841.0807, 105.1457
841.5629, 105.6163
842.0450, 106.8168
842.5271, 108.3313
843.0092, 109.8196
843.4913, 111.3289
843.9734, 112.4676
844.4556, 113.1057
844.9377, 113.7290
845.4198, 114.9804
845.9019, 116.6322
846.3840, 118.2357
846.8661, 119.6968
847.3483, 121.1526
847.8304, 122.7325
848.3125, 124.3122
848.7946, 125.7189
849.2767, 126.6006
849.7589, 128.2688
850.2410, 131.0494
850.7231, 133.9996
851.2052, 136.2257
851.6873, 137.8351
852.1694, 139.6599
852.6516, 141.7619
853.1337, 143.9556
853.6158, 145.9952
854.0979, 148.1326
854.5800, 150.6840
855.0621, 153.7265
855.5443, 156.8097
856.0264, 159.8167
856.5085, 162.8491
856.9906, 165.9311
857.4727, 169.0513
857.9548, 172.2473
858.4370, 175.5488
858.9191, 178.7434
859.4012, 181.5650
859.8833, 184.2936
860.3654, 187.3003
860.8475, 190.5982
861.3297, 194.1367
861.8118, 198.0578
862.2939, 202.0914
862.7760, 206.2296
863.2581, 210.4100
863.7402, 214.3825
864.2224, 218.0403
864.7045, 221.7794
865.1866, 225.7589
865.6687, 229.9391
866.1508, 233.9714
866.6329, 237.9982
867.1151, 242.4842
867.5972, 248.3025
868.0793, 254.0490
868.5614, 258.6501
869.0435, 262.5114
869.5256, 266.7910
870.0078, 271.7076
870.4899, 276.7986
870.9720, 282.0750
871.4541, 287.4523
871.9362, 292.7461
872.4183, 297.9868
872.9005, 303.4406
873.3826, 309.2957
873.8647, 315.1710
874.3468, 320.6236
874.8289, 325.8917
875.3110, 331.2680
875.7932, 336.8494
876.2753, 342.4388
876.7574, 347.8908
877.2395, 353.4229
877.7216, 359.4525
878.2037, 365.9931
878.6859, 372.2523
879.1680, 378.0757
879.6501, 384.0270
880.1322, 391.2227
880.6143, 398.8304
881.0964, 405.5819
881.5786, 411.1112
882.0607, 416.4292
882.5428, 421.8231
883.0249, 427.1993
883.5070, 432.3286
883.9891, 437.0699
884.4713, 442.7376
884.9534, 449.4516
885.4355, 456.2167
885.9176, 462.4041
886.3997, 468.0284
886.8818, 472.9931
887.3640, 477.3290
887.8461, 481.2057
888.3282, 483.8733
888.8103, 486.8035
889.2924, 491.0669
889.7745, 496.5650
890.2567, 501.6578
890.7388, 506.4940
891.2209, 510.2896
891.7030, 512.1854
892.1851, 513.2084
892.6672, 516.3714
893.1494, 521.2459
893.6315, 525.8842
894.1136, 528.9438
894.5957, 531.9135
895.0778, 535.4055
895.5599, 539.4861
896.0421, 544.2601
896.5242, 550.1193
897.0063, 555.7883
897.4884, 560.7690
897.9705, 565.8178
898.4526, 572.3559
898.9348, 580.1439
899.4169, 588.0876
899.8990, 596.0568
900.3811, 603.8936
900.8632, 611.2636
901.3453, 618.6112
901.8275, 626.6525
902.3096, 636.1832
902.7917, 644.8504
903.2738, 652.4641
903.7559, 659.5756
904.2380, 666.8448
904.7202, 674.2118
905.2023, 680.5994
905.6844, 685.8685
906.1665, 690.2469
906.6486, 694.2197
907.1307, 697.0684
907.6129, 697.9670
908.0950, 696.7637
908.5771, 694.9720
909.0592, 692.9523
909.5413, 690.2836
910.0234, 687.0354
910.5056, 683.0206
910.9877, 676.8534
911.4698, 668.5948
911.9519, 659.3376
912.4340, 649.7130
912.9161, 639.3158
913.3983, 627.8913
913.8804, 615.5308
914.3625, 602.6073
914.8446, 588.8395
915.3267, 574.9724
915.8088, 561.1688
916.2910, 547.3196
916.7731, 533.1293
917.2552, 518.5515
917.7373, 504.2510
918.2194, 490.3706
918.7015, 476.5104
919.1837, 462.2122
919.6658, 447.6739
920.1479, 433.1098
920.6300, 418.1678
921.1121, 404.0229
921.5942, 391.1608
922.0764, 378.4612
922.5585, 364.7902
923.0406, 350.0775
923.5227, 336.6508
924.0048, 324.6797
924.4869, 313.2104
924.9691, 301.1110
925.4512, 289.1415
925.9333, 278.3538
926.4154, 268.7314
926.8975, 259.5551
927.3796, 250.7830
927.8618, 242.2653
928.3439, 233.8215
928.8260, 225.5471
929.3081, 217.7946
929.7902, 210.5297
930.2723, 203.6059
930.7545, 196.9932
931.2366, 190.7393
931.7187, 185.0589
932.2008, 179.8435
932.6829, 174.8876
933.1650, 169.8707
933.6472, 165.4324
934.1293, 161.8671
934.6114, 158.7199
935.0935, 155.2990
935.5756, 151.5875
936.0577, 148.6908
936.5399, 146.8797
937.0220, 145.3025
937.5041, 143.2141
937.9862, 140.8761
938.4683, 138.5499
938.9504, 136.2219
939.4326, 134.2432
939.9147, 132.8850
940.3968, 131.6483
940.8789, 130.2224
941.3610, 128.6492
941.8431, 127.4565
942.3253, 126.6235
942.8074, 125.8285
943.2895, 124.8849
943.7716, 123.8817
944.2537, 122.6994
944.7358, 121.4931
945.2180, 120.8043
945.7001, 121.3848
946.1822, 121.6193
946.6643, 121.2088
947.1464, 120.3266
947.6285, 119.1217
948.1107, 117.6868
948.5928, 116.8860
949.0749, 117.1613
949.5570, 117.3801
950.0391, 116.4615
950.5212, 114.9594
951.0034, 113.4981
951.4855, 112.1479
951.9676, 110.9104
952.4497, 109.7667
952.9318, 108.7655
953.4139, 108.0193
953.8961, 107.4676
954.3782, 106.7456
954.8603, 105.8592
955.3424, 104.9339
955.8245, 103.9786
956.3066, 103.0819
956.7888, 102.2713
957.2709, 101.5662
957.7530, 101.0939
958.2351, 101.0135
958.7172, 100.7803
959.1993, 100.2337
959.6815, 99.46274
960.1636, 98.52005
960.6457, 97.51147
961.1278, 96.81258
961.6099, 96.68214
962.0920, 96.60702
962.5742, 96.28555
963.0563, 95.86935
963.5384, 95.54435
964.0205, 95.37878
964.5026, 95.09514
964.9847, 94.65517
965.4669, 94.23514
965.9490, 94.14607
966.4311, 94.15103
966.9132, 93.61648
967.3953, 92.56131
967.8774, 91.68388
968.3596, 91.32572
968.8417, 91.25706
969.3238, 91.51244
969.8059, 91.97510
970.2880, 92.15590
970.7701, 92.04959
971.2523, 91.67980
971.7344, 90.93752
972.2165, 90.13118
972.6986, 89.70049
973.1807, 89.52335
973.6628, 89.35905
974.1450, 88.98268
974.6271, 88.86655
975.1092, 89.33582
975.5913, 89.87688
976.0734, 89.97623
976.5555, 89.62306
977.0377, 89.40289
977.5198, 89.34680
978.0019, 89.42836
978.4840, 89.91624
978.9661, 90.33170
979.4482, 89.99696
979.9304, 88.94247
980.4125, 88.37876
980.8946, 88.70356
981.3767, 89.19176
981.8588, 89.71721
982.3409, 90.20618
982.8231, 90.47858
983.3052, 90.53196
983.7873, 90.31904
984.2694, 89.64443
984.7515, 89.04580
985.2336, 88.89475
985.7158, 89.04308
986.1979, 89.31637
986.6800, 89.73864
987.1621, 90.18570
987.6442, 90.68803
988.1263, 91.12840
988.6085, 91.38622
989.0906, 91.50224
989.5727, 91.56064
990.0548, 91.56777
990.5369, 91.52554
991.0190, 91.14855
991.5012, 91.01971
991.9833, 91.59774
992.4654, 92.64066
992.9475, 93.35578
993.4296, 93.71762
993.9117, 93.93619
994.3939, 94.05163
994.8760, 94.09881
995.3581, 94.00674
995.8402, 93.91662
996.3223, 94.08624
996.8044, 94.81441
997.2866, 95.26775
997.7687, 95.09387
998.2508, 94.90242
998.7329, 95.23161
999.2150, 96.04419
999.6971, 96.53085
1000.179, 96.68514
1000.661, 96.75579
1001.143, 96.77211
1001.626, 96.89282
1002.108, 97.34425
1002.590, 98.03680
1003.072, 98.51517
1003.554, 98.61642
1004.036, 98.84314
1004.518, 99.35665
1005.000, 99.92458
1005.483, 100.0858
1005.965, 99.97970
1006.447, 99.94956
1006.929, 100.0553
1007.411, 100.3228
1007.893, 101.0080
1008.375, 101.6641
1008.857, 101.9759
1009.339, 101.9309
1009.822, 101.5945
1010.304, 100.9058
1010.786, 100.5950
1011.268, 101.4991
1011.750, 102.7817
1012.232, 103.4555
1012.714, 103.6216
1013.196, 103.5986
1013.679, 103.3175
1014.161, 103.0736
1014.643, 102.9418
1015.125, 102.8298
1015.607, 102.5912
1016.089, 102.2472
1016.571, 101.9098
1017.053, 101.5945
1017.535, 101.3204
1018.018, 101.1498
1018.500, 100.9918
1018.982, 100.7853
1019.464, 100.5261
1019.946, 100.1736
1020.428, 99.69175
1020.910, 99.25295
1021.392, 98.93401
1021.875, 98.69872
1022.357, 98.48389
1022.839, 98.29829
1023.321, 98.16633
1023.803, 98.12624
1024.285, 98.09673
1024.767, 98.06775
1025.249, 98.03020
1025.731, 97.96446
1026.214, 97.86906
1026.696, 97.85048
1027.178, 97.91747
1027.660, 97.92818
1028.142, 97.71791
1028.624, 97.44695
1029.106, 97.24435
1029.588, 97.11434
1030.071, 96.99539
1030.553, 96.81482
1031.035, 96.80276
1031.517, 97.03765
1031.999, 97.43073
1032.481, 97.92412
1032.963, 98.44058
1033.445, 98.73679
1033.927, 98.65037
1034.410, 98.73305
1034.892, 99.25993
1035.374, 100.0324
1035.856, 100.9540
1036.338, 102.0355
1036.820, 102.9177
1037.302, 103.5867
1037.784, 104.0878
1038.266, 104.3323
1038.749, 104.5081
1039.231, 104.8240
1039.713, 105.2159
1040.195, 105.5114
1040.677, 105.4766
1041.159, 105.7289
1041.641, 106.4025
1042.123, 107.2197
1042.605, 107.8163
1043.088, 108.2887
1043.570, 108.9845
1044.052, 109.9393
1044.534, 110.6383
1045.016, 110.4286
1045.498, 110.2737
1045.980, 110.7481
1046.462, 111.6924
1046.945, 112.3160
1047.427, 112.6060
1047.909, 113.1416
1048.391, 114.2098
1048.873, 115.3551
1049.355, 116.1231
1049.837, 116.6598
1050.319, 117.1709
1050.802, 117.7477
1051.284, 118.1205
1051.766, 118.1364
1052.248, 118.2773
1052.730, 119.0064
1053.212, 120.1085
1053.694, 120.9514
1054.176, 121.5522
1054.658, 122.0068
1055.141, 122.2057
1055.623, 122.4465
1056.105, 122.8337
1056.587, 123.3291
1057.069, 123.9262
1057.551, 124.6309
1058.033, 125.1819
1058.515, 125.5340
1058.998, 125.8615
1059.480, 126.6200
1059.962, 127.2216
1060.444, 126.9349
1060.926, 125.6994
1061.408, 124.9235
1061.890, 124.8032
1062.372, 124.7452
1062.854, 124.5871
1063.337, 124.3269
1063.819, 124.0558
1064.301, 123.6691
1064.783, 122.9033
1065.265, 121.5225
1065.747, 120.1479
1066.229, 119.1335
1066.711, 118.0036
1067.193, 116.3417
1067.676, 114.2005
1068.158, 112.3904
1068.640, 110.8901
1069.122, 109.4958
1069.604, 108.2498
1070.086, 106.8783
1070.568, 105.0694
1071.050, 102.9930
1071.532, 101.0460
1072.015, 99.20972
1072.497, 97.57568
1072.979, 96.16712
1073.461, 94.83434
1073.943, 93.42653
1074.425, 91.98841
1074.907, 90.55189
1075.389, 89.13409
1075.872, 87.74891
1076.354, 86.33231
1076.836, 85.07495
1077.318, 84.08036
1077.800, 83.24220
1078.282, 82.25315
1078.764, 81.17649
1079.246, 80.26792
1079.729, 79.65302
1080.211, 78.96116
1080.693, 77.75288
1081.175, 76.58819
1081.657, 75.94508
1082.139, 75.81990
1082.621, 75.51449
1083.103, 75.02421
1083.585, 74.48753
1084.068, 73.89458
1084.550, 73.37800
1085.032, 73.15280
1085.514, 73.07510
1085.996, 72.88638
1086.478, 72.46661
1086.960, 72.16475
1087.442, 72.05301
1087.925, 71.86685
1088.407, 71.24793
1088.889, 70.43193
1089.371, 69.80596
1089.853, 69.38479
1090.335, 69.12097
1090.817, 68.92126
1091.299, 69.03884
1091.781, 69.77581
1092.264, 70.59130
1092.746, 70.33513
1093.228, 69.23379
1093.710, 68.34617
1094.192, 67.85564
1094.674, 67.56998
1095.156, 67.59350
1095.638, 67.57413
1096.120, 67.24593
1096.603, 66.65376
1097.085, 66.07457
1097.567, 65.50590
1098.049, 65.00986
1098.531, 64.65002
1099.013, 64.28237
1099.495, 63.60111
1099.977, 62.89014
1100.459, 62.54646
1100.942, 62.82226
1101.424, 62.87236
1101.906, 62.67774
1102.388, 62.31616
1102.870, 61.66137
1103.352, 60.96705
1103.834, 60.83977
1104.316, 61.08527
1104.799, 61.16049
1105.281, 60.66343
1105.763, 60.29721
1106.245, 60.26287
1106.727, 60.23127
1107.209, 59.73518
1107.691, 58.91989
1108.173, 58.43129
1108.656, 58.29071
1109.138, 58.27026
1109.620, 58.37193
1110.102, 58.41792
1110.584, 58.31706
1111.066, 58.10880
1111.548, 57.88770
1112.030, 57.64904
1112.512, 57.20983
1112.995, 56.49580
1113.477, 55.83248
1113.959, 55.46707
1114.441, 55.30086
1114.923, 55.30281
1115.405, 55.45809
1115.887, 55.58637
1116.369, 55.71204
1116.852, 55.64562
1117.334, 55.22271
1117.816, 54.78134
1118.298, 54.81862
1118.780, 55.11040
1119.262, 55.34243
1119.744, 55.45082
1120.226, 55.48228
1120.708, 55.41238
1121.191, 55.28310
1121.673, 55.50331
1122.155, 55.61035
1122.637, 55.61030
1123.119, 55.18240
1123.601, 55.30698
1124.083, 55.21014
1124.565, 55.10424
1125.047, 55.30657
1125.530, 54.94082
1126.012, 55.13827
1126.494, 55.11092
1126.976, 55.18647
1127.458, 55.03923
1127.940, 54.96080
1128.422, 55.10522
1128.904, 55.12624
1129.386, 54.95337
1129.869, 55.03536
1130.351, 54.66191
1130.833, 54.68819
1131.315, 54.88695
1131.797, 54.72527
1132.279, 54.81141
1132.761, 54.80318
1133.243, 54.36599
1133.726, 54.35717
1134.208, 54.16261
1134.690, 54.03449
1135.172, 54.09348
1135.654, 53.92791
1136.136, 54.11610
1136.618, 54.37263
1137.100, 54.35809
1137.583, 54.25506
1138.065, 54.27448
1138.547, 54.46633
1139.029, 54.61082
1139.511, 54.74356
1139.993, 54.66895
1140.475, 54.16639
1140.957, 53.64619
1141.439, 53.92564
1141.922, 54.59704
1142.404, 54.94545
1142.886, 54.63520
1143.368, 54.42571
1143.850, 54.42508
1144.332, 54.42718
1144.814, 54.27586
1145.296, 54.05196
1145.779, 53.98211
1146.261, 54.01943
1146.743, 54.02496
1147.225, 53.84032
1147.707, 53.77747
1148.189, 53.97243
1148.671, 54.17107
1149.153, 54.09484
1149.635, 53.82141
1150.118, 53.75489
1150.600, 53.87430
1151.082, 53.96240
1151.564, 53.77492
1152.046, 53.70093
1152.528, 53.93398
1153.010, 54.31010
1153.492, 54.68904
1153.974, 55.04799
1154.457, 55.07347
1154.939, 54.74111
1155.421, 54.37505
1155.903, 54.09647
1156.385, 53.94575
1156.867, 54.08154
1157.349, 54.32813
1157.831, 54.19716
1158.313, 53.67714
1158.796, 53.61067
1159.278, 54.18581
1159.760, 54.81627
1160.242, 55.09828
1160.724, 55.15399
1161.206, 54.98906
1161.688, 54.65634
1162.170, 54.48071
1162.653, 54.47057
1163.135, 54.54280
1163.617, 54.71644
1164.099, 54.82229
1164.581, 54.55709
1165.063, 54.21189
1165.545, 54.10951
1166.027, 54.30418
1166.510, 54.56631
1166.992, 54.95259
1167.474, 55.05644
1167.956, 54.53062
1168.438, 53.97036
1168.920, 54.30729
1169.402, 55.03799
1169.884, 55.45209
1170.366, 55.35065
1170.849, 55.04037
1171.331, 54.38688
1171.813, 54.01500
1172.295, 54.51911
1172.777, 55.28286
1173.259, 55.15212
1173.741, 54.55012
1174.223, 54.32247
1174.706, 55.10901
1175.188, 55.54018
1175.670, 55.54708
1176.152, 55.34394
1176.634, 54.92284
1177.116, 54.48700
1177.598, 54.51031
1178.080, 54.85948
1178.563, 55.12127
1179.045, 55.10836
1179.527, 55.07256
1180.009, 55.01661
1180.491, 54.97975
1180.973, 55.00609
1181.455, 55.07746
1181.937, 55.22534
1182.419, 55.40004
1182.901, 55.36860
1183.384, 54.80304
1183.866, 54.35065
1184.348, 54.10217
1184.830, 54.02247
1185.312, 54.12167
1185.794, 54.34343
1186.276, 54.56088
1186.758, 54.76033
1187.240, 54.90176
1187.723, 54.96510
1188.205, 54.95706
1188.687, 54.85764
1189.169, 54.71909
1189.651, 54.59051
1190.133, 54.49635
1190.615, 54.55369
1191.097, 54.77756
1191.580, 54.94932
1192.062, 55.05223
1192.544, 54.95862
1193.026, 54.52869
1193.508, 53.99010
1193.990, 53.85405
1194.472, 54.03928
1194.954, 54.29766
1195.437, 54.60278
1195.919, 54.81141
1196.401, 54.87424
1196.883, 54.79201
1197.365, 54.49744
1197.847, 54.11361
1198.329, 54.00759
1198.811, 54.12990
1199.293, 54.32545
1199.776, 54.60931
1200.258, 54.71130
1200.740, 54.35022
1201.222, 53.92109
1201.704, 53.55122
1202.186, 53.29722
1202.668, 53.51524
1203.150, 54.07984
1203.633, 54.48806
1204.115, 54.54597
1204.597, 54.53097
1205.079, 54.58859
1205.561, 54.58015
1206.043, 54.37762
1206.525, 54.04783
1207.007, 53.96940
1207.490, 54.09400
1207.972, 54.20994
1208.454, 54.28184
1208.936, 54.23543
1209.418, 53.86491
1209.900, 53.53022
1210.382, 53.50499
1210.864, 53.73053
1211.346, 53.78624
1211.828, 53.71099
1212.311, 53.69586
1212.793, 53.90571
1213.275, 54.07008
1213.757, 54.17236
1214.239, 54.10534
1214.721, 53.61248
1215.203, 52.81867
1215.685, 52.85345
1216.167, 53.55674
1216.650, 54.07177
1217.132, 53.86634
1217.614, 53.53366
1218.096, 53.05882
1218.578, 52.74187
1219.060, 53.02104
1219.542, 53.74914
1220.024, 53.84465
1220.507, 53.39273
1220.989, 52.97572
1221.471, 52.85067
1221.953, 52.84836
1222.435, 52.97250
1222.917, 53.12870
1223.399, 53.26501
1223.881, 53.35483
1224.364, 53.24791
1224.846, 52.95680
1225.328, 52.58729
1225.810, 51.85472
1226.292, 51.54702
1226.774, 52.07212
1227.256, 52.75272
1227.738, 52.70488
1228.220, 52.14519
1228.703, 51.82463
1229.185, 51.76970
1229.667, 51.85029
1230.149, 52.17980
1230.631, 52.39693
1231.113, 52.38628
1231.595, 52.29519
1232.077, 52.34536
1232.560, 52.46071
1233.042, 52.40102
1233.524, 52.17176
1234.006, 51.95787
1234.488, 51.87185
1234.970, 51.74152
1235.452, 51.47109
1235.934, 51.26148
1236.417, 51.51799
1236.899, 51.99926
1237.381, 52.15210
1237.863, 51.95569
1238.345, 51.69452
1238.827, 51.38081
1239.309, 51.11823
1239.791, 50.88025
1240.273, 50.79297
1240.755, 51.18347
1241.238, 51.77649
1241.720, 52.03907
1242.202, 51.94820
1242.684, 51.85805
1243.166, 51.98773
1243.648, 51.76612
1244.130, 50.95823
1244.612, 50.10146
1245.094, 49.92226
1245.577, 50.13317
1246.059, 50.32020
1246.541, 50.45252
1247.023, 50.68789
1247.505, 51.10596
1247.987, 51.45086
1248.469, 51.69436
1248.951, 51.75740
1249.434, 51.40307
1249.916, 50.90054
1250.398, 50.50976
1250.880, 50.27831
1251.362, 50.32410
1251.844, 50.74413
1252.326, 50.99810
1252.808, 50.95723
1253.291, 50.75976
1253.773, 50.44920
1254.255, 50.13936
1254.737, 49.91887
1255.219, 49.80753
1255.701, 49.85620
1256.183, 50.08789
1256.665, 50.28981
1257.147, 50.42009
1257.630, 50.46978
1258.112, 50.43705
1258.594, 50.31392
1259.076, 49.97673
1259.558, 49.53342
1260.040, 49.47548
1260.522, 49.79897
1261.004, 50.22525
1261.487, 50.74247
1261.969, 51.01269
1262.451, 50.22866
1262.933, 49.67064
1263.415, 50.48179
1263.897, 52.09025
1264.379, 52.56959
1264.861, 52.03653
1265.344, 51.21828
1265.826, 50.21916
1266.308, 49.42128
1266.790, 49.15117
1267.272, 49.03761
1267.754, 48.85399
1268.236, 48.71386
1268.718, 48.89431
1269.200, 49.37857
1269.682, 50.20559
1270.165, 51.44696
1270.647, 52.39906
1271.129, 52.86687
1271.611, 52.78338
1272.093, 51.95574
1272.575, 50.79428
1273.057, 49.97051
1273.539, 49.47865
1274.021, 49.44035
1274.504, 49.93197
1274.986, 50.05928
1275.468, 49.42140
1275.950, 48.92240
1276.432, 48.81121
1276.914, 49.00106
1277.396, 49.49283
1277.878, 50.12749
1278.361, 50.77551
1278.843, 51.41888
1279.325, 51.43854
1279.807, 50.66105
1280.289, 49.81853
1280.771, 49.01589
1281.253, 48.51591
1281.735, 49.12150
1282.218, 49.85587
1282.700, 49.31219
1283.182, 47.55991
1283.664, 47.23724
1284.146, 48.49077
1284.628, 49.49803
1285.110, 49.81656
1285.592, 49.77265
1286.074, 49.35109
1286.557, 48.96723
1287.039, 49.02960
1287.521, 49.39726
1288.003, 49.57778
1288.485, 49.57724
1288.967, 49.44416
1289.449, 49.17331
1289.931, 48.91595
1290.414, 48.71543
1290.896, 48.61872
1291.378, 48.64211
1291.860, 48.77312
1292.342, 49.02846
1292.824, 49.36304
1293.306, 49.63005
1293.788, 49.80333
1294.271, 49.92389
1294.753, 50.02387
1295.235, 50.04154
1295.717, 49.95211
1296.199, 49.78240
1296.681, 49.48186
1297.163, 49.17604
1297.645, 49.14410
1298.127, 49.41998
1298.609, 49.59560
1299.092, 49.57534
1299.574, 49.50821
1300.056, 49.31602
1300.538, 49.48130
1301.020, 50.99759
1301.502, 52.92578
1301.984, 54.17535
1302.466, 54.69687
1302.948, 55.33781
1303.431, 56.24360
1303.913, 56.21682
1304.395, 55.06153
##END=



