##NAMES=Vanadinite
##RRUFFID=R050530
##IDEAL CHEMISTRY=Pb^2+^_5_(V^5+^O_4_)_3_Cl
##LOCALITY=Hillsboro, Sierra County, New Mexico, USA
##OWNER=RRUFF
##SOURCE=University of Arizona Mineral Museum
##DESCRIPTION=Yellow hexagonal prisms
##STATUS=The identification of this mineral has been confirmed by X-ray diffraction and chemical analysis
##URL=rruff.info/R050530
##MEASURED CHEMISTRY=Pb_5.00_((V_0.93_As_0.07_)O_4_)_3_Cl_1.00_
92.37695, 4667.617
92.85907, 4555.553
93.34119, 4580.694
93.82330, 4713.138
94.30542, 4826.337
94.78754, 4885.731
95.26965, 4901.937
95.75177, 4876.184
96.23389, 4804.403
96.71600, 4698.714
97.19812, 4571.704
97.68024, 4423.743
98.16235, 4266.036
98.64447, 4110.692
99.12659, 3955.016
99.60870, 3798.701
100.0908, 3648.709
100.5729, 3508.011
101.0551, 3379.175
101.5372, 3262.263
102.0193, 3155.528
102.5014, 3055.949
102.9835, 2962.137
103.4656, 2875.127
103.9478, 2795.298
104.4299, 2721.644
104.9120, 2653.269
105.3941, 2589.445
105.8762, 2529.510
106.3583, 2476.337
106.8405, 2431.080
107.3226, 2389.070
107.8047, 2347.364
108.2868, 2305.801
108.7689, 2266.318
109.2510, 2231.645
109.7332, 2201.921
110.2153, 2174.419
110.6974, 2149.942
111.1795, 2127.217
111.6616, 2104.685
112.1437, 2082.992
112.6259, 2059.631
113.1080, 2031.598
113.5901, 1999.462
114.0722, 1966.126
114.5543, 1933.127
115.0364, 1900.350
115.5185, 1868.558
116.0007, 1837.879
116.4828, 1808.297
116.9649, 1779.312
117.4470, 1751.034
117.9291, 1723.945
118.4112, 1698.109
118.8934, 1672.479
119.3755, 1651.362
119.8576, 1635.707
120.3397, 1623.424
120.8218, 1612.986
121.3039, 1603.762
121.7861, 1596.070
122.2682, 1590.795
122.7503, 1589.820
123.2324, 1589.608
123.7145, 1589.463
124.1966, 1589.999
124.6788, 1592.217
125.1609, 1596.804
125.6430, 1603.532
126.1251, 1610.462
126.6072, 1616.177
127.0893, 1623.349
127.5715, 1633.263
128.0536, 1645.744
128.5357, 1659.564
129.0178, 1673.908
129.4999, 1689.090
129.9821, 1705.866
130.4642, 1725.803
130.9463, 1746.683
131.4284, 1766.354
131.9105, 1784.635
132.3926, 1802.211
132.8748, 1818.461
133.3569, 1834.421
133.8390, 1851.948
134.3211, 1872.187
134.8032, 1894.635
135.2853, 1918.017
135.7674, 1942.940
136.2496, 1968.021
136.7317, 1992.435
137.2138, 2016.390
137.6959, 2040.250
138.1780, 2064.936
138.6601, 2090.765
139.1423, 2114.095
139.6244, 2132.677
140.1065, 2150.556
140.5886, 2169.876
141.0707, 2190.291
141.5528, 2209.928
142.0350, 2226.437
142.5171, 2238.737
142.9992, 2250.359
143.4813, 2263.134
143.9634, 2274.157
144.4455, 2281.268
144.9277, 2283.983
145.4098, 2283.874
145.8919, 2283.456
146.3740, 2283.463
146.8561, 2281.489
147.3382, 2277.069
147.8204, 2270.716
148.3025, 2263.203
148.7846, 2254.882
149.2667, 2245.138
149.7488, 2232.038
150.2309, 2215.200
150.7131, 2197.626
151.1952, 2180.186
151.6773, 2162.825
152.1594, 2145.813
152.6415, 2129.758
153.1236, 2113.427
153.6058, 2094.728
154.0879, 2072.896
154.5700, 2051.313
155.0521, 2033.835
155.5342, 2020.797
156.0163, 2005.762
156.4985, 1982.998
156.9806, 1958.970
157.4627, 1939.154
157.9448, 1925.169
158.4269, 1914.176
158.9090, 1901.891
159.3912, 1887.616
159.8733, 1873.876
160.3554, 1860.426
160.8375, 1848.074
161.3196, 1837.785
161.8017, 1830.114
162.2839, 1824.221
162.7660, 1817.624
163.2481, 1809.003
163.7302, 1801.474
164.2123, 1795.951
164.6944, 1791.569
165.1766, 1787.278
165.6587, 1782.438
166.1408, 1777.235
166.6229, 1772.762
167.1050, 1768.484
167.5871, 1765.505
168.0693, 1764.723
168.5514, 1765.426
169.0335, 1766.266
169.5156, 1766.359
169.9977, 1765.771
170.4798, 1765.532
170.9620, 1766.647
171.4441, 1767.115
171.9262, 1765.816
172.4083, 1762.965
172.8904, 1759.639
173.3725, 1756.583
173.8547, 1753.739
174.3368, 1750.551
174.8189, 1747.072
175.3010, 1743.199
175.7831, 1739.039
176.2652, 1734.603
176.7474, 1729.307
177.2295, 1722.403
177.7116, 1714.250
178.1937, 1705.869
178.6758, 1697.432
179.1579, 1688.871
179.6401, 1680.208
180.1222, 1671.765
180.6043, 1662.304
181.0864, 1650.665
181.5685, 1637.608
182.0506, 1624.310
182.5328, 1611.204
183.0149, 1598.271
183.4970, 1585.321
183.9791, 1572.324
184.4612, 1559.438
184.9433, 1547.066
185.4255, 1534.853
185.9076, 1522.082
186.3897, 1508.282
186.8718, 1493.504
187.3539, 1478.627
187.8360, 1463.505
188.3182, 1448.371
188.8003, 1433.603
189.2824, 1418.897
189.7645, 1403.625
190.2466, 1387.332
190.7287, 1369.911
191.2109, 1352.439
191.6930, 1335.385
192.1751, 1317.713
192.6572, 1298.602
193.1393, 1278.553
193.6214, 1258.784
194.1036, 1240.683
194.5857, 1224.624
195.0678, 1206.411
195.5499, 1184.149
196.0320, 1161.944
196.5141, 1141.854
196.9963, 1123.789
197.4784, 1106.228
197.9605, 1087.838
198.4426, 1068.439
198.9247, 1049.835
199.4068, 1031.781
199.8890, 1014.608
200.3711, 998.7699
200.8532, 984.1916
201.3353, 970.1808
201.8174, 956.0604
202.2995, 941.8197
202.7817, 927.8666
203.2638, 913.9166
203.7459, 900.4211
204.2280, 887.6772
204.7101, 875.6519
205.1922, 864.6556
205.6744, 855.4719
206.1565, 847.6998
206.6386, 839.5798
207.1207, 830.5667
207.6028, 821.0982
208.0849, 811.6656
208.5671, 802.1794
209.0492, 793.0436
209.5313, 784.6406
210.0134, 776.8019
210.4955, 769.3076
210.9776, 761.5628
211.4598, 754.1448
211.9419, 748.5289
212.4240, 745.4669
212.9061, 742.7613
213.3882, 739.3528
213.8703, 735.3395
214.3525, 730.8017
214.8346, 725.5608
215.3167, 719.8275
215.7988, 714.4760
216.2809, 709.6376
216.7630, 704.9841
217.2451, 700.1151
217.7273, 695.3143
218.2094, 691.0914
218.6915, 687.8995
219.1736, 685.5420
219.6557, 682.9089
220.1378, 680.1953
220.6200, 676.8874
221.1021, 672.0188
221.5842, 666.5926
222.0663, 662.2736
222.5484, 660.3924
223.0305, 660.6146
223.5127, 659.6930
223.9948, 656.5276
224.4769, 653.2809
224.9590, 650.2233
225.4411, 647.4070
225.9232, 644.8796
226.4054, 642.6872
226.8875, 640.8026
227.3696, 638.7237
227.8517, 636.0130
228.3338, 633.5839
228.8159, 632.1533
229.2981, 631.1151
229.7802, 629.3046
230.2623, 625.8580
230.7444, 621.0014
231.2265, 617.4133
231.7086, 615.6521
232.1908, 614.4188
232.6729, 613.5731
233.1550, 613.0172
233.6371, 612.6459
234.1192, 612.4139
234.6013, 612.2949
235.0835, 612.0994
235.5656, 612.0765
236.0477, 611.7296
236.5298, 610.6788
237.0119, 609.1837
237.4940, 607.8682
237.9762, 607.1634
238.4583, 606.8162
238.9404, 605.6130
239.4225, 602.4785
239.9046, 599.8417
240.3867, 598.8456
240.8689, 599.0062
241.3510, 599.1098
241.8331, 598.4922
242.3152, 597.5070
242.7973, 597.2770
243.2794, 598.5338
243.7616, 599.2824
244.2437, 598.0845
244.7258, 595.5950
245.2079, 593.8401
245.6900, 593.8224
246.1721, 594.8430
246.6543, 595.4150
247.1364, 595.3974
247.6185, 595.3762
248.1006, 595.6909
248.5827, 596.2550
249.0648, 596.7130
249.5470, 596.7970
250.0291, 596.9216
250.5112, 597.7429
250.9933, 599.3674
251.4754, 600.9594
251.9576, 602.0087
252.4397, 602.6176
252.9218, 603.1702
253.4039, 603.3850
253.8860, 604.1066
254.3681, 606.3626
254.8503, 610.1443
255.3324, 613.9133
255.8145, 616.5892
256.2966, 618.3860
256.7787, 620.3463
257.2608, 622.4813
257.7430, 625.0894
258.2251, 628.5640
258.7072, 632.7673
259.1893, 636.7802
259.6714, 639.6646
260.1535, 641.7147
260.6357, 644.5769
261.1178, 648.3248
261.5999, 653.1423
262.0820, 659.3915
262.5641, 666.7131
263.0462, 674.0071
263.5284, 680.2210
264.0105, 685.6462
264.4926, 692.3143
264.9747, 701.0646
265.4568, 709.8544
265.9389, 717.3215
266.4211, 724.0910
266.9032, 731.3746
267.3853, 739.8358
267.8674, 749.3691
268.3495, 759.6447
268.8316, 770.7754
269.3138, 782.6184
269.7959, 795.2252
270.2780, 808.3568
270.7601, 821.7506
271.2422, 835.3811
271.7243, 849.0621
272.2065, 861.7754
272.6886, 872.1118
273.1707, 883.8445
273.6528, 898.1024
274.1349, 914.0423
274.6170, 930.5225
275.0992, 947.0845
275.5813, 964.0544
276.0634, 982.0169
276.5455, 1000.794
277.0276, 1021.196
277.5097, 1043.613
277.9919, 1067.249
278.4740, 1091.137
278.9561, 1115.051
279.4382, 1139.750
279.9203, 1167.106
280.4024, 1198.094
280.8846, 1229.601
281.3667, 1260.510
281.8488, 1292.137
282.3309, 1325.521
282.8130, 1360.855
283.2951, 1397.263
283.7773, 1433.352
284.2594, 1468.489
284.7415, 1504.962
285.2236, 1544.413
285.7057, 1583.853
286.1878, 1622.331
286.6700, 1659.164
287.1521, 1693.654
287.6342, 1725.360
288.1163, 1754.423
288.5984, 1778.940
289.0805, 1799.429
289.5627, 1815.344
290.0448, 1825.674
290.5269, 1830.887
291.0090, 1832.373
291.4911, 1831.253
291.9732, 1827.475
292.4554, 1821.745
292.9375, 1810.994
293.4196, 1801.352
293.9017, 1794.376
294.3838, 1790.103
294.8659, 1787.967
295.3481, 1787.447
295.8302, 1788.695
296.3123, 1793.829
296.7944, 1803.906
297.2765, 1817.103
297.7586, 1832.106
298.2408, 1850.246
298.7229, 1873.491
299.2050, 1902.861
299.6871, 1937.804
300.1692, 1976.115
300.6513, 2018.012
301.1335, 2063.425
301.6156, 2111.759
302.0977, 2163.414
302.5798, 2219.409
303.0619, 2279.937
303.5440, 2343.903
304.0262, 2409.944
304.5083, 2476.305
304.9904, 2547.413
305.4725, 2624.047
305.9546, 2704.332
306.4367, 2786.335
306.9189, 2869.752
307.4010, 2957.259
307.8831, 3052.781
308.3652, 3158.261
308.8473, 3267.407
309.3294, 3376.109
309.8116, 3491.522
310.2937, 3618.148
310.7758, 3755.973
311.2579, 3901.153
311.7400, 4048.198
312.2221, 4196.824
312.7043, 4358.887
313.1864, 4537.841
313.6685, 4725.204
314.1506, 4920.045
314.6327, 5121.282
315.1148, 5327.989
315.5970, 5538.956
316.0791, 5754.114
316.5612, 5972.095
317.0433, 6207.002
317.5254, 6430.654
318.0075, 6640.471
318.4897, 6833.918
318.9718, 7010.739
319.4539, 7171.300
319.9360, 7310.297
320.4181, 7411.958
320.9002, 7469.620
321.3824, 7490.290
321.8645, 7475.184
322.3466, 7424.046
322.8287, 7331.927
323.3108, 7198.880
323.7929, 7034.695
324.2751, 6856.116
324.7572, 6653.982
325.2393, 6453.045
325.7214, 6247.094
326.2035, 6045.310
326.6856, 5851.405
327.1678, 5666.820
327.6499, 5491.264
328.1320, 5323.749
328.6141, 5164.006
329.0962, 5013.179
329.5783, 4873.425
330.0605, 4738.969
330.5426, 4610.623
331.0247, 4485.574
331.5068, 4359.396
331.9889, 4228.287
332.4710, 4092.681
332.9532, 3960.002
333.4353, 3830.839
333.9174, 3702.964
334.3995, 3574.588
334.8816, 3447.980
335.3637, 3325.804
335.8459, 3210.119
336.3280, 3100.590
336.8101, 2999.472
337.2922, 2907.229
337.7743, 2823.598
338.2564, 2747.435
338.7386, 2679.142
339.2206, 2619.695
339.7028, 2568.963
340.1849, 2526.259
340.6670, 2489.705
341.1491, 2456.510
341.6312, 2437.677
342.1133, 2437.076
342.5955, 2445.499
343.0776, 2458.642
343.5597, 2476.063
344.0418, 2499.142
344.5239, 2528.747
345.0060, 2564.717
345.4882, 2610.013
345.9703, 2667.484
346.4524, 2732.685
346.9345, 2806.286
347.4166, 2886.827
347.8987, 2972.273
348.3809, 3061.006
348.8630, 3153.581
349.3451, 3251.386
349.8272, 3364.440
350.3093, 3468.127
350.7914, 3561.670
351.2736, 3643.254
351.7557, 3712.097
352.2378, 3768.106
352.7199, 3807.394
353.2020, 3823.520
353.6841, 3815.915
354.1663, 3785.625
354.6484, 3725.617
355.1305, 3649.207
355.6126, 3559.698
356.0947, 3459.388
356.5768, 3353.823
357.0590, 3245.204
357.5411, 3133.702
358.0232, 3030.737
358.5053, 2938.162
358.9874, 2853.620
359.4695, 2775.349
359.9517, 2704.131
360.4338, 2642.419
360.9159, 2593.091
361.3980, 2553.346
361.8801, 2514.310
362.3622, 2476.695
362.8444, 2438.622
363.3265, 2402.160
363.8086, 2363.738
364.2907, 2319.890
364.7728, 2269.544
365.2549, 2212.533
365.7371, 2147.300
366.2192, 2072.829
366.7013, 1996.944
367.1834, 1920.531
367.6655, 1843.884
368.1476, 1766.685
368.6298, 1688.841
369.1119, 1612.674
369.5940, 1539.357
370.0761, 1469.049
370.5582, 1403.407
371.0403, 1343.207
371.5225, 1286.812
372.0046, 1232.294
372.4867, 1180.386
372.9688, 1132.568
373.4509, 1090.050
373.9330, 1051.815
374.4152, 1016.768
374.8973, 985.1475
375.3794, 955.8096
375.8615, 928.5118
376.3436, 903.4307
376.8257, 880.8072
377.3079, 861.2295
377.7900, 842.6160
378.2721, 823.1104
378.7542, 803.1595
379.2363, 784.6741
379.7184, 767.9626
380.2006, 753.1772
380.6827, 740.9059
381.1648, 731.0980
381.6469, 721.4367
382.1290, 710.4832
382.6111, 699.4808
383.0933, 690.3802
383.5754, 683.4191
384.0575, 677.2226
384.5396, 670.3378
385.0217, 663.1830
385.5038, 658.0136
385.9860, 656.4130
386.4681, 655.4739
386.9502, 653.0063
387.4323, 649.6204
387.9144, 647.5496
388.3965, 648.0319
388.8787, 650.2175
389.3608, 651.9604
389.8429, 653.1559
390.3250, 654.2569
390.8071, 655.1510
391.2892, 656.0869
391.7714, 657.5119
392.2535, 659.4962
392.7356, 661.4926
393.2177, 662.8974
393.6998, 663.6669
394.1819, 663.7803
394.6641, 663.0240
395.1462, 661.8665
395.6283, 660.6203
396.1104, 659.2091
396.5925, 657.2239
397.0746, 654.2662
397.5568, 650.6871
398.0389, 648.3780
398.5210, 648.7409
399.0031, 648.7393
399.4852, 647.6166
399.9673, 646.1604
400.4495, 645.0164
400.9316, 644.4573
401.4137, 644.7370
401.8958, 646.3731
402.3779, 650.0046
402.8600, 653.2772
403.3422, 654.9755
403.8243, 657.4510
404.3064, 661.9886
404.7885, 668.4063
405.2706, 675.7597
405.7527, 683.2175
406.2349, 690.9694
406.7170, 700.3364
407.1991, 712.6841
407.6812, 724.6691
408.1633, 735.2009
408.6454, 745.1085
409.1276, 755.3340
409.6097, 766.1923
410.0918, 777.3475
410.5739, 788.6990
411.0560, 800.5139
411.5381, 810.8974
412.0203, 819.7775
412.5024, 826.7571
412.9845, 831.9713
413.4666, 835.1664
413.9487, 835.4001
414.4308, 831.5413
414.9130, 824.1290
415.3951, 815.1327
415.8772, 804.5409
416.3593, 792.3578
416.8414, 777.7379
417.3235, 761.7713
417.8057, 745.8058
418.2878, 730.1881
418.7699, 714.5784
419.2520, 698.4758
419.7341, 681.9350
420.2162, 665.4608
420.6984, 649.2756
421.1805, 633.2318
421.6626, 617.5184
422.1447, 602.0561
422.6268, 585.8575
423.1089, 567.1970
423.5911, 548.2031
424.0732, 531.9821
424.5553, 518.9486
425.0374, 506.7338
425.5195, 493.6377
426.0016, 479.8926
426.4838, 467.0221
426.9659, 454.8994
427.4480, 443.7511
427.9301, 433.9439
428.4122, 425.1934
428.8943, 417.1071
429.3765, 409.5552
429.8586, 402.2354
430.3407, 394.5429
430.8228, 385.7566
431.3049, 378.3042
431.7870, 372.8278
432.2692, 368.2588
432.7513, 364.1728
433.2334, 360.3476
433.7155, 356.2710
434.1976, 351.4663
434.6797, 346.0379
435.1619, 341.4093
435.6440, 338.4480
436.1261, 335.2904
436.6082, 331.5588
437.0903, 327.5090
437.5724, 323.2878
438.0546, 318.9931
438.5367, 314.9235
439.0188, 311.6251
439.5009, 309.3600
439.9830, 307.0253
440.4651, 304.6629
440.9473, 302.1410
441.4294, 299.2743
441.9115, 296.1830
442.3936, 293.2086
442.8757, 290.6588
443.3578, 288.3530
443.8400, 285.7123
444.3221, 282.5407
444.8042, 279.4999
445.2863, 276.8203
445.7684, 274.3746
446.2505, 272.0920
446.7327, 269.9579
447.2148, 268.0156
447.6969, 266.5610
448.1790, 265.4375
448.6611, 263.6630
449.1432, 260.8644
449.6254, 257.8429
450.1075, 255.3098
450.5896, 253.1267
451.0717, 250.8583
451.5538, 248.0087
452.0359, 245.3054
452.5181, 243.6767
453.0002, 242.9674
453.4823, 242.1210
453.9644, 240.6566
454.4465, 238.7723
454.9286, 236.8577
455.4108, 234.8624
455.8929, 233.0021
456.3750, 231.4370
456.8571, 229.9737
457.3392, 228.4341
457.8214, 226.7803
458.3035, 224.9479
458.7856, 222.8067
459.2677, 220.3448
459.7498, 218.3828
460.2319, 217.5100
460.7141, 216.3755
461.1962, 214.2742
461.6783, 211.7803
462.1604, 209.7757
462.6425, 208.5856
463.1246, 207.7836
463.6068, 206.6768
464.0889, 205.2711
464.5710, 203.5464
465.0531, 200.9792
465.5352, 198.6021
466.0173, 196.9253
466.4995, 195.8537
466.9816, 195.0778
467.4637, 194.5010
467.9458, 193.9536
468.4279, 192.8042
468.9100, 190.7433
469.3922, 188.8744
469.8743, 187.8157
470.3564, 186.8900
470.8385, 185.3954
471.3206, 183.2449
471.8027, 181.3390
472.2849, 180.6720
472.7670, 180.8655
473.2491, 180.4141
473.7312, 178.9944
474.2133, 177.4747
474.6954, 176.5235
475.1776, 175.9349
475.6597, 175.2612
476.1418, 174.4155
476.6239, 173.4927
477.1060, 172.5399
477.5881, 171.5657
478.0703, 170.5797
478.5524, 169.5998
479.0345, 168.5802
479.5166, 167.3983
479.9987, 165.9353
480.4808, 164.9019
480.9630, 164.6730
481.4451, 164.6093
481.9272, 164.3649
482.4093, 163.9095
482.8914, 163.2854
483.3735, 162.5118
483.8557, 161.5956
484.3378, 160.5464
484.8199, 159.0596
485.3020, 157.8891
485.7841, 157.1760
486.2662, 156.6881
486.7484, 156.4062
487.2305, 156.2198
487.7126, 155.7713
488.1947, 154.5711
488.6768, 152.7113
489.1589, 151.7451
489.6411, 152.4325
490.1232, 152.8102
490.6053, 152.0788
491.0874, 150.8373
491.5695, 149.6852
492.0516, 148.7739
492.5338, 148.1616
493.0159, 148.1474
493.4980, 148.6236
493.9801, 148.5412
494.4622, 147.4999
494.9443, 146.3560
495.4265, 145.8930
495.9086, 145.8979
496.3907, 145.8112
496.8728, 145.5341
497.3549, 145.0845
497.8370, 144.4435
498.3192, 143.6373
498.8013, 142.7151
499.2834, 141.6483
499.7655, 140.6130
500.2476, 139.8955
500.7297, 139.5484
501.2119, 139.3438
501.6940, 139.4761
502.1761, 139.5763
502.6582, 139.3895
503.1403, 138.9346
503.6224, 138.3049
504.1045, 137.5283
504.5866, 136.7095
505.0688, 136.2440
505.5509, 136.5657
506.0330, 136.5520
506.5151, 136.0955
506.9972, 135.3472
507.4793, 134.1241
507.9615, 132.6184
508.4436, 131.5776
508.9257, 131.8982
509.4078, 133.2336
509.8899, 133.3388
510.3720, 131.6223
510.8542, 129.9615
511.3363, 128.9894
511.8184, 128.4517
512.3005, 128.2314
512.7827, 128.3417
513.2648, 128.3735
513.7469, 127.8547
514.2290, 127.0167
514.7111, 126.5946
515.1932, 126.7555
515.6754, 126.9775
516.1575, 126.9352
516.6396, 126.6147
517.1217, 126.0505
517.6038, 124.9926
518.0859, 123.9830
518.5681, 123.1945
519.0502, 122.6349
519.5323, 122.4003
520.0144, 122.5097
520.4965, 122.6789
520.9786, 122.5486
521.4608, 122.0512
521.9429, 121.6637
522.4250, 121.5973
522.9071, 121.3896
523.3892, 120.7328
523.8713, 119.8697
524.3535, 119.2098
524.8356, 118.9216
525.3177, 118.7516
525.7998, 118.2213
526.2819, 117.1955
526.7640, 116.4933
527.2462, 116.3974
527.7283, 116.4055
528.2104, 116.2533
528.6925, 116.0172
529.1746, 115.9221
529.6567, 116.1869
530.1389, 116.4386
530.6210, 116.0180
531.1031, 114.9787
531.5852, 114.3064
532.0673, 114.4338
532.5494, 114.8007
533.0316, 114.7282
533.5137, 114.2514
533.9958, 113.6754
534.4779, 112.9241
534.9600, 112.2100
535.4421, 111.7617
535.9243, 111.5036
536.4064, 111.1045
536.8885, 110.3787
537.3706, 109.5842
537.8527, 109.3106
538.3348, 110.1297
538.8170, 110.3003
539.2991, 109.1072
539.7812, 107.9588
540.2633, 107.9183
540.7454, 108.6312
541.2275, 108.9620
541.7097, 108.1690
542.1918, 106.7192
542.6739, 105.8296
543.1560, 105.6199
543.6381, 105.5804
544.1202, 105.8506
544.6024, 106.0735
545.0845, 105.9011
545.5666, 105.4214
546.0487, 105.1400
546.5308, 105.7032
547.0129, 106.4289
547.4951, 105.9826
547.9772, 104.4032
548.4593, 103.2667
548.9414, 103.3830
549.4235, 104.1103
549.9056, 104.2857
550.3878, 103.8376
550.8699, 103.4398
551.3520, 103.3419
551.8341, 103.2466
552.3162, 102.8554
552.7983, 102.2275
553.2805, 101.6350
553.7626, 101.2327
554.2447, 100.9749
554.7268, 100.7322
555.2089, 100.5433
555.6910, 100.2980
556.1732, 99.95876
556.6553, 99.59808
557.1374, 99.20398
557.6195, 98.82051
558.1016, 98.55703
558.5837, 98.49271
559.0659, 98.57350
559.5480, 98.74760
560.0301, 99.07732
560.5122, 99.09943
560.9943, 98.42488
561.4764, 97.63503
561.9586, 97.37691
562.4407, 97.61082
562.9228, 97.68754
563.4049, 97.17545
563.8870, 96.52316
564.3691, 96.25156
564.8513, 96.30379
565.3334, 96.29189
565.8155, 96.02502
566.2976, 95.64961
566.7797, 95.44408
567.2618, 95.49948
567.7440, 95.52843
568.2261, 95.40357
568.7082, 95.36885
569.1903, 95.62830
569.6724, 96.09048
570.1545, 96.58768
570.6367, 97.04485
571.1188, 97.33153
571.6009, 97.04021
572.0830, 95.88807
572.5651, 95.24684
573.0472, 95.82718
573.5294, 96.39715
574.0115, 96.21268
574.4936, 95.47723
574.9757, 94.78223
575.4578, 94.26474
575.9399, 94.03482
576.4221, 94.37955
576.9042, 95.18877
577.3863, 95.86190
577.8684, 96.25201
578.3505, 96.37498
578.8326, 96.14870
579.3148, 95.53589
579.7969, 95.21938
580.2790, 95.48689
580.7611, 95.77437
581.2432, 95.77321
581.7253, 95.61797
582.2075, 95.54792
582.6896, 95.64597
583.1717, 95.82708
583.6538, 95.96279
584.1359, 96.02869
584.6180, 96.22755
585.1002, 96.72080
585.5823, 97.15881
586.0643, 97.52561
586.5464, 97.73845
587.0286, 97.60814
587.5107, 97.05161
587.9928, 96.52692
588.4749, 96.60183
588.9570, 97.09212
589.4391, 97.17028
589.9213, 96.62124
590.4034, 96.28182
590.8855, 96.90325
591.3676, 98.16586
591.8497, 98.83327
592.3318, 98.57613
592.8140, 98.30781
593.2961, 98.29134
593.7782, 98.42385
594.2603, 98.61355
594.7424, 98.83653
595.2245, 99.08705
595.7067, 99.36255
596.1888, 99.65646
596.6709, 99.93255
597.1530, 100.2257
597.6351, 100.4395
598.1172, 100.4090
598.5994, 100.4234
599.0815, 100.8535
599.5636, 101.5903
600.0457, 102.0224
600.5278, 101.3809
601.0099, 100.4360
601.4921, 100.9488
601.9742, 102.9445
602.4563, 104.4373
602.9384, 104.5857
603.4205, 104.1402
603.9026, 104.1060
604.3848, 104.4805
604.8669, 104.8916
605.3490, 105.5111
605.8311, 105.9454
606.3132, 105.6877
606.7953, 105.0829
607.2775, 104.9361
607.7596, 105.5552
608.2417, 106.4810
608.7238, 106.9665
609.2059, 106.8697
609.6880, 107.0467
610.1702, 107.8233
610.6523, 108.5061
611.1344, 108.8343
611.6165, 108.9498
612.0986, 108.9965
612.5807, 108.9972
613.0629, 109.1536
613.5450, 109.8623
614.0271, 110.8806
614.5092, 111.3254
614.9913, 111.0293
615.4734, 110.7611
615.9556, 111.0500
616.4377, 111.7306
616.9198, 112.2148
617.4019, 112.4038
617.8840, 112.6114
618.3661, 112.9284
618.8483, 113.2721
619.3304, 113.5894
619.8125, 113.8636
620.2946, 114.0772
620.7767, 114.2164
621.2589, 114.2942
621.7410, 114.3650
622.2231, 114.4842
622.7052, 114.4278
623.1873, 113.9062
623.6694, 113.4394
624.1516, 113.2379
624.6337, 113.3308
625.1158, 113.8078
625.5979, 114.9929
626.0800, 116.1528
626.5621, 116.4508
627.0443, 116.0829
627.5264, 115.6652
628.0085, 115.3222
628.4906, 115.1401
628.9727, 115.2248
629.4548, 115.5773
629.9370, 115.9403
630.4191, 116.4247
630.9012, 116.7780
631.3833, 116.8476
631.8654, 116.8190
632.3475, 116.9071
632.8297, 117.1265
633.3118, 117.3195
633.7939, 117.3596
634.2760, 117.2599
634.7581, 117.0452
635.2402, 116.6738
635.7224, 116.3450
636.2045, 116.0546
636.6866, 115.9010
637.1687, 116.0744
637.6508, 116.5484
638.1329, 116.8217
638.6151, 116.5467
639.0972, 116.1758
639.5793, 116.1322
640.0614, 116.2987
640.5435, 116.3575
641.0256, 116.1965
641.5078, 115.8660
641.9899, 115.3748
642.4720, 114.6459
642.9541, 114.3904
643.4362, 115.2177
643.9183, 115.8173
644.4005, 115.7438
644.8826, 115.3774
645.3647, 115.1586
645.8468, 115.1693
646.3289, 115.1494
646.8110, 114.7291
647.2932, 114.1519
647.7753, 114.1684
648.2574, 114.8264
648.7395, 115.2343
649.2216, 114.9257
649.7037, 114.2393
650.1859, 113.7150
650.6680, 113.3022
651.1501, 113.2484
651.6322, 113.9474
652.1143, 114.6439
652.5964, 114.9092
653.0786, 114.8480
653.5607, 114.6185
654.0428, 114.2997
654.5249, 114.1045
655.0070, 114.4559
655.4891, 115.3896
655.9713, 115.8144
656.4534, 115.3860
656.9355, 115.1168
657.4176, 115.7732
657.8997, 116.7230
658.3818, 117.1656
658.8640, 116.9416
659.3461, 116.8261
659.8282, 117.3490
660.3103, 118.0393
660.7924, 118.2923
661.2745, 118.1868
661.7567, 118.2377
662.2388, 118.7087
662.7209, 119.3813
663.2030, 119.8171
663.6851, 119.8568
664.1672, 120.1873
664.6494, 121.1560
665.1315, 122.0450
665.6136, 122.5315
666.0957, 122.8251
666.5778, 123.2139
667.0599, 123.7785
667.5421, 124.4606
668.0242, 125.2691
668.5063, 126.1462
668.9884, 126.9581
669.4705, 127.6938
669.9526, 128.4213
670.4348, 129.2032
670.9169, 129.9491
671.3990, 130.4198
671.8811, 130.3750
672.3632, 130.6617
672.8453, 131.4191
673.3275, 132.3868
673.8096, 133.7191
674.2917, 135.0762
674.7738, 135.7504
675.2559, 135.4783
675.7380, 135.1950
676.2202, 136.3215
676.7023, 138.6690
677.1844, 140.2381
677.6665, 140.7572
678.1486, 141.1990
678.6307, 142.0912
679.1129, 143.1907
679.5950, 143.9894
680.0771, 144.3874
680.5592, 144.9573
681.0413, 146.0358
681.5234, 147.1611
682.0056, 147.8153
682.4877, 148.2362
682.9698, 149.1179
683.4519, 150.7455
683.9340, 152.5674
684.4161, 153.6715
684.8983, 153.9503
685.3804, 154.7756
685.8625, 156.4735
686.3446, 158.1404
686.8267, 159.2805
687.3088, 160.2293
687.7910, 161.3473
688.2731, 162.6732
688.7552, 164.1247
689.2373, 165.7171
689.7194, 167.3842
690.2015, 168.9359
690.6837, 170.4751
691.1658, 172.4606
691.6479, 175.1054
692.1300, 177.7929
692.6121, 179.5388
693.0942, 180.1065
693.5764, 181.3735
694.0585, 183.9586
694.5406, 186.4150
695.0227, 187.8292
695.5048, 189.2107
695.9869, 191.8779
696.4691, 195.9577
696.9512, 199.8927
697.4333, 202.4451
697.9154, 204.5430
698.3975, 207.3836
698.8796, 210.9274
699.3618, 214.9203
699.8439, 219.2806
700.3260, 223.7581
700.8081, 227.9426
701.2902, 231.7603
701.7723, 235.9961
702.2545, 240.8208
702.7366, 245.8480
703.2187, 250.6173
703.7008, 255.7878
704.1829, 262.1311
704.6650, 269.6212
705.1472, 277.6312
705.6293, 285.8802
706.1114, 294.2243
706.5935, 302.2700
707.0756, 310.0794
707.5577, 318.1944
708.0399, 326.8057
708.5220, 335.6287
709.0041, 344.2684
709.4862, 352.7213
709.9683, 362.1456
710.4504, 372.7749
710.9326, 384.0851
711.4147, 396.5448
711.8968, 409.2788
712.3789, 421.1949
712.8610, 432.5596
713.3431, 444.5139
713.8253, 457.8038
714.3074, 472.0055
714.7895, 486.6050
715.2716, 501.5489
715.7537, 517.3942
716.2358, 534.3878
716.7180, 551.0592
717.2001, 565.9493
717.6822, 579.3084
718.1643, 593.2419
718.6464, 609.5362
719.1285, 623.7529
719.6107, 635.2009
720.0928, 644.6403
720.5749, 652.6651
721.0570, 659.1910
721.5391, 663.9995
722.0212, 667.0734
722.5034, 667.9092
722.9855, 665.4305
723.4676, 659.9540
723.9497, 653.5146
724.4318, 646.3602
724.9139, 637.9742
725.3961, 628.0185
725.8782, 616.6468
726.3603, 604.3956
726.8424, 590.4144
727.3245, 577.4164
727.8066, 565.9473
728.2888, 555.0253
728.7709, 543.8438
729.2530, 532.9139
729.7351, 523.3025
730.2172, 515.3744
730.6993, 508.4442
731.1815, 501.9738
731.6636, 495.9408
732.1457, 490.1223
732.6278, 484.4628
733.1099, 479.8071
733.5920, 476.6882
734.0742, 474.4315
734.5563, 472.0674
735.0384, 469.5665
735.5205, 467.0670
736.0026, 463.5034
736.4847, 461.1871
736.9669, 461.5262
737.4490, 463.2308
737.9311, 464.8294
738.4132, 466.0713
738.8953, 467.6338
739.3774, 470.1157
739.8596, 473.2026
740.3417, 476.2372
740.8238, 479.2413
741.3059, 482.4702
741.7880, 485.9408
742.2701, 489.8049
742.7523, 494.2576
743.2344, 499.2805
743.7165, 504.3638
744.1986, 508.9798
744.6807, 514.3449
745.1628, 520.6734
745.6450, 527.7484
746.1271, 535.4743
746.6092, 543.7582
747.0913, 552.5431
747.5734, 561.7545
748.0555, 571.4122
748.5377, 581.3645
749.0198, 591.6993
749.5019, 602.6125
749.9840, 614.1830
750.4661, 626.1092
750.9482, 638.2919
751.4304, 650.7034
751.9125, 663.3709
752.3946, 675.8555
752.8767, 689.6042
753.3588, 705.2403
753.8409, 721.4169
754.3231, 737.4047
754.8052, 753.6755
755.2873, 771.0594
755.7694, 789.7216
756.2515, 808.7054
756.7336, 826.6458
757.2158, 844.8044
757.6979, 865.7490
758.1800, 889.0496
758.6621, 911.6078
759.1442, 932.3087
759.6263, 952.6364
760.1085, 974.2568
760.5906, 997.0887
761.0727, 1022.547
761.5548, 1052.872
762.0369, 1082.616
762.5190, 1109.776
763.0012, 1137.016
763.4833, 1166.354
763.9654, 1197.654
764.4475, 1229.875
764.9296, 1262.336
765.4117, 1296.021
765.8939, 1332.385
766.3760, 1370.483
766.8581, 1408.338
767.3402, 1445.974
767.8223, 1485.193
768.3044, 1527.307
768.7866, 1571.685
769.2687, 1615.828
769.7508, 1659.338
770.2329, 1704.586
770.7150, 1751.259
771.1971, 1800.528
771.6793, 1853.618
772.1614, 1909.074
772.6435, 1964.639
773.1256, 2019.883
773.6077, 2076.270
774.0898, 2133.858
774.5720, 2192.969
775.0541, 2253.824
775.5362, 2316.301
776.0183, 2380.561
776.5004, 2446.484
776.9825, 2514.221
777.4647, 2584.227
777.9468, 2656.169
778.4289, 2727.193
778.9110, 2797.345
779.3931, 2868.844
779.8752, 2942.419
780.3574, 3016.814
780.8395, 3090.113
781.3216, 3163.202
781.8037, 3237.196
782.2858, 3313.681
782.7679, 3389.411
783.2501, 3461.829
783.7322, 3534.583
784.2143, 3611.981
784.6964, 3692.195
785.1785, 3770.681
785.6606, 3845.819
786.1428, 3917.220
786.6249, 3983.406
787.1070, 4045.472
787.5891, 4109.511
788.0712, 4175.795
788.5533, 4235.794
789.0355, 4284.425
789.5176, 4326.951
789.9997, 4371.692
790.4818, 4420.311
790.9639, 4461.121
791.4460, 4493.924
791.9282, 4519.626
792.4103, 4537.915
792.8924, 4549.669
793.3745, 4554.985
793.8566, 4554.451
794.3387, 4550.085
794.8209, 4541.179
795.3030, 4531.475
795.7851, 4524.549
796.2672, 4519.551
796.7493, 4514.760
797.2314, 4509.881
797.7136, 4504.486
798.1957, 4497.689
798.6778, 4492.482
799.1599, 4496.561
799.6420, 4511.362
800.1241, 4529.477
800.6063, 4550.337
801.0884, 4575.138
801.5705, 4601.705
802.0526, 4633.803
802.5347, 4676.798
803.0168, 4731.447
803.4990, 4791.630
803.9811, 4854.192
804.4632, 4923.061
804.9453, 4999.632
805.4274, 5084.159
805.9095, 5179.194
806.3917, 5283.561
806.8738, 5391.636
807.3559, 5498.583
807.8380, 5606.208
808.3201, 5717.335
808.8022, 5832.546
809.2844, 5951.625
809.7665, 6075.384
810.2486, 6199.150
810.7307, 6316.727
811.2128, 6433.180
811.6949, 6562.464
812.1771, 6710.087
812.6592, 6858.774
813.1413, 7008.951
813.6234, 7158.962
814.1055, 7302.134
814.5876, 7446.407
815.0698, 7602.078
815.5519, 7770.597
816.0340, 7944.216
816.5161, 8118.332
816.9982, 8293.927
817.4803, 8475.006
817.9625, 8657.194
818.4446, 8827.028
818.9267, 8982.705
819.4088, 9136.076
819.8909, 9297.766
820.3730, 9462.582
820.8552, 9611.421
821.3373, 9744.548
821.8194, 9863.903
822.3015, 9972.293
822.7836, 10063.52
823.2657, 10132.51
823.7479, 10181.63
824.2300, 10216.09
824.7121, 10238.86
825.1942, 10236.18
825.6763, 10206.92
826.1584, 10150.04
826.6406, 10062.60
827.1227, 9948.186
827.6048, 9809.809
828.0869, 9649.556
828.5690, 9471.198
829.0511, 9278.957
829.5333, 9070.118
830.0154, 8836.003
830.4975, 8580.003
830.9796, 8317.685
831.4617, 8051.904
831.9438, 7783.632
832.4260, 7512.843
832.9081, 7240.843
833.3902, 6967.654
833.8723, 6689.953
834.3544, 6419.011
834.8365, 6156.355
835.3187, 5900.502
835.8008, 5649.111
836.2829, 5405.261
836.7650, 5171.001
837.2471, 4947.101
837.7292, 4731.304
838.2114, 4520.492
838.6935, 4318.819
839.1756, 4129.717
839.6577, 3950.751
840.1398, 3778.368
840.6219, 3611.878
841.1041, 3454.948
841.5862, 3310.343
842.0683, 3174.472
842.5504, 3042.419
843.0325, 2914.322
843.5146, 2789.941
843.9968, 2669.756
844.4789, 2556.601
844.9610, 2452.905
845.4431, 2356.813
845.9252, 2265.675
846.4073, 2179.844
846.8895, 2096.299
847.3716, 2012.809
847.8537, 1935.019
848.3358, 1865.212
848.8179, 1799.924
849.3000, 1735.775
849.7822, 1672.978
850.2643, 1614.040
850.7464, 1560.329
851.2285, 1509.231
851.7106, 1459.133
852.1927, 1410.889
852.6749, 1365.442
853.1570, 1322.435
853.6391, 1280.969
854.1212, 1240.777
854.6033, 1202.215
855.0854, 1166.154
855.5676, 1132.357
856.0497, 1100.167
856.5318, 1069.539
857.0139, 1039.957
857.4960, 1011.320
857.9781, 983.4919
858.4603, 956.1917
858.9424, 929.5730
859.4245, 904.9131
859.9066, 883.1260
860.3887, 861.7916
860.8708, 840.1875
861.3530, 819.3831
861.8351, 800.0205
862.3172, 781.8036
862.7993, 764.2117
863.2814, 747.0480
863.7635, 730.5624
864.2457, 714.7911
864.7278, 699.6672
865.2099, 685.4493
865.6920, 671.7532
866.1741, 658.0602
866.6563, 644.2940
867.1384, 631.2307
867.6205, 619.7109
868.1026, 608.7647
868.5847, 596.1300
869.0668, 582.2455
869.5490, 569.7842
870.0311, 559.1270
870.5132, 549.8221
870.9953, 541.8004
871.4774, 534.2131
871.9595, 525.2872
872.4417, 514.7023
872.9238, 504.4378
873.4059, 494.5928
873.8880, 484.8251
874.3701, 474.3058
874.8522, 464.4218
875.3344, 456.8297
875.8165, 451.1372
876.2986, 444.9090
876.7807, 437.4651
877.2628, 429.7766
877.7449, 421.6331
878.2271, 413.8786
878.7092, 407.5836
879.1913, 402.3097
879.6734, 397.0081
880.1555, 391.3246
880.6376, 385.4910
881.1198, 379.6866
881.6019, 373.9690
882.0840, 368.4300
882.5661, 363.0728
883.0482, 357.9384
883.5303, 353.0322
884.0125, 348.2076
884.4946, 343.3495
884.9767, 338.4604
885.4588, 333.5299
885.9409, 328.5220
886.4230, 323.5836
886.9052, 318.5407
887.3873, 313.9708
887.8694, 310.3481
888.3515, 307.1758
888.8336, 303.5628
889.3157, 299.4253
889.7979, 295.5276
890.2800, 292.1612
890.7621, 288.6580
891.2442, 284.5167
891.7263, 280.4254
892.2084, 277.2494
892.6906, 274.6541
893.1727, 271.5038
893.6548, 267.2075
894.1369, 262.9649
894.6190, 259.5384
895.1011, 256.6296
895.5833, 254.2079
896.0654, 251.9916
896.5475, 249.2249
897.0296, 245.7641
897.5117, 242.4860
897.9938, 240.3640
898.4760, 238.8582
898.9581, 236.3601
899.4402, 232.9973
899.9223, 230.3956
900.4044, 228.8898
900.8865, 227.4711
901.3687, 225.5413
901.8508, 223.2013
902.3329, 220.6601
902.8150, 217.8927
903.2971, 214.9495
903.7792, 211.3602
904.2614, 208.4151
904.7435, 207.0110
905.2256, 205.9867
905.7077, 204.1879
906.1898, 201.7995
906.6719, 199.9071
907.1541, 199.0086
907.6362, 198.0441
908.1183, 196.9179
908.6004, 195.4956
909.0825, 193.6004
909.5646, 191.3825
910.0468, 188.8945
910.5289, 186.2123
911.0110, 184.0092
911.4931, 183.2701
911.9752, 182.7827
912.4573, 181.1009
912.9395, 178.6933
913.4216, 176.3777
913.9037, 174.3661
914.3858, 172.8089
914.8679, 171.8360
915.3500, 171.0504
915.8321, 169.6751
916.3142, 167.8345
916.7963, 166.6118
917.2784, 166.0864
917.7606, 165.1047
918.2427, 163.1396
918.7248, 161.1162
919.2069, 160.1270
919.6890, 159.9550
920.1711, 158.8159
920.6533, 156.1296
921.1354, 153.8677
921.6175, 152.4114
922.0996, 151.1116
922.5817, 149.5802
923.0638, 148.0154
923.5460, 146.7779
924.0281, 145.9373
924.5102, 144.8621
924.9923, 143.1279
925.4744, 141.5647
925.9565, 140.6506
926.4387, 139.8885
926.9208, 138.8343
927.4029, 137.5120
927.8850, 136.1396
928.3671, 134.7560
928.8492, 133.5074
929.3314, 132.6522
929.8135, 131.8584
930.2956, 130.5944
930.7777, 129.1238
931.2598, 128.1445
931.7419, 127.7471
932.2241, 127.3381
932.7062, 126.4593
933.1883, 125.2746
933.6704, 124.0121
934.1525, 122.7029
934.6346, 121.4897
935.1168, 120.3850
935.5989, 119.1844
936.0810, 117.7547
936.5631, 116.5445
937.0452, 116.2886
937.5273, 116.8925
938.0095, 116.7128
938.4916, 115.5053
938.9737, 114.5450
939.4558, 114.2204
939.9379, 113.8610
940.4200, 113.0219
940.9022, 111.7958
941.3843, 110.3352
941.8664, 108.3003
942.3485, 107.0701
942.8306, 107.5063
943.3127, 107.6099
943.7949, 106.4322
944.2770, 105.0347
944.7591, 104.4972
945.2412, 104.6245
945.7233, 104.3835
946.2054, 103.3618
946.6876, 102.3615
947.1697, 101.6581
947.6518, 101.0929
948.1339, 100.6506
948.6160, 100.2228
949.0981, 99.59895
949.5803, 98.78074
950.0624, 98.08418
950.5445, 97.79685
951.0266, 97.56613
951.5087, 97.07723
951.9908, 96.37984
952.4730, 95.50133
952.9551, 94.49102
953.4372, 93.39881
953.9193, 92.26255
954.4014, 91.39251
954.8835, 91.32628
955.3657, 91.70945
955.8478, 91.44534
956.3299, 90.63091
956.8120, 90.01714
957.2941, 89.75256
957.7762, 89.37551
958.2584, 88.55310
958.7405, 87.56128
959.2226, 86.98386
959.7047, 86.85341
960.1868, 86.55758
960.6689, 86.01556
961.1511, 85.68696
961.6332, 85.90530
962.1153, 85.92197
962.5974, 84.88509
963.0795, 83.13151
963.5616, 82.16057
964.0438, 82.46214
964.5259, 82.48836
965.0080, 82.02393
965.4901, 81.56143
965.9722, 81.39641
966.4543, 81.22563
966.9365, 80.68773
967.4186, 79.81627
967.9007, 79.01646
968.3828, 78.16045
968.8649, 77.64309
969.3470, 77.94775
969.8292, 78.21931
970.3113, 77.85957
970.7934, 77.12008
971.2755, 76.38613
971.7576, 75.74313
972.2397, 75.19440
972.7219, 74.82362
973.2040, 74.45701
973.6861, 74.01381
974.1682, 73.48994
974.6503, 72.73754
975.1324, 71.91914
975.6146, 71.49780
976.0967, 71.62465
976.5788, 71.78162
977.0609, 71.45274
977.5430, 70.93967
978.0251, 70.74229
978.5073, 70.67559
978.9894, 70.20804
979.4715, 69.34879
979.9536, 68.62217
980.4357, 68.31276
980.9178, 68.26028
981.4000, 68.32371
981.8821, 68.44927
982.3642, 68.46751
982.8463, 68.36658
983.3284, 67.98817
983.8105, 67.29170
984.2927, 66.57948
984.7748, 66.06107
985.2569, 65.73186
985.7390, 65.63874
986.2211, 65.80247
986.7032, 65.74789
987.1854, 65.41361
987.6675, 65.19074
988.1496, 65.23333
988.6317, 65.33483
989.1138, 65.32926
989.5959, 65.20591
990.0781, 64.89477
990.5602, 64.28117
991.0423, 63.80277
991.5244, 63.42755
992.0065, 63.27907
992.4886, 63.61386
992.9708, 63.98488
993.4529, 63.86425
993.9350, 63.29265
994.4171, 62.75169
994.8992, 61.98997
995.3813, 61.64974
995.8635, 62.26383
996.3456, 62.71919
996.8277, 62.24059
997.3098, 61.50493
997.7919, 61.43581
998.2740, 62.03450
998.7562, 62.41587
999.2383, 62.22097
999.7204, 62.05527
1000.203, 62.20550
1000.685, 62.30767
1001.167, 62.02748
1001.649, 61.56703
1002.131, 61.29329
1002.613, 61.25328
1003.095, 61.14968
1003.577, 60.74394
1004.059, 60.37326
1004.542, 60.18709
1005.024, 60.15477
1005.506, 60.35448
1005.988, 60.65425
1006.470, 60.79874
1006.952, 60.71680
1007.434, 60.52671
1007.916, 60.15176
1008.398, 59.86556
1008.881, 60.05761
1009.363, 60.43409
1009.845, 60.53616
1010.327, 60.40350
1010.809, 60.36082
1011.291, 60.53040
1011.773, 60.70063
1012.255, 60.54976
1012.738, 60.37751
1013.220, 60.83718
1013.702, 61.60608
1014.184, 61.83643
1014.666, 61.51322
1015.148, 61.21444
1015.630, 61.22211
1016.112, 61.33056
1016.594, 61.30957
1017.077, 61.18912
1017.559, 60.94363
1018.041, 60.65261
1018.523, 60.82507
1019.005, 61.49560
1019.487, 61.97162
1019.969, 61.84673
1020.451, 61.53247
1020.934, 61.70967
1021.416, 62.25005
1021.898, 62.28813
1022.380, 61.84842
1022.862, 61.91511
1023.344, 62.71912
1023.826, 63.33733
1024.308, 63.15569
1024.791, 62.61290
1025.273, 62.47773
1025.755, 62.74214
1026.237, 63.15205
1026.719, 63.72775
1027.201, 64.30070
1027.683, 64.84959
1028.165, 65.32546
1028.647, 65.68630
1029.130, 65.97128
1029.612, 66.26250
1030.094, 66.56844
1030.576, 66.78482
1031.058, 66.92652
1031.540, 66.89005
1032.022, 66.50957
1032.504, 66.29737
1032.986, 66.75002
1033.469, 67.47023
1033.951, 67.47472
1034.433, 66.52940
1034.915, 66.34862
1035.397, 67.33271
1035.879, 68.21542
1036.361, 68.67245
1036.843, 69.06680
1037.326, 69.77244
1037.808, 70.53275
1038.290, 70.68142
1038.772, 70.00044
1039.254, 69.69282
1039.736, 69.95920
1040.218, 70.28744
1040.700, 70.74905
1041.182, 71.06314
1041.665, 70.89026
1042.147, 70.46194
1042.629, 70.32947
1043.111, 70.56534
1043.593, 70.77296
1044.075, 70.90288
1044.557, 71.05997
1045.039, 71.37424
1045.521, 71.61633
1046.004, 71.59058
1046.486, 71.38899
1046.968, 71.18701
1047.450, 70.97280
1047.932, 70.89857
1048.414, 70.94366
1048.896, 71.18055
1049.378, 71.89208
1049.861, 72.54875
1050.343, 72.71151
1050.825, 72.56594
1051.307, 72.49051
1051.789, 72.52795
1052.271, 72.63952
1052.753, 72.87130
1053.235, 73.10322
1053.718, 73.46196
1054.200, 73.64820
1054.682, 73.12517
1055.164, 72.38152
1055.646, 72.47002
1056.128, 73.59684
1056.610, 74.39396
1057.092, 74.26919
1057.574, 74.06711
1058.057, 73.96959
1058.539, 74.01449
1059.021, 74.46499
1059.503, 74.97891
1059.985, 74.82999
1060.467, 73.91228
1060.949, 73.31152
1061.431, 73.54055
1061.913, 73.93344
1062.396, 74.33081
1062.878, 74.70025
1063.360, 74.96938
1063.842, 75.21616
1064.324, 75.67410
1064.806, 76.33778
1065.288, 76.63006
1065.770, 75.83764
1066.253, 75.31429
1066.735, 75.87364
1067.217, 76.65921
1067.699, 77.18449
1068.181, 77.40190
1068.663, 77.11775
1069.145, 76.42928
1069.627, 76.25566
1070.109, 77.34207
1070.592, 78.32404
1071.074, 78.39425
1071.556, 78.32724
1072.038, 78.76653
1072.520, 79.42042
1073.002, 79.72703
1073.484, 79.70228
1073.966, 79.98609
1074.448, 81.04760
1074.931, 81.92281
1075.413, 81.94004
1075.895, 81.82738
1076.377, 82.10878
1076.859, 82.58829
1077.341, 82.18600
1077.823, 81.53781
1078.305, 84.04174
1078.788, 92.51783
1079.270, 98.85011
1079.752, 98.24168
1080.234, 95.23235
1080.716, 91.44398
1081.198, 88.02615
1081.680, 86.21798
1082.162, 85.83221
1082.644, 85.78741
1083.127, 85.82643
1083.609, 85.83283
1084.091, 85.69756
1084.573, 85.58060
1085.055, 85.53947
1085.537, 85.59848
1086.019, 85.96617
1086.501, 86.42078
1086.984, 86.29430
1087.466, 85.33700
1087.948, 84.69514
1088.430, 85.18653
1088.912, 85.69642
1089.394, 85.39024
1089.876, 85.06020
1090.358, 85.78757
1090.840, 86.96815
1091.323, 87.20077
1091.805, 86.19892
1092.287, 85.13818
1092.769, 84.03929
1093.251, 83.52355
1093.733, 84.44939
1094.215, 85.47231
1094.697, 85.37764
1095.179, 84.72367
1095.662, 84.60752
1096.144, 85.12204
1096.626, 85.32774
1097.108, 84.75489
1097.590, 84.11158
1098.072, 83.48927
1098.554, 83.01838
1099.036, 82.90645
1099.519, 82.91611
1100.001, 82.68566
1100.483, 82.25056
1100.965, 82.02814
1101.447, 82.27951
1101.929, 82.38313
1102.411, 82.10908
1102.893, 81.73837
1103.375, 81.39875
1103.858, 81.03024
1104.340, 80.44213
1104.822, 79.76527
1105.304, 79.47633
1105.786, 79.76506
1106.268, 79.99956
1106.750, 80.16216
1107.232, 80.12946
1107.714, 79.52572
1108.197, 79.02303
1108.679, 79.42433
1109.161, 80.25151
1109.643, 80.27848
1110.125, 79.22597
1110.607, 78.72570
1111.089, 79.62754
1111.571, 80.08150
1112.054, 79.29735
1112.536, 78.45980
1113.018, 78.14928
1113.500, 78.25065
1113.982, 78.77065
1114.464, 79.72155
1114.946, 79.95860
1115.428, 78.74940
1115.911, 78.05505
1116.393, 78.39259
1116.875, 78.67282
1117.357, 78.33558
1117.839, 77.85586
1118.321, 77.74948
1118.803, 77.95793
1119.285, 78.14756
1119.767, 78.38755
1120.250, 78.41573
1120.732, 78.04432
1121.214, 77.85387
1121.696, 78.07938
1122.178, 78.43274
1122.660, 78.72810
1123.142, 78.93906
1123.624, 78.97581
1124.106, 78.80572
1124.589, 78.70555
1125.071, 78.66973
1125.553, 78.74960
1126.035, 79.02307
1126.517, 79.19573
1126.999, 79.07500
1127.481, 78.79358
1127.963, 78.55415
1128.446, 78.35228
1128.928, 78.10774
1129.410, 77.79121
1129.892, 77.74618
1130.374, 78.05608
1130.856, 78.25893
1131.338, 78.14244
1131.820, 77.96611
1132.302, 78.01184
1132.785, 78.20037
1133.267, 78.32430
1133.749, 78.37625
1134.231, 78.16409
1134.713, 77.69164
1135.195, 77.35149
1135.677, 77.25265
1136.159, 77.22099
1136.641, 77.10680
1137.124, 77.14359
1137.606, 78.02223
1138.088, 79.34317
1138.570, 79.41772
1139.052, 78.51961
1139.534, 77.94415
1140.016, 77.86443
1140.498, 77.81833
1140.981, 77.58677
1141.463, 77.30164
1141.945, 77.18864
1142.427, 77.00259
1142.909, 75.99193
1143.391, 74.71687
1143.873, 74.61437
1144.355, 75.39674
1144.838, 75.74373
1145.320, 75.33696
1145.802, 74.91650
1146.284, 75.00156
1146.766, 75.17441
1147.248, 75.03362
1147.730, 74.72395
1148.212, 74.34406
1148.694, 73.96314
1149.177, 73.68262
1149.659, 73.49712
1150.141, 73.29334
1150.623, 73.00478
1151.105, 72.91175
1151.587, 73.58204
1152.069, 74.04038
1152.551, 73.28915
1153.033, 72.26807
1153.516, 71.90086
1153.998, 72.05666
1154.480, 72.39616
1154.962, 72.82401
1155.444, 72.98440
1155.926, 72.65361
1156.408, 72.19315
1156.890, 71.56068
1157.373, 71.00243
1157.855, 70.63126
1158.337, 70.42780
1158.819, 70.32642
1159.301, 70.35543
1159.783, 70.71884
1160.265, 71.81194
1160.747, 72.22262
1161.229, 71.27882
1161.712, 70.47369
1162.194, 70.17733
1162.676, 70.05711
1163.158, 69.89388
1163.640, 69.77106
1164.122, 69.89955
1164.604, 70.29748
1165.086, 70.26287
1165.568, 69.49483
1166.051, 69.26398
1166.533, 69.90347
1167.015, 70.45359
1167.497, 70.53256
1167.979, 70.30907
1168.461, 69.90794
1168.943, 69.41066
1169.425, 69.00504
1169.908, 68.68321
1170.390, 68.98460
1170.872, 69.93806
1171.354, 70.49560
1171.836, 70.40691
1172.318, 70.24700
1172.800, 70.31904
1173.282, 71.05497
1173.765, 73.73579
1174.247, 77.01876
1174.729, 76.24034
1175.211, 72.62897
1175.693, 70.40424
1176.175, 69.85368
1176.657, 69.98521
1177.139, 70.38242
1177.621, 70.60702
1178.104, 70.24960
1178.586, 69.88455
1179.068, 70.39816
1179.550, 71.16257
1180.032, 71.38103
1180.514, 71.15800
1180.996, 70.51537
1181.478, 69.71014
1181.960, 69.51941
1182.443, 70.24882
1182.925, 70.93613
1183.407, 70.94485
1183.889, 70.82832
1184.371, 70.95177
1184.853, 71.06968
1185.335, 70.78665
1185.817, 70.44025
1186.300, 70.73203
1186.782, 71.61897
1187.264, 72.09505
1187.746, 71.78531
1188.228, 71.41364
1188.710, 70.96909
1189.192, 70.65567
1189.674, 70.63435
1190.156, 70.68832
1190.639, 70.54882
1191.121, 70.40675
1191.603, 70.75017
1192.085, 71.64617
1192.567, 72.09767
1193.049, 71.91946
1193.531, 71.85036
1194.013, 72.04965
1194.495, 72.10429
1194.978, 71.80871
1195.460, 71.38840
1195.942, 71.04105
1196.424, 70.81151
1196.906, 70.87621
1197.388, 71.21917
1197.870, 71.56248
1198.352, 71.88283
1198.835, 71.78887
1199.317, 71.24566
1199.799, 70.97247
1200.281, 71.35247
1200.763, 71.88482
1201.245, 71.98318
1201.727, 71.87466
1202.209, 72.03898
1202.692, 72.27644
1203.174, 72.12280
1203.656, 71.67932
1204.138, 71.20513
1204.620, 70.83128
1205.102, 70.86692
1205.584, 71.57568
1206.066, 72.14489
1206.548, 71.76035
1207.031, 71.26346
1207.513, 71.29898
1207.995, 71.56523
1208.477, 71.79652
1208.959, 71.95472
1209.441, 72.02280
1209.923, 72.00263
1210.405, 71.98442
1210.887, 71.87761
1211.370, 71.95012
1211.852, 72.47616
1212.334, 72.89696
1212.816, 72.89759
1213.298, 72.78489
1213.780, 72.83939
1214.262, 72.95352
1214.744, 72.83291
1215.227, 72.44215
1215.709, 72.20855
1216.191, 72.17668
1216.673, 72.11160
1217.155, 71.97820
1217.637, 71.81419
1218.119, 71.61951
1218.601, 71.49952
1219.083, 71.55300
1219.566, 71.78600
1220.048, 72.33584
1220.530, 73.07523
1221.012, 73.37449
1221.494, 73.29855
1221.976, 73.22234
1222.458, 73.20894
1222.940, 73.11870
1223.422, 72.89745
1223.905, 72.80948
1224.387, 73.21445
1224.869, 73.66283
1225.351, 73.43571
1225.833, 73.17493
1226.315, 73.84664
1226.797, 74.94617
1227.279, 75.58326
1227.762, 75.70890
1228.244, 75.78783
1228.726, 75.99184
1229.208, 75.94918
1229.690, 75.17838
1230.172, 74.63428
1230.654, 74.77546
1231.136, 75.11799
1231.619, 75.29421
1232.101, 75.52470
1232.583, 76.27248
1233.065, 77.38354
1233.547, 77.81921
1234.029, 77.29476
1234.511, 77.03987
1234.993, 77.04720
1235.475, 77.42241
1235.958, 78.29665
1236.440, 79.00032
1236.922, 79.11362
1237.404, 79.04622
1237.886, 79.39200
1238.368, 79.92923
1238.850, 79.78591
1239.332, 79.23811
1239.814, 79.51590
1240.297, 80.49987
1240.779, 81.43609
1241.261, 82.09660
1241.743, 82.35181
1242.225, 82.11075
1242.707, 81.87639
1243.189, 82.16335
1243.671, 82.57865
1244.154, 82.68030
1244.636, 82.79953
1245.118, 83.34396
1245.600, 84.14735
1246.082, 84.96230
1246.564, 85.71424
1247.046, 86.25974
1247.528, 86.57533
1248.010, 86.65079
1248.493, 86.00698
1248.975, 85.82133
1249.457, 86.80078
1249.939, 87.74337
1250.421, 87.88380
1250.903, 87.73927
1251.385, 87.95222
1251.867, 88.51480
1252.349, 89.52591
1252.832, 91.07979
1253.314, 91.69428
1253.796, 91.29405
1254.278, 91.27457
1254.760, 91.94011
1255.242, 92.63316
1255.724, 92.99649
1256.206, 93.24371
1256.689, 93.57899
1257.171, 93.99897
1257.653, 94.59850
1258.135, 95.21226
1258.617, 95.31290
1259.099, 95.29763
1259.581, 96.21428
1260.063, 97.90984
1260.546, 99.08692
1261.028, 99.24117
1261.510, 99.47935
1261.992, 100.5535
1262.474, 101.4454
1262.956, 101.4741
1263.438, 101.5045
1263.920, 102.1074
1264.402, 102.9893
1264.885, 103.8492
1265.367, 104.6604
1265.849, 105.3294
1266.331, 105.8412
1266.813, 106.2971
1267.295, 106.6656
1267.777, 107.1317
1268.259, 107.7260
1268.741, 108.4576
1269.224, 109.3486
1269.706, 110.1013
1270.188, 110.3957
1270.670, 110.5308
1271.152, 111.0359
1271.634, 111.8194
1272.116, 112.7868
1272.598, 113.8148
1273.081, 114.5960
1273.563, 115.1763
1274.045, 115.8104
1274.527, 116.5704
1275.009, 117.3322
1275.491, 117.8907
1275.973, 118.7684
1276.455, 120.5838
1276.938, 122.3447
1277.420, 123.4388
1277.902, 124.3014
1278.384, 125.3974
1278.866, 126.5326
1279.348, 127.3065
1279.830, 127.7223
1280.312, 127.7798
1280.794, 127.1487
1281.276, 127.5688
1281.759, 129.3064
1282.241, 130.9150
1282.723, 132.0022
1283.205, 133.2091
1283.687, 134.9719
1284.169, 136.5895
1284.651, 136.9541
1285.133, 136.8906
1285.616, 137.7910
1286.098, 139.6471
##END=



