##NAMES=Vandenbrandeite
##RRUFFID=R080114
##IDEAL CHEMISTRY=Cu^2+^U^6+^O_2_(OH)_4_
##LOCALITY=Shinkolobwe Mine, Shaba, Democratic Republic of Congo
##OWNER=RRUFF
##SOURCE=William W. Pinch
##DESCRIPTION=Dark blackish green crystals
##STATUS=The identification of this mineral has been confirmed by single-crystal X-ray diffraction.
##URL=rruff.info/R080114
91.87140, 0.0000000E+00
92.35352, 5.797560
92.83563, 5.545777
93.31775, 5.438651
93.79987, 5.480639
94.28198, 5.667988
94.76410, 6.014810
95.24622, 6.578422
95.72833, 7.245001
96.21045, 7.750428
96.69257, 8.089855
97.17468, 8.389072
97.65680, 8.752131
98.13892, 9.179325
98.62103, 9.610964
99.10315, 9.994346
99.58527, 10.35637
100.0674, 10.89341
100.5495, 11.64954
101.0316, 12.47378
101.5137, 13.11823
101.9958, 13.48683
102.4780, 14.03308
102.9601, 14.95110
103.4422, 16.31733
103.9243, 17.51754
104.4064, 18.41445
104.8885, 19.23876
105.3707, 20.43807
105.8528, 22.11034
106.3349, 24.00659
106.8170, 26.01229
107.2991, 28.02018
107.7813, 30.34376
108.2634, 33.04890
108.7455, 36.09240
109.2276, 39.22383
109.7097, 42.66597
110.1918, 46.06333
110.6740, 49.27374
111.1561, 51.89483
111.6382, 54.77675
112.1203, 58.10510
112.6024, 61.82898
113.0845, 65.45010
113.5667, 70.23772
114.0488, 74.14610
114.5309, 75.83770
115.0130, 73.56155
115.4951, 70.36638
115.9772, 66.74647
116.4594, 62.71699
116.9415, 59.09285
117.4236, 56.00346
117.9057, 53.52546
118.3878, 51.74788
118.8699, 50.67997
119.3521, 50.32013
119.8342, 50.79190
120.3163, 52.15150
120.7984, 53.79646
121.2805, 55.50815
121.7626, 57.24755
122.2448, 58.94788
122.7269, 60.74276
123.2090, 62.40377
123.6911, 63.60514
124.1732, 64.20904
124.6553, 64.78712
125.1375, 65.83414
125.6196, 67.28495
126.1017, 68.93333
126.5838, 70.67484
127.0659, 72.53231
127.5480, 74.54761
128.0302, 76.73494
128.5123, 79.09170
128.9944, 81.78586
129.4765, 84.76523
129.9586, 87.54237
130.4407, 89.55526
130.9229, 91.00853
131.4050, 92.75268
131.8871, 94.93566
132.3692, 97.46756
132.8513, 100.1249
133.3334, 102.7428
133.8156, 105.0400
134.2977, 107.1420
134.7798, 109.4091
135.2619, 111.7242
135.7440, 113.9782
136.2261, 116.2413
136.7083, 119.1000
137.1904, 122.6227
137.6725, 126.5266
138.1546, 130.7399
138.6367, 135.4167
139.1188, 139.6589
139.6010, 143.1549
140.0831, 145.8928
140.5652, 148.9652
141.0473, 152.4512
141.5294, 156.1974
142.0115, 159.8324
142.4937, 163.0099
142.9758, 166.9303
143.4579, 172.0113
143.9400, 178.3333
144.4221, 185.2946
144.9042, 193.1871
145.3864, 201.5500
145.8685, 209.5366
146.3506, 217.9684
146.8327, 225.0542
147.3148, 230.5210
147.7969, 235.2159
148.2791, 236.3480
148.7612, 232.7576
149.2433, 225.8047
149.7254, 218.4366
150.2075, 209.5678
150.6896, 201.2780
151.1718, 194.3313
151.6539, 188.2441
152.1360, 184.1200
152.6181, 182.3984
153.1002, 182.6901
153.5823, 183.8546
154.0645, 186.4414
154.5466, 189.4202
155.0287, 192.3259
155.5108, 195.7976
155.9929, 198.4212
156.4750, 200.0735
156.9572, 200.7464
157.4393, 200.3266
157.9214, 198.4830
158.4035, 195.7345
158.8856, 192.4060
159.3677, 187.2943
159.8499, 182.8695
160.3320, 179.6513
160.8141, 177.6343
161.2962, 176.9020
161.7783, 177.8929
162.2604, 180.0015
162.7426, 182.7275
163.2247, 186.1521
163.7068, 189.9571
164.1889, 194.1551
164.6710, 198.6822
165.1531, 203.1927
165.6353, 207.3550
166.1174, 211.4575
166.5995, 215.8104
167.0816, 220.7210
167.5637, 225.7678
168.0458, 230.5627
168.5280, 235.0618
169.0101, 239.9395
169.4922, 245.4964
169.9743, 251.6660
170.4564, 258.3291
170.9385, 265.3896
171.4207, 272.9451
171.9028, 281.2694
172.3849, 290.3619
172.8670, 299.5777
173.3491, 308.4677
173.8312, 317.1876
174.3134, 326.0737
174.7955, 335.2067
175.2776, 344.5314
175.7597, 353.9015
176.2418, 363.3748
176.7239, 372.9726
177.2061, 382.8766
177.6882, 393.1556
178.1703, 403.7851
178.6524, 414.9554
179.1345, 426.5605
179.6166, 438.8014
180.0988, 452.1476
180.5809, 464.3461
181.0630, 474.6564
181.5451, 482.3748
182.0272, 484.2204
182.5093, 478.1150
182.9915, 464.9381
183.4736, 446.3320
183.9557, 421.6934
184.4378, 393.7400
184.9199, 364.1151
185.4020, 333.6355
185.8842, 304.1769
186.3663, 276.4188
186.8484, 250.5398
187.3305, 228.4690
187.8126, 210.3938
188.2947, 195.3808
188.7769, 182.0635
189.2590, 170.4339
189.7411, 160.4565
190.2232, 152.3896
190.7053, 146.0655
191.1874, 140.1647
191.6696, 134.4697
192.1517, 129.2415
192.6338, 124.9595
193.1159, 121.6350
193.5980, 118.8992
194.0801, 116.6091
194.5623, 114.7603
195.0444, 113.2121
195.5265, 112.0018
196.0086, 111.0345
196.4907, 110.0767
196.9728, 109.1030
197.4550, 108.3410
197.9371, 107.8972
198.4192, 107.7698
198.9013, 108.0127
199.3834, 108.6585
199.8655, 109.6411
200.3477, 110.9163
200.8298, 112.5597
201.3119, 114.1406
201.7940, 115.3604
202.2761, 116.1795
202.7582, 117.0751
203.2404, 118.0576
203.7225, 119.1656
204.2046, 120.5603
204.6867, 122.3186
205.1688, 124.1102
205.6509, 125.6429
206.1331, 126.8427
206.6152, 128.3298
207.0973, 130.1931
207.5794, 132.3584
208.0615, 134.6093
208.5436, 136.9470
209.0258, 139.3781
209.5079, 141.8764
209.9900, 144.4113
210.4721, 147.1180
210.9542, 150.0700
211.4363, 153.1776
211.9185, 156.1384
212.4006, 158.9232
212.8827, 161.6443
213.3648, 164.3289
213.8469, 167.0448
214.3290, 169.5770
214.8112, 171.8901
215.2933, 174.0023
215.7754, 175.9933
216.2575, 177.6875
216.7396, 179.5979
217.2217, 182.1399
217.7039, 185.6720
218.1860, 188.7711
218.6681, 191.5345
219.1502, 193.7577
219.6323, 194.6478
220.1144, 194.1834
220.5966, 192.4178
221.0787, 189.3397
221.5608, 184.8345
222.0429, 179.3165
222.5250, 172.5227
223.0071, 164.7672
223.4893, 157.3696
223.9714, 150.0019
224.4535, 143.4037
224.9356, 137.8295
225.4177, 133.1732
225.8998, 129.9309
226.3820, 128.3682
226.8641, 128.1955
227.3462, 128.4669
227.8283, 129.0814
228.3104, 130.2849
228.7925, 132.2499
229.2747, 135.3250
229.7568, 138.4441
230.2389, 141.5853
230.7210, 144.7699
231.2031, 147.9820
231.6852, 151.2767
232.1674, 154.5096
232.6495, 157.5663
233.1316, 160.3320
233.6137, 163.1681
234.0958, 166.0124
234.5779, 168.9140
235.0601, 171.9573
235.5422, 175.1413
236.0243, 178.5213
236.5064, 182.0820
236.9885, 185.5918
237.4706, 189.8098
237.9528, 194.8347
238.4349, 200.4917
238.9170, 206.2922
239.3991, 212.1309
239.8812, 218.2671
240.3633, 224.7446
240.8455, 231.3023
241.3276, 238.7921
241.8097, 246.9232
242.2918, 255.9956
242.7739, 266.6260
243.2560, 279.0352
243.7382, 292.6752
244.2203, 307.6812
244.7024, 325.1191
245.1845, 340.9739
245.6666, 355.4147
246.1487, 368.1615
246.6309, 379.1339
247.1130, 389.1551
247.5951, 396.1068
248.0772, 399.6081
248.5593, 400.4574
249.0414, 394.9326
249.5236, 381.6935
250.0057, 362.9303
250.4878, 341.4049
250.9699, 315.0327
251.4520, 289.4730
251.9341, 266.4559
252.4163, 245.7456
252.8984, 228.1823
253.3805, 214.3361
253.8626, 203.1082
254.3447, 193.1317
254.8268, 183.7758
255.3090, 176.6584
255.7911, 172.6666
256.2732, 172.1286
256.7553, 171.8634
257.2374, 172.4209
257.7195, 172.7031
258.2017, 171.1811
258.6838, 166.9776
259.1659, 162.9256
259.6480, 159.5943
260.1301, 157.0143
260.6122, 155.0685
261.0944, 153.8538
261.5765, 153.1504
262.0586, 152.7206
262.5407, 152.5347
263.0228, 152.7122
263.5049, 153.3274
263.9871, 154.3735
264.4692, 155.4621
264.9513, 156.4514
265.4334, 157.7243
265.9155, 159.7365
266.3976, 162.6388
266.8798, 165.6382
267.3619, 168.5308
267.8440, 171.3843
268.3261, 174.4770
268.8082, 177.6899
269.2903, 181.3718
269.7725, 185.8908
270.2546, 191.3543
270.7367, 196.8627
271.2188, 202.1810
271.7009, 207.4099
272.1830, 213.2056
272.6652, 219.7057
273.1473, 226.2768
273.6294, 232.5280
274.1115, 238.3856
274.5936, 244.3933
275.0757, 250.8296
275.5579, 257.3509
276.0400, 263.1519
276.5221, 268.5421
277.0042, 271.9532
277.4863, 272.4308
277.9684, 269.9146
278.4506, 265.1268
278.9327, 257.7809
279.4148, 248.6164
279.8969, 238.9694
280.3790, 228.7915
280.8611, 218.4949
281.3433, 208.0705
281.8254, 197.4852
282.3075, 187.7711
282.7896, 178.9807
283.2717, 170.8736
283.7538, 162.9351
284.2360, 155.1372
284.7181, 148.2176
285.2002, 142.5978
285.6823, 138.2023
286.1644, 134.4341
286.6465, 131.3891
287.1287, 128.7461
287.6108, 126.0964
288.0929, 123.4543
288.5750, 121.0988
289.0571, 119.1248
289.5392, 117.5122
290.0214, 116.2858
290.5035, 115.4763
290.9856, 114.8284
291.4677, 114.0195
291.9498, 113.1039
292.4319, 112.4338
292.9141, 112.0948
293.3962, 112.0733
293.8783, 112.4002
294.3604, 113.0784
294.8425, 113.9089
295.3246, 114.6957
295.8068, 115.4994
296.2889, 116.5120
296.7710, 117.8340
297.2531, 119.3400
297.7352, 120.7050
298.2173, 121.9673
298.6995, 123.5284
299.1816, 125.8398
299.6637, 128.6410
300.1458, 131.3136
300.6279, 133.7201
301.1100, 136.0749
301.5922, 138.5693
302.0743, 141.2027
302.5564, 143.9662
303.0385, 146.8478
303.5206, 149.8668
304.0027, 153.1980
304.4849, 156.9148
304.9670, 160.5912
305.4491, 163.5551
305.9312, 166.1065
306.4133, 168.9662
306.8954, 172.5845
307.3776, 176.6462
307.8597, 180.8044
308.3418, 185.0752
308.8239, 189.4533
309.3060, 193.7939
309.7881, 198.3103
310.2703, 203.1922
310.7524, 208.9537
311.2345, 214.8563
311.7166, 220.3202
312.1987, 225.3445
312.6808, 230.1955
313.1630, 234.7067
313.6451, 239.2874
314.1272, 244.4272
314.6093, 251.1837
315.0914, 257.6145
315.5735, 262.5935
316.0557, 266.2986
316.5378, 269.6811
317.0199, 273.6050
317.5020, 277.0830
317.9841, 279.4618
318.4662, 280.5758
318.9484, 280.5067
319.4305, 279.2201
319.9126, 276.7642
320.3947, 273.2623
320.8768, 268.2133
321.3589, 262.5375
321.8411, 256.6378
322.3232, 250.6161
322.8053, 244.4009
323.2874, 237.8342
323.7695, 231.0946
324.2516, 224.4649
324.7338, 217.6792
325.2159, 211.2920
325.6980, 205.4691
326.1801, 200.2183
326.6622, 195.4529
327.1443, 191.1209
327.6265, 187.2540
328.1086, 183.8780
328.5907, 181.3143
329.0728, 178.9176
329.5549, 176.5922
330.0370, 174.3289
330.5192, 172.2594
331.0013, 170.3522
331.4834, 168.6504
331.9655, 167.1633
332.4476, 165.8824
332.9297, 164.8337
333.4119, 164.0899
333.8940, 163.5898
334.3761, 163.1080
334.8582, 162.7608
335.3403, 162.2633
335.8224, 161.4341
336.3046, 160.1261
336.7867, 158.9123
337.2688, 157.8162
337.7509, 156.8009
338.2330, 155.7900
338.7151, 154.8236
339.1973, 153.7540
339.6794, 152.4246
340.1615, 150.8210
340.6436, 149.6238
341.1257, 148.9863
341.6078, 148.4548
342.0900, 147.3305
342.5721, 145.5733
343.0542, 144.0569
343.5363, 143.0876
344.0184, 142.5753
344.5005, 142.0992
344.9827, 141.6491
345.4648, 141.3419
345.9469, 141.3498
346.4290, 141.6352
346.9111, 141.8687
347.3932, 141.8935
347.8754, 141.9563
348.3575, 142.6475
348.8396, 143.9115
349.3217, 145.1853
349.8038, 145.9803
350.2859, 146.4948
350.7681, 147.2221
351.2502, 148.2387
351.7323, 149.3918
352.2144, 150.5176
352.6965, 151.6429
353.1786, 152.8161
353.6608, 154.2797
354.1429, 155.7090
354.6250, 156.6377
355.1071, 157.0383
355.5892, 157.3060
356.0714, 157.7853
356.5535, 158.3239
357.0356, 158.6926
357.5177, 158.6533
357.9998, 158.5490
358.4819, 158.6321
358.9641, 158.8745
359.4462, 159.1194
359.9283, 159.1489
360.4104, 159.2166
360.8925, 159.5720
361.3746, 160.5047
361.8568, 161.3205
362.3389, 161.5071
362.8210, 161.3600
363.3031, 161.5557
363.7852, 162.8190
364.2673, 164.0589
364.7495, 164.7600
365.2316, 164.7802
365.7137, 164.5835
366.1958, 164.1320
366.6779, 163.5568
367.1600, 163.0082
367.6422, 162.8045
368.1243, 162.3178
368.6064, 161.3018
369.0885, 159.7187
369.5706, 158.3171
370.0527, 157.3953
370.5349, 156.4191
371.0170, 154.9985
371.4991, 152.7612
371.9812, 150.7429
372.4633, 149.0641
372.9454, 147.6447
373.4276, 146.2493
373.9097, 144.8931
374.3918, 143.5075
374.8739, 142.0648
375.3560, 140.5045
375.8381, 139.0710
376.3203, 137.7522
376.8024, 136.5944
377.2845, 135.7136
377.7666, 135.1585
378.2487, 134.6431
378.7308, 134.0574
379.2130, 133.4272
379.6951, 132.9977
380.1772, 132.7801
380.6593, 132.6837
381.1414, 132.6481
381.6235, 132.6685
382.1057, 132.7203
382.5878, 132.8430
383.0699, 132.9326
383.5520, 132.7595
384.0341, 132.3411
384.5162, 131.8717
384.9984, 131.4335
385.4805, 131.0352
385.9626, 130.7608
386.4447, 130.6684
386.9268, 130.4290
387.4089, 129.6533
387.8911, 128.4688
388.3732, 127.1800
388.8553, 125.8472
389.3374, 124.5156
389.8195, 123.3203
390.3016, 122.2577
390.7838, 121.0164
391.2659, 119.1851
391.7480, 117.1829
392.2301, 115.4633
392.7122, 114.3798
393.1943, 113.2889
393.6765, 111.9602
394.1586, 110.3992
394.6407, 108.6494
395.1228, 106.2023
395.6049, 103.9755
396.0870, 102.4910
396.5692, 102.0636
397.0513, 101.5815
397.5334, 100.8842
398.0155, 99.99863
398.4976, 98.96963
398.9797, 97.53788
399.4619, 96.23489
399.9440, 95.18748
400.4261, 94.39371
400.9082, 93.59157
401.3903, 92.58970
401.8724, 91.75839
402.3546, 91.37457
402.8367, 91.72852
403.3188, 91.89371
403.8009, 91.74382
404.2830, 91.40804
404.7651, 91.20325
405.2473, 91.13960
405.7294, 91.18711
406.2115, 91.39343
406.6936, 91.76687
407.1757, 91.93039
407.6578, 91.83826
408.1400, 91.66225
408.6221, 91.57433
409.1042, 91.57461
409.5863, 91.66002
410.0684, 91.83102
410.5505, 92.08576
411.0327, 92.43088
411.5148, 92.86794
411.9969, 93.38273
412.4790, 94.00892
412.9611, 94.70959
413.4432, 95.35942
413.9254, 95.92043
414.4075, 96.54276
414.8896, 97.47710
415.3717, 98.60482
415.8538, 99.64109
416.3359, 100.3346
416.8181, 100.9422
417.3002, 101.6658
417.7823, 102.5190
418.2644, 103.4419
418.7465, 104.4336
419.2286, 105.4829
419.7108, 106.5661
420.1929, 107.6908
420.6750, 108.8472
421.1571, 110.0914
421.6392, 111.3747
422.1213, 112.5393
422.6035, 113.3265
423.0856, 114.1688
423.5677, 115.3125
424.0498, 116.9124
424.5319, 118.2945
425.0140, 119.2340
425.4962, 120.0287
425.9783, 120.9812
426.4604, 122.1804
426.9425, 123.4211
427.4246, 124.7555
427.9067, 126.1453
428.3889, 127.2191
428.8710, 127.8935
429.3531, 128.3989
429.8352, 128.8589
430.3173, 129.2690
430.7994, 129.6435
431.2816, 130.0325
431.7637, 130.3024
432.2458, 130.1838
432.7279, 129.6562
433.2100, 129.0562
433.6921, 128.5107
434.1743, 127.9778
434.6564, 127.3278
435.1385, 126.5520
435.6206, 125.6771
436.1027, 124.6616
436.5848, 123.5620
437.0670, 122.5237
437.5491, 121.5611
438.0312, 120.6985
438.5133, 120.0381
438.9954, 119.5033
439.4775, 118.8781
439.9597, 117.8975
440.4418, 116.8776
440.9239, 116.0277
441.4060, 115.3607
441.8881, 115.0348
442.3702, 115.3323
442.8524, 115.9305
443.3345, 116.5194
443.8166, 116.8862
444.2987, 117.3837
444.7808, 118.1315
445.2629, 119.0921
445.7451, 120.1665
446.2272, 121.1057
446.7093, 122.3272
447.1914, 124.0115
447.6735, 126.2609
448.1556, 128.6895
448.6378, 131.4415
449.1199, 134.2507
449.6020, 136.8209
450.0841, 138.8572
450.5662, 141.1596
451.0483, 143.8507
451.5305, 146.9097
452.0126, 150.2215
452.4947, 153.9096
452.9768, 157.5545
453.4589, 160.8174
453.9410, 163.7065
454.4232, 167.1412
454.9053, 171.2674
455.3874, 175.6758
455.8695, 179.9260
456.3516, 184.0583
456.8337, 188.2154
457.3159, 192.4984
457.7980, 196.8477
458.2801, 201.1042
458.7622, 205.2894
459.2443, 209.7245
459.7264, 214.8309
460.2086, 220.2068
460.6907, 225.2607
461.1728, 229.8794
461.6549, 234.2888
462.1370, 238.4951
462.6191, 242.5615
463.1013, 246.4821
463.5834, 250.6439
464.0655, 254.3081
464.5476, 257.1173
465.0297, 259.0812
465.5118, 260.4527
465.9940, 261.3099
466.4761, 261.5394
466.9582, 261.0859
467.4403, 260.0029
467.9224, 258.0905
468.4045, 255.0463
468.8867, 251.3295
469.3688, 247.5603
469.8509, 244.1116
470.3330, 240.0202
470.8151, 234.8363
471.2972, 228.7095
471.7794, 223.2393
472.2615, 218.5051
472.7436, 214.0703
473.2257, 209.6610
473.7078, 205.2596
474.1899, 200.8282
474.6721, 196.2605
475.1542, 191.8633
475.6363, 188.1156
476.1184, 184.9665
476.6005, 182.0991
477.0826, 179.3963
477.5648, 176.8969
478.0469, 174.6350
478.5290, 172.6032
479.0111, 170.7354
479.4932, 168.8348
479.9753, 167.1367
480.4575, 166.0126
480.9396, 165.6966
481.4217, 165.3882
481.9038, 164.5767
482.3859, 163.4736
482.8680, 162.3969
483.3502, 161.1945
483.8323, 160.2837
484.3144, 159.9674
484.7965, 160.2004
485.2786, 160.2652
485.7607, 159.9974
486.2429, 159.5775
486.7250, 159.0854
487.2071, 158.4843
487.6892, 157.9107
488.1713, 157.4453
488.6534, 156.9543
489.1356, 156.1853
489.6177, 154.9859
490.0998, 153.9617
490.5819, 153.2890
491.0640, 152.8941
491.5461, 152.4132
492.0283, 151.8369
492.5104, 151.2457
492.9925, 150.7561
493.4746, 150.3166
493.9567, 149.6605
494.4388, 148.7253
494.9210, 147.7506
495.4031, 146.9619
495.8852, 146.3374
496.3673, 145.8149
496.8494, 145.5266
497.3315, 145.1821
497.8137, 144.4507
498.2958, 143.3973
498.7779, 142.3264
499.2600, 141.2535
499.7421, 140.3057
500.2242, 139.6385
500.7064, 139.3559
501.1885, 138.9319
501.6706, 137.9901
502.1527, 136.9326
502.6348, 136.1815
503.1169, 136.2393
503.5991, 136.0697
504.0812, 135.4075
504.5633, 134.4269
505.0454, 133.7937
505.5275, 133.7847
506.0096, 133.6633
506.4918, 133.0856
506.9739, 131.9952
507.4560, 131.0964
507.9381, 130.4534
508.4202, 129.8269
508.9023, 128.8819
509.3845, 127.6483
509.8666, 126.6786
510.3487, 126.1436
510.8308, 125.7921
511.3129, 125.2432
511.7950, 124.5163
512.2772, 123.6993
512.7593, 122.7449
513.2414, 121.7776
513.7235, 120.9769
514.2056, 120.3358
514.6877, 119.6440
515.1699, 118.7802
515.6520, 117.7956
516.1341, 116.7186
516.6162, 115.4663
517.0983, 114.2901
517.5804, 113.3012
518.0626, 112.4250
518.5447, 111.5398
519.0268, 110.6011
519.5089, 109.6744
519.9910, 108.8000
520.4731, 107.9683
520.9553, 107.0628
521.4374, 106.0241
521.9195, 105.0170
522.4016, 104.1781
522.8837, 103.5897
523.3658, 102.7216
523.8480, 101.4488
524.3301, 100.1534
524.8122, 99.46201
525.2943, 99.33457
525.7764, 99.05354
526.2585, 98.37376
526.7407, 97.49348
527.2228, 96.71428
527.7049, 96.03219
528.1870, 95.44465
528.6691, 94.96201
529.1512, 94.55766
529.6334, 94.19012
530.1155, 93.85096
530.5976, 93.59366
531.0797, 93.56480
531.5618, 93.57298
532.0439, 93.41447
532.5261, 92.77638
533.0082, 92.33978
533.4903, 92.41593
533.9724, 92.79363
534.4545, 93.02321
534.9366, 92.96886
535.4188, 92.86727
535.9009, 92.69737
536.3830, 92.46795
536.8651, 92.59386
537.3472, 93.26089
537.8293, 93.92033
538.3115, 94.14635
538.7936, 93.89689
539.2757, 93.83656
539.7578, 94.02645
540.2399, 94.32774
540.7220, 94.53376
541.2042, 94.67318
541.6863, 94.92727
542.1684, 95.37894
542.6505, 95.94376
543.1326, 96.55185
543.6147, 97.18041
544.0969, 97.76019
544.5790, 98.18619
545.0611, 98.57346
545.5432, 99.01570
546.0253, 99.52047
546.5074, 100.0360
546.9896, 100.5893
547.4717, 101.1116
547.9538, 101.5475
548.4359, 101.8877
548.9180, 102.1398
549.4001, 102.1930
549.8823, 102.1962
550.3644, 102.4163
550.8465, 102.9893
551.3286, 103.5308
551.8107, 103.9457
552.2928, 104.2500
552.7750, 104.5894
553.2571, 105.0116
553.7392, 105.2498
554.2213, 104.9886
554.7034, 104.3424
555.1855, 104.0565
555.6677, 104.2212
556.1498, 104.3284
556.6319, 103.7952
557.1140, 102.8133
557.5961, 101.7731
558.0782, 100.7872
558.5604, 99.77071
559.0425, 98.72832
559.5246, 97.61037
560.0067, 96.30839
560.4888, 94.55714
560.9709, 92.82423
561.4531, 91.41805
561.9352, 90.33931
562.4173, 89.07053
562.8994, 87.36713
563.3815, 85.60012
563.8636, 83.95361
564.3458, 82.55368
564.8279, 80.93392
565.3100, 78.94047
565.7921, 76.90018
566.2742, 75.32677
566.7563, 74.27473
567.2385, 73.05218
567.7206, 71.44834
568.2027, 69.68137
568.6848, 68.32175
569.1669, 67.30890
569.6490, 66.33172
570.1312, 65.19617
570.6133, 63.99152
571.0954, 62.82702
571.5775, 61.69625
572.0596, 60.68692
572.5417, 60.03891
573.0239, 59.41232
573.5060, 58.44361
573.9881, 56.81370
574.4702, 55.52499
574.9523, 54.82007
575.4344, 54.62776
575.9166, 54.87896
576.3987, 56.56854
576.8808, 57.33630
577.3629, 56.61272
577.8450, 54.82356
578.3271, 53.31723
578.8093, 52.10044
579.2914, 51.15979
579.7735, 50.57795
580.2556, 50.30746
580.7377, 49.91144
581.2198, 49.37934
581.7020, 48.84772
582.1841, 48.39513
582.6662, 48.03278
583.1483, 47.81645
583.6304, 47.78425
584.1125, 47.74707
584.5947, 47.47212
585.0768, 47.10349
585.5589, 46.85587
586.0410, 47.00811
586.5231, 47.06671
587.0052, 46.72646
587.4874, 46.12957
587.9695, 45.66322
588.4516, 45.40203
588.9337, 45.28355
589.4158, 45.38282
589.8979, 45.70309
590.3801, 45.66413
590.8622, 45.04839
591.3443, 44.45547
591.8264, 44.33278
592.3085, 44.72049
592.7906, 44.88760
593.2728, 44.77394
593.7549, 44.56997
594.2370, 44.52921
594.7191, 44.59430
595.2012, 44.52256
595.6833, 44.17663
596.1655, 43.82577
596.6476, 43.84636
597.1297, 44.09341
597.6118, 44.23127
598.0939, 44.03355
598.5760, 43.75318
599.0582, 43.42632
599.5403, 43.09521
600.0224, 43.02031
600.5045, 43.61363
600.9866, 44.16981
601.4688, 44.33094
601.9509, 43.96288
602.4330, 43.80546
602.9151, 43.97495
603.3972, 44.19549
603.8793, 44.19824
604.3615, 43.95732
604.8436, 43.76070
605.3257, 43.62642
605.8078, 43.58479
606.2899, 43.78152
606.7720, 44.14873
607.2542, 44.35218
607.7363, 44.16988
608.2184, 43.86607
608.7005, 43.67138
609.1826, 43.60261
609.6647, 43.72505
610.1469, 44.30013
610.6290, 44.89390
611.1111, 45.22267
611.5932, 45.26826
612.0753, 45.28838
612.5574, 45.37771
613.0396, 45.42183
613.5217, 45.33707
614.0038, 45.00328
614.4859, 44.85170
614.9680, 44.91411
615.4501, 45.11494
615.9323, 45.39320
616.4144, 45.75283
616.8965, 46.04576
617.3786, 46.16079
617.8607, 46.34690
618.3428, 47.35839
618.8250, 48.92267
619.3071, 49.89803
619.7892, 49.30619
620.2713, 48.18911
620.7534, 47.41691
621.2355, 46.98545
621.7177, 46.91149
622.1998, 47.57476
622.6819, 48.29509
623.1640, 48.65309
623.6461, 48.54960
624.1282, 48.54388
624.6104, 48.77612
625.0925, 49.04924
625.5746, 49.23586
626.0567, 49.29283
626.5388, 49.38679
627.0209, 49.51625
627.5031, 49.68745
627.9852, 49.88657
628.4673, 50.11592
628.9494, 50.49949
629.4315, 51.13649
629.9136, 51.81282
630.3958, 52.16388
630.8779, 52.26961
631.3600, 52.36377
631.8421, 52.49879
632.3242, 52.71577
632.8063, 53.14313
633.2885, 53.71862
633.7706, 54.12568
634.2527, 53.94310
634.7348, 53.83327
635.2169, 54.18316
635.6990, 55.11033
636.1812, 55.82829
636.6633, 56.19653
637.1454, 56.53483
637.6275, 57.09491
638.1096, 57.93149
638.5917, 58.61963
639.0739, 59.11043
639.5560, 59.55181
640.0381, 60.16653
640.5202, 60.91262
641.0023, 61.58458
641.4844, 62.11583
641.9666, 62.59990
642.4487, 63.11314
642.9308, 63.67168
643.4129, 64.30049
643.8950, 64.88942
644.3771, 65.67579
644.8593, 66.93909
645.3414, 68.55781
645.8235, 69.94732
646.3056, 70.83899
646.7877, 71.63609
647.2698, 72.40927
647.7520, 73.15952
648.2341, 74.06416
648.7162, 75.13628
649.1983, 76.31752
649.6804, 77.65917
650.1625, 79.11645
650.6447, 80.20618
651.1268, 80.86474
651.6089, 81.44125
652.0910, 82.23845
652.5731, 83.20464
653.0552, 84.28474
653.5374, 85.51901
654.0195, 86.71677
654.5016, 87.73135
654.9837, 88.66483
655.4658, 89.67305
655.9479, 91.16914
656.4301, 92.31002
656.9122, 92.77654
657.3943, 92.78378
657.8764, 92.91948
658.3585, 93.31258
658.8406, 93.52546
659.3228, 93.37469
659.8049, 92.93041
660.2870, 92.63595
660.7691, 92.50284
661.2512, 92.14448
661.7333, 91.19493
662.2155, 89.88541
662.6976, 88.63813
663.1797, 87.46806
663.6618, 86.32079
664.1439, 85.25484
664.6260, 84.13847
665.1082, 82.83267
665.5903, 81.28178
666.0724, 79.71054
666.5545, 78.11656
667.0366, 76.56640
667.5187, 75.11540
668.0009, 73.78743
668.4830, 72.52164
668.9651, 71.35442
669.4472, 70.22070
669.9293, 68.95736
670.4114, 67.56133
670.8936, 66.31920
671.3757, 65.32392
671.8578, 64.49180
672.3399, 63.71496
672.8220, 62.97256
673.3041, 62.20931
673.7863, 61.30478
674.2684, 60.44629
674.7505, 59.84153
675.2326, 59.42790
675.7147, 58.90785
676.1968, 57.96839
676.6790, 57.09800
677.1611, 56.57719
677.6432, 56.42119
678.1253, 56.09364
678.6074, 55.51172
679.0895, 54.91839
679.5717, 54.44825
680.0538, 54.09790
680.5359, 53.91899
681.0180, 53.92775
681.5001, 53.99363
681.9822, 54.01554
682.4644, 53.99604
682.9465, 53.95980
683.4286, 53.93536
683.9107, 53.79126
684.3928, 53.24911
684.8749, 52.60579
685.3571, 52.21220
685.8392, 52.38897
686.3213, 52.53139
686.8034, 52.48107
687.2855, 52.36403
687.7676, 52.37944
688.2498, 52.56167
688.7319, 52.80964
689.2140, 53.15593
689.6961, 53.51432
690.1782, 53.60558
690.6603, 53.44267
691.1425, 53.27007
691.6246, 53.17931
692.1067, 53.15799
692.5888, 53.17977
693.0709, 53.24993
693.5530, 53.39580
694.0352, 53.81364
694.5173, 54.16127
694.9994, 54.13561
695.4815, 53.70747
695.9636, 53.48433
696.4457, 53.66706
696.9279, 53.96708
697.4100, 54.29422
697.8921, 54.67897
698.3742, 54.85041
698.8563, 54.75141
699.3384, 54.61460
699.8206, 54.63712
700.3027, 54.79952
700.7848, 55.04689
701.2669, 55.39203
701.7490, 55.68309
702.2311, 55.69428
702.7133, 55.58991
703.1954, 55.59929
703.6775, 55.81001
704.1596, 56.07986
704.6417, 56.37103
705.1238, 56.68628
705.6060, 57.02903
706.0881, 57.45667
706.5702, 57.82270
707.0523, 58.11737
707.5344, 58.34119
708.0165, 58.44923
708.4987, 58.42653
708.9808, 58.51892
709.4629, 58.84229
709.9450, 59.26904
710.4271, 59.55617
710.9092, 59.73412
711.3914, 59.92668
711.8735, 60.23884
712.3556, 60.55027
712.8377, 60.73906
713.3198, 60.84050
713.8019, 61.02718
714.2841, 61.44765
714.7662, 61.86235
715.2483, 62.13421
715.7304, 62.27407
716.2125, 62.66417
716.6946, 63.41916
717.1768, 64.11824
717.6589, 64.46864
718.1410, 64.52357
718.6231, 64.65612
719.1052, 64.86905
719.5873, 65.12743
720.0695, 65.46897
720.5516, 65.81304
721.0337, 66.01899
721.5158, 66.04475
721.9979, 66.16839
722.4800, 66.64012
722.9622, 67.18833
723.4443, 67.57388
723.9264, 67.57795
724.4085, 67.87977
724.8906, 68.69691
725.3727, 69.55958
725.8549, 69.92353
726.3370, 69.74615
726.8191, 69.76488
727.3012, 70.07865
727.7833, 70.54672
728.2654, 71.01530
728.7476, 71.49094
729.2297, 72.01664
729.7118, 72.70035
730.1939, 73.23239
730.6760, 73.25169
731.1581, 73.01604
731.6403, 72.92348
732.1224, 73.14783
732.6045, 73.43074
733.0866, 73.80071
733.5687, 74.17834
734.0508, 74.34002
734.5330, 74.18123
735.0151, 74.27042
735.4972, 74.83370
735.9793, 75.64908
736.4614, 76.29881
736.9435, 76.77370
737.4257, 77.02538
737.9078, 76.81242
738.3899, 76.53333
738.8720, 76.57722
739.3541, 76.87041
739.8362, 77.15473
740.3184, 77.39985
740.8005, 77.55665
741.2826, 77.55223
741.7647, 77.41493
742.2468, 77.38417
742.7289, 77.51161
743.2111, 77.61589
743.6932, 77.62360
744.1753, 77.53851
744.6574, 77.29757
745.1395, 76.91194
745.6216, 76.69549
746.1038, 77.01910
746.5859, 77.55672
747.0680, 77.92020
747.5501, 78.09361
748.0322, 78.20796
748.5143, 78.25874
748.9965, 78.32012
749.4786, 78.43926
749.9607, 78.62795
750.4428, 78.83334
750.9249, 79.04940
751.4070, 79.29661
751.8892, 79.61294
752.3713, 79.99844
752.8534, 80.24833
753.3355, 80.33836
753.8176, 80.49798
754.2997, 81.02856
754.7819, 81.73715
755.2640, 82.31632
755.7461, 82.69007
756.2282, 83.09428
756.7103, 83.64913
757.1924, 84.28868
757.6746, 84.97379
758.1567, 85.90070
758.6388, 86.43068
759.1209, 86.32179
759.6030, 86.11446
760.0851, 86.40047
760.5673, 87.19843
761.0494, 87.94711
761.5315, 88.55997
762.0136, 89.21548
762.4957, 90.19145
762.9778, 91.34604
763.4600, 92.44534
763.9421, 93.45708
764.4242, 94.31102
764.9063, 94.75000
765.3884, 95.09763
765.8705, 95.75269
766.3527, 96.93591
766.8348, 98.21111
767.3169, 99.65939
767.7990, 101.1184
768.2811, 102.2476
768.7632, 103.0147
769.2454, 104.1684
769.7275, 105.9177
770.2096, 107.9279
770.6917, 109.7315
771.1738, 111.4184
771.6559, 113.2284
772.1381, 115.3663
772.6202, 117.4584
773.1023, 119.1039
773.5844, 120.5957
774.0665, 122.4458
774.5486, 124.8557
775.0308, 127.4582
775.5129, 130.3690
775.9950, 133.3525
776.4771, 135.6522
776.9592, 137.2472
777.4413, 139.3834
777.9235, 142.5554
778.4056, 146.2771
778.8877, 149.7455
779.3698, 153.1562
779.8519, 157.0281
780.3340, 161.6140
780.8162, 166.6401
781.2983, 171.9499
781.7804, 177.6263
782.2625, 183.9630
782.7446, 191.1824
783.2267, 198.4905
783.7089, 205.3707
784.1910, 212.4501
784.6731, 221.5426
785.1552, 232.6709
785.6373, 245.2708
786.1194, 259.0659
786.6016, 274.1384
787.0837, 289.8413
787.5658, 306.6815
788.0479, 326.0840
788.5300, 348.1480
789.0121, 373.0220
789.4943, 400.7313
789.9764, 431.2341
790.4585, 463.9024
790.9406, 498.6274
791.4227, 535.1389
791.9048, 573.5607
792.3870, 613.2917
792.8691, 652.1852
793.3512, 690.6121
793.8333, 729.3259
794.3154, 767.8895
794.7975, 807.7228
795.2797, 849.0595
795.7618, 892.8797
796.2439, 940.1731
796.7260, 990.3137
797.2081, 1045.656
797.6902, 1105.752
798.1724, 1171.136
798.6545, 1246.010
799.1366, 1331.211
799.6187, 1422.976
800.1008, 1521.148
800.5829, 1624.374
801.0651, 1730.516
801.5472, 1838.400
802.0293, 1943.938
802.5114, 2050.326
802.9935, 2148.117
803.4756, 2232.908
803.9578, 2302.011
804.4399, 2345.073
804.9220, 2369.708
805.4041, 2354.558
805.8862, 2292.477
806.3683, 2187.970
806.8505, 2054.696
807.3326, 1887.432
807.8147, 1713.442
808.2968, 1536.180
808.7789, 1362.648
809.2610, 1206.736
809.7432, 1068.122
810.2253, 945.4630
810.7074, 839.6225
811.1895, 748.1442
811.6716, 670.1624
812.1537, 604.6063
812.6359, 548.1165
813.1180, 502.9058
813.6001, 462.8603
814.0822, 427.0148
814.5643, 395.1624
815.0464, 367.4257
815.5286, 343.9165
816.0107, 323.2937
816.4928, 305.6263
816.9749, 289.9633
817.4570, 274.8020
817.9391, 260.5038
818.4213, 247.6489
818.9034, 237.4193
819.3855, 227.9017
819.8676, 218.3076
820.3497, 208.8878
820.8318, 200.6050
821.3140, 193.9211
821.7961, 187.4728
822.2782, 180.8788
822.7603, 174.3764
823.2424, 168.1652
823.7245, 162.2424
824.2067, 156.8006
824.6888, 152.0589
825.1709, 147.5675
825.6530, 142.6665
826.1351, 137.6320
826.6172, 133.2314
827.0994, 130.2280
827.5815, 127.1051
828.0636, 123.3241
828.5457, 119.3223
829.0278, 115.9750
829.5099, 113.3922
829.9921, 110.8428
830.4742, 108.1436
830.9563, 105.4143
831.4384, 102.6984
831.9205, 100.0838
832.4026, 97.78418
832.8848, 95.98917
833.3669, 94.32249
833.8490, 92.61032
834.3311, 90.88999
834.8132, 89.23051
835.2953, 87.66542
835.7775, 86.08707
836.2596, 84.45240
836.7417, 82.85703
837.2238, 81.45905
837.7059, 80.23514
838.1880, 79.13631
838.6702, 78.14772
839.1523, 77.26075
839.6344, 76.63502
840.1165, 76.04617
840.5986, 75.15260
841.0807, 73.44884
841.5629, 72.12852
842.0450, 71.77654
842.5271, 71.68383
843.0092, 71.13623
843.4913, 70.04421
843.9734, 68.96752
844.4556, 67.92136
844.9377, 67.02550
845.4198, 66.50441
845.9019, 66.22662
846.3840, 65.90606
846.8661, 65.48164
847.3483, 65.05125
847.8304, 64.59464
848.3125, 64.20332
848.7946, 64.00294
849.2767, 64.20889
849.7589, 64.01139
850.2410, 63.24249
850.7231, 62.38710
851.2052, 61.90975
851.6873, 61.74724
852.1694, 61.42219
852.6516, 60.89420
853.1337, 60.43104
853.6158, 60.30023
854.0979, 60.30527
854.5800, 60.31360
855.0621, 60.33492
855.5443, 60.09951
856.0264, 59.35781
856.5085, 58.54739
856.9906, 57.82572
857.4727, 57.19465
857.9548, 56.95360
858.4370, 57.14664
858.9191, 57.24681
859.4012, 56.52651
859.8833, 55.64631
860.3654, 55.79459
860.8475, 56.89278
861.3297, 57.99868
861.8118, 59.39286
862.2939, 60.02660
862.7760, 58.89703
863.2581, 56.33296
863.7402, 54.59885
864.2224, 53.83031
864.7045, 53.49400
865.1866, 53.50620
865.6687, 53.70208
866.1508, 53.70628
866.6329, 53.52494
867.1151, 53.18541
867.5972, 52.41724
868.0793, 51.77112
868.5614, 51.66260
869.0435, 51.94330
869.5256, 52.15464
870.0078, 52.24660
870.4899, 52.28123
870.9720, 52.24720
871.4541, 52.18506
871.9362, 52.17806
872.4183, 52.22438
872.9005, 52.30270
873.3826, 52.38967
873.8647, 52.54300
874.3468, 52.89361
874.8289, 53.32605
875.3110, 53.66101
875.7932, 53.85167
876.2753, 53.91237
876.7574, 53.68770
877.2395, 53.48474
877.7216, 53.76435
878.2037, 54.56862
878.6859, 55.07460
879.1680, 55.16700
879.6501, 55.05397
880.1322, 54.86720
880.6143, 54.66164
881.0964, 54.53113
881.5786, 54.51536
882.0607, 54.46917
882.5428, 54.50603
883.0249, 54.35189
883.5070, 53.78330
883.9891, 52.69949
884.4713, 51.83415
884.9534, 51.24191
885.4355, 50.62536
885.9176, 49.64240
886.3997, 48.49920
886.8818, 47.68498
887.3640, 47.18736
887.8461, 46.64354
888.3282, 45.87556
888.8103, 44.99739
889.2924, 43.99599
889.7745, 42.89532
890.2567, 42.01351
890.7388, 41.40150
891.2209, 40.87453
891.7030, 40.35144
892.1851, 39.85931
892.6672, 39.50954
893.1494, 39.25737
893.6315, 38.91877
894.1136, 38.20544
894.5957, 37.56915
895.0778, 37.36322
895.5599, 37.42156
896.0421, 37.31289
896.5242, 36.91346
897.0063, 36.55695
897.4884, 36.30467
897.9705, 36.11221
898.4526, 35.89888
898.9348, 35.67640
899.4169, 35.50001
899.8990, 35.38506
900.3811, 35.31023
900.8632, 35.27745
901.3453, 35.26479
901.8275, 35.24611
902.3096, 35.20835
902.7917, 35.17466
903.2738, 35.11945
903.7559, 35.10588
904.2380, 35.21828
904.7202, 35.43993
905.2023, 35.62751
905.6844, 35.77216
906.1665, 35.80740
906.6486, 35.60231
907.1307, 35.31348
907.6129, 35.02816
908.0950, 34.74953
908.5771, 34.70534
909.0592, 35.12456
909.5413, 35.49473
910.0234, 35.58341
910.5056, 35.44329
910.9877, 35.40001
911.4698, 35.44897
911.9519, 35.49975
912.4340, 35.51907
912.9161, 35.50228
913.3983, 35.37353
913.8804, 35.20139
914.3625, 35.17835
914.8446, 35.56067
915.3267, 35.83244
915.8088, 35.86017
916.2910, 35.76304
916.7731, 35.76654
917.2552, 35.86985
917.7373, 36.03206
918.2194, 36.25677
918.7015, 36.49746
919.1837, 36.74606
919.6658, 36.96232
920.1479, 37.08099
920.6300, 37.02184
921.1121, 37.01189
921.5942, 37.12902
922.0764, 37.25573
922.5585, 37.24681
923.0406, 37.08943
923.5227, 37.25359
924.0048, 37.76952
924.4869, 38.30102
924.9691, 38.55006
925.4512, 38.68575
925.9333, 38.87333
926.4154, 39.12674
926.8975, 39.43962
927.3796, 39.94604
927.8618, 40.35178
928.3439, 40.50663
928.8260, 40.48339
929.3081, 40.67731
929.7902, 41.08545
930.2723, 41.54185
930.7545, 42.03052
931.2366, 42.45834
931.7187, 42.64061
932.2008, 42.68554
932.6829, 42.81430
933.1650, 43.24067
933.6472, 43.54806
934.1293, 43.56359
934.6114, 43.54582
935.0935, 43.91993
935.5756, 44.68359
936.0577, 45.27622
936.5399, 45.60518
937.0220, 45.82194
937.5041, 45.97908
937.9862, 46.15178
938.4683, 46.44176
938.9504, 46.89119
939.4326, 47.31818
939.9147, 47.74779
940.3968, 48.06705
940.8789, 48.17352
941.3610, 48.09049
941.8431, 48.14520
942.3253, 48.33358
942.8074, 48.52869
943.2895, 48.69110
943.7716, 48.78722
944.2537, 48.72029
944.7358, 48.54967
945.2180, 48.49268
945.7001, 48.67402
946.1822, 48.88180
946.6643, 49.14516
947.1464, 49.35999
947.6285, 49.19249
948.1107, 48.71700
948.5928, 48.52203
949.0749, 48.80141
949.5570, 49.24553
950.0391, 49.70737
950.5212, 50.11836
951.0034, 50.40239
951.4855, 50.56928
951.9676, 50.49017
952.4497, 49.94349
952.9318, 49.54020
953.4139, 49.88013
953.8961, 50.81365
954.3782, 51.49741
954.8603, 51.91348
955.3424, 52.16745
955.8245, 52.18408
956.3066, 52.18812
956.7888, 52.31837
957.2709, 52.58216
957.7530, 52.94706
958.2351, 53.47364
958.7172, 53.95572
959.1993, 54.34306
959.6815, 54.65463
960.1636, 54.88298
960.6457, 55.06338
961.1278, 55.32106
961.6099, 55.77945
962.0920, 56.15673
962.5742, 56.20930
963.0563, 56.14125
963.5384, 56.18131
964.0205, 56.35164
964.5026, 56.62691
964.9847, 57.06682
965.4669, 57.39225
965.9490, 57.27117
966.4311, 56.87092
966.9132, 56.58113
967.3953, 56.40599
967.8774, 56.03966
968.3596, 55.14015
968.8417, 54.20498
969.3238, 53.51036
969.8059, 52.99049
970.2880, 52.33571
970.7701, 51.52802
971.2523, 50.69059
971.7344, 49.85578
972.2165, 49.01141
972.6986, 48.13587
973.1807, 47.22087
973.6628, 46.25527
974.1450, 45.09964
974.6271, 44.09162
975.1092, 43.31652
975.5913, 42.67629
976.0734, 42.14312
976.5555, 41.72631
977.0377, 41.00207
977.5198, 39.93947
978.0019, 38.98549
978.4840, 38.64079
978.9661, 38.48451
979.4482, 37.86319
979.9304, 36.81544
980.4125, 36.71246
980.8946, 38.85380
981.3767, 40.17752
981.8588, 39.62339
982.3409, 37.80187
982.8231, 36.17509
983.3052, 34.77707
983.7873, 33.81839
984.2694, 33.52648
984.7515, 33.39674
985.2336, 33.10258
985.7158, 32.74995
986.1979, 32.47848
986.6800, 32.30692
987.1621, 32.21326
987.6442, 32.24600
988.1263, 32.21895
988.6085, 31.83841
989.0906, 31.29872
989.5727, 31.17958
990.0548, 31.45845
990.5369, 31.59183
991.0190, 31.11261
991.5012, 30.60923
991.9833, 30.38484
992.4654, 30.36461
992.9475, 30.28966
993.4296, 30.15872
993.9117, 29.98341
994.3939, 29.74232
994.8760, 29.51438
995.3581, 29.42911
995.8402, 29.42284
996.3223, 29.38875
996.8044, 29.28158
997.2866, 29.18283
997.7687, 29.06653
998.2508, 29.00475
998.7329, 29.11042
999.2150, 29.36668
999.6971, 29.34902
1000.179, 29.06466
1000.661, 28.80819
1001.143, 28.88402
1001.626, 28.98107
1002.108, 28.72968
1002.590, 28.25154
1003.072, 28.21721
1003.554, 28.97391
1004.036, 29.37981
1004.518, 29.10764
1005.000, 28.55386
1005.483, 28.40401
1005.965, 28.51935
1006.447, 28.51270
1006.929, 28.24040
1007.411, 28.06045
1007.893, 28.00702
1008.375, 28.24844
1008.857, 29.04832
1009.339, 30.51279
1009.822, 30.97262
1010.304, 30.35422
1010.786, 29.54450
1011.268, 29.02471
1011.750, 28.69647
1012.232, 28.43708
1012.714, 28.26484
1013.196, 28.22906
1013.679, 28.52736
1014.161, 28.71812
1014.643, 28.73434
1015.125, 28.62074
1015.607, 28.38678
1016.089, 28.06388
1016.571, 27.85946
1017.053, 27.81489
1017.535, 27.77512
1018.018, 27.59548
1018.500, 27.39389
1018.982, 27.26097
1019.464, 27.20426
1019.946, 27.17100
1020.428, 27.16463
1020.910, 27.17444
1021.392, 27.22013
1021.875, 27.25257
1022.357, 27.10385
1022.839, 26.87153
1023.321, 26.79222
1023.803, 27.19541
1024.285, 27.40602
1024.767, 27.11303
1025.249, 26.68272
1025.731, 26.45980
1026.214, 26.44516
1026.696, 26.41292
1027.178, 26.35250
1027.660, 26.28809
1028.142, 26.21716
1028.624, 26.16730
1029.106, 26.16707
1029.588, 26.21447
1030.071, 26.27861
1030.553, 26.36634
1031.035, 26.45485
1031.517, 26.55856
1031.999, 26.62692
1032.481, 26.54394
1032.963, 26.35556
1033.445, 26.16505
1033.927, 25.97470
1034.410, 25.86439
1034.892, 25.95335
1035.374, 26.06545
1035.856, 26.06350
1036.338, 25.94302
1036.820, 25.95640
1037.302, 26.10729
1037.784, 26.19551
1038.266, 26.01215
1038.749, 25.77954
1039.231, 25.71097
1039.713, 25.77056
1040.195, 25.88087
1040.677, 26.16239
1041.159, 26.23157
1041.641, 25.98783
1042.123, 25.66005
1042.605, 25.51361
1043.088, 25.50984
1043.570, 25.55849
1044.052, 25.64965
1044.534, 25.74449
1045.016, 25.90660
1045.498, 25.97713
1045.980, 25.82645
1046.462, 25.51802
1046.945, 25.33791
1047.427, 25.28807
1047.909, 25.28120
1048.391, 25.30952
1048.873, 25.32136
1049.355, 25.17605
1049.837, 25.01685
1050.319, 25.06269
1050.802, 25.56229
1051.284, 25.75043
1051.766, 25.52271
1052.248, 25.19824
1052.730, 24.98198
1053.212, 24.85203
1053.694, 24.74337
1054.176, 24.65825
1054.658, 24.60908
1055.141, 24.60126
1055.623, 24.63255
1056.105, 24.75016
1056.587, 24.87819
1057.069, 24.91333
1057.551, 24.85546
1058.033, 24.65910
1058.515, 24.29403
1058.998, 24.00491
1059.480, 24.12948
1059.962, 24.34671
1060.444, 24.33224
1060.926, 24.05555
1061.408, 23.85107
1061.890, 23.70497
1062.372, 23.71499
1062.854, 23.97780
1063.337, 24.31869
1063.819, 24.43026
1064.301, 24.35390
1064.783, 24.16138
1065.265, 23.81312
1065.747, 23.49808
1066.229, 23.21808
1066.711, 23.04344
1067.193, 23.05616
1067.676, 23.24339
1068.158, 23.36688
1068.640, 23.42648
1069.122, 23.41900
1069.604, 23.25927
1070.086, 23.11556
1070.568, 23.10492
1071.050, 23.19192
1071.532, 23.30692
1072.015, 23.49969
1072.497, 23.51403
1072.979, 23.29214
1073.461, 23.03352
1073.943, 22.98447
1074.425, 23.01396
1074.907, 22.89684
1075.389, 22.62733
1075.872, 22.49260
1076.354, 22.74872
1076.836, 22.87038
1077.318, 22.64214
1077.800, 22.26966
1078.282, 22.23225
1078.764, 22.45458
1079.246, 22.67034
1079.729, 22.82920
1080.211, 22.90851
1080.693, 22.79025
1081.175, 22.67803
1081.657, 22.75901
1082.139, 23.03318
1082.621, 23.10406
1083.103, 22.96979
1083.585, 22.76760
1084.068, 22.49504
1084.550, 22.27016
1085.032, 22.25749
1085.514, 22.36103
1085.996, 22.41063
1086.478, 22.37587
1086.960, 22.29641
1087.442, 22.15118
1087.925, 22.03166
1088.407, 22.05556
1088.889, 22.15086
1089.371, 22.22337
1089.853, 22.25361
1090.335, 22.15984
1090.817, 21.69919
1091.299, 21.39231
1091.781, 21.39600
1092.264, 21.57430
1092.746, 21.71185
1093.228, 21.80754
1093.710, 21.83961
1094.192, 21.79772
1094.674, 21.75847
1095.156, 21.82341
1095.638, 21.85861
1096.120, 21.71754
1096.603, 21.44678
1097.085, 21.42530
1097.567, 21.66344
1098.049, 21.88578
1098.531, 22.01227
1099.013, 22.03961
1099.495, 21.91132
1099.977, 21.70917
1100.459, 21.53113
1100.942, 21.38510
1101.424, 21.29885
1101.906, 21.28752
1102.388, 21.28666
1102.870, 21.22899
1103.352, 21.16710
1103.834, 21.20108
1104.316, 21.31644
1104.799, 21.47119
1105.281, 21.81405
1105.763, 21.94151
1106.245, 21.69670
1106.727, 21.38685
1107.209, 21.42712
1107.691, 21.70513
1108.173, 21.68390
1108.656, 21.35938
1109.138, 21.13510
1109.620, 21.38664
1110.102, 21.62962
1110.584, 21.62698
1111.066, 21.46614
1111.548, 21.29948
1112.030, 21.12734
1112.512, 21.04505
1112.995, 21.07412
1113.477, 21.15842
1113.959, 21.25146
1114.441, 21.37599
1114.923, 21.63783
1115.405, 22.01763
1115.887, 21.96721
1116.369, 21.38689
1116.852, 20.93640
1117.334, 20.86770
1117.816, 20.99458
1118.298, 21.16199
1118.780, 21.32528
1119.262, 21.40856
1119.744, 21.34746
1120.226, 21.37024
1120.708, 21.53798
1121.191, 21.65650
1121.673, 21.57093
1122.155, 21.37940
1122.637, 21.29924
1123.119, 21.31033
1123.601, 21.35711
1124.083, 21.44396
1124.565, 21.53512
1125.047, 21.67734
1125.530, 21.75534
1126.012, 21.59036
1126.494, 21.25242
1126.976, 21.13336
1127.458, 21.23115
1127.940, 21.41637
1128.422, 21.72666
1128.904, 21.98417
1129.386, 22.13319
1129.869, 22.16859
1130.351, 22.02237
1130.833, 21.69934
1131.315, 21.47442
1131.797, 21.37729
1132.279, 21.40901
1132.761, 21.53698
1133.243, 21.82078
1133.726, 22.51192
1134.208, 23.43218
1134.690, 23.69903
1135.172, 23.21550
1135.654, 22.80315
1136.136, 22.66272
1136.618, 22.61329
1137.100, 22.46339
1137.583, 22.28878
1138.065, 22.17742
1138.547, 22.15229
1139.029, 22.10601
1139.511, 22.02294
1139.993, 21.96242
1140.475, 21.92546
1140.957, 21.95891
1141.439, 22.22395
1141.922, 22.58490
1142.404, 22.80816
1142.886, 22.78493
1143.368, 22.73473
1143.850, 22.61799
1144.332, 22.60486
1144.814, 22.86590
1145.296, 23.27168
1145.779, 23.51733
1146.261, 23.62259
1146.743, 23.65217
1147.225, 23.52151
1147.707, 23.47952
1148.189, 23.62815
1148.671, 23.78136
1149.153, 23.72270
1149.635, 23.51993
1150.118, 23.55790
1150.600, 23.80201
1151.082, 23.95120
1151.564, 23.64451
1152.046, 23.47375
1152.528, 23.80768
1153.010, 24.26481
1153.492, 24.30099
1153.974, 23.95612
1154.457, 23.65570
1154.939, 23.44045
1155.421, 23.29088
1155.903, 23.26086
1156.385, 23.22680
1156.867, 23.08683
1157.349, 22.89580
1157.831, 22.79310
1158.313, 22.78029
1158.796, 22.67202
1159.278, 22.41386
1159.760, 22.24907
1160.242, 22.58642
1160.724, 22.93656
1161.206, 22.85843
1161.688, 22.39417
1162.170, 21.94416
1162.653, 21.49736
1163.135, 21.16322
1163.617, 20.97973
1164.099, 20.89254
1164.581, 20.87228
1165.063, 20.89719
1165.545, 20.97275
1166.027, 21.10979
1166.510, 21.09220
1166.992, 20.88777
1167.474, 20.71030
1167.956, 20.65903
1168.438, 20.65280
1168.920, 20.58685
1169.402, 20.49589
1169.884, 20.42426
1170.366, 20.37233
1170.849, 20.39321
1171.331, 20.52543
1171.813, 20.59442
1172.295, 20.47802
1172.777, 20.26205
1173.259, 20.02469
1173.741, 19.80689
1174.223, 19.69683
1174.706, 19.81023
1175.188, 19.87504
1175.670, 19.88762
1176.152, 19.85305
1176.634, 19.71996
1177.116, 19.56939
1177.598, 19.60656
1178.080, 19.76374
1178.563, 19.83326
1179.045, 19.63968
1179.527, 19.52166
1180.009, 19.52728
1180.491, 19.56583
1180.973, 19.56765
1181.455, 19.53023
1181.937, 19.43101
1182.419, 19.28253
1182.901, 19.14270
1183.384, 18.99721
1183.866, 18.92548
1184.348, 18.96327
1184.830, 19.03570
1185.312, 19.04117
1185.794, 19.00830
1186.276, 19.00485
1186.758, 19.03701
1187.240, 19.10794
1187.723, 19.31550
1188.205, 19.42160
1188.687, 19.32882
1189.169, 19.16556
1189.651, 19.17296
1190.133, 19.28299
1190.615, 19.23570
1191.097, 18.99673
1191.580, 18.90689
1192.062, 19.36744
1192.544, 19.68342
1193.026, 19.57959
1193.508, 19.24946
1193.990, 19.08855
1194.472, 19.06497
1194.954, 19.08487
1195.437, 19.13863
1195.919, 19.15996
1196.401, 19.10449
1196.883, 19.02463
1197.365, 18.93855
1197.847, 18.84746
1198.329, 18.72551
1198.811, 18.59851
1199.293, 18.57840
1199.776, 18.71646
1200.258, 18.84871
1200.740, 18.89043
1201.222, 18.91851
1201.704, 18.99634
1202.186, 19.08107
1202.668, 18.90567
1203.150, 18.56821
1203.633, 18.50434
1204.115, 18.99561
1204.597, 19.35572
1205.079, 19.11084
1205.561, 18.79096
1206.043, 18.70325
1206.525, 18.79946
1207.007, 18.86732
1207.490, 18.90396
1207.972, 18.89528
1208.454, 18.81204
1208.936, 18.73017
1209.418, 18.70388
1209.900, 18.66818
1210.382, 18.57305
1210.864, 18.42893
1211.346, 18.28496
1211.828, 18.15589
1212.311, 18.12302
1212.793, 18.29132
1213.275, 18.45657
1213.757, 18.54968
1214.239, 18.60578
1214.721, 18.61435
1215.203, 18.59620
1215.685, 18.67621
1216.167, 18.87228
1216.650, 19.27674
1217.132, 20.51629
1217.614, 21.19173
1218.096, 20.49571
1218.578, 19.46296
1219.060, 18.96658
1219.542, 18.93517
1220.024, 18.91728
1220.507, 18.89556
1220.989, 18.81727
1221.471, 18.57319
1221.953, 18.37634
1222.435, 18.27525
1222.917, 18.25554
1223.399, 18.36950
1223.881, 18.56196
1224.364, 18.49460
1224.846, 18.20822
1225.328, 18.01674
1225.810, 18.11893
1226.292, 18.28759
1226.774, 18.50983
1227.256, 18.70598
1227.738, 18.77064
1228.220, 18.73033
1228.703, 18.66371
1229.185, 18.58214
1229.667, 18.52736
1230.149, 18.57739
1230.631, 18.56711
1231.113, 18.41986
1231.595, 18.26269
1232.077, 18.30346
1232.560, 18.45550
1233.042, 18.44318
1233.524, 18.27396
1234.006, 18.16819
1234.488, 18.31277
1234.970, 18.39099
1235.452, 18.32000
1235.934, 18.20265
1236.417, 18.19242
1236.899, 18.23646
1237.381, 18.17814
1237.863, 18.02742
1238.345, 17.99876
1238.827, 18.32134
1239.309, 18.52988
1239.791, 18.53867
1240.273, 18.43044
1240.755, 18.26440
1241.238, 18.08285
1241.720, 17.94703
1242.202, 17.86749
1242.684, 17.90126
1243.166, 18.16184
1243.648, 18.30554
1244.130, 18.23909
1244.612, 18.11496
1245.094, 18.11681
1245.577, 18.20051
1246.059, 18.34715
1246.541, 18.54016
1247.023, 18.55337
1247.505, 18.27798
1247.987, 18.11144
1248.469, 18.15624
1248.951, 18.26509
1249.434, 18.27094
1249.916, 18.22462
1250.398, 18.17822
1250.880, 18.13782
1251.362, 18.09451
1251.844, 18.02987
1252.326, 18.05339
1252.808, 18.20702
1253.291, 18.38043
1253.773, 18.50521
1254.255, 18.55281
1254.737, 18.45375
1255.219, 18.22714
1255.701, 18.09220
1256.183, 18.06011
1256.665, 18.01124
1257.147, 17.90736
1257.630, 17.84712
1258.112, 17.99862
1258.594, 18.17013
1259.076, 18.15751
1259.558, 18.01601
1260.040, 17.99742
1260.522, 18.10073
1261.004, 18.26844
1261.487, 18.51281
1261.969, 18.64730
1262.451, 18.42999
1262.933, 18.14701
1263.415, 17.93478
1263.897, 17.82393
1264.379, 18.04106
1264.861, 18.50784
1265.344, 18.56532
1265.826, 18.01338
1266.308, 17.53100
1266.790, 17.52831
1267.272, 17.70445
1267.754, 17.97274
1268.236, 18.24411
1268.718, 18.23139
1269.200, 18.01826
1269.682, 17.91769
1270.165, 18.00117
1270.647, 18.07606
1271.129, 18.05416
1271.611, 18.01760
1272.093, 17.98760
1272.575, 17.96434
1273.057, 17.93771
1273.539, 17.92016
1274.021, 17.95394
1274.504, 18.05369
1274.986, 18.10417
1275.468, 18.07490
1275.950, 18.01215
1276.432, 17.90634
1276.914, 17.82289
1277.396, 17.90466
1277.878, 18.05506
1278.361, 18.14053
1278.843, 18.13944
1279.325, 18.03619
1279.807, 17.77385
1280.289, 17.64771
1280.771, 17.76542
1281.253, 17.96077
1281.735, 18.07238
1282.218, 18.12764
1282.700, 18.15829
1283.182, 18.16448
1283.664, 18.10305
1284.146, 17.96104
1284.628, 17.91435
1285.110, 18.02607
1285.592, 18.14420
1286.074, 18.08246
1286.557, 18.01932
1287.039, 18.15017
1287.521, 18.39426
1288.003, 18.42527
1288.485, 18.26151
1288.967, 18.11183
1289.449, 18.01807
1289.931, 17.97672
1290.414, 18.07548
1290.896, 18.11813
1291.378, 17.96942
1291.860, 17.74034
1292.342, 17.75605
1292.824, 17.93184
1293.306, 17.93548
1293.788, 17.69378
1294.271, 17.55691
1294.753, 17.77464
1295.235, 17.98231
1295.717, 18.10067
1296.199, 18.13211
1296.681, 18.03994
1297.163, 17.87888
1297.645, 17.74603
1298.127, 17.65410
1298.609, 17.55163
1299.092, 17.37144
1299.574, 17.35958
1300.056, 17.61647
1300.538, 17.91182
1301.020, 17.99399
1301.502, 17.94153
1301.984, 17.80649
1302.466, 17.60830
1302.948, 17.46881
1303.431, 17.39013
1303.913, 17.36645
1304.395, 17.39905
##END=



