##NAMES=Vandenbrandeite
##RRUFFID=R080113
##IDEAL CHEMISTRY=Cu^2+^U^6+^O_2_(OH)_4_
##LOCALITY=Musonoi mine, Kolwezi, Katanga, Democratic Republic of Congo
##OWNER=RRUFF
##SOURCE=William W. Pinch
##DESCRIPTION=Aggregates of dark-green bladed crystals
##STATUS=The identification of this mineral has been confirmed by single-crystal X-ray diffraction.
##URL=rruff.info/R080113
91.87140, 0.0000000E+00
92.35352, 7.516953
92.83563, 7.177577
93.31775, 7.033175
93.79987, 7.123035
94.28198, 7.413181
94.76410, 7.826023
95.24622, 8.385888
95.72833, 9.017839
96.21045, 9.519252
96.69257, 9.882539
97.17468, 10.27360
97.65680, 10.86540
98.13892, 11.65594
98.62103, 12.43142
99.10315, 13.10696
99.58527, 13.70914
100.0674, 14.36868
100.5495, 15.06719
101.0316, 15.85150
101.5137, 16.76031
101.9958, 17.79828
102.4780, 18.96350
102.9601, 20.23812
103.4422, 21.61036
103.9243, 23.16006
104.4064, 24.89422
104.8885, 26.80868
105.3707, 28.94138
105.8528, 31.27678
106.3349, 33.82612
106.8170, 36.54152
107.2991, 39.19226
107.7813, 42.44758
108.2634, 46.35662
108.7455, 50.89674
109.2276, 55.83395
109.7097, 62.33829
110.1918, 68.43248
110.6740, 73.30515
111.1561, 75.89319
111.6382, 78.43015
112.1203, 80.61404
112.6024, 82.66812
113.0845, 85.83210
113.5667, 92.35253
114.0488, 98.90122
114.5309, 103.3002
115.0130, 105.8959
115.4951, 105.4319
115.9772, 100.3022
116.4594, 90.60732
116.9415, 81.33145
117.4236, 73.50362
117.9057, 67.30316
118.3878, 62.93908
118.8699, 61.24419
119.3521, 60.80294
119.8342, 60.90798
120.3163, 61.52814
120.7984, 62.54688
121.2805, 64.00411
121.7626, 65.80507
122.2448, 67.78769
122.7269, 70.16426
123.2090, 72.54653
123.6911, 74.47762
124.1732, 75.82060
124.6553, 77.08439
125.1375, 78.51248
125.6196, 80.18979
126.1017, 82.38484
126.5838, 85.29527
127.0659, 88.83069
127.5480, 92.84119
128.0302, 97.34054
128.5123, 102.2840
128.9944, 107.9140
129.4765, 114.1409
129.9586, 120.1263
130.4407, 125.1397
130.9229, 129.3673
131.4050, 133.5744
131.8871, 137.7656
132.3692, 142.0364
132.8513, 146.5690
133.3334, 151.1406
133.8156, 155.0828
134.2977, 158.1809
134.7798, 160.9960
135.2619, 164.2180
135.7440, 167.9829
136.2261, 172.2305
136.7083, 177.0504
137.1904, 182.4557
137.6725, 188.4075
138.1546, 195.2007
138.6367, 203.1091
139.1188, 210.5056
139.6010, 216.9545
140.0831, 222.4366
140.5652, 227.9498
141.0473, 233.2811
141.5294, 239.0032
142.0115, 245.7029
142.4937, 253.3549
142.9758, 262.0885
143.4579, 271.8626
143.9400, 282.3784
144.4221, 295.1130
144.9042, 310.5293
145.3864, 327.8615
145.8685, 345.7409
146.3506, 366.3711
146.8327, 384.8495
147.3148, 400.4281
147.7969, 415.5002
148.2791, 422.2458
148.7612, 419.7512
149.2433, 409.2652
149.7254, 393.1957
150.2075, 366.5722
150.6896, 338.8624
151.1718, 313.5389
151.6539, 289.6028
152.1360, 269.3267
152.6181, 252.7270
153.1002, 239.7425
153.5823, 230.3086
154.0645, 225.9336
154.5466, 223.8267
155.0287, 222.7016
155.5108, 222.8971
155.9929, 223.4422
156.4750, 224.7518
156.9572, 226.4790
157.4393, 227.1670
157.9214, 226.4414
158.4035, 224.6407
158.8856, 221.9821
159.3677, 217.3362
159.8499, 213.0060
160.3320, 209.1731
160.8141, 205.9826
161.2962, 204.4247
161.7783, 205.3023
162.2604, 207.7662
162.7426, 211.1147
163.2247, 215.4326
163.7068, 220.3271
164.1889, 225.7720
164.6710, 231.6962
165.1531, 237.8129
165.6353, 244.2546
166.1174, 250.7141
166.5995, 256.8601
167.0816, 261.8822
167.5637, 267.0612
168.0458, 273.3396
168.5280, 280.6714
169.0101, 288.3250
169.4922, 295.6243
169.9743, 302.9168
170.4564, 310.6476
170.9385, 318.4451
171.4207, 327.0794
171.9028, 337.4899
172.3849, 349.7125
172.8670, 362.5890
173.3491, 375.3145
173.8312, 388.1364
174.3134, 401.5888
174.7955, 416.1326
175.2776, 431.2059
175.7597, 446.1687
176.2418, 461.1371
176.7239, 475.7402
177.2061, 489.6650
177.6882, 503.2740
178.1703, 517.2615
178.6524, 531.9371
179.1345, 547.4023
179.6166, 564.1016
180.0988, 582.5417
180.5809, 600.5269
181.0630, 617.8352
181.5451, 633.5145
182.0272, 642.9861
182.5093, 645.7307
182.9915, 640.5853
183.4736, 623.9316
183.9557, 594.4954
184.4378, 556.9753
184.9199, 513.9859
185.4020, 466.9981
185.8842, 420.7242
186.3663, 376.9155
186.8484, 335.8900
187.3305, 300.7291
187.8126, 271.6263
188.2947, 247.4780
188.7769, 226.8712
189.2590, 209.7530
189.7411, 195.2372
190.2232, 183.1663
190.7053, 173.3819
191.1874, 164.5504
191.6696, 156.4792
192.1517, 149.2891
192.6338, 143.2223
193.1159, 138.2910
193.5980, 134.0843
194.0801, 130.4845
194.5623, 127.4795
195.0444, 124.6970
195.5265, 122.0993
196.0086, 119.7487
196.4907, 117.8020
196.9728, 116.2740
197.4550, 115.0104
197.9371, 113.8817
198.4192, 112.8831
198.9013, 112.2729
199.3834, 112.1106
199.8655, 112.3069
200.3477, 112.6397
200.8298, 113.0892
201.3119, 113.7727
201.7940, 114.9161
202.2761, 116.5933
202.7582, 117.8400
203.2404, 118.3947
203.7225, 118.6001
204.2046, 119.5127
204.6867, 121.3369
205.1688, 123.1754
205.6509, 124.2954
206.1331, 124.5065
206.6152, 125.3274
207.0973, 127.0334
207.5794, 129.3548
208.0615, 131.3514
208.5436, 132.7658
209.0258, 134.5439
209.5079, 137.5097
209.9900, 142.0603
210.4721, 145.8272
210.9542, 148.4308
211.4363, 150.1867
211.9185, 152.1303
212.4006, 154.2840
212.8827, 156.5929
213.3648, 158.9576
213.8469, 161.3618
214.3290, 163.9847
214.8112, 166.9402
215.2933, 170.0906
215.7754, 173.0113
216.2575, 175.5563
216.7396, 178.1550
217.2217, 181.0811
217.7039, 184.4655
218.1860, 187.7970
218.6681, 191.2234
219.1502, 194.5291
219.6323, 196.9778
220.1144, 198.8352
220.5966, 199.3518
221.0787, 198.0608
221.5608, 194.7947
222.0429, 190.1848
222.5250, 184.0841
223.0071, 176.6869
223.4893, 168.8315
223.9714, 160.0387
224.4535, 151.4389
224.9356, 143.3919
225.4177, 135.5444
225.8998, 129.2573
226.3820, 124.8037
226.8641, 121.9063
227.3462, 119.7744
227.8283, 118.3981
228.3104, 117.7948
228.7925, 118.0282
229.2747, 119.3253
229.7568, 120.9885
230.2389, 123.1172
230.7210, 125.5895
231.2031, 127.9527
231.6852, 130.1438
232.1674, 132.3133
232.6495, 134.5295
233.1316, 136.8672
233.6137, 139.0655
234.0958, 140.9801
234.5779, 142.7558
235.0601, 144.7567
235.5422, 146.9982
236.0243, 149.4787
236.5064, 152.2152
236.9885, 155.2658
237.4706, 158.4172
237.9528, 161.4634
238.4349, 164.6289
238.9170, 168.4677
239.3991, 173.1822
239.8812, 178.2650
240.3633, 183.4637
240.8455, 188.5262
241.3276, 194.3023
241.8097, 200.6746
242.2918, 207.7278
242.7739, 215.5820
243.2560, 224.1828
243.7382, 233.6710
244.2203, 244.1873
244.7024, 256.0338
245.1845, 268.1396
245.6666, 281.0053
246.1487, 293.8658
246.6309, 305.7765
247.1130, 317.8682
247.5951, 327.2173
248.0772, 333.0674
248.5593, 336.0026
249.0414, 333.4103
249.5236, 324.4385
250.0057, 310.4769
250.4878, 293.0791
250.9699, 270.1067
251.4520, 247.3702
251.9341, 226.5098
252.4163, 207.1380
252.8984, 191.0093
253.3805, 178.4847
253.8626, 168.8542
254.3447, 161.4424
254.8268, 156.4310
255.3090, 153.0384
255.7911, 151.3124
256.2732, 151.4140
256.7553, 151.7739
257.2374, 152.6169
257.7195, 153.4982
258.2017, 153.9140
258.6838, 153.9008
259.1659, 153.3275
259.6480, 151.9761
260.1301, 149.8149
260.6122, 148.0343
261.0944, 146.5927
261.5765, 145.5805
262.0586, 145.0991
262.5407, 145.1953
263.0228, 145.7024
263.5049, 146.6529
263.9871, 148.0404
264.4692, 149.4181
264.9513, 150.6762
265.4334, 152.1192
265.9155, 154.0644
266.3976, 156.5245
266.8798, 159.3281
267.3619, 162.4517
267.8440, 165.9026
268.3261, 169.4790
268.8082, 173.0932
269.2903, 176.9967
269.7725, 181.3847
270.2546, 186.2401
270.7367, 191.3464
271.2188, 196.4990
271.7009, 201.8508
272.1830, 208.3014
272.6652, 216.0168
273.1473, 224.2481
273.6294, 232.4747
274.1115, 240.5558
274.5936, 249.6380
275.0757, 260.3125
275.5579, 271.8094
276.0400, 281.8797
276.5221, 290.6352
277.0042, 297.4993
277.4863, 302.2880
277.9684, 305.0417
278.4506, 305.1551
278.9327, 302.5823
279.4148, 297.3646
279.8969, 289.3022
280.3790, 278.2359
280.8611, 265.4872
281.3433, 250.9955
281.8254, 234.7253
282.3075, 219.8846
282.7896, 206.5850
283.2717, 194.4772
283.7538, 182.9317
284.2360, 171.9258
284.7181, 162.0405
285.2002, 153.7112
285.6823, 146.8305
286.1644, 140.4088
286.6465, 134.4728
287.1287, 129.1095
287.6108, 124.4931
288.0929, 120.6123
288.5750, 117.2952
289.0571, 114.5750
289.5392, 112.3602
290.0214, 110.3892
290.5035, 108.6823
290.9856, 107.1123
291.4677, 105.5223
291.9498, 103.9356
292.4319, 102.5389
292.9141, 101.3533
293.3962, 100.3985
293.8783, 99.80654
294.3604, 99.58596
294.8425, 99.41991
295.3246, 98.94100
295.8068, 98.27403
296.2889, 97.84707
296.7710, 97.78722
297.2531, 97.98035
297.7352, 98.24944
298.2173, 98.59730
298.6995, 99.06695
299.1816, 99.70135
299.6637, 100.4772
300.1458, 101.3310
300.6279, 102.2572
301.1100, 103.2585
301.5922, 104.2561
302.0743, 105.2951
302.5564, 106.5575
303.0385, 108.3730
303.5206, 110.4085
304.0027, 112.1928
304.4849, 113.6014
304.9670, 114.9458
305.4491, 116.4853
305.9312, 118.1728
306.4133, 119.8967
306.8954, 121.5472
307.3776, 123.2411
307.8597, 125.0421
308.3418, 126.9670
308.8239, 129.0730
309.3060, 131.5565
309.7881, 134.2512
310.2703, 136.8122
310.7524, 138.8208
311.2345, 140.8874
311.7166, 143.5032
312.1987, 146.6582
312.6808, 149.8404
313.1630, 152.5078
313.6451, 155.1737
314.1272, 158.4195
314.6093, 162.9718
315.0914, 167.5920
315.5735, 171.6390
316.0557, 175.1834
316.5378, 178.6068
317.0199, 182.4687
317.5020, 186.0276
317.9841, 188.7608
318.4662, 190.1383
318.9484, 191.2011
319.4305, 192.6646
319.9126, 194.1100
320.3947, 194.4350
320.8768, 192.7085
321.3589, 190.2473
321.8411, 187.6971
322.3232, 185.3015
322.8053, 182.4861
323.2874, 178.8164
323.7695, 174.7204
324.2516, 170.8762
324.7338, 167.2441
325.2159, 164.0090
325.6980, 161.2753
326.1801, 159.1092
326.6622, 157.1253
327.1443, 155.3526
327.6265, 153.7113
328.1086, 152.1106
328.5907, 149.8884
329.0728, 148.4729
329.5549, 148.3721
330.0370, 149.6040
330.5192, 150.4739
331.0013, 150.7925
331.4834, 150.9187
331.9655, 151.0702
332.4476, 151.0450
332.9297, 151.4087
333.4119, 152.3470
333.8940, 153.7226
334.3761, 154.9503
334.8582, 156.0374
335.3403, 156.9224
335.8224, 157.5347
336.3046, 157.7702
336.7867, 158.0876
337.2688, 158.6847
337.7509, 159.2265
338.2330, 159.0031
338.7151, 157.8831
339.1973, 156.4052
339.6794, 154.6260
340.1615, 152.5308
340.6436, 150.9128
341.1257, 149.9808
341.6078, 149.1150
342.0900, 147.4864
342.5721, 145.0864
343.0542, 142.4379
343.5363, 139.5482
344.0184, 136.5719
344.5005, 134.2013
344.9827, 132.5156
345.4648, 131.0008
345.9469, 129.1121
346.4290, 126.9115
346.9111, 125.0880
347.3932, 123.7668
347.8754, 122.8649
348.3575, 122.3795
348.8396, 122.2798
349.3217, 122.2178
349.8038, 121.8652
350.2859, 121.3791
350.7681, 121.1587
351.2502, 121.2736
351.7323, 121.5632
352.2144, 121.9253
352.6965, 122.3281
353.1786, 122.6645
353.6608, 122.7331
354.1429, 122.7775
354.6250, 123.1686
355.1071, 123.9337
355.5892, 124.7014
356.0714, 125.3191
356.5535, 125.7299
357.0356, 125.8454
357.5177, 125.4603
357.9998, 124.9160
358.4819, 124.4970
358.9641, 124.1606
359.4462, 123.6760
359.9283, 122.6695
360.4104, 121.5964
360.8925, 120.8764
361.3746, 120.8712
361.8568, 120.7610
362.3389, 120.0175
362.8210, 118.9200
363.3031, 118.0871
363.7852, 118.0145
364.2673, 118.0074
364.7495, 117.6567
365.2316, 116.7294
365.7137, 116.1606
366.1958, 116.5098
366.6779, 117.1862
367.1600, 117.4984
367.6422, 117.0375
368.1243, 116.5506
368.6064, 116.2692
369.0885, 116.2162
369.5706, 115.8347
370.0527, 114.9103
370.5349, 113.8240
371.0170, 112.8097
371.4991, 111.9483
371.9812, 111.0466
372.4633, 110.1197
372.9454, 109.1397
373.4276, 107.9836
373.9097, 106.4344
374.3918, 105.0669
374.8739, 104.2444
375.3560, 104.1343
375.8381, 103.7402
376.3203, 102.9593
376.8024, 102.0334
377.2845, 101.3421
377.7666, 100.9275
378.2487, 100.5396
378.7308, 100.0804
379.2130, 99.57347
379.6951, 99.20079
380.1772, 98.94656
380.6593, 98.88806
381.1414, 99.29675
381.6235, 100.0850
382.1057, 100.3926
382.5878, 99.84699
383.0699, 98.99693
383.5520, 98.92249
384.0341, 99.56631
384.5162, 100.3473
384.9984, 101.0093
385.4805, 101.5326
385.9626, 101.8894
386.4447, 102.0813
386.9268, 102.0837
387.4089, 101.7568
387.8911, 101.2162
388.3732, 100.7301
388.8553, 100.6367
389.3374, 100.5137
389.8195, 99.88049
390.3016, 98.76797
390.7838, 97.61003
391.2659, 96.76540
391.7480, 95.98976
392.2301, 95.01727
392.7122, 93.63342
393.1943, 92.24031
393.6765, 91.11525
394.1586, 90.14666
394.6407, 89.03951
395.1228, 87.42686
395.6049, 85.85497
396.0870, 84.60916
396.5692, 83.82952
397.0513, 83.05492
397.5334, 82.17337
398.0155, 81.25365
398.4976, 80.39364
398.9797, 79.63322
399.4619, 78.89075
399.9440, 78.12680
400.4261, 77.34124
400.9082, 76.65690
401.3903, 76.10191
401.8724, 75.61910
402.3546, 75.15068
402.8367, 74.58688
403.3188, 74.30440
403.8009, 74.43696
404.2830, 74.81392
404.7651, 75.00838
405.2473, 74.99162
405.7294, 74.86874
406.2115, 74.63747
406.6936, 74.29362
407.1757, 74.07815
407.6578, 74.00593
408.1400, 74.02277
408.6221, 74.10091
409.1042, 74.23803
409.5863, 74.30037
410.0684, 74.18344
410.5505, 74.02364
411.0327, 74.15727
411.5148, 74.58035
411.9969, 75.12344
412.4790, 75.76151
412.9611, 76.42982
413.4432, 76.95026
413.9254, 77.28708
414.4075, 77.54581
414.8896, 77.75246
415.3717, 77.96564
415.8538, 78.32436
416.3359, 79.00256
416.8181, 79.78447
417.3002, 80.47773
417.7823, 81.08679
418.2644, 81.65206
418.7465, 82.01064
419.2286, 82.43705
419.7108, 83.21169
420.1929, 84.72478
420.6750, 86.17744
421.1571, 87.25079
421.6392, 88.03761
422.1213, 88.75004
422.6035, 89.32478
423.0856, 89.93733
423.5677, 90.70763
424.0498, 91.73030
424.5319, 92.58287
425.0140, 92.98501
425.4962, 93.32960
425.9783, 94.02927
426.4604, 95.46568
426.9425, 96.70354
427.4246, 97.59079
427.9067, 98.16805
428.3889, 98.61633
428.8710, 98.78535
429.3531, 99.08843
429.8352, 99.87129
430.3173, 101.2975
430.7994, 102.2782
431.2816, 102.6929
431.7637, 102.7979
432.2458, 102.9642
432.7279, 103.1927
433.2100, 103.4546
433.6921, 103.8076
434.1743, 104.1749
434.6564, 104.2831
435.1385, 104.1332
435.6206, 103.7633
436.1027, 103.0048
436.5848, 102.0457
437.0670, 101.4648
437.5491, 101.4984
438.0312, 101.6188
438.5133, 101.0777
438.9954, 100.1122
439.4775, 99.37856
439.9597, 99.40383
440.4418, 99.69383
440.9239, 99.79180
441.4060, 99.67195
441.8881, 99.60592
442.3702, 99.61233
442.8524, 99.81068
443.3345, 100.3189
443.8166, 101.2904
444.2987, 102.4317
444.7808, 103.6067
445.2629, 104.8756
445.7451, 106.4287
446.2272, 108.4378
446.7093, 110.5824
447.1914, 112.7189
447.6735, 114.7807
448.1556, 117.0562
448.6378, 119.5197
449.1199, 122.1898
449.6020, 125.1369
450.0841, 128.4902
450.5662, 131.6883
451.0483, 134.4496
451.5305, 137.0107
452.0126, 140.4200
452.4947, 144.9067
452.9768, 149.6216
453.4589, 154.1872
453.9410, 158.6380
454.4232, 162.8624
454.9053, 166.8261
455.3874, 170.8591
455.8695, 175.5551
456.3516, 180.8472
456.8337, 186.0591
457.3159, 190.9769
457.7980, 195.7577
458.2801, 200.5866
458.7622, 205.4814
459.2443, 210.7667
459.7264, 216.8421
460.2086, 223.3322
460.6907, 229.6603
461.1728, 235.7047
461.6549, 241.7346
462.1370, 248.0515
462.6191, 254.3645
463.1013, 260.0979
463.5834, 264.5478
464.0655, 268.8448
464.5476, 273.7984
465.0297, 279.2134
465.5118, 283.6146
465.9940, 286.5938
466.4761, 288.3589
466.9582, 288.9760
467.4403, 288.1993
467.9224, 286.7155
468.4045, 284.6744
468.8867, 281.9108
469.3688, 278.0887
469.8509, 273.0034
470.3330, 267.3536
470.8151, 261.3154
471.2972, 254.8681
471.7794, 247.6866
472.2615, 239.4954
472.7436, 231.1336
473.2257, 223.0647
473.7078, 215.2557
474.1899, 207.8264
474.6721, 200.6819
475.1542, 194.0600
475.6363, 188.4172
476.1184, 183.6707
476.6005, 179.2986
477.0826, 175.0461
477.5648, 171.0762
478.0469, 167.6273
478.5290, 164.6756
479.0111, 162.0058
479.4932, 159.5828
479.9753, 157.3063
480.4575, 155.0039
480.9396, 152.5524
481.4217, 150.3706
481.9038, 148.7561
482.3859, 147.5979
482.8680, 146.7610
483.3502, 146.4115
483.8323, 146.1687
484.3144, 145.8337
484.7965, 145.4286
485.2786, 145.2883
485.7607, 146.0015
486.2429, 146.5624
486.7250, 146.4099
487.2071, 144.9700
487.6892, 144.0624
488.1713, 143.8909
488.6534, 144.1121
489.1356, 144.2391
489.6177, 144.2449
490.0998, 144.2476
490.5819, 144.2841
491.0640, 144.3441
491.5461, 144.3393
492.0283, 144.2554
492.5104, 144.2303
492.9925, 144.5130
493.4746, 144.9869
493.9567, 144.9539
494.4388, 144.2970
494.9210, 143.4904
495.4031, 142.9703
495.8852, 142.7153
496.3673, 142.6754
496.8494, 143.0161
497.3315, 143.3840
497.8137, 143.3569
498.2958, 143.0317
498.7779, 142.8139
499.2600, 143.1039
499.7421, 143.4445
500.2242, 143.4796
500.7064, 143.0895
501.1885, 142.7493
501.6706, 142.4740
502.1527, 142.3794
502.6348, 142.5907
503.1169, 143.6503
503.5991, 144.3885
504.0812, 144.5495
504.5633, 144.2851
505.0454, 144.1507
505.5275, 144.1922
506.0096, 144.2931
506.4918, 144.4547
506.9739, 144.7018
507.4560, 144.6837
507.9381, 144.3429
508.4202, 143.8898
508.9023, 143.5220
509.3845, 143.2362
509.8666, 142.9891
510.3487, 142.7859
510.8308, 142.5940
511.3129, 142.4261
511.7950, 142.2475
512.2772, 141.8931
512.7593, 141.1464
513.2414, 140.2466
513.7235, 139.5409
514.2056, 139.0187
514.6877, 138.3201
515.1699, 137.0354
515.6520, 135.5606
516.1341, 134.2802
516.6162, 133.4147
517.0983, 132.4725
517.5804, 131.1909
518.0626, 129.7407
518.5447, 128.4031
519.0268, 127.3506
519.5089, 126.2730
519.9910, 125.1200
520.4731, 123.8891
520.9553, 122.5918
521.4374, 121.2108
521.9195, 119.8131
522.4016, 118.3897
522.8837, 116.8981
523.3658, 115.6993
523.8480, 114.8465
524.3301, 114.1809
524.8122, 113.6265
525.2943, 113.1633
525.7764, 112.3253
526.2585, 110.7720
526.7407, 109.0239
527.2228, 108.1152
527.7049, 107.9182
528.1870, 107.7089
528.6691, 106.9377
529.1512, 105.9651
529.6334, 105.1882
530.1155, 104.6294
530.5976, 104.2132
531.0797, 103.8981
531.5618, 103.6917
532.0439, 103.6223
532.5261, 103.9490
533.0082, 104.0460
533.4903, 103.5346
533.9724, 102.7048
534.4545, 102.1658
534.9366, 102.0700
535.4188, 102.1628
535.9009, 102.4145
536.3830, 102.8238
536.8651, 103.3274
537.3472, 103.9743
537.8293, 104.6208
538.3115, 105.1570
538.7936, 105.5731
539.2757, 106.0014
539.7578, 106.4363
540.2399, 106.9124
540.7220, 107.4548
541.2042, 108.0700
541.6863, 108.8360
542.1684, 109.8129
542.6505, 110.9192
543.1326, 112.0628
543.6147, 113.2377
544.0969, 114.4566
544.5790, 115.7176
545.0611, 117.0009
545.5432, 118.2768
546.0253, 119.5352
546.5074, 120.8387
546.9896, 122.2385
547.4717, 123.6676
547.9538, 125.0716
548.4359, 126.4072
548.9180, 127.7668
549.4001, 129.1691
549.8823, 130.6064
550.3644, 132.0626
550.8465, 133.5600
551.3286, 135.0642
551.8107, 136.5587
552.2928, 138.0589
552.7750, 139.6654
553.2571, 141.4329
553.7392, 143.0816
554.2213, 144.3662
554.7034, 145.3423
555.1855, 146.4590
555.6677, 147.7717
556.1498, 148.9640
556.6319, 149.6638
557.1140, 149.9910
557.5961, 150.1924
558.0782, 150.3888
558.5604, 150.3938
559.0425, 150.0384
559.5246, 149.3779
560.0067, 148.5320
560.4888, 147.7412
560.9709, 146.6080
561.4531, 144.9290
561.9352, 142.6943
562.4173, 140.2056
562.8994, 137.3003
563.3815, 134.3156
563.8636, 131.3910
564.3458, 128.5971
564.8279, 125.7287
565.3100, 122.7493
565.7921, 119.7048
566.2742, 116.7037
566.7563, 113.7433
567.2385, 110.7065
567.7206, 107.5749
568.2027, 104.3682
568.6848, 101.2312
569.1669, 98.13168
569.6490, 95.14816
570.1312, 92.19707
570.6133, 89.39999
571.0954, 87.04932
571.5775, 85.09811
572.0596, 83.22057
572.5417, 81.21397
573.0239, 79.14883
573.5060, 77.10308
573.9881, 75.04209
574.4702, 73.08088
574.9523, 71.18791
575.4344, 69.41224
575.9166, 67.83652
576.3987, 66.38218
576.8808, 65.20535
577.3629, 64.41694
577.8450, 63.90195
578.3271, 63.29442
578.8093, 62.61903
579.2914, 61.77327
579.7735, 60.61246
580.2556, 59.22176
580.7377, 58.18360
581.2198, 57.52401
581.7020, 56.98637
582.1841, 56.40395
582.6662, 55.77990
583.1483, 55.09474
583.6304, 54.34497
584.1125, 53.59724
584.5947, 52.79522
585.0768, 52.06632
585.5589, 51.60488
586.0410, 51.86027
586.5231, 51.96736
587.0052, 51.34925
587.4874, 50.29389
587.9695, 49.58392
588.4516, 49.76249
588.9337, 49.89454
589.4158, 49.71539
589.8979, 49.22391
590.3801, 48.62571
590.8622, 47.76628
591.3443, 47.06980
591.8264, 46.90176
592.3085, 47.30727
592.7906, 47.47335
593.2728, 47.34140
593.7549, 47.08416
594.2370, 46.90703
594.7191, 46.77634
595.2012, 46.54851
595.6833, 46.12525
596.1655, 45.71400
596.6476, 45.58331
597.1297, 45.64331
597.6118, 45.68248
598.0939, 45.68304
598.5760, 45.56923
599.0582, 45.19162
599.5403, 44.60292
600.0224, 44.20592
600.5045, 44.14737
600.9866, 44.25908
601.4688, 44.52232
601.9509, 45.03810
602.4330, 45.23915
602.9151, 44.99562
603.3972, 44.61491
603.8793, 44.35424
604.3615, 44.21707
604.8436, 44.15096
605.3257, 44.16606
605.8078, 44.21178
606.2899, 44.19008
606.7720, 44.12112
607.2542, 44.10437
607.7363, 44.19555
608.2184, 44.33600
608.7005, 44.51271
609.1826, 44.69299
609.6647, 44.75737
610.1469, 44.48653
610.6290, 44.21146
611.1111, 44.18578
611.5932, 44.43287
612.0753, 44.56598
612.5574, 44.32611
613.0396, 44.09568
613.5217, 44.11360
614.0038, 44.55064
614.4859, 44.78685
614.9680, 44.75517
615.4501, 44.61291
615.9323, 44.54296
616.4144, 44.54906
616.8965, 44.53124
617.3786, 44.43059
617.8607, 44.37214
618.3428, 44.68145
618.8250, 45.25837
619.3071, 45.68400
619.7892, 45.61541
620.2713, 45.40754
620.7534, 45.39919
621.2355, 45.56386
621.7177, 45.77858
622.1998, 46.07305
622.6819, 46.32919
623.1640, 46.45634
623.6461, 46.42072
624.1282, 46.45041
624.6104, 46.64489
625.0925, 46.84493
625.5746, 46.93546
626.0567, 46.83688
626.5388, 46.86819
627.0209, 47.07045
627.5031, 47.34206
627.9852, 47.59626
628.4673, 47.82348
628.9494, 47.83153
629.4315, 47.45841
629.9136, 47.05717
630.3958, 47.29923
630.8779, 47.98872
631.3600, 48.53739
631.8421, 48.49184
632.3242, 48.33339
632.8063, 48.46030
633.2885, 48.81719
633.7706, 49.07580
634.2527, 48.97373
634.7348, 48.87401
635.2169, 48.96556
635.6990, 49.29035
636.1812, 49.58245
636.6633, 49.75826
637.1454, 50.00811
637.6275, 50.55446
638.1096, 51.50313
638.5917, 51.97001
639.0739, 51.80323
639.5560, 51.48785
640.0381, 51.69421
640.5202, 52.30555
641.0023, 52.78362
641.4844, 52.92775
641.9666, 53.02931
642.4487, 53.45745
642.9308, 54.08571
643.4129, 54.63094
643.8950, 54.84951
644.3771, 55.08498
644.8593, 55.49652
645.3414, 56.06576
645.8235, 56.69682
646.3056, 57.39103
646.7877, 58.11917
647.2698, 58.87336
647.7520, 59.66145
648.2341, 60.40723
648.7162, 61.06227
649.1983, 61.80063
649.6804, 62.84811
650.1625, 64.14665
650.6447, 65.08776
651.1268, 65.60092
651.6089, 66.04953
652.0910, 66.72246
652.5731, 67.60033
653.0552, 68.70516
653.5374, 70.15482
654.0195, 71.53838
654.5016, 72.44701
654.9837, 73.19492
655.4658, 74.24850
655.9479, 76.25017
656.4301, 77.96104
656.9122, 78.94694
657.3943, 79.48889
657.8764, 80.36015
658.3585, 81.73731
658.8406, 83.04588
659.3228, 84.11942
659.8049, 84.97887
660.2870, 85.63770
660.7691, 86.08680
661.2512, 86.53087
661.7333, 87.24680
662.2155, 87.99812
662.6976, 88.29590
663.1797, 88.12893
663.6618, 87.77419
664.1439, 87.38892
664.6260, 86.92313
665.1082, 86.36192
665.5903, 85.76561
666.0724, 84.87930
666.5545, 83.48682
667.0366, 81.86600
667.5187, 80.27028
668.0009, 78.68172
668.4830, 77.16676
668.9651, 75.77003
669.4472, 74.42274
669.9293, 72.97923
670.4114, 71.43776
670.8936, 69.95759
671.3757, 68.57606
671.8578, 67.28043
672.3399, 66.01881
672.8220, 64.79639
673.3041, 63.65441
673.7863, 62.65565
674.2684, 61.70715
674.7505, 60.64712
675.2326, 59.54084
675.7147, 58.73745
676.1968, 58.70724
676.6790, 58.65227
677.1611, 58.17588
677.6432, 57.24890
678.1253, 56.51268
678.6074, 56.01396
679.0895, 55.63081
679.5717, 55.29337
680.0538, 54.99921
680.5359, 54.80782
681.0180, 54.72467
681.5001, 54.71399
681.9822, 54.76414
682.4644, 54.85805
682.9465, 54.99166
683.4286, 55.20328
683.9107, 55.29368
684.3928, 55.02161
684.8749, 54.58765
685.3571, 54.23186
685.8392, 53.95274
686.3213, 53.82821
686.8034, 53.98046
687.2855, 54.25972
687.7676, 54.42419
688.2498, 54.40989
688.7319, 54.45478
689.2140, 54.63209
689.6961, 54.88001
690.1782, 54.97708
690.6603, 54.93724
691.1425, 55.03193
691.6246, 55.57354
692.1067, 56.20618
692.5888, 56.23476
693.0709, 55.80886
693.5530, 55.57896
694.0352, 56.11021
694.5173, 56.78122
694.9994, 57.20732
695.4815, 57.35639
695.9636, 57.51210
696.4457, 57.56799
696.9279, 57.78802
697.4100, 58.38147
697.8921, 59.46435
698.3742, 60.09739
698.8563, 60.19171
699.3384, 60.10894
699.8206, 60.12269
700.3027, 60.22752
700.7848, 60.40250
701.2669, 60.64777
701.7490, 60.94734
702.2311, 61.30613
702.7133, 61.70301
703.1954, 62.11774
703.6775, 62.58315
704.1596, 62.98710
704.6417, 63.21166
705.1238, 63.38056
705.6060, 63.67077
706.0881, 64.25581
706.5702, 64.68346
707.0523, 64.83800
707.5344, 64.86691
708.0165, 65.10518
708.4987, 65.57011
708.9808, 65.93623
709.4629, 66.02611
709.9450, 66.06106
710.4271, 66.49036
710.9092, 67.23583
711.3914, 68.02455
711.8735, 68.79929
712.3556, 69.48392
712.8377, 69.99911
713.3198, 70.37234
713.8019, 70.72895
714.2841, 71.19070
714.7662, 71.55346
715.2483, 71.63871
715.7304, 71.46779
716.2125, 71.74939
716.6946, 72.65665
717.1768, 73.54763
717.6589, 73.96962
718.1410, 74.00742
718.6231, 74.29322
719.1052, 74.83533
719.5873, 75.45463
720.0695, 76.08717
720.5516, 76.68555
721.0337, 77.19894
721.5158, 77.61565
721.9979, 77.96465
722.4800, 78.16318
722.9622, 78.36425
723.4443, 78.70396
723.9264, 79.30551
724.4085, 79.79562
724.8906, 80.11926
725.3727, 80.40187
725.8549, 80.77129
726.3370, 81.23555
726.8191, 81.68119
727.3012, 82.05714
727.7833, 82.52555
728.2654, 83.49524
728.7476, 84.70269
729.2297, 85.48067
729.7118, 85.45888
730.1939, 85.34659
730.6760, 85.63911
731.1581, 86.14663
731.6403, 86.58070
732.1224, 86.62301
732.6045, 86.91102
733.0866, 87.68944
733.5687, 88.70181
734.0508, 89.38416
734.5330, 89.65111
735.0151, 89.95314
735.4972, 90.41390
735.9793, 90.98083
736.4614, 91.59516
736.9435, 92.23031
737.4257, 92.74840
737.9078, 93.01416
738.3899, 93.18442
738.8720, 93.39147
739.3541, 93.62131
739.8362, 93.82175
740.3184, 93.85033
740.8005, 93.96769
741.2826, 94.33822
741.7647, 94.92136
742.2468, 95.38726
742.7289, 95.72385
743.2111, 95.96793
743.6932, 96.12248
744.1753, 96.19619
744.6574, 96.18195
745.1395, 96.08601
745.6216, 96.11605
746.1038, 96.51026
746.5859, 97.06284
747.0680, 97.54416
747.5501, 97.94214
748.0322, 98.26507
748.5143, 98.29870
748.9965, 98.43155
749.4786, 98.97690
749.9607, 100.0872
750.4428, 100.8826
750.9249, 101.1862
751.4070, 101.4937
751.8892, 102.2424
752.3713, 103.4258
752.8534, 104.1854
753.3355, 104.4709
753.8176, 104.6642
754.2997, 105.0936
754.7819, 105.6775
755.2640, 106.2894
755.7461, 106.8945
756.2282, 107.5985
756.7103, 108.4113
757.1924, 109.3709
757.6746, 110.5339
758.1567, 112.2088
758.6388, 113.4516
759.1209, 114.0407
759.6030, 114.4807
760.0851, 115.3006
760.5673, 116.5175
761.0494, 117.7393
761.5315, 118.8964
762.0136, 120.1592
762.4957, 121.9153
762.9778, 123.8792
763.4600, 125.5014
763.9421, 126.4933
764.4242, 127.4634
764.9063, 128.5776
765.3884, 129.9270
765.8705, 131.6306
766.3527, 134.1191
766.8348, 136.3416
767.3169, 138.1301
767.7990, 139.7742
768.2811, 141.7165
768.7632, 143.9666
769.2454, 146.3546
769.7275, 148.8559
770.2096, 151.3962
770.6917, 153.7156
771.1738, 155.9830
771.6559, 158.6235
772.1381, 161.9049
772.6202, 165.4085
773.1023, 168.9287
773.5844, 172.4920
774.0665, 176.1272
774.5486, 180.0491
775.0308, 183.7111
775.5129, 186.8634
775.9950, 189.8572
776.4771, 193.3795
776.9592, 197.4661
777.4413, 201.8850
777.9235, 206.4994
778.4056, 211.5863
778.8877, 217.6895
779.3698, 224.6155
779.8519, 231.8938
780.3340, 238.9476
780.8162, 246.5832
781.2983, 255.3168
781.7804, 264.9572
782.2625, 274.9986
782.7446, 284.6086
783.2267, 295.6596
783.7089, 308.4992
784.1910, 323.0669
784.6731, 339.2976
785.1552, 357.2464
785.6373, 376.6818
786.1194, 396.7163
786.6016, 418.8728
787.0837, 444.2923
787.5658, 473.3203
788.0479, 506.9774
788.5300, 544.2615
789.0121, 586.9845
789.4943, 635.3521
789.9764, 689.6522
790.4585, 750.0565
790.9406, 817.4307
791.4227, 888.1607
791.9048, 961.7216
792.3870, 1037.097
792.8691, 1110.401
793.3512, 1182.381
793.8333, 1255.224
794.3154, 1329.650
794.7975, 1405.980
795.2797, 1480.693
795.7618, 1556.978
796.2439, 1641.148
796.7260, 1733.141
797.2081, 1837.245
797.6902, 1953.596
798.1724, 2082.348
798.6545, 2227.845
799.1366, 2389.733
799.6187, 2568.091
800.1008, 2765.651
800.5829, 2978.045
801.0651, 3195.723
801.5472, 3416.735
802.0293, 3635.738
802.5114, 3858.006
802.9935, 4068.538
803.4756, 4267.498
803.9578, 4444.325
804.4399, 4560.575
804.9220, 4625.537
805.4041, 4602.327
805.8862, 4479.214
806.3683, 4264.572
806.8505, 3980.865
807.3326, 3614.888
807.8147, 3236.764
808.2968, 2857.428
808.7789, 2491.865
809.2610, 2171.020
809.7432, 1893.320
810.2253, 1652.287
810.7074, 1450.083
811.1895, 1278.476
811.6716, 1134.690
812.1537, 1016.102
812.6359, 914.3834
813.1180, 832.7313
813.6001, 761.5548
814.0822, 699.8717
814.5643, 646.6758
815.0464, 599.9961
815.5286, 560.0247
816.0107, 524.3651
816.4928, 492.5779
816.9749, 464.1063
817.4570, 438.2577
817.9391, 415.1508
818.4213, 394.3409
818.9034, 376.7731
819.3855, 360.5582
819.8676, 345.3035
820.3497, 330.9543
820.8318, 317.4277
821.3140, 304.8290
821.7961, 293.1156
822.2782, 282.2639
822.7603, 272.3335
823.2424, 263.0877
823.7245, 254.4439
824.2067, 246.1650
824.6888, 238.0883
825.1709, 230.2902
825.6530, 222.6976
826.1351, 215.3079
826.6172, 208.3582
827.0994, 201.9195
827.5815, 195.7694
828.0636, 189.8201
828.5457, 184.0925
829.0278, 178.4192
829.5099, 172.7661
829.9921, 167.6247
830.4742, 163.2110
830.9563, 159.1932
831.4384, 154.9770
831.9205, 150.6874
832.4026, 146.6082
832.8848, 142.7383
833.3669, 139.1778
833.8490, 136.1209
834.3311, 133.3599
834.8132, 130.5295
835.2953, 127.3876
835.7775, 124.5958
836.2596, 122.3095
836.7417, 120.3142
837.2238, 118.3070
837.7059, 116.2668
838.1880, 114.2322
838.6702, 112.1752
839.1523, 110.1902
839.6344, 108.3182
840.1165, 106.5941
840.5986, 105.1150
841.0807, 104.1210
841.5629, 103.0068
842.0450, 101.4979
842.5271, 99.93442
843.0092, 98.69090
843.4913, 97.84115
843.9734, 96.87058
844.4556, 95.69820
844.9377, 94.53425
845.4198, 93.63900
845.9019, 92.94015
846.3840, 92.28367
846.8661, 91.65519
847.3483, 91.00050
847.8304, 90.25830
848.3125, 89.49514
848.7946, 88.75622
849.2767, 87.99759
849.7589, 87.42237
850.2410, 87.09331
850.7231, 86.82780
851.2052, 86.39915
851.6873, 85.86613
852.1694, 85.63161
852.6516, 85.72792
853.1337, 85.91435
853.6158, 86.08919
854.0979, 86.19495
854.5800, 86.19923
855.0621, 86.10727
855.5443, 85.81124
856.0264, 84.97570
856.5085, 84.26751
856.9906, 84.07463
857.4727, 84.39836
857.9548, 84.56553
858.4370, 84.57935
858.9191, 84.41045
859.4012, 83.88647
859.8833, 83.23820
860.3654, 82.86006
860.8475, 82.73556
861.3297, 82.62067
861.8118, 82.57872
862.2939, 82.35222
862.7760, 81.62487
863.2581, 80.51323
863.7402, 79.92062
864.2224, 80.02466
864.7045, 80.04920
865.1866, 79.62657
865.6687, 78.93127
866.1508, 78.37782
866.6329, 77.95104
867.1151, 77.60838
867.5972, 77.46506
868.0793, 77.26301
868.5614, 76.61805
869.0435, 75.77268
869.5256, 75.55054
870.0078, 76.44252
870.4899, 77.12127
870.9720, 77.25688
871.4541, 77.13823
871.9362, 77.29877
872.4183, 77.75510
872.9005, 78.68811
873.3826, 80.31983
873.8647, 82.09366
874.3468, 83.53252
874.8289, 84.74407
875.3110, 85.87131
875.7932, 86.95538
876.2753, 87.93723
876.7574, 88.85279
877.2395, 89.63506
877.7216, 90.10337
878.2037, 90.21722
878.6859, 90.72970
879.1680, 91.75774
879.6501, 93.05987
880.1322, 94.37019
880.6143, 95.80006
881.0964, 97.49250
881.5786, 99.45753
882.0607, 101.7674
882.5428, 104.5450
883.0249, 107.6315
883.5070, 110.9105
883.9891, 114.4474
884.4713, 117.6598
884.9534, 120.3016
885.4355, 123.7255
885.9176, 130.3579
886.3997, 138.1203
886.8818, 144.2342
887.3640, 148.1837
887.8461, 145.6771
888.3282, 129.1201
888.8103, 110.2284
889.2924, 94.68921
889.7745, 82.65670
890.2567, 73.39828
890.7388, 67.38562
891.2209, 62.97129
891.7030, 59.70626
892.1851, 57.36959
892.6672, 55.49455
893.1494, 53.99700
893.6315, 52.55541
894.1136, 50.83987
894.5957, 49.27448
895.0778, 48.11765
895.5599, 47.28735
896.0421, 46.61161
896.5242, 46.14697
897.0063, 45.66108
897.4884, 45.11001
897.9705, 44.53682
898.4526, 44.01925
898.9348, 43.55611
899.4169, 43.15105
899.8990, 42.81709
900.3811, 42.49268
900.8632, 42.02205
901.3453, 41.58031
901.8275, 41.38367
902.3096, 41.82970
902.7917, 41.83002
903.2738, 41.15048
903.7559, 40.35892
904.2380, 39.97779
904.7202, 39.96581
905.2023, 39.99241
905.6844, 40.03938
906.1665, 40.03633
906.6486, 39.92908
907.1307, 39.74320
907.6129, 39.43047
908.0950, 38.97393
908.5771, 38.76295
909.0592, 38.97847
909.5413, 39.25138
910.0234, 39.36686
910.5056, 39.40645
910.9877, 40.15199
911.4698, 41.53780
911.9519, 42.31778
912.4340, 41.23517
912.9161, 39.65230
913.3983, 38.89302
913.8804, 38.76361
914.3625, 38.72979
914.8446, 38.70593
915.3267, 38.68997
915.8088, 38.66929
916.2910, 38.66422
916.7731, 38.74425
917.2552, 38.90568
917.7373, 38.96655
918.2194, 38.85000
918.7015, 38.73795
919.1837, 38.82977
919.6658, 39.04979
920.1479, 39.30613
920.6300, 39.63375
921.1121, 39.87038
921.5942, 39.97126
922.0764, 40.00998
922.5585, 40.02139
923.0406, 40.00228
923.5227, 40.04320
924.0048, 40.14337
924.4869, 40.35862
924.9691, 40.86278
925.4512, 41.42929
925.9333, 41.76171
926.4154, 41.85614
926.8975, 42.00305
927.3796, 42.33144
927.8618, 42.67113
928.3439, 42.96312
928.8260, 43.22168
929.3081, 43.50892
929.7902, 43.82650
930.2723, 44.23582
930.7545, 44.79315
931.2366, 45.41669
931.7187, 45.84003
932.2008, 46.27520
932.6829, 47.15340
933.1650, 49.81160
933.6472, 51.23479
934.1293, 50.42920
934.6114, 48.82244
935.0935, 48.47651
935.5756, 49.37548
936.0577, 50.13501
936.5399, 50.53186
937.0220, 50.93647
937.5041, 51.84064
937.9862, 52.88079
938.4683, 53.61662
938.9504, 53.93527
939.4326, 54.16042
939.9147, 54.23918
940.3968, 54.36596
940.8789, 54.63688
941.3610, 55.04832
941.8431, 55.65206
942.3253, 56.43984
942.8074, 57.04076
943.2895, 56.94499
943.7716, 56.77141
944.2537, 57.32066
944.7358, 58.31928
945.2180, 58.72853
945.7001, 57.55310
946.1822, 56.86729
946.6643, 57.21466
947.1464, 58.06044
947.6285, 58.29039
948.1107, 57.96766
948.5928, 57.52369
949.0749, 57.02551
949.5570, 56.56950
950.0391, 56.27171
950.5212, 56.04731
951.0034, 55.80442
951.4855, 55.51903
951.9676, 55.21279
952.4497, 54.81960
952.9318, 54.52178
953.4139, 54.52760
953.8961, 54.77052
954.3782, 54.84256
954.8603, 54.74543
955.3424, 54.65172
955.8245, 54.63249
956.3066, 54.69592
956.7888, 54.84657
957.2709, 55.08919
957.7530, 55.43874
958.2351, 55.97759
958.7172, 56.41554
959.1993, 56.62599
959.6815, 56.76117
960.1636, 57.15485
960.6457, 57.75010
961.1278, 58.36640
961.6099, 58.96130
962.0920, 59.53508
962.5742, 60.11347
963.0563, 60.65828
963.5384, 61.11523
964.0205, 61.46313
964.5026, 61.78429
964.9847, 62.06039
965.4669, 62.36516
965.9490, 62.90554
966.4311, 63.47748
966.9132, 63.57868
967.3953, 63.21751
967.8774, 62.92828
968.3596, 63.24334
968.8417, 63.42673
969.3238, 63.09465
969.8059, 62.33468
970.2880, 61.52246
970.7701, 60.66404
971.2523, 59.62136
971.7344, 58.25160
972.2165, 56.81977
972.6986, 55.77703
973.1807, 54.91536
973.6628, 53.83245
974.1450, 52.08046
974.6271, 50.61454
975.1092, 49.88641
975.5913, 49.24227
976.0734, 47.83217
976.5555, 45.62168
977.0377, 44.85852
977.5198, 45.73020
978.0019, 46.63505
978.4840, 46.43354
978.9661, 45.50483
979.4482, 44.00690
979.9304, 42.00866
980.4125, 40.28709
980.8946, 38.95728
981.3767, 37.88008
981.8588, 37.03834
982.3409, 36.39041
982.8231, 35.85358
983.3052, 35.41412
983.7873, 34.99903
984.2694, 34.56861
984.7515, 34.18087
985.2336, 33.90531
985.7158, 33.68336
986.1979, 33.43867
986.6800, 33.15107
987.1621, 32.86589
987.6442, 32.57188
988.1263, 32.31077
988.6085, 32.16571
989.0906, 32.07353
989.5727, 31.87323
990.0548, 31.56473
990.5369, 31.24545
991.0190, 30.98894
991.5012, 30.70879
991.9833, 30.26657
992.4654, 29.76999
992.9475, 29.64807
993.4296, 29.94829
993.9117, 30.18043
994.3939, 30.17862
994.8760, 30.09311
995.3581, 30.21760
995.8402, 30.36640
996.3223, 30.21123
996.8044, 29.42988
997.2866, 28.87752
997.7687, 28.78243
998.2508, 28.81075
998.7329, 28.68250
999.2150, 28.41414
999.6971, 28.42202
1000.179, 28.69871
1000.661, 28.94011
1001.143, 28.89806
1001.626, 28.77084
1002.108, 28.68586
1002.590, 28.64854
1003.072, 28.66465
1003.554, 28.82812
1004.036, 28.79727
1004.518, 28.44271
1005.000, 27.97461
1005.483, 27.76294
1005.965, 27.72980
1006.447, 27.65697
1006.929, 27.45694
1007.411, 27.36411
1007.893, 27.64169
1008.375, 27.94928
1008.857, 28.01807
1009.339, 27.82475
1009.822, 27.72727
1010.304, 27.73341
1010.786, 27.75165
1011.268, 27.75376
1011.750, 27.71551
1012.232, 27.53527
1012.714, 27.28527
1013.196, 27.17092
1013.679, 27.44003
1014.161, 27.59501
1014.643, 27.53267
1015.125, 27.36466
1015.607, 27.23874
1016.089, 27.15086
1016.571, 27.08179
1017.053, 27.03272
1017.535, 26.96374
1018.018, 26.78404
1018.500, 26.61922
1018.982, 26.61315
1019.464, 26.77731
1019.946, 26.74926
1020.428, 26.46813
1020.910, 26.22315
1021.392, 26.16395
1021.875, 26.18769
1022.357, 26.06632
1022.839, 25.87168
1023.321, 25.77656
1023.803, 25.97278
1024.285, 26.08812
1024.767, 25.97278
1025.249, 25.78852
1025.731, 25.68673
1026.214, 25.66774
1026.696, 25.64530
1027.178, 25.61654
1027.660, 25.54392
1028.142, 25.33900
1028.624, 25.12411
1029.106, 24.99368
1029.588, 24.95371
1030.071, 24.99702
1030.553, 25.19815
1031.035, 25.28269
1031.517, 25.13631
1031.999, 24.92173
1032.481, 24.96889
1032.963, 25.17879
1033.445, 25.29580
1033.927, 25.24197
1034.410, 25.15243
1034.892, 25.02637
1035.374, 24.93981
1035.856, 24.95642
1036.338, 25.07909
1036.820, 25.17332
1037.302, 25.23849
1037.784, 25.23733
1038.266, 25.05706
1038.749, 24.87381
1039.231, 24.95200
1039.713, 25.16072
1040.195, 25.17459
1040.677, 24.76473
1041.159, 24.45918
1041.641, 24.30228
1042.123, 24.25567
1042.605, 24.32766
1043.088, 24.46508
1043.570, 24.50009
1044.052, 24.41524
1044.534, 24.33234
1045.016, 24.28900
1045.498, 24.29482
1045.980, 24.37895
1046.462, 24.51524
1046.945, 24.60241
1047.427, 24.64288
1047.909, 24.56843
1048.391, 24.30978
1048.873, 24.04088
1049.355, 23.95547
1049.837, 23.97047
1050.319, 23.97138
1050.802, 23.91001
1051.284, 23.90658
1051.766, 23.99049
1052.248, 24.06846
1052.730, 24.06322
1053.212, 24.00064
1053.694, 23.94073
1054.176, 23.89250
1054.658, 23.89631
1055.141, 24.05560
1055.623, 24.17231
1056.105, 24.17241
1056.587, 24.09012
1057.069, 23.95090
1057.551, 23.75192
1058.033, 23.59344
1058.515, 23.48785
1058.998, 23.41983
1059.480, 23.40872
1059.962, 23.40308
1060.444, 23.33122
1060.926, 23.18985
1061.408, 23.15535
1061.890, 23.29317
1062.372, 23.36386
1062.854, 23.24814
1063.337, 23.07863
1063.819, 23.17636
1064.301, 23.40708
1064.783, 23.46258
1065.265, 23.17551
1065.747, 22.89895
1066.229, 22.72030
1066.711, 22.60436
1067.193, 22.54592
1067.676, 22.54105
1068.158, 22.49343
1068.640, 22.40687
1069.122, 22.34210
1069.604, 22.35671
1070.086, 22.38413
1070.568, 22.32758
1071.050, 22.26502
1071.532, 22.39783
1072.015, 22.86615
1072.497, 23.01267
1072.979, 22.72288
1073.461, 22.33084
1073.943, 22.21044
1074.425, 22.20207
1074.907, 22.04783
1075.389, 21.73809
1075.872, 21.53945
1076.354, 21.55831
1076.836, 21.65555
1077.318, 21.84646
1077.800, 22.04017
1078.282, 21.99996
1078.764, 21.78273
1079.246, 21.58877
1079.729, 21.45428
1080.211, 21.40151
1080.693, 21.55278
1081.175, 21.69598
1081.657, 21.63656
1082.139, 21.37460
1082.621, 21.36854
1083.103, 21.62486
1083.585, 21.74924
1084.068, 21.36941
1084.550, 20.93049
1085.032, 20.85564
1085.514, 21.02931
1085.996, 21.27512
1086.478, 21.76203
1086.960, 21.82845
1087.442, 21.33084
1087.925, 20.79955
1088.407, 20.80258
1088.889, 21.08605
1089.371, 21.19692
1089.853, 21.13299
1090.335, 21.03498
1090.817, 20.85219
1091.299, 20.79284
1091.781, 20.99224
1092.264, 21.24430
1092.746, 21.07638
1093.228, 20.60192
1093.710, 20.40585
1094.192, 20.61539
1094.674, 20.83588
1095.156, 20.77086
1095.638, 20.66679
1096.120, 20.71105
1096.603, 20.87511
1097.085, 20.92849
1097.567, 20.86676
1098.049, 20.79698
1098.531, 20.73995
1099.013, 20.72861
1099.495, 20.88689
1099.977, 21.06819
1100.459, 21.06472
1100.942, 20.74871
1101.424, 20.56105
1101.906, 20.52941
1102.388, 20.53588
1102.870, 20.48351
1103.352, 20.42799
1103.834, 20.51750
1104.316, 20.69571
1104.799, 20.80147
1105.281, 20.64091
1105.763, 20.61374
1106.245, 20.84110
1106.727, 21.11036
1107.209, 21.13419
1107.691, 20.98976
1108.173, 21.02494
1108.656, 21.24725
1109.138, 21.45203
1109.620, 21.48059
1110.102, 21.51408
1110.584, 21.66343
1111.066, 21.86534
1111.548, 21.97658
1112.030, 22.00019
1112.512, 22.06019
1112.995, 22.18314
1113.477, 22.31953
1113.959, 22.27006
1114.441, 22.33447
1114.923, 22.90268
1115.405, 23.95584
1115.887, 24.58268
1116.369, 24.70319
1116.852, 24.91190
1117.334, 25.54110
1117.816, 26.10121
1118.298, 25.93329
1118.780, 25.27637
1119.262, 24.43206
1119.744, 23.33445
1120.226, 22.44274
1120.708, 21.79471
1121.191, 21.29428
1121.673, 20.90170
1122.155, 20.60193
1122.637, 20.34096
1123.119, 20.13063
1123.601, 20.00361
1124.083, 20.05112
1124.565, 20.07285
1125.047, 20.01559
1125.530, 19.95164
1126.012, 19.98379
1126.494, 20.07540
1126.976, 19.96312
1127.458, 19.67340
1127.940, 19.49359
1128.422, 19.62733
1128.904, 19.86646
1129.386, 20.24322
1129.869, 20.59602
1130.351, 20.63187
1130.833, 20.35653
1131.315, 20.09335
1131.797, 19.87465
1132.279, 19.74154
1132.761, 19.77585
1133.243, 19.86292
1133.726, 19.93605
1134.208, 19.98887
1134.690, 20.02217
1135.172, 20.04148
1135.654, 19.97988
1136.136, 19.79319
1136.618, 19.62667
1137.100, 19.67231
1137.583, 19.80532
1138.065, 19.90142
1138.547, 19.94117
1139.029, 19.92710
1139.511, 19.83630
1139.993, 19.76719
1140.475, 19.75094
1140.957, 19.78919
1141.439, 19.91309
1141.922, 20.08423
1142.404, 20.23729
1142.886, 20.33978
1143.368, 20.47513
1143.850, 20.68843
1144.332, 20.84459
1144.814, 20.83663
1145.296, 20.72140
1145.779, 20.60049
1146.261, 20.49752
1146.743, 20.47826
1147.225, 20.60309
1147.707, 20.77934
1148.189, 21.06017
1148.671, 21.29405
1149.153, 21.29803
1149.635, 21.13354
1150.118, 21.10410
1150.600, 21.20239
1151.082, 21.32001
1151.564, 21.40915
1152.046, 21.49900
1152.528, 21.61321
1153.010, 21.72284
1153.492, 21.79922
1153.974, 21.83950
1154.457, 21.76864
1154.939, 21.58344
1155.421, 21.47788
1155.903, 21.68351
1156.385, 21.90773
1156.867, 21.94725
1157.349, 21.88483
1157.831, 21.92954
1158.313, 22.08442
1158.796, 22.10181
1159.278, 21.92523
1159.760, 21.73580
1160.242, 21.69808
1160.724, 21.70182
1161.206, 21.68400
1161.688, 21.63112
1162.170, 21.45152
1162.653, 21.12387
1163.135, 20.90338
1163.617, 20.89075
1164.099, 20.90765
1164.581, 20.73484
1165.063, 20.51179
1165.545, 20.39728
1166.027, 20.41933
1166.510, 20.42738
1166.992, 20.43921
1167.474, 20.33275
1167.956, 20.02703
1168.438, 19.63477
1168.920, 19.15453
1169.402, 18.74418
1169.884, 18.65652
1170.366, 19.08605
1170.849, 19.38840
1171.331, 19.57614
1171.813, 19.58649
1172.295, 19.29272
1172.777, 18.88894
1173.259, 18.66963
1173.741, 18.58399
1174.223, 18.53738
1174.706, 18.52420
1175.188, 18.51090
1175.670, 18.47751
1176.152, 18.49428
1176.634, 18.68522
1177.116, 18.92782
1177.598, 18.97680
1178.080, 18.87116
1178.563, 18.73776
1179.045, 18.59429
1179.527, 18.45606
1180.009, 18.32158
1180.491, 18.19480
1180.973, 18.06960
1181.455, 17.95585
1181.937, 17.84631
1182.419, 17.76298
1182.901, 17.80599
1183.384, 18.23581
1183.866, 18.46900
1184.348, 18.35773
1184.830, 18.12119
1185.312, 18.01968
1185.794, 18.01437
1186.276, 18.00795
1186.758, 17.99346
1187.240, 17.98819
1187.723, 17.99176
1188.205, 18.02143
1188.687, 18.10292
1189.169, 18.18093
1189.651, 18.14043
1190.133, 18.02250
1190.615, 17.93359
1191.097, 17.88770
1191.580, 17.94559
1192.062, 18.34638
1192.544, 18.58323
1193.026, 18.45684
1193.508, 18.11002
1193.990, 17.75624
1194.472, 17.44773
1194.954, 17.44113
1195.437, 17.82670
1195.919, 18.07899
1196.401, 17.80010
1196.883, 17.51927
1197.365, 17.45985
1197.847, 17.54947
1198.329, 17.58606
1198.811, 17.58648
1199.293, 17.63317
1199.776, 17.77302
1200.258, 17.83576
1200.740, 17.59366
1201.222, 17.42309
1201.704, 17.57643
1202.186, 17.92270
1202.668, 17.89174
1203.150, 17.57492
1203.633, 17.33681
1204.115, 17.30424
1204.597, 17.33013
1205.079, 17.39289
1205.561, 17.44993
1206.043, 17.46679
1206.525, 17.45765
1207.007, 17.52032
1207.490, 17.62910
1207.972, 17.67066
1208.454, 17.59485
1208.936, 17.45588
1209.418, 17.10894
1209.900, 16.87628
1210.382, 17.06280
1210.864, 17.56878
1211.346, 17.64591
1211.828, 17.37532
1212.311, 17.14934
1212.793, 17.16481
1213.275, 17.22049
1213.757, 17.26360
1214.239, 17.29785
1214.721, 17.30343
1215.203, 17.29498
1215.685, 17.44617
1216.167, 17.71274
1216.650, 17.86239
1217.132, 17.60992
1217.614, 17.44879
1218.096, 17.64427
1218.578, 17.87359
1219.060, 17.81046
1219.542, 17.51364
1220.024, 17.39352
1220.507, 17.43137
1220.989, 17.47726
1221.471, 17.48145
1221.953, 17.44828
1222.435, 17.35266
1222.917, 17.25363
1223.399, 17.21512
1223.881, 17.22665
1224.364, 17.23907
1224.846, 17.25136
1225.328, 17.26889
1225.810, 17.26861
1226.292, 17.31781
1226.774, 17.48923
1227.256, 17.63682
1227.738, 17.54763
1228.220, 17.29171
1228.703, 17.10753
1229.185, 17.00474
1229.667, 16.94977
1230.149, 16.91355
1230.631, 16.95584
1231.113, 17.12964
1231.595, 17.31786
1232.077, 17.38521
1232.560, 17.34452
1233.042, 17.16252
1233.524, 16.87072
1234.006, 16.72131
1234.488, 16.97155
1234.970, 17.16958
1235.452, 17.23104
1235.934, 17.20410
1236.417, 17.08936
1236.899, 16.95503
1237.381, 16.98238
1237.863, 17.16794
1238.345, 17.33154
1238.827, 17.43735
1239.309, 17.47550
1239.791, 17.43885
1240.273, 17.34558
1240.755, 17.17096
1241.238, 16.97705
1241.720, 16.88950
1242.202, 16.91202
1242.684, 16.94606
1243.166, 16.97063
1243.648, 17.01266
1244.130, 17.09059
1244.612, 17.15157
1245.094, 17.06820
1245.577, 16.95436
1246.059, 17.03910
1246.541, 17.31704
1247.023, 17.38502
1247.505, 17.12008
1247.987, 16.91139
1248.469, 16.83567
1248.951, 16.85660
1249.434, 17.00600
1249.916, 17.17653
1250.398, 17.23767
1250.880, 17.17947
1251.362, 17.08832
1251.844, 16.93682
1252.326, 16.91031
1252.808, 17.07560
1253.291, 17.26767
1253.773, 17.32080
1254.255, 17.30225
1254.737, 17.28760
1255.219, 17.26969
1255.701, 17.12023
1256.183, 16.80380
1256.665, 16.70240
1257.147, 16.94366
1257.630, 17.18835
1258.112, 17.09125
1258.594, 16.88738
1259.076, 16.71928
1259.558, 16.61815
1260.040, 16.75788
1260.522, 17.13280
1261.004, 17.33809
1261.487, 17.26545
1261.969, 17.14730
1262.451, 17.18004
1262.933, 17.20430
1263.415, 17.07297
1263.897, 16.86164
1264.379, 16.84780
1264.861, 17.00444
1265.344, 17.16138
1265.826, 17.29630
1266.308, 17.30289
1266.790, 16.92974
1267.272, 16.62951
1267.754, 16.65684
1268.236, 16.87282
1268.718, 16.89968
1269.200, 16.79836
1269.682, 16.80698
1270.165, 16.98635
1270.647, 17.12095
1271.129, 17.07269
1271.611, 17.02752
1272.093, 17.06604
1272.575, 17.11284
1273.057, 16.93493
1273.539, 16.66829
1274.021, 16.67296
1274.504, 17.04287
1274.986, 17.23083
1275.468, 17.06069
1275.950, 16.85563
1276.432, 16.65627
1276.914, 16.58408
1277.396, 17.02654
1277.878, 17.62170
1278.361, 17.77099
1278.843, 17.36947
1279.325, 17.09384
1279.807, 16.99243
1280.289, 16.98804
1280.771, 17.08261
1281.253, 17.19055
1281.735, 17.22192
1282.218, 17.20279
1282.700, 17.15070
1283.182, 17.07026
1283.664, 16.99570
1284.146, 16.92256
1284.628, 16.91941
1285.110, 17.02040
1285.592, 17.10927
1286.074, 17.04594
1286.557, 16.96176
1287.039, 16.95107
1287.521, 17.00788
1288.003, 17.14653
1288.485, 17.35310
1288.967, 17.45905
1289.449, 17.42277
1289.931, 17.32432
1290.414, 17.11596
1290.896, 16.97507
1291.378, 17.01740
1291.860, 17.15324
1292.342, 17.12980
1292.824, 17.00536
1293.306, 17.01199
1293.788, 17.20229
1294.271, 17.30810
1294.753, 16.92197
1295.235, 16.87288
1295.717, 17.46445
1296.199, 18.36177
1296.681, 19.31063
1297.163, 20.00741
1297.645, 19.67469
1298.127, 18.22231
1298.609, 17.18866
1299.092, 16.78905
1299.574, 16.72006
1300.056, 16.99226
1300.538, 17.28924
1301.020, 17.17694
1301.502, 16.91059
1301.984, 16.77134
1302.466, 16.77712
1302.948, 16.79889
1303.431, 16.83546
1303.913, 16.89470
1304.395, 16.98077
##END=



