##NAMES=Vandendriesscheite
##RRUFFID=R090064
##IDEAL CHEMISTRY=Pb^2+^_1.6_(U^6+^O_2_)_10_O_6_(OH)_11_&#183;11H_2_O
##LOCALITY=Shinkolobwe mine, Katanga, Congo
##OWNER=RRUFF
##SOURCE=William W. Pinch
##DESCRIPTION=Yellowish-orange blocky crystals associated with dark reddish-orange fourmarierite
##STATUS=The identification of this mineral has been confirmed by single-crystal X-ray diffraction.
##URL=rruff.info/R090064
92.07813, 53.56447
92.56024, 52.56535
93.04236, 52.72200
93.52448, 53.97036
94.00659, 56.07211
94.48871, 60.84147
94.97083, 66.45388
95.45294, 67.28577
95.93506, 61.30527
96.41718, 53.09670
96.89929, 50.52873
97.38141, 53.66740
97.86353, 59.20473
98.34564, 67.48586
98.82776, 77.99511
99.30988, 81.38785
99.79199, 73.85809
100.2741, 58.90450
100.7562, 49.92875
101.2383, 48.14098
101.7205, 48.94863
102.2026, 48.00103
102.6847, 44.46930
103.1668, 42.53750
103.6489, 43.85799
104.1310, 48.54963
104.6132, 50.18852
105.0953, 46.72206
105.5774, 42.12612
106.0595, 41.58796
106.5416, 47.95974
107.0237, 54.00204
107.5059, 57.53875
107.9880, 57.00597
108.4701, 58.86482
108.9522, 66.22998
109.4343, 75.39899
109.9164, 79.76933
110.3986, 74.55333
110.8807, 68.47141
111.3628, 63.87034
111.8449, 60.22594
112.3270, 59.07143
112.8091, 63.19862
113.2913, 70.25908
113.7734, 73.70271
114.2555, 65.94189
114.7376, 58.62088
115.2197, 58.14095
115.7018, 73.77968
116.1840, 87.04786
116.6661, 91.70073
117.1482, 89.17484
117.6303, 86.94701
118.1124, 87.60118
118.5945, 89.81615
119.0767, 92.43402
119.5588, 94.81684
120.0409, 97.75877
120.5230, 100.8010
121.0051, 104.0564
121.4872, 110.1561
121.9694, 121.9121
122.4515, 137.2231
122.9336, 153.2469
123.4157, 167.9559
123.8978, 183.1649
124.3799, 200.8908
124.8621, 221.3652
125.3442, 242.3498
125.8263, 260.9548
126.3084, 278.4527
126.7905, 298.0442
127.2726, 323.3618
127.7548, 351.1364
128.2369, 375.2826
128.7190, 394.6456
129.2011, 413.1403
129.6832, 437.2562
130.1653, 465.6711
130.6474, 491.8045
131.1296, 510.0584
131.6117, 522.3997
132.0938, 536.1434
132.5759, 551.8403
133.0580, 569.7894
133.5401, 592.2665
134.0223, 619.5651
134.5044, 644.4055
134.9865, 656.6794
135.4686, 657.2285
135.9507, 671.6268
136.4328, 706.7886
136.9150, 756.6164
137.3971, 801.1942
137.8792, 840.6328
138.3613, 875.4515
138.8434, 904.0016
139.3255, 924.2922
139.8077, 949.5788
140.2898, 984.8242
140.7719, 1028.037
141.2540, 1063.294
141.7361, 1088.209
142.2182, 1108.482
142.7004, 1130.013
143.1825, 1154.900
143.6646, 1175.390
144.1467, 1188.585
144.6288, 1194.188
145.1109, 1199.563
145.5931, 1201.759
146.0752, 1206.101
146.5573, 1219.994
147.0394, 1252.344
147.5215, 1281.319
148.0036, 1300.659
148.4858, 1308.328
148.9679, 1315.387
149.4500, 1317.985
149.9321, 1321.241
150.4142, 1332.701
150.8963, 1361.754
151.3785, 1390.520
151.8606, 1412.847
152.3427, 1423.630
152.8248, 1440.841
153.3069, 1470.790
153.7890, 1506.843
154.2712, 1532.754
154.7533, 1533.437
155.2354, 1533.969
155.7175, 1541.160
156.1996, 1561.378
156.6817, 1576.503
157.1639, 1581.982
157.6460, 1580.874
158.1281, 1579.500
158.6102, 1578.602
159.0923, 1578.214
159.5744, 1578.501
160.0566, 1580.576
160.5387, 1581.607
161.0208, 1579.916
161.5029, 1576.461
161.9850, 1574.003
162.4671, 1576.050
162.9493, 1577.951
163.4314, 1576.118
163.9135, 1563.786
164.3956, 1555.191
164.8777, 1560.094
165.3598, 1575.118
165.8420, 1586.301
166.3241, 1581.596
166.8062, 1572.574
167.2883, 1569.621
167.7704, 1579.372
168.2525, 1592.060
168.7346, 1604.130
169.2168, 1615.075
169.6989, 1621.552
170.1810, 1616.484
170.6631, 1607.359
171.1452, 1603.192
171.6273, 1610.974
172.1095, 1621.706
172.5916, 1628.589
173.0737, 1631.810
173.5558, 1633.243
174.0379, 1633.582
174.5201, 1633.135
175.0022, 1632.337
175.4843, 1628.308
175.9664, 1625.664
176.4485, 1631.678
176.9306, 1646.175
177.4128, 1660.938
177.8949, 1669.153
178.3770, 1672.335
178.8591, 1674.036
179.3412, 1676.401
179.8233, 1677.878
180.3055, 1674.428
180.7876, 1665.657
181.2697, 1657.985
181.7518, 1659.981
182.2339, 1668.805
182.7160, 1675.327
183.1982, 1674.299
183.6803, 1668.462
184.1624, 1662.881
184.6445, 1657.369
185.1266, 1653.915
185.6087, 1658.282
186.0909, 1668.402
186.5730, 1672.962
187.0551, 1660.551
187.5372, 1638.055
188.0193, 1630.753
188.5014, 1641.414
188.9836, 1656.607
189.4657, 1657.819
189.9478, 1646.317
190.4299, 1636.780
190.9120, 1638.064
191.3941, 1647.850
191.8763, 1653.308
192.3584, 1653.527
192.8405, 1651.415
193.3226, 1651.543
193.8047, 1653.928
194.2868, 1654.870
194.7690, 1651.443
195.2511, 1644.143
195.7332, 1639.966
196.2153, 1639.814
196.6974, 1641.161
197.1795, 1639.191
197.6617, 1633.573
198.1438, 1629.067
198.6259, 1628.845
199.1080, 1632.897
199.5901, 1634.646
200.0722, 1633.508
200.5544, 1630.721
201.0365, 1628.787
201.5186, 1627.978
202.0007, 1626.162
202.4828, 1620.767
202.9649, 1611.120
203.4471, 1607.904
203.9292, 1613.469
204.4113, 1622.803
204.8934, 1625.388
205.3755, 1619.559
205.8576, 1613.547
206.3398, 1612.048
206.8219, 1616.243
207.3040, 1616.494
207.7861, 1611.339
208.2682, 1603.501
208.7503, 1598.856
209.2325, 1598.326
209.7146, 1598.236
210.1967, 1597.054
210.6788, 1594.719
211.1609, 1591.387
211.6430, 1586.159
212.1252, 1580.621
212.6073, 1579.092
213.0894, 1583.425
213.5715, 1586.969
214.0536, 1586.126
214.5357, 1579.110
215.0179, 1574.448
215.5000, 1572.739
215.9821, 1572.991
216.4642, 1573.076
216.9463, 1572.943
217.4284, 1572.721
217.9105, 1572.399
218.3927, 1571.846
218.8748, 1571.593
219.3569, 1571.599
219.8390, 1571.912
220.3211, 1572.740
220.8032, 1574.416
221.2854, 1575.974
221.7675, 1576.830
222.2496, 1576.324
222.7317, 1577.156
223.2138, 1579.655
223.6959, 1583.310
224.1781, 1587.117
224.6602, 1590.972
225.1423, 1595.112
225.6244, 1599.734
226.1065, 1605.501
226.5886, 1609.913
227.0708, 1612.615
227.5529, 1614.168
228.0350, 1615.976
228.5171, 1619.224
228.9992, 1620.762
229.4813, 1618.888
229.9635, 1611.840
230.4456, 1606.636
230.9277, 1602.204
231.4098, 1600.199
231.8919, 1604.549
232.3740, 1619.505
232.8562, 1633.974
233.3383, 1644.386
233.8204, 1650.723
234.3025, 1652.615
234.7846, 1646.961
235.2667, 1638.561
235.7489, 1636.617
236.2310, 1644.937
236.7131, 1653.530
237.1952, 1659.317
237.6773, 1661.834
238.1594, 1662.681
238.6416, 1660.174
239.1237, 1657.037
239.6058, 1657.881
240.0879, 1664.863
240.5700, 1672.379
241.0521, 1678.730
241.5343, 1683.527
242.0164, 1688.560
242.4985, 1693.743
242.9806, 1699.192
243.4627, 1705.260
243.9448, 1712.895
244.4270, 1719.402
244.9091, 1723.338
245.3912, 1723.652
245.8733, 1727.561
246.3554, 1738.832
246.8375, 1750.693
247.3197, 1753.300
247.8018, 1740.090
248.2839, 1729.423
248.7660, 1726.442
249.2481, 1732.163
249.7302, 1738.094
250.2124, 1745.958
250.6945, 1752.559
251.1766, 1754.001
251.6587, 1748.123
252.1408, 1741.212
252.6229, 1733.299
253.1051, 1723.895
253.5872, 1721.849
254.0693, 1731.464
254.5514, 1743.607
255.0335, 1748.193
255.5156, 1740.657
255.9978, 1735.608
256.4799, 1737.071
256.9620, 1744.957
257.4441, 1748.332
257.9262, 1745.289
258.4083, 1740.175
258.8904, 1737.049
259.3726, 1737.056
259.8547, 1735.956
260.3368, 1732.057
260.8189, 1725.871
261.3010, 1724.086
261.7831, 1728.651
262.2653, 1734.532
262.7474, 1737.672
263.2295, 1737.224
263.7116, 1736.786
264.1937, 1737.691
264.6758, 1739.140
265.1580, 1735.419
265.6401, 1723.279
266.1222, 1712.156
266.6043, 1709.412
267.0864, 1717.831
267.5685, 1724.700
268.0507, 1729.029
268.5328, 1730.916
269.0149, 1730.693
269.4970, 1728.095
269.9791, 1724.032
270.4612, 1718.165
270.9434, 1709.527
271.4255, 1703.953
271.9076, 1702.140
272.3897, 1703.320
272.8718, 1705.637
273.3539, 1709.150
273.8361, 1713.516
274.3182, 1719.843
274.8003, 1729.048
275.2824, 1732.080
275.7645, 1726.682
276.2466, 1717.172
276.7288, 1712.203
277.2109, 1712.523
277.6930, 1713.639
278.1751, 1713.420
278.6572, 1711.769
279.1393, 1711.095
279.6215, 1711.692
280.1036, 1712.760
280.5857, 1713.124
281.0678, 1712.778
281.5499, 1712.044
282.0320, 1710.568
282.5142, 1708.526
282.9963, 1708.720
283.4784, 1711.690
283.9605, 1715.272
284.4426, 1716.943
284.9247, 1716.692
285.4069, 1715.138
285.8890, 1711.681
286.3711, 1707.013
286.8532, 1704.697
287.3353, 1705.008
287.8174, 1706.105
288.2996, 1706.543
288.7817, 1706.280
289.2638, 1704.293
289.7459, 1698.312
290.2280, 1691.438
290.7101, 1694.573
291.1923, 1708.393
291.6744, 1721.413
292.1565, 1721.369
292.6386, 1711.057
293.1207, 1704.806
293.6028, 1706.395
294.0850, 1712.680
294.5671, 1719.632
295.0492, 1727.019
295.5313, 1731.253
296.0134, 1727.468
296.4955, 1718.260
296.9777, 1711.004
297.4598, 1706.824
297.9419, 1705.159
298.4240, 1706.585
298.9061, 1710.488
299.3882, 1713.661
299.8704, 1714.018
300.3525, 1712.367
300.8346, 1709.783
301.3167, 1706.067
301.7988, 1702.974
302.2809, 1702.604
302.7631, 1704.463
303.2452, 1707.031
303.7273, 1712.062
304.2094, 1716.365
304.6915, 1713.308
305.1736, 1701.766
305.6558, 1692.265
306.1379, 1697.878
306.6200, 1711.860
307.1021, 1721.493
307.5842, 1718.089
308.0663, 1710.060
308.5485, 1703.854
309.0306, 1699.644
309.5127, 1698.801
309.9948, 1706.538
310.4769, 1716.927
310.9590, 1722.328
311.4412, 1717.501
311.9233, 1709.615
312.4054, 1702.341
312.8875, 1695.803
313.3696, 1691.003
313.8517, 1687.063
314.3339, 1685.876
314.8160, 1690.021
315.2981, 1705.656
315.7802, 1718.004
316.2623, 1716.885
316.7444, 1706.464
317.2266, 1697.789
317.7087, 1695.265
318.1908, 1696.195
318.6729, 1699.914
319.1550, 1708.606
319.6371, 1713.832
320.1193, 1709.500
320.6014, 1700.340
321.0835, 1694.034
321.5656, 1695.433
322.0477, 1697.889
322.5298, 1698.501
323.0120, 1696.550
323.4941, 1695.230
323.9762, 1694.401
324.4583, 1694.794
324.9404, 1697.207
325.4225, 1707.371
325.9047, 1713.984
326.3868, 1712.575
326.8689, 1702.865
327.3510, 1695.232
327.8331, 1690.315
328.3152, 1687.797
328.7974, 1687.480
329.2795, 1693.245
329.7616, 1696.607
330.2437, 1695.786
330.7258, 1691.631
331.2079, 1688.794
331.6901, 1687.890
332.1722, 1687.664
332.6543, 1687.495
333.1364, 1687.091
333.6185, 1687.196
334.1006, 1687.666
334.5828, 1688.657
335.0649, 1690.724
335.5470, 1694.749
336.0291, 1698.270
336.5112, 1699.963
336.9933, 1699.140
337.4755, 1700.485
337.9576, 1705.429
338.4397, 1710.889
338.9218, 1712.718
339.4039, 1710.442
339.8860, 1706.087
340.3681, 1699.446
340.8503, 1690.777
341.3324, 1684.168
341.8145, 1679.477
342.2966, 1677.087
342.7787, 1677.877
343.2608, 1681.990
343.7430, 1686.498
344.2251, 1691.671
344.7072, 1696.262
345.1893, 1694.766
345.6714, 1686.551
346.1535, 1679.972
346.6357, 1682.603
347.1178, 1692.799
347.5999, 1701.021
348.0820, 1706.664
348.5641, 1709.031
349.0462, 1704.586
349.5284, 1694.435
350.0105, 1686.808
350.4926, 1689.124
350.9747, 1696.639
351.4568, 1697.885
351.9389, 1691.854
352.4211, 1684.842
352.9032, 1683.750
353.3853, 1686.761
353.8674, 1689.501
354.3495, 1690.689
354.8316, 1690.472
355.3138, 1686.782
355.7959, 1680.283
356.2780, 1677.900
356.7601, 1689.313
357.2422, 1706.104
357.7243, 1717.430
358.2065, 1718.594
358.6886, 1716.141
359.1707, 1713.828
359.6528, 1711.400
360.1349, 1708.091
360.6170, 1700.819
361.0992, 1694.254
361.5813, 1691.841
362.0634, 1694.714
362.5455, 1699.702
363.0276, 1708.158
363.5097, 1717.385
363.9919, 1723.378
364.4740, 1723.684
364.9561, 1721.663
365.4382, 1717.121
365.9203, 1709.638
366.4024, 1705.584
366.8846, 1711.159
367.3667, 1717.999
367.8488, 1719.334
368.3309, 1706.005
368.8130, 1696.589
369.2951, 1695.426
369.7773, 1701.223
370.2594, 1704.625
370.7415, 1702.732
371.2236, 1701.195
371.7057, 1702.946
372.1878, 1712.036
372.6700, 1716.747
373.1521, 1716.799
373.6342, 1712.598
374.1163, 1703.411
374.5984, 1683.570
375.0805, 1670.151
375.5627, 1670.756
376.0448, 1687.055
376.5269, 1696.679
377.0090, 1698.172
377.4911, 1695.650
377.9732, 1693.402
378.4554, 1691.625
378.9375, 1688.720
379.4196, 1683.903
379.9017, 1677.877
380.3838, 1672.151
380.8659, 1666.413
381.3481, 1663.813
381.8302, 1669.368
382.3123, 1681.522
382.7944, 1688.367
383.2765, 1687.954
383.7586, 1683.797
384.2408, 1680.280
384.7229, 1677.483
385.2050, 1675.642
385.6871, 1675.225
386.1692, 1675.798
386.6513, 1676.527
387.1335, 1677.378
387.6156, 1678.555
388.0977, 1680.170
388.5798, 1682.218
389.0619, 1684.896
389.5440, 1690.110
390.0262, 1694.032
390.5083, 1691.444
390.9904, 1683.754
391.4725, 1677.735
391.9546, 1679.746
392.4367, 1683.801
392.9189, 1684.073
393.4010, 1677.312
393.8831, 1672.218
394.3652, 1674.350
394.8473, 1680.765
395.3294, 1686.661
395.8116, 1691.850
396.2937, 1694.948
396.7758, 1694.034
397.2579, 1688.372
397.7400, 1685.642
398.2221, 1691.320
398.7043, 1698.485
399.1864, 1701.501
399.6685, 1693.642
400.1506, 1688.820
400.6327, 1690.210
401.1148, 1696.254
401.5970, 1699.539
402.0791, 1698.246
402.5612, 1696.270
403.0433, 1695.523
403.5254, 1697.235
404.0075, 1696.439
404.4897, 1691.230
404.9718, 1685.224
405.4539, 1684.808
405.9360, 1692.436
406.4181, 1697.933
406.9002, 1697.591
407.3824, 1692.225
407.8645, 1689.898
408.3466, 1691.226
408.8287, 1693.193
409.3108, 1692.055
409.7929, 1688.091
410.2751, 1688.501
410.7572, 1696.044
411.2393, 1705.598
411.7214, 1706.277
412.2035, 1698.959
412.6856, 1691.879
413.1678, 1690.013
413.6499, 1691.685
414.1320, 1693.306
414.6141, 1694.697
415.0962, 1696.479
415.5783, 1700.383
416.0605, 1705.021
416.5426, 1707.857
417.0247, 1708.122
417.5068, 1706.111
417.9889, 1699.912
418.4710, 1690.831
418.9532, 1684.768
419.4353, 1688.680
419.9174, 1694.777
420.3995, 1696.370
420.8816, 1690.377
421.3637, 1684.792
421.8459, 1682.396
422.3280, 1682.381
422.8101, 1683.520
423.2922, 1688.211
423.7743, 1691.380
424.2564, 1690.000
424.7386, 1683.513
425.2207, 1680.471
425.7028, 1684.838
426.1849, 1690.832
426.6670, 1694.811
427.1491, 1696.800
427.6313, 1696.794
428.1134, 1694.396
428.5955, 1690.126
429.0776, 1684.914
429.5597, 1677.148
430.0418, 1671.627
430.5240, 1670.713
431.0061, 1674.798
431.4882, 1678.668
431.9703, 1683.092
432.4524, 1685.514
432.9345, 1680.682
433.4167, 1668.260
433.8988, 1661.709
434.3809, 1666.166
434.8630, 1676.790
435.3451, 1681.681
435.8272, 1680.987
436.3094, 1679.243
436.7915, 1680.120
437.2736, 1682.155
437.7557, 1681.492
438.2378, 1677.531
438.7199, 1672.553
439.2020, 1667.562
439.6841, 1663.311
440.1663, 1661.335
440.6484, 1663.013
441.1305, 1666.706
441.6126, 1671.917
442.0947, 1678.338
442.5768, 1683.958
443.0590, 1688.348
443.5411, 1691.126
444.0232, 1691.819
444.5053, 1689.661
444.9874, 1686.866
445.4695, 1682.517
445.9517, 1678.296
446.4338, 1676.894
446.9159, 1681.867
447.3980, 1686.688
447.8801, 1689.402
448.3622, 1689.851
448.8444, 1690.481
449.3265, 1691.848
449.8086, 1692.927
450.2907, 1693.133
450.7728, 1692.673
451.2549, 1690.725
451.7371, 1686.247
452.2192, 1680.929
452.7013, 1678.542
453.1834, 1679.463
453.6655, 1682.100
454.1476, 1686.634
454.6298, 1692.719
455.1119, 1696.474
455.5940, 1697.626
456.0761, 1697.685
456.5582, 1698.006
457.0403, 1698.478
457.5225, 1698.746
458.0046, 1699.166
458.4867, 1698.493
458.9688, 1692.966
459.4509, 1684.016
459.9330, 1677.810
460.4152, 1680.544
460.8973, 1686.445
461.3794, 1687.516
461.8615, 1683.219
462.3436, 1680.670
462.8257, 1687.502
463.3079, 1697.481
463.7900, 1703.617
464.2721, 1702.914
464.7542, 1699.303
465.2363, 1691.275
465.7184, 1681.208
466.2006, 1675.846
466.6827, 1683.892
467.1648, 1690.823
467.6469, 1689.728
468.1290, 1677.234
468.6111, 1668.599
469.0933, 1665.513
469.5754, 1665.429
470.0575, 1666.271
470.5396, 1668.818
471.0217, 1670.767
471.5038, 1672.024
471.9860, 1672.475
472.4681, 1671.179
472.9502, 1667.187
473.4323, 1664.629
473.9144, 1666.601
474.3965, 1672.861
474.8787, 1675.402
475.3608, 1673.545
475.8429, 1671.076
476.3250, 1672.445
476.8071, 1677.011
477.2892, 1682.088
477.7714, 1688.374
478.2535, 1692.693
478.7356, 1687.289
479.2177, 1674.634
479.6998, 1665.529
480.1819, 1671.481
480.6641, 1681.155
481.1462, 1681.408
481.6283, 1670.649
482.1104, 1660.533
482.5925, 1658.058
483.0746, 1659.622
483.5568, 1661.525
484.0389, 1664.053
484.5210, 1665.324
485.0031, 1663.637
485.4852, 1660.128
485.9673, 1658.264
486.4495, 1661.991
486.9316, 1664.180
487.4137, 1661.475
487.8958, 1652.047
488.3779, 1646.797
488.8600, 1646.860
489.3422, 1649.801
489.8243, 1654.211
490.3064, 1661.338
490.7885, 1665.236
491.2706, 1664.566
491.7527, 1660.672
492.2349, 1656.032
492.7170, 1650.470
493.1991, 1646.707
493.6812, 1647.979
494.1633, 1652.449
494.6454, 1651.280
495.1276, 1644.181
495.6097, 1637.586
496.0918, 1639.838
496.5739, 1646.759
497.0560, 1648.982
497.5381, 1642.696
498.0203, 1635.043
498.5024, 1631.440
498.9845, 1631.312
499.4666, 1633.299
499.9487, 1641.969
500.4308, 1648.322
500.9130, 1644.245
501.3951, 1629.620
501.8772, 1620.231
502.3593, 1625.090
502.8414, 1634.108
503.3235, 1640.835
503.8057, 1644.868
504.2878, 1645.877
504.7699, 1641.469
505.2520, 1634.946
505.7341, 1632.073
506.2162, 1635.017
506.6984, 1637.293
507.1805, 1637.336
507.6626, 1635.236
508.1447, 1631.384
508.6268, 1625.074
509.1089, 1619.576
509.5911, 1616.714
510.0732, 1616.525
510.5553, 1620.377
511.0374, 1629.244
511.5195, 1638.742
512.0016, 1643.923
512.4838, 1645.184
512.9659, 1643.631
513.4480, 1638.002
513.9301, 1631.391
514.4122, 1627.100
514.8943, 1624.868
515.3765, 1623.558
515.8586, 1623.108
516.3407, 1622.944
516.8228, 1622.555
517.3049, 1621.772
517.7870, 1621.338
518.2692, 1623.140
518.7513, 1624.639
519.2334, 1623.383
519.7155, 1615.710
520.1976, 1609.182
520.6797, 1603.978
521.1619, 1600.458
521.6440, 1599.990
522.1261, 1603.999
522.6082, 1608.609
523.0903, 1612.977
523.5724, 1617.155
524.0546, 1618.352
524.5367, 1615.587
525.0188, 1612.934
525.5009, 1615.488
525.9830, 1622.539
526.4651, 1624.961
526.9473, 1620.497
527.4294, 1613.765
527.9115, 1610.732
528.3936, 1610.964
528.8757, 1613.033
529.3578, 1618.217
529.8400, 1623.628
530.3221, 1626.379
530.8042, 1626.582
531.2863, 1625.256
531.7684, 1620.204
532.2505, 1615.601
532.7327, 1615.463
533.2148, 1622.357
533.6969, 1626.910
534.1790, 1626.358
534.6611, 1622.300
535.1432, 1616.471
535.6254, 1602.965
536.1075, 1595.572
536.5896, 1598.541
537.0717, 1608.572
537.5538, 1614.208
538.0359, 1614.724
538.5181, 1612.635
539.0002, 1607.946
539.4823, 1600.791
539.9644, 1596.536
540.4465, 1595.354
540.9286, 1596.206
541.4108, 1599.110
541.8929, 1603.473
542.3750, 1606.527
542.8571, 1607.618
543.3392, 1607.759
543.8214, 1608.838
544.3035, 1609.933
544.7856, 1608.858
545.2677, 1601.895
545.7498, 1594.590
546.2319, 1591.116
546.7141, 1591.076
547.1962, 1591.834
547.6783, 1593.486
548.1604, 1594.722
548.6425, 1594.490
549.1246, 1591.696
549.6068, 1590.458
550.0889, 1592.578
550.5710, 1595.514
551.0531, 1597.032
551.5352, 1597.038
552.0173, 1595.662
552.4995, 1592.241
552.9816, 1587.904
553.4637, 1585.208
553.9458, 1584.096
554.4279, 1585.181
554.9100, 1590.634
555.3922, 1598.425
555.8743, 1600.000
556.3564, 1595.354
556.8385, 1588.340
557.3206, 1580.377
557.8027, 1572.592
558.2849, 1566.433
558.7670, 1561.869
559.2491, 1560.159
559.7312, 1566.073
560.2133, 1574.362
560.6954, 1577.843
561.1776, 1568.732
561.6597, 1559.957
562.1418, 1555.734
562.6239, 1555.291
563.1060, 1555.783
563.5881, 1557.315
564.0703, 1559.285
564.5524, 1562.566
565.0345, 1567.637
565.5166, 1566.842
565.9987, 1557.164
566.4808, 1546.755
566.9630, 1541.905
567.4451, 1542.992
567.9272, 1545.640
568.4093, 1550.313
568.8914, 1554.321
569.3735, 1553.751
569.8557, 1549.121
570.3378, 1542.362
570.8199, 1531.310
571.3020, 1521.633
571.7841, 1523.535
572.2662, 1534.033
572.7484, 1542.090
573.2305, 1540.668
573.7126, 1535.539
574.1947, 1530.052
574.6768, 1524.497
575.1589, 1519.471
575.6411, 1513.899
576.1232, 1509.817
576.6053, 1508.959
577.0874, 1515.510
577.5695, 1518.413
578.0516, 1515.383
578.5338, 1510.167
579.0159, 1508.810
579.4980, 1513.174
579.9801, 1514.471
580.4622, 1509.317
580.9443, 1500.686
581.4265, 1498.807
581.9086, 1503.667
582.3907, 1508.308
582.8728, 1508.173
583.3549, 1505.196
583.8370, 1503.286
584.3192, 1502.525
584.8013, 1502.441
585.2834, 1503.117
585.7655, 1504.075
586.2476, 1505.299
586.7297, 1507.934
587.2118, 1507.469
587.6939, 1496.131
588.1760, 1482.605
588.6581, 1477.967
589.1403, 1494.834
589.6224, 1508.057
590.1045, 1513.441
590.5866, 1512.606
591.0687, 1510.666
591.5508, 1507.237
592.0330, 1503.586
592.5151, 1500.036
592.9972, 1496.630
593.4793, 1493.766
593.9614, 1491.423
594.4435, 1489.849
594.9257, 1489.467
595.4078, 1490.042
595.8899, 1491.402
596.3720, 1493.872
596.8541, 1494.828
597.3362, 1488.502
597.8184, 1479.912
598.3005, 1476.972
598.7826, 1487.364
599.2647, 1497.120
599.7468, 1499.169
600.2289, 1495.907
600.7111, 1492.622
601.1932, 1488.277
601.6753, 1486.422
602.1574, 1489.171
602.6395, 1496.038
603.1216, 1500.504
603.6038, 1501.470
604.0859, 1502.034
604.5680, 1504.543
605.0501, 1509.336
605.5322, 1509.622
606.0143, 1504.588
606.4965, 1498.646
606.9786, 1496.045
607.4607, 1496.288
607.9428, 1498.196
608.4249, 1502.257
608.9070, 1505.833
609.3892, 1504.420
609.8713, 1500.848
610.3534, 1500.370
610.8355, 1508.224
611.3176, 1516.668
611.7997, 1523.992
612.2819, 1529.360
612.7640, 1530.102
613.2461, 1520.544
613.7282, 1511.229
614.2103, 1504.737
614.6924, 1501.051
615.1746, 1502.717
615.6567, 1512.197
616.1388, 1522.315
616.6209, 1528.873
617.1030, 1531.829
617.5851, 1529.998
618.0673, 1522.241
618.5494, 1514.602
619.0315, 1516.823
619.5136, 1525.237
619.9957, 1528.754
620.4778, 1522.597
620.9600, 1514.857
621.4421, 1512.854
621.9242, 1514.934
622.4063, 1517.724
622.8884, 1519.228
623.3705, 1521.794
623.8527, 1526.947
624.3348, 1534.286
624.8169, 1541.111
625.2990, 1548.458
625.7811, 1553.749
626.2632, 1555.667
626.7454, 1554.000
627.2275, 1551.351
627.7096, 1546.070
628.1917, 1544.107
628.6738, 1554.016
629.1559, 1574.084
629.6381, 1582.803
630.1202, 1576.832
630.6023, 1567.177
631.0844, 1566.117
631.5665, 1570.627
632.0486, 1574.295
632.5308, 1574.482
633.0129, 1574.604
633.4950, 1577.435
633.9771, 1581.831
634.4592, 1585.646
634.9413, 1588.217
635.4235, 1590.063
635.9056, 1590.120
636.3877, 1589.059
636.8698, 1591.340
637.3519, 1598.033
637.8340, 1606.375
638.3162, 1616.372
638.7983, 1627.958
639.2804, 1633.783
639.7625, 1633.359
640.2446, 1630.153
640.7267, 1624.845
641.2089, 1618.923
641.6910, 1617.801
642.1731, 1622.228
642.6552, 1629.393
643.1373, 1639.350
643.6194, 1649.535
644.1016, 1656.166
644.5837, 1655.968
645.0658, 1655.946
645.5479, 1659.008
646.0300, 1664.141
646.5121, 1669.626
646.9943, 1679.001
647.4764, 1683.911
647.9585, 1680.294
648.4406, 1671.576
648.9227, 1670.564
649.4048, 1678.969
649.8870, 1689.161
650.3691, 1698.621
650.8512, 1707.389
651.3333, 1716.891
651.8154, 1727.005
652.2975, 1734.599
652.7797, 1735.119
653.2618, 1732.734
653.7439, 1733.083
654.2260, 1736.629
654.7081, 1742.980
655.1902, 1757.213
655.6724, 1770.996
656.1545, 1776.219
656.6366, 1763.184
657.1187, 1757.974
657.6008, 1769.555
658.0829, 1787.430
658.5651, 1801.397
659.0472, 1811.066
659.5293, 1817.064
660.0114, 1817.862
660.4935, 1816.905
660.9756, 1822.326
661.4578, 1833.687
661.9399, 1843.091
662.4220, 1845.952
662.9041, 1846.932
663.3862, 1854.308
663.8683, 1866.566
664.3505, 1877.861
664.8326, 1884.390
665.3147, 1889.162
665.7968, 1894.371
666.2789, 1900.043
666.7610, 1904.033
667.2432, 1900.746
667.7253, 1900.233
668.2074, 1908.441
668.6895, 1928.247
669.1716, 1942.217
669.6537, 1948.255
670.1359, 1952.675
670.6180, 1960.834
671.1001, 1972.551
671.5822, 1984.877
672.0643, 1997.710
672.5464, 2010.371
673.0286, 2022.267
673.5107, 2033.206
673.9928, 2042.687
674.4749, 2049.629
674.9570, 2056.966
675.4391, 2069.013
675.9213, 2082.267
676.4034, 2090.916
676.8855, 2083.069
677.3676, 2081.962
677.8497, 2098.161
678.3318, 2124.619
678.8140, 2141.412
679.2961, 2144.520
679.7782, 2147.396
680.2603, 2154.120
680.7424, 2164.173
681.2245, 2176.991
681.7067, 2192.668
682.1888, 2206.679
682.6709, 2212.264
683.1530, 2215.959
683.6351, 2232.449
684.1172, 2261.023
684.5994, 2284.889
685.0815, 2285.760
685.5636, 2282.769
686.0457, 2291.936
686.5278, 2319.284
687.0099, 2342.580
687.4921, 2354.969
687.9742, 2363.992
688.4563, 2374.415
688.9384, 2385.965
689.4205, 2400.149
689.9026, 2418.279
690.3848, 2436.839
690.8669, 2450.476
691.3490, 2459.908
691.8311, 2470.273
692.3132, 2482.484
692.7953, 2496.222
693.2775, 2512.083
693.7596, 2529.167
694.2417, 2545.791
694.7238, 2560.667
695.2059, 2575.475
695.6880, 2592.049
696.1702, 2609.197
696.6523, 2624.144
697.1344, 2631.828
697.6165, 2643.269
698.0986, 2662.574
698.5807, 2687.863
699.0629, 2708.167
699.5450, 2722.803
700.0271, 2736.769
700.5092, 2752.869
700.9913, 2770.325
701.4734, 2786.429
701.9556, 2801.249
702.4377, 2815.732
702.9198, 2830.817
703.4019, 2845.784
703.8840, 2859.794
704.3661, 2872.819
704.8483, 2885.713
705.3304, 2896.929
705.8125, 2909.481
706.2946, 2926.075
706.7767, 2949.334
707.2589, 2969.341
707.7410, 2986.049
708.2231, 2999.331
708.7052, 3006.584
709.1873, 3007.482
709.6694, 3017.857
710.1516, 3040.841
710.6337, 3067.639
711.1158, 3088.206
711.5979, 3104.452
712.0800, 3119.901
712.5621, 3135.267
713.0443, 3150.851
713.5264, 3167.588
714.0085, 3184.424
714.4906, 3200.119
714.9727, 3212.590
715.4548, 3225.899
715.9370, 3242.605
716.4191, 3259.995
716.9012, 3271.502
717.3833, 3274.582
717.8654, 3280.935
718.3475, 3294.458
718.8297, 3312.826
719.3118, 3331.642
719.7939, 3350.391
720.2760, 3366.186
720.7581, 3373.649
721.2402, 3379.802
721.7224, 3393.833
722.2045, 3413.774
722.6866, 3430.564
723.1687, 3437.480
723.6508, 3442.995
724.1329, 3450.453
724.6151, 3460.010
725.0972, 3470.917
725.5793, 3483.029
726.0614, 3496.604
726.5435, 3511.822
727.0256, 3528.555
727.5078, 3548.048
727.9899, 3571.018
728.4720, 3589.793
728.9541, 3593.980
729.4362, 3591.215
729.9183, 3595.799
730.4005, 3609.272
730.8826, 3623.075
731.3647, 3631.378
731.8468, 3638.150
732.3289, 3646.557
732.8110, 3657.807
733.2932, 3668.778
733.7753, 3679.973
734.2574, 3690.179
734.7395, 3698.183
735.2216, 3703.799
735.7037, 3708.617
736.1859, 3712.784
736.6680, 3716.294
737.1501, 3717.752
737.6322, 3718.501
738.1143, 3723.520
738.5964, 3735.585
739.0786, 3747.006
739.5607, 3749.837
740.0428, 3748.575
740.5249, 3749.401
741.0070, 3757.659
741.4891, 3763.718
741.9713, 3765.260
742.4534, 3763.840
742.9355, 3760.706
743.4176, 3753.831
743.8997, 3751.863
744.3818, 3757.625
744.8640, 3767.366
745.3461, 3775.625
745.8282, 3781.747
746.3103, 3781.243
746.7924, 3769.518
747.2745, 3754.032
747.7567, 3740.117
748.2388, 3728.485
748.7209, 3721.102
749.2030, 3723.510
749.6851, 3725.129
750.1672, 3721.511
750.6494, 3713.990
751.1315, 3707.886
751.6136, 3704.434
752.0957, 3699.658
752.5778, 3691.350
753.0599, 3681.123
753.5421, 3676.577
754.0242, 3677.323
754.5063, 3674.931
754.9884, 3660.333
755.4705, 3642.543
755.9526, 3633.955
756.4348, 3633.085
756.9169, 3632.034
757.3990, 3628.642
757.8811, 3622.706
758.3632, 3612.137
758.8453, 3596.985
759.3275, 3587.717
759.8096, 3588.955
760.2917, 3587.740
760.7738, 3576.061
761.2559, 3555.566
761.7380, 3541.769
762.2202, 3534.909
762.7023, 3528.783
763.1844, 3517.061
763.6665, 3504.068
764.1486, 3498.320
764.6307, 3499.889
765.1129, 3496.664
765.5950, 3474.736
766.0771, 3452.073
766.5592, 3441.530
767.0413, 3447.527
767.5234, 3447.591
768.0056, 3439.103
768.4877, 3428.743
768.9698, 3421.289
769.4519, 3416.673
769.9340, 3410.057
770.4161, 3401.298
770.8983, 3391.793
771.3804, 3381.835
771.8625, 3372.333
772.3446, 3365.540
772.8267, 3362.214
773.3088, 3356.923
773.7910, 3343.059
774.2731, 3328.747
774.7552, 3320.666
775.2373, 3322.061
775.7194, 3322.102
776.2015, 3320.441
776.6837, 3317.872
777.1658, 3314.921
777.6479, 3311.580
778.1300, 3307.917
778.6121, 3303.832
779.0942, 3300.042
779.5764, 3297.520
780.0585, 3295.644
780.5406, 3294.010
781.0227, 3293.299
781.5048, 3289.610
781.9869, 3278.516
782.4691, 3265.221
782.9512, 3254.364
783.4332, 3245.761
783.9153, 3240.745
784.3975, 3241.168
784.8796, 3242.296
785.3617, 3238.058
785.8438, 3229.051
786.3259, 3223.380
786.8080, 3222.827
787.2902, 3221.240
787.7723, 3209.547
788.2544, 3193.613
788.7365, 3182.786
789.2186, 3182.079
789.7007, 3178.700
790.1829, 3163.838
790.6650, 3146.337
791.1471, 3136.073
791.6292, 3138.983
792.1113, 3134.656
792.5934, 3119.878
793.0756, 3102.311
793.5577, 3091.659
794.0398, 3086.897
794.5219, 3081.417
795.0040, 3073.998
795.4861, 3065.698
795.9683, 3056.004
796.4504, 3046.484
796.9325, 3039.614
797.4146, 3040.105
797.8967, 3035.434
798.3788, 3017.977
798.8610, 2996.358
799.3431, 2979.108
799.8252, 2966.151
800.3073, 2957.668
800.7894, 2955.098
801.2715, 2953.338
801.7537, 2943.965
802.2358, 2929.505
802.7179, 2919.491
803.2000, 2917.393
803.6821, 2914.849
804.1642, 2903.435
804.6464, 2888.639
805.1285, 2877.086
805.6106, 2873.265
806.0927, 2867.733
806.5748, 2858.551
807.0569, 2848.425
807.5391, 2839.735
808.0212, 2832.532
808.5033, 2827.244
808.9854, 2824.307
809.4675, 2821.940
809.9496, 2817.979
810.4318, 2812.904
810.9139, 2808.014
811.3960, 2803.953
811.8781, 2798.742
812.3602, 2789.962
812.8423, 2780.030
813.3245, 2771.600
813.8066, 2764.723
814.2887, 2759.797
814.7708, 2757.694
815.2529, 2756.348
815.7350, 2753.486
816.2172, 2749.167
816.6993, 2745.446
817.1814, 2743.083
817.6635, 2738.442
818.1456, 2724.635
818.6277, 2707.500
819.1099, 2695.447
819.5920, 2691.758
820.0741, 2688.971
820.5562, 2685.839
821.0383, 2681.763
821.5204, 2676.063
822.0026, 2667.601
822.4847, 2660.918
822.9668, 2656.554
823.4489, 2652.612
823.9310, 2646.638
824.4131, 2639.403
824.8953, 2634.412
825.3774, 2632.428
825.8595, 2629.019
826.3416, 2619.545
826.8237, 2607.695
827.3058, 2596.901
827.7880, 2588.193
828.2701, 2579.361
828.7522, 2570.370
829.2343, 2561.133
829.7164, 2551.379
830.1985, 2541.128
830.6807, 2532.629
831.1628, 2526.236
831.6449, 2520.023
832.1270, 2513.510
832.6091, 2505.627
833.0912, 2494.219
833.5734, 2479.102
834.0555, 2463.117
834.5376, 2443.665
835.0197, 2427.083
835.5018, 2419.486
835.9839, 2423.050
836.4661, 2419.617
836.9482, 2407.824
837.4303, 2392.240
837.9124, 2374.621
838.3945, 2355.587
838.8766, 2337.800
839.3588, 2321.222
839.8409, 2307.092
840.3230, 2298.783
840.8051, 2291.476
841.2872, 2281.003
841.7693, 2267.076
842.2515, 2252.881
842.7336, 2237.115
843.2157, 2223.171
843.6978, 2212.573
844.1799, 2205.097
844.6620, 2198.313
845.1442, 2192.342
845.6263, 2185.731
846.1084, 2177.878
846.5905, 2168.694
847.0726, 2156.655
847.5547, 2142.685
848.0369, 2131.125
848.5190, 2124.705
849.0011, 2120.500
849.4832, 2119.972
849.9653, 2121.239
850.4474, 2113.447
850.9296, 2092.149
851.4117, 2075.374
851.8938, 2070.792
852.3759, 2073.490
852.8580, 2071.470
853.3401, 2065.320
853.8223, 2057.730
854.3044, 2047.696
854.7865, 2038.815
855.2686, 2034.227
855.7507, 2032.683
856.2328, 2030.983
856.7150, 2027.688
857.1971, 2025.741
857.6792, 2027.075
858.1613, 2028.799
858.6434, 2023.157
859.1255, 2010.541
859.6077, 2001.644
860.0898, 2000.900
860.5719, 2001.806
861.0540, 1995.511
861.5361, 1985.988
862.0182, 1979.993
862.5004, 1985.203
862.9825, 1985.983
863.4646, 1975.594
863.9467, 1960.603
864.4288, 1947.001
864.9109, 1934.177
865.3931, 1926.015
865.8752, 1923.702
866.3573, 1922.985
866.8394, 1920.665
867.3215, 1915.690
867.8036, 1904.583
868.2858, 1885.377
868.7679, 1867.514
869.2500, 1854.992
869.7321, 1846.541
870.2142, 1841.913
870.6964, 1842.873
871.1785, 1840.996
871.6606, 1836.896
872.1427, 1828.604
872.6248, 1810.854
873.1069, 1787.116
873.5891, 1773.248
874.0712, 1769.623
874.5533, 1768.544
875.0354, 1766.396
875.5175, 1762.919
875.9996, 1756.839
876.4818, 1747.946
876.9639, 1742.425
877.4460, 1744.741
877.9281, 1744.093
878.4102, 1734.240
878.8923, 1717.271
879.3745, 1707.195
879.8566, 1703.702
880.3387, 1702.373
880.8208, 1702.834
881.3029, 1702.580
881.7850, 1698.647
882.2672, 1691.736
882.7493, 1684.359
883.2314, 1674.106
883.7135, 1667.555
884.1956, 1667.943
884.6777, 1672.255
885.1599, 1672.495
885.6420, 1668.516
886.1241, 1662.606
886.6062, 1654.383
887.0883, 1646.573
887.5704, 1642.364
888.0526, 1641.371
888.5347, 1643.269
889.0168, 1652.921
889.4989, 1657.968
889.9810, 1651.141
890.4631, 1639.596
890.9453, 1630.611
891.4274, 1623.878
891.9095, 1621.978
892.3916, 1626.316
892.8737, 1630.929
893.3558, 1626.354
893.8380, 1617.543
894.3201, 1615.973
894.8022, 1624.525
895.2843, 1631.054
895.7664, 1627.736
896.2485, 1621.262
896.7307, 1616.386
897.2128, 1613.422
897.6949, 1611.034
898.1770, 1609.350
898.6591, 1607.833
899.1412, 1606.232
899.6234, 1604.480
900.1055, 1601.763
900.5876, 1598.355
901.0697, 1596.327
901.5518, 1598.862
902.0339, 1601.438
902.5161, 1601.383
902.9982, 1598.764
903.4803, 1595.439
903.9624, 1590.374
904.4445, 1587.244
904.9266, 1587.511
905.4088, 1590.148
905.8909, 1593.726
906.3730, 1597.658
906.8551, 1599.313
907.3372, 1595.516
907.8193, 1592.079
908.3015, 1593.379
908.7836, 1597.496
909.2657, 1601.342
909.7478, 1606.081
910.2299, 1607.536
910.7120, 1604.701
911.1942, 1599.732
911.6763, 1594.250
912.1584, 1588.812
912.6405, 1586.870
913.1226, 1589.416
913.6047, 1591.864
914.0869, 1590.194
914.5690, 1586.969
915.0511, 1583.687
915.5332, 1579.293
916.0153, 1581.728
916.4974, 1597.168
916.9796, 1609.114
917.4617, 1604.470
917.9438, 1586.480
918.4259, 1578.916
918.9080, 1581.230
919.3901, 1586.505
919.8723, 1593.975
920.3544, 1599.413
920.8365, 1597.136
921.3186, 1588.988
921.8007, 1585.885
922.2828, 1594.471
922.7650, 1599.326
923.2471, 1595.120
923.7292, 1586.327
924.2113, 1584.736
924.6934, 1589.372
925.1755, 1593.541
925.6577, 1595.589
926.1398, 1595.176
926.6219, 1589.460
927.1040, 1581.975
927.5861, 1577.721
928.0682, 1579.755
928.5504, 1582.541
929.0325, 1587.166
929.5146, 1590.773
929.9967, 1588.020
930.4788, 1580.478
930.9609, 1582.283
931.4431, 1595.048
931.9252, 1606.796
932.4073, 1606.819
932.8894, 1602.714
933.3715, 1602.015
933.8536, 1605.944
934.3358, 1603.854
934.8179, 1590.219
935.3000, 1578.991
935.7821, 1576.694
936.2642, 1581.268
936.7463, 1584.855
937.2285, 1587.511
937.7106, 1589.394
938.1927, 1591.571
938.6748, 1592.081
939.1569, 1587.315
939.6390, 1580.025
940.1212, 1576.630
940.6033, 1581.123
941.0854, 1583.554
941.5675, 1581.982
942.0496, 1579.272
942.5317, 1581.357
943.0139, 1586.546
943.4960, 1585.246
943.9781, 1574.397
944.4602, 1565.725
944.9423, 1571.840
945.4244, 1581.879
945.9066, 1585.698
946.3887, 1579.619
946.8708, 1576.607
947.3529, 1577.358
947.8350, 1579.568
948.3171, 1583.211
948.7993, 1587.107
949.2814, 1585.541
949.7635, 1579.280
950.2456, 1573.616
950.7277, 1571.610
951.2098, 1571.253
951.6920, 1571.593
952.1741, 1572.695
952.6562, 1575.171
953.1383, 1580.668
953.6204, 1582.426
954.1025, 1577.520
954.5847, 1571.183
955.0668, 1573.662
955.5489, 1581.696
956.0310, 1586.539
956.5131, 1585.168
956.9952, 1582.645
957.4774, 1580.463
957.9595, 1579.091
958.4416, 1578.940
958.9237, 1580.147
959.4058, 1582.548
959.8879, 1586.875
960.3701, 1589.064
960.8522, 1583.009
961.3343, 1573.703
961.8164, 1572.421
962.2985, 1578.100
962.7806, 1582.627
963.2628, 1581.515
963.7449, 1579.163
964.2270, 1575.267
964.7091, 1571.787
965.1912, 1576.135
965.6733, 1589.380
966.1555, 1599.887
966.6376, 1605.111
967.1197, 1605.236
967.6018, 1595.707
968.0839, 1582.714
968.5660, 1576.999
969.0482, 1585.099
969.5303, 1591.984
970.0124, 1595.545
970.4945, 1596.100
970.9766, 1592.031
971.4587, 1583.074
971.9409, 1582.290
972.4230, 1590.029
972.9051, 1598.144
973.3872, 1601.210
973.8693, 1601.115
974.3514, 1598.447
974.8336, 1593.816
975.3157, 1590.466
975.7978, 1588.048
976.2799, 1588.681
976.7620, 1594.192
977.2441, 1601.808
977.7263, 1605.091
978.2084, 1604.562
978.6905, 1602.632
979.1726, 1599.594
979.6547, 1596.545
980.1368, 1593.424
980.6190, 1591.230
981.1010, 1591.404
981.5831, 1595.432
982.0652, 1597.625
982.5474, 1597.305
983.0295, 1597.020
983.5116, 1598.954
983.9937, 1602.457
984.4758, 1606.649
984.9579, 1611.078
985.4401, 1612.810
985.9222, 1608.336
986.4043, 1602.720
986.8864, 1596.404
987.3685, 1590.967
987.8506, 1592.303
988.3328, 1601.903
988.8149, 1608.248
989.2970, 1607.904
989.7791, 1605.050
990.2612, 1605.770
990.7433, 1607.742
991.2255, 1606.374
991.7076, 1597.980
992.1897, 1594.285
992.6718, 1601.583
993.1539, 1610.756
993.6360, 1616.417
994.1182, 1618.622
994.6003, 1621.102
995.0824, 1623.831
995.5645, 1624.825
996.0466, 1620.317
996.5287, 1615.661
997.0109, 1617.150
997.4930, 1622.687
997.9751, 1624.173
998.4572, 1617.377
998.9393, 1612.750
999.4214, 1612.665
999.9036, 1614.266
1000.386, 1612.150
1000.868, 1607.764
1001.350, 1605.972
1001.832, 1607.983
1002.314, 1611.197
1002.796, 1613.718
1003.278, 1617.048
1003.760, 1623.163
1004.243, 1632.490
1004.725, 1637.787
1005.207, 1638.886
1005.689, 1636.972
1006.171, 1630.723
1006.653, 1623.311
1007.135, 1620.173
1007.617, 1620.029
1008.100, 1619.388
1008.582, 1614.234
1009.064, 1612.216
1009.546, 1616.376
1010.028, 1622.687
1010.510, 1626.211
1010.992, 1627.002
1011.474, 1625.487
1011.956, 1621.465
1012.439, 1618.412
1012.921, 1621.824
1013.403, 1625.755
1013.885, 1623.794
1014.367, 1615.240
1014.849, 1610.582
1015.331, 1610.615
1015.813, 1613.705
1016.296, 1620.680
1016.778, 1628.846
1017.260, 1631.234
1017.742, 1629.406
1018.224, 1628.021
1018.706, 1629.206
1019.188, 1630.290
1019.670, 1628.415
1020.152, 1627.056
1020.635, 1630.021
1021.117, 1638.239
1021.599, 1645.407
1022.081, 1651.583
1022.563, 1655.008
1023.045, 1652.591
1023.527, 1647.789
1024.009, 1644.483
1024.492, 1642.582
1024.974, 1640.177
1025.456, 1633.358
1025.938, 1631.967
1026.420, 1640.516
1026.902, 1652.515
1027.384, 1653.916
1027.866, 1647.393
1028.349, 1644.534
1028.831, 1649.007
1029.313, 1652.979
1029.795, 1649.526
1030.277, 1644.999
1030.759, 1645.490
1031.241, 1651.769
1031.723, 1653.371
1032.205, 1649.505
1032.688, 1645.993
1033.170, 1646.406
1033.652, 1648.862
1034.134, 1651.051
1034.616, 1652.971
1035.098, 1654.677
1035.580, 1656.683
1036.062, 1657.635
1036.544, 1656.891
1037.027, 1655.661
1037.509, 1656.383
1037.991, 1658.327
1038.473, 1654.635
1038.955, 1644.630
1039.437, 1637.519
1039.919, 1643.232
1040.401, 1651.230
1040.884, 1654.664
1041.366, 1653.550
1041.848, 1651.098
1042.330, 1646.788
1042.812, 1643.554
1043.294, 1642.132
1043.776, 1642.489
1044.258, 1646.474
1044.740, 1651.593
1045.223, 1652.733
1045.705, 1645.392
1046.187, 1643.746
1046.669, 1655.663
1047.151, 1667.104
1047.633, 1668.152
1048.115, 1660.281
1048.597, 1653.972
1049.079, 1649.354
1049.562, 1648.067
1050.044, 1653.669
1050.526, 1660.167
1051.008, 1664.888
1051.490, 1667.507
1051.972, 1666.979
1052.454, 1661.355
1052.936, 1660.567
1053.419, 1666.250
1053.901, 1674.061
1054.383, 1682.258
1054.865, 1688.075
1055.347, 1685.267
1055.829, 1673.546
1056.311, 1667.415
1056.793, 1676.746
1057.276, 1684.287
1057.758, 1685.126
1058.240, 1680.738
1058.722, 1672.671
1059.204, 1662.524
1059.686, 1657.303
1060.168, 1660.062
1060.650, 1665.584
1061.132, 1676.164
1061.615, 1684.041
1062.097, 1680.230
1062.579, 1662.406
1063.061, 1654.779
1063.543, 1658.043
1064.025, 1664.841
1064.507, 1674.502
1064.989, 1682.224
1065.471, 1679.628
1065.954, 1670.421
1066.436, 1663.825
1066.918, 1662.000
1067.400, 1663.814
1067.882, 1670.988
1068.364, 1678.483
1068.846, 1679.134
1069.328, 1675.302
1069.811, 1674.748
1070.293, 1677.907
1070.775, 1679.617
1071.257, 1674.941
1071.739, 1670.443
1072.221, 1668.128
1072.703, 1668.447
1073.185, 1675.693
1073.667, 1689.565
1074.150, 1693.904
1074.632, 1681.435
1075.114, 1668.836
1075.596, 1676.534
1076.078, 1689.924
1076.560, 1692.041
1077.042, 1677.409
1077.524, 1672.254
1078.006, 1679.552
1078.489, 1685.701
1078.971, 1681.384
1079.453, 1673.088
1079.935, 1674.097
1080.417, 1681.339
1080.899, 1687.340
1081.381, 1690.903
1081.863, 1690.306
1082.345, 1682.225
1082.828, 1674.426
1083.310, 1676.129
1083.792, 1685.529
1084.274, 1689.273
1084.756, 1687.301
1085.238, 1686.065
1085.720, 1693.123
1086.202, 1698.488
1086.685, 1693.130
1087.167, 1682.675
1087.649, 1681.286
1088.131, 1690.136
1088.613, 1697.028
1089.095, 1699.860
1089.577, 1700.818
1090.059, 1702.679
1090.542, 1703.529
1091.024, 1700.018
1091.506, 1691.457
1091.988, 1687.867
1092.470, 1692.033
1092.952, 1694.419
1093.434, 1690.145
1093.916, 1684.237
1094.398, 1688.265
1094.880, 1697.974
1095.363, 1703.407
1095.845, 1699.763
1096.327, 1697.600
1096.809, 1701.049
1097.291, 1704.739
1097.773, 1705.601
1098.255, 1703.823
1098.737, 1699.300
1099.220, 1692.866
1099.702, 1689.697
1100.184, 1695.004
1100.666, 1701.614
1101.148, 1708.025
1101.630, 1712.510
1102.112, 1712.244
1102.594, 1706.433
1103.077, 1701.755
1103.559, 1698.444
1104.041, 1697.560
1104.523, 1702.118
1105.005, 1707.750
1105.487, 1710.540
1105.969, 1710.678
1106.451, 1710.355
1106.933, 1710.200
1107.416, 1707.603
1107.898, 1700.704
1108.380, 1695.129
1108.862, 1701.721
1109.344, 1713.125
1109.826, 1715.842
1110.308, 1707.243
1110.790, 1703.291
1111.272, 1713.394
1111.755, 1720.015
1112.237, 1715.602
1112.719, 1705.596
1113.201, 1704.938
1113.683, 1710.914
1114.165, 1714.522
1114.647, 1713.089
1115.129, 1709.433
1115.612, 1699.790
1116.094, 1693.197
1116.576, 1697.060
1117.058, 1710.498
1117.540, 1718.672
1118.022, 1721.797
1118.504, 1722.757
1118.986, 1723.622
1119.469, 1722.019
1119.951, 1711.105
1120.433, 1699.254
1120.915, 1700.110
1121.397, 1719.162
1121.879, 1725.406
1122.361, 1717.037
1122.843, 1707.803
1123.325, 1708.983
1123.807, 1714.262
1124.290, 1717.795
1124.772, 1719.755
1125.254, 1721.391
1125.736, 1723.633
1126.218, 1723.515
1126.700, 1719.974
1127.182, 1716.320
1127.664, 1716.084
1128.147, 1718.449
1128.629, 1723.594
1129.111, 1731.040
1129.593, 1734.346
1130.075, 1726.257
1130.557, 1722.001
1131.039, 1727.059
1131.521, 1735.174
1132.004, 1732.585
1132.486, 1723.416
1132.968, 1719.738
1133.450, 1724.501
1133.932, 1730.114
1134.414, 1735.188
1134.896, 1738.073
1135.378, 1737.226
1135.860, 1733.871
1136.343, 1733.990
1136.825, 1736.775
1137.307, 1736.748
1137.789, 1730.120
1138.271, 1725.308
1138.753, 1729.773
1139.235, 1736.689
1139.717, 1739.817
1140.199, 1739.083
1140.682, 1738.755
1141.164, 1738.835
1141.646, 1741.039
1142.128, 1750.272
1142.610, 1757.094
1143.092, 1748.440
1143.574, 1734.729
1144.056, 1732.780
1144.539, 1748.988
1145.021, 1753.818
1145.503, 1745.671
1145.985, 1737.520
1146.467, 1740.262
1146.949, 1747.335
1147.431, 1754.203
1147.913, 1759.336
1148.396, 1758.069
1148.878, 1745.352
1149.360, 1738.329
1149.842, 1739.107
1150.324, 1743.232
1150.806, 1748.338
1151.288, 1752.452
1151.770, 1750.968
1152.252, 1744.787
1152.734, 1742.253
1153.217, 1749.386
1153.699, 1752.754
1154.181, 1749.166
1154.663, 1742.452
1155.145, 1735.621
1155.627, 1730.560
1156.109, 1733.509
1156.591, 1745.356
1157.074, 1752.207
1157.556, 1744.362
1158.038, 1736.647
1158.520, 1731.937
1159.002, 1731.065
1159.484, 1738.714
1159.966, 1751.691
1160.448, 1760.098
1160.931, 1761.358
1161.413, 1760.312
1161.895, 1756.985
1162.377, 1754.205
1162.859, 1753.556
1163.341, 1754.352
1163.823, 1753.689
1164.305, 1751.924
1164.787, 1750.781
1165.270, 1750.948
1165.752, 1751.543
1166.234, 1751.273
1166.716, 1752.161
1167.198, 1756.645
1167.680, 1764.135
1168.162, 1765.924
1168.644, 1762.416
1169.126, 1756.900
1169.609, 1747.433
1170.091, 1741.632
1170.573, 1748.146
1171.055, 1757.889
1171.537, 1760.774
1172.019, 1756.178
1172.501, 1751.514
1172.983, 1746.901
1173.466, 1744.886
1173.948, 1747.800
1174.430, 1753.129
1174.912, 1763.176
1175.394, 1772.599
1175.876, 1771.949
1176.358, 1758.456
1176.840, 1753.714
1177.323, 1758.918
1177.805, 1764.206
1178.287, 1759.292
1178.769, 1753.919
1179.251, 1760.001
1179.733, 1753.347
1180.215, 1770.292
1180.697, 1752.033
1181.179, 1744.999
1181.661, 1752.856
1182.144, 1763.297
1182.626, 1766.641
1183.108, 1766.237
1183.590, 1763.159
1184.072, 1759.028
1184.554, 1760.924
1185.036, 1772.118
1185.518, 1775.452
1186.001, 1767.034
1186.483, 1757.031
1186.965, 1756.444
1187.447, 1760.134
1187.929, 1762.943
1188.411, 1764.586
1188.893, 1767.348
1189.375, 1772.220
1189.858, 1774.875
1190.340, 1774.080
1190.822, 1771.788
1191.304, 1769.444
1191.786, 1767.580
1192.268, 1767.568
1192.750, 1769.575
1193.232, 1767.987
1193.714, 1760.051
1194.197, 1757.651
1194.679, 1766.210
1195.161, 1776.857
1195.643, 1775.640
1196.125, 1769.454
1196.607, 1767.691
1197.089, 1772.315
1197.571, 1777.993
1198.053, 1785.181
1198.536, 1791.280
1199.018, 1796.155
1199.500, 1798.190
1199.982, 1792.787
1200.464, 1783.761
1200.946, 1776.729
1201.428, 1773.045
1201.910, 1771.058
1202.393, 1770.524
1202.875, 1772.159
1203.357, 1777.002
1203.839, 1783.198
1204.321, 1788.778
1204.803, 1793.102
1205.285, 1794.819
1205.767, 1792.165
1206.250, 1791.285
1206.732, 1793.122
1207.214, 1794.175
1207.696, 1791.684
1208.178, 1787.970
1208.660, 1787.298
1209.142, 1788.419
1209.624, 1788.988
1210.106, 1788.136
1210.589, 1787.215
1211.071, 1786.117
1211.553, 1785.320
1212.035, 1784.059
1212.517, 1784.146
1212.999, 1790.778
1213.481, 1800.763
1213.963, 1807.261
1214.445, 1806.986
1214.928, 1805.672
1215.410, 1803.213
1215.892, 1800.076
1216.374, 1794.638
1216.856, 1790.008
1217.338, 1793.550
1217.820, 1801.695
1218.302, 1805.545
1218.785, 1799.545
1219.267, 1796.068
1219.749, 1795.534
1220.231, 1797.178
1220.713, 1802.055
1221.195, 1807.609
1221.677, 1811.075
1222.159, 1812.050
1222.641, 1809.168
1223.124, 1798.688
1223.606, 1792.866
1224.088, 1792.696
1224.570, 1795.420
1225.052, 1801.141
1225.534, 1806.517
1226.016, 1806.100
1226.498, 1801.494
1226.980, 1798.234
1227.463, 1795.442
1227.945, 1799.913
1228.427, 1814.310
1228.909, 1825.123
1229.391, 1814.450
1229.873, 1797.304
1230.355, 1790.340
1230.837, 1792.432
1231.320, 1796.667
1231.802, 1803.093
1232.284, 1809.514
1232.766, 1816.058
1233.248, 1820.494
1233.730, 1819.433
1234.212, 1816.229
1234.694, 1813.919
1235.177, 1812.489
1235.659, 1811.329
1236.141, 1810.909
1236.623, 1807.465
1237.105, 1799.828
1237.587, 1794.843
1238.069, 1802.787
1238.551, 1812.721
1239.033, 1813.585
1239.516, 1807.798
1239.998, 1806.452
1240.480, 1809.745
1240.962, 1817.089
1241.444, 1829.214
1241.926, 1837.269
1242.408, 1827.728
1242.890, 1816.764
1243.372, 1819.823
1243.855, 1831.199
1244.337, 1832.493
1244.819, 1823.346
1245.301, 1815.002
1245.783, 1809.150
1246.265, 1805.718
1246.747, 1805.057
1247.229, 1806.654
1247.712, 1812.671
1248.194, 1820.007
1248.676, 1820.639
1249.158, 1815.114
1249.640, 1809.721
1250.122, 1805.239
1250.604, 1805.684
1251.086, 1819.928
1251.568, 1833.058
1252.051, 1837.123
1252.533, 1835.269
1253.015, 1833.803
1253.497, 1832.650
1253.979, 1830.999
1254.461, 1828.608
1254.943, 1828.614
1255.425, 1836.638
1255.907, 1842.495
1256.390, 1841.523
1256.872, 1836.994
1257.354, 1835.575
1257.836, 1836.159
1258.318, 1833.990
1258.800, 1828.272
1259.282, 1826.101
1259.764, 1834.161
1260.247, 1841.855
1260.729, 1847.250
1261.211, 1849.501
1261.693, 1845.311
1262.175, 1837.376
1262.657, 1830.744
1263.139, 1826.089
1263.621, 1825.341
1264.104, 1830.350
1264.586, 1836.960
1265.068, 1845.701
1265.550, 1852.105
1266.032, 1846.237
1266.514, 1835.218
1266.996, 1830.589
1267.478, 1833.562
1267.960, 1836.013
1268.443, 1836.599
1268.925, 1838.649
1269.407, 1843.427
1269.889, 1848.343
1270.371, 1851.363
1270.853, 1852.083
1271.335, 1848.949
1271.817, 1842.273
1272.299, 1837.754
1272.782, 1835.223
1273.264, 1837.181
1273.746, 1845.186
1274.228, 1852.659
1274.710, 1852.091
1275.192, 1849.273
1275.674, 1849.613
1276.156, 1852.254
1276.639, 1852.500
1277.121, 1850.338
1277.603, 1847.354
1278.085, 1843.547
1278.567, 1842.390
1279.049, 1850.550
1279.531, 1858.058
1280.013, 1857.943
1280.495, 1853.137
1280.978, 1850.702
1281.460, 1850.361
1281.942, 1850.196
1282.424, 1849.844
1282.906, 1850.785
1283.388, 1856.788
1283.870, 1860.180
1284.352, 1856.581
1284.834, 1850.794
1285.317, 1854.527
1285.799, 1863.411
1286.281, 1863.706
1286.763, 1853.766
1287.245, 1848.517
1287.727, 1859.090
1288.209, 1864.516
1288.691, 1858.056
1289.173, 1849.379
1289.656, 1854.392
1290.138, 1865.390
1290.620, 1869.378
1291.102, 1865.569
1291.584, 1863.166
1292.066, 1864.299
1292.548, 1862.633
1293.030, 1855.944
1293.513, 1850.784
1293.995, 1858.501
1294.477, 1868.409
1294.959, 1867.146
1295.441, 1856.727
1295.923, 1855.062
1296.405, 1863.462
1296.887, 1868.321
1297.370, 1867.360
1297.852, 1865.876
1298.334, 1867.789
1298.816, 1871.511
1299.298, 1877.348
1299.780, 1882.874
1300.262, 1884.704
1300.744, 1883.081
1301.226, 1879.905
1301.708, 1875.421
1302.191, 1873.125
1302.673, 1875.340
1303.155, 1879.167
1303.637, 1882.531
1304.119, 1884.581
##END=



