##NAMES=Vanuralite
##RRUFFID=R050544
##IDEAL CHEMISTRY=Al(U^6+^O_2_)_2_(V^5+^O_4_)_2_(OH)&#183;8.5H_2_O
##LOCALITY=Mounana mine, Franceville, Haut-Ogoou√©, Gabon
##OWNER=RRUFF
##SOURCE=University of Arizona Mineral Museum
##DESCRIPTION=Yellowish-green branching aggregates
##STATUS=The identification of this mineral has been confirmed by single-crystal X-ray diffraction.
##URL=rruff.info/R050544
134.255, 535.088
134.737, 538.842
135.219, 540.664
135.701, 540.105
136.184, 539.239
136.666, 539.963
137.148, 542.181
137.630, 547.227
138.112, 557.020
138.594, 571.200
139.076, 580.049
139.558, 582.215
140.040, 581.331
140.523, 581.748
141.005, 583.662
141.487, 586.219
141.969, 589.352
142.451, 593.170
142.933, 596.384
143.415, 598.602
143.897, 600.570
144.380, 603.023
144.862, 605.199
145.344, 609.301
145.826, 616.771
146.308, 628.738
146.790, 637.948
147.272, 644.973
147.754, 648.869
148.236, 647.805
148.719, 634.950
149.201, 625.538
149.683, 624.054
150.165, 632.965
150.647, 641.225
151.129, 649.004
151.611, 656.093
152.093, 662.162
152.575, 668.389
153.058, 672.406
153.540, 672.395
154.022, 666.183
154.504, 663.864
154.986, 670.306
155.468, 679.997
155.950, 686.018
156.432, 679.996
156.915, 676.754
157.397, 683.361
157.879, 703.695
158.361, 718.433
158.843, 721.091
159.325, 716.468
159.807, 710.881
160.289, 703.225
160.771, 697.273
161.254, 695.044
161.736, 697.276
162.218, 700.048
162.700, 701.318
163.182, 702.422
163.664, 705.222
164.146, 712.721
164.628, 720.439
165.111, 725.792
165.593, 728.439
166.075, 729.791
166.557, 729.679
167.039, 728.881
167.521, 728.562
168.003, 730.714
168.485, 732.578
168.967, 730.428
169.449, 723.278
169.932, 719.340
170.414, 728.395
170.896, 744.090
171.378, 755.554
171.860, 753.407
172.342, 747.023
172.824, 746.064
173.307, 751.405
173.789, 757.284
174.271, 758.579
174.753, 756.943
175.235, 755.809
175.717, 756.818
176.199, 759.167
176.681, 762.552
177.163, 767.054
177.645, 770.566
178.128, 770.254
178.610, 767.277
179.092, 764.557
179.574, 763.940
180.056, 764.252
180.538, 763.124
181.020, 760.372
181.503, 757.944
181.985, 758.810
182.467, 761.894
182.949, 763.573
183.431, 760.906
183.913, 755.973
184.395, 754.388
184.877, 756.580
185.359, 758.151
185.842, 752.641
186.324, 741.490
186.806, 732.138
187.288, 727.629
187.770, 726.927
188.252, 728.842
188.734, 734.021
189.216, 736.807
189.698, 728.399
190.181, 710.216
190.663, 694.646
191.145, 685.057
191.627, 681.214
192.109, 684.275
192.591, 695.502
193.073, 706.212
193.555, 705.492
194.038, 693.783
194.520, 683.360
195.002, 677.696
195.484, 676.013
195.966, 674.852
196.448, 674.027
196.930, 674.652
197.412, 679.246
197.894, 688.029
198.376, 693.935
198.859, 695.415
199.341, 692.716
199.823, 685.782
200.305, 673.489
200.787, 661.278
201.269, 654.925
201.751, 655.317
202.234, 653.147
202.716, 645.167
203.198, 633.470
203.680, 628.446
204.162, 631.478
204.644, 636.918
205.126, 640.812
205.608, 643.211
206.090, 643.495
206.572, 640.738
207.055, 636.017
207.537, 633.805
208.019, 634.504
208.501, 636.649
208.983, 639.523
209.465, 643.413
209.947, 646.844
210.430, 649.738
210.912, 652.097
211.394, 653.781
211.876, 654.500
212.358, 655.232
212.840, 656.219
213.322, 656.945
213.804, 660.444
214.286, 668.891
214.768, 679.298
215.251, 681.757
215.733, 672.236
216.215, 663.683
216.697, 663.318
217.179, 674.244
217.661, 683.184
218.143, 689.884
218.625, 694.441
219.108, 696.249
219.590, 692.577
220.072, 691.716
220.554, 698.244
221.036, 715.796
221.518, 727.877
222.000, 732.470
222.482, 733.028
222.964, 731.664
223.447, 778.210
223.929, 792.321
224.411, 803.620
224.893, 812.261
225.375, 810.271
225.857, 822.005
226.339, 828.240
226.821, 770.270
227.303, 778.005
227.786, 798.096
228.268, 817.721
228.750, 837.624
229.232, 851.609
229.714, 856.559
230.196, 858.613
230.678, 864.560
231.161, 875.136
231.643, 888.536
232.125, 905.731
232.607, 927.179
233.089, 943.498
233.571, 951.037
234.053, 957.315
234.535, 969.453
235.017, 991.049
235.499, 1011.490
235.982, 1030.094
236.464, 1046.633
236.946, 1058.794
237.428, 1066.310
237.910, 1069.763
238.392, 1069.253
238.874, 1063.254
239.357, 1056.245
239.839, 1047.709
240.321, 1038.316
240.803, 1031.888
241.285, 1029.846
241.767, 1028.879
242.249, 1027.369
242.731, 1025.901
243.213, 1022.613
243.695, 1017.570
244.178, 1010.634
244.660, 1001.166
245.142, 987.982
245.624, 973.983
246.106, 959.904
246.588, 944.147
247.070, 933.403
247.552, 932.620
248.035, 934.666
248.517, 923.458
248.999, 890.203
249.481, 858.497
249.963, 837.151
250.445, 828.851
250.927, 820.654
251.409, 812.390
251.891, 804.367
252.374, 797.181
252.856, 792.054
253.338, 785.294
253.820, 774.727
254.302, 759.523
254.784, 749.410
255.266, 746.109
255.748, 745.925
256.231, 745.512
256.713, 746.466
257.195, 743.269
257.677, 732.822
258.159, 715.471
258.641, 705.243
259.123, 706.077
259.605, 708.361
260.087, 703.025
260.570, 685.619
261.052, 672.960
261.534, 668.728
262.016, 671.310
262.498, 671.991
262.980, 670.439
263.462, 667.618
263.944, 664.107
264.427, 659.830
264.909, 654.971
265.391, 649.329
265.873, 643.189
266.355, 637.081
266.837, 630.990
267.319, 625.244
267.801, 619.429
268.284, 612.637
268.766, 610.549
269.248, 614.989
269.730, 622.377
270.212, 625.749
270.694, 623.970
271.176, 622.067
271.658, 622.651
272.140, 626.076
272.622, 625.083
273.105, 618.167
273.587, 609.394
274.069, 604.236
274.551, 603.410
275.033, 602.369
275.515, 599.380
275.997, 594.846
276.479, 592.527
276.962, 592.498
277.444, 594.562
277.926, 599.981
278.408, 609.514
278.890, 614.984
279.372, 614.013
279.854, 608.230
280.336, 602.912
280.819, 597.561
281.301, 595.162
281.783, 599.523
282.265, 610.743
282.747, 619.551
283.229, 624.610
283.711, 626.984
284.193, 628.355
284.675, 628.634
285.158, 629.134
285.640, 630.973
286.122, 633.964
286.604, 635.264
287.086, 633.867
287.568, 633.198
288.050, 639.868
288.532, 653.562
289.014, 666.183
289.497, 674.386
289.979, 678.623
290.461, 679.608
290.943, 676.883
291.425, 673.929
291.907, 673.382
292.389, 675.510
292.871, 682.355
293.353, 697.477
293.836, 716.121
294.318, 725.513
294.800, 725.598
295.282, 725.819
295.764, 736.043
296.246, 752.943
296.728, 766.141
297.211, 772.213
297.693, 775.693
298.175, 783.667
298.657, 795.614
299.139, 808.216
299.621, 818.592
300.103, 828.390
300.585, 841.216
301.067, 858.249
301.549, 875.879
302.032, 889.384
302.514, 900.156
302.996, 912.532
303.478, 931.658
303.960, 952.433
304.442, 968.015
304.924, 977.836
305.406, 985.963
305.889, 995.783
306.371, 1006.349
306.853, 1016.056
307.335, 1024.059
307.817, 1031.131
308.299, 1037.597
308.781, 1043.504
309.263, 1049.470
309.746, 1057.972
310.228, 1065.891
310.710, 1069.180
311.192, 1064.076
311.674, 1058.550
312.156, 1059.113
312.638, 1063.747
313.120, 1066.567
313.602, 1061.838
314.085, 1055.890
314.567, 1054.552
315.049, 1060.617
315.531, 1064.480
316.013, 1059.514
316.495, 1049.650
316.977, 1041.098
317.459, 1036.305
317.941, 1033.251
318.424, 1031.424
318.906, 1030.843
319.388, 1030.027
319.870, 1029.862
320.352, 1028.594
320.834, 1024.606
321.316, 1009.882
321.798, 1000.182
322.280, 1004.060
322.763, 1018.969
323.245, 1028.018
323.727, 1020.933
324.209, 1011.758
324.691, 1008.471
325.173, 1017.709
325.655, 1024.551
326.138, 1025.704
326.620, 1023.352
327.102, 1022.488
327.584, 1023.404
328.066, 1025.925
328.548, 1030.658
329.030, 1039.213
329.512, 1044.921
329.994, 1046.031
330.477, 1045.100
330.959, 1044.761
331.441, 1041.424
331.923, 1043.782
332.405, 1055.494
332.887, 1076.518
333.369, 1094.002
333.851, 1108.335
334.333, 1118.882
334.816, 1124.260
335.298, 1120.473
335.780, 1120.890
336.262, 1127.526
336.744, 1138.856
337.226, 1151.238
337.708, 1166.739
338.190, 1178.711
338.672, 1181.377
339.155, 1170.941
339.637, 1173.774
340.119, 1194.690
340.601, 1221.651
341.083, 1236.088
341.565, 1236.037
342.047, 1235.230
342.529, 1237.466
343.012, 1242.661
343.494, 1251.678
343.976, 1266.065
344.458, 1277.294
344.940, 1272.894
345.422, 1254.420
345.904, 1246.733
346.386, 1258.492
346.868, 1279.154
347.351, 1283.380
347.833, 1272.042
348.315, 1263.794
348.797, 1272.663
349.279, 1294.221
349.761, 1317.103
350.243, 1341.204
350.725, 1361.992
351.208, 1371.396
351.690, 1372.270
352.172, 1374.080
352.654, 1378.072
353.136, 1386.774
353.618, 1406.196
354.100, 1436.073
354.582, 1467.202
355.065, 1493.702
355.547, 1516.245
356.029, 1534.224
356.511, 1542.587
356.993, 1553.370
357.475, 1577.511
357.957, 1612.662
358.439, 1651.132
358.921, 1696.706
359.404, 1739.113
359.886, 1767.802
360.368, 1777.811
360.850, 1788.365
361.332, 1810.915
361.814, 1839.697
362.296, 1866.429
362.778, 1888.089
363.260, 1907.234
363.743, 1924.998
364.225, 1941.426
364.707, 1956.194
365.189, 1970.887
365.671, 1982.962
366.153, 1990.451
366.635, 1990.292
367.117, 1988.831
367.599, 1987.370
368.082, 1985.305
368.564, 1980.754
369.046, 1977.197
369.528, 1967.849
370.010, 1949.661
370.492, 1919.533
370.974, 1888.999
371.457, 1858.359
371.939, 1827.470
372.421, 1795.901
372.903, 1763.743
373.385, 1730.598
373.867, 1696.670
374.349, 1661.832
374.831, 1626.373
375.313, 1592.135
375.796, 1555.377
376.278, 1511.483
376.760, 1457.718
377.242, 1411.994
377.724, 1377.978
378.206, 1351.041
378.688, 1321.212
379.170, 1288.500
379.652, 1256.482
380.135, 1226.765
380.617, 1199.155
381.099, 1175.521
381.581, 1156.496
382.063, 1137.389
382.545, 1110.427
383.027, 1077.302
383.509, 1048.890
383.991, 1029.149
384.474, 1014.651
384.956, 999.569
385.438, 984.169
385.920, 970.099
386.402, 959.950
386.884, 951.755
387.366, 941.212
387.848, 927.050
388.331, 914.053
388.813, 907.124
389.295, 904.938
389.777, 904.712
390.259, 907.520
390.741, 910.190
391.223, 908.913
391.705, 904.004
392.188, 900.776
392.670, 905.426
393.152, 911.581
393.634, 913.179
394.116, 905.906
394.598, 898.181
395.080, 891.184
395.562, 886.172
396.044, 886.163
396.526, 896.394
397.009, 907.998
397.491, 918.075
397.973, 926.627
398.455, 932.146
398.937, 931.295
399.419, 928.751
399.901, 928.894
400.384, 931.783
400.866, 937.547
401.348, 948.785
401.830, 963.908
402.312, 972.808
402.794, 973.293
403.276, 970.380
403.758, 965.560
404.240, 956.706
404.723, 953.295
405.205, 957.884
405.687, 965.025
406.169, 965.206
406.651, 956.254
407.133, 950.302
407.615, 952.154
408.097, 959.976
408.579, 963.250
409.062, 961.481
409.544, 958.190
410.026, 956.178
410.508, 955.253
410.990, 954.339
411.472, 953.938
411.954, 951.893
412.436, 944.062
412.918, 931.274
413.401, 917.626
413.883, 905.051
414.365, 893.036
414.847, 880.715
415.329, 868.134
415.811, 856.320
416.293, 846.983
416.775, 838.827
417.258, 829.887
417.740, 818.654
418.222, 808.034
418.704, 801.005
419.186, 796.408
419.668, 791.548
420.150, 785.397
420.632, 778.440
421.115, 770.986
421.597, 763.240
422.079, 754.309
422.561, 742.377
423.043, 729.877
423.525, 719.194
424.007, 711.751
424.489, 705.021
424.971, 698.918
425.453, 693.299
425.936, 687.558
426.418, 678.378
426.900, 672.514
427.382, 674.058
427.864, 687.825
428.346, 693.565
428.828, 687.976
429.310, 677.294
429.793, 669.178
430.275, 663.653
430.757, 660.535
431.239, 660.452
431.721, 662.685
432.203, 663.988
432.685, 664.330
433.167, 663.947
433.650, 662.169
434.132, 659.324
434.614, 659.346
435.096, 663.172
435.578, 667.584
436.060, 668.322
436.542, 665.873
437.024, 662.209
437.506, 655.654
437.989, 649.864
438.471, 651.948
438.953, 661.109
439.435, 670.794
439.917, 677.842
440.399, 682.251
440.881, 683.596
441.363, 681.087
441.845, 677.759
442.328, 673.083
442.810, 669.336
443.292, 670.103
443.774, 683.059
444.256, 695.031
444.738, 699.260
445.220, 695.916
445.702, 693.161
446.185, 693.206
446.667, 694.326
447.149, 695.432
447.631, 695.164
448.113, 696.829
448.595, 701.340
449.077, 707.532
449.559, 713.364
450.042, 718.341
450.524, 723.722
451.006, 729.299
451.488, 735.196
451.970, 744.968
452.452, 760.790
452.934, 775.821
453.416, 784.717
453.898, 787.276
454.380, 785.789
454.863, 778.333
455.345, 771.140
455.827, 776.854
456.309, 794.711
456.791, 812.661
457.273, 826.558
457.755, 836.805
458.237, 843.298
458.720, 846.111
459.202, 849.682
459.684, 858.539
460.166, 870.142
460.648, 880.298
461.130, 888.021
461.612, 894.894
462.094, 900.784
462.577, 906.895
463.059, 915.639
463.541, 930.740
464.023, 946.503
464.505, 960.073
464.987, 971.509
465.469, 981.977
465.951, 992.374
466.434, 1001.579
466.916, 1008.456
467.398, 1007.059
467.880, 1012.583
468.362, 1032.046
468.844, 1057.194
469.326, 1075.080
469.808, 1081.980
470.290, 1087.352
470.772, 1092.317
471.255, 1097.090
471.737, 1106.294
472.219, 1122.833
472.701, 1136.995
473.183, 1139.670
473.665, 1129.612
474.147, 1127.312
474.629, 1135.646
475.112, 1148.648
475.594, 1159.578
476.076, 1168.079
476.558, 1170.663
477.040, 1162.886
477.522, 1150.393
478.004, 1144.868
478.486, 1145.500
478.969, 1144.943
479.451, 1136.074
479.933, 1123.877
480.415, 1115.330
480.897, 1112.435
481.379, 1108.669
481.861, 1097.030
482.343, 1082.621
482.825, 1072.233
483.308, 1076.346
483.790, 1076.774
484.272, 1063.804
484.754, 1039.851
485.236, 1019.612
485.718, 1008.499
486.200, 999.438
486.682, 989.014
487.164, 976.339
487.647, 964.939
488.129, 954.097
488.611, 945.062
489.093, 939.830
489.575, 940.313
490.057, 939.188
490.539, 934.724
491.021, 928.148
491.504, 923.756
491.986, 921.955
492.468, 919.866
492.950, 915.539
493.432, 909.435
493.914, 904.716
494.396, 901.633
494.878, 898.555
495.361, 895.282
495.843, 890.787
496.325, 881.366
496.807, 862.256
497.289, 845.174
497.771, 844.856
498.253, 856.156
498.735, 865.937
499.217, 866.634
499.699, 864.481
500.182, 863.006
500.664, 862.430
501.146, 862.135
501.628, 861.166
502.110, 860.874
502.592, 862.244
503.074, 866.620
503.556, 870.828
504.039, 875.747
504.521, 880.071
505.003, 881.368
505.485, 876.332
505.967, 874.257
506.449, 879.307
506.931, 889.936
507.413, 890.901
507.896, 878.108
508.378, 868.310
508.860, 877.223
509.342, 903.743
509.824, 914.311
510.306, 904.557
510.788, 889.970
511.270, 889.479
511.752, 900.320
512.235, 911.977
512.717, 921.808
513.199, 930.148
513.681, 936.134
514.163, 940.615
514.645, 946.479
515.127, 954.911
515.609, 965.661
516.091, 980.467
516.574, 1000.003
517.056, 1014.961
517.538, 1019.147
518.020, 1018.397
518.502, 1017.553
518.984, 1011.779
519.466, 1013.094
519.948, 1026.729
520.430, 1047.608
520.913, 1066.354
521.395, 1082.952
521.877, 1097.420
522.359, 1109.559
522.841, 1119.401
523.323, 1128.980
523.805, 1138.359
524.287, 1147.284
524.770, 1154.378
525.252, 1159.850
525.734, 1170.301
526.216, 1186.884
526.698, 1205.570
527.180, 1223.003
527.662, 1238.726
528.144, 1251.253
528.627, 1260.194
529.109, 1265.421
529.591, 1264.381
530.073, 1258.830
530.555, 1254.613
531.037, 1255.219
531.519, 1258.133
532.001, 1261.146
532.484, 1263.878
532.966, 1269.604
533.448, 1283.485
533.930, 1298.336
534.412, 1308.884
534.894, 1314.945
535.376, 1315.608
535.858, 1308.064
536.340, 1296.125
536.823, 1287.293
537.305, 1284.115
537.787, 1278.061
538.269, 1265.046
538.751, 1246.920
539.233, 1237.237
539.715, 1237.712
540.197, 1236.640
540.679, 1223.176
541.162, 1200.240
541.644, 1185.259
542.126, 1179.835
542.608, 1177.096
543.090, 1172.355
543.572, 1164.773
544.054, 1151.799
544.536, 1128.086
545.018, 1105.601
545.501, 1095.721
545.983, 1094.716
546.465, 1093.966
546.947, 1090.379
547.429, 1085.834
547.911, 1081.884
548.393, 1078.657
548.875, 1072.357
549.357, 1055.103
549.840, 1040.433
550.322, 1036.630
550.804, 1051.789
551.286, 1058.478
551.768, 1053.082
552.250, 1042.985
552.732, 1037.106
553.214, 1035.274
553.697, 1039.925
554.179, 1054.209
554.661, 1072.757
555.143, 1082.048
555.625, 1082.476
556.107, 1080.158
556.589, 1075.532
557.071, 1071.483
557.554, 1072.917
558.036, 1079.932
558.518, 1091.218
559.000, 1112.306
559.482, 1133.904
559.964, 1145.088
560.446, 1139.464
560.928, 1133.911
561.411, 1131.593
561.893, 1134.541
562.375, 1145.542
562.857, 1180.572
563.339, 1205.802
563.821, 1210.796
564.303, 1200.801
564.785, 1198.958
565.267, 1208.404
565.750, 1220.086
566.232, 1230.585
566.714, 1239.805
567.196, 1250.073
567.678, 1261.811
568.160, 1272.346
568.642, 1278.621
569.124, 1281.295
569.606, 1284.260
570.089, 1288.359
570.571, 1291.608
571.053, 1290.086
571.535, 1286.021
572.017, 1284.191
572.499, 1288.496
572.981, 1293.741
573.463, 1297.198
573.945, 1298.914
574.428, 1299.182
574.910, 1300.508
575.392, 1298.284
575.874, 1289.254
576.356, 1271.986
576.838, 1256.092
577.320, 1238.944
577.802, 1226.111
578.284, 1223.367
578.767, 1237.799
579.249, 1238.364
579.731, 1220.001
580.213, 1193.509
580.695, 1175.383
581.177, 1165.354
581.659, 1155.057
582.141, 1141.284
582.624, 1127.180
583.106, 1120.855
583.588, 1120.288
584.070, 1116.156
584.552, 1099.721
585.034, 1079.384
585.516, 1063.165
585.998, 1051.276
586.481, 1040.274
586.963, 1026.637
587.445, 1014.539
587.927, 1007.379
588.409, 1008.967
588.891, 1008.240
589.373, 1004.514
589.855, 997.542
590.338, 986.237
590.820, 966.716
591.302, 951.364
591.784, 942.308
592.266, 938.097
592.748, 935.904
593.230, 936.053
593.712, 934.458
594.194, 927.476
594.677, 918.140
595.159, 916.244
595.641, 921.290
596.123, 926.046
596.605, 925.446
597.087, 921.601
597.569, 916.968
598.051, 911.843
598.533, 905.785
599.016, 896.876
599.498, 887.713
599.980, 880.821
600.462, 877.595
600.944, 875.394
601.426, 875.563
601.908, 876.104
602.390, 873.210
602.872, 863.306
603.355, 856.996
603.837, 857.360
604.319, 863.026
604.801, 869.297
605.283, 876.765
605.765, 880.643
606.247, 875.865
606.729, 865.271
607.211, 858.644
607.694, 856.175
608.176, 856.010
608.658, 859.614
609.140, 863.508
609.622, 862.104
610.104, 852.736
610.586, 844.232
611.068, 842.990
611.551, 844.665
612.033, 844.017
612.515, 835.336
612.997, 829.622
613.479, 830.652
613.961, 835.523
614.443, 837.588
614.925, 835.446
615.407, 833.278
615.890, 832.260
616.372, 832.248
616.854, 831.976
617.336, 831.262
617.818, 832.054
618.300, 837.943
618.782, 846.273
619.265, 847.455
619.747, 840.823
620.229, 835.884
620.711, 844.754
621.193, 858.251
621.675, 863.845
622.157, 854.583
622.639, 848.132
623.121, 858.167
623.604, 873.809
624.086, 880.489
624.568, 862.125
625.050, 851.425
625.532, 855.508
626.014, 869.494
626.496, 879.489
626.978, 884.695
627.460, 887.960
627.943, 888.688
628.425, 888.356
628.907, 896.311
629.389, 912.773
629.871, 928.085
630.353, 932.000
630.835, 930.902
631.317, 937.801
631.799, 953.869
632.282, 971.444
632.764, 987.807
633.246, 1001.400
633.728, 1009.835
634.210, 1007.432
634.692, 1010.510
635.174, 1029.872
635.656, 1055.028
636.138, 1070.902
636.621, 1068.424
637.103, 1072.074
637.585, 1088.545
638.067, 1111.425
638.549, 1122.346
639.031, 1119.080
639.513, 1118.826
639.995, 1128.825
640.478, 1146.382
640.960, 1166.440
641.442, 1188.343
641.924, 1204.631
642.406, 1205.426
642.888, 1200.284
643.370, 1200.579
643.852, 1207.261
644.334, 1213.452
644.817, 1217.070
645.299, 1217.878
645.781, 1215.030
646.263, 1204.111
646.745, 1198.573
647.227, 1206.529
647.709, 1214.690
648.192, 1206.475
648.674, 1174.136
649.156, 1152.667
649.638, 1149.741
650.120, 1155.611
650.602, 1151.331
651.084, 1137.617
651.566, 1122.430
652.048, 1108.786
652.531, 1095.146
653.013, 1077.669
653.495, 1057.619
653.977, 1040.459
654.459, 1030.996
654.941, 1024.132
655.423, 1016.902
655.905, 1009.149
656.388, 1001.764
656.870, 996.796
657.352, 990.598
657.834, 980.056
658.316, 962.175
658.798, 954.034
659.280, 959.503
659.762, 967.494
660.244, 966.928
660.727, 958.051
661.209, 950.990
661.691, 947.705
662.173, 943.865
662.655, 930.924
663.137, 913.317
663.619, 901.568
664.101, 901.542
664.583, 904.802
665.066, 905.553
665.548, 905.278
666.030, 907.060
666.512, 915.772
666.994, 922.480
667.476, 922.332
667.958, 917.290
668.440, 917.683
668.922, 927.265
669.405, 934.591
669.887, 934.278
670.369, 927.130
670.851, 920.721
671.333, 914.956
671.815, 910.891
672.297, 910.444
672.779, 911.953
673.261, 911.535
673.744, 908.709
674.226, 906.755
674.708, 907.669
675.190, 910.790
675.672, 916.075
676.154, 926.525
676.636, 932.709
677.119, 927.627
677.601, 919.443
678.083, 917.535
678.565, 924.159
679.047, 932.241
679.529, 941.990
680.011, 951.818
680.493, 957.773
680.975, 959.844
681.458, 964.321
681.940, 975.067
682.422, 987.269
682.904, 991.094
683.386, 988.824
683.868, 988.628
684.350, 998.714
684.832, 1009.218
685.315, 1011.345
685.797, 1006.149
686.279, 1005.542
686.761, 1013.747
687.243, 1026.309
687.725, 1043.518
688.207, 1066.616
688.689, 1079.274
689.171, 1077.258
689.654, 1073.813
690.136, 1080.689
690.618, 1096.650
691.100, 1103.502
691.582, 1099.072
692.064, 1095.278
692.546, 1107.609
693.028, 1128.082
693.510, 1142.934
693.993, 1147.524
694.475, 1151.121
694.957, 1157.686
695.439, 1166.728
695.921, 1177.647
696.403, 1192.710
696.885, 1206.573
697.367, 1217.830
697.849, 1227.994
698.332, 1239.390
698.814, 1251.341
699.296, 1268.002
699.778, 1292.989
700.260, 1320.881
700.742, 1335.941
701.224, 1339.984
701.706, 1346.392
702.188, 1365.795
702.671, 1388.546
703.153, 1401.645
703.635, 1407.606
704.117, 1419.171
704.599, 1447.402
705.081, 1478.062
705.563, 1504.416
706.045, 1525.921
706.528, 1543.972
707.010, 1554.711
707.492, 1567.366
707.974, 1585.854
708.456, 1610.144
708.938, 1647.396
709.420, 1700.414
709.902, 1751.114
710.385, 1776.160
710.867, 1786.667
711.349, 1811.263
711.831, 1855.721
712.313, 1902.160
712.795, 1938.219
713.277, 1968.458
713.759, 1997.126
714.242, 2019.959
714.724, 2049.790
715.206, 2090.855
715.688, 2139.057
716.170, 2190.960
716.652, 2247.678
717.134, 2301.653
717.616, 2349.574
718.098, 2396.673
718.581, 2453.685
719.063, 2519.440
719.545, 2582.733
720.027, 2637.890
720.509, 2688.999
720.991, 2737.658
721.473, 2786.007
721.955, 2841.080
722.437, 2908.987
722.920, 2980.795
723.402, 3056.365
723.884, 3132.791
724.366, 3199.012
724.848, 3245.524
725.330, 3294.708
725.812, 3352.263
726.294, 3418.016
726.776, 3496.030
727.259, 3587.225
727.741, 3679.726
728.223, 3768.383
728.705, 3851.759
729.187, 3921.851
729.669, 3979.038
730.151, 4032.720
730.633, 4087.752
731.115, 4143.705
731.598, 4196.900
732.080, 4244.155
732.562, 4306.412
733.044, 4414.130
733.526, 4515.815
734.008, 4576.981
734.490, 4578.660
734.972, 4608.707
735.455, 4674.891
735.937, 4749.019
736.419, 4801.133
736.901, 4835.806
737.383, 4873.933
737.865, 4920.716
738.347, 4961.720
738.829, 4977.479
739.312, 4981.174
739.794, 4990.883
740.276, 5014.916
740.758, 5039.936
741.240, 5069.713
741.722, 5095.444
742.204, 5104.058
742.686, 5088.358
743.169, 5072.204
743.651, 5059.024
744.133, 5046.396
744.615, 5029.398
745.097, 5008.393
745.579, 4986.144
746.061, 4965.057
746.543, 4940.873
747.025, 4909.805
747.508, 4871.648
747.990, 4825.415
748.472, 4755.726
748.954, 4693.228
749.436, 4656.855
749.918, 4639.404
750.400, 4609.086
750.882, 4558.215
751.364, 4506.422
751.847, 4459.832
752.329, 4417.044
752.811, 4373.474
753.293, 4329.555
753.775, 4281.529
754.257, 4231.063
754.739, 4173.923
755.221, 4097.659
755.703, 4005.183
756.186, 3918.308
756.668, 3846.144
757.150, 3784.527
757.632, 3731.114
758.114, 3686.246
758.596, 3647.500
759.078, 3622.709
759.560, 3592.902
760.042, 3547.384
760.525, 3486.314
761.007, 3426.244
761.489, 3367.552
761.971, 3309.301
762.453, 3249.744
762.935, 3190.002
763.417, 3128.003
763.899, 3062.997
764.382, 3007.423
764.864, 2982.891
765.346, 2961.871
765.828, 2919.164
766.310, 2840.632
766.792, 2777.813
767.274, 2745.565
767.756, 2716.430
768.239, 2666.177
768.721, 2590.642
769.203, 2531.942
769.685, 2493.951
770.167, 2462.495
770.649, 2419.872
771.131, 2372.375
771.613, 2335.588
772.096, 2314.861
772.578, 2292.624
773.060, 2259.469
773.542, 2217.619
774.024, 2169.649
774.506, 2103.398
774.988, 2051.181
775.470, 2018.591
775.952, 1995.676
776.435, 1971.167
776.917, 1944.596
777.399, 1921.658
777.881, 1904.421
778.363, 1887.722
778.845, 1861.748
779.327, 1831.188
779.809, 1807.898
780.291, 1800.155
780.774, 1790.917
781.256, 1768.920
781.738, 1739.395
782.220, 1709.480
782.702, 1678.344
783.184, 1650.207
783.666, 1625.310
784.148, 1603.563
784.630, 1585.593
785.113, 1571.429
785.595, 1558.826
786.077, 1548.230
786.559, 1537.025
787.041, 1519.613
787.523, 1498.572
788.005, 1479.724
788.487, 1465.020
788.969, 1453.582
789.452, 1449.077
789.934, 1446.901
790.416, 1436.188
790.898, 1407.047
791.380, 1384.053
791.862, 1373.111
792.344, 1369.654
792.826, 1361.847
793.309, 1349.708
793.791, 1341.325
794.273, 1341.987
794.755, 1344.459
795.237, 1338.428
795.719, 1325.637
796.201, 1310.745
796.683, 1291.190
797.166, 1274.830
797.648, 1266.423
798.130, 1264.054
798.612, 1260.040
799.094, 1252.873
799.576, 1246.895
800.058, 1244.270
800.540, 1242.917
801.023, 1233.414
801.505, 1216.903
801.987, 1207.911
802.469, 1220.570
802.951, 1237.495
803.433, 1236.749
803.915, 1222.966
804.397, 1210.530
804.879, 1203.775
805.362, 1200.551
805.844, 1202.795
806.326, 1208.299
806.808, 1208.481
807.290, 1201.586
807.772, 1194.469
808.254, 1189.143
808.736, 1185.514
809.218, 1182.953
809.701, 1181.719
810.183, 1183.349
810.665, 1189.405
811.147, 1198.072
811.629, 1209.247
812.111, 1222.010
812.593, 1233.215
813.075, 1242.205
813.557, 1249.027
814.040, 1251.761
814.522, 1252.188
815.004, 1261.106
815.486, 1280.287
815.968, 1296.052
816.450, 1298.434
816.932, 1296.493
817.414, 1313.131
817.896, 1343.713
818.379, 1369.234
818.861, 1374.292
819.343, 1376.093
819.825, 1381.871
820.307, 1392.383
820.789, 1410.668
821.271, 1440.294
821.753, 1472.102
822.236, 1506.665
822.718, 1541.067
823.200, 1559.418
823.682, 1562.048
824.164, 1563.235
824.646, 1567.406
825.128, 1576.224
825.610, 1595.873
826.093, 1622.900
826.575, 1644.484
827.057, 1649.785
827.539, 1654.219
828.021, 1668.936
828.503, 1688.751
828.985, 1688.925
829.467, 1661.157
829.950, 1640.168
830.432, 1640.752
830.914, 1655.131
831.396, 1664.571
831.878, 1668.886
832.360, 1666.331
832.842, 1656.772
833.324, 1639.356
833.807, 1607.115
834.289, 1565.472
834.771, 1533.262
835.253, 1527.704
835.735, 1516.168
836.217, 1489.332
836.699, 1452.040
837.181, 1421.278
837.663, 1397.356
838.146, 1375.447
838.628, 1355.702
839.110, 1334.983
839.592, 1304.728
840.074, 1268.909
840.556, 1238.869
841.038, 1223.526
841.520, 1210.389
842.002, 1194.693
842.485, 1177.254
842.967, 1160.411
843.449, 1143.817
843.931, 1128.998
844.413, 1117.231
844.895, 1106.458
845.377, 1091.914
845.859, 1073.954
846.341, 1054.579
846.824, 1032.041
847.306, 1011.360
847.788, 998.671
848.270, 990.486
848.752, 979.641
849.234, 959.284
849.716, 942.798
850.198, 933.368
850.680, 928.156
851.163, 921.165
851.645, 912.326
852.127, 905.676
852.609, 902.946
853.091, 901.392
853.573, 898.022
854.055, 892.929
854.537, 886.162
855.020, 875.515
855.502, 866.092
855.984, 861.905
856.466, 859.136
856.948, 851.594
857.430, 836.582
857.912, 824.557
858.394, 816.767
858.877, 812.021
859.359, 810.118
859.841, 809.887
860.323, 807.368
860.805, 800.910
861.287, 793.849
861.769, 788.997
862.251, 781.826
862.734, 778.979
863.216, 768.997
863.698, 761.263
864.180, 755.413
864.662, 752.201
865.144, 754.421
865.626, 761.414
866.108, 762.616
866.590, 756.131
867.073, 747.425
867.555, 739.760
868.037, 733.938
868.519, 730.830
869.001, 730.786
869.483, 733.125
869.965, 742.373
870.447, 750.189
870.929, 750.138
871.412, 740.247
871.894, 734.327
872.376, 733.277
872.858, 731.644
873.340, 721.503
873.822, 708.329
874.304, 702.966
874.786, 706.669
875.268, 710.729
875.751, 711.089
876.233, 709.934
876.715, 708.825
877.197, 708.015
877.679, 705.669
878.161, 702.264
878.643, 695.965
879.125, 681.209
879.607, 662.493
880.090, 658.644
880.572, 668.482
881.054, 679.838
881.536, 691.256
882.018, 696.130
882.500, 683.333
882.982, 654.348
883.464, 643.683
883.947, 666.132
884.429, 684.000
884.911, 682.490
885.393, 666.691
885.875, 655.599
886.357, 649.302
886.839, 648.683
887.321, 658.968
887.804, 671.319
888.286, 679.283
888.768, 682.832
889.250, 681.807
889.732, 671.379
890.214, 662.004
890.696, 655.105
891.178, 650.915
891.661, 651.799
892.143, 657.830
892.625, 659.953
893.107, 653.641
893.589, 645.729
894.071, 646.852
894.553, 652.392
895.035, 653.966
895.517, 641.768
896.000, 634.034
896.482, 637.503
896.964, 645.718
897.446, 651.388
897.928, 654.515
898.410, 655.216
898.892, 653.362
899.374, 649.531
899.856, 643.340
900.339, 635.949
900.821, 628.921
901.303, 621.573
901.785, 618.462
902.267, 627.653
902.749, 637.710
903.231, 638.029
903.713, 624.100
904.195, 618.213
904.678, 621.714
905.160, 628.051
905.642, 632.419
906.124, 635.039
906.606, 636.335
907.088, 636.342
907.570, 635.219
908.052, 631.228
908.534, 627.652
909.017, 626.437
909.499, 627.643
909.981, 632.134
910.463, 642.527
910.945, 648.305
911.427, 640.992
911.909, 626.033
912.391, 619.968
912.874, 621.544
913.356, 624.066
913.838, 623.640
914.320, 623.239
914.802, 623.420
915.284, 624.968
915.766, 631.729
916.248, 650.036
916.731, 658.281
917.213, 647.961
917.695, 628.458
918.177, 620.185
918.659, 621.219
919.141, 624.435
919.623, 628.513
920.105, 631.925
920.588, 632.712
921.070, 632.443
921.552, 633.590
922.034, 637.745
922.516, 640.619
922.998, 641.454
923.480, 641.842
923.962, 645.007
924.444, 649.753
924.927, 649.273
925.409, 641.617
925.891, 635.743
926.373, 641.625
926.855, 650.683
927.337, 654.681
927.819, 650.052
928.301, 648.308
928.783, 649.057
929.266, 653.645
929.748, 665.401
930.230, 682.520
930.712, 692.850
931.194, 696.570
931.676, 696.992
932.158, 695.348
932.640, 692.094
933.122, 684.728
933.605, 674.265
934.087, 673.838
934.569, 689.919
935.051, 705.125
935.533, 715.662
936.015, 720.528
936.497, 710.551
936.979, 689.906
937.461, 681.545
937.944, 705.838
938.426, 733.556
938.908, 743.825
939.390, 742.318
939.872, 739.560
940.354, 735.041
940.836, 733.018
941.318, 734.401
941.801, 737.504
942.283, 739.505
942.765, 740.981
943.247, 744.866
943.729, 752.080
944.211, 759.790
944.693, 768.647
945.175, 775.369
945.657, 776.202
946.140, 768.367
946.622, 761.086
947.104, 753.177
947.586, 748.281
948.068, 751.793
948.550, 760.939
949.032, 761.117
949.515, 753.018
949.997, 748.633
950.479, 761.552
950.961, 775.697
951.443, 779.894
951.925, 774.312
952.407, 769.682
952.889, 765.278
953.371, 764.613
953.854, 771.334
954.336, 779.944
954.818, 773.685
955.300, 757.223
955.782, 747.239
956.264, 756.729
956.746, 766.294
957.228, 763.215
957.710, 754.570
958.193, 752.541
958.675, 761.544
959.157, 765.032
959.639, 760.025
960.121, 753.511
960.603, 755.079
961.085, 761.485
961.567, 764.336
962.049, 761.691
962.532, 761.062
963.014, 771.907
963.496, 781.769
963.978, 779.380
964.460, 762.876
964.942, 759.498
965.424, 771.959
965.906, 784.126
966.388, 782.804
966.871, 775.536
967.353, 778.011
967.835, 787.921
968.317, 794.551
968.799, 787.039
969.281, 782.111
969.763, 789.031
970.245, 802.047
970.728, 804.511
971.210, 794.823
971.692, 793.258
972.174, 807.629
972.656, 825.314
973.138, 829.269
973.620, 825.394
974.102, 823.397
974.584, 827.795
975.067, 829.954
975.549, 826.541
976.031, 822.057
976.513, 820.879
976.995, 823.136
977.477, 821.071
977.959, 814.160
978.442, 807.275
978.924, 803.492
979.406, 802.229
979.888, 805.181
980.370, 812.071
980.852, 812.237
981.334, 797.884
981.816, 786.591
982.298, 785.252
982.781, 790.775
983.263, 792.409
983.745, 790.784
984.227, 790.016
984.709, 794.330
985.191, 796.904
985.673, 790.990
986.155, 780.524
986.638, 772.593
987.120, 769.573
987.602, 765.034
988.084, 758.762
988.566, 750.508
989.048, 736.618
989.530, 720.890
990.012, 715.067
990.494, 721.400
990.977, 727.197
991.459, 727.530
991.941, 722.804
992.423, 711.270
992.905, 692.828
993.387, 680.762
993.869, 676.081
994.351, 670.845
994.833, 659.191
995.316, 645.356
995.798, 636.330
996.280, 631.424
996.762, 628.831
997.244, 630.187
997.726, 630.787
998.208, 628.920
998.690, 626.068
999.172, 625.860
999.655, 628.344
1000.137, 625.281
1000.619, 614.503
1001.101, 602.020
1001.583, 591.555
1002.065, 584.028
1002.547, 580.896
1003.029, 583.760
1003.512, 586.131
1003.994, 588.262
1004.476, 588.522
1004.958, 584.823
1005.440, 578.278
1005.922, 575.485
1006.404, 575.988
1006.886, 576.463
1007.368, 575.047
1007.851, 572.895
1008.333, 569.859
1008.815, 566.656
1009.297, 565.540
1009.779, 567.172
1010.261, 568.817
1010.743, 569.983
1011.225, 570.901
1011.708, 571.375
1012.190, 571.950
1012.672, 574.381
1013.154, 580.476
1013.636, 583.325
1014.118, 577.047
1014.600, 569.478
1015.082, 566.268
1015.564, 567.833
1016.047, 563.088
1016.529, 551.692
1017.011, 545.402
1017.493, 559.286
1017.975, 576.980
1018.457, 580.330
1018.939, 571.972
1019.421, 565.547
1019.904, 565.121
1020.386, 564.344
1020.868, 561.919
1021.350, 558.757
1021.832, 555.837
1022.314, 553.575
1022.796, 554.309
1023.278, 559.673
1023.760, 564.042
1024.243, 562.823
1024.725, 559.663
1025.207, 558.041
1025.689, 558.529
1026.171, 557.925
1026.653, 556.075
1027.135, 553.920
1027.617, 550.497
1028.099, 548.018
1028.582, 552.641
1029.064, 562.303
1029.546, 567.243
1030.028, 558.581
1030.510, 550.960
1030.992, 548.455
1031.474, 548.765
1031.956, 545.941
1032.438, 540.589
1032.921, 541.304
1033.403, 552.028
1033.885, 561.409
1034.367, 557.541
1034.849, 548.591
1035.331, 543.078
1035.813, 543.360
1036.295, 541.776
1036.778, 537.002
1037.260, 534.001
1037.742, 537.622
1038.224, 544.970
1038.706, 548.630
1039.188, 549.214
1039.670, 549.401
1040.152, 550.079
1040.635, 551.073
1041.117, 554.245
1041.599, 556.751
1042.081, 550.630
1042.563, 535.393
1043.045, 531.546
1043.527, 545.124
1044.009, 559.824
1044.491, 557.895
1044.974, 548.784
1045.456, 542.193
1045.938, 539.600
1046.420, 540.411
1046.902, 545.638
1047.384, 551.852
1047.866, 557.883
1048.348, 563.280
1048.830, 566.253
1049.313, 567.201
1049.795, 567.676
1050.277, 569.891
1050.759, 570.144
1051.241, 564.101
1051.723, 556.434
1052.205, 555.225
1052.687, 561.284
1053.170, 563.280
1053.652, 559.091
1054.134, 554.622
1054.616, 557.419
1055.098, 562.236
1055.580, 562.970
1056.062, 558.377
1056.544, 554.407
1057.026, 551.391
1057.509, 549.314
1057.991, 548.088
1058.473, 547.848
1058.955, 549.198
1059.437, 551.935
1059.919, 555.303
1060.401, 561.819
1060.883, 565.371
1061.365, 560.346
1061.848, 552.984
1062.330, 550.648
1062.812, 553.856
1063.294, 558.158
1063.776, 563.469
1064.258, 566.960
1064.740, 565.016
1065.222, 560.702
1065.705, 555.654
1066.187, 550.333
1066.669, 550.560
1067.151, 560.726
1067.633, 567.483
1068.115, 565.628
1068.597, 559.687
1069.079, 560.357
1069.562, 565.192
1070.044, 567.392
1070.526, 563.574
1071.008, 559.284
1071.490, 556.199
1071.972, 553.943
1072.454, 552.635
1072.936, 552.487
1073.418, 549.201
1073.901, 542.675
1074.383, 539.250
1074.865, 545.341
1075.347, 555.126
1075.829, 566.476
1076.311, 577.647
1076.793, 581.096
1077.275, 573.929
1077.757, 565.873
1078.240, 557.843
1078.722, 551.845
1079.204, 552.090
1079.686, 556.269
1080.168, 560.334
1080.650, 563.768
1081.132, 565.500
1081.615, 565.459
1082.097, 563.001
1082.579, 555.829
1083.061, 545.437
1083.543, 545.173
1084.025, 553.952
1084.507, 561.867
1084.989, 565.069
1085.471, 564.129
1085.953, 553.511
1086.436, 540.961
1086.918, 541.912
1087.400, 562.369
1087.882, 573.584
1088.364, 572.326
1088.846, 566.632
1089.328, 563.685
1089.810, 561.925
1090.293, 558.661
1090.775, 553.772
1091.257, 551.886
1091.739, 556.331
1092.221, 559.903
1092.703, 560.461
1093.185, 558.774
1093.667, 555.812
1094.150, 552.215
1094.632, 550.181
1095.114, 550.724
1095.596, 552.171
1096.078, 554.389
1096.560, 556.710
1097.042, 558.227
1097.524, 558.735
1098.006, 562.544
1098.489, 569.736
1098.971, 574.941
1099.453, 572.407
1099.935, 568.295
1100.417, 568.809
1100.899, 572.084
1101.381, 571.570
1101.863, 565.175
1102.345, 560.830
1102.828, 560.832
1103.310, 559.868
1103.792, 544.588
1104.274, 526.413
1104.756, 527.651
1105.238, 553.924
1105.720, 570.815
1106.202, 562.174
1106.685, 552.913
1107.167, 553.444
1107.649, 560.080
1108.131, 558.779
1108.613, 551.633
1109.095, 547.477
1109.577, 552.248
1110.059, 556.897
1110.542, 555.984
1111.024, 553.497
1111.506, 553.330
1111.988, 555.617
1112.470, 560.157
1112.952, 567.131
1113.434, 570.687
1113.916, 561.962
1114.398, 551.736
1114.880, 549.572
1115.363, 554.390
1115.845, 559.782
1116.327, 567.141
1116.809, 568.645
1117.291, 561.041
1117.773, 552.474
1118.255, 555.827
1118.737, 564.707
1119.220, 569.645
1119.702, 568.852
1120.184, 564.875
1120.666, 554.359
1121.148, 547.299
1121.630, 549.604
1122.112, 557.718
1122.594, 561.126
1123.077, 560.508
1123.559, 558.092
1124.041, 551.531
1124.523, 548.206
1125.005, 552.754
1125.487, 560.567
1125.969, 569.404
1126.451, 579.251
1126.933, 579.386
1127.416, 569.655
1127.898, 559.254
1128.380, 554.154
1128.862, 551.335
1129.344, 548.391
1129.826, 546.127
1130.308, 548.035
1130.790, 555.507
1131.272, 558.847
1131.755, 555.527
1132.237, 550.728
1132.719, 550.184
1133.201, 551.526
1133.683, 551.517
1134.165, 553.081
1134.647, 550.368
1135.129, 556.525
1135.612, 561.900
1136.094, 563.940
1136.576, 563.614
1137.058, 560.997
1137.540, 557.792
1138.022, 558.177
1138.504, 570.537
1138.986, 573.503
1139.469, 558.854
1139.951, 542.484
1140.433, 538.318
1140.915, 543.841
1141.397, 546.412
1141.879, 546.175
1142.361, 546.258
1142.843, 549.173
1143.325, 551.849
1143.807, 553.693
1144.290, 554.136
1144.772, 550.675
1145.254, 543.686
1145.736, 541.791
1146.218, 546.582
1146.700, 552.765
1147.182, 558.785
1147.664, 562.431
1148.147, 558.962
1148.629, 550.225
1149.111, 552.476
1149.593, 567.279
1150.075, 575.565
1150.557, 568.444
1151.039, 557.083
1151.521, 552.336
1152.004, 551.800
1152.486, 552.402
1152.968, 553.756
1153.450, 556.545
1153.932, 561.461
1154.414, 565.120
1154.896, 564.363
1155.378, 561.504
1155.860, 560.861
1156.343, 561.216
1156.825, 559.168
1157.307, 549.710
1157.789, 543.894
1158.271, 543.065
1158.753, 544.938
1159.235, 546.529
1159.717, 548.955
1160.199, 556.994
1160.682, 570.313
1161.164, 578.394
1161.646, 573.552
1162.128, 566.854
1162.610, 561.221
1163.092, 555.880
1163.574, 547.164
1164.056, 537.080
1164.539, 533.872
1165.021, 540.729
1165.503, 547.933
1165.985, 551.365
1166.467, 552.717
1166.949, 552.458
1167.431, 551.040
1167.913, 551.984
1168.396, 555.035
1168.878, 558.006
1169.360, 560.627
1169.842, 561.888
1170.324, 558.988
1170.806, 555.795
1171.288, 557.494
1171.770, 565.290
1172.252, 565.962
1172.734, 559.209
1173.217, 553.715
1173.699, 555.974
1174.181, 561.417
1174.663, 554.019
1175.145, 549.902
1175.627, 552.962
1176.109, 559.846
1176.591, 563.758
1177.074, 564.860
1177.556, 554.729
1178.038, 563.034
1178.520, 568.638
1179.002, 570.378
1179.484, 565.238
1179.966, 561.724
1180.448, 559.934
1180.931, 560.830
1181.413, 566.272
1181.895, 570.482
1182.377, 561.771
1182.859, 548.494
1183.341, 542.298
1183.823, 546.875
1184.305, 553.846
1184.787, 565.290
1185.270, 571.742
1185.752, 565.220
1186.234, 553.692
1186.716, 553.254
1187.198, 559.453
1187.680, 562.789
1188.162, 556.667
1188.644, 553.401
1189.126, 554.290
1189.609, 556.615
1190.091, 558.597
1190.573, 560.155
1191.055, 561.115
1191.537, 561.470
1192.019, 561.221
1192.501, 560.693
1192.983, 558.597
1193.466, 552.894
1193.948, 548.432
1194.430, 554.244
1194.912, 566.325
1195.394, 572.682
1195.876, 572.164
1196.358, 569.584
1196.840, 565.148
1197.323, 561.252
1197.805, 559.074
1198.287, 557.490
1198.769, 553.487
1199.251, 547.858
1199.733, 542.222
1200.215, 535.936
1200.697, 534.998
1201.179, 547.851
1201.661, 560.993
1202.144, 567.942
1202.626, 569.667
1203.108, 570.330
1203.590, 569.811
1204.072, 567.246
1204.554, 559.731
1205.036, 555.011
1205.518, 560.651
1206.001, 566.960
1206.483, 564.504
1206.965, 569.036
1207.447, 572.924
1207.929, 568.590
1208.411, 577.627
1208.893, 571.598
1209.375, 564.488
1209.858, 561.762
1210.340, 562.419
1210.822, 567.374
1211.304, 576.280
1211.786, 576.352
1212.268, 567.011
1212.750, 558.912
1213.232, 559.893
1213.714, 563.578
1214.197, 567.786
1214.679, 571.552
1215.161, 572.190
1215.643, 569.904
1216.125, 570.333
1216.607, 574.985
1217.089, 577.072
1217.571, 568.162
1218.053, 557.907
1218.536, 551.552
1219.018, 549.447
1219.500, 555.911
1219.982, 570.435
1220.464, 579.399
1220.946, 577.708
1221.428, 573.236
1221.910, 568.479
1222.393, 566.336
1222.875, 570.704
1223.357, 581.086
1223.839, 584.868
1224.321, 582.215
1224.803, 577.982
1225.285, 572.580
1225.767, 569.122
1226.250, 570.899
1226.732, 575.205
1227.214, 578.883
1227.696, 581.889
1228.178, 584.932
1228.660, 587.992
1229.142, 589.033
1229.624, 586.207
1230.106, 581.559
1230.589, 574.362
1231.071, 567.144
1231.553, 564.351
1232.035, 566.322
1232.517, 568.334
1232.999, 570.148
1233.481, 569.160
1233.963, 557.790
1234.445, 548.425
1234.928, 551.636
1235.410, 562.650
1235.892, 571.389
1236.374, 577.783
1236.856, 576.864
1237.338, 567.008
1237.820, 558.555
1238.302, 560.270
1238.785, 565.783
1239.267, 572.728
1239.749, 579.441
1240.231, 577.907
1240.713, 568.601
1241.195, 567.083
1241.677, 579.899
1242.159, 589.823
1242.641, 578.386
1243.124, 563.348
1243.606, 559.519
1244.088, 565.167
1244.570, 561.460
1245.052, 549.490
1245.534, 545.159
1246.016, 558.165
1246.498, 571.985
1246.980, 575.167
1247.463, 574.642
1247.945, 577.082
1248.427, 582.347
1248.909, 584.030
1249.391, 582.409
1249.873, 580.196
1250.355, 576.845
1250.837, 575.816
1251.320, 580.417
1251.802, 587.156
1252.284, 594.240
1252.766, 601.375
1253.248, 597.043
1253.730, 582.204
1254.212, 570.488
1254.694, 572.130
1255.177, 575.679
1255.659, 576.685
1256.141, 576.649
1256.623, 577.929
1257.105, 580.109
1257.587, 578.843
1258.069, 574.116
1258.551, 571.082
1259.033, 573.441
1259.516, 577.383
1259.998, 582.690
1260.480, 587.408
1260.962, 587.201
1261.444, 583.340
1261.926, 580.903
1262.408, 580.556
1262.890, 581.330
1263.372, 585.887
1263.855, 587.336
1264.337, 582.166
1264.819, 573.680
1265.301, 567.850
1265.783, 565.182
1266.265, 568.830
1266.747, 580.821
1267.229, 589.140
1267.712, 585.615
1268.194, 583.437
1268.676, 588.851
1269.158, 586.556
1269.640, 596.407
1270.122, 590.063
1270.604, 587.390
1271.086, 592.287
1271.568, 595.525
1272.051, 596.003
1272.533, 594.245
1273.015, 589.734
1273.497, 583.898
1273.979, 578.668
1274.461, 574.814
1274.943, 574.216
1275.425, 579.760
1275.907, 584.037
1276.390, 587.344
1276.872, 587.679
1277.354, 580.076
1277.836, 571.102
1278.318, 574.054
1278.800, 583.915
1279.282, 588.687
1279.764, 581.666
1280.247, 581.042
1280.729, 588.526
1281.211, 595.773
1281.693, 595.427
1282.175, 591.721
1282.657, 587.740
1283.139, 584.540
1283.621, 584.783
1284.104, 589.717
1284.586, 592.950
1285.068, 593.922
1285.550, 593.915
1286.032, 593.416
1286.514, 592.958
1286.996, 593.566
1287.478, 594.493
1287.960, 593.205
1288.443, 589.385
1288.925, 586.901
1289.407, 586.168
1289.889, 587.699
1290.371, 594.231
1290.853, 600.922
1291.335, 604.671
1291.817, 605.981
1292.299, 605.774
1292.782, 604.076
1293.264, 600.088
1293.746, 593.166
1294.228, 589.323
1294.710, 595.286
1295.192, 602.230
1295.674, 606.282
1296.156, 607.663
1296.639, 605.116
1297.121, 600.231
1297.603, 600.523
1298.085, 608.972
1298.567, 615.269
1299.049, 616.342
##END=



