##NAMES=Variscite
##RRUFFID=R050467
##IDEAL CHEMISTRY=AlPO_4_&#183;2H_2_O
##LOCALITY=Garland County, Arkansas, USA
##OWNER=RRUFF
##SOURCE=University of Arizona Mineral Museum
##DESCRIPTION=Green crust of flattened crystals
##STATUS=The identification of this mineral is confirmed by single-crystal X-ray diffraction and chemical analysis.
##URL=rruff.info/R050467
##MEASURED CHEMISTRY=Al_1.00_(P_0.98_V_0.02_)_Σ=1_O_4_·2H_2_O
93.78320, 67.95088
94.26532, 67.92569
94.74744, 68.18888
95.22955, 68.57137
95.71167, 69.07179
96.19379, 69.29446
96.67590, 69.30645
97.15802, 69.36134
97.64014, 69.38852
98.12225, 69.48259
98.60437, 69.84636
99.08649, 70.60832
99.56860, 71.63149
100.0507, 72.71129
100.5328, 73.79098
101.0150, 74.69901
101.4971, 75.28403
101.9792, 75.55165
102.4613, 75.75312
102.9434, 75.96607
103.4255, 76.14464
103.9077, 76.19312
104.3898, 76.03122
104.8719, 75.86832
105.3540, 76.14498
105.8361, 77.05016
106.3182, 78.10165
106.8004, 79.28233
107.2825, 80.49317
107.7646, 81.58967
108.2467, 82.46007
108.7288, 83.13614
109.2109, 84.07872
109.6931, 85.11145
110.1752, 86.57594
110.6573, 88.82085
111.1394, 91.63515
111.6215, 94.49491
112.1036, 96.91788
112.5858, 98.83949
113.0679, 100.8507
113.5500, 102.6967
114.0321, 104.7742
114.5142, 107.3363
114.9964, 110.4235
115.4785, 113.9857
115.9606, 118.0166
116.4427, 122.4750
116.9248, 127.3569
117.4069, 132.7631
117.8891, 138.5788
118.3712, 144.7356
118.8533, 151.4718
119.3354, 158.0959
119.8175, 164.8000
120.2996, 171.4789
120.7818, 176.0715
121.2639, 177.3948
121.7460, 175.4552
122.2281, 170.0666
122.7102, 158.1424
123.1923, 144.4806
123.6745, 130.6827
124.1566, 117.2159
124.6387, 104.9320
125.1208, 95.01787
125.6029, 88.05795
126.0850, 82.57647
126.5672, 78.64022
127.0493, 75.64758
127.5314, 73.22057
128.0135, 71.18156
128.4956, 69.51836
128.9777, 68.16237
129.4599, 67.37270
129.9420, 66.64848
130.4241, 65.89935
130.9062, 65.20148
131.3883, 64.63910
131.8705, 64.23669
132.3526, 64.03622
132.8347, 64.26453
133.3168, 65.27953
133.7989, 66.26322
134.2810, 66.76118
134.7632, 66.86980
135.2453, 67.10680
135.7274, 67.83215
136.2095, 68.97207
136.6916, 70.11937
137.1737, 71.09407
137.6559, 72.16990
138.1380, 73.69193
138.6201, 75.73470
139.1022, 77.88795
139.5843, 79.83171
140.0664, 81.73117
140.5486, 83.84807
141.0307, 86.58855
141.5128, 89.58965
141.9949, 91.76382
142.4770, 93.05370
142.9591, 93.45455
143.4413, 93.14326
143.9234, 92.10127
144.4055, 90.23317
144.8876, 87.26627
145.3697, 83.19744
145.8518, 79.58232
146.3340, 76.75813
146.8161, 74.14078
147.2982, 71.63588
147.7803, 69.20360
148.2624, 66.79985
148.7445, 64.31564
149.2267, 61.61442
149.7088, 59.54878
150.1909, 58.30163
150.6730, 57.37858
151.1551, 56.56648
151.6372, 55.80836
152.1194, 55.10606
152.6015, 54.44111
153.0836, 53.76748
153.5657, 53.34285
154.0478, 53.33548
154.5299, 53.49527
155.0121, 53.54072
155.4942, 53.38958
155.9763, 53.24137
156.4584, 53.46582
156.9405, 54.09018
157.4227, 54.64973
157.9048, 54.96874
158.3869, 55.13783
158.8690, 55.33435
159.3511, 55.58194
159.8332, 55.91673
160.3154, 56.39238
160.7975, 57.01032
161.2796, 57.63960
161.7617, 58.24676
162.2438, 58.82608
162.7259, 59.22676
163.2081, 59.05545
163.6902, 59.00432
164.1723, 59.67970
164.6544, 61.13891
165.1365, 62.78551
165.6186, 63.97523
166.1008, 64.59711
166.5829, 65.23723
167.0650, 65.84422
167.5471, 66.59183
168.0292, 67.72317
168.5113, 69.26782
168.9935, 70.86863
169.4756, 71.87794
169.9577, 71.85023
170.4398, 72.07451
170.9219, 72.76022
171.4040, 73.63139
171.8862, 74.41609
172.3683, 75.02170
172.8504, 75.61093
173.3325, 76.58481
173.8146, 78.35493
174.2967, 80.04605
174.7789, 81.86552
175.2610, 83.52402
175.7431, 84.59573
176.2252, 84.87809
176.7073, 84.62575
177.1894, 84.67761
177.6716, 85.74315
178.1537, 86.22820
178.6358, 85.72352
179.1179, 84.43701
179.6000, 82.66228
180.0821, 80.42545
180.5643, 77.95407
181.0464, 75.96090
181.5285, 74.62651
182.0106, 73.37798
182.4927, 71.92204
182.9749, 70.30933
183.4570, 68.76579
183.9391, 67.39713
184.4212, 66.18138
184.9033, 65.01602
185.3854, 63.83696
185.8676, 62.81173
186.3497, 62.12165
186.8318, 61.77403
187.3139, 61.49896
187.7960, 61.08083
188.2781, 60.72924
188.7603, 60.71364
189.2424, 61.15793
189.7245, 61.78878
190.2066, 62.26936
190.6887, 62.57623
191.1708, 62.81449
191.6530, 62.87107
192.1351, 62.94585
192.6172, 63.19142
193.0993, 63.64664
193.5814, 64.34889
194.0635, 65.43957
194.5457, 67.21709
195.0278, 68.78189
195.5099, 69.87426
195.9920, 70.72842
196.4741, 71.56335
196.9562, 72.47652
197.4384, 73.42419
197.9205, 74.30730
198.4026, 75.31773
198.8847, 75.94653
199.3668, 75.93136
199.8489, 75.60001
200.3311, 75.29589
200.8132, 75.19099
201.2953, 75.24963
201.7774, 75.33151
202.2595, 75.32786
202.7416, 75.47890
203.2238, 75.58949
203.7059, 75.91618
204.1880, 76.88042
204.6701, 78.73484
205.1522, 81.27798
205.6344, 83.61449
206.1165, 85.51494
206.5986, 87.52530
207.0807, 89.85693
207.5628, 92.37510
208.0449, 94.79806
208.5271, 96.94444
209.0092, 98.93625
209.4913, 101.2479
209.9734, 103.9564
210.4555, 106.8039
210.9376, 109.6909
211.4198, 112.6384
211.9019, 115.7463
212.3840, 119.0519
212.8661, 122.5306
213.3482, 126.0294
213.8303, 129.2394
214.3125, 132.8951
214.7946, 137.6143
215.2767, 143.2363
215.7588, 148.7211
216.2409, 153.4087
216.7230, 157.8791
217.2052, 163.1647
217.6873, 169.3391
218.1694, 176.1443
218.6515, 183.4693
219.1336, 191.3341
219.6157, 199.4544
220.0979, 207.5996
220.5800, 216.1432
221.0621, 225.4863
221.5442, 235.7395
222.0263, 246.5357
222.5084, 257.8355
222.9906, 269.7993
223.4727, 281.0620
223.9548, 291.9065
224.4369, 301.2822
224.9190, 308.6444
225.4011, 313.9727
225.8833, 316.4098
226.3654, 314.8676
226.8475, 309.0971
227.3296, 300.4828
227.8117, 287.7446
228.2938, 273.2010
228.7760, 257.7169
229.2581, 241.5223
229.7402, 225.4999
230.2223, 210.6338
230.7044, 196.7338
231.1866, 184.5808
231.6687, 174.5499
232.1508, 165.9444
232.6329, 158.6091
233.1150, 152.4023
233.5971, 147.0659
234.0793, 142.2831
234.5614, 138.1881
235.0435, 134.3669
235.5256, 131.2137
236.0077, 127.9895
236.4898, 124.0662
236.9720, 119.4426
237.4541, 114.7205
237.9362, 110.7179
238.4183, 107.6694
238.9004, 104.9002
239.3825, 102.7202
239.8647, 100.5530
240.3468, 98.01047
240.8289, 95.04979
241.3110, 91.94601
241.7931, 88.96620
242.2752, 86.05797
242.7574, 83.55276
243.2395, 81.51241
243.7216, 79.76163
244.2037, 78.23415
244.6858, 76.90447
245.1679, 75.72778
245.6501, 74.65831
246.1322, 73.70922
246.6143, 72.86093
247.0964, 72.10874
247.5785, 71.44455
248.0606, 70.77483
248.5428, 70.13490
249.0249, 69.77126
249.5070, 70.00710
249.9891, 70.98351
250.4712, 71.47398
250.9533, 71.01664
251.4355, 70.46482
251.9176, 70.42873
252.3997, 70.91282
252.8818, 71.51026
253.3639, 71.93208
253.8460, 72.15043
254.3282, 72.13346
254.8103, 71.66654
255.2924, 71.14050
255.7745, 70.86295
256.2566, 70.81895
256.7387, 70.74043
257.2209, 70.40525
257.7030, 69.86221
258.1851, 69.47210
258.6672, 69.39954
259.1493, 69.34736
259.6314, 69.04542
260.1136, 68.52710
260.5957, 68.14511
261.0778, 68.26118
261.5599, 68.60669
262.0420, 68.38364
262.5241, 67.15896
263.0063, 65.86931
263.4884, 65.16340
263.9705, 64.99548
264.4526, 64.98660
264.9347, 65.05319
265.4168, 65.11766
265.8990, 64.99607
266.3811, 64.51878
266.8632, 64.21766
267.3453, 64.63226
267.8275, 65.66245
268.3096, 66.52917
268.7917, 66.94027
269.2738, 67.04387
269.7559, 67.08046
270.2380, 67.05518
270.7202, 66.95539
271.2023, 66.61524
271.6844, 66.11243
272.1665, 66.03915
272.6486, 66.88341
273.1307, 67.84335
273.6129, 68.09531
274.0950, 67.64481
274.5771, 67.08842
275.0592, 66.78992
275.5413, 66.71413
276.0234, 66.64689
276.5056, 66.48506
276.9877, 66.43453
277.4698, 66.72747
277.9519, 67.28986
278.4340, 67.75031
278.9161, 67.80891
279.3983, 67.55934
279.8804, 67.40282
280.3625, 67.29978
280.8446, 67.41072
281.3267, 67.83509
281.8088, 68.51020
282.2910, 69.30360
282.7731, 70.17773
283.2552, 71.11198
283.7373, 72.07716
284.2194, 73.20253
284.7015, 74.09554
285.1837, 74.34584
285.6658, 74.32533
286.1479, 74.66493
286.6300, 75.87521
287.1121, 77.39389
287.5942, 77.83482
288.0764, 76.73758
288.5585, 75.62549
289.0406, 75.07694
289.5227, 74.79593
290.0048, 74.45350
290.4869, 73.89091
290.9691, 73.35989
291.4512, 73.38290
291.9333, 74.20243
292.4154, 74.80177
292.8975, 74.80544
293.3796, 74.55694
293.8618, 74.31960
294.3439, 74.16043
294.8260, 73.90880
295.3081, 73.21870
295.7902, 71.91553
296.2723, 71.01095
296.7545, 71.22423
297.2366, 71.49768
297.7187, 71.22813
298.2008, 70.36804
298.6829, 69.26341
299.1650, 68.27965
299.6472, 67.44236
300.1293, 66.45590
300.6114, 65.16610
301.0935, 63.84252
301.5756, 62.55610
302.0577, 61.33472
302.5399, 60.19744
303.0220, 59.12155
303.5041, 58.11870
303.9862, 57.43143
304.4683, 57.23574
304.9504, 57.18660
305.4326, 57.16789
305.9147, 57.19447
306.3968, 57.31923
306.8789, 57.60345
307.3610, 57.99388
307.8431, 58.24856
308.3253, 58.28610
308.8074, 58.30835
309.2895, 58.25053
309.7716, 58.25183
310.2537, 58.50904
310.7358, 59.12811
311.2180, 59.95208
311.7001, 60.62161
312.1822, 61.05796
312.6643, 61.52286
313.1464, 61.87083
313.6285, 62.37484
314.1107, 63.35863
314.5928, 64.89214
315.0749, 66.60515
315.5570, 67.90297
316.0392, 68.59612
316.5213, 69.56574
317.0034, 71.04487
317.4855, 72.71938
317.9676, 74.49229
318.4497, 76.32105
318.9319, 78.13181
319.4140, 79.75065
319.8961, 81.11108
320.3782, 82.91129
320.8603, 85.59643
321.3424, 88.32706
321.8246, 90.74693
322.3067, 92.94631
322.7888, 95.27262
323.2709, 98.13786
323.7530, 101.3643
324.2351, 103.5237
324.7173, 104.2393
325.1994, 104.3030
325.6815, 104.0631
326.1636, 103.3945
326.6457, 102.0606
327.1278, 99.89340
327.6100, 97.14478
328.0921, 94.34105
328.5742, 91.32037
329.0563, 88.60420
329.5384, 86.15979
330.0205, 84.10474
330.5027, 82.64870
330.9848, 81.84106
331.4669, 81.34785
331.9490, 80.65115
332.4311, 79.62465
332.9132, 78.95381
333.3954, 78.99893
333.8775, 79.24844
334.3596, 79.43253
334.8417, 79.54192
335.3238, 79.74704
335.8059, 80.28271
336.2881, 81.15737
336.7702, 81.83293
337.2523, 82.10920
337.7344, 82.39089
338.2165, 82.95539
338.6986, 83.67329
339.1808, 84.22243
339.6629, 84.29757
340.1450, 84.08035
340.6271, 84.31129
341.1092, 85.28716
341.5913, 86.13706
342.0735, 86.44686
342.5556, 86.48647
343.0377, 86.56876
343.5198, 86.80828
344.0019, 87.13950
344.4840, 87.49387
344.9662, 87.90999
345.4483, 88.19081
345.9304, 88.02747
346.4125, 87.85223
346.8946, 88.04662
347.3767, 88.66794
347.8589, 89.30451
348.3410, 89.56973
348.8231, 89.47095
349.3052, 89.22124
349.7873, 88.53416
350.2694, 88.08043
350.7516, 88.50217
351.2337, 89.59940
351.7158, 90.51067
352.1979, 90.69054
352.6800, 90.28780
353.1621, 89.71249
353.6443, 88.81235
354.1264, 88.10816
354.6085, 88.30184
355.0906, 88.81699
355.5727, 88.67706
356.0548, 87.29214
356.5370, 85.44193
357.0191, 84.12584
357.5012, 83.37952
357.9833, 82.85890
358.4654, 82.64648
358.9475, 82.46448
359.4297, 81.91386
359.9118, 80.86429
360.3939, 79.89787
360.8760, 79.46983
361.3581, 79.50838
361.8402, 79.64998
362.3224, 79.83340
362.8045, 80.06843
363.2866, 80.51189
363.7687, 81.12083
364.2508, 81.34039
364.7329, 80.60677
365.2151, 79.45232
365.6972, 78.81480
366.1793, 78.83292
366.6614, 78.98787
367.1436, 78.97311
367.6257, 78.78635
368.1078, 78.42032
368.5899, 77.61515
369.0720, 76.84215
369.5541, 76.48820
370.0363, 76.51916
370.5184, 76.72648
371.0005, 77.04031
371.4826, 77.45557
371.9647, 77.96935
372.4468, 78.63855
372.9290, 79.24841
373.4111, 79.61313
373.8932, 79.88029
374.3753, 80.34380
374.8574, 81.09866
375.3395, 81.93799
375.8217, 82.57655
376.3038, 82.98075
376.7859, 83.48260
377.2680, 84.21767
377.7501, 84.99148
378.2322, 85.58644
378.7144, 86.01842
379.1965, 86.53690
379.6786, 87.36203
380.1607, 88.45457
380.6428, 89.36897
381.1249, 90.04905
381.6071, 90.63680
382.0892, 91.15036
382.5713, 91.61299
383.0534, 92.14323
383.5355, 92.82177
384.0176, 93.39526
384.4998, 93.29402
384.9819, 91.83952
385.4640, 90.79762
385.9461, 90.38414
386.4282, 90.28870
386.9103, 90.36398
387.3925, 90.53019
387.8746, 90.61279
388.3567, 90.40118
388.8388, 89.83364
389.3209, 89.42079
389.8030, 89.20334
390.2852, 89.06809
390.7673, 89.05385
391.2494, 89.08327
391.7315, 88.99559
392.2136, 88.68387
392.6957, 88.23733
393.1779, 87.99909
393.6600, 87.97960
394.1421, 88.18909
394.6242, 88.73470
395.1063, 89.43050
395.5884, 90.11298
396.0706, 90.74199
396.5527, 91.36919
397.0348, 92.05992
397.5169, 92.80428
397.9990, 93.63602
398.4811, 94.56595
398.9633, 95.57011
399.4454, 96.81368
399.9275, 98.13768
400.4096, 99.14722
400.8917, 99.43436
401.3738, 99.26052
401.8560, 99.77404
402.3381, 101.2128
402.8202, 102.9197
403.3023, 104.7938
403.7844, 106.7589
404.2665, 108.7473
404.7487, 110.7396
405.2308, 112.7556
405.7129, 114.8254
406.1950, 116.9679
406.6771, 119.0408
407.1592, 120.8716
407.6414, 122.7736
408.1235, 124.9298
408.6056, 127.3362
409.0877, 129.9440
409.5698, 132.9365
410.0519, 136.0676
410.5341, 138.6833
411.0162, 140.6111
411.4983, 142.5902
411.9804, 145.1036
412.4625, 147.9540
412.9446, 150.8645
413.4268, 154.0151
413.9089, 156.8366
414.3910, 158.7830
414.8731, 159.9627
415.3553, 160.8751
415.8374, 161.6370
416.3195, 162.2630
416.8016, 162.6686
417.2837, 162.8155
417.7658, 163.2462
418.2480, 164.6027
418.7301, 166.0546
419.2122, 166.3694
419.6943, 165.4844
420.1764, 164.7956
420.6585, 165.4602
421.1407, 167.3712
421.6228, 168.9664
422.1049, 169.9004
422.5870, 170.9445
423.0691, 172.4028
423.5512, 174.1786
424.0334, 176.1389
424.5155, 178.2282
424.9976, 180.3765
425.4797, 182.4241
425.9618, 184.2180
426.4439, 186.2308
426.9261, 188.4790
427.4082, 190.9328
427.8903, 193.5818
428.3724, 196.4270
428.8545, 199.4764
429.3366, 202.7802
429.8188, 206.3378
430.3009, 209.6717
430.7830, 212.4695
431.2651, 215.4101
431.7472, 218.8634
432.2293, 222.4144
432.7115, 225.7015
433.1936, 228.5660
433.6757, 230.6931
434.1578, 231.4045
434.6399, 230.3363
435.1220, 229.1320
435.6042, 228.2962
436.0863, 226.9951
436.5684, 224.8446
437.0505, 221.8604
437.5326, 218.1934
438.0147, 213.8826
438.4969, 208.9993
438.9790, 203.7748
439.4611, 198.1774
439.9432, 192.3274
440.4253, 186.2891
440.9074, 179.9800
441.3896, 173.1526
441.8717, 165.6207
442.3538, 158.2295
442.8359, 151.8283
443.3180, 146.2563
443.8001, 140.8944
444.2823, 135.6290
444.7644, 130.4865
445.2465, 125.2577
445.7286, 120.0260
446.2107, 115.6100
446.6928, 112.7674
447.1750, 110.4705
447.6571, 107.6244
448.1392, 104.2900
448.6213, 101.2048
449.1034, 98.76450
449.5855, 96.84913
450.0677, 95.16286
450.5498, 93.83559
451.0319, 92.42297
451.5140, 90.75948
451.9961, 88.97688
452.4782, 87.09315
452.9604, 85.15329
453.4425, 83.57325
453.9246, 82.83809
454.4067, 83.04649
454.8888, 83.08723
455.3709, 82.93181
455.8531, 82.67480
456.3352, 82.21705
456.8173, 81.70925
457.2994, 81.42931
457.7815, 81.50935
458.2636, 81.74473
458.7458, 81.66370
459.2279, 80.93800
459.7100, 80.59373
460.1921, 80.95853
460.6742, 81.40910
461.1563, 81.61646
461.6385, 81.57133
462.1206, 81.39340
462.6027, 81.09951
463.0848, 80.76359
463.5669, 80.84937
464.0491, 81.70035
464.5312, 82.26469
465.0133, 81.82512
465.4954, 81.12369
465.9775, 80.92252
466.4597, 81.41219
466.9418, 82.15337
467.4239, 82.87817
467.9060, 83.54743
468.3881, 83.85964
468.8702, 83.62830
469.3524, 83.31442
469.8345, 83.18299
470.3166, 83.25730
470.7987, 83.69144
471.2808, 84.88345
471.7629, 86.17210
472.2451, 86.89871
472.7272, 87.16430
473.2093, 87.50163
473.6914, 88.16439
474.1735, 88.95672
474.6556, 89.47469
475.1378, 89.62691
475.6199, 89.86349
476.1020, 90.26121
476.5841, 90.76350
477.0662, 91.49883
477.5483, 92.36475
478.0305, 92.86973
478.5126, 92.57832
478.9947, 91.60509
479.4768, 90.97701
479.9589, 91.14836
480.4410, 91.10255
480.9232, 90.53288
481.4053, 89.77473
481.8874, 89.26535
482.3695, 89.06723
482.8516, 88.78922
483.3337, 87.95249
483.8159, 86.51501
484.2980, 84.86167
484.7801, 82.65981
485.2622, 80.62267
485.7443, 79.20464
486.2264, 78.06742
486.7086, 76.63806
487.1907, 74.63338
487.6728, 72.40346
488.1549, 70.32212
488.6370, 68.37488
489.1191, 66.90112
489.6013, 66.27596
490.0834, 65.81477
490.5655, 64.91233
491.0476, 63.61359
491.5297, 62.23410
492.0118, 60.61431
492.4940, 59.14032
492.9761, 58.51176
493.4582, 58.68584
493.9403, 58.67020
494.4224, 57.86131
494.9045, 56.62828
495.3867, 55.94221
495.8688, 55.96272
496.3509, 56.00001
496.8330, 55.85433
497.3151, 55.67003
497.7972, 55.63443
498.2794, 55.74898
498.7615, 55.83459
499.2436, 55.71999
499.7257, 55.42392
500.2078, 55.28794
500.6899, 55.47354
501.1721, 55.62417
501.6542, 55.66999
502.1363, 55.65943
502.6184, 55.63376
503.1005, 55.60986
503.5826, 55.60414
504.0648, 55.59646
504.5469, 55.56116
505.0290, 55.80358
505.5111, 56.63894
505.9932, 57.36433
506.4753, 57.57959
506.9575, 57.54371
507.4396, 57.68457
507.9217, 58.18587
508.4038, 58.81719
508.8859, 59.29813
509.3680, 59.63771
509.8502, 59.95875
510.3323, 60.20554
510.8144, 60.57523
511.2965, 61.35794
511.7786, 62.47129
512.2607, 63.50807
512.7429, 64.37171
513.2250, 65.11329
513.7071, 65.70657
514.1892, 66.20155
514.6713, 66.82623
515.1534, 67.71031
515.6356, 68.70358
516.1177, 69.49577
516.5998, 69.92705
517.0819, 70.53854
517.5640, 71.40047
518.0461, 72.40136
518.5283, 73.53145
519.0104, 74.74145
519.4925, 75.88096
519.9746, 76.82901
520.4567, 77.69852
520.9388, 78.94905
521.4210, 80.92454
521.9031, 82.63396
522.3852, 83.82970
522.8673, 84.85960
523.3494, 85.82088
523.8315, 86.80553
524.3137, 88.08119
524.7958, 90.07169
525.2779, 92.47945
525.7600, 94.15782
526.2421, 94.92731
526.7242, 95.63221
527.2064, 96.66734
527.6885, 97.82150
528.1706, 98.84946
528.6527, 99.72984
529.1348, 100.4948
529.6169, 101.2286
530.0991, 101.8376
530.5812, 102.1524
531.0633, 102.1547
531.5454, 101.9812
532.0275, 101.7547
532.5096, 101.4378
532.9918, 100.7635
533.4739, 99.11752
533.9560, 97.95934
534.4381, 98.05396
534.9202, 98.53580
535.4023, 98.43393
535.8845, 97.59422
536.3666, 96.50932
536.8487, 95.62933
537.3308, 94.95206
537.8129, 94.65388
538.2951, 95.35120
538.7772, 95.60592
539.2593, 94.69954
539.7415, 93.41393
540.2236, 92.61211
540.7057, 92.51145
541.1878, 92.61065
541.6699, 92.37749
542.1520, 91.87669
542.6342, 91.55259
543.1163, 91.43691
543.5984, 91.50054
544.0805, 91.93608
544.5626, 92.49771
545.0447, 92.65775
545.5269, 92.02822
546.0090, 91.60049
546.4911, 92.27394
546.9732, 93.48014
547.4553, 94.00647
547.9374, 93.59197
548.4196, 93.06335
548.9017, 93.25139
549.3838, 94.17834
549.8659, 94.78860
550.3480, 94.81290
550.8301, 94.90391
551.3123, 95.26010
551.7944, 95.77243
552.2765, 96.24020
552.7586, 96.63470
553.2407, 97.20210
553.7228, 98.36372
554.2050, 100.1839
554.6871, 101.3842
555.1692, 101.5640
555.6513, 101.6681
556.1334, 101.9816
556.6155, 102.4463
557.0977, 103.0130
557.5798, 103.6819
558.0619, 104.3479
558.5440, 104.9748
559.0261, 105.5264
559.5082, 105.9235
559.9904, 106.1962
560.4725, 106.1071
560.9546, 105.2948
561.4367, 103.9277
561.9188, 102.9185
562.4009, 102.5251
562.8831, 102.1811
563.3652, 101.7296
563.8473, 101.1790
564.3294, 100.5587
564.8115, 99.86755
565.2936, 99.03809
565.7758, 97.99239
566.2579, 96.72588
566.7400, 95.44830
567.2221, 94.27087
567.7042, 92.93641
568.1863, 91.34563
568.6685, 89.61527
569.1506, 87.79385
569.6327, 85.93047
570.1148, 84.20589
570.5969, 82.91512
571.0790, 81.96624
571.5612, 80.78270
572.0433, 79.30189
572.5254, 77.72881
573.0075, 75.96047
573.4896, 74.26315
573.9717, 73.11812
574.4539, 72.78626
574.9360, 72.22215
575.4181, 70.63154
575.9002, 68.65288
576.3823, 67.24846
576.8644, 66.48096
577.3466, 65.71153
577.8287, 64.42992
578.3108, 62.81568
578.7929, 61.75615
579.2750, 61.91097
579.7571, 61.76325
580.2393, 61.01913
580.7214, 60.10973
581.2035, 59.29978
581.6856, 58.65161
582.1677, 58.16680
582.6498, 57.89604
583.1320, 57.74380
583.6141, 57.35390
584.0962, 56.63553
584.5783, 55.98082
585.0604, 55.41928
585.5425, 55.03156
586.0247, 54.99022
586.5068, 55.25733
586.9889, 55.38041
587.4710, 55.03003
587.9531, 54.52181
588.4352, 54.21182
588.9174, 54.08549
589.3995, 54.00801
589.8816, 53.93002
590.3637, 53.84737
590.8458, 53.73937
591.3279, 53.54896
591.8101, 53.51281
592.2922, 53.66746
592.7743, 53.93549
593.2564, 54.35292
593.7385, 54.83816
594.2206, 55.27062
594.7028, 55.59424
595.1849, 55.79821
595.6670, 55.79024
596.1491, 55.50728
596.6312, 55.49385
597.1133, 55.94818
597.5955, 56.47194
598.0776, 56.85529
598.5597, 57.14905
599.0418, 57.44895
599.5239, 57.78612
600.0060, 58.12575
600.4882, 58.42727
600.9703, 58.71156
601.4524, 59.04716
601.9345, 59.44918
602.4166, 59.83923
602.8987, 60.13490
603.3809, 60.34679
603.8630, 60.61773
604.3451, 60.90928
604.8272, 61.30016
605.3093, 62.03356
605.7914, 62.73112
606.2736, 62.96124
606.7557, 62.71898
607.2378, 62.36843
607.7199, 62.17524
608.2020, 62.15012
608.6841, 62.38192
609.1663, 62.96611
609.6484, 63.53543
610.1305, 64.09705
610.6126, 64.51035
611.0947, 64.63333
611.5768, 64.46894
612.0590, 64.17986
612.5411, 63.76954
613.0232, 63.31426
613.5053, 62.87427
613.9874, 62.46136
614.4695, 62.15784
614.9517, 62.03428
615.4338, 61.86611
615.9159, 61.25744
616.3980, 60.04445
616.8801, 58.94531
617.3622, 58.03032
617.8444, 57.12896
618.3265, 56.14581
618.8086, 55.13219
619.2907, 54.17602
619.7728, 53.30511
620.2549, 52.50853
620.7371, 51.77867
621.2192, 51.11404
621.7013, 50.47606
622.1834, 49.84547
622.6655, 49.28529
623.1476, 49.01044
623.6298, 48.77159
624.1119, 48.09602
624.5940, 46.76094
625.0761, 45.54937
625.5582, 44.96793
626.0403, 44.63161
626.5225, 44.07363
627.0046, 43.26090
627.4867, 42.36803
627.9688, 41.47900
628.4509, 40.63592
628.9330, 39.96699
629.4152, 39.59753
629.8973, 39.18273
630.3794, 38.59614
630.8615, 38.07243
631.3436, 37.73926
631.8257, 37.57721
632.3079, 37.53955
632.7900, 37.65733
633.2721, 37.74137
633.7542, 37.46062
634.2363, 36.86066
634.7184, 36.35981
635.2006, 36.04144
635.6827, 35.83002
636.1648, 35.73525
636.6469, 35.71487
637.1291, 35.48261
637.6112, 34.73774
638.0933, 34.14476
638.5754, 33.94872
639.0576, 34.00363
639.5397, 34.28928
640.0218, 34.70603
640.5039, 34.87423
640.9860, 34.42276
641.4681, 33.52176
641.9503, 33.03224
642.4324, 33.13260
642.9145, 33.19703
643.3966, 33.02181
643.8787, 32.82546
644.3608, 32.75072
644.8430, 32.78936
645.3251, 32.86340
645.8072, 33.01489
646.2893, 33.12030
646.7714, 33.01185
647.2535, 32.74883
647.7357, 32.50338
648.2178, 32.32181
648.6999, 32.23740
649.1820, 32.32174
649.6641, 32.59249
650.1462, 32.66841
650.6284, 32.37082
651.1105, 32.11186
651.5926, 31.93821
652.0747, 31.86391
652.5568, 31.94973
653.0389, 32.17241
653.5211, 32.37689
654.0032, 32.46934
654.4853, 32.43669
654.9674, 32.17385
655.4495, 31.64853
655.9316, 31.26731
656.4138, 31.20967
656.8959, 31.30325
657.3780, 31.35076
657.8601, 31.35500
658.3422, 31.31946
658.8243, 31.15367
659.3065, 31.04187
659.7886, 31.12021
660.2707, 31.30956
660.7528, 31.48100
661.2349, 31.59546
661.7170, 31.70415
662.1992, 31.89911
662.6813, 32.16637
663.1634, 32.13569
663.6455, 31.60553
664.1276, 31.17353
664.6097, 31.11227
665.0919, 31.18023
665.5740, 31.15892
666.0561, 31.03856
666.5382, 30.98784
667.0203, 31.17165
667.5024, 31.39576
667.9846, 31.43492
668.4667, 31.33066
668.9488, 31.23572
669.4309, 31.20405
669.9130, 31.23049
670.3951, 31.33423
670.8773, 31.55170
671.3594, 31.55039
671.8415, 31.04679
672.3236, 30.65575
672.8057, 30.56638
673.2878, 30.61893
673.7700, 30.66583
674.2521, 30.67403
674.7342, 30.65600
675.2163, 30.60233
675.6984, 30.53544
676.1805, 30.48986
676.6627, 30.46679
677.1448, 30.50970
677.6269, 30.65499
678.1090, 30.82495
678.5911, 30.90319
679.0732, 30.86350
679.5554, 30.88434
680.0375, 30.99397
680.5196, 31.12964
681.0017, 31.36042
681.4838, 31.55886
681.9659, 31.51077
682.4481, 31.20054
682.9302, 30.89610
683.4123, 30.91500
683.8944, 31.13294
684.3765, 30.95181
684.8586, 30.26003
685.3408, 29.86830
685.8229, 30.22205
686.3050, 30.80533
686.7871, 30.89562
687.2692, 30.51189
687.7513, 30.35589
688.2335, 30.82328
688.7156, 31.23456
689.1977, 31.19080
689.6798, 30.86418
690.1619, 30.43731
690.6440, 30.00427
691.1262, 29.78246
691.6083, 30.05504
692.0904, 30.72608
692.5725, 31.10234
693.0546, 31.11197
693.5367, 31.02711
694.0189, 30.79641
694.5010, 30.60946
694.9831, 30.73034
695.4652, 31.10093
695.9473, 31.25186
696.4294, 30.76488
696.9116, 30.29569
697.3937, 30.35547
697.8758, 30.73405
698.3579, 31.06006
698.8400, 31.24129
699.3221, 31.37124
699.8043, 31.54877
700.2864, 31.74914
700.7685, 31.76067
701.2506, 31.43526
701.7327, 31.23530
702.2148, 31.40870
702.6970, 31.60515
703.1791, 31.57197
703.6612, 31.35623
704.1433, 31.18522
704.6254, 31.17340
705.1075, 31.19343
705.5897, 31.08841
706.0718, 30.95078
706.5539, 31.02065
707.0360, 31.32815
707.5181, 31.62689
708.0002, 31.71729
708.4824, 31.63213
708.9645, 31.52387
709.4466, 31.29183
709.9287, 31.23271
710.4108, 31.52246
710.8929, 31.84434
711.3751, 32.03867
711.8572, 32.12232
712.3393, 32.17014
712.8214, 32.22632
713.3035, 32.21004
713.7856, 31.98260
714.2678, 31.64847
714.7499, 31.41598
715.2320, 31.31553
715.7141, 31.31555
716.1962, 31.40910
716.6783, 31.56230
717.1605, 31.67875
717.6426, 31.78474
718.1247, 31.79868
718.6068, 31.61343
719.0889, 31.45300
719.5710, 31.40088
720.0532, 31.44761
720.5353, 31.59766
721.0174, 31.86946
721.4995, 32.09163
721.9816, 32.04299
722.4637, 31.87682
722.9459, 31.93536
723.4280, 32.21997
723.9101, 32.44540
724.3922, 32.45977
724.8743, 32.37937
725.3564, 32.42912
725.8386, 32.66578
726.3207, 32.82818
726.8028, 33.00581
727.2849, 33.00851
727.7670, 32.59919
728.2491, 32.07438
728.7313, 31.80606
729.2134, 31.85462
729.6955, 31.96173
730.1776, 31.90208
730.6597, 31.81277
731.1418, 31.96794
731.6240, 32.31746
732.1061, 32.54937
732.5882, 32.54736
733.0703, 32.44973
733.5524, 32.42213
734.0345, 32.46886
734.5167, 32.48284
734.9988, 32.35135
735.4809, 32.33832
735.9631, 32.65520
736.4452, 32.97525
736.9273, 32.96738
737.4094, 32.67830
737.8915, 32.47132
738.3737, 32.62803
738.8558, 32.82175
739.3379, 32.57450
739.8200, 32.06451
740.3021, 31.85377
740.7842, 32.05424
741.2664, 32.41627
741.7485, 32.77514
742.2306, 33.10196
742.7127, 33.24990
743.1948, 33.14502
743.6769, 32.99091
744.1591, 32.69775
744.6412, 32.46012
745.1233, 32.37442
745.6054, 32.42273
746.0875, 32.57426
746.5696, 32.84151
747.0518, 33.11014
747.5339, 33.34034
748.0160, 33.49137
748.4981, 33.40862
748.9802, 33.13359
749.4623, 33.00102
749.9445, 33.19048
750.4266, 33.56409
750.9087, 33.89341
751.3908, 34.21405
751.8729, 34.30992
752.3550, 33.89432
752.8372, 33.63639
753.3193, 34.01223
753.8014, 34.48871
754.2835, 34.38575
754.7656, 33.64261
755.2477, 33.01048
755.7299, 32.85520
756.2120, 32.95530
756.6941, 33.22124
757.1762, 33.55827
757.6583, 33.76363
758.1404, 33.78110
758.6226, 33.65275
759.1047, 33.38036
759.5868, 33.01666
760.0689, 32.94692
760.5510, 33.31145
761.0331, 33.59868
761.5153, 33.68117
761.9974, 33.69098
762.4795, 33.69126
762.9616, 33.69722
763.4437, 33.75615
763.9258, 33.89585
764.4080, 34.05725
764.8901, 34.29485
765.3722, 34.48549
765.8543, 34.38832
766.3364, 34.08860
766.8185, 33.96917
767.3007, 34.24748
767.7828, 34.68691
768.2649, 34.85900
768.7470, 34.75154
769.2291, 34.68494
769.7112, 34.67673
770.1934, 34.69549
770.6755, 34.74747
771.1576, 34.80357
771.6397, 34.77844
772.1218, 34.63523
772.6039, 34.66988
773.0861, 35.10764
773.5682, 35.54295
774.0503, 35.78456
774.5324, 35.87986
775.0145, 35.86359
775.4966, 35.77118
775.9788, 35.71896
776.4609, 35.82758
776.9430, 36.02119
777.4251, 36.10633
777.9072, 36.08641
778.3893, 36.10231
778.8715, 36.19769
779.3536, 36.28907
779.8357, 36.27825
780.3178, 36.19658
780.7999, 36.25801
781.2820, 36.71111
781.7642, 36.94507
782.2463, 36.72071
782.7284, 36.46590
783.2105, 36.47050
783.6926, 36.64771
784.1747, 36.76305
784.6569, 36.72468
785.1390, 36.71210
785.6211, 36.96073
786.1032, 37.31776
786.5853, 37.48482
787.0674, 37.45923
787.5496, 37.32098
788.0317, 37.08300
788.5138, 36.92371
788.9959, 37.13712
789.4780, 37.76456
789.9601, 38.17097
790.4423, 38.24456
790.9244, 38.27443
791.4065, 38.31415
791.8886, 38.35073
792.3707, 38.36819
792.8528, 38.37112
793.3350, 38.38818
793.8171, 38.46660
794.2992, 38.51163
794.7813, 38.43045
795.2634, 38.29803
795.7455, 38.24424
796.2277, 38.25714
796.7098, 38.16347
797.1919, 37.83493
797.6740, 37.50521
798.1561, 37.74541
798.6382, 38.59114
799.1204, 38.98565
799.6025, 38.71433
800.0846, 38.44707
800.5667, 38.54842
801.0488, 38.82629
801.5309, 38.92334
802.0131, 38.81104
802.4952, 38.74007
802.9773, 38.72223
803.4594, 38.76110
803.9415, 39.00396
804.4236, 39.22129
804.9058, 39.06387
805.3879, 38.54688
805.8700, 38.06408
806.3521, 37.85413
806.8342, 37.85880
807.3163, 38.11453
807.7985, 38.52825
808.2806, 38.66911
808.7627, 38.45604
809.2448, 38.17162
809.7269, 37.99488
810.2090, 37.92743
810.6912, 37.99393
811.1733, 38.33080
811.6554, 38.47713
812.1375, 38.31788
812.6196, 38.09372
813.1017, 37.72425
813.5839, 37.42596
814.0660, 37.61995
814.5481, 38.38469
815.0302, 38.83117
815.5123, 38.30860
815.9944, 37.58175
816.4766, 37.21871
816.9587, 37.10798
817.4408, 37.04220
817.9229, 36.96238
818.4050, 36.88794
818.8871, 36.84911
819.3693, 36.80123
819.8514, 36.57148
820.3335, 36.14612
820.8156, 35.90832
821.2977, 35.97345
821.7798, 36.05816
822.2620, 35.97238
822.7441, 35.76701
823.2262, 35.58570
823.7083, 35.40526
824.1904, 35.30170
824.6725, 35.29229
825.1547, 35.34252
825.6368, 35.55542
826.1189, 35.75879
826.6010, 35.68166
827.0831, 35.29868
827.5652, 34.93332
828.0474, 34.79127
828.5295, 34.78011
829.0116, 34.85919
829.4937, 34.97162
829.9758, 34.93951
830.4579, 34.73748
830.9401, 34.53939
831.4222, 34.48050
831.9043, 34.52028
832.3864, 34.55889
832.8685, 34.62209
833.3506, 34.51775
833.8328, 34.04780
834.3149, 33.76300
834.7971, 34.23289
835.2792, 34.94805
835.7613, 34.89988
836.2434, 33.88971
836.7255, 33.23875
837.2076, 33.47410
837.6898, 33.75743
838.1719, 33.63758
838.6540, 33.36292
839.1361, 33.29910
839.6182, 33.45554
840.1003, 33.50256
840.5825, 33.13678
841.0646, 32.71952
841.5467, 32.89667
842.0288, 33.43119
842.5109, 33.46549
842.9930, 32.90942
843.4752, 32.44378
843.9573, 32.49827
844.4394, 32.84401
844.9215, 32.99674
845.4036, 32.91663
845.8857, 32.85300
846.3679, 32.85698
846.8500, 32.78513
847.3321, 32.52579
847.8142, 32.20697
848.2963, 31.87827
848.7784, 31.56008
849.2606, 31.56067
849.7427, 32.34753
850.2248, 32.95525
850.7069, 32.86995
851.1890, 32.51998
851.6711, 32.29950
852.1533, 32.22916
852.6354, 32.17370
853.1175, 32.06752
853.5996, 31.95779
854.0817, 31.93228
854.5638, 31.93733
855.0460, 31.77050
855.5281, 31.45183
856.0102, 31.32508
856.4923, 31.54618
856.9744, 31.83511
857.4565, 31.81290
857.9387, 31.49566
858.4208, 31.35033
858.9029, 31.43797
859.3850, 31.55585
859.8671, 31.75720
860.3492, 31.87591
860.8314, 31.75540
861.3135, 31.46214
861.7956, 31.15517
862.2777, 30.77525
862.7598, 30.55737
863.2419, 30.73178
863.7241, 30.92249
864.2062, 30.77026
864.6883, 30.49477
865.1704, 30.55167
865.6525, 31.02123
866.1346, 31.43637
866.6168, 31.36078
867.0989, 31.06900
867.5810, 31.04288
868.0631, 31.17504
868.5452, 31.02280
869.0273, 30.51859
869.5095, 30.13300
869.9916, 30.23659
870.4737, 30.60472
870.9558, 30.61646
871.4379, 30.17472
871.9200, 29.94095
872.4022, 30.02183
872.8843, 30.12441
873.3664, 30.14187
873.8485, 30.09623
874.3306, 29.96800
874.8127, 29.74501
875.2949, 29.71464
875.7770, 30.08966
876.2591, 30.40757
876.7412, 30.62837
877.2233, 30.66254
877.7054, 30.30984
878.1876, 29.71124
878.6697, 29.22814
879.1518, 28.99235
879.6339, 28.96210
880.1160, 29.27910
880.5981, 29.67167
881.0803, 29.67218
881.5624, 29.39519
882.0445, 29.35046
882.5266, 29.69425
883.0087, 30.03897
883.4908, 29.96731
883.9730, 29.57628
884.4551, 29.17720
884.9372, 28.75290
885.4193, 28.71685
885.9014, 29.27067
886.3835, 29.75252
886.8657, 29.62391
887.3478, 29.15432
887.8299, 29.11139
888.3120, 29.77020
888.7941, 30.11857
889.2762, 29.89587
889.7584, 29.68302
890.2405, 29.70392
890.7226, 29.78262
891.2047, 29.69165
891.6868, 29.45035
892.1689, 29.33919
892.6511, 29.60461
893.1332, 29.81162
893.6153, 29.61740
894.0974, 29.34333
894.5795, 29.37814
895.0616, 29.64648
895.5438, 29.83684
896.0259, 29.82173
896.5080, 29.72488
896.9901, 29.67315
897.4722, 29.64004
897.9543, 29.53580
898.4365, 29.38317
898.9186, 29.30804
899.4007, 29.34583
899.8828, 29.50948
900.3649, 29.84981
900.8470, 30.25987
901.3292, 30.30410
901.8113, 29.86847
902.2934, 29.64503
902.7755, 29.76493
903.2576, 29.91848
903.7397, 29.93569
904.2219, 29.90952
904.7040, 30.00306
905.1861, 30.23871
905.6682, 30.42288
906.1503, 30.54492
906.6324, 30.62584
907.1146, 30.61513
907.5967, 30.61312
908.0788, 30.74613
908.5609, 30.95477
909.0430, 31.02457
909.5251, 30.81805
910.0073, 30.75367
910.4894, 31.31757
910.9715, 31.93644
911.4536, 31.94522
911.9357, 31.57866
912.4178, 31.37878
912.9000, 31.47626
913.3821, 31.63948
913.8642, 31.68626
914.3463, 31.67122
914.8284, 31.63222
915.3105, 31.61246
915.7927, 31.86689
916.2748, 32.41887
916.7569, 32.95778
917.2390, 33.32105
917.7211, 33.54095
918.2032, 33.65217
918.6854, 33.64723
919.1675, 33.73662
919.6496, 33.96388
920.1317, 34.14720
920.6138, 34.21650
921.0959, 34.26117
921.5781, 34.30698
922.0602, 34.38868
922.5423, 34.69469
923.0244, 35.50399
923.5065, 36.01156
923.9886, 35.95772
924.4708, 35.85557
924.9529, 35.90803
925.4350, 36.05396
925.9171, 36.23441
926.3992, 36.42981
926.8813, 36.56267
927.3635, 36.44338
927.8456, 36.44378
928.3277, 36.91089
928.8098, 37.51405
929.2919, 37.91982
929.7740, 38.11878
930.2562, 38.19799
930.7383, 38.19189
931.2204, 38.18814
931.7025, 38.26098
932.1846, 38.40101
932.6667, 38.63377
933.1489, 38.92079
933.6310, 39.10117
934.1132, 39.14605
934.5953, 39.19055
935.0774, 39.34229
935.5595, 39.53280
936.0416, 39.60514
936.5237, 39.55909
937.0059, 39.42448
937.4880, 39.17464
937.9701, 39.00395
938.4522, 39.00354
938.9343, 39.08830
939.4164, 39.19616
939.8986, 39.31319
940.3807, 39.16695
940.8628, 38.47668
941.3449, 38.08247
941.8270, 38.26206
942.3091, 38.51887
942.7913, 38.70772
943.2734, 38.75785
943.7555, 38.47125
944.2376, 37.77070
944.7197, 37.32716
945.2018, 37.51260
945.6840, 37.64445
946.1661, 37.35931
946.6482, 36.99528
947.1303, 36.92416
947.6124, 37.05311
948.0945, 36.99302
948.5767, 36.56075
949.0588, 36.19267
949.5409, 36.37065
950.0230, 36.55615
950.5051, 36.02337
950.9872, 35.15740
951.4694, 34.77425
951.9515, 34.97514
952.4336, 35.22126
952.9157, 35.15758
953.3978, 34.90742
953.8799, 34.55502
954.3621, 34.17832
954.8442, 34.05862
955.3263, 34.16206
955.8084, 34.08501
956.2905, 33.66709
956.7726, 33.21795
957.2548, 33.09990
957.7369, 33.23521
958.2190, 33.30349
958.7011, 33.30713
959.1832, 33.15450
959.6653, 32.78888
960.1475, 32.48052
960.6296, 32.39034
961.1117, 32.44136
961.5938, 32.50303
962.0759, 32.58108
962.5580, 32.60298
963.0402, 32.48883
963.5223, 32.49598
964.0044, 32.81799
964.4865, 33.10949
964.9686, 33.03691
965.4507, 32.73167
965.9329, 32.61322
966.4150, 32.75485
966.8971, 32.88426
967.3792, 33.07683
967.8613, 33.14059
968.3434, 32.80078
968.8256, 32.45029
969.3077, 32.57116
969.7898, 33.07302
970.2719, 33.39158
970.7540, 33.29397
971.2361, 33.17186
971.7183, 33.16014
972.2004, 33.21308
972.6825, 33.34862
973.1646, 33.49971
973.6467, 33.54460
974.1288, 33.47814
974.6110, 33.44242
975.0931, 33.50563
975.5752, 33.65725
976.0573, 33.96489
976.5394, 34.31038
977.0215, 34.51728
977.5037, 34.59570
977.9858, 34.61722
978.4679, 34.61482
978.9500, 34.63196
979.4321, 34.68121
979.9142, 34.80709
980.3964, 35.19721
980.8785, 35.74211
981.3606, 36.04252
981.8427, 36.04660
982.3248, 35.82107
982.8069, 35.37967
983.2891, 35.05847
983.7712, 35.44274
984.2533, 36.40847
984.7354, 37.03224
985.2175, 37.30441
985.6996, 37.58434
986.1818, 37.95843
986.6639, 38.28909
987.1460, 38.46686
987.6281, 38.56136
988.1102, 38.71009
988.5923, 38.89777
989.0745, 39.30670
989.5566, 40.08218
990.0387, 40.62739
990.5208, 40.64278
991.0029, 40.60967
991.4850, 40.95218
991.9672, 41.58249
992.4493, 42.16664
992.9314, 42.66903
993.4135, 43.20479
993.8956, 43.74762
994.3777, 44.35629
994.8599, 45.19416
995.3420, 45.99699
995.8241, 46.41184
996.3062, 46.53513
996.7883, 46.96497
997.2704, 48.02832
997.7526, 48.89692
998.2347, 49.14896
998.7168, 49.53659
999.1989, 50.56511
999.6810, 51.86400
1000.163, 53.00278
1000.645, 53.94360
1001.127, 54.76198
1001.609, 55.35781
1002.092, 56.04340
1002.574, 56.97290
1003.056, 58.01231
1003.538, 59.03725
1004.020, 60.09641
1004.502, 61.29966
1004.984, 62.65490
1005.466, 64.04507
1005.949, 65.33569
1006.431, 66.73528
1006.913, 68.29439
1007.395, 70.12242
1007.877, 72.56963
1008.359, 75.34753
1008.841, 77.73105
1009.323, 79.52502
1009.805, 81.18373
1010.288, 82.84146
1010.770, 84.77572
1011.252, 87.44379
1011.734, 90.56043
1012.216, 93.52881
1012.698, 96.40221
1013.180, 99.68240
1013.662, 103.5647
1014.145, 107.8619
1014.627, 112.5071
1015.109, 117.3318
1015.591, 121.8649
1016.073, 126.2591
1016.555, 131.0755
1017.037, 136.3253
1017.519, 141.5300
1018.001, 146.4273
1018.484, 151.4199
1018.966, 157.1629
1019.448, 163.3330
1019.930, 168.6665
1020.412, 173.2418
1020.894, 178.0863
1021.376, 183.3531
1021.858, 188.7150
1022.341, 194.0303
1022.823, 199.0261
1023.305, 203.2138
1023.787, 206.6852
1024.269, 210.4789
1024.751, 214.6412
1025.233, 218.4741
1025.715, 221.8201
1026.198, 225.0546
1026.680, 228.5019
1027.162, 231.7427
1027.644, 234.0893
1028.126, 235.5620
1028.608, 235.1379
1029.090, 232.5430
1029.572, 229.4627
1030.054, 226.4411
1030.536, 222.4368
1031.019, 216.6880
1031.501, 209.5096
1031.983, 201.3124
1032.465, 191.9450
1032.947, 182.9940
1033.429, 174.5278
1033.911, 166.1583
1034.393, 157.4255
1034.876, 149.3673
1035.358, 142.8066
1035.840, 137.3741
1036.322, 132.2121
1036.804, 127.2637
1037.286, 122.7748
1037.768, 118.8571
1038.250, 115.1818
1038.733, 111.3704
1039.215, 108.1614
1039.697, 106.3212
1040.179, 105.4061
1040.661, 104.3230
1041.143, 103.0176
1041.625, 101.7375
1042.107, 100.3225
1042.589, 99.15340
1043.072, 98.56816
1043.554, 98.00155
1044.036, 97.12659
1044.518, 95.96915
1045.000, 94.60915
1045.482, 93.07275
1045.964, 91.24912
1046.446, 88.88741
1046.928, 86.57320
1047.411, 84.53362
1047.893, 82.52296
1048.375, 80.30235
1048.857, 77.96951
1049.339, 75.78001
1049.821, 73.77471
1050.303, 71.79568
1050.785, 69.83906
1051.268, 67.87454
1051.750, 65.85734
1052.232, 63.86748
1052.714, 61.85015
1053.196, 59.94865
1053.678, 58.51819
1054.160, 57.68018
1054.642, 56.84331
1055.125, 55.75703
1055.607, 54.79762
1056.089, 54.20079
1056.571, 53.70338
1057.053, 53.07594
1057.535, 52.38192
1058.017, 51.75481
1058.499, 51.20786
1058.981, 50.86952
1059.464, 50.95739
1059.946, 51.03228
1060.428, 50.96764
1060.910, 50.76946
1061.392, 50.29705
1061.874, 49.74689
1062.356, 49.47628
1062.838, 49.55659
1063.320, 49.88061
1063.803, 50.66411
1064.285, 51.35423
1064.767, 51.69319
1065.249, 51.84406
1065.731, 51.71428
1066.213, 51.58756
1066.695, 52.01634
1067.177, 53.09937
1067.660, 54.23906
1068.142, 55.11186
1068.624, 56.10099
1069.106, 57.46497
1069.588, 58.93696
1070.070, 60.35054
1070.552, 61.68416
1071.034, 62.97634
1071.516, 64.22199
1071.999, 65.32780
1072.481, 65.97844
1072.963, 66.84473
1073.445, 68.46046
1073.927, 70.21230
1074.409, 71.57237
1074.891, 72.72012
1075.373, 74.06285
1075.855, 75.62503
1076.338, 76.98096
1076.820, 78.02171
1077.302, 78.73143
1077.784, 79.04553
1078.266, 79.07993
1078.748, 79.02197
1079.230, 78.69234
1079.712, 77.81557
1080.195, 76.37276
1080.677, 74.52649
1081.159, 72.24738
1081.641, 69.78927
1082.123, 67.23941
1082.605, 64.61115
1083.087, 61.67661
1083.569, 58.83448
1084.052, 56.71640
1084.534, 55.23098
1085.016, 53.61977
1085.498, 51.56976
1085.980, 49.54025
1086.462, 47.75975
1086.944, 46.02375
1087.426, 43.99418
1087.908, 42.07130
1088.391, 40.85328
1088.873, 40.19927
1089.355, 39.46772
1089.837, 38.44668
1090.319, 37.46421
1090.801, 36.72268
1091.283, 35.96725
1091.765, 34.89979
1092.248, 33.87267
1092.730, 33.36559
1093.212, 33.18931
1093.694, 32.70922
1094.176, 31.71951
1094.658, 30.94411
1095.140, 30.83345
1095.622, 30.74753
1096.104, 30.36527
1096.587, 29.91086
1097.069, 29.53094
1097.551, 29.25282
1098.033, 29.14934
1098.515, 29.24370
1098.997, 29.16393
1099.479, 28.56803
1099.961, 28.10387
1100.443, 28.10795
1100.926, 28.19811
1101.408, 28.12805
1101.890, 27.94992
1102.372, 27.77072
1102.854, 27.60243
1103.336, 27.40140
1103.818, 27.10921
1104.300, 26.85787
1104.783, 26.54584
1105.265, 26.42853
1105.747, 26.92731
1106.229, 27.51440
1106.711, 27.46383
1107.193, 26.82958
1107.675, 26.31813
1108.157, 25.95073
1108.640, 25.83595
1109.122, 26.18456
1109.604, 26.54298
1110.086, 26.86915
1110.568, 27.01599
1111.050, 26.68170
1111.532, 26.04289
1112.014, 25.81065
1112.496, 26.30073
1112.979, 26.41373
1113.461, 25.61897
1113.943, 25.11247
1114.425, 25.47851
1114.907, 25.92107
1115.389, 25.77383
1115.871, 25.33529
1116.353, 25.31788
1116.835, 25.83457
1117.318, 26.09250
1117.800, 25.85495
1118.282, 25.80849
1118.764, 26.26035
1119.246, 26.59830
1119.728, 26.35565
1120.210, 25.93183
1120.692, 25.98956
1121.175, 26.51342
1121.657, 26.68047
1122.139, 26.32265
1122.621, 26.06203
1123.103, 25.91111
1123.585, 25.98208
1124.067, 26.45848
1124.549, 26.90303
1125.031, 26.76845
1125.514, 26.21688
1125.996, 26.06758
1126.478, 26.46311
1126.960, 26.41934
1127.442, 25.76551
1127.924, 25.36543
1128.406, 25.53529
1128.888, 25.78813
1129.370, 25.71899
1129.853, 25.50282
1130.335, 25.60193
1130.817, 26.01514
1131.299, 26.01061
1131.781, 25.56018
1132.263, 25.34107
1132.745, 25.50274
1133.227, 25.65870
1133.710, 25.58894
1134.192, 25.37626
1134.674, 25.10104
1135.156, 24.80912
1135.638, 24.71741
1136.120, 24.79876
1136.602, 24.86254
1137.084, 24.87955
1137.567, 24.76410
1138.049, 24.48859
1138.531, 24.31063
1139.013, 24.51777
1139.495, 24.87428
1139.977, 24.88394
1140.459, 24.67625
1140.941, 24.61482
1141.423, 24.68930
1141.906, 24.73989
1142.388, 24.74469
1142.870, 24.87263
1143.352, 25.25092
1143.834, 25.65339
1144.316, 25.81588
1144.798, 25.83123
1145.280, 25.81358
1145.762, 25.77096
1146.245, 25.67732
1146.727, 25.56416
1147.209, 25.51733
1147.691, 25.57160
1148.173, 25.76528
1148.655, 26.36457
1149.137, 26.85224
1149.619, 26.55484
1150.102, 26.07165
1150.584, 26.17489
1151.066, 26.62267
1151.548, 26.73446
1152.030, 26.43903
1152.512, 26.38554
1152.994, 26.99444
1153.476, 27.61426
1153.958, 28.03002
1154.441, 28.23452
1154.923, 28.04496
1155.405, 27.76936
1155.887, 27.82905
1156.369, 28.14093
1156.851, 28.27598
1157.333, 28.12819
1157.815, 27.90192
1158.297, 27.36699
1158.780, 27.13293
1159.262, 27.75269
1159.744, 28.38191
1160.226, 28.37630
1160.708, 27.97611
1161.190, 27.62000
1161.672, 27.31637
1162.154, 27.10007
1162.637, 27.08101
1163.119, 26.93942
1163.601, 26.60758
1164.083, 26.21878
1164.565, 25.73789
1165.047, 25.35158
1165.529, 25.27152
1166.011, 25.44075
1166.494, 25.67435
1166.976, 26.05956
1167.458, 26.01227
1167.940, 25.41458
1168.422, 24.96811
1168.904, 24.84595
1169.386, 24.88440
1169.868, 24.99238
1170.350, 25.13649
1170.833, 25.27220
1171.315, 25.39064
1171.797, 25.43530
1172.279, 25.40865
1172.761, 25.31836
1173.243, 25.17407
1173.725, 25.07696
1174.207, 25.06555
1174.689, 25.10960
1175.172, 25.20319
1175.654, 25.26978
1176.136, 25.13560
1176.618, 24.89307
1177.100, 24.71961
1177.582, 24.63375
1178.064, 24.66018
1178.546, 24.79185
1179.029, 25.00986
1179.511, 25.31689
1179.993, 25.51473
1180.475, 25.38660
1180.957, 25.11896
1181.439, 24.77757
1181.921, 24.49541
1182.403, 24.46993
1182.885, 24.62625
1183.368, 24.80692
1183.850, 24.96529
1184.332, 25.05546
1184.814, 25.04535
1185.296, 24.98800
1185.778, 24.81966
1186.260, 24.70832
1186.742, 24.77943
1187.225, 24.94180
1187.707, 25.13808
1188.189, 25.33346
1188.671, 25.46117
1189.153, 25.56192
1189.635, 25.41362
1190.117, 24.72597
1190.599, 24.20266
1191.082, 23.94351
1191.564, 23.88126
1192.046, 24.04387
1192.528, 24.31516
1193.010, 24.56644
1193.492, 24.78234
1193.974, 24.81459
1194.456, 24.61416
1194.938, 24.52110
1195.421, 24.60024
1195.903, 24.43789
1196.385, 23.85642
1196.867, 23.41144
1197.349, 23.53579
1197.831, 23.96638
1198.313, 24.29165
1198.795, 24.48953
1199.277, 24.33550
1199.760, 23.93334
1200.242, 23.86765
1200.724, 24.16195
1201.206, 24.47014
1201.688, 24.65249
1202.170, 24.72991
1202.652, 24.71166
1203.134, 24.61602
1203.617, 24.35073
1204.099, 24.11134
1204.581, 24.28235
1205.063, 24.64558
1205.545, 24.79371
1206.027, 24.69452
1206.509, 24.46387
1206.991, 24.11517
1207.474, 24.00690
1207.956, 24.60703
1208.438, 25.13235
1208.920, 25.12544
1209.402, 24.93632
1209.884, 24.80853
1210.366, 24.70777
1210.848, 24.51600
1211.330, 24.24842
1211.813, 24.12676
1212.295, 24.23314
1212.777, 24.36956
1213.259, 24.54297
1213.741, 24.73011
1214.223, 24.98195
1214.705, 25.15356
1215.187, 25.12703
1215.669, 24.97848
1216.152, 24.83811
1216.634, 24.70692
1217.116, 24.57986
1217.598, 24.44127
1218.080, 24.56729
1218.562, 25.00528
1219.044, 25.25335
1219.526, 25.13229
1220.009, 24.94611
1220.491, 24.93889
1220.973, 25.02625
1221.455, 25.08867
1221.937, 25.12055
1222.419, 25.14567
1222.901, 25.11732
1223.383, 24.78096
1223.865, 24.26004
1224.348, 24.14986
1224.830, 24.61763
1225.312, 25.03408
1225.794, 24.93166
1226.276, 24.71035
1226.758, 24.55921
1227.240, 24.54422
1227.722, 24.90850
1228.204, 25.31839
1228.687, 25.27190
1229.169, 24.87395
1229.651, 24.63357
1230.133, 24.68856
1230.615, 24.64243
1231.097, 24.28889
1231.579, 24.03244
1232.061, 23.86691
1232.544, 23.93434
1233.026, 24.46118
1233.508, 25.06896
1233.990, 25.33775
1234.472, 25.32830
1234.954, 25.27301
1235.436, 25.15839
1235.918, 25.09849
1236.401, 25.10004
1236.883, 25.06162
1237.365, 24.95693
1237.847, 24.97977
1238.329, 25.24194
1238.811, 25.49175
1239.293, 25.41136
1239.775, 25.17085
1240.257, 25.13895
1240.740, 25.21740
1241.222, 25.15626
1241.704, 25.00475
1242.186, 24.94057
1242.668, 24.98212
1243.150, 25.02807
1243.632, 25.03344
1244.114, 25.05401
1244.596, 25.17710
1245.079, 25.26373
1245.561, 25.19717
1246.043, 25.08486
1246.525, 24.93991
1247.007, 24.85764
1247.489, 25.03917
1247.971, 25.43542
1248.453, 25.63439
1248.936, 25.50402
1249.418, 25.39791
1249.900, 25.33664
1250.382, 25.26569
1250.864, 25.16714
1251.346, 25.07107
1251.828, 24.98922
1252.310, 24.92628
1252.792, 24.87426
1253.275, 24.86176
1253.757, 25.06685
1254.239, 25.45696
1254.721, 25.61129
1255.203, 25.52814
1255.685, 25.32915
1256.167, 25.06225
1256.649, 24.83014
1257.131, 24.68398
1257.614, 24.66951
1258.096, 24.95154
1258.578, 25.23676
1259.060, 25.03431
1259.542, 24.75890
1260.024, 25.05661
1260.506, 25.59536
1260.988, 25.73963
1261.471, 25.47904
1261.953, 25.19467
1262.435, 24.95693
1262.917, 24.83845
1263.399, 24.92083
1263.881, 25.03312
1264.363, 25.27793
1264.845, 25.34785
1265.328, 24.88729
1265.810, 24.41721
1266.292, 24.60927
1266.774, 25.24712
1267.256, 25.42100
1267.738, 25.06439
1268.220, 24.96189
1268.702, 25.12391
1269.184, 25.20737
1269.667, 25.15187
1270.149, 25.06376
1270.631, 24.99273
1271.113, 25.00094
1271.595, 25.18642
1272.077, 25.38407
1272.559, 25.29185
1273.041, 25.09657
1273.523, 25.13319
1274.006, 25.24692
1274.488, 25.07862
1274.970, 24.71133
1275.452, 24.50977
1275.934, 24.57248
1276.416, 24.76605
1276.898, 25.29376
1277.380, 25.56135
1277.863, 25.11279
1278.345, 24.73649
1278.827, 24.95606
1279.309, 25.24731
1279.791, 25.11056
1280.273, 24.80336
1280.755, 24.95469
1281.237, 25.55440
1281.719, 25.64990
1282.202, 25.18836
1282.684, 25.00205
1283.166, 25.17048
1283.648, 25.42381
1284.130, 25.66956
1284.612, 25.83179
1285.094, 25.85997
1285.576, 25.77519
1286.059, 25.47910
1286.541, 25.19757
1287.023, 25.19120
1287.505, 25.46885
##END=



