##NAMES=Vauquelinite
##RRUFFID=R060926
##IDEAL CHEMISTRY=Cu^2+^Pb^2+^_2_(Cr^6+^O_4_)(P^5+^O_4_)(OH)
##LOCALITY=Hardshell mine, Patagonia, Arizona, USA
##OWNER=RRUFF
##SOURCE=Bob Jenkins
##DESCRIPTION=Apple-green tabular crystals
##STATUS=The identification of this mineral has been confirmed only by single crystal X-ray diffraction.
##URL=rruff.info/R060926
117.6661, 2935.234
118.1482, 3074.810
118.6303, 3203.596
119.1124, 3314.151
119.5946, 3408.677
120.0767, 3490.817
120.5588, 3557.682
121.0409, 3614.716
121.5230, 3668.084
122.0051, 3721.886
122.4873, 3767.548
122.9694, 3796.147
123.4515, 3809.234
123.9336, 3814.110
124.4157, 3810.016
124.8979, 3801.813
125.3800, 3797.249
125.8621, 3796.180
126.3442, 3801.750
126.8263, 3822.519
127.3084, 3858.835
127.7905, 3896.012
128.2727, 3919.445
128.7548, 3931.525
129.2369, 3940.037
129.7190, 3942.867
130.2011, 3944.328
130.6832, 3958.276
131.1654, 3986.700
131.6475, 4022.331
132.1296, 4055.256
132.6117, 4085.703
133.0938, 4117.140
133.5759, 4155.614
134.0581, 4199.879
134.5402, 4229.995
135.0223, 4240.887
135.5044, 4240.776
135.9865, 4252.454
136.4686, 4278.949
136.9508, 4301.537
137.4329, 4304.662
137.9150, 4285.707
138.3971, 4267.843
138.8792, 4255.129
139.3613, 4246.468
139.8434, 4234.818
140.3256, 4220.802
140.8077, 4202.805
141.2898, 4178.399
141.7719, 4146.040
142.2540, 4112.048
142.7361, 4076.694
143.2183, 4039.097
143.7004, 4008.626
144.1825, 3990.166
144.6646, 3974.786
145.1467, 3950.616
145.6288, 3910.538
146.1110, 3871.045
146.5931, 3835.734
147.0752, 3802.778
147.5573, 3778.028
148.0394, 3767.561
148.5215, 3764.187
149.0037, 3753.047
149.4858, 3729.750
149.9679, 3702.782
150.4500, 3674.725
150.9321, 3645.320
151.4142, 3615.840
151.8964, 3584.598
152.3785, 3553.128
152.8606, 3526.588
153.3427, 3512.179
153.8248, 3498.185
154.3069, 3478.870
154.7890, 3443.215
155.2712, 3413.499
155.7533, 3394.167
156.2354, 3384.718
156.7175, 3377.971
157.1996, 3381.386
157.6817, 3382.476
158.1639, 3371.648
158.6460, 3331.072
159.1281, 3292.409
159.6102, 3265.497
160.0923, 3250.756
160.5744, 3239.808
161.0566, 3233.594
161.5387, 3228.223
162.0208, 3219.400
162.5029, 3203.708
162.9850, 3185.455
163.4671, 3166.448
163.9493, 3146.993
164.4314, 3126.716
164.9135, 3104.882
165.3956, 3082.246
165.8777, 3060.030
166.3598, 3038.145
166.8420, 3017.433
167.3241, 2998.963
167.8062, 2983.589
168.2883, 2968.540
168.7704, 2951.145
169.2525, 2932.555
169.7346, 2915.430
170.2168, 2906.632
170.6989, 2897.981
171.1810, 2880.206
171.6631, 2847.922
172.1452, 2812.867
172.6273, 2782.841
173.1095, 2757.952
173.5916, 2737.466
174.0737, 2722.274
174.5558, 2710.893
175.0379, 2702.090
175.5201, 2699.126
176.0022, 2694.348
176.4843, 2674.917
176.9664, 2642.592
177.4485, 2612.375
177.9306, 2599.905
178.4128, 2598.221
178.8949, 2591.827
179.3770, 2572.252
179.8591, 2547.319
180.3412, 2529.523
180.8233, 2518.772
181.3055, 2510.826
181.7876, 2503.454
182.2697, 2495.971
182.7518, 2485.704
183.2339, 2468.011
183.7160, 2447.285
184.1982, 2436.079
184.6803, 2435.409
185.1624, 2436.776
185.6445, 2429.999
186.1266, 2416.237
186.6087, 2402.331
187.0908, 2391.247
187.5730, 2382.438
188.0551, 2374.761
188.5372, 2368.469
189.0193, 2362.028
189.5014, 2351.425
189.9835, 2336.906
190.4657, 2325.782
190.9478, 2324.014
191.4299, 2330.080
191.9120, 2333.657
192.3941, 2335.029
192.8762, 2332.201
193.3584, 2317.848
193.8405, 2291.330
194.3226, 2268.670
194.8047, 2261.669
195.2868, 2269.691
195.7689, 2276.216
196.2511, 2280.631
196.7332, 2282.125
197.2153, 2278.000
197.6974, 2267.717
198.1795, 2255.705
198.6616, 2242.040
199.1438, 2226.052
199.6259, 2221.680
200.1080, 2235.680
200.5901, 2259.442
201.0722, 2261.763
201.5543, 2237.462
202.0364, 2211.900
202.5186, 2206.998
203.0007, 2226.356
203.4828, 2237.203
203.9649, 2232.749
204.4470, 2216.126
204.9291, 2201.891
205.4113, 2189.416
205.8934, 2180.506
206.3755, 2179.426
206.8576, 2189.444
207.3397, 2190.335
207.8218, 2174.112
208.3040, 2143.990
208.7861, 2130.779
209.2682, 2141.172
209.7503, 2155.896
210.2324, 2156.520
210.7145, 2139.794
211.1967, 2120.504
211.6788, 2098.827
212.1609, 2075.266
212.6430, 2066.397
213.1251, 2078.729
213.6072, 2096.304
214.0894, 2101.760
214.5715, 2090.362
215.0536, 2080.154
215.5357, 2077.323
216.0178, 2082.494
216.4999, 2077.265
216.9820, 2056.559
217.4642, 2031.251
217.9463, 2013.998
218.4284, 2007.129
218.9105, 2003.130
219.3926, 2001.177
219.8747, 2001.938
220.3569, 1998.247
220.8390, 1986.800
221.3211, 1973.940
221.8032, 1968.966
222.2853, 1977.158
222.7674, 1982.574
223.2496, 1979.555
223.7317, 1965.932
224.2138, 1956.066
224.6959, 1951.724
225.1780, 1949.835
225.6601, 1944.858
226.1423, 1933.188
226.6244, 1925.243
227.1065, 1925.265
227.5886, 1935.625
228.0707, 1944.383
228.5528, 1952.874
229.0350, 1958.954
229.5171, 1957.798
229.9992, 1942.699
230.4813, 1931.637
230.9634, 1932.601
231.4455, 1952.291
231.9276, 1961.543
232.4098, 1956.146
232.8919, 1942.318
233.3740, 1932.451
233.8561, 1928.815
234.3382, 1925.382
234.8203, 1919.526
235.3025, 1909.265
235.7846, 1902.328
236.2667, 1898.479
236.7488, 1898.067
237.2309, 1903.152
237.7130, 1920.579
238.1952, 1932.886
238.6773, 1931.735
239.1594, 1909.141
239.6415, 1894.894
240.1236, 1892.236
240.6057, 1896.786
241.0879, 1898.191
241.5700, 1893.111
242.0521, 1889.932
242.5342, 1892.841
243.0163, 1906.530
243.4984, 1914.352
243.9806, 1912.621
244.4627, 1906.084
244.9448, 1906.761
245.4269, 1920.192
245.9090, 1932.456
246.3911, 1937.470
246.8732, 1931.544
247.3554, 1926.810
247.8375, 1922.172
248.3196, 1918.978
248.8017, 1921.259
249.2838, 1932.406
249.7659, 1943.731
250.2481, 1951.890
250.7302, 1956.733
251.2123, 1958.776
251.6944, 1956.871
252.1765, 1952.714
252.6586, 1950.395
253.1408, 1950.897
253.6229, 1951.864
254.1050, 1952.503
254.5871, 1953.257
255.0692, 1952.590
255.5513, 1949.705
256.0334, 1945.759
256.5156, 1943.267
256.9977, 1941.760
257.4798, 1942.499
257.9619, 1945.845
258.4440, 1951.493
258.9261, 1961.091
259.4083, 1977.147
259.8904, 1995.975
260.3725, 2008.144
260.8546, 2011.304
261.3367, 2012.435
261.8188, 2014.548
262.3010, 2018.161
262.7831, 2021.037
263.2652, 2023.279
263.7473, 2024.671
264.2294, 2023.959
264.7115, 2018.998
265.1937, 2016.767
265.6758, 2021.003
266.1579, 2033.121
266.6400, 2046.801
267.1221, 2065.571
267.6042, 2083.026
268.0864, 2082.086
268.5685, 2054.803
269.0506, 2030.784
269.5327, 2024.409
270.0148, 2039.228
270.4969, 2053.578
270.9791, 2067.520
271.4612, 2080.960
271.9433, 2093.994
272.4254, 2107.380
272.9075, 2117.717
273.3896, 2121.954
273.8718, 2118.848
274.3539, 2120.233
274.8360, 2128.023
275.3181, 2137.812
275.8002, 2139.025
276.2823, 2128.477
276.7645, 2125.016
277.2466, 2140.883
277.7287, 2177.880
278.2108, 2204.018
278.6929, 2218.252
279.1750, 2223.855
279.6572, 2222.115
280.1393, 2211.317
280.6214, 2207.449
281.1035, 2221.124
281.5856, 2251.583
282.0677, 2272.628
282.5499, 2281.843
283.0320, 2287.515
283.5141, 2302.990
283.9962, 2328.751
284.4783, 2352.353
284.9604, 2366.982
285.4425, 2374.108
285.9247, 2386.089
286.4068, 2403.481
286.8889, 2423.435
287.3710, 2440.223
287.8531, 2454.358
288.3352, 2475.679
288.8174, 2514.303
289.2995, 2563.893
289.7816, 2594.986
290.2637, 2604.796
290.7458, 2609.712
291.2279, 2627.556
291.7101, 2656.830
292.1922, 2687.791
292.6743, 2716.662
293.1564, 2744.569
293.6385, 2774.384
294.1206, 2806.070
294.6028, 2838.478
295.0849, 2873.845
295.5670, 2910.155
296.0491, 2939.405
296.5312, 2954.825
297.0133, 2963.735
297.4955, 2977.503
297.9776, 2995.997
298.4597, 3022.313
298.9418, 3065.641
299.4239, 3118.979
299.9060, 3164.656
300.3882, 3192.538
300.8703, 3213.794
301.3524, 3244.160
301.8345, 3282.785
302.3166, 3321.361
302.7987, 3355.568
303.2809, 3385.169
303.7630, 3409.780
304.2451, 3424.965
304.7272, 3439.813
305.2093, 3466.188
305.6914, 3502.194
306.1736, 3535.606
306.6557, 3555.262
307.1378, 3569.536
307.6199, 3589.404
308.1020, 3619.819
308.5841, 3652.662
309.0663, 3679.895
309.5484, 3704.072
310.0305, 3732.130
310.5126, 3769.411
310.9947, 3812.073
311.4768, 3855.395
311.9590, 3895.973
312.4411, 3942.813
312.9232, 4007.082
313.4053, 4082.182
313.8874, 4150.952
314.3695, 4187.018
314.8517, 4227.922
315.3337, 4301.988
315.8159, 4421.237
316.2980, 4547.864
316.7801, 4660.098
317.2622, 4770.233
317.7443, 4900.989
318.2264, 5073.377
318.7086, 5256.426
319.1907, 5430.160
319.6728, 5585.468
320.1549, 5766.607
320.6370, 5989.883
321.1191, 6245.236
321.6013, 6521.029
322.0834, 6831.151
322.5655, 7142.395
323.0476, 7439.939
323.5297, 7719.665
324.0118, 8012.745
324.4940, 8319.734
324.9761, 8643.808
325.4582, 8987.980
325.9403, 9376.158
326.4224, 9759.804
326.9045, 10133.25
327.3867, 10496.14
327.8688, 10850.85
328.3509, 11196.95
328.8330, 11534.78
329.3151, 11868.96
329.7972, 12221.89
330.2794, 12541.99
330.7615, 12824.57
331.2436, 13072.08
331.7257, 13296.31
332.2078, 13514.81
332.6899, 13693.85
333.1721, 13810.46
333.6542, 13839.47
334.1363, 13857.73
334.6184, 13881.58
335.1005, 13896.39
335.5826, 13849.00
336.0648, 13717.36
336.5469, 13563.91
337.0290, 13412.17
337.5111, 13254.17
337.9932, 13124.76
338.4753, 13024.20
338.9575, 12952.69
339.4396, 12911.61
339.9217, 12902.79
340.4038, 12916.23
340.8859, 12943.56
341.3680, 12983.46
341.8502, 13067.01
342.3323, 13197.27
342.8144, 13360.77
343.2965, 13530.89
343.7786, 13708.47
344.2607, 13923.10
344.7429, 14204.12
345.2250, 14535.87
345.7071, 14837.58
346.1892, 15108.47
346.6713, 15379.68
347.1534, 15712.62
347.6355, 16090.92
348.1176, 16425.73
348.5998, 16678.17
349.0819, 16880.88
349.5640, 17118.95
350.0461, 17392.45
350.5282, 17620.92
351.0103, 17747.02
351.4925, 17782.10
351.9746, 17751.53
352.4567, 17660.08
352.9388, 17505.38
353.4209, 17278.70
353.9030, 16984.11
354.3852, 16639.30
354.8673, 16253.12
355.3494, 15824.72
355.8315, 15347.27
356.3136, 14812.12
356.7957, 14255.67
357.2779, 13692.79
357.7600, 13131.54
358.2421, 12599.55
358.7242, 12105.00
359.2063, 11641.27
359.6884, 11201.82
360.1706, 10784.11
360.6527, 10400.71
361.1348, 10054.54
361.6169, 9745.374
362.0990, 9477.310
362.5811, 9258.153
363.0633, 9070.497
363.5454, 8908.456
364.0275, 8771.601
364.5096, 8660.442
364.9917, 8569.349
365.4738, 8506.904
365.9560, 8480.057
366.4381, 8501.650
366.9202, 8546.951
367.4023, 8615.986
367.8844, 8707.659
368.3665, 8811.650
368.8487, 8910.961
369.3308, 9035.911
369.8129, 9202.777
370.2950, 9454.812
370.7771, 9680.986
371.2592, 9867.621
371.7414, 10028.37
372.2235, 10202.95
372.7056, 10389.59
373.1877, 10593.71
373.6698, 10823.44
374.1519, 11091.75
374.6341, 11326.00
375.1162, 11515.95
375.5983, 11679.24
376.0804, 11845.68
376.5625, 12021.64
377.0446, 12170.25
377.5267, 12281.03
378.0089, 12354.67
378.4910, 12382.96
378.9731, 12361.77
379.4552, 12311.42
379.9373, 12263.75
380.4194, 12216.97
380.9016, 12113.85
381.3837, 11934.87
381.8658, 11695.08
382.3479, 11428.45
382.8300, 11136.33
383.3121, 10811.99
383.7943, 10442.26
384.2764, 10039.75
384.7585, 9630.307
385.2406, 9219.478
385.7227, 8806.208
386.2048, 8389.279
386.6870, 7975.961
387.1691, 7589.441
387.6512, 7253.185
388.1333, 6951.775
388.6154, 6661.349
389.0975, 6380.112
389.5797, 6120.385
390.0618, 5902.792
390.5439, 5712.205
391.0260, 5531.076
391.5081, 5342.310
391.9902, 5169.650
392.4724, 5030.521
392.9545, 4924.687
393.4366, 4825.416
393.9187, 4719.707
394.4008, 4617.189
394.8829, 4523.223
395.3651, 4439.612
395.8472, 4365.531
396.3293, 4304.173
396.8114, 4253.000
397.2935, 4202.735
397.7756, 4145.995
398.2578, 4094.343
398.7399, 4053.305
399.2220, 4031.287
399.7041, 4003.917
400.1862, 3964.235
400.6683, 3921.224
401.1505, 3889.638
401.6326, 3877.669
402.1147, 3865.103
402.5968, 3844.677
403.0789, 3815.004
403.5610, 3797.163
404.0432, 3797.197
404.5253, 3800.802
405.0074, 3791.229
405.4895, 3762.380
405.9716, 3747.221
406.4537, 3758.570
406.9359, 3785.366
407.4180, 3782.036
407.9001, 3743.804
408.3822, 3702.378
408.8643, 3679.501
409.3464, 3673.475
409.8285, 3668.816
410.3106, 3665.431
410.7928, 3659.565
411.2749, 3644.041
411.7570, 3619.942
412.2391, 3594.803
412.7212, 3574.276
413.2033, 3554.417
413.6855, 3525.907
414.1676, 3488.241
414.6497, 3451.531
415.1318, 3427.408
415.6139, 3410.073
416.0960, 3390.231
416.5782, 3361.468
417.0603, 3331.756
417.5424, 3308.918
418.0245, 3291.434
418.5066, 3272.189
418.9887, 3247.503
419.4709, 3219.517
419.9530, 3188.981
420.4351, 3154.615
420.9172, 3121.510
421.3993, 3091.594
421.8814, 3064.420
422.3636, 3039.116
422.8457, 3013.692
423.3278, 2991.865
423.8099, 2978.208
424.2920, 2976.380
424.7741, 2963.531
425.2563, 2925.837
425.7384, 2884.265
426.2205, 2858.484
426.7026, 2863.401
427.1847, 2858.962
427.6668, 2835.782
428.1490, 2798.131
428.6311, 2770.923
429.1132, 2755.968
429.5953, 2747.337
430.0774, 2743.947
430.5595, 2747.585
431.0417, 2743.530
431.5238, 2729.455
432.0059, 2710.084
432.4880, 2692.862
432.9701, 2677.827
433.4522, 2664.000
433.9344, 2650.699
434.4165, 2638.301
434.8986, 2627.356
435.3807, 2617.872
435.8628, 2610.191
436.3449, 2605.530
436.8271, 2602.991
437.3092, 2599.862
437.7913, 2594.130
438.2734, 2589.520
438.7555, 2592.530
439.2376, 2601.038
439.7197, 2607.031
440.2018, 2606.318
440.6840, 2600.601
441.1661, 2589.567
441.6482, 2571.444
442.1303, 2556.487
442.6124, 2548.727
443.0945, 2547.655
443.5767, 2552.615
444.0588, 2572.468
444.5409, 2589.528
445.0230, 2596.943
445.5051, 2594.745
445.9872, 2591.250
446.4694, 2580.040
446.9515, 2573.296
447.4336, 2578.704
447.9157, 2610.721
448.3978, 2634.267
448.8799, 2645.525
449.3621, 2648.746
449.8442, 2653.326
450.3263, 2659.520
450.8084, 2666.611
451.2905, 2675.651
451.7726, 2687.085
452.2548, 2690.539
452.7369, 2682.928
453.2190, 2674.072
453.7011, 2675.171
454.1832, 2686.430
454.6653, 2699.038
455.1475, 2712.836
455.6296, 2725.211
456.1117, 2728.772
456.5938, 2723.935
457.0759, 2718.584
457.5580, 2721.427
458.0402, 2727.010
458.5223, 2721.258
459.0044, 2700.480
459.4865, 2681.234
459.9686, 2683.810
460.4507, 2698.646
460.9329, 2707.662
461.4150, 2705.627
461.8971, 2692.977
462.3792, 2663.152
462.8613, 2618.859
463.3434, 2581.732
463.8256, 2565.736
464.3077, 2558.445
464.7898, 2551.138
465.2719, 2542.851
465.7540, 2533.430
466.2361, 2525.687
466.7183, 2516.482
467.2004, 2499.503
467.6825, 2467.047
468.1646, 2434.479
468.6467, 2404.950
469.1288, 2378.623
469.6110, 2354.300
470.0930, 2332.594
470.5752, 2311.883
471.0573, 2289.501
471.5394, 2263.555
472.0215, 2244.635
472.5036, 2236.869
472.9857, 2234.735
473.4679, 2223.726
473.9500, 2203.559
474.4321, 2179.687
474.9142, 2152.444
475.3963, 2123.497
475.8784, 2099.734
476.3606, 2081.449
476.8427, 2067.716
477.3248, 2061.547
477.8069, 2059.352
478.2890, 2052.759
478.7711, 2038.635
479.2533, 2019.624
479.7354, 1992.771
480.2175, 1961.446
480.6996, 1939.183
481.1817, 1941.208
481.6638, 1950.339
482.1460, 1954.253
482.6281, 1950.403
483.1102, 1943.833
483.5923, 1932.334
484.0744, 1920.231
484.5565, 1912.755
485.0387, 1920.596
485.5208, 1922.723
486.0029, 1908.260
486.4850, 1880.035
486.9671, 1868.312
487.4492, 1884.870
487.9314, 1904.228
488.4135, 1914.155
488.8956, 1914.621
489.3777, 1904.262
489.8598, 1878.702
490.3419, 1848.016
490.8241, 1826.832
491.3062, 1815.504
491.7883, 1810.794
492.2704, 1814.445
492.7525, 1823.043
493.2346, 1824.557
493.7168, 1818.929
494.1989, 1811.715
494.6810, 1806.380
495.1631, 1802.693
495.6452, 1799.683
496.1273, 1796.708
496.6095, 1796.040
497.0916, 1802.800
497.5737, 1813.309
498.0558, 1820.437
498.5379, 1820.583
499.0201, 1816.647
499.5022, 1808.168
499.9843, 1795.625
500.4664, 1786.268
500.9485, 1785.928
501.4306, 1787.713
501.9127, 1786.900
502.3948, 1778.328
502.8770, 1774.224
503.3591, 1781.402
503.8412, 1792.130
504.3233, 1792.540
504.8054, 1773.624
505.2875, 1758.888
505.7697, 1755.688
506.2518, 1763.408
506.7339, 1765.886
507.2160, 1760.790
507.6981, 1756.606
508.1802, 1762.744
508.6624, 1778.906
509.1445, 1786.991
509.6266, 1783.839
510.1087, 1774.941
510.5908, 1766.923
511.0729, 1760.038
511.5551, 1755.458
512.0372, 1755.612
512.5193, 1757.532
513.0014, 1756.144
513.4835, 1751.865
513.9656, 1749.430
514.4478, 1754.843
514.9299, 1762.183
515.4120, 1765.741
515.8941, 1763.905
516.3762, 1758.979
516.8583, 1749.878
517.3405, 1738.637
517.8226, 1728.628
518.3047, 1719.128
518.7868, 1712.350
519.2689, 1710.340
519.7510, 1713.010
520.2332, 1712.899
520.7153, 1707.388
521.1974, 1702.266
521.6795, 1701.346
522.1616, 1706.024
522.6437, 1710.627
523.1259, 1716.351
523.6080, 1719.905
524.0901, 1712.056
524.5722, 1692.025
525.0543, 1680.942
525.5364, 1690.554
526.0186, 1711.450
526.5007, 1718.937
526.9828, 1713.608
527.4649, 1706.399
527.9470, 1707.413
528.4291, 1710.952
528.9113, 1706.658
529.3934, 1690.748
529.8755, 1677.313
530.3576, 1677.718
530.8397, 1686.589
531.3218, 1696.101
531.8040, 1710.009
532.2861, 1717.602
532.7682, 1711.147
533.2503, 1692.916
533.7324, 1678.305
534.2145, 1669.954
534.6967, 1665.347
535.1788, 1663.137
535.6609, 1662.568
536.1430, 1668.069
536.6251, 1685.700
537.1072, 1702.747
537.5894, 1701.098
538.0715, 1676.292
538.5536, 1656.823
539.0357, 1648.838
539.5178, 1649.676
539.9999, 1654.358
540.4821, 1662.723
540.9642, 1669.188
541.4463, 1668.692
541.9284, 1664.258
542.4105, 1663.580
542.8926, 1667.223
543.3748, 1668.917
543.8569, 1659.821
544.3390, 1646.652
544.8211, 1638.608
545.3032, 1641.107
545.7853, 1644.852
546.2675, 1644.180
546.7495, 1641.314
547.2316, 1641.353
547.7137, 1654.601
548.1959, 1662.513
548.6780, 1655.956
549.1601, 1632.656
549.6422, 1615.986
550.1243, 1608.362
550.6064, 1604.800
551.0886, 1601.527
551.5707, 1597.088
552.0528, 1599.255
552.5349, 1611.320
553.0170, 1626.040
553.4991, 1630.837
553.9813, 1625.725
554.4634, 1616.406
554.9455, 1601.254
555.4276, 1585.246
555.9097, 1582.429
556.3918, 1591.472
556.8740, 1599.953
557.3561, 1597.832
557.8382, 1590.938
558.3203, 1585.422
558.8024, 1581.691
559.2845, 1581.707
559.7667, 1591.261
560.2488, 1603.420
560.7309, 1610.186
561.2130, 1604.296
561.6951, 1598.464
562.1772, 1596.132
562.6594, 1596.296
563.1415, 1594.752
563.6236, 1591.658
564.1057, 1586.396
564.5878, 1576.852
565.0699, 1562.112
565.5521, 1557.262
566.0342, 1565.541
566.5163, 1575.961
566.9984, 1576.872
567.4805, 1568.905
567.9626, 1567.147
568.4448, 1576.046
568.9269, 1586.265
569.4090, 1581.398
569.8911, 1565.666
570.3732, 1553.313
570.8553, 1552.427
571.3375, 1557.190
571.8196, 1563.762
572.3017, 1571.686
572.7838, 1577.778
573.2659, 1581.214
573.7480, 1581.809
574.2302, 1578.949
574.7123, 1571.138
575.1944, 1563.952
575.6765, 1555.656
576.1586, 1549.823
576.6407, 1550.527
577.1229, 1563.082
577.6050, 1572.304
578.0871, 1575.131
578.5692, 1573.973
579.0513, 1577.332
579.5334, 1586.857
580.0156, 1591.881
580.4977, 1584.275
580.9798, 1567.693
581.4619, 1559.565
581.9440, 1560.037
582.4261, 1563.116
582.9083, 1562.009
583.3904, 1560.384
583.8725, 1566.456
584.3546, 1585.151
584.8367, 1600.142
585.3188, 1595.887
585.8010, 1581.416
586.2831, 1570.724
586.7652, 1569.548
587.2473, 1571.729
587.7294, 1579.040
588.2115, 1589.621
588.6937, 1591.485
589.1758, 1574.357
589.6579, 1560.232
590.1400, 1558.475
590.6221, 1571.129
591.1042, 1580.779
591.5864, 1586.836
592.0685, 1591.067
592.5506, 1595.218
593.0327, 1599.230
593.5148, 1601.333
593.9969, 1600.735
594.4791, 1599.499
594.9612, 1600.474
595.4433, 1603.261
595.9254, 1606.677
596.4075, 1612.434
596.8896, 1616.953
597.3718, 1615.381
597.8539, 1609.028
598.3360, 1604.669
598.8181, 1607.300
599.3002, 1611.298
599.7823, 1613.395
600.2645, 1612.774
600.7466, 1612.160
601.2287, 1612.327
601.7108, 1612.147
602.1929, 1609.312
602.6750, 1598.781
603.1572, 1600.690
603.6393, 1621.582
604.1214, 1650.531
604.6035, 1667.330
605.0856, 1671.863
605.5677, 1668.673
606.0499, 1654.304
606.5320, 1636.297
607.0141, 1633.203
607.4962, 1643.249
607.9783, 1653.207
608.4604, 1652.830
608.9425, 1648.579
609.4246, 1646.398
609.9067, 1646.860
610.3889, 1650.131
610.8710, 1658.404
611.3531, 1668.398
611.8352, 1677.129
612.3173, 1689.135
612.7994, 1693.183
613.2816, 1683.289
613.7637, 1667.269
614.2458, 1660.134
614.7279, 1664.428
615.2100, 1671.007
615.6921, 1678.441
616.1743, 1686.103
616.6564, 1690.605
617.1385, 1691.885
617.6206, 1691.958
618.1027, 1689.862
618.5848, 1687.947
619.0670, 1692.164
619.5491, 1703.005
620.0312, 1715.265
620.5133, 1728.081
620.9954, 1738.830
621.4775, 1744.366
621.9597, 1742.451
622.4418, 1737.901
622.9239, 1727.349
623.4060, 1716.362
623.8881, 1714.025
624.3702, 1735.127
624.8524, 1746.630
625.3345, 1737.153
625.8166, 1713.306
626.2987, 1710.264
626.7808, 1734.561
627.2629, 1756.575
627.7451, 1759.654
628.2272, 1746.775
628.7093, 1738.576
629.1914, 1735.210
629.6735, 1733.924
630.1556, 1731.905
630.6378, 1730.484
631.1199, 1732.619
631.6020, 1739.814
632.0841, 1746.610
632.5662, 1746.080
633.0483, 1744.025
633.5305, 1748.033
634.0126, 1772.247
634.4947, 1789.102
634.9768, 1787.572
635.4589, 1773.853
635.9410, 1766.717
636.4232, 1769.565
636.9053, 1772.812
637.3874, 1772.761
637.8695, 1770.062
638.3516, 1772.840
638.8337, 1781.985
639.3159, 1790.652
639.7980, 1792.645
640.2801, 1790.314
640.7622, 1790.427
641.2443, 1793.323
641.7264, 1800.419
642.2086, 1820.000
642.6907, 1842.107
643.1728, 1852.063
643.6549, 1837.576
644.1370, 1826.330
644.6191, 1833.348
645.1013, 1850.171
645.5834, 1862.475
646.0655, 1860.717
646.5476, 1863.642
647.0297, 1876.684
647.5118, 1896.809
647.9940, 1909.834
648.4761, 1914.391
648.9582, 1916.342
649.4403, 1917.091
649.9224, 1917.234
650.4045, 1920.187
650.8867, 1925.933
651.3688, 1935.000
651.8509, 1953.899
652.3330, 1974.440
652.8151, 1981.104
653.2972, 1969.176
653.7794, 1957.806
654.2615, 1958.689
654.7436, 1966.583
655.2257, 1975.795
655.7078, 1990.370
656.1899, 1999.791
656.6721, 1997.723
657.1542, 1991.007
657.6363, 1992.189
658.1184, 2004.795
658.6005, 2016.395
659.0826, 2023.243
659.5648, 2026.808
660.0469, 2033.851
660.5290, 2044.475
661.0111, 2052.660
661.4932, 2049.750
661.9753, 2043.620
662.4575, 2054.607
662.9396, 2081.894
663.4217, 2099.916
663.9038, 2077.797
664.3859, 2046.771
664.8680, 2036.745
665.3502, 2059.753
665.8323, 2078.918
666.3144, 2086.543
666.7965, 2085.351
667.2786, 2077.595
667.7607, 2056.069
668.2429, 2042.246
668.7250, 2038.258
669.2071, 2042.188
669.6892, 2052.601
670.1713, 2069.673
670.6534, 2084.322
671.1355, 2094.012
671.6176, 2099.104
672.0997, 2098.615
672.5818, 2093.612
673.0640, 2088.536
673.5461, 2084.445
674.0282, 2082.521
674.5103, 2084.989
674.9924, 2091.671
675.4745, 2096.909
675.9567, 2097.752
676.4388, 2097.665
676.9209, 2098.722
677.4030, 2101.622
677.8851, 2103.345
678.3672, 2103.764
678.8494, 2103.177
679.3315, 2099.550
679.8136, 2092.497
680.2957, 2096.542
680.7778, 2115.993
681.2599, 2137.614
681.7421, 2140.342
682.2242, 2130.746
682.7063, 2126.369
683.1884, 2136.456
683.6705, 2148.802
684.1526, 2154.216
684.6348, 2155.012
685.1169, 2156.383
685.5990, 2160.020
686.0811, 2164.430
686.5632, 2170.105
687.0453, 2176.585
687.5275, 2180.156
688.0096, 2176.926
688.4917, 2178.970
688.9738, 2194.941
689.4559, 2223.050
689.9380, 2240.113
690.4202, 2245.756
690.9023, 2245.308
691.3844, 2237.196
691.8665, 2227.507
692.3486, 2228.873
692.8307, 2243.708
693.3129, 2260.036
693.7950, 2269.222
694.2771, 2276.022
694.7592, 2285.542
695.2413, 2304.121
695.7234, 2316.987
696.2056, 2318.196
696.6877, 2314.371
697.1698, 2313.712
697.6519, 2317.915
698.1340, 2319.555
698.6161, 2314.706
699.0983, 2309.802
699.5804, 2323.242
700.0625, 2352.872
700.5446, 2377.109
701.0267, 2382.760
701.5089, 2381.368
701.9910, 2388.847
702.4731, 2402.942
702.9552, 2414.614
703.4373, 2418.451
703.9194, 2419.229
704.4016, 2416.494
704.8837, 2409.846
705.3658, 2413.870
705.8479, 2436.788
706.3300, 2462.165
706.8121, 2482.699
707.2943, 2498.080
707.7764, 2510.768
708.2585, 2520.300
708.7406, 2529.255
709.2227, 2540.982
709.7048, 2554.243
710.1870, 2563.559
710.6691, 2567.329
711.1512, 2572.166
711.6333, 2585.150
712.1154, 2602.521
712.5975, 2619.185
713.0797, 2634.066
713.5618, 2647.860
714.0439, 2660.340
714.5260, 2671.798
715.0081, 2682.756
715.4902, 2692.733
715.9724, 2702.484
716.4545, 2711.284
716.9366, 2720.385
717.4187, 2731.888
717.9008, 2745.879
718.3829, 2765.538
718.8651, 2798.005
719.3472, 2832.739
719.8293, 2851.260
720.3114, 2856.492
720.7935, 2862.144
721.2756, 2875.185
721.7578, 2891.551
722.2399, 2910.385
722.7220, 2931.797
723.2041, 2948.450
723.6862, 2953.557
724.1683, 2959.665
724.6505, 2971.210
725.1326, 2987.786
725.6147, 3015.209
726.0968, 3056.984
726.5789, 3096.852
727.0610, 3117.375
727.5432, 3123.765
728.0253, 3134.183
728.5074, 3150.221
728.9895, 3172.060
729.4716, 3206.645
729.9537, 3244.278
730.4359, 3272.166
730.9180, 3283.293
731.4001, 3293.242
731.8822, 3297.868
732.3643, 3307.672
732.8464, 3337.121
733.3285, 3400.917
733.8106, 3451.005
734.2927, 3478.260
734.7748, 3493.734
735.2570, 3520.262
735.7391, 3556.750
736.2212, 3586.514
736.7033, 3598.802
737.1854, 3609.128
737.6675, 3644.330
738.1497, 3694.957
738.6318, 3736.495
739.1139, 3740.932
739.5960, 3750.197
740.0781, 3790.461
740.5602, 3856.372
741.0424, 3909.723
741.5245, 3940.319
742.0066, 3970.018
742.4887, 4005.202
742.9708, 4045.363
743.4529, 4088.948
743.9351, 4136.410
744.4172, 4181.789
744.8993, 4221.835
745.3814, 4256.611
745.8635, 4278.957
746.3456, 4290.240
746.8278, 4319.230
747.3099, 4403.427
747.7920, 4499.485
748.2741, 4572.418
748.7562, 4612.884
749.2383, 4656.034
749.7205, 4715.580
750.2026, 4771.413
750.6847, 4806.832
751.1668, 4815.017
751.6489, 4837.670
752.1310, 4876.159
752.6132, 4928.221
753.0953, 4995.272
753.5774, 5074.312
754.0595, 5153.882
754.5416, 5235.303
755.0237, 5307.715
755.5059, 5349.737
755.9880, 5382.867
756.4701, 5435.028
756.9522, 5529.492
757.4343, 5620.803
757.9164, 5697.655
758.3986, 5768.712
758.8807, 5846.276
759.3628, 5931.087
759.8449, 6018.551
760.3270, 6109.436
760.8091, 6199.221
761.2913, 6273.682
761.7734, 6337.707
762.2555, 6419.588
762.7376, 6540.993
763.2197, 6672.460
763.7018, 6784.174
764.1840, 6884.443
764.6661, 6994.947
765.1482, 7123.515
765.6303, 7260.419
766.1124, 7410.002
766.5945, 7566.661
767.0767, 7702.135
767.5588, 7804.464
768.0409, 7919.005
768.5230, 8065.194
769.0051, 8233.944
769.4872, 8402.854
769.9694, 8572.561
770.4515, 8737.461
770.9336, 8886.157
771.4157, 9034.127
771.8978, 9200.776
772.3799, 9384.780
772.8621, 9563.188
773.3442, 9715.575
773.8263, 9873.995
774.3084, 10057.46
774.7905, 10266.62
775.2726, 10465.02
775.7548, 10647.16
776.2369, 10834.60
776.7190, 11041.00
777.2011, 11265.02
777.6832, 11489.57
778.1653, 11715.48
778.6475, 11933.28
779.1296, 12123.85
779.6117, 12309.03
780.0938, 12513.38
780.5759, 12737.05
781.0580, 12970.42
781.5402, 13218.20
782.0223, 13467.65
782.5044, 13711.31
782.9865, 13944.70
783.4686, 14178.57
783.9507, 14413.16
784.4329, 14649.99
784.9150, 14897.33
785.3971, 15154.55
785.8792, 15413.38
786.3613, 15675.17
786.8434, 15934.50
787.3256, 16181.04
787.8077, 16422.05
788.2898, 16668.46
788.7719, 16920.21
789.2540, 17177.76
789.7361, 17436.96
790.2183, 17703.20
790.7004, 17976.29
791.1825, 18257.28
791.6646, 18549.97
792.1467, 18855.60
792.6288, 19168.01
793.1110, 19481.68
793.5930, 19796.19
794.0751, 20122.69
794.5573, 20460.48
795.0394, 20811.02
795.5215, 21170.38
796.0036, 21536.12
796.4857, 21908.15
796.9678, 22273.82
797.4500, 22657.78
797.9321, 23067.06
798.4142, 23497.29
798.8963, 23941.13
799.3784, 24401.15
799.8605, 24893.96
800.3427, 25428.04
800.8248, 25989.27
801.3069, 26555.06
801.7890, 27134.86
802.2711, 27760.56
802.7532, 28441.01
803.2354, 29171.60
803.7175, 29987.18
804.1996, 30853.97
804.6817, 31721.03
805.1638, 32517.58
805.6459, 33396.62
806.1281, 34382.32
806.6102, 35455.29
807.0923, 36562.86
807.5744, 37709.11
808.0565, 38897.39
808.5386, 40114.54
809.0208, 41396.00
809.5029, 42796.88
809.9850, 44293.81
810.4671, 45809.87
810.9492, 47263.67
811.4313, 48778.89
811.9135, 50414.00
812.3956, 52144.92
812.8777, 53916.87
813.3598, 55732.91
813.8419, 57571.68
814.3240, 59437.64
814.8062, 61315.28
815.2883, 63220.99
815.7704, 65138.45
816.2525, 67066.18
816.7346, 69006.92
817.2167, 70948.18
817.6989, 72919.73
818.1810, 74880.20
818.6631, 76743.02
819.1452, 78474.65
819.6273, 80134.55
820.1094, 81723.54
820.5916, 83249.11
821.0737, 84722.25
821.5558, 86158.51
822.0379, 87452.66
822.5200, 88574.76
823.0021, 89518.68
823.4843, 90296.84
823.9664, 90895.13
824.4485, 91285.98
824.9306, 91442.11
825.4127, 91394.14
825.8948, 91119.51
826.3770, 90657.73
826.8591, 90103.88
827.3412, 89558.38
827.8233, 88812.48
828.3054, 87822.72
828.7875, 86613.09
829.2697, 85271.31
829.7518, 83778.35
830.2339, 82202.29
830.7160, 80529.41
831.1981, 78786.34
831.6802, 76995.86
832.1624, 75154.15
832.6445, 73294.18
833.1266, 71411.09
833.6087, 69531.31
834.0908, 67637.85
834.5729, 65766.69
835.0551, 63972.66
835.5372, 62276.51
836.0193, 60637.50
836.5014, 59054.13
836.9835, 57513.18
837.4656, 56019.70
837.9478, 54582.07
838.4299, 53179.64
838.9120, 51775.12
839.3941, 50418.37
839.8762, 49134.93
840.3583, 47930.36
840.8405, 46812.49
841.3226, 45857.67
841.8047, 44918.00
842.2868, 43954.32
842.7689, 42991.72
843.2510, 42121.32
843.7332, 41352.42
844.2153, 40580.07
844.6974, 39759.43
845.1795, 38943.54
845.6616, 38231.55
846.1437, 37599.59
846.6259, 36998.15
847.1080, 36425.78
847.5901, 35858.07
848.0722, 35277.24
848.5543, 34695.83
849.0364, 34130.93
849.5186, 33559.59
850.0007, 33059.51
850.4828, 32667.25
850.9649, 32318.48
851.4470, 31879.27
851.9291, 31370.57
852.4113, 30893.09
852.8934, 30474.19
853.3755, 30094.93
853.8576, 29734.29
854.3397, 29404.96
854.8218, 29120.30
855.3040, 28963.75
855.7860, 28741.46
856.2681, 28389.03
856.7502, 28002.02
857.2324, 27720.08
857.7145, 27551.02
858.1966, 27382.06
858.6787, 27189.03
859.1608, 27001.45
859.6429, 26845.74
860.1251, 26722.67
860.6072, 26631.39
861.0893, 26587.11
861.5714, 26541.64
862.0535, 26468.70
862.5356, 26389.13
863.0178, 26325.91
863.4999, 26284.28
863.9820, 26244.58
864.4641, 26204.88
864.9462, 26171.39
865.4283, 26140.52
865.9105, 26122.84
866.3926, 26162.34
866.8747, 26278.40
867.3568, 26384.66
867.8389, 26397.70
868.3210, 26382.05
868.8032, 26399.10
869.2853, 26480.43
869.7674, 26546.57
870.2495, 26591.09
870.7316, 26631.38
871.2137, 26680.02
871.6959, 26737.48
872.1780, 26816.33
872.6601, 26919.92
873.1422, 27004.07
873.6243, 27017.18
874.1064, 26998.14
874.5886, 26987.93
875.0707, 26992.47
875.5528, 26997.91
876.0349, 27023.55
876.5170, 27025.55
876.9991, 26978.03
877.4813, 26878.68
877.9634, 26779.27
878.4455, 26684.44
878.9276, 26547.18
879.4097, 26319.80
879.8918, 26035.17
880.3740, 25750.30
880.8561, 25464.67
881.3382, 25136.04
881.8203, 24716.28
882.3024, 24275.62
882.7845, 23844.63
883.2667, 23426.50
883.7488, 23006.67
884.2309, 22586.41
884.7130, 22158.23
885.1951, 21711.54
885.6772, 21258.38
886.1594, 20811.00
886.6415, 20374.89
887.1236, 19957.19
887.6057, 19590.51
888.0878, 19215.41
888.5699, 18786.19
889.0521, 18319.54
889.5342, 17897.27
890.0163, 17532.57
890.4984, 17184.31
890.9805, 16836.11
891.4626, 16495.72
891.9448, 16181.84
892.4269, 15894.25
892.9090, 15620.70
893.3911, 15368.83
893.8732, 15110.28
894.3553, 14818.74
894.8375, 14504.34
895.3196, 14192.29
895.8017, 13874.11
896.2838, 13574.17
896.7659, 13298.96
897.2480, 13035.08
897.7302, 12750.53
898.2123, 12453.05
898.6944, 12172.98
899.1765, 11924.76
899.6586, 11675.55
900.1407, 11386.14
900.6229, 11083.09
901.1050, 10805.00
901.5871, 10563.81
902.0692, 10335.33
902.5513, 10113.44
903.0334, 9899.563
903.5156, 9696.221
903.9977, 9501.945
904.4798, 9306.812
904.9619, 9109.468
905.4440, 8917.509
905.9261, 8734.971
906.4083, 8563.871
906.8904, 8406.785
907.3725, 8265.626
907.8546, 8126.779
908.3367, 7988.438
908.8188, 7848.453
909.3010, 7705.970
909.7831, 7560.637
910.2652, 7430.703
910.7473, 7316.962
911.2294, 7209.816
911.7115, 7097.878
912.1937, 6990.408
912.6758, 6908.479
913.1579, 6846.370
913.6400, 6771.347
914.1221, 6650.861
914.6042, 6535.991
915.0864, 6445.513
915.5685, 6374.806
916.0506, 6307.626
916.5327, 6243.400
917.0148, 6186.479
917.4969, 6139.475
917.9790, 6098.160
918.4611, 6061.572
918.9432, 6025.062
919.4254, 5977.775
919.9075, 5899.331
920.3896, 5828.188
920.8717, 5775.261
921.3538, 5737.812
921.8359, 5716.833
922.3181, 5717.996
922.8002, 5704.354
923.2823, 5666.779
923.7644, 5627.297
924.2465, 5619.205
924.7286, 5629.047
925.2108, 5631.621
925.6929, 5619.701
926.1750, 5609.306
926.6571, 5613.376
927.1392, 5617.144
927.6213, 5607.975
928.1035, 5582.341
928.5856, 5563.688
929.0677, 5552.635
929.5498, 5546.237
930.0319, 5551.809
930.5140, 5557.061
930.9962, 5530.162
931.4783, 5472.888
931.9604, 5425.156
932.4425, 5418.349
932.9246, 5413.839
933.4067, 5387.840
933.8889, 5345.088
934.3710, 5319.748
934.8531, 5317.894
935.3352, 5303.532
935.8173, 5257.689
936.2994, 5195.570
936.7816, 5151.092
937.2637, 5115.084
937.7458, 5062.994
938.2279, 4958.037
938.7100, 4864.735
939.1921, 4821.625
939.6743, 4800.473
940.1564, 4750.516
940.6385, 4661.934
941.1206, 4594.607
941.6027, 4562.182
942.0848, 4535.332
942.5670, 4466.862
943.0491, 4378.536
943.5312, 4310.114
944.0133, 4275.464
944.4954, 4241.584
944.9775, 4195.271
945.4597, 4144.391
945.9418, 4094.303
946.4239, 4043.777
946.9060, 4002.439
947.3881, 3971.205
947.8702, 3941.882
948.3524, 3904.385
948.8345, 3866.521
949.3166, 3843.142
949.7987, 3832.986
950.2808, 3822.311
950.7629, 3808.156
951.2451, 3788.792
951.7272, 3759.501
952.2093, 3724.583
952.6914, 3704.852
953.1735, 3701.754
953.6556, 3696.983
954.1378, 3682.649
954.6199, 3664.989
955.1020, 3650.781
955.5841, 3639.892
956.0662, 3632.053
956.5483, 3631.659
957.0305, 3628.383
957.5126, 3616.628
957.9947, 3604.164
958.4768, 3601.784
958.9589, 3610.105
959.4410, 3613.102
959.9232, 3609.264
960.4053, 3598.940
960.8874, 3576.350
961.3695, 3550.571
961.8516, 3534.033
962.3337, 3529.974
962.8159, 3522.569
963.2980, 3502.801
963.7801, 3486.551
964.2622, 3484.656
964.7443, 3494.375
965.2264, 3486.308
965.7086, 3461.196
966.1907, 3433.501
966.6728, 3407.309
967.1549, 3385.807
967.6370, 3374.925
968.1191, 3371.526
968.6013, 3365.792
969.0834, 3351.136
969.5655, 3342.272
970.0476, 3344.946
970.5297, 3350.158
971.0118, 3339.252
971.4940, 3315.052
971.9761, 3290.390
972.4582, 3264.906
972.9403, 3250.799
973.4224, 3273.125
973.9045, 3302.138
974.3867, 3303.308
974.8688, 3254.908
975.3509, 3234.517
975.8330, 3251.005
976.3151, 3273.452
976.7972, 3278.736
977.2794, 3270.635
977.7615, 3258.667
978.2436, 3243.660
978.7257, 3230.120
979.2078, 3217.758
979.6899, 3210.278
980.1720, 3213.653
980.6541, 3224.382
981.1362, 3226.765
981.6183, 3219.968
982.1005, 3207.594
982.5826, 3187.863
983.0647, 3168.311
983.5468, 3167.994
984.0289, 3176.860
984.5110, 3172.120
984.9932, 3134.071
985.4753, 3104.366
985.9574, 3105.555
986.4395, 3113.602
986.9216, 3106.543
987.4037, 3082.065
987.8859, 3065.112
988.3680, 3057.165
988.8501, 3052.204
989.3322, 3044.531
989.8143, 3037.285
990.2964, 3036.324
990.7786, 3041.546
991.2607, 3040.726
991.7428, 3029.152
992.2249, 3013.175
992.7070, 2991.269
993.1891, 2967.812
993.6713, 2961.580
994.1534, 2970.084
994.6355, 2975.981
995.1176, 2974.412
995.5997, 2964.565
996.0818, 2938.932
996.5640, 2907.011
997.0461, 2883.490
997.5282, 2869.803
998.0103, 2866.589
998.4924, 2878.522
998.9745, 2890.203
999.4567, 2884.127
999.9388, 2864.994
1000.421, 2843.071
1000.903, 2819.310
1001.385, 2802.101
1001.867, 2804.410
1002.349, 2807.373
1002.831, 2798.042
1003.314, 2778.461
1003.796, 2765.886
1004.278, 2761.119
1004.760, 2756.616
1005.242, 2748.695
1005.724, 2740.262
1006.206, 2736.900
1006.688, 2736.039
1007.171, 2732.249
1007.653, 2724.205
1008.135, 2711.972
1008.617, 2691.725
1009.099, 2671.597
1009.581, 2660.947
1010.063, 2659.259
1010.545, 2658.229
1011.027, 2657.216
1011.510, 2656.784
1011.992, 2662.399
1012.474, 2664.964
1012.956, 2651.980
1013.438, 2622.818
1013.920, 2610.986
1014.402, 2626.945
1014.884, 2636.696
1015.367, 2625.118
1015.849, 2602.665
1016.331, 2596.699
1016.813, 2601.125
1017.295, 2596.610
1017.777, 2564.936
1018.259, 2539.465
1018.741, 2538.395
1019.223, 2547.969
1019.706, 2553.937
1020.188, 2556.488
1020.670, 2553.763
1021.152, 2545.410
1021.634, 2533.780
1022.116, 2514.770
1022.598, 2497.599
1023.080, 2496.517
1023.563, 2511.400
1024.045, 2523.325
1024.527, 2527.813
1025.009, 2528.698
1025.491, 2526.083
1025.973, 2521.104
1026.455, 2518.094
1026.937, 2516.099
1027.419, 2509.287
1027.901, 2492.188
1028.384, 2477.332
1028.866, 2476.365
1029.348, 2480.835
1029.830, 2480.260
1030.312, 2470.811
1030.794, 2468.815
1031.276, 2476.660
1031.758, 2482.510
1032.241, 2473.893
1032.723, 2457.790
1033.205, 2443.405
1033.687, 2431.997
1034.169, 2427.412
1034.651, 2443.969
1035.133, 2451.467
1035.615, 2435.822
1036.098, 2409.036
1036.580, 2403.664
1037.062, 2417.347
1037.544, 2422.197
1038.026, 2407.780
1038.508, 2393.262
1038.990, 2400.688
1039.472, 2413.767
1039.954, 2412.587
1040.437, 2387.396
1040.919, 2378.339
1041.401, 2390.201
1041.883, 2403.724
1042.365, 2404.669
1042.847, 2398.715
1043.329, 2400.159
1043.811, 2407.084
1044.293, 2411.616
1044.776, 2412.536
1045.258, 2407.590
1045.740, 2392.782
1046.222, 2374.318
1046.704, 2360.595
1047.186, 2351.681
1047.668, 2353.308
1048.150, 2368.177
1048.633, 2379.387
1049.115, 2364.590
1049.597, 2343.078
1050.079, 2336.287
1050.561, 2350.003
1051.043, 2344.335
1051.525, 2308.401
1052.007, 2281.775
1052.490, 2286.457
1052.972, 2308.593
1053.454, 2319.755
1053.936, 2321.965
1054.418, 2320.905
1054.900, 2319.837
1055.382, 2314.248
1055.864, 2296.824
1056.346, 2279.054
1056.828, 2273.453
1057.311, 2280.120
1057.793, 2288.063
1058.275, 2297.000
1058.757, 2298.314
1059.239, 2276.456
1059.721, 2251.344
1060.203, 2241.573
1060.685, 2246.194
1061.168, 2244.642
1061.650, 2235.121
1062.132, 2222.154
1062.614, 2204.950
1063.096, 2189.055
1063.578, 2188.917
1064.060, 2196.056
1064.542, 2191.321
1065.025, 2163.441
1065.507, 2143.541
1065.989, 2148.614
1066.471, 2157.610
1066.953, 2159.929
1067.435, 2155.599
1067.917, 2142.216
1068.399, 2120.687
1068.881, 2104.126
1069.364, 2100.856
1069.846, 2104.523
1070.328, 2119.724
1070.810, 2136.782
1071.292, 2132.239
1071.774, 2096.953
1072.256, 2070.535
1072.738, 2058.444
1073.220, 2052.645
1073.703, 2045.241
1074.185, 2037.759
1074.667, 2032.173
1075.149, 2028.639
1075.631, 2028.734
1076.113, 2037.813
1076.595, 2043.880
1077.077, 2042.858
1077.559, 2036.227
1078.042, 2026.942
1078.524, 2015.755
1079.006, 2004.867
1079.488, 1992.598
1079.970, 1986.424
1080.452, 2001.263
1080.934, 2016.644
1081.416, 2011.091
1081.899, 1980.014
1082.381, 1957.934
1082.863, 1944.995
1083.345, 1940.546
1083.827, 1947.781
1084.309, 1960.297
1084.791, 1974.632
1085.273, 1988.920
1085.755, 1997.181
1086.238, 1995.434
1086.720, 1994.824
1087.202, 1997.982
1087.684, 2000.098
1088.166, 1993.923
1088.648, 1981.953
1089.130, 1967.869
1089.612, 1951.864
1090.094, 1941.506
1090.577, 1948.495
1091.059, 1952.475
1091.541, 1942.963
1092.023, 1923.982
1092.505, 1911.094
1092.987, 1904.281
1093.469, 1903.531
1093.951, 1913.143
1094.434, 1919.747
1094.916, 1907.742
1095.398, 1890.949
1095.880, 1885.603
1096.362, 1894.032
1096.844, 1906.424
1097.326, 1924.141
1097.808, 1936.068
1098.291, 1929.619
1098.773, 1915.991
1099.255, 1908.060
1099.737, 1905.271
1100.219, 1905.393
1100.701, 1909.482
1101.183, 1914.630
1101.665, 1922.276
1102.147, 1927.552
1102.630, 1919.984
1103.112, 1905.674
1103.594, 1900.243
1104.076, 1905.677
1104.558, 1912.011
1105.040, 1916.743
1105.522, 1918.978
1106.004, 1918.281
1106.486, 1914.975
1106.969, 1909.146
1107.451, 1901.340
1107.933, 1895.917
1108.415, 1894.996
1108.897, 1894.987
1109.379, 1894.080
1109.861, 1892.339
1110.343, 1888.655
1110.826, 1881.922
1111.308, 1886.390
1111.790, 1903.863
1112.272, 1914.919
1112.754, 1901.139
1113.236, 1880.011
1113.718, 1870.931
1114.200, 1870.242
1114.682, 1869.528
1115.165, 1865.991
1115.647, 1864.810
1116.129, 1866.328
1116.611, 1870.106
1117.093, 1875.937
1117.575, 1883.576
1118.057, 1895.727
1118.539, 1911.260
1119.021, 1917.554
1119.504, 1901.515
1119.986, 1885.509
1120.468, 1873.228
1120.950, 1866.299
1121.432, 1871.323
1121.914, 1885.169
1122.396, 1894.555
1122.878, 1896.318
1123.361, 1895.718
1123.843, 1897.419
1124.325, 1895.914
1124.807, 1885.202
1125.289, 1867.305
1125.771, 1862.493
1126.253, 1870.367
1126.735, 1879.748
1127.218, 1887.176
1127.700, 1892.023
1128.182, 1892.158
1128.664, 1890.034
1129.146, 1888.445
1129.628, 1885.895
1130.110, 1890.952
1130.592, 1904.950
1131.074, 1917.684
1131.557, 1922.600
1132.039, 1921.312
1132.521, 1909.951
1133.003, 1893.968
1133.485, 1890.868
1133.967, 1916.188
1134.449, 1929.425
1134.931, 1923.880
1135.413, 1912.976
1135.896, 1912.951
1136.378, 1919.152
1136.860, 1923.871
1137.342, 1926.245
1137.824, 1924.983
1138.306, 1912.750
1138.788, 1906.036
1139.270, 1911.510
1139.752, 1922.251
1140.235, 1921.315
1140.717, 1912.537
1141.199, 1909.481
1141.681, 1916.354
1142.163, 1923.066
1142.645, 1924.942
1143.127, 1924.501
1143.609, 1921.410
1144.092, 1917.172
1144.574, 1926.308
1145.056, 1946.556
1145.538, 1955.988
1146.020, 1936.368
1146.502, 1919.568
1146.984, 1933.597
1147.466, 1957.093
1147.948, 1966.548
1148.431, 1959.821
1148.913, 1951.856
1149.395, 1942.369
1149.877, 1937.672
1150.359, 1945.245
1150.841, 1956.264
1151.323, 1965.776
1151.805, 1972.530
1152.287, 1973.354
1152.770, 1964.840
1153.252, 1962.947
1153.734, 1969.739
1154.216, 1978.500
1154.698, 1981.406
1155.180, 1983.397
1155.662, 1993.368
1156.144, 2009.703
1156.627, 2015.422
1157.109, 2004.664
1157.591, 1995.349
1158.073, 1991.109
1158.555, 1989.600
1159.037, 1986.836
1159.519, 1984.758
1160.001, 1986.879
1160.484, 1993.926
1160.966, 2001.965
1161.448, 2010.130
1161.930, 2019.960
1162.412, 2035.128
1162.894, 2048.594
1163.376, 2038.695
1163.858, 2015.078
1164.340, 2002.814
1164.823, 2012.413
1165.305, 2021.939
1165.787, 2024.777
1166.269, 2027.323
1166.751, 2034.458
1167.233, 2043.912
1167.715, 2044.842
1168.197, 2038.787
1168.679, 2031.911
1169.162, 2023.224
1169.644, 2019.580
1170.126, 2029.144
1170.608, 2039.623
1171.090, 2039.766
1171.572, 2030.390
1172.054, 2022.443
1172.536, 2016.521
1173.019, 2016.663
1173.501, 2038.898
1173.983, 2052.499
1174.465, 2028.387
1174.947, 1994.276
1175.429, 1991.089
1175.911, 2018.649
1176.393, 2041.306
1176.875, 2055.821
1177.358, 2064.117
1177.840, 2065.422
1178.322, 2062.801
1178.804, 2056.067
1179.286, 2047.276
1179.768, 2040.806
1180.250, 2036.552
1180.732, 2041.466
1181.214, 2059.067
1181.697, 2069.922
1182.179, 2045.123
1182.661, 2015.512
1183.143, 2010.172
1183.625, 2027.028
1184.107, 2039.022
1184.589, 2045.975
1185.071, 2049.389
1185.554, 2049.287
1186.036, 2047.081
1186.518, 2042.474
1187.000, 2037.643
1187.482, 2036.072
1187.964, 2038.563
1188.446, 2034.379
1188.928, 2021.643
1189.411, 2016.016
1189.893, 2029.902
1190.375, 2045.276
1190.857, 2036.155
1191.339, 2016.517
1191.821, 2006.542
1192.303, 2011.570
1192.785, 2017.593
1193.267, 2025.621
1193.750, 2029.390
1194.232, 2020.183
1194.714, 2008.456
1195.196, 2009.039
1195.678, 2017.041
1196.160, 2022.448
1196.642, 2023.687
1197.124, 2021.339
1197.606, 2014.379
1198.089, 2007.988
1198.571, 2007.594
1199.053, 2009.691
1199.535, 2011.104
1200.017, 2010.960
1200.499, 2006.207
1200.981, 1991.127
1201.463, 1983.758
1201.945, 1987.087
1202.428, 1993.946
1202.910, 2000.964
1203.392, 2004.440
1203.874, 1994.490
1204.356, 1973.752
1204.838, 1964.631
1205.320, 1977.859
1205.802, 1984.702
1206.285, 1978.298
1206.767, 1969.988
1207.249, 1977.909
1207.731, 1991.712
1208.213, 1995.414
1208.695, 1987.424
1209.177, 1977.580
1209.659, 1964.796
1210.141, 1957.009
1210.624, 1958.012
1211.106, 1961.112
1211.588, 1952.161
1212.070, 1940.118
1212.552, 1941.516
1213.034, 1961.029
1213.516, 1972.857
1213.998, 1972.159
1214.480, 1969.527
1214.963, 1968.964
1215.445, 1967.981
1215.927, 1958.009
1216.409, 1946.077
1216.891, 1945.517
1217.373, 1962.675
1217.855, 1976.659
1218.337, 1989.469
1218.820, 1989.718
1219.302, 1965.798
1219.784, 1933.567
1220.266, 1924.536
1220.748, 1929.153
1221.230, 1929.637
1221.712, 1916.978
1222.194, 1912.345
1222.677, 1918.301
1223.159, 1927.608
1223.641, 1937.291
1224.123, 1946.291
1224.605, 1954.083
1225.087, 1959.606
1225.569, 1960.421
1226.051, 1951.721
1226.533, 1945.178
1227.016, 1941.103
1227.498, 1938.684
1227.980, 1935.878
1228.462, 1935.191
1228.944, 1944.871
1229.426, 1959.838
1229.908, 1966.792
1230.390, 1955.394
1230.872, 1950.144
1231.355, 1953.882
1231.837, 1957.263
1232.319, 1948.983
1232.801, 1937.446
1233.283, 1935.579
1233.765, 1941.184
1234.247, 1945.941
1234.729, 1949.281
1235.212, 1948.845
1235.694, 1943.422
1236.176, 1938.128
1236.658, 1939.397
1237.140, 1942.749
1237.622, 1940.805
1238.104, 1935.278
1238.586, 1936.415
1239.068, 1948.016
1239.551, 1956.097
1240.033, 1958.898
1240.515, 1958.107
1240.997, 1951.400
1241.479, 1945.102
1241.961, 1949.386
1242.443, 1962.017
1242.925, 1965.239
1243.407, 1956.239
1243.890, 1947.534
1244.372, 1941.090
1244.854, 1936.524
1245.336, 1933.519
1245.818, 1932.209
1246.300, 1932.517
1246.782, 1934.692
1247.264, 1940.431
1247.747, 1950.607
1248.229, 1956.837
1248.711, 1956.305
1249.193, 1956.010
1249.675, 1967.364
1250.157, 1978.610
1250.639, 1977.187
1251.121, 1964.869
1251.604, 1954.194
1252.086, 1945.135
1252.568, 1941.984
1253.050, 1947.567
1253.532, 1951.632
1254.014, 1940.710
1254.496, 1928.284
1254.978, 1926.150
1255.460, 1932.750
1255.943, 1940.394
1256.425, 1948.914
1256.907, 1955.438
1257.389, 1959.737
1257.871, 1959.713
1258.353, 1950.117
1258.835, 1938.830
1259.317, 1930.497
1259.799, 1925.455
1260.281, 1929.333
1260.764, 1939.867
1261.246, 1940.179
1261.728, 1920.385
1262.210, 1904.048
1262.692, 1908.699
1263.174, 1915.825
1263.656, 1912.537
1264.138, 1903.173
1264.621, 1911.103
1265.103, 1931.009
1265.585, 1940.793
1266.067, 1928.362
1266.549, 1917.725
1267.031, 1916.789
1267.513, 1920.770
1267.995, 1928.845
1268.478, 1939.207
1268.960, 1948.286
1269.442, 1954.814
1269.924, 1954.782
1270.406, 1943.778
1270.888, 1932.611
1271.370, 1920.491
1271.852, 1913.429
1272.334, 1918.596
1272.817, 1928.562
1273.299, 1922.726
1273.781, 1908.923
1274.263, 1904.849
1274.745, 1924.726
1275.227, 1932.970
1275.709, 1925.378
1276.191, 1916.026
1276.673, 1914.387
1277.156, 1915.492
1277.638, 1911.649
1278.120, 1904.756
1278.602, 1897.519
1279.084, 1887.021
1279.566, 1888.416
1280.048, 1903.850
1280.530, 1918.021
1281.013, 1921.233
1281.495, 1918.606
1281.977, 1914.975
1282.459, 1909.367
1282.941, 1898.996
1283.423, 1880.809
1283.905, 1875.151
1284.387, 1882.265
1284.870, 1889.143
1285.352, 1889.405
1285.834, 1884.511
1286.316, 1867.000
1286.798, 1850.346
1287.280, 1853.537
1287.762, 1877.761
1288.244, 1888.365
1288.726, 1886.093
1289.208, 1880.792
1289.691, 1877.138
1290.173, 1872.789
1290.655, 1866.281
1291.137, 1859.099
1291.619, 1852.503
1292.101, 1846.162
1292.583, 1838.861
1293.065, 1831.083
1293.548, 1823.455
1294.030, 1813.151
1294.512, 1807.859
1294.994, 1811.718
1295.476, 1815.168
1295.958, 1805.246
##END=



