##NAMES=Vauxite
##RRUFFID=R070421
##IDEAL CHEMISTRY=Fe^2+^Al_2_(PO_4_)_2_(OH)_2_&#183;6H_2_O
##LOCALITY=Llallagua, Bustillos Province, Potosi, Bolivia
##OWNER=RRUFF
##SOURCE=James Shigley
##DESCRIPTION=Aggregates of pale blue tabular crystals
##STATUS=The identification of this mineral is confirmed by single-crystal X-ray diffraction and chemical analysis.
##URL=rruff.info/R070421
##MEASURED CHEMISTRY=(Fe^2+^_0.98_Mn_0.02_)_Σ=1_Al_2.00_(P_1.00_O_4_)_2_(OH)_2_·5.7H_2_O; OH estimated by charge balance; H_2_O  by difference
161.0115, 14516.60
161.4936, 14609.68
161.9757, 14695.79
162.4578, 14764.84
162.9400, 14801.76
163.4221, 14843.58
163.9042, 14911.37
164.3863, 14997.22
164.8684, 15074.98
165.3505, 15126.85
165.8327, 15168.01
166.3148, 15209.98
166.7969, 15248.80
167.2790, 15296.46
167.7611, 15368.94
168.2433, 15462.81
168.7254, 15545.80
169.2075, 15587.24
169.6896, 15610.98
170.1717, 15644.76
170.6538, 15701.51
171.1360, 15770.46
171.6181, 15851.20
172.1002, 15944.71
172.5823, 16025.74
173.0644, 16055.32
173.5465, 16061.19
174.0287, 16093.69
174.5108, 16209.43
174.9929, 16347.72
175.4750, 16437.96
175.9571, 16469.34
176.4392, 16488.94
176.9214, 16544.45
177.4035, 16624.30
177.8856, 16697.18
178.3677, 16734.91
178.8498, 16757.33
179.3319, 16800.27
179.8141, 16875.23
180.2962, 16953.02
180.7783, 16997.25
181.2604, 17011.70
181.7425, 17020.68
182.2246, 17039.06
182.7068, 17063.40
183.1889, 17085.96
183.6710, 17104.40
184.1531, 17121.49
184.6352, 17142.27
185.1173, 17166.66
185.5995, 17189.58
186.0816, 17204.70
186.5637, 17214.41
187.0458, 17228.45
187.5279, 17251.66
188.0100, 17278.90
188.4922, 17294.66
188.9743, 17298.14
189.4564, 17304.13
189.9385, 17330.57
190.4206, 17374.73
190.9027, 17415.56
191.3849, 17445.37
191.8670, 17467.24
192.3491, 17493.20
192.8312, 17523.91
193.3133, 17556.63
193.7954, 17594.70
194.2776, 17637.68
194.7597, 17662.77
195.2418, 17647.94
195.7239, 17601.18
196.2060, 17590.16
196.6881, 17621.38
197.1703, 17672.41
197.6524, 17709.91
198.1345, 17732.08
198.6166, 17760.06
199.0987, 17805.65
199.5808, 17868.87
200.0630, 17930.82
200.5451, 17995.04
201.0272, 18051.79
201.5093, 18076.44
201.9914, 18061.46
202.4735, 18052.58
202.9557, 18078.04
203.4378, 18141.53
203.9199, 18195.34
204.4020, 18236.37
204.8841, 18267.07
205.3662, 18291.76
205.8484, 18308.83
206.3305, 18325.66
206.8126, 18348.10
207.2947, 18377.82
207.7768, 18403.57
208.2589, 18426.70
208.7411, 18444.38
209.2232, 18440.03
209.7053, 18400.30
210.1874, 18370.54
210.6695, 18388.29
211.1517, 18467.92
211.6338, 18533.66
212.1159, 18574.83
212.5980, 18594.18
213.0801, 18606.64
213.5622, 18609.81
214.0444, 18610.36
214.5265, 18612.96
215.0086, 18617.31
215.4907, 18624.24
215.9728, 18631.19
216.4549, 18639.28
216.9371, 18667.10
217.4192, 18724.86
217.9013, 18786.98
218.3834, 18827.91
218.8655, 18840.89
219.3476, 18850.12
219.8298, 18856.31
220.3119, 18859.23
220.7940, 18882.48
221.2761, 18939.73
221.7582, 19001.67
222.2403, 19032.64
222.7225, 19012.63
223.2046, 19006.71
223.6867, 19033.95
224.1688, 19098.28
224.6509, 19154.04
225.1330, 19200.16
225.6152, 19239.38
226.0973, 19273.92
226.5794, 19300.11
227.0615, 19328.69
227.5436, 19366.67
228.0257, 19420.10
228.5079, 19445.92
228.9900, 19429.61
229.4721, 19396.87
229.9542, 19385.02
230.4363, 19400.60
230.9184, 19425.25
231.4006, 19455.90
231.8827, 19495.40
232.3648, 19527.60
232.8469, 19548.84
233.3290, 19565.21
233.8111, 19588.22
234.2933, 19623.64
234.7754, 19655.98
235.2575, 19678.11
235.7396, 19683.69
236.2217, 19700.05
236.7038, 19732.36
237.1860, 19773.24
237.6681, 19809.80
238.1502, 19847.80
238.6323, 19872.19
239.1144, 19873.84
239.5965, 19837.64
240.0787, 19819.88
240.5608, 19825.70
241.0429, 19848.07
241.5250, 19870.90
242.0071, 19889.65
242.4892, 19915.91
242.9714, 19957.80
243.4535, 20034.13
243.9356, 20082.25
244.4177, 20090.96
244.8998, 20074.26
245.3819, 20069.01
245.8641, 20081.14
246.3462, 20096.09
246.8283, 20107.92
247.3104, 20117.63
247.7925, 20120.37
248.2746, 20107.27
248.7568, 20089.12
249.2389, 20100.99
249.7210, 20167.65
250.2031, 20226.79
250.6852, 20241.54
251.1674, 20175.13
251.6495, 20154.75
252.1316, 20203.69
252.6137, 20297.60
253.0958, 20356.47
253.5779, 20359.09
254.0601, 20359.69
254.5422, 20391.16
255.0243, 20476.34
255.5064, 20530.03
255.9885, 20531.49
256.4706, 20501.71
256.9528, 20516.93
257.4349, 20606.44
257.9170, 20692.67
258.3991, 20728.43
258.8812, 20684.80
259.3633, 20672.33
259.8455, 20708.68
260.3276, 20778.17
260.8097, 20824.42
261.2918, 20839.45
261.7739, 20846.57
262.2560, 20857.70
262.7382, 20872.37
263.2203, 20893.74
263.7024, 20925.88
264.1845, 20964.03
264.6666, 20991.30
265.1487, 21002.21
265.6309, 21013.04
266.1130, 21036.78
266.5951, 21082.34
267.0772, 21106.87
267.5593, 21097.49
268.0414, 21068.59
268.5236, 21072.83
269.0057, 21122.45
269.4878, 21175.74
269.9699, 21206.20
270.4520, 21207.55
270.9341, 21213.78
271.4163, 21227.95
271.8984, 21248.60
272.3805, 21272.32
272.8626, 21300.89
273.3447, 21328.01
273.8268, 21344.61
274.3090, 21345.97
274.7911, 21373.61
275.2732, 21443.81
275.7553, 21533.25
276.2374, 21567.34
276.7195, 21531.30
277.2017, 21498.58
277.6838, 21525.63
278.1659, 21619.60
278.6480, 21682.17
279.1301, 21698.14
279.6122, 21683.97
280.0944, 21672.74
280.5765, 21661.58
281.0586, 21670.48
281.5407, 21727.41
282.0228, 21833.04
282.5049, 21899.86
282.9871, 21912.67
283.4692, 21892.44
283.9513, 21881.15
284.4334, 21879.13
284.9155, 21881.97
285.3976, 21886.72
285.8798, 21893.63
286.3619, 21909.80
286.8440, 21942.50
287.3261, 21973.40
287.8082, 21953.39
288.2903, 21881.81
288.7725, 21830.04
289.2546, 21861.67
289.7367, 21958.58
290.2188, 22013.81
290.7009, 22010.91
291.1830, 21980.61
291.6652, 21972.09
292.1473, 21983.82
292.6294, 21995.59
293.1115, 21989.36
293.5936, 21972.97
294.0757, 21976.29
294.5579, 22005.41
295.0400, 22043.37
295.5221, 22066.96
296.0042, 22078.24
296.4863, 22087.98
296.9684, 22102.12
297.4506, 22119.07
297.9327, 22130.95
298.4148, 22134.12
298.8969, 22146.44
299.3790, 22206.86
299.8611, 22299.57
300.3433, 22368.18
300.8254, 22359.58
301.3075, 22314.47
301.7896, 22301.79
302.2717, 22328.57
302.7538, 22366.28
303.2360, 22386.69
303.7181, 22395.88
304.2002, 22409.07
304.6823, 22436.13
305.1644, 22469.76
305.6465, 22502.13
306.1287, 22533.36
306.6108, 22561.12
307.0929, 22586.49
307.5750, 22606.95
308.0571, 22618.93
308.5392, 22602.64
309.0214, 22588.26
309.5035, 22612.21
309.9856, 22676.73
310.4677, 22730.79
310.9498, 22722.46
311.4319, 22687.14
311.9141, 22674.00
312.3962, 22720.62
312.8783, 22780.85
313.3604, 22825.24
313.8426, 22853.62
314.3247, 22882.01
314.8068, 22917.20
315.2889, 22957.04
315.7710, 22999.51
316.2531, 23051.40
316.7353, 23099.63
317.2174, 23138.92
317.6995, 23169.41
318.1816, 23193.10
318.6637, 23200.19
319.1458, 23206.19
319.6280, 23223.55
320.1101, 23277.12
320.5922, 23320.39
321.0743, 23324.99
321.5564, 23300.92
322.0385, 23304.11
322.5207, 23379.75
323.0028, 23468.03
323.4849, 23531.07
323.9670, 23537.97
324.4491, 23549.95
324.9312, 23583.06
325.4134, 23630.05
325.8955, 23663.70
326.3776, 23668.26
326.8597, 23668.13
327.3418, 23674.52
327.8239, 23691.58
328.3061, 23710.18
328.7882, 23728.14
329.2703, 23747.45
329.7524, 23773.63
330.2345, 23818.42
330.7166, 23858.59
331.1988, 23886.62
331.6809, 23902.44
332.1630, 23903.70
332.6451, 23873.55
333.1272, 23834.89
333.6093, 23834.75
334.0915, 23908.16
334.5736, 23965.09
335.0557, 23970.13
335.5378, 23907.80
336.0199, 23867.98
336.5020, 23861.29
336.9842, 23866.48
337.4663, 23848.14
337.9484, 23788.89
338.4305, 23754.36
338.9126, 23770.93
339.3947, 23838.99
339.8769, 23888.22
340.3590, 23914.99
340.8411, 23931.17
341.3232, 23950.56
341.8053, 23974.09
342.2874, 23991.73
342.7696, 23996.73
343.2517, 23993.61
343.7338, 24008.98
344.2159, 24046.24
344.6980, 24084.84
345.1801, 24108.17
345.6623, 24116.44
346.1444, 24113.66
346.6265, 24095.04
347.1086, 24070.81
347.5907, 24061.63
348.0728, 24067.63
348.5550, 24090.39
349.0371, 24144.24
349.5192, 24217.47
350.0013, 24273.43
350.4834, 24304.85
350.9655, 24317.83
351.4477, 24311.34
351.9298, 24289.79
352.4119, 24275.47
352.8940, 24286.22
353.3761, 24311.92
353.8582, 24337.79
354.3404, 24363.21
354.8225, 24384.04
355.3046, 24389.66
355.7867, 24387.07
356.2688, 24393.10
356.7509, 24430.50
357.2331, 24472.07
357.7152, 24488.59
358.1973, 24475.38
358.6794, 24463.16
359.1615, 24469.27
359.6436, 24489.11
360.1258, 24516.18
360.6079, 24554.89
361.0900, 24594.48
361.5721, 24629.83
362.0542, 24660.75
362.5363, 24688.48
363.0185, 24717.92
363.5006, 24742.46
363.9827, 24755.89
364.4648, 24725.26
364.9469, 24715.85
365.4290, 24763.40
365.9112, 24857.33
366.3933, 24924.75
366.8754, 24928.75
367.3575, 24917.90
367.8396, 24919.70
368.3217, 24953.70
368.8039, 24979.42
369.2860, 24986.11
369.7681, 24981.93
370.2502, 24991.96
370.7323, 25034.62
371.2144, 25073.13
371.6966, 25092.76
372.1787, 25086.03
372.6608, 25078.08
373.1429, 25062.36
373.6250, 25049.04
374.1071, 25057.33
374.5893, 25099.58
375.0714, 25138.39
375.5535, 25158.08
376.0356, 25156.25
376.5177, 25171.92
376.9998, 25207.94
377.4820, 25256.44
377.9641, 25317.98
378.4462, 25400.25
378.9283, 25443.20
379.4104, 25412.53
379.8925, 25332.04
380.3747, 25321.44
380.8568, 25390.33
381.3389, 25468.97
381.8210, 25493.07
382.3031, 25469.51
382.7852, 25457.15
383.2674, 25468.82
383.7495, 25494.23
384.2316, 25517.77
384.7137, 25539.26
385.1958, 25553.58
385.6779, 25542.80
386.1601, 25524.29
386.6422, 25543.24
387.1243, 25615.55
387.6064, 25688.24
388.0885, 25689.31
388.5706, 25644.94
389.0528, 25622.82
389.5349, 25685.05
390.0170, 25769.14
390.4991, 25811.98
390.9812, 25807.30
391.4633, 25797.58
391.9455, 25806.95
392.4276, 25828.51
392.9097, 25853.55
393.3918, 25875.59
393.8739, 25903.28
394.3561, 25950.95
394.8382, 26014.51
395.3203, 26058.14
395.8024, 26049.44
396.2845, 26027.44
396.7667, 26018.63
397.2488, 26031.72
397.7309, 26053.47
398.2130, 26090.80
398.6951, 26136.61
399.1772, 26168.60
399.6594, 26172.13
400.1415, 26171.64
400.6236, 26175.42
401.1057, 26183.35
401.5878, 26196.16
402.0699, 26218.93
402.5521, 26244.10
403.0342, 26258.39
403.5163, 26247.79
403.9984, 26252.62
404.4805, 26294.03
404.9626, 26372.95
405.4448, 26404.67
405.9269, 26371.43
406.4090, 26323.60
406.8911, 26312.70
407.3732, 26345.28
407.8553, 26369.62
408.3375, 26372.26
408.8196, 26362.75
409.3017, 26372.86
409.7838, 26404.14
410.2659, 26437.77
410.7480, 26455.42
411.2302, 26462.18
411.7123, 26484.69
412.1944, 26527.87
412.6765, 26581.24
413.1586, 26639.79
413.6407, 26699.81
414.1229, 26743.90
414.6050, 26760.13
415.0871, 26756.83
415.5692, 26737.44
416.0513, 26700.63
416.5334, 26677.74
417.0156, 26703.95
417.4977, 26757.67
417.9798, 26806.22
418.4619, 26843.20
418.9440, 26867.07
419.4261, 26874.55
419.9083, 26866.98
420.3904, 26853.18
420.8725, 26809.13
421.3546, 26777.43
421.8367, 26794.77
422.3188, 26914.28
422.8010, 27002.09
423.2831, 26997.03
423.7652, 26939.03
424.2473, 26914.29
424.7294, 26967.03
425.2115, 27024.95
425.6937, 27067.12
426.1758, 27091.86
426.6579, 27104.30
427.1400, 27088.15
427.6221, 27070.73
428.1042, 27081.10
428.5864, 27132.77
429.0685, 27186.02
429.5506, 27239.16
430.0327, 27289.31
430.5148, 27312.23
430.9969, 27298.30
431.4791, 27279.71
431.9612, 27281.39
432.4433, 27305.04
432.9254, 27316.45
433.4075, 27305.64
433.8896, 27292.41
434.3718, 27323.06
434.8539, 27396.09
435.3360, 27459.40
435.8181, 27478.12
436.3002, 27467.31
436.7823, 27467.24
437.2645, 27478.99
437.7466, 27497.61
438.2287, 27519.19
438.7108, 27543.97
439.1929, 27573.06
439.6750, 27611.64
440.1572, 27649.54
440.6393, 27679.88
441.1214, 27701.95
441.6035, 27712.08
442.0856, 27675.89
442.5677, 27645.16
443.0499, 27671.56
443.5320, 27792.59
444.0141, 27900.79
444.4962, 27945.52
444.9783, 27950.95
445.4604, 27957.60
445.9426, 27994.37
446.4247, 28016.60
446.9068, 27994.68
447.3889, 27916.00
447.8710, 27884.54
448.3531, 27948.12
448.8353, 28033.68
449.3174, 28087.31
449.7995, 28085.72
450.2816, 28091.78
450.7637, 28116.80
451.2458, 28153.72
451.7280, 28170.38
452.2101, 28155.13
452.6922, 28147.26
453.1743, 28173.29
453.6564, 28238.24
454.1385, 28283.63
454.6207, 28308.04
455.1028, 28314.29
455.5849, 28295.65
456.0670, 28254.44
456.5491, 28230.42
457.0313, 28240.57
457.5134, 28276.17
457.9955, 28326.42
458.4776, 28390.69
458.9597, 28440.35
459.4418, 28435.03
459.9240, 28403.78
460.4061, 28398.03
460.8882, 28435.17
461.3703, 28484.06
461.8524, 28524.14
462.3345, 28555.56
462.8167, 28577.79
463.2988, 28588.07
463.7809, 28590.85
464.2630, 28582.72
464.7451, 28561.39
465.2272, 28555.01
465.7094, 28586.24
466.1915, 28630.51
466.6736, 28666.11
467.1557, 28684.65
467.6378, 28698.97
468.1199, 28705.92
468.6021, 28708.83
469.0842, 28722.69
469.5663, 28758.13
470.0484, 28792.07
470.5305, 28815.88
471.0126, 28829.27
471.4948, 28830.14
471.9769, 28809.66
472.4590, 28787.62
472.9411, 28797.31
473.4232, 28845.46
473.9053, 28880.36
474.3875, 28879.88
474.8696, 28856.50
475.3517, 28867.38
475.8338, 28914.64
476.3159, 28956.52
476.7981, 28940.54
477.2802, 28891.63
477.7623, 28890.62
478.2444, 28957.11
478.7265, 29049.39
479.2086, 29130.85
479.6908, 29200.48
480.1729, 29254.71
480.6550, 29290.08
481.1371, 29310.56
481.6192, 29312.10
482.1013, 29295.67
482.5835, 29286.21
483.0656, 29300.18
483.5477, 29324.56
484.0298, 29348.42
484.5119, 29365.11
484.9940, 29386.74
485.4762, 29427.04
485.9583, 29474.78
486.4404, 29501.07
486.9225, 29471.24
487.4046, 29451.11
487.8867, 29462.12
488.3689, 29510.84
488.8510, 29552.27
489.3331, 29585.29
489.8152, 29612.75
490.2973, 29634.31
490.7794, 29645.51
491.2616, 29672.55
491.7437, 29727.95
492.2258, 29795.13
492.7079, 29825.33
493.1900, 29817.04
493.6721, 29796.91
494.1543, 29770.17
494.6364, 29743.15
495.1185, 29737.63
495.6006, 29754.89
496.0827, 29791.54
496.5648, 29865.92
497.0470, 29955.95
497.5291, 30012.70
498.0112, 29993.07
498.4933, 29962.11
498.9754, 29983.74
499.4576, 30043.67
499.9397, 30086.72
500.4218, 30070.24
500.9039, 30040.58
501.3860, 30025.45
501.8681, 30029.77
502.3503, 30045.43
502.8324, 30085.85
503.3145, 30131.04
503.7966, 30156.68
504.2787, 30130.00
504.7608, 30123.53
505.2430, 30161.80
505.7251, 30234.12
506.2072, 30262.41
506.6893, 30220.04
507.1714, 30180.80
507.6535, 30190.70
508.1357, 30257.69
508.6178, 30306.93
509.0999, 30334.57
509.5820, 30348.21
510.0641, 30355.03
510.5462, 30355.61
511.0284, 30356.07
511.5105, 30354.93
511.9926, 30357.48
512.4747, 30373.85
512.9568, 30403.54
513.4389, 30442.56
513.9210, 30502.72
514.4031, 30564.65
514.8853, 30599.23
515.3674, 30595.87
515.8495, 30593.77
516.3316, 30621.70
516.8137, 30664.24
517.2958, 30700.05
517.7780, 30720.48
518.2601, 30735.12
518.7422, 30738.02
519.2244, 30732.44
519.7065, 30749.10
520.1886, 30818.26
520.6707, 30886.94
521.1528, 30929.23
521.6349, 30926.68
522.1171, 30947.10
522.5992, 31002.51
523.0813, 31068.90
523.5634, 31110.27
524.0455, 31118.85
524.5276, 31146.93
525.0098, 31221.03
525.4919, 31318.32
525.9740, 31352.39
526.4561, 31321.56
526.9382, 31294.72
527.4203, 31324.96
527.9025, 31393.44
528.3846, 31444.24
528.8667, 31464.72
529.3488, 31517.37
529.8309, 31733.51
530.3130, 32007.23
530.7952, 32169.00
531.2773, 32043.67
531.7594, 31886.49
532.2415, 31811.53
532.7236, 31814.55
533.2057, 31880.03
533.6879, 32129.86
534.1700, 32339.94
534.6521, 32382.13
535.1342, 32165.99
535.6163, 32007.52
536.0984, 31939.32
536.5806, 31913.40
537.0627, 31882.68
537.5448, 31845.68
538.0269, 31805.16
538.5090, 31756.68
538.9911, 31707.28
539.4733, 31686.15
539.9554, 31696.55
540.4375, 31710.21
540.9196, 31707.93
541.4017, 31694.93
541.8839, 31696.35
542.3660, 31713.48
542.8481, 31737.29
543.3302, 31772.36
543.8123, 31806.49
544.2944, 31812.77
544.7766, 31767.41
545.2587, 31718.57
545.7408, 31703.87
546.2229, 31715.55
546.7050, 31733.92
547.1871, 31764.80
547.6693, 31788.67
548.1514, 31783.75
548.6335, 31742.87
549.1156, 31740.24
549.5977, 31833.38
550.0798, 31937.25
550.5620, 31991.88
551.0441, 31965.50
551.5262, 31954.20
552.0083, 31970.16
552.4904, 31997.06
552.9725, 31996.61
553.4547, 31960.05
553.9368, 31942.49
554.4189, 31967.31
554.9010, 32025.34
555.3831, 32090.36
555.8652, 32162.89
556.3474, 32215.54
556.8295, 32207.16
557.3116, 32166.54
557.7937, 32156.54
558.2758, 32191.55
558.7579, 32232.38
559.2401, 32235.64
559.7222, 32224.66
560.2043, 32235.55
560.6864, 32320.55
561.1685, 32392.98
561.6506, 32397.62
562.1328, 32349.44
562.6149, 32330.79
563.0970, 32390.07
563.5791, 32452.98
564.0612, 32488.13
564.5433, 32486.77
565.0255, 32490.23
565.5076, 32496.91
565.9897, 32510.28
566.4718, 32538.80
566.9539, 32587.05
567.4360, 32618.29
567.9182, 32621.35
568.4003, 32610.57
568.8824, 32619.75
569.3645, 32646.77
569.8466, 32666.77
570.3287, 32653.06
570.8109, 32628.77
571.2930, 32633.78
571.7751, 32667.94
572.2572, 32713.61
572.7393, 32777.64
573.2214, 32837.92
573.7036, 32868.64
574.1857, 32850.12
574.6678, 32835.19
575.1499, 32849.68
575.6320, 32877.72
576.1141, 32896.33
576.5963, 32870.59
577.0784, 32871.81
577.5605, 32930.72
578.0426, 33032.98
578.5247, 33087.40
579.0068, 33074.39
579.4890, 33052.62
579.9711, 33053.71
580.4532, 33079.54
580.9353, 33089.43
581.4174, 33078.42
581.8995, 33072.02
582.3817, 33113.57
582.8638, 33186.60
583.3459, 33226.23
583.8280, 33204.16
584.3101, 33167.47
584.7922, 33172.59
585.2744, 33206.03
585.7565, 33233.11
586.2386, 33225.98
586.7207, 33217.07
587.2028, 33223.64
587.6849, 33246.32
588.1671, 33279.59
588.6492, 33332.81
589.1313, 33388.46
589.6134, 33437.97
590.0955, 33495.07
590.5776, 33514.73
591.0598, 33479.48
591.5419, 33422.48
592.0240, 33378.47
592.5061, 33340.64
592.9882, 33358.11
593.4703, 33464.60
593.9525, 33610.09
594.4346, 33655.20
594.9167, 33607.12
595.3988, 33567.04
595.8809, 33611.92
596.3630, 33694.85
596.8452, 33739.43
597.3273, 33742.49
597.8094, 33734.03
598.2915, 33709.24
598.7736, 33695.29
599.2557, 33724.64
599.7379, 33835.78
600.2200, 33924.91
600.7021, 33947.86
601.1842, 33934.17
601.6663, 33931.09
602.1484, 33956.55
602.6306, 33970.15
603.1127, 33950.61
603.5948, 33912.11
604.0769, 33940.18
604.5590, 34060.07
605.0411, 34162.48
605.5233, 34168.71
606.0054, 34093.96
606.4875, 34076.33
606.9696, 34119.71
607.4517, 34182.62
607.9338, 34240.11
608.4160, 34286.09
608.8981, 34300.28
609.3802, 34265.43
609.8623, 34234.74
610.3444, 34255.32
610.8265, 34305.88
611.3087, 34351.23
611.7908, 34376.84
612.2729, 34397.20
612.7550, 34416.57
613.2371, 34434.61
613.7192, 34447.40
614.2014, 34440.52
614.6835, 34446.38
615.1656, 34485.96
615.6477, 34566.49
616.1298, 34605.22
616.6119, 34589.44
617.0941, 34564.40
617.5762, 34574.01
618.0583, 34614.54
618.5404, 34656.11
619.0225, 34696.54
619.5046, 34729.48
619.9868, 34744.55
620.4689, 34745.93
620.9510, 34744.46
621.4331, 34725.09
621.9152, 34721.48
622.3973, 34784.50
622.8795, 34890.57
623.3616, 34943.07
623.8437, 34820.82
624.3258, 34715.35
624.8079, 34740.95
625.2900, 34934.06
625.7722, 35029.66
626.2543, 34976.89
626.7364, 34889.80
627.2185, 34851.57
627.7006, 34868.07
628.1827, 34900.25
628.6649, 34951.14
629.1470, 35002.39
629.6291, 35020.82
630.1112, 35013.08
630.5933, 35013.45
631.0754, 35035.73
631.5576, 35068.34
632.0397, 35098.40
632.5218, 35126.91
633.0039, 35156.81
633.4860, 35197.32
633.9681, 35232.80
634.4503, 35251.43
634.9324, 35252.25
635.4145, 35254.74
635.8966, 35252.89
636.3787, 35261.86
636.8608, 35292.50
637.3430, 35358.66
637.8251, 35408.20
638.3072, 35438.63
638.7893, 35455.48
639.2714, 35463.07
639.7535, 35461.27
640.2357, 35455.89
640.7178, 35445.02
641.1999, 35436.77
641.6820, 35440.07
642.1641, 35456.20
642.6462, 35489.26
643.1284, 35582.59
643.6105, 35662.54
644.0926, 35645.29
644.5747, 35547.68
645.0568, 35477.32
645.5389, 35497.41
646.0211, 35538.04
646.5032, 35558.61
646.9853, 35541.70
647.4674, 35563.81
647.9495, 35656.31
648.4316, 35752.21
648.9138, 35794.96
649.3959, 35774.65
649.8780, 35755.96
650.3601, 35741.84
650.8422, 35736.85
651.3243, 35756.67
651.8065, 35794.99
652.2886, 35819.51
652.7707, 35815.98
653.2528, 35798.29
653.7349, 35767.79
654.2170, 35734.05
654.6992, 35726.07
655.1813, 35775.45
655.6634, 35838.48
656.1455, 35897.86
656.6276, 35952.38
657.1097, 35993.44
657.5919, 36016.60
658.0740, 36029.41
658.5561, 36032.74
659.0382, 36022.48
659.5203, 36021.61
660.0024, 36032.08
660.4846, 36047.24
660.9667, 36061.31
661.4488, 36074.27
661.9309, 36084.39
662.4130, 36090.85
662.8951, 36095.95
663.3773, 36102.45
663.8594, 36109.71
664.3415, 36116.38
664.8236, 36127.13
665.3057, 36132.13
665.7878, 36112.27
666.2700, 36079.73
666.7521, 36075.90
667.2342, 36155.35
667.7163, 36219.00
668.1984, 36217.28
668.6805, 36150.71
669.1627, 36166.05
669.6448, 36301.48
670.1269, 36432.02
670.6090, 36467.60
671.0911, 36413.47
671.5732, 36375.96
672.0554, 36359.58
672.5375, 36351.66
673.0196, 36341.25
673.5017, 36330.07
673.9838, 36320.26
674.4659, 36310.03
674.9481, 36307.62
675.4302, 36327.97
675.9123, 36356.77
676.3944, 36373.46
676.8765, 36347.32
677.3586, 36338.09
677.8408, 36369.51
678.3229, 36425.89
678.8050, 36464.23
679.2871, 36483.43
679.7692, 36486.17
680.2513, 36466.14
680.7335, 36430.41
681.2156, 36414.40
681.6977, 36418.06
682.1799, 36437.38
682.6620, 36476.94
683.1441, 36527.46
683.6262, 36578.38
684.1083, 36628.64
684.5905, 36667.46
685.0726, 36668.52
685.5547, 36665.81
686.0368, 36696.70
686.5189, 36810.89
687.0010, 36861.84
687.4832, 36763.95
687.9653, 36630.09
688.4474, 36576.27
688.9295, 36630.68
689.4116, 36683.81
689.8937, 36721.91
690.3759, 36753.06
690.8580, 36801.96
691.3401, 36864.98
691.8222, 36897.18
692.3043, 36861.39
692.7864, 36806.95
693.2686, 36813.06
693.7507, 36863.39
694.2328, 36898.32
694.7149, 36840.56
695.1970, 36800.19
695.6791, 36875.65
696.1613, 37067.75
696.6434, 37167.70
697.1255, 37066.75
697.6076, 36949.05
698.0897, 36890.52
698.5718, 36897.66
699.0540, 36932.91
699.5361, 37006.29
700.0182, 37077.39
700.5003, 37103.61
700.9824, 37093.33
701.4645, 37085.97
701.9467, 37086.20
702.4288, 37091.14
702.9109, 37090.43
703.3930, 37094.78
703.8751, 37122.46
704.3572, 37206.55
704.8394, 37273.73
705.3215, 37287.80
705.8036, 37267.78
706.2857, 37249.77
706.7678, 37239.12
707.2499, 37224.28
707.7321, 37192.74
708.2142, 37158.77
708.6963, 37184.26
709.1784, 37277.55
709.6605, 37348.86
710.1426, 37342.98
710.6248, 37293.37
711.1069, 37277.13
711.5890, 37290.88
712.0711, 37312.55
712.5532, 37325.02
713.0353, 37341.28
713.5175, 37381.48
713.9996, 37449.48
714.4817, 37489.57
714.9638, 37443.93
715.4459, 37399.97
715.9280, 37412.80
716.4102, 37506.61
716.8923, 37578.84
717.3744, 37631.13
717.8565, 37659.89
718.3386, 37656.28
718.8207, 37622.98
719.3029, 37582.71
719.7850, 37533.21
720.2671, 37500.63
720.7492, 37530.55
721.2313, 37596.60
721.7134, 37651.55
722.1956, 37680.17
722.6777, 37695.62
723.1598, 37694.36
723.6419, 37685.73
724.1240, 37688.18
724.6061, 37717.04
725.0883, 37739.83
725.5704, 37749.70
726.0525, 37750.35
726.5346, 37750.80
727.0167, 37749.22
727.4988, 37762.44
727.9810, 37810.50
728.4631, 37871.58
728.9452, 37881.32
729.4273, 37848.57
729.9094, 37830.26
730.3915, 37890.69
730.8737, 37958.70
731.3558, 37968.03
731.8379, 37914.63
732.3200, 37877.50
732.8021, 37890.28
733.2842, 37915.76
733.7664, 37934.38
734.2485, 37943.69
734.7306, 37959.88
735.2127, 37984.36
735.6948, 38012.34
736.1769, 38048.79
736.6591, 38088.94
737.1412, 38086.88
737.6233, 38031.41
738.1054, 37985.14
738.5875, 38024.58
739.0696, 38107.25
739.5518, 38174.64
740.0339, 38215.97
740.5160, 38232.04
740.9981, 38205.15
741.4802, 38159.89
741.9623, 38128.96
742.4445, 38100.55
742.9266, 38113.56
743.4087, 38192.65
743.8908, 38296.14
744.3729, 38333.91
744.8550, 38305.35
745.3372, 38289.73
745.8193, 38321.22
746.3014, 38363.64
746.7835, 38335.50
747.2656, 38268.52
747.7477, 38256.34
748.2299, 38437.03
748.7120, 38598.08
749.1941, 38596.23
749.6762, 38462.16
750.1583, 38370.82
750.6404, 38353.82
751.1226, 38370.23
751.6047, 38424.73
752.0868, 38509.34
752.5689, 38529.55
753.0510, 38476.39
753.5331, 38429.66
754.0153, 38449.20
754.4974, 38509.38
754.9795, 38553.14
755.4616, 38579.41
755.9437, 38596.52
756.4258, 38590.73
756.9080, 38591.36
757.3901, 38631.90
757.8722, 38728.46
758.3543, 38789.78
758.8364, 38777.60
759.3185, 38747.04
759.8007, 38729.00
760.2828, 38726.80
760.7649, 38716.90
761.2470, 38691.75
761.7291, 38684.05
762.2112, 38756.09
762.6934, 38875.14
763.1755, 38925.59
763.6576, 38877.62
764.1397, 38820.49
764.6218, 38831.99
765.1039, 38871.48
765.5861, 38888.71
766.0682, 38833.38
766.5503, 38817.75
767.0324, 38903.90
767.5145, 39014.57
767.9966, 39055.58
768.4788, 39004.36
768.9609, 38971.98
769.4430, 38975.95
769.9251, 39002.20
770.4072, 39037.33
770.8893, 39076.73
771.3715, 39097.45
771.8536, 39074.84
772.3357, 39058.14
772.8178, 39111.42
773.2999, 39199.01
773.7820, 39250.34
774.2642, 39205.88
774.7463, 39166.04
775.2284, 39157.71
775.7105, 39170.49
776.1926, 39176.02
776.6747, 39169.15
777.1569, 39173.98
777.6390, 39198.15
778.1211, 39238.84
778.6032, 39302.96
779.0853, 39382.72
779.5674, 39436.75
780.0496, 39410.48
780.5317, 39374.35
781.0138, 39396.28
781.4959, 39464.69
781.9780, 39518.82
782.4601, 39526.41
782.9423, 39530.66
783.4244, 39549.54
783.9065, 39580.83
784.3886, 39600.01
784.8707, 39607.34
785.3528, 39600.77
785.8350, 39571.27
786.3171, 39527.49
786.7992, 39494.13
787.2813, 39472.04
787.7634, 39468.01
788.2455, 39501.70
788.7277, 39544.68
789.2098, 39571.48
789.6919, 39580.08
790.1740, 39590.21
790.6561, 39626.48
791.1382, 39645.55
791.6204, 39617.33
792.1025, 39534.51
792.5846, 39503.93
793.0667, 39534.88
793.5488, 39578.59
794.0309, 39588.25
794.5131, 39581.34
794.9952, 39614.45
795.4773, 39691.78
795.9594, 39759.33
796.4415, 39761.29
796.9236, 39748.06
797.4058, 39765.83
797.8879, 39832.81
798.3700, 39886.29
798.8521, 39925.86
799.3342, 39944.64
799.8163, 39926.19
800.2985, 39859.80
800.7806, 39849.38
801.2627, 39907.11
801.7448, 39971.18
802.2269, 39963.46
802.7090, 39919.59
803.1912, 39914.76
803.6733, 39966.56
804.1554, 40019.16
804.6375, 40034.19
805.1196, 40036.60
805.6017, 40049.25
806.0839, 40083.52
806.5660, 40111.92
807.0481, 40127.33
807.5302, 40145.69
808.0123, 40194.29
808.4944, 40273.17
808.9766, 40305.53
809.4587, 40277.31
809.9408, 40230.55
810.4229, 40201.09
810.9050, 40186.99
811.3871, 40186.29
811.8693, 40201.28
812.3514, 40222.04
812.8335, 40240.37
813.3156, 40264.74
813.7977, 40307.30
814.2798, 40393.35
814.7620, 40436.37
815.2441, 40416.05
815.7262, 40380.88
816.2083, 40408.93
816.6904, 40485.80
817.1725, 40510.73
817.6547, 40450.38
818.1368, 40386.33
818.6189, 40408.52
819.1010, 40470.61
819.5831, 40509.76
820.0652, 40488.99
820.5474, 40475.39
821.0295, 40480.98
821.5116, 40501.15
821.9937, 40536.69
822.4758, 40595.55
822.9579, 40633.34
823.4401, 40641.68
823.9222, 40635.17
824.4043, 40634.68
824.8864, 40636.08
825.3685, 40626.03
825.8506, 40595.14
826.3328, 40567.34
826.8149, 40551.91
827.2970, 40551.84
827.7791, 40571.22
828.2612, 40641.54
828.7433, 40687.51
829.2255, 40697.03
829.7076, 40692.12
830.1897, 40705.55
830.6718, 40737.18
831.1539, 40757.93
831.6360, 40759.64
832.1182, 40758.04
832.6003, 40765.66
833.0824, 40784.72
833.5645, 40821.45
834.0466, 40894.39
834.5287, 40955.10
835.0109, 40992.06
835.4930, 41004.51
835.9751, 40989.21
836.4572, 40924.49
836.9393, 40894.98
837.4214, 40913.74
837.9036, 40960.38
838.3857, 41017.71
838.8678, 41080.12
839.3499, 41121.71
839.8320, 41132.26
840.3141, 41132.71
840.7963, 41141.14
841.2784, 41148.82
841.7605, 41144.40
842.2426, 41095.39
842.7247, 41078.49
843.2068, 41108.57
843.6890, 41161.95
844.1711, 41221.45
844.6532, 41289.97
845.1353, 41301.09
845.6174, 41232.42
846.0995, 41158.57
846.5817, 41184.80
847.0638, 41264.16
847.5460, 41310.69
848.0281, 41287.60
848.5102, 41271.88
848.9923, 41310.32
849.4744, 41362.90
849.9565, 41387.60
850.4387, 41376.67
850.9208, 41351.19
851.4029, 41301.42
851.8850, 41261.19
852.3671, 41275.60
852.8492, 41333.85
853.3314, 41399.62
853.8135, 41470.19
854.2956, 41530.62
854.7777, 41565.66
855.2598, 41587.07
855.7419, 41608.28
856.2241, 41637.88
856.7062, 41650.30
857.1883, 41628.77
857.6704, 41608.25
858.1525, 41624.86
858.6346, 41680.16
859.1168, 41716.42
859.5989, 41729.71
860.0810, 41727.86
860.5631, 41700.46
861.0452, 41670.46
861.5273, 41673.44
862.0095, 41719.77
862.4916, 41767.52
862.9737, 41815.13
863.4558, 41846.05
863.9379, 41847.43
864.4200, 41812.82
864.9022, 41774.95
865.3843, 41726.24
865.8664, 41701.64
866.3485, 41746.51
866.8306, 41835.04
867.3127, 41908.91
867.7949, 41964.70
868.2770, 41997.93
868.7591, 41982.31
869.2412, 41961.74
869.7233, 41970.91
870.2054, 42019.91
870.6876, 42052.50
871.1697, 42064.20
871.6518, 42067.92
872.1339, 42066.11
872.6160, 42061.21
873.0981, 42071.79
873.5803, 42097.54
874.0624, 42128.38
874.5445, 42169.88
875.0266, 42204.36
875.5087, 42208.45
875.9908, 42184.44
876.4730, 42172.91
876.9551, 42183.12
877.4372, 42209.34
877.9193, 42261.40
878.4014, 42329.83
878.8835, 42340.25
879.3657, 42290.61
879.8478, 42268.84
880.3299, 42351.17
880.8120, 42469.02
881.2941, 42542.56
881.7762, 42570.98
882.2584, 42553.98
882.7405, 42425.70
883.2226, 42323.27
883.7047, 42298.81
884.1868, 42335.22
884.6689, 42394.59
885.1511, 42484.79
885.6332, 42555.04
886.1153, 42578.77
886.5974, 42589.14
887.0795, 42672.09
887.5616, 42792.09
888.0438, 42851.52
888.5259, 42742.52
889.0080, 42638.69
889.4901, 42620.10
889.9722, 42657.88
890.4543, 42697.63
890.9365, 42743.11
891.4186, 42774.42
891.9007, 42783.45
892.3828, 42787.32
892.8649, 42817.54
893.3470, 42866.31
893.8292, 42909.42
894.3113, 42944.09
894.7934, 42960.49
895.2755, 42905.64
895.7576, 42850.07
896.2397, 42879.44
896.7219, 43123.59
897.2040, 43240.17
897.6861, 43183.98
898.1682, 43073.50
898.6503, 43024.28
899.1324, 43030.00
899.6146, 43053.13
900.0967, 43091.19
900.5788, 43133.83
901.0609, 43186.86
901.5430, 43232.11
902.0251, 43245.83
902.5073, 43214.04
902.9894, 43207.22
903.4715, 43243.71
903.9536, 43290.77
904.4357, 43339.31
904.9178, 43387.01
905.4000, 43385.51
905.8821, 43334.41
906.3642, 43288.41
906.8463, 43277.24
907.3284, 43296.91
907.8105, 43362.45
908.2927, 43465.24
908.7748, 43535.36
909.2569, 43523.02
909.7390, 43506.91
910.2211, 43517.78
910.7032, 43544.91
911.1854, 43521.91
911.6675, 43446.77
912.1496, 43397.03
912.6317, 43422.67
913.1138, 43476.20
913.5959, 43498.00
914.0781, 43499.07
914.5602, 43506.32
915.0423, 43531.83
915.5244, 43562.45
916.0065, 43599.88
916.4886, 43637.57
916.9708, 43662.24
917.4529, 43672.81
917.9350, 43683.22
918.4171, 43698.19
918.8992, 43708.49
919.3813, 43694.95
919.8635, 43670.22
920.3456, 43652.76
920.8277, 43635.90
921.3098, 43653.05
921.7919, 43755.73
922.2740, 43868.16
922.7562, 43926.56
923.2383, 43925.45
923.7204, 43888.20
924.2025, 43807.49
924.6846, 43738.62
925.1667, 43748.67
925.6489, 43800.49
926.1310, 43837.34
926.6131, 43852.63
927.0952, 43859.10
927.5773, 43854.66
928.0594, 43849.48
928.5416, 43845.11
929.0237, 43841.72
929.5058, 43866.90
929.9879, 43926.22
930.4700, 43975.62
930.9521, 43979.70
931.4343, 43962.01
931.9164, 43960.74
932.3985, 43973.33
932.8806, 43989.82
933.3627, 43999.69
933.8448, 44019.47
934.3270, 44064.86
934.8091, 44122.48
935.2912, 44163.45
935.7733, 44189.65
936.2554, 44182.20
936.7375, 44120.69
937.2197, 44056.79
937.7018, 44078.54
938.1839, 44153.34
938.6660, 44213.01
939.1481, 44224.14
939.6302, 44242.18
940.1124, 44298.55
940.5945, 44361.81
941.0766, 44397.93
941.5587, 44399.75
942.0408, 44418.07
942.5229, 44458.99
943.0051, 44497.36
943.4872, 44508.94
943.9693, 44501.55
944.4514, 44482.34
944.9335, 44451.28
945.4156, 44430.93
945.8978, 44426.54
946.3799, 44440.86
946.8620, 44481.09
947.3441, 44545.65
947.8262, 44585.26
948.3083, 44598.13
948.7905, 44609.00
949.2726, 44623.16
949.7547, 44649.43
950.2368, 44720.39
950.7189, 44817.30
951.2010, 44878.93
951.6832, 44851.59
952.1653, 44821.44
952.6474, 44804.98
953.1295, 44803.60
953.6116, 44828.64
954.0938, 44881.89
954.5759, 44909.59
955.0580, 44891.30
955.5401, 44868.08
956.0222, 44892.51
956.5043, 44942.42
956.9865, 44984.14
957.4686, 44998.26
957.9507, 45029.08
958.4328, 45118.24
958.9149, 45189.41
959.3970, 45153.26
959.8792, 45005.60
960.3613, 45010.86
960.8434, 45182.80
961.3255, 45331.60
961.8076, 45251.79
962.2897, 45111.58
962.7719, 45069.65
963.2540, 45135.18
963.7361, 45250.14
964.2182, 45467.56
964.7003, 45639.88
965.1824, 45707.57
965.6646, 45697.65
966.1467, 45691.82
966.6288, 45691.46
967.1109, 45707.12
967.5930, 45743.79
968.0751, 45797.95
968.5573, 45901.08
969.0394, 46011.11
969.5215, 46050.69
970.0036, 45938.56
970.4857, 45879.39
970.9678, 45898.54
971.4500, 45953.49
971.9321, 45997.76
972.4142, 46032.27
972.8963, 46063.72
973.3784, 46094.09
973.8605, 46106.44
974.3427, 46064.98
974.8248, 46018.06
975.3069, 46002.28
975.7890, 46021.10
976.2711, 46074.34
976.7532, 46185.14
977.2354, 46256.68
977.7175, 46208.42
978.1996, 46096.00
978.6817, 46060.88
979.1638, 46090.05
979.6459, 46131.52
980.1281, 46181.86
980.6102, 46215.28
981.0923, 46204.34
981.5744, 46173.42
982.0565, 46173.38
982.5386, 46212.79
983.0208, 46238.41
983.5029, 46240.90
983.9850, 46226.91
984.4671, 46194.22
984.9492, 46154.60
985.4313, 46127.01
985.9135, 46116.68
986.3956, 46113.32
986.8777, 46111.77
987.3598, 46118.85
987.8419, 46139.24
988.3240, 46172.97
988.8062, 46215.59
989.2883, 46267.20
989.7704, 46316.80
990.2525, 46373.55
990.7346, 46412.11
991.2167, 46383.04
991.6989, 46307.09
992.1810, 46275.22
992.6631, 46340.43
993.1452, 46400.59
993.6273, 46435.60
994.1094, 46456.15
994.5916, 46471.22
995.0737, 46487.40
995.5558, 46548.91
996.0379, 46686.73
996.5200, 46804.82
997.0021, 46808.80
997.4843, 46771.28
997.9664, 46769.64
998.4485, 46822.23
998.9306, 46864.99
999.4127, 46895.21
999.8948, 46922.91
1000.377, 46960.27
1000.859, 46999.25
1001.341, 47023.50
1001.823, 47032.35
1002.305, 47026.20
1002.788, 46984.91
1003.270, 46950.16
1003.752, 46928.03
1004.234, 46927.20
1004.716, 46992.52
1005.198, 47134.54
1005.680, 47213.20
1006.162, 47176.91
1006.644, 47102.63
1007.127, 47066.30
1007.609, 47060.46
1008.091, 47080.56
1008.573, 47150.28
1009.055, 47178.52
1009.537, 47117.32
1010.019, 47064.44
1010.501, 47108.79
1010.984, 47235.96
1011.466, 47287.88
1011.948, 47267.10
1012.430, 47239.18
1012.912, 47240.88
1013.394, 47256.99
1013.876, 47282.39
1014.358, 47314.07
1014.841, 47339.52
1015.323, 47354.97
1015.805, 47375.25
1016.287, 47405.85
1016.769, 47438.36
1017.251, 47455.53
1017.733, 47464.13
1018.215, 47477.12
1018.697, 47494.19
1019.180, 47527.27
1019.662, 47588.84
1020.144, 47662.96
1020.626, 47746.43
1021.108, 47841.76
1021.590, 47878.93
1022.072, 47855.04
1022.554, 47842.50
1023.036, 47920.15
1023.519, 48012.12
1024.001, 48026.09
1024.483, 47981.78
1024.965, 47961.58
1025.447, 47999.99
1025.929, 48037.04
1026.411, 48067.95
1026.893, 48087.38
1027.375, 48074.61
1027.858, 48040.71
1028.340, 48028.00
1028.822, 48045.28
1029.304, 48081.61
1029.786, 48179.02
1030.268, 48255.04
1030.750, 48218.74
1031.232, 48054.55
1031.715, 48009.03
1032.197, 48098.25
1032.679, 48206.34
1033.161, 48280.05
1033.643, 48321.48
1034.125, 48323.64
1034.607, 48296.73
1035.089, 48270.05
1035.572, 48259.94
1036.054, 48240.07
1036.536, 48196.50
1037.018, 48152.70
1037.500, 48151.42
1037.982, 48185.14
1038.464, 48190.50
1038.946, 48156.36
1039.428, 48130.51
1039.911, 48176.09
1040.393, 48224.26
1040.875, 48201.09
1041.357, 48102.29
1041.839, 48089.21
1042.321, 48189.80
1042.803, 48264.59
1043.285, 48233.69
1043.767, 48162.95
1044.250, 48177.29
1044.732, 48244.29
1045.214, 48292.30
1045.696, 48273.65
1046.178, 48264.89
1046.660, 48294.00
1047.142, 48323.95
1047.624, 48314.96
1048.107, 48269.75
1048.589, 48222.96
1049.071, 48176.59
1049.553, 48157.48
1050.035, 48234.85
1050.517, 48305.48
1050.999, 48260.99
1051.481, 48119.50
1051.964, 48076.19
1052.446, 48163.12
1052.928, 48251.91
1053.410, 48319.27
1053.892, 48349.27
1054.374, 48271.21
1054.856, 48146.26
1055.338, 48098.02
1055.820, 48190.32
1056.302, 48267.89
1056.785, 48273.22
1057.267, 48268.66
1057.749, 48298.65
1058.231, 48358.54
1058.713, 48367.20
1059.195, 48329.91
1059.677, 48314.94
1060.159, 48395.79
1060.642, 48483.09
1061.124, 48506.85
1061.606, 48491.21
1062.088, 48506.25
1062.570, 48569.16
1063.052, 48602.81
1063.534, 48585.12
1064.016, 48577.70
1064.499, 48669.13
1064.981, 48814.50
1065.463, 48959.14
1065.945, 49101.15
1066.427, 49164.13
1066.909, 49083.92
1067.391, 48968.09
1067.873, 48832.77
1068.355, 48699.72
1068.838, 48674.79
1069.320, 48737.92
1069.802, 48773.05
1070.284, 48703.37
1070.766, 48648.62
1071.248, 48721.03
1071.730, 48826.30
1072.212, 48844.79
1072.694, 48738.22
1073.177, 48689.34
1073.659, 48703.15
1074.141, 48739.50
1074.623, 48786.75
1075.105, 48824.94
1075.587, 48819.45
1076.069, 48778.83
1076.551, 48752.00
1077.034, 48749.17
1077.516, 48763.57
1077.998, 48802.64
1078.480, 48845.98
1078.962, 48855.31
1079.444, 48840.63
1079.926, 48828.66
1080.408, 48822.24
1080.891, 48835.02
1081.373, 48904.33
1081.855, 48965.74
1082.337, 48973.14
1082.819, 48934.09
1083.301, 48933.39
1083.783, 48970.93
1084.265, 49040.54
1084.747, 49174.95
1085.229, 49290.79
1085.712, 49294.75
1086.194, 49234.54
1086.676, 49184.45
1087.158, 49149.94
1087.640, 49130.05
1088.122, 49121.61
1088.604, 49138.91
1089.086, 49225.66
1089.569, 49333.02
1090.051, 49355.40
1090.533, 49304.56
1091.015, 49278.35
1091.497, 49345.53
1091.979, 49400.97
1092.461, 49421.37
1092.943, 49416.86
1093.426, 49394.94
1093.908, 49362.48
1094.390, 49355.58
1094.872, 49382.67
1095.354, 49424.46
1095.836, 49486.67
1096.318, 49543.42
1096.800, 49575.31
1097.282, 49584.00
1097.765, 49589.21
1098.247, 49590.36
1098.729, 49599.59
1099.211, 49630.66
1099.693, 49658.74
1100.175, 49640.20
1100.657, 49606.58
1101.139, 49609.82
1101.622, 49690.35
1102.104, 49738.05
1102.586, 49740.40
1103.068, 49744.63
1103.550, 49805.03
1104.032, 49887.77
1104.514, 49916.22
1104.996, 49900.88
1105.479, 49900.37
1105.961, 49966.55
1106.443, 50012.93
1106.925, 50028.91
1107.407, 50009.68
1107.889, 49913.34
1108.371, 49766.58
1108.853, 49723.87
1109.335, 49812.69
1109.818, 49916.01
1110.300, 49978.92
1110.782, 50014.20
1111.264, 50018.44
1111.746, 50000.65
1112.228, 50010.13
1112.710, 50047.67
1113.192, 50082.45
1113.674, 50099.88
1114.157, 50119.77
1114.639, 50170.60
1115.121, 50229.96
1115.603, 50270.45
1116.085, 50284.39
1116.567, 50296.91
1117.049, 50310.72
1117.531, 50312.02
1118.014, 50272.45
1118.496, 50226.95
1118.978, 50236.77
1119.460, 50288.43
1119.942, 50347.72
1120.424, 50425.17
1120.906, 50475.45
1121.388, 50486.15
1121.870, 50485.35
1122.353, 50515.46
1122.835, 50557.91
1123.317, 50538.70
1123.799, 50460.00
1124.281, 50411.46
1124.763, 50468.22
1125.245, 50530.65
1125.727, 50562.35
1126.209, 50574.80
1126.692, 50583.40
1127.174, 50592.00
1127.656, 50648.78
1128.138, 50773.34
1128.620, 50877.65
1129.102, 50891.06
1129.584, 50864.48
1130.066, 50832.16
1130.549, 50796.05
1131.031, 50745.13
1131.513, 50675.50
1131.995, 50652.66
1132.477, 50717.01
1132.959, 50812.83
1133.441, 50904.38
1133.923, 50981.60
1134.406, 51023.09
1134.888, 51001.80
1135.370, 51039.46
1135.852, 51160.35
1136.334, 51242.34
1136.816, 51148.85
1137.298, 50996.63
1137.780, 50984.93
1138.262, 51073.93
1138.745, 51148.06
1139.227, 51146.61
1139.709, 51173.23
1140.191, 51247.52
1140.673, 51327.44
1141.155, 51348.10
1141.637, 51341.67
1142.119, 51400.44
1142.601, 51523.73
1143.084, 51627.03
1143.566, 51689.73
1144.048, 51707.26
1144.530, 51672.89
1145.012, 51602.98
1145.494, 51494.68
1145.976, 51372.62
1146.458, 51367.90
1146.941, 51518.25
1147.423, 51662.34
1147.905, 51716.57
1148.387, 51725.43
1148.869, 51698.55
1149.351, 51652.10
1149.833, 51691.23
1150.315, 51808.43
1150.797, 51888.46
1151.280, 51877.08
1151.762, 51861.35
1152.244, 51923.51
1152.726, 52002.36
1153.208, 52034.01
1153.690, 52011.76
1154.172, 52004.48
1154.654, 52012.23
1155.136, 52032.17
1155.619, 52086.02
1156.101, 52126.81
1156.583, 52075.24
1157.065, 51988.27
1157.547, 51980.33
1158.029, 52107.67
1158.511, 52150.30
1158.993, 52088.36
1159.476, 52021.50
1159.958, 52034.00
1160.440, 52088.10
1160.922, 52156.19
1161.404, 52225.72
1161.886, 52253.69
1162.368, 52206.87
1162.850, 52178.05
1163.333, 52177.28
1163.815, 52199.93
1164.297, 52264.87
1164.779, 52338.58
1165.261, 52349.53
1165.743, 52297.36
1166.225, 52278.24
1166.707, 52351.09
1167.189, 52395.47
1167.672, 52368.22
1168.154, 52322.34
1168.636, 52363.93
1169.118, 52459.02
1169.600, 52543.34
1170.082, 52611.10
1170.564, 52617.52
1171.046, 52471.14
1171.528, 52359.71
1172.011, 52372.83
1172.493, 52458.33
1172.975, 52456.00
1173.457, 52394.11
1173.939, 52367.14
1174.421, 52414.91
1174.903, 52472.99
1175.385, 52541.17
1175.868, 52584.18
1176.350, 52555.57
1176.832, 52479.92
1177.314, 52550.84
1177.796, 52735.63
1178.278, 52853.51
1178.760, 52746.78
1179.242, 52661.30
1179.724, 52747.25
1180.207, 52871.49
1180.689, 52906.42
1181.171, 52854.12
1181.653, 52855.25
1182.135, 52906.97
1182.617, 52952.41
1183.099, 52952.36
1183.581, 52941.32
1184.063, 52916.48
1184.546, 52903.80
1185.028, 52959.17
1185.510, 53087.42
1185.992, 53117.55
1186.474, 53036.14
1186.956, 52956.49
1187.438, 52946.94
1187.920, 52980.54
1188.403, 53071.39
1188.885, 53185.73
1189.367, 53236.17
1189.849, 53218.04
1190.331, 53214.82
1190.813, 53240.46
1191.295, 53266.22
1191.777, 53262.58
1192.260, 53253.08
1192.742, 53261.71
1193.224, 53283.14
1193.706, 53277.95
1194.188, 53241.94
1194.670, 53216.80
1195.152, 53206.93
1195.634, 53232.12
1196.116, 53362.11
1196.599, 53500.87
1197.081, 53542.88
1197.563, 53484.88
1198.045, 53451.64
1198.527, 53444.22
1199.009, 53452.24
1199.491, 53479.90
1199.973, 53502.19
1200.455, 53466.16
1200.938, 53424.54
1201.420, 53453.91
1201.902, 53572.32
1202.384, 53632.90
1202.866, 53628.15
1203.348, 53621.20
1203.830, 53630.27
1204.312, 53669.72
1204.795, 53806.19
1205.277, 53962.05
1205.759, 54012.68
1206.241, 53911.46
1206.723, 53846.42
1207.205, 53817.59
1207.687, 53821.77
1208.169, 53878.54
1208.651, 53947.62
1209.134, 53983.01
1209.616, 53997.82
1210.098, 54018.15
1210.580, 54058.01
1211.062, 54065.35
1211.544, 54032.62
1212.026, 54007.14
1212.508, 54041.12
1212.990, 54089.60
1213.473, 54099.06
1213.955, 54082.82
1214.437, 54082.25
1214.919, 54112.95
1215.401, 54111.61
1215.883, 54065.89
1216.365, 54031.18
1216.847, 54055.69
1217.330, 54117.66
1217.812, 54192.91
1218.294, 54285.04
1218.776, 54418.15
1219.258, 54621.92
1219.740, 54758.55
1220.222, 54806.63
1220.704, 54805.64
1221.187, 54774.83
1221.669, 54731.48
1222.151, 54689.51
1222.633, 54651.71
1223.115, 54628.39
1223.597, 54629.01
1224.079, 54598.68
1224.561, 54517.67
1225.043, 54447.92
1225.526, 54472.82
1226.008, 54533.67
1226.490, 54567.46
1226.972, 54570.88
1227.454, 54596.74
1227.936, 54654.05
1228.418, 54681.73
1228.900, 54654.34
1229.382, 54631.31
1229.865, 54699.93
1230.347, 54793.84
1230.829, 54829.47
1231.311, 54802.25
1231.793, 54847.88
1232.275, 54983.24
1232.757, 55054.19
1233.239, 54991.13
1233.722, 54912.20
1234.204, 54957.64
1234.686, 55045.39
1235.168, 55089.88
1235.650, 55085.55
1236.132, 55065.78
1236.614, 55029.24
1237.096, 54993.62
1237.578, 54954.99
1238.061, 54944.41
1238.543, 55003.75
1239.025, 55098.58
1239.507, 55210.16
1239.989, 55340.86
1240.471, 55341.95
1240.953, 55210.29
1241.435, 55102.69
1241.917, 55091.82
1242.400, 55128.25
1242.882, 55204.74
1243.364, 55285.95
1243.846, 55327.65
1244.328, 55327.25
1244.810, 55370.00
1245.292, 55454.32
1245.774, 55513.15
1246.257, 55497.26
1246.739, 55472.36
1247.221, 55477.66
1247.703, 55499.60
1248.185, 55518.21
1248.667, 55532.89
1249.149, 55601.38
1249.631, 55715.26
1250.114, 55789.67
1250.596, 55751.29
1251.078, 55694.17
1251.560, 55644.25
1252.042, 55614.24
1252.524, 55623.80
1253.006, 55670.07
1253.488, 55693.73
1253.970, 55697.90
1254.453, 55708.32
1254.935, 55716.68
1255.417, 55764.01
1255.899, 55919.36
1256.381, 56067.29
1256.863, 56088.36
1257.345, 56002.38
1257.827, 55913.51
1258.310, 55830.07
1258.792, 55784.42
1259.274, 55802.99
1259.756, 55852.07
1260.238, 55938.98
1260.720, 56025.49
1261.202, 56070.43
1261.684, 56082.86
1262.167, 56090.79
1262.649, 56094.44
1263.131, 56088.96
1263.613, 56034.96
1264.095, 56033.96
1264.577, 56121.12
1265.059, 56220.10
1265.541, 56233.66
1266.023, 56204.65
1266.505, 56233.06
1266.988, 56307.00
1267.470, 56347.43
1267.952, 56287.60
1268.434, 56275.18
1268.916, 56333.34
1269.398, 56414.66
1269.880, 56491.84
1270.362, 56546.81
1270.845, 56534.94
1271.327, 56471.93
1271.809, 56438.41
1272.291, 56432.36
1272.773, 56492.47
1273.255, 56636.84
1273.737, 56776.32
1274.219, 56804.46
1274.702, 56792.56
1275.184, 56801.51
1275.666, 56836.30
1276.148, 56908.34
1276.630, 57039.48
1277.112, 57057.75
1277.594, 56929.02
1278.076, 56811.50
1278.558, 56864.05
1279.041, 56964.09
1279.523, 57030.62
1280.005, 57062.88
1280.487, 57059.89
1280.969, 57020.41
1281.451, 57023.97
1281.933, 57081.68
1282.415, 57138.89
1282.897, 57159.38
1283.380, 57165.41
1283.862, 57161.48
1284.344, 57156.99
1284.826, 57171.67
1285.308, 57202.72
1285.790, 57228.35
1286.272, 57246.58
1286.754, 57272.80
1287.237, 57341.91
1287.719, 57383.46
1288.201, 57362.25
1288.683, 57320.16
1289.165, 57335.55
1289.647, 57386.85
1290.129, 57406.61
1290.611, 57390.46
1291.094, 57400.95
1291.576, 57490.56
1292.058, 57564.23
1292.540, 57605.19
1293.022, 57619.05
1293.504, 57593.15
1293.986, 57555.43
1294.468, 57552.44
1294.950, 57586.20
1295.432, 57626.10
1295.915, 57670.15
1296.397, 57716.28
1296.879, 57768.30
1297.361, 57805.80
1297.843, 57790.77
1298.325, 57760.20
1298.807, 57754.37
1299.289, 57772.70
1299.772, 57783.92
1300.254, 57787.28
1300.736, 57789.18
1301.218, 57790.16
1301.700, 57794.44
1302.182, 57790.22
1302.664, 57805.07
1303.146, 57882.25
1303.629, 57987.39
1304.111, 58044.00
1304.593, 58055.97
1305.075, 58079.35
1305.557, 58123.34
1306.039, 58127.00
1306.521, 57956.36
1307.003, 57862.73
1307.485, 57978.24
1307.968, 58176.34
1308.450, 58223.82
1308.932, 58162.61
1309.414, 58114.52
1309.896, 58094.62
1310.378, 58091.74
1310.860, 58111.39
1311.342, 58136.06
1311.824, 58165.13
1312.307, 58191.65
1312.789, 58197.46
1313.271, 58198.55
1313.753, 58221.14
1314.235, 58265.57
1314.717, 58318.55
1315.199, 58393.86
1315.681, 58417.05
1316.164, 58367.52
1316.646, 58304.80
1317.128, 58276.28
1317.610, 58275.05
##END=



