##NAMES=Vauxite
##RRUFFID=R070421
##IDEAL CHEMISTRY=Fe^2+^Al_2_(PO_4_)_2_(OH)_2_&#183;6H_2_O
##LOCALITY=Llallagua, Bustillos Province, Potosi, Bolivia
##OWNER=RRUFF
##SOURCE=James Shigley
##DESCRIPTION=Aggregates of pale blue tabular crystals
##STATUS=The identification of this mineral is confirmed by single-crystal X-ray diffraction and chemical analysis.
##URL=rruff.info/R070421
##MEASURED CHEMISTRY=(Fe^2+^_0.98_Mn_0.02_)_Σ=1_Al_2.00_(P_1.00_O_4_)_2_(OH)_2_·5.7H_2_O; OH estimated by charge balance; H_2_O  by difference
167.3124, 6801.756
167.7945, 6899.086
168.2766, 6992.605
168.7587, 7095.077
169.2408, 7212.912
169.7230, 7325.981
170.2051, 7422.350
170.6872, 7507.875
171.1693, 7591.232
171.6514, 7677.814
172.1335, 7764.167
172.6157, 7840.718
173.0978, 7903.676
173.5799, 7964.112
174.0620, 8021.863
174.5441, 8081.879
175.0262, 8153.232
175.5084, 8249.422
175.9905, 8354.689
176.4726, 8424.237
176.9547, 8442.221
177.4368, 8451.627
177.9189, 8467.419
178.4010, 8486.548
178.8832, 8506.908
179.3653, 8531.884
179.8474, 8553.581
180.3295, 8546.599
180.8116, 8495.314
181.2937, 8441.516
181.7759, 8404.119
182.2580, 8370.895
182.7401, 8324.951
183.2222, 8255.087
183.7043, 8172.095
184.1864, 8108.733
184.6686, 8080.988
185.1507, 8045.825
185.6328, 7998.144
186.1149, 7936.378
186.5970, 7853.589
187.0791, 7742.625
187.5613, 7619.967
188.0434, 7528.337
188.5255, 7483.896
189.0076, 7446.334
189.4897, 7407.848
189.9718, 7370.226
190.4540, 7334.732
190.9361, 7302.145
191.4182, 7272.561
191.9003, 7246.256
192.3824, 7223.190
192.8645, 7203.868
193.3467, 7189.806
193.8288, 7178.050
194.3109, 7164.272
194.7930, 7146.634
195.2751, 7129.980
195.7572, 7126.063
196.2394, 7144.223
196.7215, 7157.858
197.2036, 7162.090
197.6857, 7161.943
198.1678, 7160.548
198.6499, 7159.134
199.1321, 7159.110
199.6142, 7162.594
200.0963, 7167.729
200.5784, 7181.103
201.0605, 7210.255
201.5426, 7241.987
202.0248, 7262.782
202.5069, 7270.003
202.9890, 7275.665
203.4711, 7303.525
203.9532, 7376.653
204.4353, 7418.503
204.9175, 7415.748
205.3996, 7393.130
205.8817, 7362.023
206.3638, 7326.922
206.8459, 7292.162
207.3280, 7263.177
207.8102, 7240.689
208.2923, 7223.325
208.7744, 7223.534
209.2565, 7218.781
209.7386, 7191.771
210.2207, 7143.064
210.7029, 7088.627
211.1850, 7044.881
211.6671, 7010.313
212.1492, 6994.089
212.6313, 7015.146
213.1134, 7037.113
213.5956, 7040.653
214.0777, 7026.947
214.5598, 7009.925
215.0419, 7003.025
215.5240, 7007.465
216.0061, 7014.389
216.4883, 7026.458
216.9704, 7038.536
217.4525, 7049.069
217.9346, 7057.980
218.4167, 7065.666
218.8988, 7072.055
219.3810, 7077.047
219.8631, 7084.447
220.3452, 7091.577
220.8273, 7104.073
221.3094, 7124.382
221.7915, 7151.375
222.2737, 7183.818
222.7558, 7222.078
223.2379, 7265.022
223.7200, 7297.067
224.2021, 7308.932
224.6842, 7319.100
225.1664, 7330.375
225.6485, 7342.624
226.1306, 7356.615
226.6127, 7373.686
227.0948, 7390.639
227.5770, 7392.672
228.0591, 7357.777
228.5412, 7337.952
229.0233, 7352.265
229.5054, 7381.548
229.9875, 7404.497
230.4697, 7411.536
230.9518, 7407.243
231.4339, 7402.687
231.9160, 7398.845
232.3981, 7392.854
232.8802, 7382.589
233.3624, 7371.348
233.8445, 7360.756
234.3266, 7351.589
234.8087, 7345.729
235.2908, 7349.122
235.7729, 7372.315
236.2551, 7378.955
236.7372, 7360.822
237.2193, 7331.185
237.7014, 7295.815
238.1835, 7256.993
238.6656, 7217.409
239.1478, 7179.849
239.6299, 7144.081
240.1120, 7111.089
240.5941, 7088.684
241.0762, 7062.735
241.5583, 7016.088
242.0405, 6954.449
242.5226, 6905.521
243.0047, 6902.378
243.4868, 6950.172
243.9689, 6982.016
244.4510, 6991.032
244.9332, 6989.006
245.4153, 6970.110
245.8974, 6942.551
246.3795, 6925.048
246.8616, 6933.148
247.3437, 6964.074
247.8259, 6992.813
248.3080, 7022.950
248.7901, 7045.361
249.2722, 7049.612
249.7543, 7046.144
250.2364, 7052.438
250.7186, 7080.223
251.2007, 7121.328
251.6828, 7149.399
252.1649, 7150.712
252.6470, 7167.926
253.1291, 7225.246
253.6113, 7299.129
254.0934, 7366.251
254.5755, 7418.927
255.0576, 7459.091
255.5397, 7484.528
256.0219, 7487.505
256.5040, 7505.158
256.9861, 7564.649
257.4682, 7633.544
257.9503, 7686.597
258.4324, 7717.969
258.9146, 7748.023
259.3967, 7801.562
259.8788, 7879.982
260.3609, 7952.469
260.8430, 8020.422
261.3251, 8073.511
261.8073, 8095.414
262.2894, 8088.706
262.7715, 8090.965
263.2536, 8142.143
263.7357, 8231.016
264.2178, 8289.020
264.7000, 8295.846
265.1821, 8290.539
265.6642, 8305.429
266.1463, 8333.753
266.6284, 8352.398
267.1105, 8332.639
267.5927, 8299.038
268.0748, 8311.135
268.5569, 8383.907
269.0390, 8457.740
269.5211, 8488.064
270.0032, 8491.408
270.4854, 8493.224
270.9675, 8501.447
271.4496, 8509.632
271.9317, 8506.026
272.4138, 8490.018
272.8959, 8483.633
273.3781, 8497.805
273.8602, 8529.804
274.3423, 8573.125
274.8244, 8635.998
275.3065, 8694.883
275.7886, 8726.356
276.2708, 8738.190
276.7529, 8764.690
277.2350, 8823.168
277.7171, 8894.786
278.1992, 8951.387
278.6813, 8995.265
279.1635, 9020.966
279.6456, 9015.843
280.1277, 8993.444
280.6098, 8978.498
281.0919, 8977.559
281.5740, 8977.771
282.0562, 8969.143
282.5383, 8953.616
283.0204, 8904.926
283.5025, 8790.335
283.9846, 8660.051
284.4667, 8562.873
284.9489, 8500.876
285.4310, 8439.793
285.9131, 8351.992
286.3952, 8237.524
286.8773, 8126.014
287.3594, 8005.766
287.8416, 7899.151
288.3237, 7824.865
288.8058, 7773.573
289.2879, 7720.187
289.7700, 7649.720
290.2521, 7568.344
290.7343, 7503.729
291.2164, 7460.875
291.6985, 7427.027
292.1806, 7411.458
292.6627, 7399.982
293.1448, 7373.299
293.6270, 7324.844
294.1091, 7265.187
294.5912, 7212.973
295.0733, 7170.086
295.5554, 7131.979
296.0375, 7093.859
296.5197, 7063.674
297.0018, 7050.186
297.4839, 7052.424
297.9660, 7060.843
298.4481, 7066.613
298.9302, 7070.340
299.4124, 7066.756
299.8945, 7039.745
300.3766, 7021.667
300.8587, 7026.137
301.3408, 7048.409
301.8229, 7078.642
302.3050, 7112.527
302.7871, 7146.850
303.2693, 7163.935
303.7514, 7148.823
304.2335, 7137.916
304.7156, 7142.506
305.1977, 7153.055
305.6798, 7156.177
306.1620, 7146.431
306.6441, 7137.647
307.1262, 7154.957
307.6083, 7205.276
308.0904, 7255.708
308.5725, 7305.114
309.0547, 7349.521
309.5368, 7381.962
310.0189, 7403.437
310.5010, 7426.556
310.9831, 7463.293
311.4652, 7512.539
311.9474, 7561.735
312.4295, 7610.408
312.9116, 7658.140
313.3937, 7699.703
313.8758, 7739.760
314.3579, 7790.672
314.8401, 7865.697
315.3222, 7951.644
315.8043, 8023.666
316.2864, 8079.103
316.7685, 8135.516
317.2506, 8199.546
317.7328, 8271.266
318.2149, 8351.026
318.6970, 8440.920
319.1791, 8534.496
319.6612, 8627.188
320.1433, 8718.987
320.6255, 8811.338
321.1076, 8903.499
321.5897, 8997.313
322.0718, 9098.834
322.5539, 9209.041
323.0360, 9316.023
323.5182, 9412.301
324.0003, 9505.649
324.4824, 9607.782
324.9645, 9721.033
325.4466, 9835.697
325.9287, 9943.072
326.4109, 10042.28
326.8930, 10139.02
327.3751, 10242.49
327.8572, 10335.77
328.3393, 10415.35
328.8214, 10477.72
329.3036, 10514.17
329.7857, 10519.21
330.2678, 10495.75
330.7499, 10456.73
331.2320, 10413.98
331.7141, 10340.25
332.1963, 10220.87
332.6784, 10074.22
333.1605, 9914.585
333.6426, 9748.157
334.1247, 9581.335
334.6068, 9424.555
335.0890, 9288.594
335.5711, 9134.411
336.0532, 8927.757
336.5353, 8735.371
337.0174, 8603.693
337.4995, 8520.980
337.9817, 8438.849
338.4638, 8315.145
338.9459, 8157.571
339.4280, 8036.198
339.9101, 7967.332
340.3922, 7914.513
340.8744, 7873.409
341.3565, 7837.331
341.8386, 7796.755
342.3207, 7746.725
342.8028, 7696.894
343.2849, 7662.049
343.7671, 7643.520
344.2492, 7630.985
344.7313, 7631.836
345.2134, 7629.696
345.6955, 7607.637
346.1776, 7565.533
346.6598, 7526.222
347.1419, 7505.974
347.6240, 7499.475
348.1061, 7493.292
348.5882, 7487.431
349.0703, 7477.720
349.5525, 7457.963
350.0346, 7431.291
350.5167, 7406.895
350.9988, 7385.088
351.4809, 7367.042
351.9630, 7354.445
352.4452, 7346.695
352.9273, 7340.049
353.4094, 7331.600
353.8915, 7324.492
354.3736, 7328.187
354.8557, 7345.535
355.3379, 7364.674
355.8200, 7383.992
356.3021, 7403.273
356.7842, 7421.927
357.2663, 7439.939
357.7484, 7457.042
358.2306, 7471.332
358.7127, 7479.471
359.1948, 7505.627
359.6769, 7564.631
360.1590, 7623.950
360.6411, 7670.899
361.1233, 7706.656
361.6054, 7735.019
362.0875, 7757.524
362.5696, 7777.294
363.0517, 7806.575
363.5338, 7854.574
364.0160, 7897.386
364.4981, 7929.442
364.9802, 7957.470
365.4623, 7985.820
365.9444, 8015.805
366.4265, 8048.718
366.9087, 8085.788
367.3908, 8127.394
367.8729, 8172.021
368.3550, 8223.251
368.8371, 8273.361
369.3192, 8322.045
369.8014, 8367.028
370.2835, 8402.949
370.7656, 8427.131
371.2477, 8441.048
371.7298, 8443.813
372.2119, 8434.032
372.6941, 8427.108
373.1762, 8435.354
373.6583, 8446.259
374.1404, 8443.259
374.6225, 8426.397
375.1046, 8393.723
375.5868, 8337.166
376.0689, 8265.410
376.5510, 8196.448
377.0331, 8134.423
377.5152, 8071.094
377.9973, 7995.746
378.4795, 7906.904
378.9616, 7828.575
379.4437, 7772.000
379.9258, 7716.398
380.4079, 7646.044
380.8900, 7566.354
381.3722, 7494.646
381.8543, 7440.549
382.3364, 7399.780
382.8185, 7358.250
383.3006, 7296.779
383.7827, 7262.109
384.2649, 7286.141
384.7470, 7316.896
385.2291, 7303.743
385.7112, 7243.968
386.1933, 7180.187
386.6754, 7160.225
387.1576, 7187.266
387.6397, 7197.872
388.1218, 7175.353
388.6039, 7155.121
389.0860, 7147.419
389.5681, 7149.763
390.0503, 7158.257
390.5324, 7172.030
391.0145, 7189.042
391.4966, 7209.062
391.9787, 7233.355
392.4608, 7246.260
392.9430, 7227.408
393.4251, 7210.646
393.9072, 7232.132
394.3893, 7291.806
394.8714, 7349.654
395.3535, 7391.210
395.8357, 7416.753
396.3178, 7420.501
396.7999, 7400.518
397.2820, 7383.850
397.7641, 7391.416
398.2462, 7418.545
398.7284, 7437.230
399.2105, 7440.081
399.6926, 7442.809
400.1747, 7457.172
400.6568, 7474.073
401.1389, 7478.001
401.6211, 7463.791
402.1032, 7437.704
402.5853, 7407.764
403.0674, 7371.011
403.5495, 7340.108
404.0316, 7336.316
404.5138, 7317.728
404.9959, 7247.364
405.4780, 7143.494
405.9601, 7052.434
406.4422, 7003.576
406.9243, 6988.733
407.4065, 6983.222
407.8886, 6999.840
408.3707, 6998.863
408.8528, 6958.123
409.3349, 6907.845
409.8170, 6869.050
410.2992, 6845.621
410.7813, 6833.236
411.2634, 6833.753
411.7455, 6843.820
412.2276, 6846.674
412.7097, 6841.558
413.1919, 6828.403
413.6740, 6798.391
414.1561, 6760.770
414.6382, 6735.349
415.1203, 6730.220
415.6024, 6732.640
416.0846, 6735.950
416.5667, 6739.504
417.0488, 6741.552
417.5309, 6741.713
418.0130, 6739.226
418.4951, 6731.919
418.9773, 6716.759
419.4594, 6707.625
419.9415, 6711.183
420.4236, 6715.888
420.9057, 6711.971
421.3878, 6701.828
421.8700, 6695.662
422.3521, 6700.778
422.8342, 6713.379
423.3163, 6716.376
423.7984, 6697.448
424.2805, 6688.354
424.7627, 6698.348
425.2448, 6714.479
425.7269, 6729.367
426.2090, 6740.426
426.6911, 6744.190
427.1732, 6733.715
427.6554, 6710.537
428.1375, 6692.617
428.6196, 6675.793
429.1017, 6672.677
429.5838, 6700.678
430.0659, 6743.193
430.5481, 6775.801
431.0302, 6791.271
431.5123, 6799.035
431.9944, 6804.613
432.4765, 6808.580
432.9586, 6813.295
433.4408, 6819.721
433.9229, 6825.599
434.4050, 6825.730
434.8871, 6818.637
435.3692, 6824.600
435.8513, 6853.269
436.3335, 6887.607
436.8156, 6922.788
437.2977, 6955.124
437.7798, 6977.570
438.2619, 6986.188
438.7440, 6984.660
439.2262, 6981.474
439.7083, 6970.624
440.1904, 6969.343
440.6725, 6977.262
441.1546, 6993.993
441.6367, 7029.086
442.1189, 7075.028
442.6010, 7107.186
443.0831, 7102.451
443.5652, 7071.086
444.0473, 7051.414
444.5294, 7043.398
445.0116, 7047.297
445.4937, 7074.725
445.9758, 7108.522
446.4579, 7131.664
446.9400, 7141.051
447.4221, 7147.238
447.9043, 7155.456
448.3864, 7165.271
448.8685, 7178.232
449.3506, 7195.295
449.8327, 7204.705
450.3148, 7192.096
450.7970, 7161.611
451.2791, 7153.739
451.7612, 7194.083
452.2433, 7225.473
452.7254, 7221.512
453.2076, 7200.067
453.6897, 7186.438
454.1718, 7187.818
454.6539, 7193.779
455.1360, 7189.511
455.6181, 7171.042
456.1003, 7164.893
456.5824, 7193.003
457.0645, 7211.093
457.5466, 7195.968
458.0287, 7164.195
458.5108, 7142.641
458.9930, 7142.933
459.4751, 7155.754
459.9572, 7171.044
460.4393, 7188.870
460.9214, 7200.407
461.4035, 7201.293
461.8857, 7198.947
462.3678, 7203.569
462.8499, 7212.531
463.3320, 7210.351
463.8141, 7182.024
464.2962, 7149.257
464.7784, 7131.332
465.2605, 7126.014
465.7426, 7124.174
466.2247, 7122.806
466.7068, 7119.347
467.1889, 7107.780
467.6711, 7076.587
468.1532, 7062.600
468.6353, 7085.639
469.1174, 7108.369
469.5995, 7105.178
470.0816, 7080.817
470.5638, 7054.447
471.0459, 7037.910
471.5280, 7027.945
472.0101, 7013.045
472.4922, 6987.708
472.9743, 6972.794
473.4565, 6988.537
473.9386, 7004.865
474.4207, 6996.147
474.9028, 6964.622
475.3849, 6941.827
475.8670, 6948.311
476.3492, 6973.983
476.8313, 7009.229
477.3134, 7053.861
477.7955, 7079.851
478.2776, 7063.917
478.7597, 7028.060
479.2419, 7027.864
479.7240, 7075.035
480.2061, 7121.583
480.6882, 7161.613
481.1703, 7195.005
481.6524, 7221.394
482.1346, 7240.965
482.6167, 7252.644
483.0988, 7253.751
483.5809, 7248.517
484.0630, 7261.253
484.5451, 7302.875
485.0273, 7345.358
485.5094, 7388.645
485.9915, 7428.335
486.4736, 7454.295
486.9557, 7468.942
487.4378, 7493.722
487.9200, 7557.545
488.4021, 7643.874
488.8842, 7700.151
489.3663, 7722.085
489.8484, 7735.216
490.3305, 7744.884
490.8127, 7757.640
491.2948, 7787.629
491.7769, 7843.163
492.2590, 7891.783
492.7411, 7924.544
493.2232, 7943.227
493.7054, 7942.400
494.1875, 7925.607
494.6696, 7914.780
495.1517, 7928.397
495.6338, 7961.117
496.1159, 7978.868
496.5981, 7981.360
497.0802, 7967.339
497.5623, 7932.853
498.0444, 7885.404
498.5265, 7825.958
499.0086, 7757.761
499.4908, 7692.723
499.9729, 7643.360
500.4550, 7604.813
500.9371, 7559.223
501.4192, 7505.214
501.9013, 7449.073
502.3835, 7387.508
502.8656, 7328.986
503.3477, 7289.975
503.8298, 7277.994
504.3119, 7255.351
504.7940, 7195.088
505.2762, 7124.202
505.7583, 7072.672
506.2404, 7042.705
506.7225, 7026.401
507.2046, 7019.697
507.6867, 7020.429
508.1689, 7019.363
508.6510, 7018.208
509.1331, 7012.348
509.6152, 6988.632
510.0973, 6970.205
510.5794, 6978.332
511.0616, 7010.106
511.5437, 7044.161
512.0258, 7064.853
512.5079, 7076.970
512.9901, 7092.435
513.4722, 7110.619
513.9543, 7136.383
514.4364, 7178.548
514.9185, 7222.934
515.4006, 7244.735
515.8828, 7240.465
516.3649, 7258.341
516.8470, 7323.943
517.3291, 7409.848
517.8112, 7497.100
518.2933, 7582.506
518.7755, 7663.380
519.2576, 7737.496
519.7397, 7808.171
520.2218, 7883.672
520.7039, 7970.641
521.1860, 8050.076
521.6682, 8105.948
522.1503, 8169.848
522.6324, 8261.300
523.1145, 8375.256
523.5966, 8494.066
524.0787, 8608.620
524.5609, 8724.477
525.0430, 8850.804
525.5251, 8987.570
526.0072, 9129.917
526.4893, 9277.961
526.9714, 9429.540
527.4536, 9587.127
527.9357, 9749.351
528.4178, 9894.253
528.8999, 9992.229
529.3820, 10098.54
529.8641, 10263.98
530.3463, 10458.29
530.8284, 10621.35
531.3105, 10733.35
531.7926, 10814.07
532.2747, 10894.96
532.7568, 10985.35
533.2390, 11018.79
533.7211, 10958.05
534.2032, 10879.97
534.6853, 10809.29
535.1674, 10735.03
535.6495, 10645.43
536.1317, 10538.44
536.6138, 10399.06
537.0959, 10201.56
537.5780, 9960.394
538.0601, 9721.931
538.5422, 9493.135
539.0244, 9262.879
539.5065, 9018.746
539.9886, 8768.857
540.4707, 8557.262
540.9528, 8393.720
541.4349, 8247.479
541.9171, 8117.814
542.3992, 7999.245
542.8813, 7887.357
543.3634, 7780.751
543.8455, 7678.143
544.3276, 7576.804
544.8098, 7479.992
545.2919, 7403.653
545.7740, 7353.927
546.2561, 7308.081
546.7382, 7261.888
547.2203, 7216.861
547.7025, 7174.480
548.1846, 7134.646
548.6666, 7094.744
549.1487, 7045.529
549.6309, 7001.763
550.1130, 6984.709
550.5951, 6989.179
551.0772, 6992.783
551.5593, 6986.810
552.0414, 6974.664
552.5236, 6961.436
553.0057, 6946.260
553.4878, 6932.843
553.9699, 6919.477
554.4520, 6909.329
554.9341, 6902.886
555.4163, 6900.731
555.8984, 6905.306
556.3805, 6917.745
556.8626, 6930.487
557.3447, 6933.290
557.8268, 6927.454
558.3090, 6923.854
558.7911, 6924.157
559.2732, 6924.641
559.7553, 6923.880
560.2374, 6921.167
560.7195, 6913.738
561.2017, 6889.965
561.6838, 6881.760
562.1659, 6912.654
562.6480, 6955.796
563.1301, 6983.576
563.6122, 6993.603
564.0944, 6998.454
564.5765, 7008.104
565.0586, 7018.452
565.5407, 7011.358
566.0228, 6976.963
566.5049, 6950.106
566.9871, 6946.212
567.4692, 6943.977
567.9513, 6928.098
568.4334, 6901.109
568.9155, 6877.347
569.3976, 6860.334
569.8798, 6851.322
570.3619, 6858.824
570.8440, 6876.176
571.3261, 6878.312
571.8082, 6856.508
572.2903, 6828.330
572.7725, 6815.785
573.2546, 6821.408
573.7367, 6818.221
574.2188, 6800.736
574.7009, 6781.405
575.1830, 6761.160
575.6652, 6741.815
576.1473, 6724.428
576.6294, 6709.454
577.1115, 6698.246
577.5936, 6695.288
578.0757, 6697.025
578.5579, 6689.827
579.0400, 6672.292
579.5221, 6657.445
580.0042, 6654.518
580.4863, 6654.852
580.9684, 6638.169
581.4506, 6597.254
581.9327, 6571.774
582.4148, 6578.708
582.8969, 6592.429
583.3790, 6598.388
583.8611, 6597.255
584.3433, 6592.628
584.8254, 6586.086
585.3075, 6580.695
585.7896, 6582.565
586.2717, 6592.589
586.7538, 6599.318
587.2360, 6601.467
587.7181, 6601.555
588.2002, 6599.385
588.6823, 6596.547
589.1644, 6595.747
589.6465, 6597.703
590.1287, 6600.731
590.6108, 6608.908
591.0929, 6615.058
591.5750, 6605.967
592.0571, 6583.606
592.5392, 6565.212
593.0214, 6562.897
593.5035, 6570.763
593.9856, 6568.851
594.4677, 6546.794
594.9498, 6539.667
595.4319, 6564.471
595.9141, 6592.207
596.3962, 6605.909
596.8783, 6611.093
597.3604, 6624.521
597.8425, 6658.112
598.3246, 6690.439
598.8068, 6699.396
599.2889, 6692.268
599.7710, 6685.798
600.2531, 6683.167
600.7352, 6687.268
601.2173, 6701.160
601.6995, 6723.920
602.1816, 6748.161
602.6637, 6783.512
603.1458, 6806.640
603.6279, 6799.469
604.1100, 6792.508
604.5922, 6815.025
605.0743, 6861.113
605.5564, 6897.498
606.0385, 6897.860
606.5206, 6888.290
607.0027, 6914.938
607.4849, 6972.085
607.9670, 7010.126
608.4491, 7012.355
608.9312, 7011.056
609.4133, 7041.167
609.8954, 7102.901
610.3776, 7148.457
610.8597, 7171.564
611.3418, 7187.994
611.8239, 7190.563
612.3060, 7194.999
612.7881, 7220.691
613.2703, 7266.670
613.7524, 7313.379
614.2345, 7348.806
614.7166, 7372.232
615.1987, 7376.513
615.6808, 7360.404
616.1630, 7353.820
616.6451, 7367.459
617.1272, 7389.827
617.6093, 7408.138
618.0914, 7422.345
618.5735, 7441.529
619.0557, 7486.203
619.5378, 7512.609
620.0199, 7489.343
620.5020, 7445.438
620.9841, 7418.780
621.4662, 7415.333
621.9484, 7412.676
622.4305, 7387.834
622.9126, 7348.836
623.3947, 7330.385
623.8768, 7336.865
624.3589, 7338.905
624.8411, 7330.249
625.3232, 7310.466
625.8053, 7272.161
626.2874, 7216.596
626.7695, 7175.526
627.2516, 7157.054
627.7338, 7150.135
628.2159, 7158.913
628.6980, 7172.050
629.1801, 7173.094
629.6622, 7158.737
630.1443, 7137.550
630.6265, 7116.109
631.1086, 7095.333
631.5907, 7082.012
632.0728, 7079.607
632.5549, 7069.963
633.0370, 7038.313
633.5192, 7006.068
634.0013, 7003.717
634.4834, 7029.101
634.9655, 7036.552
635.4476, 6997.598
635.9297, 6958.961
636.4119, 6950.525
636.8940, 6958.251
637.3761, 6959.000
637.8582, 6947.545
638.3403, 6934.196
638.8224, 6928.085
639.3046, 6929.227
639.7867, 6941.560
640.2688, 6972.638
640.7509, 6987.952
641.2330, 6973.380
641.7151, 6942.669
642.1973, 6904.180
642.6794, 6859.305
643.1615, 6827.938
643.6436, 6830.091
644.1257, 6829.737
644.6078, 6800.342
645.0900, 6758.294
645.5721, 6730.485
646.0542, 6721.601
646.5363, 6715.904
647.0184, 6699.579
647.5005, 6673.932
647.9827, 6644.731
648.4648, 6612.331
648.9469, 6574.642
649.4290, 6522.502
649.9111, 6474.451
650.3932, 6450.046
650.8754, 6446.442
651.3575, 6444.061
651.8396, 6455.389
652.3217, 6449.358
652.8038, 6396.699
653.2859, 6325.076
653.7681, 6268.578
654.2502, 6233.951
654.7323, 6213.931
655.2144, 6205.700
655.6965, 6203.486
656.1786, 6186.364
656.6608, 6151.277
657.1429, 6120.742
657.6250, 6103.521
658.1071, 6086.410
658.5892, 6052.047
659.0714, 6006.075
659.5535, 5975.268
660.0356, 5978.604
660.5177, 5976.660
660.9998, 5955.195
661.4819, 5922.417
661.9641, 5877.819
662.4462, 5828.721
662.9283, 5797.106
663.4104, 5799.616
663.8925, 5822.869
664.3746, 5844.952
664.8568, 5866.616
665.3389, 5857.562
665.8210, 5800.496
666.3031, 5742.081
666.7852, 5719.457
667.2673, 5724.395
667.7495, 5718.536
668.2316, 5695.240
668.7137, 5672.146
669.1958, 5647.003
669.6779, 5627.947
670.1600, 5625.945
670.6422, 5635.470
671.1243, 5641.002
671.6064, 5634.754
672.0885, 5622.295
672.5706, 5608.053
673.0527, 5593.367
673.5349, 5589.787
674.0170, 5600.182
674.4991, 5611.911
674.9812, 5620.348
675.4633, 5622.816
675.9454, 5610.733
676.4276, 5570.404
676.9097, 5545.567
677.3918, 5545.629
677.8739, 5552.952
678.3560, 5563.143
678.8381, 5572.671
679.3203, 5577.154
679.8024, 5575.194
680.2845, 5569.584
680.7666, 5559.912
681.2487, 5549.289
681.7308, 5546.038
682.2130, 5550.182
682.6951, 5556.196
683.1772, 5562.428
683.6593, 5567.123
684.1414, 5567.856
684.6235, 5564.917
685.1057, 5556.396
685.5878, 5539.859
686.0699, 5520.411
686.5520, 5490.966
687.0341, 5464.224
687.5162, 5457.896
687.9984, 5471.862
688.4805, 5481.222
688.9626, 5461.883
689.4447, 5438.365
689.9268, 5442.099
690.4089, 5464.949
690.8911, 5484.173
691.3732, 5493.379
691.8553, 5493.650
692.3374, 5483.857
692.8195, 5466.417
693.3016, 5464.116
693.7838, 5485.040
694.2659, 5503.429
694.7480, 5522.369
695.2301, 5529.972
695.7122, 5511.799
696.1943, 5474.524
696.6765, 5442.779
697.1586, 5417.415
697.6407, 5406.644
698.1228, 5428.110
698.6049, 5459.233
699.0870, 5470.040
699.5692, 5460.571
700.0513, 5449.845
700.5334, 5449.655
701.0155, 5454.466
701.4976, 5450.551
701.9797, 5436.954
702.4619, 5436.573
702.9440, 5457.765
703.4261, 5476.104
703.9082, 5477.908
704.3903, 5466.614
704.8724, 5448.456
705.3546, 5415.972
705.8367, 5398.264
706.3188, 5409.635
706.8009, 5426.435
707.2830, 5436.756
707.7651, 5441.939
708.2473, 5446.629
708.7294, 5452.097
709.2115, 5454.100
709.6936, 5445.151
710.1757, 5430.528
710.6578, 5423.563
711.1400, 5424.204
711.6221, 5430.378
712.1042, 5443.501
712.5863, 5452.217
713.0684, 5439.602
713.5505, 5403.865
714.0327, 5385.143
714.5148, 5396.655
714.9969, 5407.616
715.4790, 5415.484
715.9611, 5419.252
716.4432, 5414.073
716.9254, 5403.105
717.4075, 5399.774
717.8896, 5412.684
718.3717, 5430.438
718.8538, 5448.052
719.3359, 5462.770
719.8181, 5468.282
720.3002, 5464.922
720.7823, 5459.391
721.2644, 5455.747
721.7465, 5454.718
722.2286, 5459.477
722.7108, 5471.598
723.1929, 5478.428
723.6750, 5477.632
724.1571, 5474.365
724.6392, 5473.815
725.1213, 5471.653
725.6035, 5457.114
726.0856, 5423.346
726.5677, 5401.508
727.0498, 5403.648
727.5319, 5412.636
728.0140, 5423.653
728.4962, 5432.529
728.9783, 5434.081
729.4604, 5427.007
729.9425, 5413.816
730.4246, 5390.397
730.9067, 5365.100
731.3889, 5361.347
731.8710, 5376.449
732.3531, 5383.426
732.8352, 5373.347
733.3173, 5360.017
733.7994, 5356.632
734.2816, 5362.999
734.7637, 5377.835
735.2458, 5421.126
735.7279, 5439.062
736.2100, 5402.148
736.6921, 5360.940
737.1743, 5343.912
737.6564, 5347.954
738.1385, 5362.295
738.6206, 5391.032
739.1027, 5412.542
739.5848, 5411.937
740.0670, 5399.477
740.5491, 5385.463
741.0312, 5370.796
741.5133, 5350.723
741.9954, 5323.057
742.4775, 5300.161
742.9597, 5305.152
743.4418, 5335.213
743.9239, 5348.891
744.4060, 5342.656
744.8881, 5337.146
745.3702, 5341.007
745.8524, 5348.263
746.3345, 5350.364
746.8166, 5346.369
747.2987, 5346.268
747.7808, 5358.125
748.2629, 5363.240
748.7451, 5352.072
749.2272, 5336.170
749.7093, 5326.251
750.1914, 5321.809
750.6735, 5315.628
751.1556, 5303.785
751.6378, 5290.081
752.1199, 5270.603
752.6020, 5254.350
753.0841, 5265.505
753.5662, 5301.777
754.0483, 5332.677
754.5305, 5340.606
755.0126, 5330.704
755.4947, 5307.087
755.9768, 5266.040
756.4589, 5249.226
756.9410, 5266.638
757.4232, 5285.170
757.9053, 5292.860
758.3874, 5292.152
758.8695, 5283.432
759.3516, 5265.025
759.8337, 5256.869
760.3159, 5267.857
760.7980, 5280.622
761.2801, 5294.554
761.7622, 5303.131
762.2443, 5294.194
762.7264, 5248.259
763.2086, 5276.289
763.6907, 5291.446
764.1728, 5294.421
764.6549, 5248.732
765.1370, 5265.884
765.6191, 5257.852
766.1013, 5248.787
766.5834, 5274.783
767.0655, 5236.172
767.5476, 5261.612
768.0297, 5261.484
768.5118, 5273.058
768.9940, 5259.292
769.4761, 5253.354
769.9582, 5272.762
770.4403, 5278.136
770.9224, 5261.454
771.4045, 5273.771
771.8867, 5234.275
772.3688, 5240.247
772.8509, 5265.835
773.3330, 5250.427
773.8151, 5263.208
774.2972, 5265.253
774.7794, 5218.507
775.2615, 5256.614
775.7436, 5258.024
776.2257, 5221.757
776.7078, 5256.955
777.1899, 5225.882
777.6721, 5218.463
778.1542, 5228.847
778.6363, 5220.673
779.1184, 5241.758
779.6005, 5234.655
780.0826, 5225.035
780.5648, 5226.403
781.0469, 5196.630
781.5290, 5224.633
782.0111, 5213.170
782.4932, 5221.324
782.9753, 5233.926
783.4575, 5212.479
783.9396, 5227.078
784.4217, 5185.778
784.9038, 5191.251
785.3859, 5191.688
785.8680, 5222.021
786.3502, 5180.993
786.8323, 5185.167
787.3144, 5208.586
787.7965, 5205.076
788.2786, 5212.825
788.7607, 5187.242
789.2429, 5192.972
789.7250, 5190.071
790.2071, 5216.995
790.6892, 5220.374
791.1713, 5195.356
791.6534, 5170.460
792.1356, 5199.530
792.6177, 5177.450
793.0998, 5182.965
793.5819, 5159.979
794.0640, 5161.602
794.5461, 5162.834
795.0283, 5176.681
795.5104, 5152.277
795.9925, 5177.491
796.4746, 5174.027
796.9567, 5179.010
797.4388, 5183.054
797.9210, 5148.615
798.4031, 5145.723
798.8852, 5157.624
799.3673, 5143.401
799.8494, 5149.687
800.3315, 5163.631
800.8137, 5155.379
801.2958, 5113.568
801.7779, 5082.682
802.2600, 5092.870
802.7421, 5116.860
803.2242, 5137.001
803.7064, 5150.017
804.1885, 5149.694
804.6706, 5136.371
805.1527, 5122.879
805.6348, 5120.925
806.1169, 5124.714
806.5991, 5119.745
807.0812, 5107.904
807.5633, 5105.993
808.0454, 5117.642
808.5275, 5125.144
809.0096, 5114.906
809.4918, 5096.532
809.9739, 5096.654
810.4560, 5125.394
810.9381, 5134.613
811.4202, 5111.793
811.9023, 5074.950
812.3845, 5093.214
812.8666, 5102.897
813.3487, 5104.458
813.8308, 5073.577
814.3129, 5084.589
814.7950, 5078.812
815.2772, 5072.347
815.7593, 5089.256
816.2414, 5063.093
816.7235, 5079.631
817.2056, 5079.124
817.6877, 5086.417
818.1699, 5076.818
818.6520, 5072.438
819.1341, 5084.954
819.6162, 5088.114
820.0983, 5076.571
820.5804, 5084.361
821.0626, 5057.608
821.5447, 5061.167
822.0268, 5077.803
822.5089, 5067.109
822.9910, 5075.208
823.4731, 5076.149
823.9553, 5044.563
824.4374, 5069.545
824.9195, 5070.064
825.4016, 5045.463
825.8837, 5050.735
826.3658, 5042.508
826.8480, 5045.314
827.3301, 5068.052
827.8122, 5081.294
828.2943, 5082.397
828.7764, 5077.004
829.2585, 5061.058
829.7407, 5043.435
830.2228, 5034.225
830.7049, 5034.056
831.1870, 5039.186
831.6691, 5055.120
832.1512, 5068.367
832.6334, 5074.400
833.1155, 5074.006
833.5976, 5066.022
834.0797, 5052.510
834.5618, 5037.856
835.0439, 5023.096
835.5261, 5012.839
836.0082, 5012.400
836.4903, 5018.645
836.9724, 5031.208
837.4545, 5046.007
837.9366, 5045.937
838.4188, 5026.415
838.9009, 5010.512
839.3830, 5025.786
839.8651, 5061.380
840.3472, 5077.979
840.8293, 5075.375
841.3115, 5059.889
841.7936, 5027.438
842.2757, 5009.165
842.7578, 5030.377
843.2399, 5074.836
843.7220, 5102.224
844.2042, 5110.146
844.6863, 5108.298
845.1684, 5087.634
845.6505, 5070.702
846.1326, 5070.686
846.6147, 5073.903
847.0969, 5060.830
847.5790, 5034.195
848.0611, 5029.251
848.5432, 5076.354
849.0253, 5111.030
849.5074, 5106.981
849.9896, 5091.961
850.4717, 5084.497
850.9538, 5084.119
851.4359, 5085.631
851.9180, 5087.532
852.4001, 5089.809
852.8823, 5091.935
853.3644, 5094.896
853.8465, 5101.318
854.3286, 5108.936
854.8107, 5109.974
855.2928, 5105.201
855.7750, 5110.614
856.2571, 5142.558
856.7392, 5177.641
857.2213, 5166.734
857.7034, 5121.683
858.1855, 5094.114
858.6677, 5088.978
859.1498, 5096.352
859.6319, 5112.480
860.1140, 5133.175
860.5961, 5153.957
861.0782, 5174.397
861.5604, 5184.814
862.0425, 5182.768
862.5246, 5180.516
863.0067, 5182.122
863.4888, 5181.146
863.9709, 5170.581
864.4531, 5153.896
864.9352, 5143.753
865.4173, 5141.602
865.8994, 5143.003
866.3815, 5140.085
866.8636, 5149.948
867.3458, 5195.121
867.8279, 5245.679
868.3100, 5265.643
868.7921, 5254.514
869.2742, 5242.374
869.7563, 5231.296
870.2385, 5227.769
870.7206, 5238.211
871.2027, 5254.074
871.6848, 5271.977
872.1669, 5288.034
872.6490, 5292.772
873.1312, 5282.348
873.6133, 5277.931
874.0954, 5303.864
874.5775, 5336.310
875.0596, 5352.786
875.5417, 5353.656
876.0239, 5329.403
876.5060, 5287.018
876.9881, 5270.793
877.4702, 5314.750
877.9523, 5383.420
878.4344, 5424.599
878.9166, 5441.446
879.3987, 5438.615
879.8808, 5419.173
880.3629, 5411.375
880.8450, 5426.988
881.3271, 5453.103
881.8093, 5476.169
882.2914, 5495.461
882.7735, 5504.892
883.2556, 5502.841
883.7377, 5503.096
884.2198, 5508.733
884.7020, 5513.510
885.1841, 5511.323
885.6662, 5507.970
886.1483, 5516.206
886.6304, 5537.310
887.1125, 5564.781
887.5947, 5607.892
888.0768, 5642.245
888.5589, 5659.970
889.0410, 5667.613
889.5231, 5664.084
890.0052, 5654.182
890.4874, 5660.476
890.9695, 5696.848
891.4516, 5726.892
891.9337, 5743.969
892.4158, 5755.556
892.8979, 5765.721
893.3801, 5772.887
893.8622, 5769.615
894.3443, 5757.031
894.8264, 5758.247
895.3085, 5800.628
895.7906, 5837.024
896.2728, 5832.951
896.7549, 5817.518
897.2370, 5821.596
897.7191, 5841.177
898.2012, 5858.637
898.6833, 5867.705
899.1655, 5870.942
899.6476, 5865.897
900.1297, 5859.649
900.6118, 5867.186
901.0939, 5878.456
901.5760, 5863.313
902.0582, 5824.140
902.5403, 5804.281
903.0224, 5833.419
903.5045, 5878.241
903.9866, 5892.880
904.4688, 5882.953
904.9509, 5858.981
905.4330, 5824.763
905.9151, 5802.852
906.3972, 5800.521
906.8793, 5803.899
907.3615, 5798.506
907.8436, 5790.627
908.3257, 5808.069
908.8078, 5851.210
909.2899, 5860.087
909.7720, 5823.770
910.2542, 5789.687
910.7363, 5782.125
911.2184, 5784.114
911.7005, 5770.080
912.1826, 5740.354
912.6647, 5725.111
913.1469, 5736.919
913.6290, 5719.886
914.1111, 5645.216
914.5932, 5576.274
915.0753, 5555.781
915.5574, 5569.011
916.0396, 5584.507
916.5217, 5607.350
917.0038, 5613.051
917.4859, 5585.256
917.9680, 5563.484
918.4501, 5565.601
918.9323, 5569.508
919.4144, 5557.952
919.8965, 5533.558
920.3786, 5505.495
920.8607, 5464.325
921.3428, 5441.894
921.8250, 5453.627
922.3071, 5472.465
922.7892, 5501.617
923.2713, 5520.981
923.7534, 5495.649
924.2355, 5432.504
924.7177, 5394.314
925.1998, 5415.768
925.6819, 5438.614
926.1640, 5434.349
926.6461, 5426.749
927.1282, 5438.763
927.6104, 5459.559
928.0925, 5466.820
928.5746, 5456.706
929.0567, 5447.543
929.5388, 5455.510
930.0209, 5461.246
930.5031, 5445.290
930.9852, 5422.119
931.4673, 5404.595
931.9494, 5397.098
932.4315, 5410.285
932.9136, 5447.350
933.3958, 5476.613
933.8779, 5461.303
934.3600, 5430.509
934.8421, 5420.540
935.3242, 5424.352
935.8063, 5425.876
936.2885, 5424.714
936.7706, 5434.935
937.2527, 5464.874
937.7348, 5494.030
938.2169, 5495.797
938.6990, 5478.872
939.1812, 5455.175
939.6633, 5430.621
940.1454, 5431.785
940.6275, 5461.654
941.1096, 5487.455
941.5917, 5485.121
942.0739, 5470.743
942.5560, 5474.509
943.0381, 5492.352
943.5202, 5501.999
944.0023, 5503.319
944.4844, 5507.439
944.9666, 5517.776
945.4487, 5531.581
945.9308, 5546.114
946.4129, 5562.776
946.8950, 5588.366
947.3771, 5622.823
947.8593, 5643.599
948.3414, 5647.355
948.8235, 5662.833
949.3056, 5704.251
949.7877, 5744.390
950.2698, 5749.006
950.7520, 5728.382
951.2341, 5739.433
951.7162, 5787.067
952.1983, 5836.643
952.6804, 5888.541
953.1625, 5926.952
953.6447, 5941.833
954.1268, 5944.235
954.6089, 5944.974
955.0910, 5945.414
955.5731, 5979.911
956.0552, 6066.410
956.5374, 6128.753
957.0195, 6142.877
957.5016, 6164.878
957.9837, 6232.287
958.4658, 6317.423
958.9479, 6373.378
959.4301, 6397.472
959.9122, 6433.826
960.3943, 6490.546
960.8764, 6542.775
961.3585, 6578.552
961.8406, 6620.632
962.3228, 6686.972
962.8049, 6766.531
963.2870, 6837.338
963.7691, 6896.223
964.2512, 6963.448
964.7333, 7051.389
965.2155, 7129.698
965.6976, 7192.547
966.1797, 7245.322
966.6618, 7275.804
967.1439, 7302.567
967.6260, 7374.602
968.1082, 7512.673
968.5903, 7616.394
969.0724, 7661.067
969.5545, 7698.092
970.0366, 7731.841
970.5187, 7770.264
971.0009, 7830.870
971.4830, 7899.251
971.9651, 7936.024
972.4472, 7931.049
972.9293, 7918.006
973.4114, 7895.063
973.8936, 7872.953
974.3757, 7852.294
974.8578, 7836.746
975.3399, 7838.692
975.8220, 7847.983
976.3041, 7834.777
976.7863, 7793.207
977.2684, 7733.191
977.7505, 7643.744
978.2326, 7552.518
978.7147, 7477.328
979.1968, 7402.066
979.6790, 7299.534
980.1611, 7182.132
980.6432, 7097.716
981.1253, 7069.797
981.6074, 7034.160
982.0895, 6963.815
982.5717, 6890.522
983.0538, 6829.640
983.5359, 6774.234
984.0180, 6713.654
984.5001, 6650.493
984.9822, 6598.280
985.4644, 6562.586
985.9465, 6531.835
986.4286, 6499.411
986.9107, 6473.253
987.3928, 6465.602
987.8749, 6461.520
988.3571, 6432.070
988.8392, 6387.876
989.3213, 6382.487
989.8034, 6447.579
990.2855, 6506.172
990.7676, 6524.466
991.2498, 6528.426
991.7319, 6516.532
992.2140, 6511.961
992.6961, 6550.669
993.1782, 6624.496
993.6603, 6682.154
994.1425, 6694.222
994.6246, 6724.726
995.1067, 6821.387
995.5888, 6925.495
996.0709, 6998.101
996.5530, 7053.371
997.0352, 7111.951
997.5173, 7174.337
997.9994, 7226.913
998.4815, 7258.690
998.9636, 7299.546
999.4457, 7383.088
999.9279, 7459.717
1000.410, 7483.779
1000.892, 7486.863
1001.374, 7508.118
1001.856, 7549.992
1002.338, 7597.330
1002.821, 7648.417
1003.303, 7693.629
1003.785, 7737.920
1004.267, 7764.922
1004.749, 7754.490
1005.231, 7725.509
1005.713, 7695.533
1006.195, 7670.268
1006.677, 7657.815
1007.160, 7665.167
1007.642, 7671.425
1008.124, 7680.627
1008.606, 7670.667
1009.088, 7611.403
1009.570, 7535.295
1010.052, 7471.860
1010.534, 7429.168
1011.017, 7418.875
1011.499, 7454.097
1011.981, 7485.886
1012.463, 7496.786
1012.945, 7493.998
1013.427, 7464.758
1013.909, 7436.684
1014.391, 7440.079
1014.873, 7473.001
1015.356, 7518.410
1015.838, 7573.561
1016.320, 7632.049
1016.802, 7686.785
1017.284, 7749.814
1017.766, 7833.194
1018.248, 7923.771
1018.730, 8002.708
1019.213, 8077.094
1019.695, 8175.033
1020.177, 8309.927
1020.659, 8432.548
1021.141, 8518.518
1021.623, 8599.850
1022.105, 8692.384
1022.587, 8786.746
1023.069, 8875.218
1023.552, 8957.665
1024.034, 9037.347
1024.516, 9116.038
1024.998, 9182.128
1025.480, 9244.469
1025.962, 9277.721
1026.444, 9246.328
1026.926, 9205.581
1027.409, 9198.535
1027.891, 9216.708
1028.373, 9240.547
1028.855, 9270.159
1029.337, 9281.968
1029.819, 9265.069
1030.301, 9239.108
1030.783, 9205.447
1031.266, 9168.184
1031.748, 9122.908
1032.230, 9078.757
1032.712, 9056.509
1033.194, 9060.342
1033.676, 9045.718
1034.158, 8993.045
1034.640, 8943.943
1035.122, 8918.518
1035.604, 8883.646
1036.087, 8807.325
1036.569, 8717.563
1037.051, 8661.584
1037.533, 8641.213
1038.015, 8601.275
1038.497, 8534.623
1038.979, 8459.219
1039.461, 8362.842
1039.944, 8275.008
1040.426, 8223.894
1040.908, 8175.448
1041.390, 8081.139
1041.872, 7947.341
1042.354, 7844.237
1042.836, 7791.437
1043.318, 7728.546
1043.800, 7658.288
1044.283, 7567.095
1044.765, 7432.647
1045.247, 7298.901
1045.729, 7215.114
1046.211, 7168.080
1046.693, 7092.774
1047.175, 6970.337
1047.657, 6886.396
1048.140, 6860.442
1048.622, 6816.133
1049.104, 6727.413
1049.586, 6620.095
1050.068, 6509.644
1050.550, 6405.784
1051.032, 6340.145
1051.514, 6319.023
1051.996, 6272.125
1052.479, 6195.365
1052.961, 6118.771
1053.443, 6048.084
1053.925, 5986.431
1054.407, 5937.106
1054.889, 5891.493
1055.371, 5828.460
1055.853, 5751.860
1056.335, 5714.374
1056.818, 5715.490
1057.300, 5688.176
1057.782, 5620.637
1058.264, 5558.733
1058.746, 5527.177
1059.228, 5505.015
1059.710, 5463.377
1060.192, 5410.356
1060.675, 5373.698
1061.157, 5350.982
1061.639, 5334.667
1062.121, 5321.180
1062.603, 5287.948
1063.085, 5227.389
1063.567, 5172.453
1064.049, 5158.103
1064.531, 5163.500
1065.014, 5155.769
1065.496, 5136.175
1065.978, 5104.821
1066.460, 5064.562
1066.942, 5017.488
1067.424, 4968.095
1067.906, 4942.035
1068.388, 4962.953
1068.870, 4991.204
1069.353, 4986.726
1069.835, 4958.319
1070.317, 4901.485
1070.799, 4837.185
1071.281, 4809.338
1071.763, 4816.543
1072.245, 4818.555
1072.727, 4796.232
1073.210, 4773.517
1073.692, 4770.456
1074.174, 4771.307
1074.656, 4770.501
1075.138, 4760.302
1075.620, 4717.494
1076.102, 4660.176
1076.584, 4640.960
1077.067, 4675.049
1077.549, 4700.397
1078.031, 4682.904
1078.513, 4660.300
1078.995, 4651.258
1079.477, 4642.097
1079.959, 4616.195
1080.441, 4585.473
1080.923, 4575.535
1081.406, 4575.155
1081.888, 4579.200
1082.370, 4575.502
1082.852, 4564.528
1083.334, 4521.957
1083.816, 4522.120
1084.298, 4506.340
1084.780, 4490.713
1085.262, 4499.305
1085.745, 4465.651
1086.227, 4475.559
1086.709, 4469.268
1087.191, 4471.619
1087.673, 4457.923
1088.155, 4450.286
1088.637, 4460.392
1089.119, 4461.984
1089.602, 4449.713
1090.084, 4457.624
1090.566, 4431.835
1091.048, 4437.202
1091.530, 4456.490
1092.012, 4449.291
1092.494, 4461.728
1092.976, 4467.850
1093.458, 4442.290
1093.941, 4474.153
1094.423, 4482.385
1094.905, 4466.343
1095.387, 4483.442
1095.869, 4479.897
1096.351, 4463.819
1096.833, 4469.333
1097.315, 4496.597
1097.797, 4520.146
1098.280, 4531.532
1098.762, 4535.216
1099.244, 4534.116
1099.726, 4529.558
1100.208, 4520.504
1100.690, 4511.126
1101.172, 4510.398
1101.654, 4516.554
1102.137, 4528.663
1102.619, 4542.607
1103.101, 4543.637
1103.583, 4524.238
1104.065, 4501.551
1104.547, 4482.349
1105.029, 4474.223
1105.511, 4495.706
1105.994, 4523.607
1106.476, 4525.807
1106.958, 4512.003
1107.440, 4512.527
1107.922, 4532.448
1108.404, 4540.570
1108.886, 4519.482
1109.368, 4491.472
1109.850, 4453.136
1110.333, 4423.574
1110.815, 4424.648
1111.297, 4434.264
1111.779, 4421.855
1112.261, 4391.670
1112.743, 4374.591
1113.225, 4378.597
1113.707, 4382.734
1114.189, 4382.953
1114.672, 4389.159
1115.154, 4413.291
1115.636, 4429.668
1116.118, 4415.907
1116.600, 4388.340
1117.082, 4377.142
1117.564, 4382.380
1118.046, 4392.240
1118.529, 4409.104
1119.011, 4416.193
1119.493, 4410.293
1119.975, 4401.638
1120.457, 4393.500
1120.939, 4391.786
1121.421, 4404.065
1121.903, 4423.605
1122.385, 4435.894
1122.868, 4439.708
1123.350, 4421.339
1123.832, 4386.830
1124.314, 4372.625
1124.796, 4384.553
1125.278, 4397.767
1125.760, 4398.320
1126.242, 4392.004
1126.724, 4379.674
1127.207, 4369.155
1127.689, 4379.098
1128.171, 4393.582
1128.653, 4379.685
1129.135, 4348.759
1129.617, 4339.337
1130.099, 4359.492
1130.581, 4378.468
1131.064, 4372.606
1131.546, 4376.755
1132.028, 4424.811
1132.510, 4471.669
1132.992, 4486.557
1133.474, 4482.679
1133.956, 4468.489
1134.438, 4451.517
1134.921, 4456.358
1135.403, 4498.190
1135.885, 4519.625
1136.367, 4499.132
1136.849, 4482.542
1137.331, 4471.743
1137.813, 4475.659
1138.295, 4505.486
1138.777, 4545.683
1139.260, 4572.786
1139.742, 4588.679
1140.224, 4614.389
1140.706, 4653.235
1141.188, 4675.509
1141.670, 4678.065
1142.152, 4677.459
1142.634, 4678.598
1143.116, 4683.765
1143.599, 4695.049
1144.081, 4709.903
1144.563, 4720.790
1145.045, 4732.655
1145.527, 4765.454
1146.009, 4811.498
1146.491, 4846.371
1146.973, 4869.113
1147.456, 4892.959
1147.938, 4922.546
1148.420, 4948.209
1148.902, 4972.680
1149.384, 4990.717
1149.866, 5002.661
1150.348, 4990.275
1150.830, 5009.307
1151.313, 5015.769
1151.795, 5021.695
1152.277, 5045.149
1152.759, 5036.302
1153.241, 5059.478
1153.723, 5069.873
1154.205, 5086.115
1154.687, 5109.699
1155.169, 5078.024
1155.651, 5036.785
1156.134, 5027.324
1156.616, 5031.496
1157.098, 5024.900
1157.580, 5007.732
1158.062, 4981.143
1158.544, 4942.389
1159.026, 4904.952
1159.508, 4867.363
1159.991, 4849.867
1160.473, 4862.386
1160.955, 4858.143
1161.437, 4797.106
1161.919, 4731.272
1162.401, 4771.781
1162.883, 4870.272
1163.365, 4850.534
1163.848, 4750.156
1164.330, 4687.107
1164.812, 4667.413
1165.294, 4646.208
1165.776, 4610.218
1166.258, 4585.753
1166.740, 4597.770
1167.222, 4607.667
1167.704, 4577.579
1168.187, 4537.495
1168.669, 4511.440
1169.151, 4493.598
1169.633, 4477.016
1170.115, 4459.884
1170.597, 4440.511
1171.079, 4418.458
1171.561, 4395.124
1172.043, 4356.542
1172.526, 4338.926
1173.008, 4364.222
1173.490, 4387.903
1173.972, 4395.357
1174.454, 4385.650
1174.936, 4348.948
1175.418, 4301.208
1175.900, 4306.202
1176.383, 4370.535
1176.865, 4387.872
1177.347, 4357.007
1177.829, 4336.799
1178.311, 4337.956
1178.793, 4340.123
1179.275, 4333.415
1179.757, 4315.755
1180.240, 4278.926
1180.722, 4241.451
1181.204, 4238.114
1181.686, 4252.226
1182.168, 4253.424
1182.650, 4249.745
1183.132, 4268.759
1183.614, 4305.677
1184.096, 4322.458
1184.578, 4302.532
1185.061, 4282.841
1185.543, 4276.791
1186.025, 4279.270
1186.507, 4302.543
1186.989, 4318.211
1187.471, 4299.610
1187.953, 4265.915
1188.435, 4241.857
1188.918, 4227.613
1189.400, 4225.514
1189.882, 4244.396
1190.364, 4241.350
1190.846, 4209.057
1191.328, 4187.441
1191.810, 4185.845
1192.292, 4192.829
1192.775, 4202.849
1193.257, 4211.156
1193.739, 4211.453
1194.221, 4206.238
1194.703, 4199.092
1195.185, 4192.325
1195.667, 4195.634
1196.149, 4204.129
1196.631, 4198.767
1197.114, 4180.875
1197.596, 4175.175
1198.078, 4193.479
1198.560, 4215.233
1199.042, 4238.881
1199.524, 4247.579
1200.006, 4219.476
1200.488, 4185.377
##END=



