##NAMES=Vayrynenite
##RRUFFID=R050243
##IDEAL CHEMISTRY=Mn^2+^Be(PO_4_)OH
##LOCALITY=Viitaniemi pegmatite, Erajarvi, Orivesi, Finland
##OWNER=RRUFF
##SOURCE=Marcus Origlieri
##DESCRIPTION=Pink massive with defined cleavage planes
##STATUS=The identification of this mineral has been confirmed by X-ray diffraction and chemical analysis
##URL=rruff.info/R050243
##MEASURED CHEMISTRY=(Mn^2+^_0.95_Fe^2+^_0.05_)_Σ=1_Be_1.00_(P_1.00_O_4_)((OH)_0.94_F_0.06_)_Σ=1_ ; Be not measured but estimated by difference and charge balance.
93.74609, 3.929108
94.22821, 3.848691
94.71033, 3.903291
95.19244, 4.063288
95.67456, 4.208979
96.15668, 4.230700
96.63879, 4.185619
97.12091, 4.283873
97.60303, 4.540734
98.08514, 4.911708
98.56726, 5.331550
99.04938, 5.801784
99.53149, 6.324823
100.0136, 6.904217
100.4957, 7.537749
100.9778, 8.180084
101.4600, 8.765518
101.9421, 9.397595
102.4242, 10.38607
102.9063, 11.81964
103.3884, 13.40129
103.8705, 14.94744
104.3527, 16.50983
104.8348, 17.92720
105.3169, 19.16309
105.7990, 20.22682
106.2811, 21.35021
106.7632, 22.54314
107.2454, 23.77687
107.7275, 25.02520
108.2096, 26.48200
108.6917, 27.70228
109.1738, 28.54346
109.6559, 28.93248
110.1381, 29.46723
110.6202, 30.11582
111.1023, 30.92822
111.5844, 31.95579
112.0665, 33.35089
112.5486, 34.83337
113.0308, 36.30805
113.5129, 37.71146
113.9950, 39.35002
114.4771, 41.25554
114.9592, 43.41323
115.4413, 45.83269
115.9235, 48.67169
116.4056, 51.65240
116.8877, 54.56957
117.3698, 57.29842
117.8519, 60.28126
118.3340, 63.51551
118.8162, 67.10254
119.2983, 71.27239
119.7804, 76.10850
120.2625, 81.64092
120.7446, 87.92688
121.2267, 95.51464
121.7089, 103.1727
122.1910, 111.2415
122.6731, 119.1886
123.1552, 124.6344
123.6373, 126.0266
124.1194, 124.1254
124.6016, 119.7166
125.0837, 111.9250
125.5658, 102.7270
126.0479, 93.66380
126.5300, 84.77200
127.0121, 76.66459
127.4943, 69.67917
127.9764, 63.88389
128.4585, 59.25763
128.9406, 56.30838
129.4227, 54.41721
129.9048, 52.53172
130.3869, 50.63240
130.8691, 48.93241
131.3512, 47.68573
131.8333, 46.86085
132.3154, 46.26780
132.7975, 45.90886
133.2796, 45.73649
133.7618, 45.53170
134.2439, 45.16488
134.7260, 44.63515
135.2081, 44.29963
135.6902, 44.26645
136.1723, 44.23955
136.6545, 44.02869
137.1366, 43.63809
137.6187, 43.43758
138.1008, 43.50188
138.5829, 43.67483
139.0650, 43.62514
139.5472, 43.31924
140.0293, 42.93520
140.5114, 42.52340
140.9935, 42.03927
141.4756, 41.73140
141.9577, 41.62581
142.4399, 41.69279
142.9220, 41.83247
143.4041, 42.04477
143.8862, 42.32698
144.3683, 42.69259
144.8504, 43.17993
145.3326, 43.64949
145.8147, 44.05943
146.2968, 44.42793
146.7789, 44.87238
147.2610, 45.48414
147.7431, 46.08384
148.2253, 46.54399
148.7074, 46.72048
149.1895, 46.96237
149.6716, 47.32270
150.1537, 47.80278
150.6358, 48.27947
151.1180, 48.70186
151.6001, 49.14636
152.0822, 49.67114
152.5643, 50.21806
153.0464, 50.90177
153.5285, 51.76058
154.0107, 52.80177
154.4928, 53.88873
154.9749, 55.03884
155.4570, 56.22979
155.9391, 57.43879
156.4212, 58.55350
156.9034, 59.80315
157.3855, 61.17073
157.8676, 62.57095
158.3497, 64.46981
158.8318, 66.95757
159.3139, 69.99810
159.7961, 73.55454
160.2782, 77.85114
160.7603, 82.46522
161.2424, 87.53001
161.7245, 93.44765
162.2066, 98.28224
162.6888, 101.6142
163.1709, 103.4271
163.6530, 103.6896
164.1351, 101.4115
164.6172, 98.26704
165.0993, 95.11347
165.5815, 91.96595
166.0636, 89.12453
166.5457, 86.57565
167.0278, 84.40852
167.5099, 82.81149
167.9920, 81.81906
168.4742, 81.45528
168.9563, 81.81987
169.4384, 83.11684
169.9205, 84.70676
170.4026, 86.01834
170.8847, 87.25326
171.3669, 88.94883
171.8490, 91.95641
172.3311, 95.35060
172.8132, 98.11605
173.2953, 99.87205
173.7774, 101.2937
174.2596, 102.9709
174.7417, 104.8358
175.2238, 106.6120
175.7059, 107.5982
176.1880, 108.4986
176.6701, 110.2486
177.1523, 112.9353
177.6344, 116.7506
178.1165, 121.8466
178.5986, 128.2648
179.0807, 135.9658
179.5628, 144.6378
180.0450, 154.6842
180.5271, 166.8809
181.0092, 182.0622
181.4913, 198.9320
181.9734, 217.2714
182.4555, 236.7191
182.9377, 252.4836
183.4198, 262.8232
183.9019, 266.9023
184.3840, 261.6553
184.8661, 243.8230
185.3482, 218.3441
185.8304, 192.2809
186.3125, 165.7323
186.7946, 141.5435
187.2767, 122.3748
187.7588, 107.6533
188.2409, 95.77507
188.7231, 86.57914
189.2052, 79.65372
189.6873, 74.07409
190.1694, 69.82496
190.6515, 66.45652
191.1336, 63.64620
191.6158, 61.37378
192.0979, 59.48901
192.5800, 57.98960
193.0621, 56.82515
193.5442, 55.83768
194.0263, 55.03630
194.5085, 54.30115
194.9906, 53.44889
195.4727, 52.48945
195.9548, 51.75344
196.4369, 51.38445
196.9190, 51.32212
197.4012, 51.27576
197.8833, 51.24281
198.3654, 51.23744
198.8475, 51.27332
199.3296, 51.35038
199.8117, 51.47119
200.2939, 51.65142
200.7760, 51.88020
201.2581, 52.07925
201.7402, 52.24073
202.2223, 52.39020
202.7044, 52.52132
203.1866, 52.61266
203.6687, 52.84336
204.1508, 53.30387
204.6329, 53.97590
205.1150, 54.56433
205.5971, 55.03468
206.0793, 55.49629
206.5614, 56.08086
207.0435, 56.79757
207.5256, 57.55447
208.0077, 58.28267
208.4898, 58.98716
208.9720, 59.95475
209.4541, 61.19720
209.9362, 62.67985
210.4183, 64.40042
210.9004, 66.39396
211.3825, 68.46713
211.8647, 70.64749
212.3468, 72.94113
212.8289, 74.93261
213.3110, 76.53054
213.7931, 77.96600
214.2752, 79.51663
214.7574, 81.27930
215.2395, 82.91122
215.7216, 84.32203
216.2037, 85.49377
216.6858, 86.67153
217.1679, 87.92488
217.6500, 89.10207
218.1322, 89.99569
218.6143, 90.54275
219.0964, 90.99492
219.5785, 91.47533
220.0606, 92.01439
220.5427, 92.00893
221.0249, 91.20808
221.5070, 90.14835
221.9891, 89.40416
222.4712, 88.90458
222.9533, 88.88087
223.4354, 89.50472
223.9176, 90.83111
224.3997, 91.89538
224.8818, 92.38802
225.3639, 92.96419
225.8460, 94.28948
226.3281, 96.25504
226.8103, 99.20148
227.2924, 103.2213
227.7745, 108.3938
228.2566, 113.9986
228.7387, 119.6214
229.2208, 126.1053
229.7030, 134.2979
230.1851, 144.7844
230.6672, 156.1226
231.1493, 168.9110
231.6314, 183.3315
232.1135, 194.4726
232.5957, 204.0356
233.0778, 208.5686
233.5599, 203.9877
234.0420, 186.8303
234.5241, 167.2661
235.0062, 145.8097
235.4884, 122.6124
235.9705, 103.8636
236.4526, 90.26286
236.9347, 80.15059
237.4168, 72.11825
237.8989, 66.69820
238.3811, 62.34828
238.8632, 58.96159
239.3453, 56.52447
239.8274, 54.69657
240.3095, 53.64689
240.7916, 52.99575
241.2738, 52.44663
241.7559, 52.02909
242.2380, 51.65723
242.7201, 51.32984
243.2022, 51.04417
243.6843, 50.77149
244.1665, 50.51455
244.6486, 50.26661
245.1307, 50.03817
245.6128, 49.90297
246.0949, 49.62328
246.5770, 49.05084
247.0592, 48.24898
247.5413, 47.85622
248.0234, 48.07226
248.5055, 48.44944
248.9876, 48.66356
249.4697, 48.59298
249.9519, 48.63179
250.4340, 48.84199
250.9161, 49.19883
251.3982, 49.57605
251.8803, 50.04280
252.3624, 50.42640
252.8446, 50.57151
253.3267, 50.28944
253.8088, 50.22990
254.2909, 50.50795
254.7730, 51.04753
255.2551, 51.52391
255.7373, 51.90732
256.2194, 52.27586
256.7015, 52.64800
257.1836, 52.97249
257.6657, 53.45463
258.1478, 54.16636
258.6299, 55.02546
259.1121, 55.76805
259.5942, 56.26102
260.0763, 56.88284
260.5584, 57.87746
261.0405, 59.39944
261.5226, 60.78941
262.0048, 62.04586
262.4869, 63.15467
262.9690, 64.13810
263.4511, 65.05272
263.9332, 65.70260
264.4153, 66.01024
264.8975, 65.97463
265.3796, 65.59898
265.8617, 64.84219
266.3438, 63.78017
266.8259, 62.46999
267.3080, 60.80638
267.7902, 59.20124
268.2723, 57.86249
268.7544, 56.80646
269.2365, 55.74613
269.7186, 54.64266
270.2007, 53.58557
270.6829, 52.72689
271.1650, 52.08060
271.6471, 51.59150
272.1292, 51.30030
272.6113, 51.21350
273.0934, 50.99111
273.5756, 50.55589
274.0577, 50.12684
274.5398, 49.99555
275.0219, 50.21205
275.5040, 50.48880
275.9861, 50.76977
276.4683, 51.05015
276.9504, 51.25174
277.4325, 51.35010
277.9146, 51.43299
278.3967, 51.59861
278.8788, 51.85387
279.3610, 52.12019
279.8431, 52.39649
280.3252, 52.66623
280.8073, 52.82276
281.2894, 52.83332
281.7715, 52.86654
282.2537, 53.05719
282.7358, 53.40574
283.2179, 53.92104
283.7000, 54.70808
284.1821, 55.60223
284.6642, 56.06240
285.1464, 56.06750
285.6285, 55.86036
286.1106, 55.58506
286.5927, 55.24341
287.0748, 54.87365
287.5569, 54.50700
288.0391, 54.07927
288.5212, 53.36876
289.0033, 52.36808
289.4854, 51.46653
289.9675, 50.98045
290.4496, 50.84025
290.9318, 50.63599
291.4139, 50.30436
291.8960, 49.95350
292.3781, 49.83493
292.8602, 49.91811
293.3423, 49.88434
293.8245, 49.38726
294.3066, 48.62209
294.7887, 48.26497
295.2708, 48.40649
295.7529, 48.72223
296.2350, 48.83865
296.7172, 48.78194
297.1993, 48.68201
297.6814, 48.55999
298.1635, 48.44117
298.6456, 48.37094
299.1277, 48.34750
299.6099, 48.39389
300.0920, 48.57118
300.5741, 48.84115
301.0562, 49.09624
301.5383, 49.28371
302.0204, 49.44416
302.5026, 49.68293
302.9847, 49.99429
303.4668, 50.19675
303.9489, 50.00808
304.4310, 49.62984
304.9131, 49.40684
305.3953, 49.43076
305.8774, 49.66813
306.3595, 50.20832
306.8416, 50.98744
307.3237, 51.68700
307.8058, 52.01113
308.2880, 52.15862
308.7701, 52.36668
309.2522, 52.69576
309.7343, 53.08718
310.2164, 53.51494
310.6985, 53.97422
311.1807, 54.43855
311.6628, 54.80761
312.1449, 55.22704
312.6270, 55.82768
313.1091, 56.66031
313.5912, 57.56917
314.0734, 58.57779
314.5555, 59.59590
315.0376, 60.46880
315.5197, 60.99752
316.0018, 61.46029
316.4839, 62.00303
316.9661, 62.64425
317.4482, 63.33611
317.9303, 63.91062
318.4124, 64.56730
318.8945, 65.55021
319.3766, 67.20768
319.8588, 68.96065
320.3409, 70.61914
320.8230, 72.18211
321.3051, 73.60223
321.7872, 74.60821
322.2693, 75.60367
322.7515, 76.90646
323.2336, 78.81429
323.7157, 80.78624
324.1978, 82.63560
324.6799, 84.40726
325.1620, 86.46311
325.6442, 89.26859
326.1263, 92.07510
326.6084, 94.48294
327.0905, 95.90105
327.5726, 97.68396
328.0547, 100.5221
328.5369, 103.8064
329.0190, 106.0038
329.5011, 106.1896
329.9832, 106.1371
330.4653, 106.4466
330.9474, 107.3721
331.4296, 108.0143
331.9117, 108.4062
332.3938, 108.5010
332.8759, 108.1774
333.3580, 106.9206
333.8401, 106.0280
334.3223, 105.9240
334.8044, 106.6901
335.2865, 107.3041
335.7686, 107.7434
336.2507, 108.0493
336.7328, 108.2626
337.2150, 108.4078
337.6971, 108.3759
338.1792, 108.0484
338.6613, 107.5108
339.1434, 107.3304
339.6255, 107.6330
340.1077, 107.9962
340.5898, 108.0898
341.0719, 107.8587
341.5540, 107.7362
342.0361, 107.7288
342.5182, 107.8879
343.0003, 108.3754
343.4825, 109.2121
343.9646, 110.1891
344.4467, 111.1066
344.9288, 111.9841
345.4109, 113.3143
345.8930, 115.1380
346.3752, 117.3016
346.8573, 119.5849
347.3394, 122.0076
347.8215, 124.5727
348.3036, 127.4714
348.7857, 130.4917
349.2679, 133.0861
349.7500, 135.2520
350.2321, 136.9298
350.7142, 138.1520
351.1963, 138.8314
351.6784, 138.7010
352.1606, 137.5861
352.6427, 135.7226
353.1248, 133.4281
353.6069, 130.6656
354.0890, 127.3270
354.5711, 122.9021
355.0533, 118.0016
355.5354, 113.3952
356.0175, 109.2166
356.4996, 105.4527
356.9817, 101.9933
357.4638, 98.89286
357.9460, 96.28240
358.4281, 94.31629
358.9102, 92.80537
359.3923, 91.67456
359.8744, 90.93349
360.3565, 90.39324
360.8387, 89.75412
361.3208, 89.31388
361.8029, 89.44755
362.2850, 90.82375
362.7671, 92.30998
363.2492, 93.35547
363.7314, 93.99146
364.2135, 94.75578
364.6956, 95.83318
365.1777, 97.08957
365.6598, 98.42970
366.1419, 99.80428
366.6241, 101.3061
367.1062, 102.8554
367.5883, 104.5257
368.0704, 106.5181
368.5525, 108.9905
369.0346, 111.6758
369.5168, 114.4472
369.9989, 117.1157
370.4810, 120.3491
370.9631, 124.5536
371.4452, 129.1712
371.9273, 133.4140
372.4095, 136.5599
372.8916, 140.3413
373.3737, 145.2957
373.8558, 151.4857
374.3379, 157.5649
374.8200, 163.5056
375.3022, 169.4590
375.7843, 175.6538
376.2664, 182.5313
376.7485, 188.3947
377.2306, 193.0711
377.7127, 196.5768
378.1949, 198.9499
378.6770, 200.2436
379.1591, 200.1086
379.6412, 198.2871
380.1233, 194.7579
380.6054, 189.8622
381.0876, 183.4562
381.5697, 176.1138
382.0518, 168.2992
382.5339, 160.1133
383.0160, 152.0788
383.4981, 144.3235
383.9803, 136.9231
384.4624, 130.3678
384.9445, 124.6664
385.4266, 119.5749
385.9087, 114.8906
386.3908, 110.6139
386.8730, 106.7163
387.3551, 103.1960
387.8372, 99.97240
388.3193, 96.81703
388.8014, 93.81395
389.2835, 91.30837
389.7657, 89.77522
390.2478, 88.71836
390.7299, 87.60764
391.2120, 86.33616
391.6941, 85.18893
392.1762, 84.42610
392.6584, 83.92007
393.1405, 83.45439
393.6226, 82.90805
394.1047, 82.40976
394.5868, 81.94429
395.0689, 81.52403
395.5511, 81.43611
396.0332, 81.91573
396.5153, 82.69458
396.9974, 83.56965
397.4795, 84.60921
397.9616, 85.61447
398.4438, 86.45014
398.9259, 87.21021
399.4080, 88.18825
399.8901, 89.73475
400.3722, 91.22742
400.8543, 92.43550
401.3365, 93.31905
401.8186, 94.07077
402.3007, 94.88406
402.7828, 95.44749
403.2649, 95.35706
403.7470, 94.41260
404.2292, 93.19350
404.7113, 91.87336
405.1934, 90.41724
405.6755, 88.38413
406.1576, 85.62115
406.6397, 82.67307
407.1219, 79.82741
407.6040, 77.03882
408.0861, 74.77956
408.5682, 73.17665
409.0503, 72.00478
409.5324, 70.75590
410.0146, 69.42488
410.4967, 68.23656
410.9788, 67.34554
411.4609, 66.70039
411.9430, 66.03615
412.4251, 65.33741
412.9073, 64.70307
413.3894, 64.23775
413.8715, 63.90183
414.3536, 63.57945
414.8357, 63.17904
415.3178, 62.83573
415.8000, 62.84568
416.2821, 63.12056
416.7642, 63.24596
417.2463, 62.75937
417.7284, 62.08894
418.2105, 61.72190
418.6927, 61.79075
419.1748, 61.89357
419.6569, 61.71662
420.1390, 61.42785
420.6211, 61.28912
421.1032, 61.63511
421.5854, 61.93084
422.0675, 61.84079
422.5496, 61.38131
423.0317, 61.11927
423.5138, 61.35768
423.9959, 61.74195
424.4781, 62.04483
424.9602, 62.15914
425.4423, 62.28332
425.9244, 62.49409
426.4065, 62.71953
426.8886, 62.78740
427.3708, 62.45626
427.8529, 62.26909
428.3350, 62.42474
428.8171, 62.97785
429.2992, 63.50383
429.7813, 64.03470
430.2635, 64.49538
430.7456, 64.79732
431.2277, 64.90159
431.7098, 64.99047
432.1919, 65.05967
432.6740, 65.15285
433.1562, 65.44483
433.6383, 65.95708
434.1204, 66.47793
434.6025, 66.82797
435.0846, 67.05339
435.5667, 67.45419
436.0489, 68.06678
436.5310, 68.76359
437.0131, 69.30257
437.4952, 69.77345
437.9773, 70.49086
438.4594, 71.74465
438.9416, 73.16989
439.4236, 74.20741
439.9058, 74.92344
440.3879, 75.73428
440.8700, 76.86610
441.3521, 78.26853
441.8342, 79.88951
442.3163, 81.71862
442.7985, 83.77013
443.2806, 86.06032
443.7627, 88.56981
444.2448, 91.31743
444.7269, 94.57728
445.2090, 97.78855
445.6912, 100.5923
446.1733, 102.9791
446.6554, 105.7098
447.1375, 109.2209
447.6196, 112.9018
448.1017, 116.3719
448.5839, 119.0190
449.0660, 122.2132
449.5481, 126.1041
450.0302, 130.4860
450.5123, 134.8696
450.9944, 138.9471
451.4766, 143.4893
451.9587, 148.7368
452.4408, 154.7534
452.9229, 161.1317
453.4050, 167.8777
453.8871, 175.1728
454.3693, 183.2528
454.8514, 192.1596
455.3335, 201.7917
455.8156, 212.3331
456.2977, 223.4798
456.7798, 234.8597
457.2620, 246.5305
457.7441, 257.9086
458.2262, 269.0840
458.7083, 279.7352
459.1904, 289.8651
459.6725, 299.4789
460.1547, 307.1250
460.6368, 312.1138
461.1189, 314.1918
461.6010, 312.8321
462.0831, 307.7661
462.5652, 299.4235
463.0474, 287.3734
463.5295, 272.1741
464.0116, 255.6425
464.4937, 237.2119
464.9758, 218.9243
465.4579, 202.0559
465.9401, 186.8384
466.4222, 172.7096
466.9043, 159.2777
467.3864, 147.1197
467.8685, 136.7791
468.3506, 129.2822
468.8328, 122.4807
469.3149, 116.0974
469.7970, 110.2606
470.2791, 105.3951
470.7612, 101.9456
471.2433, 98.84838
471.7255, 95.59039
472.2076, 92.01958
472.6897, 89.26897
473.1718, 87.47095
473.6539, 86.13953
474.1360, 84.72515
474.6182, 83.21889
475.1003, 81.81126
475.5824, 80.50986
476.0645, 79.36316
476.5466, 78.55917
477.0287, 78.07458
477.5109, 77.67006
477.9930, 77.23566
478.4751, 76.76937
478.9572, 76.22132
479.4393, 75.57339
479.9214, 75.02048
480.4036, 74.80972
480.8857, 74.79167
481.3678, 74.73386
481.8499, 74.36163
482.3320, 74.15718
482.8141, 74.52788
483.2963, 75.32563
483.7784, 76.08897
484.2605, 76.60658
484.7426, 77.06931
485.2247, 77.49973
485.7068, 77.80630
486.1890, 78.47858
486.6711, 79.72887
487.1532, 81.30070
487.6353, 82.96951
488.1174, 84.72536
488.5995, 86.52845
489.0817, 88.32903
489.5638, 90.17160
490.0459, 92.27174
490.5280, 94.67947
491.0101, 97.23544
491.4922, 99.93091
491.9744, 102.7902
492.4565, 105.5268
492.9386, 108.1291
493.4207, 110.7714
493.9028, 113.5878
494.3849, 116.5930
494.8671, 119.6842
495.3492, 122.7927
495.8313, 126.1267
496.3134, 129.9310
496.7955, 134.2067
497.2776, 139.0667
497.7598, 144.5563
498.2419, 150.6338
498.7240, 157.0593
499.2061, 163.8818
499.6882, 171.5186
500.1703, 180.3963
500.6525, 190.1333
501.1346, 200.3523
501.6167, 211.2200
502.0988, 222.3649
502.5809, 233.8510
503.0630, 245.5846
503.5452, 257.1737
504.0273, 269.8625
504.5094, 280.9024
504.9915, 290.1970
505.4736, 297.8312
505.9557, 300.7146
506.4379, 298.6407
506.9200, 292.0157
507.4021, 280.6070
507.8842, 263.4021
508.3663, 244.9729
508.8484, 224.8180
509.3306, 204.6641
509.8127, 187.0988
510.2948, 172.1742
510.7769, 159.6379
511.2590, 149.9341
511.7411, 142.3970
512.2233, 135.7648
512.7054, 129.9994
513.1875, 125.0470
513.6696, 121.2908
514.1517, 118.1659
514.6339, 114.8783
515.1160, 111.2628
515.5981, 107.6739
516.0802, 104.4210
516.5623, 101.2833
517.0444, 97.96594
517.5266, 93.83079
518.0087, 90.04637
518.4908, 87.02013
518.9729, 84.69151
519.4550, 82.75662
519.9371, 81.47308
520.4193, 80.32111
520.9014, 79.04079
521.3835, 77.46727
521.8656, 76.48183
522.3477, 76.35148
522.8298, 76.51443
523.3120, 76.41512
523.7941, 75.98105
524.2762, 75.61504
524.7583, 75.34433
525.2404, 75.20535
525.7225, 75.32980
526.2047, 75.71614
526.6868, 76.13646
527.1689, 76.39118
527.6510, 76.61610
528.1331, 77.25599
528.6152, 78.30443
529.0974, 79.31438
529.5795, 79.82621
530.0616, 80.13183
530.5437, 80.62103
531.0258, 81.38213
531.5079, 82.32534
531.9901, 83.44569
532.4722, 84.71864
532.9543, 86.08797
533.4364, 87.66244
533.9185, 89.21561
534.4006, 90.76357
534.8828, 92.26747
535.3649, 93.53324
535.8470, 94.92249
536.3291, 95.67439
536.8112, 95.40942
537.2933, 93.94656
537.7755, 92.16714
538.2576, 90.03837
538.7397, 87.65701
539.2218, 85.02895
539.7039, 82.12851
540.1860, 79.56447
540.6682, 77.48447
541.1503, 75.79701
541.6324, 74.35343
542.1145, 73.14642
542.5966, 72.03452
543.0787, 70.85666
543.5609, 69.76157
544.0430, 69.05755
544.5251, 68.73176
545.0072, 68.46581
545.4893, 68.03490
545.9714, 67.55415
546.4536, 67.12479
546.9357, 66.73332
547.4178, 66.48526
547.8999, 66.51653
548.3820, 66.68986
548.8641, 66.81583
549.3463, 66.86403
549.8284, 66.85179
550.3105, 66.65263
550.7926, 66.35368
551.2747, 66.45642
551.7568, 67.22541
552.2390, 67.96519
552.7211, 68.34288
553.2032, 68.32073
553.6853, 68.38851
554.1674, 68.55748
554.6495, 68.78130
555.1317, 69.00082
555.6138, 69.22387
556.0959, 69.56469
556.5780, 70.09348
557.0601, 70.62135
557.5422, 70.75632
558.0244, 70.65923
558.5065, 70.79855
558.9886, 71.61590
559.4707, 72.60131
559.9528, 73.28139
560.4349, 73.71074
560.9171, 74.22786
561.3992, 75.07915
561.8813, 76.00056
562.3634, 76.81192
562.8455, 77.45788
563.3276, 78.12470
563.8098, 78.84843
564.2919, 79.59590
564.7740, 80.34830
565.2561, 81.12048
565.7382, 81.85833
566.2203, 82.52434
566.7025, 83.18281
567.1846, 84.00434
567.6667, 85.02845
568.1488, 86.00294
568.6309, 86.90391
569.1130, 87.66420
569.5952, 87.92890
570.0773, 87.70726
570.5594, 87.36991
571.0415, 87.16534
571.5236, 87.03509
572.0057, 86.89368
572.4879, 86.73168
572.9700, 86.54276
573.4521, 86.33372
573.9342, 86.08977
574.4163, 85.79369
574.8984, 85.23664
575.3806, 84.85910
575.8627, 84.72102
576.3448, 84.84695
576.8269, 85.30497
577.3090, 86.32272
577.7911, 87.40733
578.2733, 88.38611
578.7554, 89.25623
579.2375, 90.51500
579.7196, 92.19611
580.2017, 94.17243
580.6838, 96.42870
581.1660, 98.94958
581.6481, 101.3538
582.1302, 103.5887
582.6123, 105.8039
583.0944, 108.0531
583.5765, 110.3908
584.0587, 113.0094
584.5408, 115.9929
585.0229, 119.1879
585.5050, 122.3884
585.9871, 125.6934
586.4692, 129.2813
586.9514, 133.0713
587.4335, 137.3469
587.9155, 142.2423
588.3976, 147.7539
588.8798, 153.7145
589.3619, 160.1376
589.8440, 166.9783
590.3261, 174.2060
590.8082, 181.7122
591.2903, 189.7183
591.7725, 198.1782
592.2546, 207.1922
592.7367, 217.0718
593.2188, 227.9342
593.7009, 238.5501
594.1830, 249.0041
594.6652, 258.6822
595.1473, 267.2884
595.6294, 274.6626
596.1115, 279.9851
596.5936, 283.1786
597.0757, 283.9444
597.5579, 281.5524
598.0400, 276.2728
598.5221, 269.2633
599.0042, 259.8186
599.4863, 249.8561
599.9684, 240.5410
600.4506, 232.1109
600.9327, 224.1808
601.4148, 216.2829
601.8969, 209.1146
602.3790, 203.2070
602.8611, 199.2238
603.3433, 195.0887
603.8254, 190.3920
604.3075, 185.8827
604.7896, 182.8117
605.2717, 181.2063
605.7538, 180.6665
606.2360, 181.1204
606.7181, 182.5533
607.2002, 185.0115
607.6823, 188.4609
608.1644, 192.6310
608.6465, 196.9996
609.1287, 202.1610
609.6108, 208.9084
610.0929, 217.2271
610.5750, 226.4657
611.0571, 236.3112
611.5392, 246.9926
612.0214, 258.8258
612.5035, 272.4198
612.9856, 285.8427
613.4677, 298.7519
613.9498, 311.4156
614.4319, 324.3918
614.9141, 338.9347
615.3962, 351.7476
615.8783, 363.0565
616.3604, 372.0773
616.8425, 377.2746
617.3246, 378.7867
617.8068, 375.0098
618.2889, 364.6039
618.7710, 349.0016
619.2531, 330.8679
619.7352, 310.3009
620.2173, 289.4599
620.6995, 269.0124
621.1816, 249.3231
621.6637, 231.0741
622.1458, 214.0652
622.6279, 198.4014
623.1100, 184.0671
623.5922, 171.1035
624.0743, 159.5554
624.5564, 149.5216
625.0385, 140.7250
625.5206, 133.2758
626.0027, 127.0095
626.4849, 121.9249
626.9670, 118.3477
627.4491, 114.9553
627.9312, 111.4463
628.4133, 108.0995
628.8954, 105.7091
629.3776, 104.2890
629.8597, 102.9703
630.3418, 101.2597
630.8239, 99.47863
631.3060, 98.27088
631.7881, 97.58993
632.2703, 97.13969
632.7524, 96.78990
633.2345, 96.54725
633.7166, 96.44942
634.1987, 96.51048
634.6808, 96.54079
635.1630, 96.37172
635.6451, 96.21109
636.1272, 96.22758
636.6093, 96.65089
637.0914, 96.83398
637.5735, 96.65524
638.0557, 96.34377
638.5378, 96.23769
639.0199, 96.41451
639.5020, 96.34390
639.9841, 95.91902
640.4662, 95.21608
640.9484, 94.29405
641.4305, 93.18682
641.9126, 92.09122
642.3947, 91.08089
642.8768, 90.13048
643.3589, 89.23313
643.8411, 88.36453
644.3232, 87.44068
644.8053, 86.32621
645.2874, 85.20776
645.7695, 84.14149
646.2516, 83.13412
646.7338, 82.27937
647.2159, 81.84107
647.6980, 81.35635
648.1801, 80.52171
648.6622, 79.05550
649.1443, 78.12866
649.6265, 77.88065
650.1086, 77.87779
650.5907, 77.60143
651.0728, 77.07436
651.5549, 76.68018
652.0370, 76.50868
652.5192, 76.43924
653.0013, 76.35208
653.4834, 76.24256
653.9655, 76.09605
654.4476, 75.83324
654.9297, 75.60841
655.4119, 75.61083
655.8940, 75.74120
656.3761, 75.69556
656.8582, 75.26701
657.3403, 74.76851
657.8224, 74.22323
658.3046, 73.64788
658.7867, 73.35308
659.2688, 73.46864
659.7509, 73.61610
660.2330, 73.57950
660.7151, 73.35838
661.1973, 73.20002
661.6794, 73.10363
662.1615, 73.07510
662.6436, 73.17417
663.1257, 73.33836
663.6078, 73.42073
664.0900, 73.38965
664.5721, 73.32378
665.0542, 73.18015
665.5363, 73.07701
666.0184, 73.16822
666.5005, 73.80399
666.9827, 74.23054
667.4648, 74.11740
667.9469, 73.70837
668.4290, 73.47293
668.9111, 73.46288
669.3932, 73.53171
669.8754, 73.68730
670.3575, 73.88392
670.8396, 73.96499
671.3217, 73.92437
671.8038, 73.85160
672.2859, 73.77585
672.7681, 73.70203
673.2502, 73.61229
673.7323, 73.51762
674.2144, 73.49731
674.6965, 73.66374
675.1786, 73.88747
675.6608, 74.01128
676.1429, 74.00864
676.6250, 74.18378
677.1071, 74.97530
677.5892, 75.72813
678.0714, 75.96642
678.5535, 75.44751
679.0356, 75.08843
679.5177, 74.93002
679.9998, 74.87731
680.4819, 74.81680
680.9641, 74.74416
681.4462, 74.84312
681.9283, 75.18517
682.4104, 75.55859
682.8925, 75.63850
683.3746, 75.51112
683.8568, 75.39875
684.3389, 75.35076
684.8210, 75.37574
685.3031, 75.45224
685.7852, 75.60900
686.2673, 75.90464
686.7495, 76.58000
687.2316, 77.16248
687.7137, 77.44064
688.1958, 77.50001
688.6779, 77.70008
689.1600, 78.13881
689.6422, 78.49604
690.1243, 78.56035
690.6064, 78.41938
691.0885, 78.76562
691.5706, 79.61769
692.0527, 80.43828
692.5349, 80.86869
693.0170, 81.03010
693.4991, 81.02554
693.9812, 80.86819
694.4633, 80.92016
694.9454, 81.68428
695.4276, 82.58179
695.9097, 83.10616
696.3918, 83.00219
696.8739, 83.07545
697.3560, 83.50765
697.8381, 84.10525
698.3203, 84.74231
698.8024, 85.45237
699.2845, 86.09756
699.7666, 86.66865
700.2487, 87.16381
700.7308, 87.54006
701.2130, 87.81951
701.6951, 88.14543
702.1772, 88.57393
702.6593, 89.01699
703.1414, 89.42966
703.6235, 89.77254
704.1057, 89.96503
704.5878, 89.74352
705.0699, 89.60904
705.5520, 89.95276
706.0341, 90.56002
706.5162, 90.73353
706.9984, 90.03480
707.4805, 89.49134
707.9626, 89.38013
708.4447, 89.61842
708.9268, 89.76728
709.4089, 89.80830
709.8911, 89.89207
710.3732, 90.11894
710.8553, 90.44057
711.3374, 90.75179
711.8195, 91.04574
712.3016, 91.27862
712.7838, 91.27089
713.2659, 91.29080
713.7480, 91.55110
714.2301, 92.07761
714.7122, 92.80420
715.1943, 93.89582
715.6765, 95.04958
716.1586, 96.05449
716.6407, 96.83316
717.1228, 97.81483
717.6049, 99.06594
718.0870, 100.4024
718.5692, 101.6451
719.0513, 102.8047
719.5334, 103.9207
720.0155, 104.9703
720.4976, 106.2022
720.9797, 107.9950
721.4619, 110.1227
721.9440, 112.2597
722.4261, 114.2358
722.9082, 116.3128
723.3903, 118.6564
723.8724, 121.1588
724.3546, 123.7225
724.8367, 126.2280
725.3188, 128.9174
725.8009, 131.8616
726.2830, 135.0006
726.7651, 138.1737
727.2473, 141.4104
727.7294, 144.7960
728.2115, 148.3504
728.6936, 152.0661
729.1757, 155.8398
729.6578, 159.7144
730.1400, 163.7532
730.6221, 168.0501
731.1042, 172.5137
731.5863, 177.1702
732.0684, 181.9260
732.5505, 186.4746
733.0327, 190.8158
733.5148, 194.8333
733.9969, 198.3952
734.4790, 201.5480
734.9611, 204.8564
735.4432, 208.4052
735.9254, 211.8489
736.4075, 215.3422
736.8896, 218.5755
737.3717, 220.2900
737.8538, 220.5057
738.3359, 219.6772
738.8181, 217.6607
739.3002, 215.0340
739.7823, 212.4718
740.2644, 210.0030
740.7465, 206.9697
741.2286, 202.9778
741.7108, 198.4549
742.1929, 193.4842
742.6750, 187.9437
743.1571, 182.6543
743.6392, 177.5425
744.1213, 172.7515
744.6035, 168.6000
745.0856, 165.0156
745.5677, 160.6298
746.0498, 155.3525
746.5319, 150.3796
747.0140, 147.1788
747.4962, 144.8950
747.9783, 142.2547
748.4604, 138.9072
748.9425, 135.7706
749.4246, 133.4053
749.9067, 131.4256
750.3889, 129.4673
750.8710, 127.3909
751.3531, 125.5127
751.8352, 123.8142
752.3173, 122.3147
752.7994, 121.0743
753.2816, 120.0815
753.7637, 119.2493
754.2458, 118.5784
754.7279, 117.9595
755.2100, 117.1379
755.6921, 116.2762
756.1743, 115.6962
756.6564, 115.5944
757.1385, 115.6172
757.6206, 115.7076
758.1027, 115.7666
758.5848, 115.6440
759.0670, 115.0044
759.5491, 114.6321
760.0312, 114.6575
760.5133, 114.9353
760.9954, 115.2153
761.4775, 115.5000
761.9597, 115.7622
762.4418, 115.9990
762.9239, 116.2031
763.4060, 116.2677
763.8881, 116.2803
764.3702, 116.4789
764.8524, 117.1808
765.3345, 117.8788
765.8166, 118.3243
766.2987, 118.5610
766.7808, 118.6825
767.2629, 118.5066
767.7451, 118.4993
768.2272, 118.9460
768.7093, 119.5566
769.1914, 119.3388
769.6735, 118.2250
770.1556, 117.0549
770.6378, 116.2012
771.1199, 115.4425
771.6020, 114.2368
772.0841, 112.7301
772.5662, 111.4539
773.0483, 110.9124
773.5305, 110.4734
774.0126, 109.7791
774.4947, 108.8588
774.9768, 107.9141
775.4589, 106.8486
775.9410, 105.9182
776.4232, 105.2047
776.9053, 104.6883
777.3874, 104.3034
777.8695, 104.0525
778.3516, 103.8802
778.8337, 103.7493
779.3159, 103.6824
779.7980, 103.7316
780.2801, 103.8892
780.7622, 104.1173
781.2443, 104.5097
781.7264, 104.8627
782.2086, 104.9892
782.6907, 104.9011
783.1728, 104.9793
783.6549, 105.2565
784.1370, 105.6903
784.6191, 106.3065
785.1012, 107.0783
785.5833, 107.8048
786.0654, 108.4829
786.5475, 109.1566
787.0297, 109.7676
787.5118, 110.4259
787.9939, 111.4086
788.4760, 112.6660
788.9581, 113.7509
789.4402, 114.0878
789.9224, 114.4475
790.4045, 115.3330
790.8866, 116.8116
791.3687, 118.1608
791.8508, 119.2543
792.3329, 120.3678
792.8151, 121.6644
793.2972, 123.1234
793.7793, 124.3119
794.2614, 125.2354
794.7435, 126.1217
795.2256, 127.1304
795.7078, 128.1948
796.1899, 129.3458
796.6720, 130.5506
797.1541, 131.2980
797.6362, 131.3021
798.1183, 130.8259
798.6005, 129.8914
799.0826, 128.4814
799.5647, 127.1748
800.0468, 126.0948
800.5289, 124.8455
801.0110, 123.1586
801.4932, 121.0825
801.9753, 118.8296
802.4574, 116.4095
802.9395, 114.1335
803.4216, 112.3158
803.9037, 110.7032
804.3859, 109.0085
804.8680, 107.2176
805.3501, 105.5853
805.8322, 104.2020
806.3143, 102.9802
806.7964, 101.8697
807.2786, 100.8815
807.7607, 99.98367
808.2428, 99.19775
808.7249, 98.42568
809.2070, 97.52698
809.6891, 96.59524
810.1713, 95.94498
810.6534, 95.57629
811.1355, 95.36640
811.6176, 95.34975
812.0997, 95.37297
812.5818, 95.34669
813.0640, 95.26296
813.5461, 95.05287
814.0282, 94.56448
814.5103, 94.10794
814.9924, 93.83418
815.4745, 93.73213
815.9567, 93.52824
816.4388, 93.20763
816.9209, 92.93140
817.4030, 92.89133
817.8851, 92.93298
818.3672, 92.70540
818.8494, 92.24928
819.3315, 91.92680
819.8136, 92.06315
820.2957, 92.27598
820.7778, 92.35489
821.2599, 92.28489
821.7421, 92.21742
822.2242, 92.18726
822.7063, 92.08955
823.1884, 91.81181
823.6705, 91.42615
824.1526, 91.35264
824.6348, 91.57460
825.1169, 91.79737
825.5990, 91.84873
826.0811, 91.79651
826.5632, 91.65971
827.0453, 91.46220
827.5275, 91.34060
828.0096, 91.40650
828.4917, 91.48488
828.9738, 91.49977
829.4559, 91.46580
829.9380, 91.53521
830.4202, 91.76062
830.9023, 91.80706
831.3844, 91.36028
831.8665, 90.73667
832.3486, 90.77209
832.8307, 91.32523
833.3129, 91.75737
833.7950, 91.59599
834.2771, 91.33411
834.7592, 91.23139
835.2413, 91.27161
835.7234, 91.35129
836.2056, 91.46252
836.6877, 91.61355
837.1698, 91.86443
837.6519, 92.12341
838.1340, 91.99338
838.6161, 91.50570
839.0983, 91.25929
839.5804, 91.69966
840.0625, 92.28780
840.5446, 92.38048
841.0267, 92.11783
841.5089, 91.84306
841.9910, 91.53746
842.4731, 91.40414
842.9552, 91.62582
843.4373, 92.02306
843.9194, 92.20969
844.4016, 92.12303
844.8837, 92.14275
845.3658, 92.43432
845.8479, 92.73851
846.3300, 92.42705
846.8121, 91.74619
847.2943, 91.41496
847.7764, 91.96337
848.2585, 92.49660
848.7406, 92.35562
849.2227, 91.90552
849.7048, 91.72054
850.1870, 91.97904
850.6691, 92.30336
851.1512, 92.72348
851.6333, 93.12191
852.1154, 93.28281
852.5975, 93.23181
853.0797, 93.24081
853.5618, 93.37772
854.0439, 93.52486
854.5260, 93.53365
855.0081, 93.49183
855.4902, 93.51003
855.9724, 93.60146
856.4545, 93.78663
856.9366, 94.21837
857.4187, 94.62340
857.9008, 94.71469
858.3829, 94.41303
858.8651, 94.35268
859.3472, 94.60818
859.8293, 94.90027
860.3114, 94.82400
860.7935, 94.61589
861.2756, 94.78055
861.7578, 95.43030
862.2399, 95.97451
862.7220, 96.04844
863.2041, 95.95909
863.6862, 95.93332
864.1683, 96.00361
864.6505, 95.98962
865.1326, 95.84814
865.6147, 95.74297
866.0968, 95.84497
866.5789, 96.08605
867.0610, 96.11509
867.5432, 95.94662
868.0253, 95.92597
868.5074, 96.47466
868.9895, 97.11015
869.4716, 97.42009
869.9537, 97.39239
870.4359, 97.50993
870.9180, 97.93670
871.4001, 98.31557
871.8822, 98.47378
872.3643, 98.47598
872.8464, 98.69588
873.3286, 99.12228
873.8107, 99.51683
874.2928, 99.76749
874.7749, 99.90722
875.2570, 99.83275
875.7391, 99.66148
876.2213, 99.75078
876.7034, 100.6041
877.1855, 101.2580
877.6676, 101.3372
878.1497, 101.1286
878.6318, 101.4181
879.1140, 102.2705
879.5961, 102.9865
880.0782, 103.3416
880.5603, 103.5643
881.0424, 103.9728
881.5245, 104.5020
882.0067, 105.0132
882.4888, 105.3911
882.9709, 105.8505
883.4530, 106.6560
883.9351, 107.4889
884.4172, 107.8956
884.8994, 107.6421
885.3815, 107.7828
885.8636, 108.4372
886.3457, 109.3791
886.8278, 110.4965
887.3099, 111.6599
887.7921, 112.5526
888.2742, 113.0910
888.7563, 113.5672
889.2384, 114.1145
889.7205, 114.6961
890.2026, 115.2932
890.6848, 115.9180
891.1669, 116.4709
891.6490, 116.9117
892.1311, 117.3661
892.6132, 118.0360
893.0953, 118.8030
893.5775, 119.1109
894.0596, 118.9744
894.5417, 118.8110
895.0238, 118.8261
895.5059, 118.9748
895.9880, 119.4256
896.4702, 120.1222
896.9523, 120.1388
897.4344, 119.1247
897.9165, 117.9835
898.3986, 116.9725
898.8807, 116.0982
899.3629, 115.4638
899.8450, 115.0470
900.3271, 114.7282
900.8092, 114.6215
901.2913, 114.4002
901.7734, 113.5123
902.2556, 112.3354
902.7377, 111.6526
903.2198, 112.3369
903.7019, 112.6061
904.1840, 112.1527
904.6661, 111.3200
905.1483, 110.6023
905.6304, 109.9968
906.1125, 109.6433
906.5946, 109.6257
907.0767, 109.6077
907.5588, 109.1560
908.0410, 108.5451
908.5231, 108.1143
909.0052, 107.9992
909.4873, 107.9061
909.9694, 107.8044
910.4515, 107.6942
910.9337, 107.5477
911.4158, 107.3584
911.8979, 107.3475
912.3800, 107.5288
912.8621, 107.6770
913.3442, 107.5183
913.8264, 107.2817
914.3085, 107.2374
914.7906, 107.3936
915.2727, 107.5830
915.7548, 107.8569
916.2369, 108.0422
916.7191, 108.0710
917.2012, 107.9619
917.6833, 107.7767
918.1654, 107.5120
918.6475, 107.3326
919.1296, 107.2763
919.6118, 107.3855
920.0939, 107.9035
920.5760, 108.6223
921.0581, 109.0494
921.5402, 108.7909
922.0223, 108.4982
922.5045, 108.1540
922.9866, 107.9422
923.4687, 108.2493
923.9508, 109.1307
924.4329, 109.6963
924.9150, 109.7527
925.3972, 109.6733
925.8793, 109.8079
926.3614, 110.0986
926.8435, 110.5116
927.3256, 111.1200
927.8077, 111.5146
928.2899, 111.3742
928.7720, 111.1515
929.2541, 111.0617
929.7362, 111.1006
930.2183, 111.4594
930.7004, 112.1656
931.1826, 112.8188
931.6647, 113.0122
932.1468, 113.0531
932.6289, 113.4041
933.1110, 114.0073
933.5931, 114.4409
934.0753, 114.2676
934.5574, 114.2614
935.0395, 114.7533
935.5216, 115.5516
936.0037, 116.0032
936.4858, 116.1071
936.9680, 116.1043
937.4501, 116.0361
937.9322, 115.9602
938.4143, 115.8696
938.8964, 115.8406
939.3785, 116.0220
939.8607, 116.7531
940.3428, 117.1888
940.8249, 116.9016
941.3070, 116.5482
941.7891, 116.7964
942.2712, 117.6705
942.7534, 118.5053
943.2355, 119.2837
943.7176, 119.8751
944.1997, 120.0239
944.6818, 120.0251
945.1639, 120.2248
945.6461, 120.6586
946.1282, 121.0476
946.6103, 121.2080
947.0924, 121.4596
947.5745, 121.9193
948.0566, 122.5665
948.5388, 123.3526
949.0209, 124.2660
949.5030, 125.0625
949.9851, 125.5149
950.4672, 125.9281
950.9493, 126.6148
951.4315, 127.4800
951.9136, 128.3295
952.3957, 129.1810
952.8778, 129.9013
953.3599, 130.3882
953.8420, 130.8514
954.3242, 131.5207
954.8063, 132.4024
955.2884, 133.6959
955.7705, 135.4840
956.2526, 137.1897
956.7347, 138.1306
957.2169, 138.8835
957.6990, 139.9407
958.1811, 141.3871
958.6632, 143.2095
959.1453, 145.7251
959.6274, 147.9841
960.1096, 149.2710
960.5917, 149.9348
961.0738, 151.4827
961.5559, 153.8227
962.0380, 156.3212
962.5201, 158.6015
963.0023, 160.9895
963.4844, 163.8208
963.9665, 166.9284
964.4486, 169.8152
964.9307, 172.3807
965.4128, 174.9729
965.8950, 177.6004
966.3771, 180.3184
966.8592, 183.1943
967.3413, 186.2420
967.8234, 189.5631
968.3055, 193.1335
968.7877, 197.0660
969.2698, 201.5217
969.7519, 206.2533
970.2340, 210.9643
970.7161, 215.5991
971.1982, 221.0865
971.6804, 227.5671
972.1625, 234.4081
972.6446, 241.1888
973.1267, 248.1651
973.6088, 255.8620
974.0909, 264.2217
974.5731, 272.9923
975.0552, 281.9308
975.5373, 291.5393
976.0194, 302.3282
976.5015, 313.7948
976.9836, 325.0511
977.4658, 335.9072
977.9479, 347.6276
978.4300, 360.5339
978.9121, 373.6260
979.3942, 386.1770
979.8763, 398.2052
980.3585, 410.0399
980.8406, 421.9891
981.3227, 432.1356
981.8048, 440.3678
982.2869, 446.8121
982.7690, 451.6223
983.2511, 454.7492
983.7332, 455.6832
984.2153, 454.4310
984.6974, 451.1568
985.1796, 445.7176
985.6617, 438.5094
986.1438, 428.5982
986.6259, 417.1634
987.1080, 407.7654
987.5901, 401.0338
988.0723, 395.4023
988.5544, 390.4979
989.0365, 386.9931
989.5186, 385.7342
990.0007, 386.7646
990.4828, 390.1755
990.9650, 395.9758
991.4471, 404.2104
991.9292, 415.6764
992.4113, 429.0206
992.8934, 443.3694
993.3755, 458.5997
993.8577, 475.2120
994.3398, 492.9614
994.8219, 512.6500
995.3040, 534.3204
995.7861, 558.4193
996.2682, 586.1293
996.7504, 617.1371
997.2325, 651.2516
997.7146, 687.2075
998.1967, 727.9850
998.6788, 774.6563
999.1609, 826.1110
999.6431, 881.3966
1000.125, 939.6454
1000.607, 1002.775
1001.089, 1070.939
1001.572, 1139.784
1002.054, 1210.739
1002.536, 1276.448
1003.018, 1333.257
1003.500, 1380.336
1003.982, 1405.752
1004.464, 1409.209
1004.946, 1392.062
1005.428, 1353.169
1005.911, 1295.000
1006.393, 1222.516
1006.875, 1137.152
1007.357, 1049.776
1007.839, 958.3281
1008.321, 872.4078
1008.803, 795.0500
1009.285, 726.4289
1009.768, 665.3434
1010.250, 611.7126
1010.732, 564.0045
1011.214, 522.9066
1011.696, 486.5091
1012.178, 454.0165
1012.660, 425.4158
1013.142, 400.8034
1013.624, 380.2011
1014.107, 361.3979
1014.589, 344.2761
1015.071, 328.4926
1015.553, 313.9882
1016.035, 300.8690
1016.517, 289.7467
1016.999, 280.5436
1017.481, 272.0103
1017.964, 263.8055
1018.446, 256.1074
1018.928, 248.9439
1019.410, 242.3261
1019.892, 236.3025
1020.374, 230.9654
1020.856, 225.9591
1021.338, 221.2461
1021.820, 216.9461
1022.303, 213.1976
1022.785, 209.9573
1023.267, 207.2946
1023.749, 205.1317
1024.231, 203.0355
1024.713, 200.6867
1025.195, 198.4855
1025.677, 196.5969
1026.160, 194.9599
1026.642, 193.4904
1027.124, 192.2052
1027.606, 190.6749
1028.088, 188.6955
1028.570, 186.9888
1029.052, 186.3849
1029.534, 186.4163
1030.016, 186.6503
1030.499, 187.1177
1030.981, 187.1336
1031.463, 186.2062
1031.945, 185.7162
1032.427, 186.5743
1032.909, 188.2938
1033.391, 189.2971
1033.873, 189.6874
1034.355, 189.9230
1034.838, 189.9844
1035.320, 190.2225
1035.802, 190.7827
1036.284, 191.6309
1036.766, 192.7300
1037.248, 194.1292
1037.730, 195.4971
1038.212, 196.8173
1038.695, 197.9937
1039.177, 199.0329
1039.659, 199.8002
1040.141, 200.0034
1040.623, 199.6711
1041.105, 199.3866
1041.587, 199.4122
1042.069, 199.2990
1042.552, 199.0593
1043.034, 198.4710
1043.516, 196.9508
1043.998, 194.6029
1044.480, 191.9036
1044.962, 188.8310
1045.444, 185.7848
1045.926, 183.1713
1046.408, 180.5549
1046.891, 177.5221
1047.373, 173.9890
1047.855, 170.8000
1048.337, 167.9668
1048.819, 165.3821
1049.301, 163.0111
1049.783, 160.8346
1050.265, 158.8081
1050.747, 156.9371
1051.230, 155.2150
1051.712, 153.3725
1052.194, 152.1279
1052.676, 151.7067
1053.158, 151.6228
1053.640, 151.2100
1054.122, 150.6042
1054.604, 150.3567
1055.087, 150.5259
1055.569, 150.8591
1056.051, 151.1944
1056.533, 151.6600
1057.015, 152.2801
1057.497, 153.0838
1057.979, 154.2709
1058.461, 155.8512
1058.943, 157.7290
1059.426, 159.9409
1059.908, 162.2952
1060.390, 164.6164
1060.872, 166.9490
1061.354, 169.3194
1061.836, 171.5405
1062.318, 174.2907
1062.800, 177.5598
1063.282, 181.4151
1063.765, 186.2053
1064.247, 191.6087
1064.729, 196.3187
1065.211, 200.5535
1065.693, 205.1462
1066.175, 210.4863
1066.657, 216.2902
1067.139, 222.5286
1067.622, 229.2407
1068.104, 236.6758
1068.586, 244.7983
1069.068, 252.9530
1069.550, 261.1461
1070.032, 268.7989
1070.514, 275.4655
1070.996, 281.3329
1071.479, 287.2316
1071.961, 292.9117
1072.443, 295.2253
1072.925, 293.7932
1073.407, 290.0928
1073.889, 284.4164
1074.371, 276.8312
1074.853, 266.4286
1075.335, 254.2946
1075.818, 242.1429
1076.300, 230.3334
1076.782, 219.0930
1077.264, 208.4291
1077.746, 198.5093
1078.228, 189.6143
1078.710, 181.7245
1079.192, 174.7161
1079.674, 168.6240
1080.157, 163.4915
1080.639, 159.5084
1081.121, 156.2164
1081.603, 153.8129
1082.085, 151.7680
1082.567, 149.2611
1083.049, 146.1133
1083.531, 143.2893
1084.013, 140.7726
1084.496, 138.8956
1084.978, 138.3832
1085.460, 138.3620
1085.942, 137.8289
1086.424, 136.8124
1086.906, 135.8893
1087.388, 135.1681
1087.870, 134.5124
1088.353, 133.9187
1088.835, 133.3372
1089.317, 132.6655
1089.799, 131.9529
1090.281, 131.2732
1090.763, 130.6111
1091.245, 130.2231
1091.727, 130.6082
1092.209, 130.8671
1092.692, 130.4317
1093.174, 129.5253
1093.656, 129.4085
1094.138, 129.9836
1094.620, 130.4060
1095.102, 130.3297
1095.584, 130.0252
1096.066, 129.5078
1096.548, 128.9690
1097.031, 128.6255
1097.513, 128.4987
1097.995, 128.4863
1098.477, 128.5893
1098.959, 128.8062
1099.441, 129.2766
1099.923, 129.7575
1100.405, 129.9363
1100.888, 129.8908
1101.370, 129.8441
1101.852, 129.8083
1102.334, 129.8420
1102.816, 129.9655
1103.298, 130.1261
1103.780, 130.2255
1104.262, 130.3259
1104.745, 130.6144
1105.227, 131.0935
1105.709, 131.5205
1106.191, 131.6774
1106.673, 131.9135
1107.155, 132.3728
1107.637, 132.9590
1108.119, 133.3506
1108.601, 133.6251
1109.083, 134.2830
1109.566, 135.4982
1110.048, 136.8076
1110.530, 137.7198
1111.012, 138.7758
1111.494, 140.5006
1111.976, 142.8320
1112.458, 144.7644
1112.940, 146.2807
1113.423, 148.1003
1113.905, 150.6550
1114.387, 153.4748
1114.869, 155.9442
1115.351, 158.3941
1115.833, 161.2601
1116.315, 164.7100
1116.797, 168.1900
1117.280, 171.6221
1117.762, 175.4846
1118.244, 180.2311
1118.726, 185.5489
1119.208, 190.9426
1119.690, 196.5715
1120.172, 202.9632
1120.654, 210.4626
1121.136, 218.6212
1121.619, 227.6379
1122.101, 236.8281
1122.583, 246.1340
1123.065, 254.9124
1123.547, 261.3066
1124.029, 265.1844
1124.511, 266.6192
1124.993, 266.1218
1125.475, 262.3235
1125.958, 254.2696
1126.440, 243.4645
1126.922, 232.3710
1127.404, 221.1155
1127.886, 210.5745
1128.368, 200.8217
1128.850, 192.5586
1129.332, 186.7607
1129.815, 182.2613
1130.297, 178.1638
1130.779, 174.4741
1131.261, 171.5981
1131.743, 169.5291
1132.225, 168.4945
1132.707, 168.8073
1133.189, 169.5435
1133.672, 169.7127
1134.154, 169.8406
1134.636, 170.5545
1135.118, 171.9729
1135.600, 173.6034
1136.082, 175.4819
1136.564, 177.4551
1137.046, 179.7075
1137.528, 181.7576
1138.010, 182.9042
1138.493, 183.3458
1138.975, 183.4311
1139.457, 183.2347
1139.939, 182.7086
1140.421, 181.9943
1140.903, 180.6031
1141.385, 177.9223
1141.867, 174.3500
1142.350, 170.4934
1142.832, 166.4820
1143.314, 162.6099
1143.796, 158.8554
1144.278, 155.5300
1144.760, 152.7240
1145.242, 150.2621
1145.724, 147.9888
1146.207, 145.9219
1146.689, 144.0519
1147.171, 142.4035
1147.653, 141.0639
1148.135, 140.3398
1148.617, 139.6888
1149.099, 138.9491
1149.581, 138.1178
1150.063, 137.0939
1150.546, 135.9359
1151.028, 135.0600
1151.510, 134.5621
1151.992, 134.1369
1152.474, 133.5543
1152.956, 133.0070
1153.438, 132.5569
1153.920, 132.2439
1154.402, 132.3734
1154.885, 132.9279
1155.367, 133.2026
1155.849, 132.9309
1156.331, 132.5642
1156.813, 132.5127
1157.295, 132.5271
1157.777, 132.2996
1158.259, 131.8306
1158.742, 131.7404
1159.224, 132.0606
1159.706, 132.3399
1160.188, 132.3213
1160.670, 132.3067
1161.152, 132.7784
1161.634, 133.3697
1162.116, 133.5345
1162.599, 133.0539
1163.081, 132.7940
1163.563, 132.7316
1164.045, 133.0034
1164.527, 134.0471
1165.009, 135.1499
1165.491, 135.1848
1165.973, 134.6215
1166.455, 134.4049
1166.938, 135.0389
1167.420, 135.3448
1167.902, 135.2099
1168.384, 135.1019
1168.866, 135.4755
1169.348, 136.0893
1169.830, 136.5617
1170.312, 136.9245
1170.794, 137.3033
1171.277, 137.7519
1171.759, 138.1741
1172.241, 138.5377
1172.723, 138.9318
1173.205, 139.4428
1173.687, 140.0605
1174.169, 140.8527
1174.651, 141.7854
1175.134, 142.5950
1175.616, 143.1104
1176.098, 143.5966
1176.580, 144.0581
1177.062, 144.5849
1177.544, 145.3354
1178.026, 146.2470
1178.508, 147.2591
1178.990, 148.3517
1179.473, 149.2141
1179.955, 149.3081
1180.437, 149.7130
1180.919, 150.8103
1181.401, 152.3019
1181.883, 153.8684
1182.365, 155.3454
1182.847, 156.2258
1183.329, 156.4304
1183.812, 155.9260
1184.294, 153.8266
1184.776, 152.0316
1185.258, 151.4492
1185.740, 151.5732
1186.222, 150.9011
1186.704, 149.5921
1187.186, 148.2072
1187.669, 146.8069
1188.151, 145.6458
1188.633, 145.0498
1189.115, 144.5382
1189.597, 143.8360
1190.079, 143.0111
1190.561, 142.4130
1191.043, 141.9854
1191.526, 141.4639
1192.008, 140.6889
1192.490, 139.9747
1192.972, 139.5401
1193.454, 139.1659
1193.936, 138.7137
1194.418, 138.1872
1194.900, 137.6074
1195.382, 136.9852
1195.865, 136.3461
1196.347, 135.6071
1196.829, 135.0110
1197.311, 134.5982
1197.793, 134.4594
1198.275, 134.8023
1198.757, 135.6058
1199.239, 135.8197
1199.721, 135.4867
1200.204, 135.0145
1200.686, 134.3416
1201.168, 133.9154
1201.650, 134.2655
1202.132, 134.7595
1202.614, 134.6541
1203.096, 133.9548
1203.578, 133.5670
1204.061, 133.4954
1204.543, 133.5330
1205.025, 133.5478
1205.507, 133.6444
1205.989, 133.9407
1206.471, 134.3178
1206.953, 134.6667
1207.435, 134.9872
1207.917, 134.9330
1208.400, 134.5074
1208.882, 134.1925
1209.364, 134.5471
1209.846, 134.8510
1210.328, 134.6079
1210.810, 134.0997
1211.292, 133.7067
1211.774, 133.4250
1212.256, 133.2253
1212.739, 133.1034
1213.221, 133.0632
1213.703, 133.2072
1214.185, 133.3283
1214.667, 133.2710
1215.149, 133.1310
1215.631, 133.0473
1216.113, 133.0249
1216.596, 133.2200
1217.078, 133.6622
1217.560, 133.9708
1218.042, 133.7095
1218.524, 133.4349
1219.006, 133.5330
1219.488, 133.8101
1219.970, 133.7588
1220.453, 133.4243
1220.935, 133.4196
1221.417, 133.8679
1221.899, 134.2308
1222.381, 134.0533
1222.863, 133.7958
1223.345, 133.7259
1223.827, 133.7696
1224.309, 133.6859
1224.792, 133.5048
1225.274, 133.5080
1225.756, 133.7752
1226.238, 133.9723
1226.720, 133.7532
1227.202, 133.5603
1227.684, 133.6910
1228.166, 133.9894
1228.648, 133.8239
1229.131, 133.3343
1229.613, 133.4046
1230.095, 134.3648
1230.577, 135.0705
1231.059, 134.5492
1231.541, 133.9573
1232.023, 133.8767
1232.505, 134.1831
1232.988, 134.6261
1233.470, 135.1080
1233.952, 135.1404
1234.434, 134.4874
1234.916, 133.9106
1235.398, 133.8465
1235.880, 133.8917
1236.362, 133.8954
1236.844, 133.8464
1237.327, 133.6282
1237.809, 133.3217
1238.291, 133.2383
1238.773, 133.5630
1239.255, 133.7360
1239.737, 133.2975
1240.219, 132.9862
1240.701, 133.2332
1241.183, 133.7614
1241.666, 133.6761
1242.148, 133.1966
1242.630, 132.9297
1243.112, 133.0459
1243.594, 133.4228
1244.076, 134.3966
1244.558, 134.9848
1245.040, 134.5043
1245.523, 133.4925
1246.005, 133.3286
1246.487, 133.7111
1246.969, 133.9258
1247.451, 133.7043
1247.933, 133.5101
1248.415, 133.3126
1248.897, 133.3426
1249.380, 133.8494
1249.862, 134.5327
1250.344, 134.7223
1250.826, 134.6113
1251.308, 134.5724
1251.790, 134.7815
1252.272, 134.8095
1252.754, 134.5733
1253.236, 134.3757
1253.719, 134.4155
1254.201, 134.5618
1254.683, 134.5753
1255.165, 134.5573
1255.647, 134.7094
1256.129, 135.2349
1256.611, 135.3900
1257.093, 135.0966
1257.575, 134.8129
1258.058, 134.7984
1258.540, 134.9268
1259.022, 135.1484
1259.504, 135.3675
1259.986, 135.4021
1260.468, 135.1758
1260.950, 135.1219
1261.432, 135.2522
1261.915, 135.4091
1262.397, 135.5250
1262.879, 135.6057
1263.361, 135.6182
1263.843, 135.6225
1264.325, 135.7192
1264.807, 135.9376
1265.289, 135.9688
1265.771, 135.8196
1266.254, 135.7344
1266.736, 135.8744
1267.218, 136.0834
1267.700, 136.4832
1268.182, 136.7196
1268.664, 136.3045
1269.146, 135.2602
1269.628, 134.9776
1270.110, 135.3680
1270.593, 135.7117
1271.075, 135.4756
1271.557, 135.3760
1272.039, 136.0022
1272.521, 136.6476
1273.003, 136.7214
1273.485, 136.3382
1273.967, 136.2571
1274.450, 136.4116
1274.932, 136.5099
1275.414, 136.2789
1275.896, 136.2410
1276.378, 136.6592
1276.860, 137.0466
1277.342, 136.9697
1277.824, 136.6211
1278.307, 136.5754
1278.789, 136.7617
1279.271, 136.9823
1279.753, 137.1799
1280.235, 137.4088
1280.717, 137.7295
1281.199, 137.9196
1281.681, 137.6822
1282.163, 137.3240
1282.646, 137.4239
1283.128, 137.8181
1283.610, 138.1785
1284.092, 138.5556
1284.574, 138.5831
1285.056, 138.2180
1285.538, 137.7363
1286.020, 137.1353
1286.502, 136.6895
1286.984, 136.8203
1287.467, 137.2516
1287.949, 137.5442
1288.431, 137.6248
1288.913, 137.9046
1289.395, 138.3911
1289.877, 138.6841
1290.359, 138.4050
1290.841, 138.0650
1291.324, 137.9194
1291.806, 137.9928
1292.288, 138.3617
1292.770, 139.0191
1293.252, 139.2933
1293.734, 139.2188
1294.216, 139.0670
1294.698, 138.8452
1295.181, 138.7621
1295.663, 139.0882
1296.145, 139.4107
1296.627, 139.3762
1297.109, 139.1148
1297.591, 139.3558
1298.073, 139.9055
1298.555, 140.1251
1299.037, 139.5242
1299.520, 139.1261
1300.002, 139.0782
1300.484, 139.2526
1300.966, 139.6228
1301.448, 140.0866
1301.930, 140.5279
1302.412, 140.9100
1302.894, 141.1456
1303.376, 141.1622
1303.859, 141.1628
1304.341, 141.1549
1304.823, 141.0125
1305.305, 140.6353
1305.787, 140.0466
##END=



