##NAMES=Veatchite
##RRUFFID=R060348
##IDEAL CHEMISTRY=Sr_2_[B_5_O_8_(OH)]_2_B(OH)_3_&#183;H_2_O
##LOCALITY=1360' level, 2S Drift, Billie mine, Death Valley, Inyo County, California, USA
##OWNER=RRUFF
##SOURCE=Michael Scott
##DESCRIPTION=Transparent white fibrous and platy mass
##STATUS=The identification of this mineral is confirmed by single-crystal X-ray diffraction and chemical analysis.
##URL=rruff.info/R060348
##MEASURED CHEMISTRY=(Sr_1.98_Ca_0.02_)_Σ=2_[B_5_O_8_(OH)]_2_B(OH)_3_·H_2_O; B and H not measured but assumed by stoichiometry
91.53320, 448.0113
92.01532, 462.8213
92.49744, 467.2825
92.97955, 463.8852
93.46167, 451.1088
93.94379, 433.8810
94.42590, 414.8470
94.90802, 395.9901
95.39014, 378.3500
95.87225, 362.0662
96.35437, 346.4340
96.83649, 330.6059
97.31860, 315.5402
97.80072, 302.4967
98.28284, 292.2037
98.76495, 283.7194
99.24707, 273.9095
99.72919, 260.4164
100.2113, 248.2600
100.6934, 238.6756
101.1755, 231.2294
101.6577, 225.0330
102.1398, 219.2068
102.6219, 213.5700
103.1040, 209.3034
103.5861, 207.2382
104.0682, 205.4130
104.5504, 202.8088
105.0325, 199.2565
105.5146, 195.1557
105.9967, 191.0574
106.4788, 187.0906
106.9609, 182.6553
107.4431, 176.9271
107.9252, 170.8777
108.4073, 165.8696
108.8894, 162.4006
109.3715, 160.0053
109.8536, 158.0865
110.3358, 156.8614
110.8179, 155.1656
111.3000, 151.9129
111.7821, 147.3004
112.2642, 143.2659
112.7463, 140.6546
113.2285, 138.9803
113.7106, 137.7478
114.1927, 136.8927
114.6748, 136.4573
115.1569, 136.7162
115.6390, 138.1709
116.1212, 139.0012
116.6033, 138.5327
117.0854, 137.3341
117.5675, 135.7932
118.0496, 133.9984
118.5317, 132.1447
119.0139, 131.1968
119.4960, 132.0265
119.9781, 132.9414
120.4602, 133.2653
120.9423, 133.4599
121.4244, 134.5189
121.9066, 137.4029
122.3887, 142.3968
122.8708, 145.0698
123.3529, 144.4695
123.8350, 143.0364
124.3171, 141.4643
124.7993, 139.9757
125.2814, 138.9443
125.7635, 138.9441
126.2456, 140.3406
126.7277, 140.5439
127.2098, 138.3598
127.6920, 135.4806
128.1741, 133.9386
128.6562, 134.3594
129.1383, 135.0430
129.6204, 133.2014
130.1025, 129.1168
130.5847, 126.1217
131.0668, 126.4877
131.5489, 129.2112
132.0310, 130.6431
132.5131, 129.0390
132.9952, 127.0057
133.4774, 127.0227
133.9595, 129.1135
134.4416, 131.4274
134.9237, 132.1231
135.4058, 130.9038
135.8879, 130.1636
136.3701, 131.5995
136.8522, 132.8593
137.3343, 132.3330
137.8164, 129.6568
138.2985, 125.9980
138.7806, 123.3447
139.2628, 122.3881
139.7449, 121.2351
140.2270, 119.4458
140.7091, 117.5201
141.1912, 115.6978
141.6733, 114.0989
142.1555, 112.9759
142.6376, 113.2471
143.1197, 117.1592
143.6018, 120.0379
144.0839, 121.2443
144.5660, 121.1096
145.0482, 120.0851
145.5303, 118.3342
146.0124, 115.9914
146.4945, 114.0442
146.9766, 112.4391
147.4587, 111.1753
147.9409, 110.5810
148.4230, 110.4693
148.9051, 110.0120
149.3872, 108.5168
149.8693, 106.1242
150.3514, 104.0129
150.8336, 102.3661
151.3157, 100.9072
151.7978, 99.39070
152.2799, 97.79333
152.7620, 96.20641
153.2441, 94.53470
153.7263, 92.92095
154.2084, 91.65450
154.6905, 91.11740
155.1726, 90.96474
155.6547, 90.30000
156.1368, 88.62173
156.6190, 87.38205
157.1011, 87.89608
157.5832, 89.36059
158.0653, 90.17434
158.5474, 88.86052
159.0295, 85.65507
159.5117, 83.76846
159.9938, 84.97451
160.4759, 85.79826
160.9580, 84.52904
161.4401, 81.73366
161.9222, 79.06316
162.4044, 78.16716
162.8865, 79.49606
163.3686, 79.91894
163.8507, 78.59025
164.3328, 77.15536
164.8149, 76.29612
165.2971, 76.05481
165.7792, 76.09434
166.2613, 75.98206
166.7434, 75.46033
167.2255, 75.63791
167.7076, 77.37415
168.1898, 79.13100
168.6719, 79.53364
169.1540, 78.40195
169.6361, 76.97468
170.1182, 77.13796
170.6003, 80.08281
171.0825, 81.52389
171.5646, 79.98858
172.0467, 77.34987
172.5288, 75.78593
173.0109, 75.96877
173.4930, 76.97144
173.9752, 77.34298
174.4573, 77.05910
174.9394, 76.69485
175.4215, 76.44491
175.9036, 76.23330
176.3857, 75.86967
176.8679, 75.23515
177.3500, 74.52093
177.8321, 73.93786
178.3142, 73.46617
178.7963, 73.18426
179.2784, 73.30016
179.7606, 73.74358
180.2427, 73.90718
180.7248, 73.36565
181.2069, 72.71130
181.6890, 72.48418
182.1711, 72.73399
182.6533, 73.13438
183.1354, 73.39828
183.6175, 73.51464
184.0996, 73.58321
184.5817, 73.87773
185.0638, 73.96375
185.5460, 73.35734
186.0281, 71.98606
186.5102, 70.53059
186.9923, 70.17704
187.4744, 71.75082
187.9565, 72.17696
188.4387, 69.54447
188.9208, 66.69557
189.4029, 66.06924
189.8850, 68.31071
190.3671, 71.70741
190.8492, 72.91854
191.3314, 70.03850
191.8135, 67.94236
192.2956, 67.47232
192.7777, 67.55348
193.2598, 67.13111
193.7419, 65.80976
194.2241, 64.10445
194.7062, 63.26040
195.1883, 64.85791
195.6704, 65.50011
196.1525, 64.24784
196.6346, 62.28263
197.1168, 61.10457
197.5989, 61.39454
198.0810, 62.51835
198.5631, 62.60361
199.0452, 60.12726
199.5273, 58.67447
200.0095, 59.86993
200.4916, 62.31557
200.9737, 63.59755
201.4558, 62.48535
201.9379, 59.87722
202.4200, 58.34051
202.9022, 58.11965
203.3843, 58.23313
203.8664, 58.45001
204.3485, 58.75470
204.8306, 59.21911
205.3127, 60.13202
205.7949, 60.89876
206.2770, 60.15504
206.7591, 57.06773
207.2412, 54.37678
207.7233, 54.07185
208.2054, 55.77657
208.6876, 57.16203
209.1697, 57.15516
209.6518, 56.41677
210.1339, 55.88891
210.6160, 55.50515
211.0981, 55.62579
211.5803, 57.17341
212.0624, 60.15498
212.5445, 61.80133
213.0266, 59.79400
213.5087, 56.77161
213.9908, 55.25417
214.4730, 55.75691
214.9551, 56.95697
215.4372, 57.59094
215.9193, 57.65966
216.4014, 57.17026
216.8836, 54.93461
217.3657, 52.80420
217.8478, 52.24453
218.3299, 53.63099
218.8120, 55.78918
219.2941, 57.13749
219.7763, 57.45254
220.2584, 57.67242
220.7405, 58.32909
221.2226, 58.74195
221.7047, 58.13018
222.1868, 56.33935
222.6690, 54.33341
223.1511, 53.81282
223.6332, 55.76820
224.1153, 56.94838
224.5974, 56.48313
225.0795, 55.61255
225.5617, 55.18221
226.0438, 55.44099
226.5259, 56.12201
227.0080, 56.81544
227.4901, 57.72437
227.9722, 58.22686
228.4544, 58.18727
228.9365, 57.87456
229.4186, 57.38686
229.9007, 56.79007
230.3828, 56.23775
230.8649, 56.01612
231.3471, 56.42148
231.8292, 56.70060
232.3113, 56.71436
232.7934, 56.69279
233.2755, 56.83200
233.7576, 57.18263
234.2398, 57.66593
234.7219, 58.18827
235.2040, 59.22462
235.6861, 59.32311
236.1682, 57.40631
236.6503, 55.15129
237.1325, 54.00365
237.6146, 54.35722
238.0967, 55.82463
238.5788, 58.05468
239.0609, 62.09499
239.5430, 64.21513
240.0252, 63.01930
240.5073, 60.45788
240.9894, 58.18430
241.4715, 56.59029
241.9536, 55.73755
242.4357, 55.89384
242.9179, 57.36651
243.4000, 58.48840
243.8821, 59.10958
244.3642, 59.30185
244.8463, 58.98828
245.3284, 58.12602
245.8106, 57.20757
246.2927, 56.92953
246.7748, 57.33103
247.2569, 57.35106
247.7390, 56.40841
248.2211, 55.18559
248.7033, 54.62843
249.1854, 54.95230
249.6675, 55.33811
250.1496, 54.84108
250.6317, 53.59714
251.1138, 52.50557
251.5960, 51.70283
252.0781, 51.16729
252.5602, 50.91896
253.0423, 50.99293
253.5244, 51.16792
254.0065, 51.14047
254.4887, 51.04240
254.9708, 51.30781
255.4529, 52.38313
255.9350, 53.74743
256.4171, 54.82574
256.8992, 55.68829
257.3813, 55.86430
257.8635, 53.97779
258.3456, 51.22902
258.8277, 49.75640
259.3098, 51.07393
259.7919, 53.46282
260.2740, 54.47913
260.7562, 53.93595
261.2383, 52.82508
261.7204, 50.84483
262.2025, 48.83858
262.6846, 48.00920
263.1667, 49.10622
263.6489, 51.03172
264.1310, 52.27462
264.6131, 52.72328
265.0952, 52.97309
265.5773, 53.23563
266.0594, 53.44873
266.5416, 53.44482
267.0237, 53.04603
267.5058, 52.77738
267.9879, 53.49651
268.4700, 55.44006
268.9521, 57.27161
269.4343, 58.67004
269.9164, 59.70032
270.3985, 60.29531
270.8806, 60.41878
271.3627, 60.31559
271.8448, 60.13598
272.3270, 59.76077
272.8091, 59.93164
273.2912, 61.28071
273.7733, 62.96836
274.2554, 64.65248
274.7375, 66.25597
275.2197, 67.56501
275.7018, 68.24932
276.1839, 68.19759
276.6660, 68.22886
277.1481, 68.63406
277.6302, 69.01534
278.1124, 68.87484
278.5945, 68.32624
279.0766, 68.22012
279.5587, 69.68073
280.0408, 72.94963
280.5229, 75.62112
281.0051, 77.02669
281.4872, 78.26408
281.9693, 79.82882
282.4514, 81.64760
282.9335, 83.36000
283.4156, 84.67265
283.8978, 85.58294
284.3799, 86.22246
284.8620, 86.35388
285.3441, 86.42955
285.8262, 86.27933
286.3083, 86.18326
286.7905, 86.83874
287.2726, 89.17036
287.7547, 92.79648
288.2368, 93.89007
288.7189, 90.49866
289.2010, 86.66470
289.6832, 83.37713
290.1653, 80.42232
290.6474, 77.28356
291.1295, 73.60690
291.6116, 69.66853
292.0938, 66.69614
292.5759, 65.72179
293.0580, 64.26864
293.5401, 61.08464
294.0222, 57.49361
294.5043, 55.23425
294.9865, 55.12825
295.4686, 56.08526
295.9507, 55.24712
296.4328, 50.67694
296.9149, 47.82499
297.3970, 48.89165
297.8792, 50.83799
298.3613, 50.65754
298.8434, 47.54647
299.3255, 43.53255
299.8076, 42.22488
300.2897, 45.42190
300.7719, 47.27062
301.2540, 46.39551
301.7361, 45.10473
302.2182, 44.97362
302.7003, 46.18411
303.1824, 47.73483
303.6646, 48.45433
304.1467, 48.19316
304.6288, 47.59240
305.1109, 45.91747
305.5930, 44.55385
306.0751, 44.44114
306.5573, 45.34821
307.0394, 46.26183
307.5215, 46.19347
308.0036, 45.04313
308.4857, 44.37453
308.9678, 44.42830
309.4500, 44.75407
309.9321, 45.17001
310.4142, 45.77007
310.8963, 46.89950
311.3784, 48.96066
311.8605, 51.67836
312.3427, 52.84391
312.8248, 51.12676
313.3069, 49.27877
313.7890, 47.25704
314.2711, 45.55944
314.7532, 44.99056
315.2354, 46.01316
315.7175, 47.86264
316.1996, 48.20765
316.6817, 45.36529
317.1638, 43.69304
317.6459, 44.25579
318.1281, 45.73750
318.6102, 47.25124
319.0923, 48.43935
319.5744, 49.01511
320.0565, 48.16522
320.5386, 44.37724
321.0208, 42.75642
321.5029, 45.74088
321.9850, 48.92566
322.4671, 49.14239
322.9492, 46.30707
323.4313, 42.93895
323.9135, 42.05072
324.3956, 44.45639
324.8777, 45.18622
325.3598, 41.66076
325.8419, 38.84721
326.3240, 39.25172
326.8062, 42.12062
327.2883, 44.99250
327.7704, 45.91195
328.2525, 45.00690
328.7346, 44.62123
329.2167, 45.23914
329.6989, 45.86663
330.1810, 46.34739
330.6631, 46.66576
331.1452, 46.70898
331.6273, 46.34829
332.1094, 45.90303
332.5916, 46.52067
333.0737, 49.41616
333.5558, 51.25650
334.0379, 51.21760
334.5200, 50.17803
335.0021, 48.59248
335.4843, 46.65878
335.9664, 45.08015
336.4485, 45.24530
336.9306, 47.98415
337.4127, 49.98850
337.8948, 50.55667
338.3770, 50.63429
338.8591, 50.53685
339.3412, 50.40871
339.8233, 50.49869
340.3055, 51.33222
340.7876, 53.07953
341.2697, 53.77683
341.7518, 51.79921
342.2339, 50.34654
342.7160, 51.10283
343.1982, 53.40633
343.6803, 55.59335
344.1624, 56.66261
344.6445, 56.69134
345.1266, 55.88838
345.6087, 53.26974
346.0909, 51.46585
346.5730, 51.58921
347.0551, 52.79086
347.5372, 54.18060
348.0193, 55.53843
348.5014, 56.47692
348.9836, 56.11456
349.4657, 54.02097
349.9478, 52.07526
350.4299, 50.02705
350.9120, 48.76624
351.3941, 49.49274
351.8763, 52.36407
352.3584, 55.46751
352.8405, 56.76365
353.3226, 56.21073
353.8047, 55.51110
354.2868, 54.55741
354.7690, 53.85535
355.2511, 53.80324
355.7332, 54.29610
356.2153, 54.86936
356.6974, 55.29867
357.1795, 55.57906
357.6617, 55.77012
358.1438, 56.09624
358.6259, 55.83609
359.1080, 53.72876
359.5901, 50.95265
360.0722, 49.59172
360.5544, 51.25580
361.0365, 53.64734
361.5186, 52.85763
362.0007, 48.32165
362.4828, 45.16198
362.9649, 46.77308
363.4471, 50.13601
363.9292, 51.77543
364.4113, 51.09998
364.8934, 49.80272
365.3755, 49.19554
365.8576, 49.11474
366.3398, 48.53355
366.8219, 46.79258
367.3040, 45.13027
367.7861, 45.35929
368.2682, 47.24732
368.7503, 48.09184
369.2325, 45.66193
369.7146, 41.84133
370.1967, 40.07318
370.6788, 40.89794
371.1609, 42.23680
371.6430, 42.72016
372.1252, 42.44195
372.6073, 41.72079
373.0894, 39.74496
373.5715, 38.01595
374.0536, 38.16909
374.5357, 39.86824
375.0179, 40.99819
375.5000, 40.22997
375.9821, 38.53802
376.4642, 38.35863
376.9463, 40.44645
377.4284, 42.09544
377.9106, 41.95963
378.3927, 40.80816
378.8748, 39.97688
379.3569, 39.83989
379.8390, 39.90731
380.3211, 39.46401
380.8033, 38.33570
381.2854, 37.78659
381.7675, 38.26630
382.2496, 39.10030
382.7317, 40.05343
383.2138, 40.97359
383.6960, 41.22131
384.1781, 40.10049
384.6602, 37.78431
385.1423, 36.80864
385.6244, 38.25884
386.1065, 39.56521
386.5887, 39.46279
387.0708, 38.72271
387.5529, 38.88205
388.0350, 40.66038
388.5171, 43.13037
388.9992, 44.24214
389.4814, 42.69384
389.9635, 41.70677
390.4456, 41.68191
390.9277, 41.94236
391.4098, 41.89566
391.8919, 41.49247
392.3741, 41.10832
392.8562, 41.11098
393.3383, 41.50260
393.8204, 42.29895
394.3025, 45.01616
394.7846, 46.55499
395.2668, 44.87366
395.7489, 41.33781
396.2310, 38.48358
396.7131, 37.79850
397.1952, 38.79187
397.6773, 39.82856
398.1595, 41.33193
398.6416, 42.12644
399.1237, 41.31404
399.6058, 40.27486
400.0879, 40.34422
400.5700, 41.76370
401.0522, 43.53325
401.5343, 44.37809
402.0164, 44.09292
402.4985, 44.08717
402.9806, 44.98150
403.4627, 45.60549
403.9449, 45.21208
404.4270, 44.11774
404.9091, 43.13106
405.3912, 42.58426
405.8733, 42.59102
406.3554, 43.76128
406.8376, 46.80900
407.3197, 49.24970
407.8018, 49.82749
408.2839, 49.43536
408.7660, 48.89624
409.2481, 48.41833
409.7303, 47.71181
410.2124, 46.32422
410.6945, 44.31068
411.1766, 42.42470
411.6587, 40.51933
412.1408, 39.22093
412.6230, 39.45125
413.1051, 40.97086
413.5872, 41.98112
414.0693, 41.66171
414.5514, 40.39504
415.0335, 38.58537
415.5157, 36.19693
415.9978, 33.86240
416.4799, 31.68115
416.9620, 29.96865
417.4441, 29.49632
417.9262, 31.10909
418.4084, 32.88105
418.8905, 33.85180
419.3726, 34.14188
419.8547, 33.91128
420.3368, 33.09250
420.8189, 32.18299
421.3011, 32.03217
421.7832, 32.79467
422.2653, 33.60179
422.7474, 34.72242
423.2295, 35.60888
423.7116, 35.61516
424.1938, 34.80347
424.6759, 33.93566
425.1580, 33.64597
425.6401, 33.87924
426.1222, 33.58131
426.6043, 32.25912
427.0865, 31.06603
427.5686, 29.83912
428.0507, 29.04957
428.5328, 29.63667
429.0149, 31.92023
429.4970, 34.77521
429.9792, 36.22875
430.4613, 35.74683
430.9434, 34.94515
431.4255, 33.41432
431.9076, 31.97486
432.3897, 30.91204
432.8719, 30.33547
433.3540, 30.41841
433.8361, 31.43809
434.3182, 33.20558
434.8003, 34.40441
435.2824, 35.21059
435.7646, 35.06772
436.2467, 32.74437
436.7288, 30.04812
437.2109, 29.04595
437.6930, 30.39547
438.1751, 32.72655
438.6573, 34.54847
439.1394, 35.86405
439.6215, 36.51780
440.1036, 35.90504
440.5857, 35.26066
441.0678, 35.59045
441.5500, 36.62691
442.0321, 37.31888
442.5142, 36.64346
442.9963, 35.48389
443.4784, 35.45262
443.9605, 36.62096
444.4427, 38.45560
444.9248, 41.55101
445.4069, 44.69233
445.8890, 45.62636
446.3711, 43.45050
446.8532, 41.35054
447.3354, 41.33515
447.8175, 42.63477
448.2996, 43.53274
448.7817, 43.60014
449.2638, 43.55548
449.7459, 44.27612
450.2281, 45.82290
450.7102, 46.82255
451.1923, 46.84844
451.6744, 46.64863
452.1565, 46.43197
452.6386, 46.35437
453.1208, 46.86190
453.6029, 48.25569
454.0850, 50.15635
454.5671, 51.50645
455.0492, 51.42149
455.5313, 51.99929
456.0135, 53.50438
456.4956, 55.51708
456.9777, 57.98856
457.4598, 60.73617
457.9419, 63.20966
458.4240, 64.82526
458.9062, 65.56310
459.3883, 66.64661
459.8704, 68.29189
460.3525, 70.07929
460.8346, 72.19228
461.3167, 74.29494
461.7989, 76.31370
462.2810, 78.25426
462.7631, 79.11560
463.2452, 76.82382
463.7273, 70.70046
464.2094, 65.43504
464.6916, 61.67102
465.1737, 58.93429
465.6558, 57.26261
466.1379, 56.42772
466.6200, 55.67568
467.1021, 54.44429
467.5843, 53.09875
468.0664, 52.52034
468.5485, 52.83440
469.0306, 52.96431
469.5127, 52.15031
469.9948, 51.03877
470.4770, 50.74804
470.9591, 51.58615
471.4412, 52.21859
471.9233, 51.29283
472.4054, 49.87634
472.8875, 50.29547
473.3697, 53.06511
473.8518, 56.03733
474.3339, 57.33199
474.8160, 56.88868
475.2981, 56.17223
475.7802, 54.12780
476.2624, 52.92036
476.7445, 54.44540
477.2266, 57.34968
477.7087, 58.94071
478.1908, 58.14624
478.6729, 56.15716
479.1551, 55.23189
479.6372, 56.64115
480.1193, 56.01865
480.6014, 51.35710
481.0835, 46.73949
481.5656, 44.48365
482.0478, 44.27310
482.5299, 44.56771
483.0120, 44.30346
483.4941, 43.87529
483.9762, 45.20491
484.4583, 50.56662
484.9405, 52.92847
485.4226, 48.18340
485.9047, 42.02895
486.3868, 38.86984
486.8689, 39.23610
487.3510, 40.76448
487.8332, 41.85740
488.3153, 42.51279
488.7974, 42.54538
489.2795, 41.49886
489.7616, 40.94244
490.2437, 42.40921
490.7259, 44.86139
491.2080, 46.77738
491.6901, 47.77869
492.1722, 48.39991
492.6543, 48.82762
493.1364, 49.16569
493.6186, 49.70441
494.1007, 50.52077
494.5828, 51.57767
495.0649, 52.94497
495.5470, 54.67425
496.0291, 56.00132
496.5113, 57.28592
496.9934, 57.81183
497.4755, 56.62722
497.9576, 54.35501
498.4397, 52.70038
498.9218, 52.55791
499.4040, 52.83876
499.8861, 50.96110
500.3682, 44.57422
500.8503, 40.41234
501.3324, 39.29564
501.8145, 39.40474
502.2967, 40.21142
502.7788, 41.28440
503.2609, 41.90936
503.7430, 41.54041
504.2251, 40.40310
504.7072, 39.29350
505.1894, 37.98954
505.6715, 37.22741
506.1536, 37.41380
506.6357, 38.05492
507.1178, 38.91606
507.5999, 39.93434
508.0821, 40.85550
508.5642, 42.04715
509.0463, 42.98850
509.5284, 41.54513
510.0105, 36.91171
510.4926, 32.98797
510.9748, 32.85963
511.4569, 35.01012
511.9390, 35.63248
512.4211, 33.31432
512.9032, 31.69726
513.3853, 33.81295
513.8674, 37.48763
514.3495, 38.53719
514.8317, 36.04340
515.3138, 32.94244
515.7959, 32.33482
516.2780, 34.46443
516.7601, 35.39022
517.2422, 34.16563
517.7244, 33.00780
518.2065, 33.17644
518.6886, 33.70724
519.1707, 32.86903
519.6528, 30.13041
520.1349, 26.95753
520.6171, 25.66440
521.0992, 26.70676
521.5813, 27.77531
522.0634, 29.36250
522.5455, 30.45882
523.0276, 30.53813
523.5098, 29.88057
523.9919, 28.95026
524.4740, 27.84034
524.9561, 26.85455
525.4382, 26.52045
525.9203, 26.85249
526.4025, 27.06489
526.8846, 26.65220
527.3667, 26.51206
527.8488, 28.02721
528.3309, 30.84270
528.8130, 32.58102
529.2952, 31.38766
529.7773, 29.70962
530.2594, 29.97721
530.7415, 31.85554
531.2236, 33.71593
531.7057, 34.94181
532.1879, 35.46362
532.6700, 35.04868
533.1521, 32.98389
533.6342, 31.59993
534.1163, 31.30398
534.5984, 31.39232
535.0806, 31.38906
535.5627, 31.36267
536.0448, 31.78945
536.5269, 33.04965
537.0090, 34.59536
537.4911, 34.59229
537.9733, 32.00053
538.4554, 30.14851
538.9375, 29.62516
539.4196, 29.74974
539.9017, 30.52670
540.3839, 31.68295
540.8660, 32.33818
541.3481, 31.49454
541.8302, 30.01087
542.3123, 29.97972
542.7944, 31.57255
543.2766, 33.12767
543.7587, 34.13538
544.2408, 34.63816
544.7229, 34.69186
545.2050, 34.25793
545.6871, 33.76908
546.1693, 32.92878
546.6514, 32.38266
547.1335, 33.14912
547.6156, 35.07051
548.0977, 36.80724
548.5798, 37.49642
549.0620, 37.48988
549.5441, 37.97034
550.0262, 39.86543
550.5083, 40.99596
550.9904, 41.43099
551.4725, 41.03734
551.9547, 38.80608
552.4368, 35.45441
552.9189, 33.42917
553.4010, 34.84143
553.8831, 38.67798
554.3652, 40.73894
554.8474, 40.24249
555.3295, 39.92237
555.8116, 40.75906
556.2937, 41.82297
556.7758, 42.69085
557.2579, 43.24930
557.7401, 43.07539
558.2222, 41.04039
558.7043, 38.45925
559.1864, 37.99348
559.6685, 39.72318
560.1506, 40.99903
560.6328, 40.30347
561.1149, 38.58943
561.5970, 38.01916
562.0791, 38.97375
562.5612, 39.60553
563.0433, 38.89769
563.5255, 38.23915
564.0076, 39.13104
564.4897, 41.28560
564.9718, 43.28025
565.4539, 44.26083
565.9360, 44.24091
566.4182, 43.17830
566.9003, 40.29991
567.3824, 37.81029
567.8645, 35.59868
568.3466, 33.98275
568.8287, 33.69396
569.3109, 34.28274
569.7930, 34.17106
570.2751, 31.79116
570.7572, 28.70610
571.2393, 29.06696
571.7214, 33.33652
572.2036, 35.17500
572.6857, 30.77353
573.1678, 25.05861
573.6499, 24.50274
574.1320, 28.94095
574.6141, 31.98270
575.0963, 30.43718
575.5784, 27.94372
576.0605, 27.83057
576.5426, 29.56200
577.0247, 30.84143
577.5068, 30.58759
577.9890, 29.60235
578.4711, 29.42999
578.9532, 30.65991
579.4353, 31.19390
579.9174, 30.32972
580.3995, 29.56107
580.8817, 29.96522
581.3638, 30.93954
581.8459, 31.13464
582.3280, 29.84238
582.8101, 28.09653
583.2922, 27.63825
583.7744, 28.55786
584.2565, 29.50083
584.7386, 30.44198
585.2207, 31.17143
585.7029, 31.48323
586.1850, 31.48628
586.6671, 31.42911
587.1492, 31.23937
587.6313, 31.18393
588.1135, 31.52247
588.5956, 32.13614
589.0777, 32.68033
589.5598, 33.05830
590.0419, 33.64069
590.5240, 34.87832
591.0062, 36.80551
591.4883, 38.47671
591.9704, 40.17546
592.4525, 41.31683
592.9346, 41.38334
593.4167, 41.00525
593.8989, 40.78236
594.3810, 40.90289
594.8631, 41.37759
595.3452, 42.34166
595.8273, 43.73375
596.3094, 44.89098
596.7916, 45.88129
597.2737, 46.49311
597.7558, 46.44786
598.2379, 46.06042
598.7200, 45.37888
599.2021, 44.28633
599.6843, 44.08646
600.1664, 46.05722
600.6485, 49.01600
601.1306, 51.41387
601.6127, 53.12832
602.0948, 54.57178
602.5770, 56.11168
603.0591, 57.29805
603.5412, 56.80536
604.0233, 52.09949
604.5054, 49.94081
604.9875, 52.65761
605.4697, 55.83070
605.9518, 56.58370
606.4339, 55.38533
606.9160, 54.22602
607.3981, 54.29737
607.8802, 54.63928
608.3624, 53.09911
608.8445, 49.37837
609.3266, 46.16188
609.8087, 43.99825
610.2908, 42.27737
610.7729, 40.53321
611.2551, 38.83265
611.7372, 37.35638
612.2193, 35.88006
612.7014, 34.97829
613.1835, 35.59449
613.6656, 37.01234
614.1478, 37.59968
614.6299, 36.95549
615.1120, 35.84569
615.5941, 34.96206
616.0762, 34.30321
616.5583, 34.08178
617.0405, 35.10527
617.5226, 35.55010
618.0047, 34.51979
618.4868, 33.14117
618.9689, 32.65562
619.4510, 33.14726
619.9332, 33.60823
620.4153, 33.01749
620.8974, 31.75756
621.3795, 31.34495
621.8616, 31.98433
622.3438, 32.33100
622.8259, 31.46730
623.3080, 30.44959
623.7901, 30.87405
624.2722, 32.83237
624.7543, 34.34156
625.2365, 34.68589
625.7186, 34.54109
626.2007, 34.41587
626.6828, 34.26522
627.1649, 33.67188
627.6470, 32.43572
628.1292, 31.38526
628.6113, 32.05883
629.0934, 35.19484
629.5755, 36.96590
630.0576, 35.99987
630.5397, 35.07936
631.0219, 35.40258
631.5040, 36.09850
631.9861, 35.82433
632.4682, 34.16950
632.9503, 32.21261
633.4324, 31.03602
633.9146, 30.34798
634.3967, 28.95829
634.8788, 26.62783
635.3609, 25.10631
635.8430, 25.71787
636.3251, 27.69278
636.8073, 28.78853
637.2894, 28.66701
637.7715, 28.64268
638.2536, 29.15582
638.7357, 29.64061
639.2178, 29.61165
639.7000, 29.16229
640.1821, 28.57085
640.6642, 27.95347
641.1463, 27.58501
641.6284, 28.17319
642.1105, 29.96239
642.5927, 31.43014
643.0748, 32.76027
643.5569, 33.30390
644.0390, 32.25208
644.5211, 30.31409
645.0032, 28.93290
645.4854, 28.54853
645.9675, 28.51732
646.4496, 28.24392
646.9317, 28.07641
647.4138, 29.28448
647.8959, 31.86264
648.3781, 33.01250
648.8602, 30.26190
649.3423, 24.74858
649.8244, 21.94689
650.3065, 23.65548
650.7886, 25.49891
651.2708, 28.06462
651.7529, 30.07505
652.2350, 30.28620
652.7171, 29.18180
653.1992, 28.27032
653.6813, 28.38178
654.1635, 28.97682
654.6456, 29.20786
655.1277, 29.11750
655.6098, 29.26774
656.0919, 29.81717
656.5740, 30.47608
657.0562, 31.03177
657.5383, 31.48221
658.0204, 31.86585
658.5025, 32.16401
658.9846, 32.41637
659.4667, 32.93666
659.9489, 33.22982
660.4310, 32.59831
660.9131, 31.11346
661.3952, 29.44665
661.8773, 27.98229
662.3594, 26.89824
662.8416, 26.89331
663.3237, 28.29920
663.8058, 29.57254
664.2879, 30.45866
664.7700, 31.11664
665.2521, 31.53611
665.7343, 31.82062
666.2164, 32.34975
666.6985, 33.71711
667.1806, 34.71383
667.6627, 34.40028
668.1448, 33.13491
668.6270, 31.14427
669.1091, 28.62363
669.5912, 27.03553
670.0733, 27.89948
670.5554, 30.74362
671.0375, 32.11718
671.5197, 30.78777
672.0018, 29.98272
672.4839, 30.33784
672.9660, 31.02124
673.4481, 31.64709
673.9302, 32.10425
674.4124, 32.25159
674.8945, 31.93363
675.3766, 31.40350
675.8587, 30.92172
676.3408, 30.49410
676.8229, 30.09674
677.3051, 29.69008
677.7872, 29.57703
678.2693, 30.21331
678.7514, 31.46513
679.2335, 31.75736
679.7156, 30.02929
680.1978, 28.87014
680.6799, 29.32042
681.1620, 29.97160
681.6441, 29.06793
682.1262, 27.11340
682.6083, 26.53054
683.0905, 29.24901
683.5726, 33.21310
684.0547, 34.33233
684.5368, 32.60891
685.0189, 31.02024
685.5010, 30.17001
685.9832, 29.46473
686.4653, 28.32353
686.9474, 26.88999
687.4295, 25.89439
687.9116, 24.90463
688.3937, 24.97283
688.8759, 27.85200
689.3580, 30.97629
689.8401, 31.11197
690.3222, 28.67855
690.8043, 26.91171
691.2864, 28.03702
691.7686, 30.73807
692.2507, 31.85767
692.7328, 31.20636
693.2149, 30.07111
693.6970, 27.97907
694.1791, 26.36425
694.6613, 26.77941
695.1434, 28.33637
695.6255, 28.99310
696.1076, 27.91680
696.5897, 26.99599
697.0718, 27.40017
697.5540, 28.24790
698.0361, 28.25812
698.5182, 27.54680
699.0003, 27.39623
699.4824, 28.65942
699.9645, 30.60526
700.4467, 31.31639
700.9288, 30.29907
701.4109, 29.89759
701.8930, 30.74915
702.3751, 31.61687
702.8572, 31.74929
703.3394, 31.53273
703.8215, 31.77031
704.3036, 32.87309
704.7857, 33.40019
705.2678, 31.67640
705.7499, 29.34130
706.2321, 29.01552
706.7142, 30.46616
707.1963, 31.27278
707.6784, 30.09141
708.1605, 28.09826
708.6426, 27.82738
709.1248, 30.20326
709.6069, 30.95473
710.0890, 27.82681
710.5711, 25.74171
711.0532, 27.33070
711.5353, 30.46333
712.0175, 32.29350
712.4996, 32.22961
712.9817, 31.93990
713.4638, 32.82830
713.9459, 33.89260
714.4280, 33.21792
714.9102, 31.21811
715.3923, 30.47822
715.8744, 32.21531
716.3565, 34.57864
716.8386, 34.73109
717.3207, 32.25578
717.8029, 30.59184
718.2850, 29.94928
718.7671, 29.93079
719.2492, 31.44988
719.7313, 32.90804
720.2134, 32.24862
720.6956, 29.49121
721.1777, 27.28531
721.6598, 27.63056
722.1419, 29.07617
722.6240, 30.19413
723.1061, 30.84577
723.5883, 30.13617
724.0704, 27.70113
724.5525, 25.40101
725.0346, 25.27978
725.5167, 27.27545
725.9988, 28.93493
726.4810, 30.17468
726.9631, 31.18431
727.4452, 31.93274
727.9273, 32.52611
728.4094, 33.50356
728.8915, 34.47282
729.3737, 33.84623
729.8558, 29.71044
730.3379, 25.71213
730.8200, 26.55536
731.3021, 30.57688
731.7842, 33.38863
732.2664, 34.20411
732.7485, 33.49892
733.2306, 31.26233
733.7127, 28.19579
734.1948, 27.17887
734.6769, 30.01083
735.1591, 31.61785
735.6412, 30.94591
736.1233, 30.04125
736.6054, 29.85202
737.0875, 30.19655
737.5696, 30.63120
738.0518, 31.02404
738.5339, 31.45757
739.0160, 31.93869
739.4981, 32.53101
739.9802, 33.53182
740.4623, 34.86728
740.9445, 35.76187
741.4266, 35.77109
741.9087, 35.38515
742.3908, 35.50008
742.8729, 36.26558
743.3550, 36.89052
743.8372, 37.50113
744.3193, 37.80230
744.8014, 37.11849
745.2835, 36.43246
745.7656, 37.15517
746.2477, 39.36180
746.7299, 41.06596
747.2120, 40.05725
747.6941, 38.82725
748.1762, 40.92653
748.6583, 45.27158
749.1404, 48.30442
749.6226, 49.01735
750.1047, 48.90322
750.5868, 49.40799
751.0689, 50.49641
751.5510, 51.87699
752.0331, 54.02987
752.5153, 55.53476
752.9974, 55.98960
753.4795, 55.88349
753.9616, 54.76778
754.4437, 53.29872
754.9258, 53.60548
755.4080, 57.60740
755.8901, 61.04685
756.3722, 60.04750
756.8543, 57.12725
757.3364, 55.95729
757.8185, 56.82898
758.3007, 58.37887
758.7828, 59.81781
759.2649, 61.26674
759.7470, 63.25442
760.2291, 66.27557
760.7112, 67.34449
761.1934, 64.92194
761.6755, 62.84136
762.1576, 63.39728
762.6397, 65.07878
763.1218, 66.21746
763.6039, 66.72361
764.0861, 66.27980
764.5682, 63.78882
765.0503, 61.21852
765.5324, 60.54195
766.0145, 60.84909
766.4966, 60.11689
766.9788, 57.84203
767.4609, 55.24243
767.9430, 53.53920
768.4251, 52.57134
768.9072, 51.57518
769.3893, 50.58457
769.8715, 49.37846
770.3536, 47.73322
770.8357, 46.09905
771.3178, 45.13375
771.7999, 44.62027
772.2820, 43.40055
772.7642, 40.39390
773.2463, 38.04641
773.7284, 37.45665
774.2105, 37.45811
774.6926, 36.97990
775.1747, 36.14518
775.6569, 35.72528
776.1390, 36.13609
776.6211, 36.79514
777.1032, 36.85791
777.5853, 36.43996
778.0674, 36.40721
778.5496, 36.95091
779.0317, 36.51605
779.5138, 33.79100
779.9959, 30.48420
780.4780, 29.72966
780.9601, 32.32251
781.4423, 34.32787
781.9244, 36.36433
782.4065, 37.10439
782.8886, 34.70138
783.3707, 31.66190
783.8528, 30.86575
784.3350, 32.46049
784.8171, 34.30272
785.2992, 35.63130
785.7813, 35.92714
786.2634, 33.45221
786.7455, 29.35069
787.2277, 27.65452
787.7098, 29.13904
788.1919, 31.36233
788.6740, 32.48926
789.1561, 32.74327
789.6382, 32.97486
790.1204, 33.51725
790.6025, 33.21135
791.0846, 30.73172
791.5667, 28.80002
792.0488, 29.00844
792.5309, 30.36030
793.0131, 31.43813
793.4952, 32.07223
793.9773, 31.93502
794.4594, 29.84301
794.9415, 27.77935
795.4236, 27.73322
795.9058, 29.21433
796.3879, 31.16214
796.8700, 33.14125
797.3521, 34.56731
797.8342, 34.69053
798.3163, 33.80454
798.7985, 33.50430
799.2806, 33.92539
799.7627, 34.10210
800.2448, 33.62752
800.7269, 33.17053
801.2090, 33.45153
801.6912, 34.28352
802.1733, 34.62324
802.6554, 34.01959
803.1375, 33.63719
803.6196, 33.59567
804.1017, 33.93001
804.5839, 34.97442
805.0660, 36.35072
805.5481, 37.21427
806.0302, 37.25275
806.5123, 37.27085
806.9944, 38.33141
807.4766, 39.90354
807.9587, 40.63495
808.4408, 40.54662
808.9229, 40.46795
809.4050, 40.73369
809.8871, 40.89550
810.3693, 40.36819
810.8514, 39.15960
811.3335, 38.14165
811.8156, 37.31988
812.2977, 36.67907
812.7798, 35.70927
813.2620, 35.36216
813.7441, 36.88360
814.2262, 39.53073
814.7083, 41.12162
815.1904, 40.64838
815.6725, 40.12877
816.1547, 40.95972
816.6368, 42.15970
817.1189, 42.75998
817.6010, 42.68440
818.0831, 41.78209
818.5652, 40.02515
819.0474, 38.55336
819.5295, 39.38938
820.0116, 42.09961
820.4937, 42.10052
820.9758, 38.65498
821.4579, 37.19212
821.9401, 40.47184
822.4222, 44.52293
822.9043, 44.91774
823.3864, 41.81025
823.8685, 39.77171
824.3506, 39.48478
824.8328, 39.26747
825.3149, 39.09806
825.7970, 38.71427
826.2791, 37.28662
826.7612, 35.59296
827.2433, 35.68517
827.7255, 38.56170
828.2076, 41.27529
828.6897, 40.78943
829.1718, 38.79565
829.6539, 37.93587
830.1360, 38.23263
830.6182, 39.25835
831.1003, 40.86229
831.5824, 41.97564
832.0645, 41.02835
832.5466, 38.31493
833.0287, 37.81508
833.5109, 40.52976
833.9930, 42.46259
834.4751, 42.69606
834.9572, 42.02789
835.4393, 40.42931
835.9214, 38.43102
836.4036, 37.65292
836.8857, 38.55086
837.3678, 39.99691
837.8499, 42.59318
838.3320, 44.82671
838.8141, 45.24308
839.2963, 44.57825
839.7784, 44.39808
840.2605, 45.14981
840.7426, 45.74673
841.2247, 44.89275
841.7068, 43.37003
842.1890, 42.68182
842.6711, 42.74238
843.1532, 43.26067
843.6353, 44.18672
844.1174, 44.69756
844.5995, 43.90780
845.0817, 42.27071
845.5638, 41.91163
846.0459, 43.29191
846.5280, 44.66513
847.0101, 45.87159
847.4922, 47.09576
847.9744, 48.85398
848.4565, 50.51790
848.9386, 50.93274
849.4207, 49.79902
849.9028, 48.98040
850.3849, 49.34686
850.8671, 49.77069
851.3492, 49.58807
851.8313, 49.05308
852.3134, 48.66048
852.7955, 48.39005
853.2776, 47.61636
853.7598, 45.74611
854.2419, 43.53692
854.7240, 42.18585
855.2061, 41.49023
855.6882, 40.61487
856.1703, 39.46387
856.6525, 38.54392
857.1346, 38.15020
857.6167, 38.14050
858.0988, 38.36953
858.5809, 39.01283
859.0630, 38.67651
859.5452, 36.85101
860.0273, 34.93984
860.5094, 32.44845
860.9915, 30.79427
861.4736, 32.00926
861.9557, 35.48994
862.4379, 37.53892
862.9200, 37.00752
863.4021, 35.65123
863.8842, 32.71581
864.3663, 30.33735
864.8484, 31.10108
865.3306, 33.90281
865.8127, 35.85264
866.2948, 35.84566
866.7769, 35.08699
867.2590, 34.68749
867.7411, 34.40173
868.2233, 33.59166
868.7054, 32.37229
869.1875, 31.44769
869.6696, 31.01919
870.1517, 30.77924
870.6339, 30.41354
871.1160, 30.02770
871.5981, 30.15922
872.0802, 31.00710
872.5623, 31.70472
873.0444, 32.45245
873.5266, 32.53812
874.0087, 30.61153
874.4908, 28.19066
874.9729, 28.41670
875.4550, 31.98372
875.9371, 34.19889
876.4193, 32.84954
876.9014, 31.92544
877.3835, 34.30753
877.8656, 37.13537
878.3477, 36.66766
878.8298, 33.38327
879.3120, 31.08999
879.7941, 31.88288
880.2762, 33.75997
880.7583, 35.26719
881.2404, 36.31634
881.7225, 36.24627
882.2047, 35.44121
882.6868, 35.95876
883.1689, 38.68287
883.6510, 41.66270
884.1331, 42.28286
884.6152, 40.90825
885.0974, 40.23615
885.5795, 40.30058
886.0616, 40.90430
886.5437, 42.17938
887.0258, 43.54046
887.5079, 44.48096
887.9901, 45.13010
888.4722, 46.01440
888.9543, 47.29934
889.4364, 48.51341
889.9185, 49.49080
890.4006, 50.58342
890.8828, 52.28373
891.3649, 53.97513
891.8470, 54.83495
892.3291, 54.81713
892.8112, 54.72563
893.2933, 54.49127
893.7755, 54.72261
894.2576, 56.48175
894.7397, 58.49879
895.2218, 59.24191
895.7039, 58.67372
896.1860, 57.32304
896.6682, 55.40411
897.1503, 53.45350
897.6324, 52.38200
898.1145, 51.74231
898.5966, 50.07008
899.0787, 47.43380
899.5609, 44.69026
900.0430, 42.06773
900.5251, 39.92134
901.0072, 38.61449
901.4893, 38.04393
901.9714, 37.91312
902.4536, 38.66286
902.9357, 38.07829
903.4178, 34.91151
903.8999, 32.29716
904.3820, 32.21754
904.8641, 33.52451
905.3463, 34.45723
905.8284, 35.09186
906.3105, 34.79722
906.7926, 32.72780
907.2747, 30.74804
907.7568, 29.42146
908.2390, 28.42054
908.7211, 27.35020
909.2032, 26.32515
909.6853, 25.78058
910.1674, 25.94163
910.6495, 26.32097
911.1317, 27.11429
911.6138, 27.55834
912.0959, 26.06615
912.5780, 23.64492
913.0601, 22.96846
913.5422, 24.57185
914.0244, 26.26958
914.5065, 26.04665
914.9886, 24.91828
915.4707, 24.97339
915.9528, 26.09451
916.4349, 27.90512
916.9171, 30.36830
917.3992, 31.83789
917.8813, 31.34627
918.3634, 29.60820
918.8455, 27.59579
919.3276, 25.21136
919.8098, 24.34474
920.2919, 25.39768
920.7740, 27.03091
921.2561, 29.78248
921.7382, 31.92702
922.2203, 31.49116
922.7025, 29.25177
923.1846, 28.28329
923.6667, 28.97991
924.1488, 30.06748
924.6309, 32.68642
925.1130, 34.24236
925.5952, 32.27221
926.0773, 29.36106
926.5594, 28.91485
927.0415, 31.02282
927.5236, 32.83525
928.0057, 33.05448
928.4879, 32.79305
928.9700, 32.57264
929.4521, 32.41082
929.9342, 32.50528
930.4163, 32.65833
930.8984, 32.12020
931.3806, 30.66954
931.8627, 29.62205
932.3448, 30.74809
932.8269, 32.93215
933.3090, 33.82884
933.7911, 33.69997
934.2733, 33.66379
934.7554, 33.92919
935.2375, 33.97105
935.7196, 33.39676
936.2017, 32.57408
936.6838, 32.45483
937.1660, 33.11803
937.6481, 32.80674
938.1302, 31.35464
938.6123, 29.50308
939.0944, 27.07761
939.5765, 25.23852
940.0587, 25.39563
940.5408, 27.21979
941.0229, 28.31666
941.5050, 28.45414
941.9871, 28.28930
942.4692, 27.25156
942.9514, 26.58567
943.4335, 27.46971
943.9156, 28.61629
944.3977, 28.06107
944.8798, 25.74316
945.3619, 24.29357
945.8441, 24.68465
946.3262, 25.48331
946.8083, 26.87358
947.2904, 27.86579
947.7725, 26.89926
948.2546, 25.03410
948.7368, 25.11151
949.2189, 28.04975
949.7010, 30.11486
950.1831, 27.80512
950.6652, 24.41647
951.1473, 22.91260
951.6295, 22.91006
952.1116, 24.18308
952.5937, 26.22097
953.0758, 27.28408
953.5579, 26.28184
954.0400, 24.78572
954.5222, 25.14525
955.0043, 26.68612
955.4864, 27.40994
955.9685, 27.33725
956.4506, 27.23943
956.9327, 27.34641
957.4149, 27.37358
957.8970, 27.05324
958.3791, 26.49143
958.8612, 25.93805
959.3433, 25.36990
959.8254, 25.19954
960.3076, 25.50793
960.7897, 26.02696
961.2718, 26.78455
961.7539, 27.38772
962.2360, 27.23216
962.7181, 26.37000
963.2003, 26.04457
963.6824, 26.57034
964.1645, 26.98526
964.6466, 27.10900
965.1287, 27.21925
965.6108, 27.81080
966.0930, 28.31864
966.5751, 27.58946
967.0572, 25.39894
967.5393, 24.27065
968.0214, 25.21682
968.5035, 26.25399
968.9857, 26.85584
969.4678, 27.34191
969.9499, 28.09801
970.4320, 28.91645
970.9141, 29.25993
971.3962, 28.94735
971.8784, 28.65800
972.3605, 28.58200
972.8426, 28.76267
973.3247, 29.60296
973.8068, 30.48313
974.2889, 30.68909
974.7711, 30.15481
975.2532, 29.00604
975.7353, 27.19444
976.2174, 25.53088
976.6995, 24.58115
977.1816, 24.33951
977.6638, 25.27539
978.1459, 26.82230
978.6280, 27.43853
979.1101, 26.93702
979.5922, 26.69056
980.0743, 27.83979
980.5565, 28.94007
981.0386, 27.05315
981.5207, 23.16741
982.0028, 20.66834
982.4849, 19.72590
982.9670, 20.12958
983.4492, 21.82299
983.9313, 23.40552
984.4134, 23.50757
984.8955, 22.54889
985.3776, 21.73541
985.8597, 21.05518
986.3419, 21.00760
986.8240, 21.72406
987.3061, 22.52998
987.7882, 23.22108
988.2703, 23.61734
988.7524, 23.45038
989.2346, 22.77890
989.7167, 22.16163
990.1988, 21.33279
990.6809, 21.53634
991.1630, 24.00672
991.6451, 25.31842
992.1273, 22.84687
992.6094, 19.05305
993.0915, 17.71973
993.5736, 19.00395
994.0557, 19.80113
994.5378, 19.64231
995.0200, 19.67767
995.5021, 19.86908
995.9842, 20.43148
996.4663, 22.23359
996.9484, 24.16575
997.4305, 24.01398
997.9127, 21.37808
998.3948, 19.97907
998.8769, 21.76648
999.3590, 23.06755
999.8411, 22.12985
1000.323, 20.86212
1000.805, 20.72907
1001.287, 21.43382
1001.770, 22.25695
1002.252, 23.06780
1002.734, 23.54431
1003.216, 23.28751
1003.698, 22.96459
1004.180, 23.23313
1004.662, 23.44152
1005.144, 22.39965
1005.627, 20.70671
1006.109, 20.33184
1006.591, 22.02832
1007.073, 23.56259
1007.555, 23.09621
1008.037, 22.02551
1008.519, 21.86865
1009.001, 21.93624
1009.483, 20.65309
1009.966, 18.38816
1010.448, 17.28858
1010.930, 18.42517
1011.412, 19.77872
1011.894, 19.11133
1012.376, 17.52272
1012.858, 16.39737
1013.340, 15.83626
1013.823, 16.19043
1014.305, 17.34186
1014.787, 18.42738
1015.269, 18.94056
1015.751, 19.30103
1016.233, 20.36803
1016.715, 21.64502
1017.197, 21.36158
1017.679, 19.90403
1018.162, 19.41992
1018.644, 20.28524
1019.126, 20.85921
1019.608, 20.00366
1020.090, 18.62285
1020.572, 18.10805
1021.054, 18.45682
1021.536, 20.03785
1022.018, 22.77386
1022.501, 24.49306
1022.983, 24.66838
1023.465, 23.76064
1023.947, 21.94440
1024.429, 19.87082
1024.911, 18.98357
1025.393, 19.30754
1025.875, 19.90402
1026.358, 20.97996
1026.840, 20.19919
1027.322, 16.39273
1027.804, 13.21791
1028.286, 13.63764
1028.768, 16.46306
1029.250, 18.90873
1029.732, 21.06526
1030.214, 21.89952
1030.697, 20.92391
1031.179, 20.36393
1031.661, 21.04233
1032.143, 21.74100
1032.625, 21.56734
1033.107, 20.63446
1033.589, 19.15145
1034.071, 16.79171
1034.553, 15.32929
1035.036, 14.69695
1035.518, 15.21562
1036.000, 18.02256
1036.482, 20.41666
1036.964, 19.74846
1037.446, 17.24288
1037.928, 16.64358
1038.410, 18.85632
1038.893, 19.75730
1039.375, 18.29235
1039.857, 17.20510
1040.339, 17.63794
1040.821, 18.13088
1041.303, 17.04918
1041.785, 15.24673
1042.267, 15.32673
1042.750, 18.05974
1043.232, 20.08576
1043.714, 21.97289
1044.196, 22.32658
1044.678, 19.04648
1045.160, 15.77937
1045.642, 15.51260
1046.124, 17.24041
1046.606, 18.50522
1047.089, 19.15246
1047.571, 19.35638
1048.053, 18.90664
1048.535, 18.32045
1049.017, 17.45804
1049.499, 16.76586
1049.981, 16.41685
1050.463, 16.53476
1050.945, 17.56324
1051.428, 19.79928
1051.910, 21.30095
1052.392, 20.91261
1052.874, 20.79327
1053.356, 22.24222
1053.838, 23.64654
1054.320, 23.79141
1054.802, 22.93437
1055.285, 21.43804
1055.767, 19.23238
1056.249, 18.14374
1056.731, 20.24867
1057.213, 21.43012
1057.695, 18.91943
1058.177, 16.12266
1058.659, 15.63679
1059.141, 16.83711
1059.624, 18.55236
1060.106, 20.57403
1060.588, 21.66242
1061.070, 20.87059
1061.552, 19.81074
1062.034, 18.90173
1062.516, 18.17383
1062.998, 17.45538
1063.480, 17.01616
1063.963, 17.48647
1064.445, 18.90057
1064.927, 20.09003
1065.409, 20.99775
1065.891, 21.10005
1066.373, 19.15734
1066.855, 17.33007
1067.337, 17.59109
1067.820, 18.95200
1068.302, 19.75623
1068.784, 19.78693
1069.266, 19.87516
1069.748, 20.80637
1070.230, 21.02075
1070.712, 18.68401
1071.194, 16.53374
1071.677, 17.11539
1072.159, 18.93411
1072.641, 19.69268
1073.123, 19.24118
1073.605, 18.84881
1074.087, 18.89790
1074.569, 19.25818
1075.051, 20.21620
1075.533, 21.09942
1076.016, 21.65082
1076.498, 21.69313
1076.980, 20.72334
1077.462, 19.02396
1077.944, 17.78477
1078.426, 17.44880
1078.908, 17.43933
1079.390, 17.13903
1079.873, 17.46240
1080.355, 20.14715
1080.837, 22.97533
1081.319, 23.10205
1081.801, 20.99883
1082.283, 18.91243
1082.765, 17.44470
1083.247, 16.33407
1083.729, 15.61837
1084.212, 15.03763
1084.694, 14.09649
1085.176, 13.49476
1085.658, 14.24601
1086.140, 15.86865
1086.622, 17.09689
1087.104, 17.61779
1087.586, 18.13431
1088.068, 19.67870
1088.551, 20.35139
1089.033, 18.17645
1089.515, 15.66216
1089.997, 15.46426
1090.479, 16.41368
1090.961, 15.49548
1091.443, 12.36295
1091.925, 11.11278
1092.408, 15.23898
1092.890, 18.85565
1093.372, 19.52726
1093.854, 18.93329
1094.336, 17.80929
1094.818, 16.49132
1095.300, 14.96426
1095.782, 13.43979
1096.265, 13.21076
1096.747, 15.51541
1097.229, 17.46714
1097.711, 18.05374
1098.193, 18.07296
1098.675, 17.15771
1099.157, 16.52135
1099.639, 18.22812
1100.121, 21.57620
1100.604, 23.14670
1101.086, 21.76307
1101.568, 20.03534
1102.050, 17.65193
1102.532, 16.29862
1103.014, 18.03795
1103.496, 19.98415
1103.978, 18.92030
1104.460, 16.02501
1104.943, 14.81469
1105.425, 16.08206
1105.907, 17.18853
1106.389, 17.38867
1106.871, 17.74423
1107.353, 18.86413
1107.835, 19.93739
1108.317, 20.35822
1108.800, 20.36759
1109.282, 20.38575
1109.764, 20.44461
1110.246, 20.44254
1110.728, 20.88152
1111.210, 20.48624
1111.692, 17.15482
1112.174, 15.18449
1112.656, 18.61014
1113.139, 23.21638
1113.621, 23.23406
1114.103, 19.14369
1114.585, 16.84920
1115.067, 17.52458
1115.549, 17.96026
1116.031, 17.70607
1116.513, 17.87292
1116.995, 19.43262
1117.478, 20.88508
1117.960, 20.90238
1118.442, 19.76912
1118.924, 18.24599
1119.406, 15.87653
1119.888, 15.01537
1120.370, 16.65112
1120.852, 17.66621
1121.335, 16.82587
1121.817, 16.30113
1122.299, 17.87440
1122.781, 20.24217
1123.263, 21.07448
1123.745, 20.35027
1124.227, 18.70025
1124.709, 15.30275
1125.192, 14.11284
1125.674, 16.31418
1126.156, 18.62471
1126.638, 19.51529
1127.120, 19.89734
1127.602, 20.86533
1128.084, 22.24905
1128.566, 23.34291
1129.048, 24.23871
1129.531, 23.87226
1130.013, 22.04844
1130.495, 19.97382
1130.977, 17.96982
1131.459, 16.07639
1131.941, 14.15271
1132.423, 12.95730
1132.905, 14.83472
1133.387, 19.45246
1133.870, 21.31722
1134.352, 20.53394
1134.834, 20.15693
1135.316, 20.74911
1135.798, 19.66821
1136.280, 15.31956
1136.762, 11.12084
1137.244, 11.89470
1137.727, 15.86144
1138.209, 17.60704
1138.691, 17.69924
1139.173, 18.92140
1139.655, 21.16279
1140.137, 21.77747
1140.619, 19.95082
1141.101, 17.55070
1141.583, 15.89453
1142.066, 15.18773
1142.548, 16.57463
1143.030, 18.71266
1143.512, 18.46435
1143.994, 16.64549
1144.476, 15.73654
1144.958, 16.15222
1145.440, 17.21065
1145.922, 18.64029
1146.405, 19.51967
1146.887, 18.05521
1147.369, 16.47410
1147.851, 18.00747
1148.333, 20.64994
1148.815, 21.23871
1149.297, 20.21727
1149.779, 19.56490
1150.262, 19.84234
1150.744, 20.42274
1151.226, 21.22543
1151.708, 21.77210
1152.190, 22.05444
1152.672, 21.65049
1153.154, 19.37239
1153.636, 16.66660
1154.119, 15.86779
1154.601, 16.75689
1155.083, 16.97927
1155.565, 15.56170
1156.047, 14.61238
1156.529, 15.10208
1157.011, 15.84180
1157.493, 16.09770
1157.975, 16.58590
1158.458, 18.69594
1158.940, 21.22713
1159.422, 21.58034
1159.904, 19.41065
1160.386, 17.03664
1160.868, 13.12144
1161.350, 11.38890
1161.832, 13.50486
1162.314, 16.23591
1162.797, 19.14454
1163.279, 21.14399
1163.761, 20.41296
1164.243, 17.82864
1164.725, 17.70740
1165.207, 21.21532
1165.689, 23.15651
1166.171, 23.49463
1166.654, 22.04705
1167.136, 17.88417
1167.618, 14.73605
1168.100, 15.42198
1168.582, 17.73402
1169.064, 17.82723
1169.546, 16.02948
1170.028, 15.29754
1170.510, 15.64480
1170.993, 16.84111
1171.475, 18.89022
1171.957, 19.79554
1172.439, 18.77745
1172.921, 17.52577
1173.403, 17.68677
1173.885, 18.16558
1174.367, 15.88300
1174.849, 12.27095
1175.332, 12.82678
1175.814, 16.60591
1176.296, 19.77372
1176.778, 21.47797
1177.260, 21.61562
1177.742, 20.15342
1178.224, 18.42936
1178.706, 17.50135
1179.189, 17.27062
1179.671, 18.21989
1180.153, 19.36242
1180.635, 18.85340
1181.117, 17.42184
1181.599, 17.04450
1182.081, 17.94863
1182.563, 18.72323
1183.046, 18.76151
1183.528, 18.37646
1184.010, 17.52032
1184.492, 16.56872
1184.974, 15.71652
1185.456, 14.95159
1185.938, 13.79671
1186.420, 12.82916
1186.902, 13.77167
1187.385, 17.04086
1187.867, 18.92137
1188.349, 17.49719
1188.831, 16.43587
1189.313, 16.82404
1189.795, 17.22730
1190.277, 16.97028
1190.759, 16.38052
1191.241, 15.58921
1191.724, 14.76245
1192.206, 14.58559
1192.688, 15.24013
1193.170, 15.78130
1193.652, 16.20472
1194.134, 16.53954
1194.616, 16.83153
1195.098, 16.92438
1195.581, 16.76965
1196.063, 16.16714
1196.545, 14.57154
1197.027, 12.56568
1197.509, 13.16800
1197.991, 16.13484
1198.473, 17.19986
1198.955, 16.28693
1199.438, 16.39713
1199.920, 18.22412
1200.402, 19.02200
1200.884, 16.81288
1201.366, 14.36609
1201.848, 15.91876
1202.330, 19.40414
1202.812, 21.57373
1203.294, 22.31995
1203.776, 20.67685
1204.259, 17.56492
1204.741, 15.78717
1205.223, 15.91529
1205.705, 15.46088
1206.187, 12.28924
1206.669, 10.06601
1207.151, 12.39607
1207.633, 15.51073
1208.116, 17.08142
1208.598, 17.26802
1209.080, 15.49337
1209.562, 12.88688
1210.044, 12.33419
1210.526, 14.52503
1211.008, 16.12323
1211.490, 16.21983
1211.973, 16.09262
1212.455, 15.18934
1212.937, 15.11665
1213.419, 17.38618
1213.901, 19.94373
1214.383, 20.83959
1214.865, 20.31832
1215.347, 19.00214
1215.829, 16.54190
1216.312, 15.87574
1216.794, 17.44580
1217.276, 18.61424
1217.758, 18.90101
1218.240, 18.90841
1218.722, 18.91921
1219.204, 18.82608
1219.686, 18.40538
1220.168, 18.02361
1220.651, 18.91391
1221.133, 20.63844
1221.615, 21.68905
1222.097, 21.88038
1222.579, 20.27734
1223.061, 17.20404
1223.543, 15.35525
1224.025, 15.99744
1224.508, 16.70970
1224.990, 14.33044
1225.472, 12.29648
1225.954, 15.11202
1226.436, 19.27287
1226.918, 21.29798
1227.400, 21.41800
1227.882, 19.87059
1228.365, 17.32670
1228.847, 15.93607
1229.329, 16.46007
1229.811, 17.46636
1230.293, 19.79750
1230.775, 20.82394
1231.257, 18.15271
1231.739, 15.58562
1232.221, 15.98475
1232.703, 17.55764
1233.186, 17.90316
1233.668, 17.30306
1234.150, 17.69628
1234.632, 19.40338
1235.114, 20.99710
1235.596, 22.74188
1236.078, 22.71723
1236.560, 20.14719
1237.043, 18.18633
1237.525, 18.74394
1238.007, 20.20498
1238.489, 20.55480
1238.971, 20.06434
1239.453, 19.49209
1239.935, 18.71667
1240.417, 16.64697
1240.900, 14.05043
1241.382, 14.11319
1241.864, 16.94492
1242.346, 19.54286
1242.828, 20.47148
1243.310, 20.41259
1243.792, 19.21731
1244.274, 18.08380
1244.756, 17.65507
1245.239, 18.04236
1245.721, 20.37892
1246.203, 22.98667
1246.685, 23.15621
1247.167, 21.05108
1247.649, 18.88815
1248.131, 16.45193
1248.613, 15.92895
1249.095, 20.36588
1249.578, 22.42186
1250.060, 19.44498
1250.542, 16.04605
1251.024, 14.28185
1251.506, 13.65576
1251.988, 13.75852
1252.470, 14.34912
1252.952, 14.41094
1253.435, 13.92088
1253.917, 13.90228
1254.399, 14.36072
1254.881, 15.21038
1255.363, 16.36724
1255.845, 16.89741
1256.327, 16.38560
1256.809, 15.75775
1257.292, 15.87338
1257.774, 16.38403
1258.256, 17.25595
1258.738, 17.86593
1259.220, 16.74862
1259.702, 15.04555
1260.184, 15.09345
1260.666, 16.43175
1261.148, 16.52459
1261.630, 14.67045
1262.113, 13.58165
1262.595, 15.05459
1263.077, 16.22034
1263.559, 16.17036
1264.041, 15.75203
1264.523, 14.59457
1265.005, 14.03748
1265.487, 15.88003
1265.970, 18.74439
1266.452, 19.27102
1266.934, 17.40797
1267.416, 16.84905
1267.898, 17.75217
1268.380, 19.06677
1268.862, 20.79229
1269.344, 20.71619
1269.827, 18.09753
1270.309, 15.65602
1270.791, 15.38540
1271.273, 16.11195
1271.755, 16.30488
1272.237, 16.26342
1272.719, 16.77296
1273.201, 17.30805
1273.683, 16.18575
1274.166, 14.53032
1274.648, 15.81099
1275.130, 19.81948
1275.612, 21.70656
1276.094, 19.02085
1276.576, 16.98652
1277.058, 19.02266
1277.540, 20.22799
1278.022, 17.96840
1278.505, 15.09056
1278.987, 12.47370
1279.469, 11.13247
1279.951, 12.83689
1280.433, 16.63535
1280.915, 18.55007
1281.397, 18.33032
1281.879, 18.22120
1282.362, 18.30885
1282.844, 17.13208
1283.326, 14.41837
1283.808, 13.22054
1284.290, 14.79632
1284.772, 16.75176
1285.254, 17.16409
1285.736, 16.04121
##END=



