##NAMES=Vergasovaite
##RRUFFID=R061141
##IDEAL CHEMISTRY=Cu^2+^_3_O(Mo^6+^O_4_)(S^6+^O_4_)
##LOCALITY=Tolbachik Volcano, Kamchatka, Russia
##OWNER=RRUFF
##SOURCE=Michael Scott
##DESCRIPTION=Dark green prismatic, co-type material, associated with apple green euchlorine
##STATUS=The identification of this mineral is confirmed by single-crystal X-ray diffraction and chemical analysis.
##URL=rruff.info/R061141
##MEASURED CHEMISTRY=(Cu_2.97_Zn_0.03_)_Σ=3_O(Mo_0.98_S_0.02_)_Σ=1_O_4_(S_1.00_O_4_); trace amounts of Fe
131.8679, 5022.283
132.3500, 5181.364
132.8322, 5341.979
133.3143, 5504.194
133.7964, 5658.943
134.2785, 5806.210
134.7606, 5947.042
135.2427, 6078.208
135.7249, 6195.714
136.2070, 6326.007
136.6891, 6490.347
137.1712, 6699.506
137.6533, 6891.300
138.1354, 7069.134
138.6176, 7226.998
139.0997, 7335.098
139.5818, 7364.527
140.0639, 7395.068
140.5460, 7489.641
141.0281, 7677.585
141.5103, 7860.833
141.9924, 8023.707
142.4745, 8167.716
142.9566, 8301.283
143.4387, 8379.278
143.9208, 8430.010
144.4030, 8489.539
144.8851, 8558.192
145.3672, 8634.062
145.8493, 8721.837
146.3314, 8840.253
146.8135, 8920.479
147.2957, 8924.304
147.7778, 8896.020
148.2599, 8921.963
148.7420, 9077.479
149.2241, 9223.541
149.7062, 9313.773
150.1883, 9312.005
150.6705, 9303.535
151.1526, 9295.184
151.6347, 9284.604
152.1168, 9260.652
152.5989, 9227.868
153.0810, 9178.503
153.5632, 9108.302
154.0453, 9026.782
154.5274, 8913.938
155.0095, 8749.065
155.4916, 8533.101
155.9737, 8333.717
156.4559, 8184.278
156.9380, 8051.635
157.4201, 7904.771
157.9022, 7713.163
158.3843, 7523.506
158.8664, 7352.520
159.3486, 7203.697
159.8307, 7070.498
160.3128, 6956.372
160.7949, 6855.618
161.2770, 6758.666
161.7591, 6666.088
162.2413, 6573.265
162.7234, 6472.823
163.2055, 6350.985
163.6876, 6248.471
164.1697, 6200.047
164.6518, 6191.891
165.1339, 6179.894
165.6161, 6130.285
166.0982, 6070.125
166.5803, 6026.594
167.0624, 6019.658
167.5445, 6019.750
168.0266, 5997.443
168.5088, 5955.903
168.9909, 5929.669
169.4730, 5959.584
169.9551, 6016.412
170.4372, 6056.497
170.9193, 6048.417
171.4015, 6022.913
171.8836, 6012.274
172.3657, 6018.022
172.8478, 6024.477
173.3299, 6012.546
173.8120, 5989.823
174.2942, 5974.976
174.7763, 5978.174
175.2584, 5994.578
175.7405, 6020.261
176.2226, 6058.375
176.7047, 6094.047
177.1869, 6106.260
177.6690, 6099.427
178.1511, 6094.293
178.6332, 6108.578
179.1153, 6133.917
179.5974, 6151.124
180.0796, 6155.688
180.5617, 6153.207
181.0438, 6150.165
181.5259, 6146.852
182.0080, 6145.811
182.4901, 6144.149
182.9722, 6145.072
183.4544, 6162.916
183.9365, 6212.370
184.4186, 6274.916
184.9007, 6304.657
185.3828, 6298.920
185.8649, 6287.155
186.3471, 6303.044
186.8292, 6342.492
187.3113, 6373.124
187.7934, 6374.917
188.2755, 6357.075
188.7576, 6365.052
189.2398, 6404.818
189.7219, 6447.556
190.2040, 6449.740
190.6861, 6411.240
191.1682, 6376.755
191.6503, 6371.434
192.1325, 6392.465
192.6146, 6395.276
193.0967, 6370.139
193.5788, 6343.533
194.0609, 6381.196
194.5430, 6492.838
195.0252, 6580.848
195.5073, 6578.606
195.9894, 6483.458
196.4715, 6399.974
196.9536, 6335.887
197.4357, 6288.102
197.9178, 6250.971
198.4000, 6226.086
198.8821, 6204.306
199.3642, 6178.744
199.8463, 6148.139
200.3284, 6120.262
200.8105, 6095.604
201.2927, 6074.218
201.7748, 6059.938
202.2569, 6057.486
202.7390, 6049.830
203.2211, 6019.313
203.7032, 5961.479
204.1854, 5902.002
204.6675, 5844.649
205.1496, 5789.411
205.6317, 5745.796
206.1138, 5717.197
206.5959, 5693.816
207.0781, 5661.755
207.5602, 5615.435
208.0423, 5579.098
208.5244, 5560.806
209.0065, 5561.387
209.4886, 5569.466
209.9708, 5591.096
210.4529, 5613.287
210.9350, 5613.214
211.4171, 5581.006
211.8992, 5550.745
212.3813, 5535.149
212.8635, 5536.926
213.3456, 5539.889
213.8277, 5540.950
214.3098, 5545.200
214.7919, 5566.508
215.2740, 5614.230
215.7561, 5659.815
216.2383, 5686.430
216.7204, 5680.142
217.2025, 5696.402
217.6846, 5743.766
218.1667, 5812.938
218.6488, 5876.566
219.1310, 5933.983
219.6131, 5985.783
220.0952, 6031.120
220.5773, 6064.799
221.0594, 6102.561
221.5415, 6144.159
222.0237, 6190.466
222.5058, 6244.853
222.9879, 6310.915
223.4700, 6380.602
223.9521, 6449.550
224.4342, 6517.247
224.9164, 6584.237
225.3985, 6651.022
225.8806, 6717.141
226.3627, 6780.646
226.8448, 6840.774
227.3270, 6898.545
227.8091, 6954.403
228.2912, 7009.599
228.7733, 7060.375
229.2554, 7104.188
229.7375, 7140.515
230.2197, 7184.141
230.7018, 7243.847
231.1839, 7302.750
231.6660, 7340.074
232.1481, 7338.247
232.6302, 7347.244
233.1123, 7382.811
233.5945, 7450.468
234.0766, 7503.973
234.5587, 7545.167
235.0408, 7570.296
235.5229, 7571.274
236.0050, 7530.844
236.4872, 7495.311
236.9693, 7483.779
237.4514, 7509.207
237.9335, 7502.505
238.4156, 7452.817
238.8977, 7377.178
239.3799, 7303.280
239.8620, 7233.286
240.3441, 7161.349
240.8262, 7086.179
241.3083, 7006.842
241.7904, 6925.257
242.2726, 6836.718
242.7547, 6747.921
243.2368, 6676.271
243.7189, 6640.684
244.2010, 6593.309
244.6831, 6510.071
245.1653, 6366.345
245.6474, 6249.033
246.1295, 6172.400
246.6116, 6118.667
247.0937, 6036.127
247.5758, 5899.857
248.0579, 5771.362
248.5401, 5682.760
249.0222, 5661.688
249.5043, 5615.500
249.9864, 5529.806
250.4685, 5417.386
250.9506, 5325.643
251.4328, 5258.160
251.9149, 5204.764
252.3970, 5162.949
252.8791, 5143.301
253.3612, 5109.683
253.8433, 5054.666
254.3255, 4983.951
254.8076, 4919.379
255.2897, 4860.066
255.7718, 4808.196
256.2539, 4765.260
256.7360, 4733.372
257.2181, 4704.838
257.7003, 4679.685
258.1824, 4657.056
258.6645, 4631.015
259.1466, 4595.272
259.6287, 4565.795
260.1108, 4557.757
260.5930, 4583.247
261.0751, 4593.919
261.5572, 4577.327
262.0393, 4538.520
262.5214, 4519.319
263.0035, 4529.280
263.4857, 4541.738
263.9678, 4532.291
264.4499, 4492.420
264.9320, 4459.659
265.4141, 4441.677
265.8962, 4436.865
266.3784, 4434.344
266.8605, 4436.941
267.3426, 4436.571
267.8247, 4424.524
268.3068, 4398.118
268.7889, 4370.888
269.2711, 4341.673
269.7532, 4312.734
270.2353, 4308.781
270.7174, 4338.309
271.1995, 4374.580
271.6816, 4391.482
272.1638, 4386.575
272.6459, 4375.009
273.1280, 4354.870
273.6101, 4329.107
274.0922, 4326.756
274.5743, 4354.991
275.0565, 4387.689
275.5386, 4396.802
276.0207, 4380.090
276.5028, 4358.237
276.9849, 4334.470
277.4670, 4309.718
277.9492, 4287.887
278.4313, 4268.755
278.9134, 4253.688
279.3955, 4246.085
279.8776, 4246.411
280.3597, 4245.252
280.8419, 4240.568
281.3240, 4232.294
281.8061, 4218.162
282.2882, 4196.556
282.7703, 4175.854
283.2524, 4165.459
283.7346, 4165.246
284.2167, 4169.392
284.6988, 4176.262
285.1809, 4186.092
285.6630, 4200.095
286.1451, 4218.743
286.6273, 4239.073
287.1094, 4255.324
287.5915, 4268.528
288.0736, 4288.880
288.5557, 4320.035
289.0378, 4360.944
289.5199, 4410.121
290.0020, 4468.298
290.4842, 4529.808
290.9663, 4595.312
291.4484, 4661.250
291.9305, 4712.515
292.4126, 4738.843
292.8947, 4747.636
293.3769, 4756.348
293.8590, 4765.173
294.3411, 4771.564
294.8232, 4764.140
295.3053, 4750.143
295.7874, 4753.519
296.2696, 4795.236
296.7517, 4856.394
297.2338, 4895.853
297.7159, 4913.073
298.1980, 4939.093
298.6801, 5007.159
299.1623, 5106.730
299.6444, 5211.085
300.1265, 5309.050
300.6086, 5406.884
301.0907, 5514.832
301.5728, 5631.028
302.0550, 5754.686
302.5371, 5892.842
303.0192, 6036.405
303.5013, 6166.431
303.9834, 6262.393
304.4655, 6349.585
304.9477, 6452.339
305.4298, 6570.575
305.9119, 6689.986
306.3940, 6796.549
306.8761, 6899.392
307.3582, 7009.529
307.8404, 7124.427
308.3225, 7253.390
308.8046, 7407.836
309.2867, 7585.004
309.7688, 7765.687
310.2509, 7931.650
310.7331, 8095.347
311.2152, 8270.150
311.6973, 8469.756
312.1794, 8676.231
312.6615, 8884.249
313.1436, 9094.007
313.6258, 9295.247
314.1079, 9509.121
314.5900, 9705.027
315.0721, 9855.340
315.5542, 9960.982
316.0363, 10011.12
316.5185, 9995.400
317.0006, 9915.750
317.4827, 9797.759
317.9648, 9653.099
318.4469, 9471.581
318.9290, 9245.245
319.4112, 8918.963
319.8933, 8602.829
320.3754, 8321.568
320.8575, 8073.869
321.3396, 7841.724
321.8217, 7619.116
322.3038, 7415.072
322.7859, 7236.041
323.2681, 7084.633
323.7502, 6955.603
324.2323, 6851.990
324.7144, 6772.199
325.1965, 6707.983
325.6786, 6674.895
326.1608, 6646.963
326.6429, 6610.180
327.1250, 6538.311
327.6071, 6492.405
328.0892, 6481.506
328.5714, 6500.355
329.0535, 6522.662
329.5356, 6549.177
330.0177, 6578.263
330.4998, 6610.218
330.9819, 6649.351
331.4641, 6681.991
331.9462, 6701.435
332.4283, 6714.340
332.9104, 6743.871
333.3925, 6794.419
333.8746, 6853.520
334.3568, 6917.140
334.8389, 6987.012
335.3210, 7054.199
335.8031, 7121.477
336.2852, 7183.900
336.7673, 7225.786
337.2495, 7238.146
337.7316, 7259.223
338.2137, 7320.783
338.6958, 7429.904
339.1779, 7488.708
339.6600, 7478.362
340.1422, 7439.322
340.6243, 7452.525
341.1064, 7523.294
341.5885, 7587.043
342.0706, 7599.838
342.5527, 7570.058
343.0349, 7571.935
343.5170, 7611.340
343.9991, 7670.358
344.4812, 7724.814
344.9633, 7775.567
345.4454, 7834.790
345.9276, 7918.645
346.4097, 8015.037
346.8918, 8084.353
347.3739, 8122.984
347.8560, 8160.075
348.3381, 8232.745
348.8203, 8332.043
349.3024, 8427.375
349.7845, 8499.286
350.2666, 8561.420
350.7487, 8629.534
351.2308, 8703.417
351.7130, 8790.850
352.1951, 8913.606
352.6772, 9052.618
353.1593, 9175.034
353.6414, 9238.360
354.1235, 9300.120
354.6056, 9421.163
355.0877, 9596.590
355.5699, 9762.169
356.0520, 9880.621
356.5341, 9967.393
357.0162, 10039.37
357.4983, 10094.92
357.9804, 10142.58
358.4626, 10192.76
358.9447, 10242.08
359.4268, 10268.41
359.9089, 10250.92
360.3910, 10214.12
360.8731, 10176.03
361.3553, 10152.30
361.8374, 10113.60
362.3195, 10048.70
362.8016, 9962.039
363.2837, 9869.483
363.7658, 9761.781
364.2480, 9657.969
364.7301, 9566.230
365.2122, 9476.021
365.6943, 9414.579
366.1764, 9411.023
366.6585, 9436.588
367.1407, 9421.731
367.6228, 9335.685
368.1049, 9239.975
368.5870, 9151.514
369.0691, 9063.583
369.5512, 9002.354
370.0334, 8988.096
370.5155, 8990.348
370.9976, 8959.574
371.4797, 8886.234
371.9618, 8797.856
372.4439, 8699.937
372.9261, 8590.885
373.4082, 8485.143
373.8903, 8388.912
374.3724, 8286.667
374.8545, 8157.716
375.3366, 7996.536
375.8188, 7833.595
376.3009, 7672.628
376.7830, 7516.157
377.2651, 7375.896
377.7472, 7256.608
378.2293, 7135.771
378.7115, 6984.150
379.1936, 6806.191
379.6757, 6634.604
380.1578, 6478.111
380.6399, 6334.784
381.1220, 6198.646
381.6042, 6070.274
382.0863, 5948.999
382.5684, 5834.074
383.0505, 5725.346
383.5326, 5627.298
384.0147, 5546.440
384.4969, 5466.718
384.9790, 5359.607
385.4611, 5235.213
385.9432, 5126.887
386.4253, 5070.489
386.9074, 5035.840
387.3895, 4987.061
387.8716, 4913.595
388.3538, 4841.836
388.8359, 4797.028
389.3180, 4766.746
389.8001, 4727.197
390.2822, 4650.286
390.7643, 4573.500
391.2465, 4523.639
391.7286, 4508.438
392.2107, 4487.503
392.6928, 4440.253
393.1749, 4380.581
393.6570, 4326.228
394.1392, 4299.501
394.6213, 4260.429
395.1034, 4187.576
395.5855, 4076.696
396.0676, 3988.840
396.5497, 3949.815
397.0319, 3924.245
397.5140, 3882.860
397.9961, 3804.330
398.4782, 3738.984
398.9603, 3699.802
399.4424, 3681.535
399.9246, 3644.682
400.4067, 3578.549
400.8888, 3507.924
401.3709, 3447.429
401.8530, 3401.239
402.3351, 3353.910
402.8173, 3303.843
403.2994, 3252.532
403.7815, 3203.576
404.2636, 3156.833
404.7457, 3112.439
405.2278, 3066.962
405.7100, 3020.902
406.1921, 2991.097
406.6742, 2981.304
407.1563, 2978.777
407.6384, 2967.439
408.1205, 2947.443
408.6027, 2920.384
409.0848, 2879.729
409.5669, 2833.365
410.0490, 2806.414
410.5311, 2799.814
411.0132, 2794.306
411.4954, 2768.850
411.9775, 2731.408
412.4596, 2698.056
412.9417, 2669.020
413.4238, 2651.228
413.9059, 2658.865
414.3881, 2687.718
414.8702, 2711.349
415.3523, 2706.018
415.8344, 2690.987
416.3165, 2685.379
416.7986, 2700.394
417.2808, 2714.077
417.7629, 2710.637
418.2450, 2697.288
418.7271, 2692.044
419.2092, 2705.410
419.6913, 2724.658
420.1734, 2744.709
420.6555, 2766.984
421.1377, 2784.907
421.6198, 2795.229
422.1019, 2801.247
422.5840, 2807.589
423.0661, 2811.121
423.5482, 2818.900
424.0304, 2832.722
424.5125, 2853.115
424.9946, 2876.042
425.4767, 2901.033
425.9588, 2928.905
426.4409, 2961.112
426.9231, 3000.597
427.4052, 3035.861
427.8873, 3065.506
428.3694, 3089.787
428.8515, 3109.365
429.3336, 3123.137
429.8158, 3136.520
430.2979, 3149.828
430.7800, 3163.656
431.2621, 3192.497
431.7442, 3242.002
432.2263, 3297.413
432.7085, 3334.132
433.1906, 3353.800
433.6727, 3369.285
434.1548, 3386.061
434.6369, 3403.627
435.1190, 3424.360
435.6012, 3449.381
436.0833, 3465.685
436.5654, 3452.600
437.0475, 3423.787
437.5296, 3403.692
438.0117, 3428.109
438.4939, 3444.002
438.9760, 3406.274
439.4581, 3320.526
439.9402, 3230.548
440.4223, 3151.360
440.9044, 3080.095
441.3866, 3015.759
441.8687, 2962.463
442.3508, 2908.585
442.8329, 2843.522
443.3150, 2775.193
443.7971, 2725.336
444.2793, 2710.777
444.7614, 2703.434
445.2435, 2693.174
445.7256, 2677.740
446.2077, 2665.626
446.6898, 2656.751
447.1720, 2651.214
447.6541, 2648.913
448.1362, 2649.360
448.6183, 2654.294
449.1004, 2665.727
449.5826, 2682.877
450.0647, 2695.158
450.5468, 2700.449
451.0289, 2707.201
451.5110, 2726.292
451.9931, 2757.929
452.4753, 2776.305
452.9574, 2771.587
453.4395, 2760.530
453.9216, 2780.536
454.4037, 2829.378
454.8858, 2878.461
455.3679, 2910.540
455.8500, 2931.375
456.3322, 2952.339
456.8143, 2973.998
457.2964, 2997.458
457.7785, 3024.470
458.2606, 3053.847
458.7427, 3083.868
459.2249, 3117.104
459.7070, 3147.943
460.1891, 3169.495
460.6712, 3182.533
461.1533, 3198.886
461.6354, 3222.461
462.1176, 3252.226
462.5997, 3287.598
463.0818, 3339.741
463.5639, 3382.613
464.0460, 3408.118
464.5281, 3420.384
465.0103, 3432.373
465.4924, 3440.045
465.9745, 3452.231
466.4566, 3474.160
466.9387, 3512.163
467.4208, 3536.675
467.9030, 3544.253
468.3851, 3541.749
468.8672, 3537.471
469.3493, 3531.788
469.8314, 3523.668
470.3135, 3513.475
470.7957, 3500.801
471.2778, 3482.177
471.7599, 3457.125
472.2420, 3430.703
472.7241, 3406.541
473.2062, 3384.733
473.6884, 3365.049
474.1705, 3348.456
474.6526, 3331.624
475.1347, 3304.391
475.6168, 3271.153
476.0989, 3248.772
476.5811, 3260.484
477.0632, 3280.360
477.5453, 3274.597
478.0274, 3239.912
478.5095, 3209.280
478.9916, 3211.432
479.4738, 3226.221
479.9559, 3230.545
480.4380, 3202.523
480.9201, 3177.416
481.4022, 3166.082
481.8843, 3167.630
482.3665, 3177.598
482.8486, 3205.526
483.3307, 3233.805
483.8128, 3253.192
484.2949, 3258.511
484.7770, 3265.080
485.2592, 3268.013
485.7413, 3274.654
486.2234, 3298.348
486.7055, 3347.404
487.1876, 3393.810
487.6697, 3427.134
488.1518, 3449.172
488.6339, 3487.361
489.1161, 3545.334
489.5982, 3604.864
490.0803, 3649.378
490.5624, 3680.530
491.0445, 3712.122
491.5266, 3745.781
492.0088, 3782.711
492.4909, 3825.069
492.9730, 3872.381
493.4551, 3926.133
493.9372, 3990.923
494.4193, 4060.499
494.9015, 4124.239
495.3836, 4181.296
495.8657, 4242.681
496.3478, 4317.575
496.8299, 4400.651
497.3120, 4487.845
497.7942, 4582.942
498.2763, 4675.368
498.7584, 4763.329
499.2405, 4846.235
499.7226, 4923.111
500.2047, 4977.428
500.6869, 5039.480
501.1690, 5126.599
501.6511, 5259.649
502.1332, 5372.546
502.6153, 5454.265
503.0974, 5522.659
503.5796, 5605.886
504.0617, 5709.769
504.5438, 5811.601
505.0259, 5903.746
505.5080, 5988.004
505.9901, 6074.910
506.4723, 6163.858
506.9544, 6257.318
507.4365, 6362.777
507.9186, 6476.401
508.4007, 6576.161
508.8828, 6653.268
509.3650, 6727.527
509.8471, 6825.848
510.3292, 6941.963
510.8113, 7056.108
511.2934, 7162.398
511.7755, 7259.234
512.2576, 7347.948
512.7397, 7427.667
513.2219, 7489.314
513.7040, 7509.174
514.1861, 7517.815
514.6682, 7542.768
515.1503, 7610.635
515.6324, 7671.862
516.1146, 7716.211
516.5967, 7746.471
517.0788, 7772.292
517.5609, 7789.404
518.0430, 7808.252
518.5251, 7836.725
519.0073, 7881.148
519.4894, 7896.576
519.9715, 7872.356
520.4536, 7835.351
520.9357, 7816.570
521.4178, 7819.586
521.9000, 7809.156
522.3821, 7777.176
522.8642, 7728.378
523.3463, 7674.750
523.8284, 7615.918
524.3105, 7549.288
524.7927, 7477.796
525.2748, 7397.109
525.7569, 7294.772
526.2390, 7167.563
526.7211, 7034.496
527.2032, 6909.525
527.6854, 6788.000
528.1675, 6662.711
528.6496, 6531.652
529.1317, 6394.676
529.6138, 6251.938
530.0959, 6103.600
530.5781, 5943.411
531.0602, 5752.452
531.5423, 5564.020
532.0244, 5398.750
532.5065, 5274.463
532.9886, 5132.668
533.4708, 4956.006
533.9529, 4772.022
534.4350, 4615.294
534.9171, 4489.610
535.3992, 4378.473
535.8813, 4283.535
536.3635, 4199.230
536.8456, 4088.961
537.3277, 3947.652
537.8098, 3814.541
538.2919, 3724.404
538.7740, 3665.531
539.2562, 3595.619
539.7383, 3509.048
540.2204, 3419.025
540.7025, 3335.867
541.1846, 3258.324
541.6667, 3182.963
542.1489, 3099.213
542.6310, 3024.467
543.1131, 2977.510
543.5952, 2954.094
544.0773, 2929.205
544.5594, 2897.885
545.0416, 2858.277
545.5237, 2807.254
546.0058, 2736.363
546.4879, 2672.040
546.9700, 2611.537
547.4521, 2560.621
547.9343, 2529.771
548.4164, 2533.737
548.8985, 2527.262
549.3806, 2496.500
549.8627, 2446.997
550.3448, 2414.204
550.8270, 2401.565
551.3091, 2389.869
551.7912, 2362.160
552.2733, 2322.459
552.7554, 2296.268
553.2375, 2287.530
553.7197, 2282.978
554.2018, 2268.496
554.6839, 2246.055
555.1660, 2220.705
555.6481, 2190.534
556.1302, 2161.729
556.6124, 2138.625
557.0945, 2121.114
557.5766, 2108.564
558.0587, 2105.274
558.5408, 2103.671
559.0229, 2099.978
559.5051, 2095.034
559.9872, 2084.229
560.4693, 2060.098
560.9514, 2032.877
561.4335, 2014.095
561.9156, 2009.554
562.3978, 2003.056
562.8799, 1992.525
563.3620, 1977.947
563.8441, 1955.515
564.3262, 1921.324
564.8083, 1896.923
565.2905, 1904.265
565.7726, 1935.775
566.2547, 1942.514
566.7368, 1920.151
567.2189, 1889.341
567.7010, 1869.869
568.1831, 1858.869
568.6652, 1850.051
569.1473, 1841.141
569.6295, 1834.176
570.1116, 1830.556
570.5937, 1830.184
571.0758, 1832.943
571.5579, 1844.946
572.0400, 1854.910
572.5222, 1855.661
573.0043, 1844.119
573.4864, 1835.708
573.9685, 1833.349
574.4506, 1833.596
574.9327, 1834.045
575.4149, 1835.476
575.8970, 1834.559
576.3791, 1828.274
576.8612, 1821.411
577.3433, 1828.839
577.8254, 1852.614
578.3076, 1871.158
578.7897, 1856.400
579.2718, 1879.430
579.7539, 1894.641
580.2360, 1902.451
580.7181, 1880.697
581.2003, 1897.120
581.6824, 1898.243
582.1645, 1898.738
582.6466, 1920.534
583.1287, 1903.080
583.6108, 1924.537
584.0930, 1930.463
584.5751, 1943.496
585.0572, 1941.136
585.5393, 1943.531
586.0214, 1961.324
586.5035, 1970.591
586.9857, 1966.460
587.4678, 1972.443
587.9499, 1987.484
588.4320, 2001.703
588.9141, 2015.875
589.3962, 2024.627
589.8784, 2025.906
590.3605, 2025.560
590.8426, 2032.128
591.3247, 2045.055
591.8068, 2058.984
592.2889, 2073.499
592.7711, 2086.878
593.2532, 2097.365
593.7353, 2104.588
594.2174, 2107.052
594.6995, 2097.449
595.1816, 2086.843
595.6638, 2088.991
596.1459, 2108.026
596.6280, 2115.296
597.1101, 2086.312
597.5922, 2047.428
598.0743, 2022.869
598.5565, 2024.862
599.0386, 2030.377
599.5207, 2043.475
600.0028, 2057.734
600.4849, 2055.594
600.9670, 2029.922
601.4492, 2007.923
601.9313, 2001.561
602.4134, 2007.998
602.8955, 2005.875
603.3776, 1994.840
603.8597, 1980.094
604.3419, 1956.713
604.8240, 1933.672
605.3061, 1934.065
605.7882, 1964.599
606.2703, 2006.222
606.7524, 2053.713
607.2346, 2098.342
607.7167, 2125.002
608.1988, 2108.956
608.6809, 2093.632
609.1630, 2093.074
609.6451, 2106.927
610.1273, 2132.052
610.6094, 2187.993
611.0915, 2235.133
611.5736, 2254.873
612.0557, 2239.433
612.5378, 2242.599
613.0200, 2268.320
613.5021, 2304.735
613.9842, 2341.511
614.4663, 2378.306
614.9484, 2412.708
615.4305, 2442.120
615.9127, 2474.341
616.3948, 2526.262
616.8769, 2592.213
617.3590, 2654.199
617.8411, 2694.124
618.3232, 2732.199
618.8054, 2789.895
619.2875, 2865.151
619.7696, 2935.831
620.2517, 2995.894
620.7338, 3047.050
621.2159, 3087.861
621.6981, 3106.060
622.1802, 3143.979
622.6623, 3221.874
623.1444, 3305.765
623.6265, 3356.286
624.1086, 3364.736
624.5908, 3368.340
625.0729, 3369.343
625.5550, 3372.655
626.0371, 3393.938
626.5192, 3432.339
627.0013, 3470.872
627.4835, 3495.796
627.9656, 3516.556
628.4477, 3554.695
628.9298, 3609.714
629.4119, 3657.218
629.8940, 3665.502
630.3762, 3666.949
630.8583, 3692.401
631.3404, 3756.744
631.8225, 3823.441
632.3046, 3890.147
632.7867, 3950.516
633.2689, 3996.307
633.7510, 4034.812
634.2330, 4046.932
634.7151, 4024.509
635.1973, 3975.299
635.6794, 3925.507
636.1615, 3875.887
636.6436, 3824.496
637.1257, 3780.659
637.6078, 3735.813
638.0900, 3648.742
638.5721, 3518.188
639.0542, 3372.281
639.5363, 3219.473
640.0184, 3068.932
640.5005, 2935.384
640.9827, 2820.867
641.4648, 2721.379
641.9469, 2642.422
642.4290, 2573.120
642.9111, 2496.492
643.3932, 2390.900
643.8754, 2299.893
644.3575, 2236.313
644.8396, 2193.517
645.3217, 2144.546
645.8038, 2084.791
646.2859, 2030.210
646.7681, 1989.128
647.2502, 1960.230
647.7323, 1932.995
648.2144, 1907.474
648.6965, 1880.805
649.1786, 1848.466
649.6608, 1813.513
650.1429, 1782.927
650.6250, 1758.187
651.1071, 1737.262
651.5892, 1716.545
652.0714, 1699.515
652.5535, 1691.276
653.0356, 1710.525
653.5177, 1719.963
653.9998, 1699.801
654.4819, 1659.592
654.9641, 1639.670
655.4462, 1655.791
655.9283, 1665.966
656.4104, 1651.698
656.8925, 1614.051
657.3746, 1589.057
657.8568, 1577.670
658.3389, 1572.047
658.8210, 1566.152
659.3031, 1560.809
659.7852, 1558.838
660.2673, 1560.831
660.7495, 1565.036
661.2316, 1574.667
661.7137, 1584.216
662.1958, 1585.728
662.6779, 1566.434
663.1600, 1549.557
663.6422, 1546.069
664.1243, 1551.198
664.6064, 1549.861
665.0885, 1534.670
665.5706, 1522.547
666.0527, 1520.245
666.5349, 1526.567
667.0170, 1522.833
667.4991, 1506.866
667.9812, 1490.181
668.4633, 1479.096
668.9454, 1473.882
669.4276, 1478.451
669.9097, 1494.355
670.3918, 1508.304
670.8739, 1505.322
671.3560, 1493.158
671.8381, 1482.317
672.3203, 1474.226
672.8024, 1470.521
673.2845, 1476.464
673.7666, 1486.536
674.2487, 1490.001
674.7308, 1478.220
675.2130, 1468.820
675.6951, 1465.700
676.1772, 1467.627
676.6593, 1468.418
677.1414, 1468.299
677.6235, 1466.289
678.1057, 1460.181
678.5878, 1451.396
679.0699, 1448.571
679.5520, 1451.958
680.0341, 1453.540
680.5162, 1439.223
680.9984, 1422.156
681.4805, 1421.668
681.9626, 1447.700
682.4447, 1470.337
682.9268, 1477.119
683.4089, 1472.064
683.8911, 1459.955
684.3732, 1429.750
684.8553, 1407.826
685.3374, 1397.487
685.8195, 1396.544
686.3016, 1400.869
686.7838, 1411.767
687.2659, 1422.091
687.7480, 1431.236
688.2301, 1437.210
688.7122, 1428.379
689.1943, 1406.530
689.6765, 1391.957
690.1586, 1410.618
690.6407, 1437.769
691.1228, 1442.142
691.6049, 1418.701
692.0870, 1399.920
692.5692, 1399.140
693.0513, 1409.636
693.5334, 1427.105
694.0155, 1470.938
694.4976, 1487.380
694.9797, 1461.307
695.4619, 1420.769
695.9440, 1406.261
696.4261, 1421.718
696.9082, 1433.456
697.3903, 1433.134
697.8724, 1426.419
698.3546, 1422.632
698.8367, 1421.834
699.3188, 1424.310
699.8009, 1435.592
700.2830, 1446.217
700.7651, 1435.415
701.2472, 1409.488
701.7293, 1415.072
702.2114, 1539.154
702.6935, 1641.581
703.1757, 1630.133
703.6578, 1471.792
704.1399, 1372.788
704.6220, 1349.099
705.1041, 1360.429
705.5862, 1384.608
706.0684, 1422.409
706.5505, 1434.059
707.0326, 1410.967
707.5147, 1379.386
707.9968, 1368.765
708.4789, 1374.172
708.9611, 1384.838
709.4432, 1400.975
709.9253, 1415.598
710.4074, 1423.478
710.8895, 1426.422
711.3716, 1428.483
711.8538, 1434.699
712.3359, 1435.329
712.8180, 1420.998
713.3001, 1397.225
713.7822, 1399.691
714.2643, 1439.651
714.7465, 1474.534
715.2286, 1478.376
715.7107, 1457.948
716.1928, 1454.242
716.6749, 1467.496
717.1570, 1483.712
717.6392, 1497.662
718.1213, 1505.059
718.6034, 1494.989
719.0855, 1461.078
719.5676, 1437.439
720.0497, 1451.300
720.5319, 1477.328
721.0140, 1491.037
721.4961, 1476.654
721.9782, 1468.397
722.4603, 1467.965
722.9424, 1473.079
723.4246, 1482.059
723.9067, 1495.692
724.3888, 1503.524
724.8709, 1499.652
725.3530, 1492.887
725.8351, 1502.931
726.3173, 1525.616
726.7994, 1543.389
727.2815, 1543.042
727.7636, 1538.117
728.2457, 1539.319
728.7278, 1545.714
729.2100, 1548.617
729.6921, 1538.475
730.1742, 1531.049
730.6563, 1533.349
731.1384, 1546.172
731.6205, 1560.852
732.1027, 1579.516
732.5848, 1594.483
733.0669, 1596.006
733.5490, 1586.716
734.0311, 1586.518
734.5132, 1597.669
734.9954, 1611.400
735.4775, 1620.029
735.9596, 1625.542
736.4417, 1630.094
736.9238, 1631.016
737.4059, 1637.481
737.8881, 1661.309
738.3702, 1690.260
738.8523, 1705.698
739.3344, 1697.675
739.8165, 1692.637
740.2986, 1694.868
740.7808, 1701.508
741.2629, 1705.916
741.7450, 1708.039
742.2271, 1709.024
742.7092, 1708.287
743.1913, 1707.530
743.6735, 1707.748
744.1556, 1709.927
744.6377, 1718.514
745.1198, 1745.771
745.6019, 1772.220
746.0840, 1784.511
746.5662, 1781.831
747.0483, 1778.123
747.5304, 1772.388
748.0125, 1769.081
748.4946, 1770.448
748.9767, 1776.785
749.4589, 1785.818
749.9410, 1798.080
750.4231, 1810.211
750.9052, 1819.480
751.3873, 1826.012
751.8694, 1829.378
752.3516, 1829.028
752.8337, 1828.377
753.3158, 1825.985
753.7979, 1826.646
754.2800, 1836.530
754.7621, 1870.104
755.2443, 1894.214
755.7264, 1896.587
756.2085, 1889.672
756.6906, 1889.552
757.1727, 1897.101
757.6548, 1908.983
758.1370, 1925.396
758.6191, 1944.737
759.1012, 1962.898
759.5833, 1980.292
760.0654, 1999.989
760.5475, 2026.256
761.0297, 2052.659
761.5118, 2071.635
761.9939, 2085.464
762.4760, 2103.051
762.9581, 2135.710
763.4402, 2164.915
763.9224, 2180.962
764.4045, 2184.920
764.8866, 2190.833
765.3687, 2197.332
765.8508, 2209.031
766.3329, 2229.508
766.8150, 2257.946
767.2971, 2287.310
767.7792, 2317.553
768.2614, 2353.575
768.7435, 2405.963
769.2256, 2462.565
769.7077, 2507.428
770.1898, 2536.411
770.6719, 2566.642
771.1541, 2606.881
771.6362, 2649.524
772.1183, 2687.865
772.6004, 2715.578
773.0825, 2751.658
773.5646, 2794.932
774.0468, 2848.766
774.5289, 2924.623
775.0110, 3019.173
775.4931, 3098.328
775.9752, 3153.135
776.4573, 3199.154
776.9395, 3252.083
777.4216, 3310.141
777.9037, 3370.254
778.3858, 3421.769
778.8679, 3486.404
779.3500, 3579.448
779.8322, 3689.602
780.3143, 3789.488
780.7964, 3878.466
781.2785, 3959.012
781.7606, 4027.937
782.2427, 4092.541
782.7249, 4174.757
783.2070, 4273.562
783.6891, 4372.616
784.1712, 4457.458
784.6533, 4540.372
785.1354, 4642.272
785.6176, 4756.002
786.0997, 4855.114
786.5818, 4919.955
787.0639, 4973.626
787.5460, 5021.751
788.0281, 5064.438
788.5103, 5119.756
788.9924, 5194.577
789.4745, 5266.051
789.9566, 5323.463
790.4387, 5367.204
790.9208, 5393.877
791.4030, 5403.663
791.8851, 5406.499
792.3672, 5417.095
792.8493, 5421.461
793.3314, 5399.084
793.8135, 5344.767
794.2957, 5292.185
794.7778, 5261.457
795.2599, 5230.761
795.7420, 5184.557
796.2241, 5116.045
796.7062, 5054.083
797.1884, 5000.218
797.6705, 4950.327
798.1526, 4904.586
798.6347, 4860.286
799.1168, 4803.307
799.5989, 4730.755
800.0811, 4653.978
800.5632, 4583.323
801.0453, 4514.124
801.5274, 4438.624
802.0095, 4340.515
802.4916, 4260.292
802.9738, 4213.390
803.4559, 4185.929
803.9380, 4164.381
804.4201, 4151.994
804.9022, 4131.099
805.3843, 4092.710
805.8665, 4057.341
806.3486, 4070.186
806.8307, 4117.513
807.3128, 4148.079
807.7949, 4132.747
808.2770, 4112.379
808.7592, 4114.553
809.2413, 4134.831
809.7234, 4164.399
810.2055, 4199.905
810.6876, 4247.333
811.1697, 4311.115
811.6519, 4385.043
812.1340, 4450.856
812.6161, 4507.331
813.0982, 4564.377
813.5803, 4622.669
814.0624, 4686.751
814.5446, 4763.491
815.0267, 4852.285
815.5088, 4949.348
815.9909, 5058.442
816.4730, 5169.868
816.9551, 5271.488
817.4373, 5367.830
817.9194, 5492.119
818.4015, 5652.724
818.8836, 5828.793
819.3657, 6022.146
819.8478, 6225.948
820.3300, 6402.193
820.8121, 6551.006
821.2942, 6714.778
821.7763, 6921.340
822.2584, 7157.888
822.7405, 7420.028
823.2227, 7706.311
823.7048, 7995.670
824.1869, 8276.794
824.6690, 8563.127
825.1511, 8864.354
825.6332, 9179.289
826.1154, 9505.220
826.5975, 9832.662
827.0796, 10192.10
827.5617, 10610.77
828.0438, 11075.33
828.5259, 11530.32
829.0081, 11971.77
829.4902, 12409.76
829.9723, 12831.51
830.4544, 13253.68
830.9365, 13696.62
831.4186, 14162.07
831.9007, 14629.82
832.3828, 15111.45
832.8649, 15585.81
833.3470, 16042.17
833.8292, 16479.22
834.3113, 16911.80
834.7934, 17342.33
835.2755, 17755.38
835.7576, 18134.66
836.2397, 18488.02
836.7219, 18832.85
837.2040, 19174.85
837.6861, 19464.45
838.1682, 19667.73
838.6503, 19812.18
839.1324, 19924.16
839.6146, 20021.83
840.0967, 20036.41
840.5788, 19965.29
841.0609, 19815.34
841.5430, 19586.37
842.0251, 19281.11
842.5073, 18937.90
842.9894, 18561.90
843.4715, 18131.96
843.9536, 17607.95
844.4357, 17025.70
844.9178, 16435.48
845.4000, 15844.40
845.8821, 15241.20
846.3642, 14606.49
846.8463, 13969.45
847.3284, 13346.32
847.8105, 12733.71
848.2927, 12173.01
848.7748, 11669.07
849.2569, 11201.27
849.7390, 10732.22
850.2211, 10274.39
850.7032, 9868.111
851.1854, 9519.967
851.6675, 9212.652
852.1496, 8940.780
852.6317, 8702.177
853.1138, 8488.490
853.5959, 8301.262
854.0781, 8134.781
854.5602, 7992.015
855.0423, 7868.263
855.5244, 7757.974
856.0065, 7662.517
856.4886, 7588.563
856.9708, 7538.953
857.4529, 7504.968
857.9350, 7481.312
858.4171, 7466.375
858.8992, 7456.223
859.3813, 7442.589
859.8635, 7449.758
860.3456, 7495.805
860.8277, 7557.281
861.3098, 7615.501
861.7919, 7670.250
862.2740, 7719.296
862.7562, 7760.701
863.2383, 7803.196
863.7204, 7873.528
864.2025, 7950.817
864.6846, 7992.229
865.1667, 7984.600
865.6489, 7949.637
866.1310, 7886.870
866.6131, 7808.618
867.0952, 7729.959
867.5773, 7672.638
868.0594, 7570.303
868.5416, 7412.265
869.0237, 7226.080
869.5058, 7043.982
869.9879, 6864.621
870.4700, 6680.143
870.9521, 6485.706
871.4343, 6291.765
871.9164, 6101.155
872.3985, 5915.896
872.8806, 5739.406
873.3627, 5574.791
873.8448, 5411.137
874.3270, 5249.717
874.8091, 5086.044
875.2912, 4907.568
875.7733, 4713.678
876.2554, 4552.093
876.7375, 4428.741
877.2197, 4331.350
877.7018, 4265.712
878.1839, 4210.604
878.6660, 4129.601
879.1481, 4004.170
879.6302, 3889.589
880.1124, 3809.957
880.5945, 3746.410
881.0766, 3682.868
881.5587, 3618.935
882.0408, 3555.802
882.5229, 3492.431
883.0051, 3433.127
883.4872, 3380.314
883.9693, 3335.915
884.4514, 3310.557
884.9335, 3310.432
885.4156, 3300.274
885.8978, 3244.120
886.3799, 3177.199
886.8620, 3132.739
887.3441, 3123.297
887.8262, 3106.420
888.3083, 3078.518
888.7905, 3050.148
889.2726, 3031.195
889.7547, 3020.373
890.2368, 3014.841
890.7189, 3015.308
891.2010, 3008.262
891.6832, 2972.349
892.1653, 2930.899
892.6474, 2906.543
893.1295, 2908.531
893.6116, 2903.949
894.0938, 2886.057
894.5759, 2867.170
895.0580, 2856.060
895.5401, 2852.556
896.0222, 2841.849
896.5043, 2823.284
896.9865, 2809.716
897.4685, 2813.759
897.9506, 2827.462
898.4327, 2845.890
898.9149, 2869.366
899.3970, 2882.036
899.8791, 2867.941
900.3612, 2853.138
900.8433, 2850.940
901.3254, 2861.632
901.8076, 2862.572
902.2897, 2853.087
902.7718, 2842.089
903.2539, 2830.468
903.7360, 2824.023
904.2181, 2836.423
904.7003, 2865.870
905.1824, 2888.586
905.6645, 2884.749
906.1466, 2881.035
906.6287, 2890.971
907.1108, 2913.108
907.5930, 2930.002
908.0751, 2941.424
908.5572, 2948.665
909.0393, 2949.934
909.5214, 2948.625
910.0035, 2947.374
910.4857, 2948.453
910.9678, 2961.980
911.4499, 3009.454
911.9320, 3054.230
912.4141, 3073.967
912.8962, 3075.348
913.3784, 3089.399
913.8605, 3118.050
914.3426, 3153.148
914.8247, 3192.967
915.3068, 3236.730
915.7889, 3284.636
916.2711, 3335.112
916.7532, 3381.076
917.2353, 3412.748
917.7174, 3446.356
918.1995, 3490.207
918.6816, 3541.934
919.1638, 3594.309
919.6459, 3643.333
920.1280, 3702.932
920.6101, 3777.770
921.0922, 3860.199
921.5743, 3938.203
922.0565, 4012.756
922.5386, 4087.155
923.0207, 4160.082
923.5028, 4236.210
923.9849, 4314.711
924.4670, 4399.631
924.9492, 4497.896
925.4313, 4613.248
925.9134, 4736.357
926.3955, 4867.300
926.8776, 5002.491
927.3597, 5129.694
927.8419, 5255.087
928.3240, 5408.654
928.8061, 5597.565
929.2882, 5803.011
929.7703, 6013.937
930.2524, 6229.743
930.7346, 6447.798
931.2167, 6652.633
931.6988, 6891.317
932.1809, 7155.440
932.6630, 7460.605
933.1451, 7840.676
933.6273, 8278.266
934.1094, 8646.105
934.5915, 8933.242
935.0736, 9243.735
935.5557, 9646.279
936.0378, 10104.67
936.5200, 10585.83
937.0021, 11083.68
937.4842, 11619.11
937.9663, 12178.60
938.4484, 12790.25
938.9305, 13474.00
939.4127, 14229.40
939.8948, 15045.59
940.3769, 15930.19
940.8590, 16862.36
941.3411, 17792.57
941.8232, 18798.48
942.3054, 19960.00
942.7875, 21274.60
943.2696, 22579.07
943.7517, 23846.83
944.2338, 25143.95
944.7159, 26501.37
945.1981, 27888.35
945.6802, 29233.35
946.1623, 30541.58
946.6444, 31879.56
947.1265, 33298.14
947.6086, 34715.44
948.0908, 36062.75
948.5729, 37366.09
949.0550, 38682.32
949.5371, 40030.91
950.0192, 41375.98
950.5013, 42736.25
950.9835, 44058.20
951.4656, 45284.22
951.9477, 46415.39
952.4298, 47474.91
952.9119, 48500.29
953.3940, 49356.16
953.8762, 49999.07
954.3583, 50379.24
954.8404, 50432.43
955.3225, 50129.65
955.8046, 49566.66
956.2867, 48740.91
956.7689, 47658.34
957.2510, 46272.07
957.7331, 44617.38
958.2152, 42824.06
958.6973, 40908.91
959.1794, 38944.19
959.6616, 36937.52
960.1437, 34927.74
960.6258, 32952.04
961.1079, 30996.60
961.5900, 29121.52
962.0721, 27351.89
962.5543, 25685.92
963.0364, 24132.76
963.5184, 22692.85
964.0005, 21313.07
964.4827, 20010.28
964.9648, 18809.63
965.4469, 17779.76
965.9290, 16822.75
966.4111, 15885.21
966.8932, 14977.76
967.3754, 14109.16
967.8575, 13275.52
968.3396, 12516.61
968.8217, 11843.56
969.3038, 11237.67
969.7859, 10660.87
970.2681, 10121.43
970.7502, 9630.643
971.2323, 9206.317
971.7144, 8821.396
972.1965, 8472.152
972.6786, 8151.731
973.1608, 7848.607
973.6429, 7561.669
974.1250, 7297.079
974.6071, 7055.946
975.0892, 6837.486
975.5714, 6652.602
976.0535, 6489.000
976.5356, 6326.594
977.0177, 6160.817
977.4998, 6004.021
977.9819, 5853.544
978.4641, 5720.903
978.9462, 5616.314
979.4283, 5541.141
979.9104, 5457.577
980.3925, 5364.331
980.8746, 5285.631
981.3568, 5246.557
981.8389, 5224.581
982.3210, 5190.797
982.8031, 5148.005
983.2852, 5120.248
983.7673, 5117.555
984.2495, 5127.868
984.7316, 5147.728
985.2137, 5178.515
985.6958, 5229.589
986.1779, 5298.816
986.6600, 5362.926
987.1422, 5406.694
987.6243, 5452.653
988.1064, 5513.072
988.5885, 5591.087
989.0706, 5692.323
989.5527, 5837.400
990.0349, 5972.489
990.5170, 6085.815
990.9991, 6205.950
991.4812, 6374.838
991.9633, 6583.943
992.4454, 6782.604
992.9276, 6963.297
993.4097, 7163.361
993.8918, 7420.515
994.3739, 7698.645
994.8560, 7969.944
995.3381, 8231.726
995.8203, 8507.855
996.3024, 8796.662
996.7845, 9115.729
997.2666, 9487.021
997.7487, 9889.994
998.2308, 10280.66
998.7130, 10657.90
999.1951, 11024.62
999.6772, 11360.74
1000.159, 11708.56
1000.641, 12094.62
1001.124, 12501.53
1001.606, 12895.60
1002.088, 13272.05
1002.570, 13658.85
1003.052, 14073.92
1003.534, 14471.58
1004.016, 14779.54
1004.498, 15032.55
1004.980, 15292.49
1005.463, 15610.32
1005.945, 15865.66
1006.427, 16033.56
1006.909, 16147.38
1007.391, 16252.89
1007.873, 16343.87
1008.355, 16330.97
1008.837, 16208.38
1009.320, 15997.59
1009.802, 15703.23
1010.284, 15335.77
1010.766, 14897.77
1011.248, 14385.53
1011.730, 13866.08
1012.212, 13351.43
1012.694, 12811.98
1013.176, 12232.90
1013.659, 11628.74
1014.141, 11024.85
1014.623, 10431.00
1015.105, 9865.102
1015.587, 9320.768
1016.069, 8815.879
1016.551, 8367.351
1017.033, 7960.644
1017.516, 7570.508
1017.998, 7194.207
1018.480, 6841.919
1018.962, 6512.057
1019.444, 6208.783
1019.926, 5950.706
1020.408, 5716.417
1020.890, 5470.440
1021.372, 5198.707
1021.855, 4953.883
1022.337, 4748.031
1022.819, 4569.563
1023.301, 4424.131
1023.783, 4306.639
1024.265, 4147.551
1024.747, 3951.262
1025.229, 3805.501
1025.711, 3842.362
1026.194, 3878.573
1026.676, 3733.377
1027.158, 3464.764
1027.640, 3299.349
1028.122, 3301.149
1028.604, 3281.508
1029.086, 3198.062
1029.568, 3089.350
1030.051, 3014.621
1030.533, 2965.603
1031.015, 2920.206
1031.497, 2872.500
1031.979, 2828.797
1032.461, 2791.305
1032.943, 2759.185
1033.425, 2730.839
1033.907, 2706.212
1034.390, 2685.583
1034.872, 2669.055
1035.354, 2652.682
1035.836, 2629.530
1036.318, 2607.274
1036.800, 2598.216
1037.282, 2600.046
1037.764, 2593.614
1038.246, 2565.707
1038.729, 2544.195
1039.211, 2537.913
1039.693, 2539.871
1040.175, 2530.536
1040.657, 2514.303
1041.139, 2510.037
1041.621, 2529.406
1042.103, 2548.995
1042.586, 2554.479
1043.068, 2553.235
1043.550, 2553.885
1044.032, 2558.181
1044.514, 2556.943
1044.996, 2548.210
1045.478, 2544.119
1045.960, 2559.160
1046.443, 2583.330
1046.925, 2602.614
1047.407, 2616.513
1047.889, 2629.666
1048.371, 2640.894
1048.853, 2654.859
1049.335, 2672.611
1049.817, 2694.172
1050.299, 2724.540
1050.781, 2761.051
1051.264, 2782.701
1051.746, 2772.998
1052.228, 2765.958
1052.710, 2788.499
1053.192, 2826.787
1053.674, 2863.753
1054.156, 2900.101
1054.638, 2928.571
1055.121, 2947.143
1055.603, 2965.425
1056.085, 2988.442
1056.567, 3018.786
1057.049, 3063.991
1057.531, 3123.366
1058.013, 3183.285
1058.495, 3242.605
1058.978, 3296.906
1059.460, 3343.420
1059.942, 3385.335
1060.424, 3428.618
1060.906, 3474.691
1061.388, 3534.968
1061.870, 3619.327
1062.352, 3707.688
1062.834, 3782.641
1063.317, 3851.648
1063.799, 3923.284
1064.281, 3995.515
1064.763, 4076.088
1065.245, 4166.800
1065.727, 4259.248
1066.209, 4346.000
1066.691, 4428.497
1067.173, 4502.707
1067.656, 4571.313
1068.138, 4657.699
1068.620, 4797.950
1069.102, 4921.934
1069.584, 4998.281
1070.066, 5050.356
1070.548, 5152.198
1071.030, 5295.701
1071.512, 5419.189
1071.995, 5500.354
1072.477, 5566.641
1072.959, 5630.036
1073.441, 5694.301
1073.923, 5764.381
1074.405, 5840.947
1074.887, 5922.265
1075.369, 6010.833
1075.852, 6089.197
1076.334, 6140.248
1076.816, 6175.272
1077.298, 6213.900
1077.780, 6254.320
1078.262, 6277.385
1078.744, 6260.993
1079.226, 6248.123
1079.708, 6251.804
1080.191, 6259.858
1080.673, 6247.739
1081.155, 6216.865
1081.637, 6173.353
1082.119, 6118.923
1082.601, 6051.262
1083.083, 5958.184
1083.565, 5858.453
1084.047, 5770.635
1084.530, 5696.939
1085.012, 5611.015
1085.494, 5512.442
1085.976, 5401.023
1086.458, 5267.342
1086.940, 5127.563
1087.422, 4999.894
1087.904, 4881.636
1088.387, 4764.733
1088.869, 4654.782
1089.351, 4529.893
1089.833, 4380.928
1090.315, 4226.779
1090.797, 4096.848
1091.279, 3985.032
1091.761, 3875.316
1092.244, 3765.180
1092.726, 3659.040
1093.208, 3560.443
1093.690, 3463.854
1094.172, 3364.411
1094.654, 3263.139
1095.136, 3175.645
1095.618, 3101.610
1096.100, 3027.645
1096.583, 2940.860
1097.065, 2856.135
1097.547, 2784.724
1098.029, 2724.303
1098.511, 2670.999
1098.993, 2624.991
1099.475, 2584.696
1099.957, 2552.336
1100.439, 2517.044
1100.922, 2463.427
1101.404, 2401.508
1101.886, 2349.082
1102.368, 2307.579
1102.850, 2259.620
1103.332, 2185.057
1103.814, 2128.668
1104.296, 2111.660
1104.779, 2118.442
1105.261, 2107.814
1105.743, 2082.414
1106.225, 2052.684
1106.707, 2021.246
1107.189, 1987.507
1107.671, 1946.367
1108.153, 1905.535
1108.635, 1870.221
1109.118, 1839.853
1109.600, 1826.409
1110.082, 1830.687
1110.564, 1831.302
1111.046, 1812.847
1111.528, 1783.604
1112.010, 1740.251
1112.492, 1690.777
1112.974, 1670.868
1113.457, 1695.111
1113.939, 1708.154
1114.421, 1698.125
1114.903, 1675.622
1115.385, 1648.667
1115.867, 1622.088
1116.349, 1605.950
1116.831, 1605.867
1117.314, 1597.457
1117.796, 1563.394
1118.278, 1539.991
1118.760, 1555.169
1119.242, 1593.031
1119.724, 1583.905
1120.206, 1538.123
1120.688, 1501.295
1121.171, 1504.132
1121.653, 1510.118
1122.135, 1506.259
1122.617, 1497.158
1123.099, 1486.307
1123.581, 1473.538
1124.063, 1468.328
1124.545, 1471.913
1125.027, 1473.768
1125.510, 1466.291
1125.992, 1452.724
1126.474, 1430.266
1126.956, 1401.495
1127.438, 1391.738
1127.920, 1406.838
1128.402, 1414.337
1128.884, 1402.764
1129.366, 1383.971
1129.849, 1368.482
1130.331, 1358.566
1130.813, 1359.663
1131.295, 1381.712
1131.777, 1389.261
1132.259, 1375.097
1132.741, 1357.918
1133.223, 1348.702
1133.705, 1345.863
1134.188, 1346.850
1134.670, 1350.535
1135.152, 1352.486
1135.634, 1348.415
1136.116, 1345.484
1136.598, 1347.781
1137.080, 1349.615
1137.562, 1339.685
1138.045, 1320.873
1138.527, 1311.941
1139.009, 1315.415
1139.491, 1323.721
1139.973, 1338.351
1140.455, 1349.870
1140.937, 1349.264
1141.419, 1340.077
1141.901, 1343.343
1142.384, 1359.408
1142.866, 1366.330
1143.348, 1352.763
1143.830, 1335.870
1144.312, 1335.290
1144.794, 1338.897
1145.276, 1328.090
1145.758, 1291.697
1146.240, 1284.599
1146.723, 1311.818
1147.205, 1342.321
1147.687, 1354.718
1148.169, 1357.097
1148.651, 1358.359
1149.133, 1358.412
1149.615, 1355.936
1150.097, 1342.217
1150.580, 1343.196
1151.062, 1367.182
1151.544, 1394.770
1152.026, 1399.490
1152.508, 1390.584
1152.990, 1384.739
1153.472, 1383.872
1153.954, 1389.724
1154.437, 1414.073
1154.919, 1431.474
1155.401, 1432.093
1155.883, 1422.261
1156.365, 1417.224
1156.847, 1416.615
1157.329, 1418.833
1157.811, 1422.751
1158.293, 1431.215
1158.776, 1451.161
1159.258, 1471.393
1159.740, 1483.115
1160.222, 1486.785
1160.704, 1491.298
1161.186, 1497.073
1161.668, 1509.472
1162.150, 1542.788
1162.632, 1571.688
1163.115, 1574.911
1163.597, 1566.098
1164.079, 1571.241
1164.561, 1593.486
1165.043, 1596.477
1165.525, 1575.137
1166.007, 1552.357
1166.489, 1543.531
1166.972, 1545.244
1167.454, 1561.052
1167.936, 1587.854
1168.418, 1596.414
1168.900, 1583.431
1169.382, 1568.704
1169.864, 1556.583
1170.346, 1548.327
1170.828, 1549.261
1171.311, 1553.305
1171.793, 1553.337
1172.275, 1548.438
1172.757, 1535.161
1173.239, 1510.497
1173.721, 1487.950
1174.203, 1477.339
1174.685, 1471.442
1175.167, 1457.557
1175.650, 1438.256
1176.132, 1419.622
1176.614, 1401.420
1177.096, 1388.384
1177.578, 1383.043
1178.060, 1378.023
1178.542, 1361.495
1179.024, 1341.718
1179.507, 1346.432
1179.989, 1371.022
1180.471, 1375.551
1180.953, 1313.759
1181.435, 1273.659
1181.917, 1284.046
1182.399, 1311.531
1182.881, 1293.270
1183.364, 1245.783
1183.846, 1227.221
1184.328, 1249.502
1184.810, 1263.953
1185.292, 1243.717
1185.774, 1214.876
1186.256, 1182.839
1186.738, 1153.830
1187.220, 1160.040
1187.703, 1192.103
1188.185, 1205.389
1188.667, 1176.174
1189.149, 1146.202
1189.631, 1134.130
1190.113, 1131.163
1190.595, 1131.650
1191.077, 1135.488
1191.559, 1142.276
1192.042, 1150.944
1192.524, 1150.656
1193.006, 1126.364
1193.488, 1101.311
1193.970, 1082.059
1194.452, 1072.948
1194.934, 1085.645
1195.416, 1121.798
1195.898, 1132.157
1196.381, 1113.426
1196.863, 1090.340
1197.345, 1077.230
1197.827, 1070.189
1198.309, 1069.304
1198.791, 1072.208
1199.273, 1072.692
1199.755, 1070.706
1200.238, 1066.435
1200.720, 1059.288
1201.202, 1053.188
1201.684, 1052.290
1202.166, 1053.736
1202.648, 1055.342
1203.130, 1056.891
1203.612, 1058.120
1204.094, 1058.987
1204.577, 1059.434
1205.059, 1058.678
1205.541, 1059.019
1206.023, 1066.145
1206.505, 1074.016
1206.987, 1074.088
1207.469, 1064.484
1207.951, 1055.553
1208.433, 1047.074
1208.916, 1041.818
1209.398, 1043.019
1209.880, 1047.225
1210.362, 1054.214
1210.844, 1060.880
1211.326, 1059.502
1211.808, 1046.354
1212.290, 1038.199
1212.773, 1037.255
1213.255, 1033.662
1213.737, 1012.478
1214.219, 988.6312
1214.701, 979.1803
1215.183, 982.5176
1215.665, 987.0868
1216.147, 993.3304
1216.630, 996.2546
1217.112, 995.1457
1217.594, 990.1243
1218.076, 978.1011
1218.558, 964.2408
1219.040, 952.0123
1219.522, 942.3378
1220.004, 950.9529
1220.486, 989.8533
1220.969, 1002.942
1221.451, 964.2859
1221.933, 912.4425
1222.415, 898.2171
1222.897, 906.1670
1223.379, 916.8061
1223.861, 928.6844
1224.343, 933.2363
1224.825, 928.4227
1225.308, 924.1901
1225.790, 928.5278
1226.272, 932.6751
1226.754, 916.8475
1227.236, 892.9365
1227.718, 884.4163
1228.200, 907.0361
1228.682, 920.0937
1229.165, 922.8863
1229.647, 918.7835
1230.129, 903.6184
1230.611, 887.5350
1231.093, 887.7822
1231.575, 899.3903
1232.057, 907.0209
1232.539, 904.6765
1233.021, 907.3193
1233.504, 917.0370
1233.986, 928.0080
1234.468, 937.3967
1234.950, 942.5490
1235.432, 934.0378
1235.914, 915.5900
1236.396, 915.0057
1236.878, 935.2701
1237.360, 974.2941
1237.843, 1041.513
1238.325, 1095.045
1238.807, 1066.851
1239.289, 1002.452
1239.771, 953.5253
1240.253, 926.3857
1240.735, 918.5584
1241.217, 935.3165
1241.700, 948.8831
1242.182, 949.7484
1242.664, 946.8790
1243.146, 954.6736
1243.628, 964.8239
1244.110, 965.1522
1244.592, 950.9333
1245.074, 942.8063
1245.557, 941.3156
1246.039, 943.5651
1246.521, 950.4218
1247.003, 957.0511
1247.485, 960.3876
1247.967, 958.0462
1248.449, 943.9077
1248.931, 909.1016
1249.413, 892.8152
1249.896, 897.0547
1250.378, 907.1245
1250.860, 915.6834
1251.342, 923.4806
1251.824, 936.5534
1252.306, 948.0438
1252.788, 941.2416
1253.270, 907.4927
1253.752, 891.5694
1254.235, 897.2742
1254.717, 903.3903
1255.199, 889.1655
1255.681, 870.9832
1256.163, 862.5154
1256.645, 862.7355
1257.127, 867.0120
1257.609, 876.9243
1258.092, 878.0295
1258.574, 867.7051
1259.056, 858.7024
1259.538, 866.4951
1260.020, 876.5549
1260.502, 873.5438
1260.984, 862.3558
1261.466, 865.3130
1261.948, 883.5275
1262.431, 890.0718
1262.913, 878.4398
1263.395, 863.5555
1263.877, 855.7883
1264.359, 851.8999
1264.841, 849.5156
1265.323, 848.7766
1265.805, 852.8567
1266.287, 861.4520
1266.770, 867.4504
1267.252, 868.2363
1267.734, 868.6397
1268.216, 870.7274
1268.698, 875.2491
1269.180, 885.6916
1269.662, 899.1862
1270.144, 891.6950
1270.626, 866.6674
1271.109, 850.6380
1271.591, 856.6345
1272.073, 865.3370
1272.555, 869.5179
1273.037, 870.4749
1273.519, 867.3958
1274.001, 861.5917
1274.483, 864.1918
1274.966, 873.5060
1275.448, 881.5212
1275.930, 883.8280
1276.412, 885.5163
1276.894, 888.6315
1277.376, 890.8170
1277.858, 891.6083
1278.340, 889.7813
1278.823, 874.6646
##END=



