##NAMES=Vermiculite
##RRUFFID=R050490
##IDEAL CHEMISTRY=Mg_0.7_(Mg,Fe^3+^,Al)_6_(Si,Al)_8_O_20_(OH)_4_&#183;8H_2_O
##LOCALITY=near Tonopah, Nevada, USA
##OWNER=RRUFF
##SOURCE=California Institute of Technology
##DESCRIPTION=Dark green micaceous fragment
##STATUS=The identification of this mineral has been confirmed by X-ray diffraction and chemical analysis
##URL=rruff.info/R050490
##MEASURED CHEMISTRY=(Mg_2.26_Fe^3+^_0.25_Al_0.25_Ca_0.24_)_Σ=3_(Si_3.50_Al_0.50_)_Σ=4_O_10_((OH)_1.90_F_0.10_)_Σ=2_·4H_2_O
90.52570, 0.0000000E+00
91.00781, 17.65447
91.48993, 17.48631
91.97205, 17.41961
92.45416, 17.48931
92.93628, 17.65833
93.41840, 17.85550
93.90051, 18.08303
94.38263, 18.31009
94.86475, 18.18986
95.34686, 17.73244
95.82898, 17.90373
96.31110, 19.84418
96.79321, 23.38531
97.27533, 26.72877
97.75745, 29.52857
98.23956, 31.78992
98.72168, 33.33162
99.20380, 34.05510
99.68591, 34.32254
100.1680, 34.37632
100.6501, 34.11762
101.1323, 34.12620
101.6144, 34.57894
102.0965, 35.49322
102.5786, 36.50776
103.0607, 37.20507
103.5428, 38.37254
104.0250, 41.67051
104.5071, 48.61764
104.9892, 55.09944
105.4713, 59.58111
105.9534, 61.64511
106.4355, 62.50252
106.9177, 60.82612
107.3998, 57.88099
107.8819, 57.62737
108.3640, 61.14816
108.8461, 66.48979
109.3282, 72.85445
109.8104, 79.37330
110.2925, 87.73781
110.7746, 99.80576
111.2567, 114.7568
111.7388, 126.6466
112.2209, 131.8271
112.7031, 135.2451
113.1852, 140.3782
113.6673, 149.7803
114.1494, 159.0795
114.6315, 167.0706
115.1136, 173.7468
115.5958, 180.2908
116.0779, 186.9500
116.5600, 193.7188
117.0421, 200.5617
117.5242, 206.9947
118.0063, 213.9245
118.4885, 221.9734
118.9706, 231.2899
119.4527, 241.1953
119.9348, 251.4044
120.4169, 261.8957
120.8990, 272.8046
121.3812, 283.9551
121.8633, 295.6131
122.3454, 308.0845
122.8275, 321.8487
123.3096, 335.5475
123.7917, 347.8831
124.2739, 359.1017
124.7560, 370.1067
125.2381, 381.4674
125.7202, 393.0482
126.2023, 404.4284
126.6844, 415.5401
127.1666, 426.5318
127.6487, 437.8148
128.1308, 449.3926
128.6129, 460.4768
129.0950, 470.5470
129.5771, 479.7033
130.0593, 488.3043
130.5414, 496.1667
131.0235, 503.5775
131.5056, 510.8118
131.9877, 515.9943
132.4698, 518.5824
132.9520, 520.3536
133.4341, 521.3856
133.9162, 522.9838
134.3983, 525.5345
134.8804, 528.9850
135.3625, 533.2614
135.8447, 538.5471
136.3268, 544.2420
136.8089, 549.4677
137.2910, 554.0990
137.7731, 559.1679
138.2552, 565.3963
138.7374, 572.9788
139.2195, 579.7995
139.7016, 585.8365
140.1837, 591.2354
140.6658, 596.0623
141.1479, 600.0553
141.6301, 604.1388
142.1122, 608.9340
142.5943, 615.0970
143.0764, 620.1419
143.5585, 623.6679
144.0406, 626.0991
144.5228, 629.1303
145.0049, 633.2625
145.4870, 637.3307
145.9691, 640.6418
146.4512, 642.8582
146.9333, 644.9617
147.4155, 646.9709
147.8976, 648.9261
148.3797, 650.9698
148.8618, 653.3350
149.3439, 655.6551
149.8260, 657.6902
150.3082, 658.8798
150.7903, 660.4209
151.2724, 662.5241
151.7545, 665.1860
152.2366, 667.8630
152.7188, 670.4100
153.2009, 673.0055
153.6830, 675.7629
154.1651, 679.6482
154.6472, 682.7542
155.1293, 684.2086
155.6115, 683.7435
156.0936, 683.8583
156.5757, 685.4636
157.0578, 687.6974
157.5399, 689.5997
158.0220, 690.5062
158.5042, 691.4649
158.9863, 692.9367
159.4684, 695.0916
159.9505, 697.1771
160.4326, 698.7025
160.9147, 700.0656
161.3969, 701.8520
161.8790, 704.8411
162.3611, 707.8992
162.8432, 710.4684
163.3253, 712.4443
163.8074, 713.9339
164.2896, 714.4193
164.7717, 714.4296
165.2538, 715.0308
165.7359, 717.1686
166.2180, 719.7838
166.7001, 722.0071
167.1823, 723.3757
167.6644, 724.9387
168.1465, 727.7237
168.6286, 731.2943
169.1107, 734.4332
169.5928, 736.0417
170.0750, 737.0549
170.5571, 738.4936
171.0392, 740.7347
171.5213, 743.1854
172.0034, 745.4523
172.4855, 747.5511
172.9677, 749.4714
173.4498, 751.0539
173.9319, 752.5204
174.4140, 754.1788
174.8961, 756.1320
175.3782, 758.2900
175.8604, 760.7972
176.3425, 763.6016
176.8246, 766.1631
177.3067, 767.7361
177.7888, 768.8174
178.2709, 770.4515
178.7531, 773.4568
179.2352, 776.7914
179.7173, 778.9171
180.1994, 779.8723
180.6815, 780.2390
181.1636, 780.2902
181.6458, 780.1212
182.1279, 779.9955
182.6100, 779.8380
183.0921, 779.8450
183.5742, 780.6832
184.0563, 782.3846
184.5385, 783.9720
185.0206, 784.1575
185.5027, 783.2333
185.9848, 782.6271
186.4669, 783.1500
186.9490, 784.3138
187.4312, 784.5825
187.9133, 783.8613
188.3954, 782.8220
188.8775, 782.2765
189.3596, 782.1678
189.8417, 781.9382
190.3239, 781.4940
190.8060, 780.7862
191.2881, 779.3755
191.7702, 777.1172
192.2523, 774.8111
192.7344, 773.7443
193.2166, 773.9259
193.6987, 773.7224
194.1808, 772.3038
194.6629, 769.7914
195.1450, 767.5640
195.6271, 765.7188
196.1093, 763.9128
196.5914, 761.4160
197.0735, 758.1305
197.5556, 755.3138
198.0377, 753.8369
198.5198, 753.6967
199.0020, 752.6322
199.4841, 750.4099
199.9662, 747.6506
200.4483, 745.2927
200.9304, 743.3734
201.4125, 741.5944
201.8947, 739.9756
202.3768, 738.5730
202.8589, 736.5527
203.3410, 733.7546
203.8231, 730.5399
204.3052, 727.6053
204.7874, 724.9753
205.2695, 722.4730
205.7516, 719.8625
206.2337, 716.9993
206.7158, 715.1489
207.1979, 714.6730
207.6801, 714.8730
208.1622, 714.3634
208.6443, 713.0807
209.1264, 711.2994
209.6085, 708.9380
210.0906, 705.7208
210.5728, 703.1985
211.0549, 701.5233
211.5370, 700.4780
212.0191, 699.7020
212.5012, 699.3377
212.9833, 698.8932
213.4655, 698.0785
213.9476, 696.7195
214.4297, 695.6467
214.9118, 694.9080
215.3939, 694.4550
215.8760, 694.1341
216.3581, 693.9024
216.8403, 693.8914
217.3224, 694.2830
217.8045, 695.4007
218.2866, 695.8488
218.7687, 695.3054
219.2508, 694.1648
219.7330, 693.5648
220.2151, 693.7973
220.6972, 693.9918
221.1793, 693.5908
221.6614, 692.0407
222.1435, 691.4092
222.6257, 692.1410
223.1078, 693.6776
223.5899, 694.4781
224.0720, 694.2874
224.5541, 693.7807
225.0362, 693.2213
225.5184, 692.5256
226.0005, 692.0479
226.4826, 691.9200
226.9647, 692.0000
227.4468, 691.8316
227.9289, 691.2041
228.4111, 690.6885
228.8932, 690.5629
229.3753, 690.9648
229.8574, 691.5060
230.3395, 692.4503
230.8216, 693.4711
231.3038, 693.5294
231.7859, 691.7845
232.2680, 690.3043
232.7501, 690.1337
233.2322, 692.1271
233.7143, 693.4483
234.1965, 693.7443
234.6786, 693.4276
235.1607, 693.6979
235.6428, 694.9290
236.1249, 696.1804
236.6070, 696.9999
237.0892, 697.0736
237.5713, 697.4244
238.0534, 698.3627
238.5355, 699.4879
239.0176, 699.6854
239.4997, 698.2679
239.9819, 696.9068
240.4640, 696.3690
240.9461, 697.0856
241.4282, 697.5732
241.9103, 697.6154
242.3924, 697.5030
242.8746, 698.0385
243.3567, 699.9161
243.8388, 701.3993
244.3209, 701.6336
244.8030, 699.8382
245.2851, 698.9335
245.7673, 699.2682
246.2494, 700.3619
246.7315, 701.1946
247.2136, 701.7101
247.6957, 702.0609
248.1778, 702.2477
248.6600, 702.1155
249.1421, 702.2972
249.6242, 702.8445
250.1063, 703.6749
250.5884, 704.6122
251.0705, 705.5536
251.5527, 706.7773
252.0348, 708.4708
252.5169, 710.9006
252.9990, 712.8549
253.4811, 714.2338
253.9632, 715.2139
254.4454, 716.0060
254.9275, 716.3217
255.4096, 717.0091
255.8917, 718.5566
256.3738, 721.3358
256.8560, 723.1367
257.3381, 723.5280
257.8202, 723.3217
258.3023, 723.7620
258.7844, 725.0224
259.2665, 726.5596
259.7487, 728.3384
260.2308, 730.4533
260.7129, 732.0405
261.1950, 732.8723
261.6771, 733.4164
262.1592, 734.3214
262.6414, 735.7117
263.1235, 737.1238
263.6056, 738.4127
264.0877, 739.5809
264.5698, 740.7438
265.0519, 741.8489
265.5341, 743.0161
266.0162, 744.4506
266.4983, 746.2616
266.9804, 747.9769
267.4625, 749.4844
267.9446, 750.7753
268.4268, 752.1201
268.9089, 753.6459
269.3910, 754.9567
269.8731, 755.4000
270.3552, 754.5712
270.8373, 754.5776
271.3195, 756.3375
271.8016, 759.5490
272.2837, 760.8978
272.7658, 759.7894
273.2479, 758.1747
273.7300, 757.9983
274.2122, 759.5536
274.6943, 760.7090
275.1764, 760.9407
275.6585, 760.4434
276.1406, 760.2347
276.6227, 760.3831
277.1049, 760.6196
277.5870, 760.8547
278.0691, 761.1351
278.5512, 760.8349
279.0333, 759.5897
279.5154, 757.8336
279.9976, 757.1675
280.4797, 757.7753
280.9618, 758.5120
281.4439, 758.6203
281.9260, 758.0904
282.4081, 757.2203
282.8903, 755.9293
283.3724, 754.4377
283.8545, 753.2648
284.3366, 752.4218
284.8187, 751.7609
285.3008, 751.3884
285.7830, 751.2411
286.2651, 750.5113
286.7472, 748.9528
287.2293, 747.1080
287.7114, 745.9651
288.1935, 745.5174
288.6757, 745.3115
289.1578, 745.1097
289.6399, 744.9318
290.1220, 744.9316
290.6041, 745.1473
291.0862, 745.4288
291.5684, 745.6534
292.0505, 745.8005
292.5326, 745.6932
293.0147, 745.0676
293.4968, 744.1173
293.9789, 743.4258
294.4611, 743.0427
294.9432, 742.7715
295.4253, 742.4465
295.9074, 742.0627
296.3895, 741.5932
296.8716, 740.8513
297.3538, 740.0583
297.8359, 739.7672
298.3180, 739.9994
298.8001, 740.2336
299.2822, 739.8772
299.7643, 739.1263
300.2465, 738.4798
300.7286, 737.8934
301.2107, 737.6525
301.6928, 738.4352
302.1749, 740.1677
302.6570, 741.8119
303.1392, 742.4807
303.6213, 742.5047
304.1034, 742.4182
304.5855, 742.3073
305.0676, 742.2335
305.5497, 742.2661
306.0319, 742.3942
306.5140, 742.5596
306.9961, 742.4668
307.4782, 742.4762
307.9603, 743.0778
308.4424, 744.5904
308.9246, 746.3038
309.4067, 747.7439
309.8888, 748.9380
310.3709, 750.0032
310.8530, 750.8932
311.3351, 751.7206
311.8173, 752.6906
312.2994, 754.0420
312.7815, 754.9240
313.2636, 754.1453
313.7457, 752.6005
314.2278, 751.8965
314.7100, 753.4268
315.1921, 755.5163
315.6742, 757.2183
316.1563, 758.4055
316.6384, 759.4176
317.1205, 760.1625
317.6027, 760.8666
318.0848, 761.8115
318.5669, 763.4446
319.0490, 765.0120
319.5311, 766.1882
320.0132, 766.9427
320.4954, 767.6052
320.9775, 767.9879
321.4596, 768.4376
321.9417, 769.2455
322.4238, 771.0287
322.9059, 772.5893
323.3881, 773.2899
323.8702, 773.2552
324.3523, 774.0688
324.8344, 777.1100
325.3165, 780.3136
325.7986, 782.4887
326.2808, 782.2672
326.7629, 782.5323
327.2450, 783.5810
327.7271, 785.2877
328.2092, 787.1517
328.6913, 789.3934
329.1735, 791.5924
329.6556, 793.5917
330.1377, 795.1506
330.6198, 796.9769
331.1019, 799.4240
331.5840, 802.0143
332.0662, 803.8113
332.5483, 803.9772
333.0304, 804.5463
333.5125, 806.2566
333.9946, 809.3976
334.4767, 812.1498
334.9589, 814.2069
335.4410, 816.1328
335.9231, 818.7220
336.4052, 822.2810
336.8873, 825.6475
337.3694, 828.4993
337.8515, 830.8576
338.3336, 833.1461
338.8158, 835.2979
339.2979, 837.5683
339.7800, 840.2883
340.2621, 843.5110
340.7442, 846.7676
341.2263, 849.9606
341.7085, 853.1085
342.1906, 855.9206
342.6727, 858.3065
343.1548, 861.0821
343.6369, 865.2151
344.1190, 870.5477
344.6012, 875.0731
345.0833, 878.3886
345.5654, 881.0871
346.0475, 884.1774
346.5296, 887.6171
347.0117, 891.0837
347.4939, 894.5293
347.9760, 897.8292
348.4581, 900.5196
348.9402, 902.4766
349.4223, 904.3372
349.9044, 907.1023
350.3866, 910.4733
350.8687, 913.4552
351.3508, 915.5362
351.8329, 917.0629
352.3150, 918.5637
352.7971, 920.0419
353.2793, 921.3749
353.7614, 922.6643
354.2435, 923.7336
354.7256, 924.3116
355.2077, 924.3260
355.6898, 923.8116
356.1720, 922.6564
356.6541, 920.9362
357.1362, 919.0110
357.6183, 916.8924
358.1004, 914.7455
358.5826, 912.7371
359.0647, 910.9539
359.5468, 909.1633
360.0289, 907.5551
360.5110, 905.8326
360.9931, 903.4202
361.4753, 899.8237
361.9574, 895.7284
362.4395, 891.2601
362.9216, 886.2920
363.4037, 881.8975
363.8858, 879.1287
364.3680, 876.8182
364.8501, 873.7234
365.3322, 868.4196
365.8143, 863.5647
366.2964, 860.1480
366.7785, 858.1292
367.2607, 855.5290
367.7428, 851.4316
368.2249, 847.1777
368.7070, 843.5651
369.1891, 840.9075
369.6712, 838.5266
370.1534, 836.4445
370.6355, 834.6044
371.1176, 832.8568
371.5997, 831.3024
372.0818, 829.6644
372.5639, 827.7352
373.0461, 825.2507
373.5282, 823.2402
374.0103, 821.7228
374.4924, 820.5897
374.9745, 819.7631
375.4566, 819.3505
375.9388, 818.9128
376.4209, 818.4711
376.9030, 817.9827
377.3851, 816.6071
377.8672, 814.1019
378.3493, 811.4977
378.8315, 809.7861
379.3136, 808.9763
379.7957, 808.6221
380.2778, 808.8527
380.7599, 809.2938
381.2420, 808.9045
381.7242, 807.6917
382.2063, 806.4069
382.6884, 805.4750
383.1705, 804.8488
383.6526, 804.4714
384.1347, 804.3661
384.6169, 804.3119
385.0990, 803.9363
385.5811, 803.3478
386.0632, 802.9446
386.5453, 803.4006
387.0274, 803.9220
387.5096, 803.0781
387.9917, 800.8835
388.4738, 799.0394
388.9559, 799.4703
389.4380, 800.9196
389.9201, 801.7264
390.4023, 801.1349
390.8844, 800.0324
391.3665, 798.5729
391.8486, 796.9714
392.3307, 796.0609
392.8128, 796.7701
393.2950, 797.9473
393.7771, 798.8972
394.2592, 799.6074
394.7413, 799.7804
395.2234, 798.8140
395.7055, 797.3289
396.1877, 796.2901
396.6698, 796.1060
397.1519, 796.2058
397.6340, 796.6096
398.1161, 797.4092
398.5982, 797.6542
399.0804, 796.5620
399.5625, 795.3522
400.0446, 794.9474
400.5267, 796.4249
401.0088, 797.1561
401.4909, 796.5959
401.9731, 795.1163
402.4552, 794.1775
402.9373, 793.8832
403.4194, 793.9737
403.9015, 794.4066
404.3836, 795.3173
404.8658, 795.9623
405.3479, 796.1702
405.8300, 796.3143
406.3121, 797.1163
406.7942, 798.7136
407.2763, 799.8939
407.7585, 800.0795
408.2406, 799.4866
408.7227, 799.2908
409.2048, 799.4775
409.6869, 800.0834
410.1690, 801.3683
410.6512, 803.1701
411.1333, 804.7668
411.6154, 806.0128
412.0975, 807.0257
412.5796, 808.0570
413.0617, 809.0598
413.5439, 809.8098
414.0260, 809.9427
414.5081, 809.8533
414.9902, 810.1688
415.4723, 810.9799
415.9544, 811.7805
416.4366, 811.8522
416.9187, 811.7126
417.4008, 812.1316
417.8829, 814.1227
418.3650, 816.1348
418.8471, 816.9373
419.3293, 816.7845
419.8114, 817.2640
420.2935, 820.0472
420.7756, 823.0588
421.2577, 824.7371
421.7398, 823.9797
422.2220, 823.6176
422.7041, 824.5764
423.1862, 826.2787
423.6683, 827.6810
424.1504, 828.3431
424.6325, 829.0294
425.1147, 830.0078
425.5968, 831.3610
426.0789, 832.3665
426.5610, 832.6933
427.0431, 832.9743
427.5252, 833.7446
428.0074, 835.2387
428.4895, 836.6780
428.9716, 838.0057
429.4537, 839.1851
429.9358, 840.1800
430.4179, 841.1032
430.9001, 841.4219
431.3822, 840.5284
431.8643, 838.3929
432.3464, 837.1224
432.8285, 836.8582
433.3106, 837.0204
433.7928, 836.9196
434.2749, 836.5881
434.7570, 836.3035
435.2391, 836.1988
435.7212, 836.1600
436.2033, 835.9260
436.6855, 835.5231
437.1676, 835.1544
437.6497, 835.3564
438.1318, 835.5795
438.6139, 834.8631
439.0960, 832.8781
439.5782, 830.6060
440.0603, 828.6675
440.5424, 827.0213
441.0245, 825.6182
441.5066, 824.2736
441.9887, 823.2740
442.4709, 823.0072
442.9530, 823.4376
443.4351, 823.6055
443.9172, 823.3436
444.3993, 822.5490
444.8814, 821.1151
445.3636, 818.0844
445.8457, 815.6557
446.3278, 814.4642
446.8099, 814.0916
447.2920, 813.4759
447.7741, 812.7176
448.2563, 811.5648
448.7384, 809.7509
449.2205, 807.0650
449.7026, 805.4094
450.1847, 805.4245
450.6668, 805.7076
451.1490, 804.7875
451.6311, 802.1741
452.1132, 800.3210
452.5953, 799.7350
453.0774, 800.0127
453.5595, 800.0829
454.0417, 799.9318
454.5238, 799.6700
455.0059, 799.4509
455.4880, 799.1940
455.9701, 798.2918
456.4522, 796.6135
456.9344, 795.0372
457.4165, 794.6381
457.8986, 795.1097
458.3807, 795.6160
458.8628, 795.8839
459.3449, 796.0764
459.8271, 796.5427
460.3092, 797.1604
460.7913, 797.4144
461.2734, 796.4954
461.7555, 795.3937
462.2376, 795.0089
462.7198, 795.6011
463.2019, 796.2844
463.6840, 796.8916
464.1661, 797.2678
464.6482, 797.2248
465.1303, 796.1288
465.6125, 795.2001
466.0946, 794.8287
466.5767, 794.9561
467.0588, 795.0508
467.5409, 795.2706
468.0230, 795.2802
468.5052, 794.8770
468.9873, 793.7514
469.4694, 793.0214
469.9515, 792.8561
470.4336, 792.9545
470.9157, 792.8981
471.3979, 792.6631
471.8800, 792.3934
472.3621, 792.1464
472.8442, 791.9011
473.3263, 791.4989
473.8084, 790.9207
474.2906, 790.3231
474.7727, 789.6558
475.2548, 789.0100
475.7369, 788.9640
476.2190, 789.6854
476.7011, 790.5414
477.1833, 790.5377
477.6654, 790.0283
478.1475, 789.9979
478.6296, 791.4903
479.1117, 793.2205
479.5938, 793.6122
480.0760, 792.8854
480.5581, 792.4906
481.0402, 793.8228
481.5223, 795.4984
482.0044, 796.3056
482.4865, 795.6451
482.9687, 795.1486
483.4508, 795.5306
483.9329, 796.3666
484.4150, 797.0442
484.8971, 797.4763
485.3792, 797.7178
485.8614, 797.6234
486.3435, 797.2354
486.8256, 797.1600
487.3077, 797.0807
487.7898, 797.6808
488.2719, 799.6168
488.7541, 803.6904
489.2362, 806.3685
489.7183, 807.4077
490.2004, 807.3438
490.6825, 806.6693
491.1646, 805.2595
491.6468, 804.4859
492.1289, 804.8478
492.6110, 806.0687
493.0931, 807.5289
493.5752, 809.2284
494.0573, 810.7963
494.5395, 811.8904
495.0216, 812.6815
495.5037, 813.5967
495.9858, 814.7050
496.4679, 815.7286
496.9500, 816.2448
497.4322, 816.5247
497.9143, 817.0077
498.3964, 818.0724
498.8785, 819.2145
499.3606, 820.2137
499.8427, 821.0760
500.3249, 821.7549
500.8070, 821.6057
501.2891, 821.7763
501.7712, 823.0506
502.2533, 826.1434
502.7354, 828.5016
503.2176, 829.5075
503.6997, 829.8918
504.1818, 830.3159
504.6639, 830.4755
505.1460, 831.2330
505.6281, 832.8251
506.1103, 835.0775
506.5924, 837.3879
507.0745, 839.8664
507.5566, 841.9747
508.0387, 843.1091
508.5208, 843.3553
509.0030, 844.6787
509.4851, 847.2210
509.9672, 850.0490
510.4493, 852.2534
510.9314, 853.9406
511.4135, 855.4289
511.8957, 856.7055
512.3778, 857.9863
512.8599, 859.4940
513.3420, 861.2176
513.8242, 863.0932
514.3063, 865.2797
514.7884, 867.5177
515.2705, 869.5459
515.7526, 871.3389
516.2347, 873.2462
516.7169, 875.3821
517.1990, 877.6859
517.6811, 880.1057
518.1632, 882.5475
518.6453, 885.1915
519.1274, 888.0084
519.6096, 891.0433
520.0917, 894.3928
520.5738, 898.3578
521.0559, 902.0779
521.5380, 905.1697
522.0201, 907.7010
522.5023, 910.9621
522.9844, 915.2070
523.4665, 919.5215
523.9486, 923.2429
524.4307, 926.4144
524.9128, 929.4286
525.3950, 932.2134
525.8771, 935.1115
526.3592, 938.6960
526.8413, 942.7756
527.3234, 946.8163
527.8055, 950.6981
528.2877, 954.2926
528.7698, 957.7203
529.2519, 960.8191
529.7340, 963.0534
530.2161, 962.9933
530.6982, 962.7080
531.1804, 964.0757
531.6625, 967.6744
532.1446, 970.6289
532.6267, 971.1246
533.1088, 970.9748
533.5909, 971.8431
534.0731, 975.1262
534.5552, 978.0197
535.0373, 980.3928
535.5194, 982.2447
536.0015, 983.6541
536.4836, 984.5243
536.9658, 985.1019
537.4479, 985.3486
537.9300, 985.2814
538.4121, 985.5694
538.8942, 986.2925
539.3763, 986.9716
539.8585, 987.0202
540.3406, 986.5897
540.8227, 986.6881
541.3048, 987.5625
541.7869, 988.5302
542.2690, 988.6757
542.7512, 988.2438
543.2333, 987.8546
543.7154, 987.9728
544.1975, 988.0687
544.6796, 987.7872
545.1617, 987.1349
545.6439, 986.1384
546.1260, 983.9955
546.6081, 982.1415
547.0902, 981.8007
547.5723, 983.7872
548.0544, 984.4036
548.5366, 982.1834
549.0187, 978.9113
549.5008, 976.1572
549.9829, 974.2835
550.4650, 972.2941
550.9471, 970.1555
551.4293, 967.8393
551.9114, 965.0765
552.3935, 961.7000
552.8756, 958.7148
553.3577, 956.6356
553.8398, 955.2603
554.3220, 953.6464
554.8041, 951.7800
555.2862, 949.9142
555.7683, 948.1918
556.2504, 946.6068
556.7325, 945.2953
557.2147, 944.4175
557.6968, 943.0145
558.1789, 939.6993
558.6610, 935.4639
559.1431, 931.8083
559.6252, 929.4027
560.1074, 927.5306
560.5895, 926.4993
561.0716, 925.8741
561.5537, 924.2496
562.0358, 920.2228
562.5179, 916.2079
563.0001, 913.1926
563.4822, 911.3317
563.9643, 908.9335
564.4464, 905.7146
564.9285, 902.3614
565.4106, 899.2990
565.8928, 896.5119
566.3749, 894.1674
566.8570, 892.3964
567.3391, 890.7657
567.8212, 888.5102
568.3033, 885.7064
568.7855, 883.0999
569.2676, 881.1523
569.7497, 879.2929
570.2318, 876.3772
570.7139, 872.6927
571.1960, 869.2605
571.6782, 866.8937
572.1603, 864.9220
572.6424, 862.9700
573.1245, 861.0052
573.6066, 858.7026
574.0887, 855.5833
574.5709, 852.2683
575.0530, 849.2070
575.5351, 846.2989
576.0172, 843.8506
576.4993, 841.9621
576.9814, 840.4865
577.4636, 839.2620
577.9457, 838.3997
578.4278, 837.5148
578.9099, 836.5789
579.3920, 835.5509
579.8741, 834.1266
580.3563, 832.2653
580.8384, 830.6145
581.3205, 829.7975
581.8026, 829.4655
582.2847, 828.6024
582.7668, 827.1637
583.2490, 825.6437
583.7311, 824.4070
584.2131, 823.3589
584.6953, 822.3519
585.1774, 821.3184
585.6595, 820.4261
586.1416, 819.6549
586.6237, 819.1136
587.1058, 818.9522
587.5880, 820.1920
588.0701, 820.7406
588.5522, 819.4783
589.0343, 816.9557
589.5164, 815.7850
589.9985, 816.6513
590.4807, 817.7214
590.9628, 818.3517
591.4449, 818.5390
591.9270, 818.0329
592.4091, 816.6113
592.8912, 815.4122
593.3734, 815.8637
593.8555, 817.5370
594.3376, 818.2909
594.8197, 817.6591
595.3018, 816.7764
595.7839, 817.1966
596.2661, 818.2427
596.7482, 818.5967
597.2303, 817.0400
597.7124, 815.4040
598.1945, 814.8425
598.6766, 815.0815
599.1588, 815.3188
599.6409, 815.0375
600.1230, 814.9910
600.6051, 815.5664
601.0872, 816.8008
601.5693, 817.9828
602.0515, 819.3809
602.5336, 820.3311
603.0157, 820.2693
603.4978, 818.9574
603.9799, 817.9258
604.4620, 817.1017
604.9442, 816.8207
605.4263, 818.1913
605.9084, 820.7739
606.3905, 821.6936
606.8726, 819.5805
607.3547, 816.9307
607.8369, 817.0529
608.3190, 819.1168
608.8011, 821.0076
609.2832, 821.8206
609.7653, 822.0306
610.2474, 821.6129
610.7296, 820.6891
611.2117, 820.1546
611.6938, 820.4112
612.1759, 820.9658
612.6580, 821.7192
613.1401, 822.8846
613.6223, 823.2236
614.1044, 822.2993
614.5865, 821.1369
615.0686, 820.7228
615.5507, 821.1839
616.0328, 821.3096
616.5150, 820.9254
616.9971, 820.3497
617.4792, 820.0439
617.9613, 819.9754
618.4434, 819.9598
618.9255, 819.9911
619.4077, 820.0003
619.8898, 819.9297
620.3719, 819.7780
620.8540, 819.5277
621.3361, 818.8793
621.8182, 818.3871
622.3004, 818.3707
622.7825, 818.8407
623.2646, 819.5286
623.7467, 820.8546
624.2288, 821.9700
624.7109, 822.3145
625.1931, 821.3937
625.6752, 821.4737
626.1573, 822.9808
626.6394, 824.7485
627.1215, 825.4749
627.6036, 825.1364
628.0858, 824.8914
628.5679, 824.8856
629.0500, 825.0976
629.5321, 825.6592
630.0142, 826.4417
630.4963, 827.0001
630.9785, 826.8224
631.4606, 826.7009
631.9427, 827.3478
632.4248, 828.6357
632.9069, 830.1454
633.3890, 832.5699
633.8712, 834.3887
634.3533, 834.4021
634.8354, 832.3658
635.3175, 831.9055
635.7996, 834.1478
636.2817, 836.8023
636.7639, 838.6508
637.2460, 839.4866
637.7281, 840.4578
638.2102, 841.6142
638.6923, 842.7292
639.1744, 843.2345
639.6566, 843.3380
640.1387, 844.5117
640.6208, 847.2503
641.1029, 850.3470
641.5850, 852.5938
642.0671, 854.1368
642.5493, 855.3210
643.0314, 855.6946
643.5135, 856.3201
643.9956, 857.8425
644.4777, 860.0854
644.9598, 862.4850
645.4420, 865.1733
645.9241, 867.7571
646.4062, 870.0563
646.8883, 872.0859
647.3704, 874.2913
647.8525, 876.6589
648.3347, 879.2108
648.8168, 882.0788
649.2989, 885.2665
649.7810, 887.4341
650.2631, 888.3752
650.7452, 889.8643
651.2274, 894.3961
651.7095, 900.5588
652.1916, 905.3615
652.6737, 907.8439
653.1558, 910.1705
653.6379, 913.7753
654.1201, 918.2371
654.6022, 923.0184
655.0843, 928.7233
655.5664, 933.8398
656.0485, 937.7795
656.5306, 940.8604
657.0128, 943.8624
657.4949, 946.4819
657.9770, 949.6005
658.4591, 953.5342
658.9412, 958.0986
659.4233, 962.4782
659.9055, 966.6723
660.3876, 970.8992
660.8697, 975.5466
661.3518, 980.3116
661.8339, 984.2953
662.3160, 987.5468
662.7982, 990.8102
663.2803, 994.5717
663.7624, 998.6497
664.2445, 1002.970
664.7266, 1007.660
665.2087, 1011.879
665.6909, 1015.169
666.1730, 1017.975
666.6551, 1020.629
667.1372, 1022.836
667.6193, 1025.526
668.1014, 1029.076
668.5836, 1032.677
669.0657, 1035.023
669.5478, 1035.957
670.0299, 1037.261
670.5120, 1039.428
670.9941, 1041.908
671.4763, 1044.042
671.9584, 1045.720
672.4405, 1046.555
672.9226, 1045.916
673.4047, 1044.760
673.8868, 1043.503
674.3690, 1042.352
674.8511, 1041.994
675.3332, 1044.002
675.8153, 1045.648
676.2974, 1045.635
676.7795, 1043.852
677.2617, 1042.047
677.7438, 1040.230
678.2259, 1038.341
678.7080, 1036.396
679.1901, 1034.399
679.6722, 1031.853
680.1544, 1028.652
680.6365, 1025.332
681.1186, 1022.356
681.6007, 1019.627
682.0828, 1016.837
682.5649, 1013.979
683.0471, 1010.961
683.5292, 1007.591
684.0113, 1004.118
684.4934, 1000.944
684.9755, 998.5780
685.4576, 995.8394
685.9398, 992.1253
686.4219, 987.9196
686.9040, 984.0065
687.3861, 980.5317
687.8682, 977.0935
688.3503, 973.7042
688.8325, 970.2701
689.3146, 966.5665
689.7967, 962.6125
690.2788, 958.7197
690.7609, 954.9415
691.2430, 951.4210
691.7252, 948.5886
692.2073, 946.2503
692.6894, 943.6415
693.1715, 940.2673
693.6536, 936.4845
694.1357, 932.1783
694.6179, 927.4080
695.1000, 923.5115
695.5821, 921.4127
696.0642, 919.7262
696.5463, 917.8934
697.0284, 915.9462
697.5106, 913.5830
697.9927, 910.6949
698.4748, 907.6564
698.9569, 904.9240
699.4390, 902.4170
699.9211, 899.2170
700.4033, 895.1365
700.8854, 891.4675
701.3675, 889.9900
701.8496, 889.6548
702.3317, 888.7945
702.8138, 886.9156
703.2960, 884.7783
703.7781, 882.2531
704.2602, 879.8718
704.7423, 878.2838
705.2244, 878.6345
705.7065, 878.4075
706.1887, 877.3499
706.6708, 875.6409
707.1529, 873.3604
707.6350, 870.3034
708.1171, 867.8483
708.5992, 866.4156
709.0814, 865.7001
709.5635, 865.3741
710.0456, 865.2809
710.5277, 864.6917
711.0098, 862.7679
711.4919, 860.5838
711.9741, 859.0712
712.4562, 858.1280
712.9383, 857.2487
713.4204, 856.5986
713.9025, 855.6586
714.3846, 853.8807
714.8668, 851.3369
715.3489, 849.8781
715.8310, 850.0319
716.3131, 850.1935
716.7952, 849.4510
717.2773, 847.8887
717.7595, 846.4944
718.2416, 845.2529
718.7237, 844.5768
719.2058, 845.6044
719.6879, 847.1123
720.1700, 846.7985
720.6522, 844.3240
721.1343, 842.1298
721.6164, 841.9155
722.0985, 842.3928
722.5806, 842.5262
723.0627, 842.0889
723.5449, 841.4536
724.0270, 840.4949
724.5091, 839.4872
724.9912, 838.6118
725.4733, 837.7994
725.9554, 837.6246
726.4376, 838.3295
726.9197, 839.0915
727.4018, 838.5081
727.8839, 837.0267
728.3660, 836.1194
728.8481, 836.3713
729.3303, 836.7855
729.8124, 836.6555
730.2945, 836.0887
730.7766, 835.2520
731.2587, 833.3743
731.7408, 832.1744
732.2230, 832.3165
732.7051, 833.3137
733.1872, 834.4033
733.6693, 835.7245
734.1514, 836.7062
734.6335, 837.2053
735.1157, 837.2943
735.5978, 837.0816
736.0799, 836.5939
736.5620, 836.0195
737.0441, 835.2730
737.5262, 834.6336
738.0084, 834.3387
738.4905, 834.4039
738.9726, 834.8738
739.4547, 836.6180
739.9368, 837.9504
740.4189, 837.8010
740.9011, 836.2555
741.3832, 835.4548
741.8653, 835.7740
742.3474, 836.1161
742.8295, 835.9826
743.3116, 835.4437
743.7938, 835.0947
744.2759, 834.9310
744.7580, 834.9414
745.2401, 835.2095
745.7222, 835.6124
746.2043, 835.9373
746.6865, 836.1939
747.1686, 836.5752
747.6507, 837.6182
748.1328, 838.5244
748.6149, 838.6487
749.0970, 837.7040
749.5792, 837.1534
750.0613, 837.2147
750.5434, 837.4733
751.0255, 837.7384
751.5076, 838.0311
751.9897, 838.0037
752.4719, 837.6028
752.9540, 837.1191
753.4361, 836.6993
753.9182, 836.4042
754.4003, 836.4340
754.8824, 836.8546
755.3646, 837.1988
755.8467, 837.1501
756.3288, 836.8760
756.8109, 836.4817
757.2930, 835.6335
757.7751, 835.4363
758.2573, 836.3543
758.7394, 837.5460
759.2215, 838.3030
759.7036, 838.6549
760.1857, 838.1866
760.6678, 836.5988
761.1500, 835.1271
761.6321, 835.8769
762.1142, 837.9601
762.5963, 839.1285
763.0784, 838.5784
763.5605, 837.7196
764.0427, 837.4299
764.5248, 837.4540
765.0069, 837.4733
765.4890, 837.1163
765.9711, 837.1929
766.4532, 838.2330
766.9354, 839.4098
767.4175, 839.3911
767.8996, 837.9518
768.3817, 836.7308
768.8638, 835.9413
769.3459, 835.6514
769.8281, 836.4491
770.3102, 837.8839
770.7923, 838.5695
771.2744, 837.6017
771.7565, 836.4177
772.2386, 835.8844
772.7208, 835.8265
773.2029, 835.9401
773.6850, 836.6451
774.1671, 836.8334
774.6492, 835.8601
775.1313, 834.5114
775.6135, 834.7740
776.0956, 836.9791
776.5777, 838.2660
777.0598, 837.5720
777.5419, 836.0068
778.0240, 835.5272
778.5062, 835.8604
778.9883, 836.1608
779.4704, 836.0200
779.9525, 835.7584
780.4346, 835.5147
780.9167, 835.3027
781.3989, 835.1481
781.8810, 835.3030
782.3631, 835.1985
782.8452, 834.6036
783.3273, 833.7355
783.8094, 833.3691
784.2916, 833.6032
784.7737, 833.2635
785.2558, 831.4328
785.7379, 829.3356
786.2200, 829.9108
786.7021, 832.3171
787.1843, 833.6848
787.6664, 831.6516
788.1485, 829.1800
788.6306, 827.7599
789.1127, 827.2371
789.5948, 826.9919
790.0770, 826.8699
790.5591, 827.1430
791.0412, 828.0693
791.5233, 829.3623
792.0054, 830.0692
792.4875, 830.1743
792.9697, 829.7429
793.4518, 828.3633
793.9339, 826.8333
794.4160, 826.6688
794.8981, 827.4981
795.3802, 828.0927
795.8624, 827.4360
796.3445, 826.8361
796.8266, 827.1180
797.3087, 828.0608
797.7908, 828.4541
798.2729, 828.0782
798.7551, 827.5538
799.2372, 827.0573
799.7193, 826.5592
800.2014, 825.6824
800.6835, 824.5032
801.1656, 823.9988
801.6478, 825.2740
802.1299, 827.0312
802.6120, 827.5458
803.0941, 827.2217
803.5762, 827.3691
804.0583, 829.4557
804.5405, 831.1249
805.0226, 831.1486
805.5047, 829.9549
805.9868, 829.1918
806.4689, 828.9845
806.9510, 828.7926
807.4332, 828.3524
807.9153, 827.8533
808.3974, 827.9959
808.8795, 828.6614
809.3616, 829.1627
809.8438, 828.9470
810.3259, 828.5944
810.8080, 828.7053
811.2901, 829.0977
811.7722, 829.1539
812.2543, 827.9147
812.7365, 827.2969
813.2186, 828.0972
813.7007, 829.8118
814.1828, 830.5038
814.6649, 830.0307
815.1470, 829.6268
815.6292, 829.7253
816.1113, 830.1722
816.5934, 830.9929
817.0755, 831.9672
817.5576, 832.3749
818.0397, 831.1214
818.5219, 829.9621
819.0040, 829.8984
819.4861, 830.6623
819.9682, 831.3741
820.4503, 832.1841
820.9324, 832.5820
821.4146, 832.3677
821.8967, 831.7600
822.3788, 831.2866
822.8609, 830.9457
823.3430, 830.5678
823.8251, 829.9240
824.3073, 829.4441
824.7894, 829.9025
825.2715, 830.8893
825.7536, 831.5332
826.2357, 831.1002
826.7178, 830.7347
827.2000, 830.8551
827.6821, 831.2299
828.1642, 831.4596
828.6463, 831.5469
829.1284, 831.3998
829.6105, 830.7941
830.0927, 830.3015
830.5748, 831.4144
831.0569, 833.5947
831.5390, 834.9538
832.0211, 834.4904
832.5032, 833.6331
832.9854, 833.2275
833.4675, 833.1327
833.9496, 833.1491
834.4317, 833.1959
834.9138, 833.4130
835.3959, 833.7925
835.8781, 834.3564
836.3602, 835.3314
836.8423, 836.6989
837.3244, 837.4113
837.8065, 837.1171
838.2886, 836.6054
838.7708, 836.9456
839.2529, 837.6602
839.7350, 837.8825
840.2171, 836.8259
840.6992, 836.3722
841.1813, 837.7990
841.6635, 839.7457
842.1456, 840.8210
842.6277, 840.8791
843.1098, 840.3641
843.5919, 839.1009
844.0740, 837.8146
844.5562, 837.4012
845.0383, 837.6856
845.5204, 838.3273
846.0025, 839.3866
846.4846, 840.0131
846.9667, 839.0624
847.4489, 837.7055
847.9310, 837.0325
848.4131, 837.3262
848.8952, 838.0461
849.3773, 839.3409
849.8594, 840.8018
850.3416, 842.4059
850.8237, 844.1182
851.3058, 844.2260
851.7879, 842.5624
852.2700, 840.8847
852.7521, 840.7023
853.2343, 841.2866
853.7164, 841.8707
854.1985, 842.3702
854.6806, 842.7953
855.1627, 842.8455
855.6448, 843.1227
856.1270, 844.0281
856.6091, 845.5820
857.0912, 846.7498
857.5733, 847.5590
858.0554, 847.7322
858.5375, 846.3589
859.0197, 844.4362
859.5018, 844.4242
859.9839, 846.0639
860.4660, 847.6968
860.9481, 848.8820
861.4302, 849.3776
861.9124, 848.4706
862.3945, 846.4283
862.8766, 846.0632
863.3587, 848.3802
863.8408, 850.0219
864.3229, 849.5015
864.8051, 847.7248
865.2872, 847.5801
865.7693, 848.7908
866.2514, 849.7269
866.7335, 849.1818
867.2156, 848.4421
867.6978, 848.6042
868.1799, 849.3177
868.6620, 849.7875
869.1441, 849.1678
869.6262, 849.2231
870.1083, 850.5765
870.5905, 852.4319
871.0726, 853.0600
871.5547, 852.5068
872.0368, 852.1977
872.5189, 852.5790
873.0010, 853.0734
873.4832, 852.7762
873.9653, 852.2071
874.4474, 852.2510
874.9295, 853.6519
875.4116, 854.8083
875.8937, 855.1984
876.3759, 855.2668
876.8580, 855.3223
877.3401, 855.2807
877.8222, 855.8395
878.3043, 857.2372
878.7864, 858.3704
879.2686, 857.7160
879.7507, 856.0825
880.2328, 854.8498
880.7149, 854.2089
881.1970, 854.0854
881.6791, 854.8965
882.1613, 855.8807
882.6434, 856.5126
883.1255, 856.7516
883.6076, 856.9310
884.0897, 856.9921
884.5718, 857.2186
885.0540, 858.1438
885.5361, 859.3606
886.0182, 859.2965
886.5003, 858.1050
886.9824, 857.0757
887.4645, 856.7372
887.9467, 857.0144
888.4288, 858.2585
888.9109, 860.2802
889.3930, 861.3647
889.8751, 860.9522
890.3572, 860.6761
890.8394, 861.0790
891.3215, 861.9384
891.8036, 862.9525
892.2857, 863.9654
892.7678, 864.1212
893.2499, 862.2559
893.7321, 860.3649
894.2142, 860.0118
894.6963, 860.6816
895.1784, 861.3904
895.6605, 862.2908
896.1426, 862.7026
896.6248, 862.3091
897.1069, 861.7254
897.5890, 861.9983
898.0711, 863.0268
898.5532, 863.8142
899.0353, 864.1843
899.5175, 864.2664
899.9996, 863.7775
900.4817, 863.2678
900.9638, 863.4954
901.4459, 865.0381
901.9280, 865.9758
902.4102, 865.7875
902.8923, 865.3351
903.3744, 865.2132
903.8565, 865.4252
904.3386, 865.4081
904.8207, 865.1425
905.3029, 865.1666
905.7850, 866.2615
906.2671, 867.6414
906.7492, 868.4679
907.2313, 868.7153
907.7134, 868.8198
908.1956, 869.0728
908.6777, 868.9803
909.1598, 868.1220
909.6419, 866.8002
910.1240, 866.6799
910.6061, 867.7852
911.0883, 868.8138
911.5704, 869.1723
912.0525, 869.2042
912.5346, 869.0704
913.0167, 868.9832
913.4988, 869.4039
913.9810, 871.7026
914.4631, 872.9639
914.9452, 872.0302
915.4273, 870.1747
915.9094, 869.0825
916.3915, 868.7745
916.8737, 869.2344
917.3558, 870.6325
917.8379, 871.9961
918.3200, 872.1205
918.8021, 871.5330
919.2842, 870.8956
919.7664, 870.2337
920.2485, 870.0121
920.7306, 871.3204
921.2127, 872.2498
921.6948, 871.2565
922.1769, 868.0743
922.6591, 867.2440
923.1412, 868.9685
923.6233, 870.9804
924.1054, 871.6035
924.5875, 871.6086
925.0696, 872.2494
925.5518, 873.3749
926.0339, 873.9870
926.5160, 873.1570
926.9981, 872.3422
927.4802, 872.0999
927.9623, 872.2219
928.4445, 872.0792
928.9266, 871.6649
929.4087, 871.0342
929.8908, 870.0716
930.3729, 869.1608
930.8550, 868.6779
931.3372, 868.6488
931.8193, 869.1971
932.3014, 871.1973
932.7835, 872.3723
933.2656, 871.5020
933.7477, 870.1317
934.2299, 869.6541
934.7120, 870.1809
935.1941, 870.6151
935.6762, 870.8885
936.1583, 871.2150
936.6404, 872.1215
937.1226, 873.0207
937.6047, 872.8648
938.0868, 871.5656
938.5689, 870.7663
939.0510, 871.1310
939.5331, 871.9861
940.0153, 873.3780
940.4974, 875.0710
940.9795, 875.2927
941.4616, 874.0111
941.9437, 872.8746
942.4258, 872.7929
942.9080, 873.0837
943.3901, 872.9899
943.8722, 872.6504
944.3543, 872.3571
944.8364, 871.8151
945.3185, 871.9360
945.8007, 873.3056
946.2828, 874.9501
946.7649, 875.5527
947.2470, 875.1409
947.7291, 874.3769
948.2112, 873.2586
948.6934, 872.4545
949.1755, 872.8506
949.6576, 873.7469
950.1397, 874.4453
950.6218, 874.8588
951.1039, 874.8660
951.5861, 873.7966
952.0682, 873.2977
952.5503, 874.5579
953.0324, 877.1677
953.5145, 878.0328
953.9966, 877.2977
954.4788, 876.7432
954.9609, 878.0919
955.4430, 879.3967
955.9251, 878.5417
956.4072, 876.4312
956.8893, 875.5487
957.3715, 877.2950
957.8536, 878.4236
958.3357, 878.2571
958.8178, 877.6923
959.2999, 878.2294
959.7820, 879.6393
960.2642, 881.0631
960.7463, 882.4860
961.2284, 883.0539
961.7105, 881.1513
962.1926, 878.7895
962.6747, 877.8080
963.1569, 878.6609
963.6390, 879.4050
964.1211, 879.9705
964.6032, 880.6360
965.0853, 881.7952
965.5674, 883.1246
966.0496, 883.4299
966.5317, 882.9327
967.0138, 882.6829
967.4959, 883.4960
967.9780, 884.4363
968.4601, 885.4376
968.9423, 886.1628
969.4244, 885.7106
969.9065, 883.6881
970.3886, 882.0970
970.8707, 881.1887
971.3528, 881.0449
971.8350, 882.1350
972.3171, 883.9485
972.7992, 885.6642
973.2813, 887.2073
973.7634, 888.2739
974.2455, 888.4424
974.7277, 888.3480
975.2098, 888.3204
975.6919, 888.3563
976.1740, 888.4808
976.6561, 888.6761
977.1382, 889.2898
977.6204, 890.9688
978.1025, 892.8812
978.5846, 894.1423
979.0667, 894.8052
979.5488, 895.0712
980.0309, 894.4520
980.5131, 894.1591
980.9952, 894.5414
981.4773, 895.1569
981.9594, 895.1827
982.4415, 894.7059
982.9236, 894.5643
983.4058, 894.9733
983.8879, 895.2753
984.3700, 894.5378
984.8521, 893.6754
985.3342, 893.6521
985.8163, 894.8387
986.2985, 895.5696
986.7806, 895.7050
987.2627, 895.6876
987.7448, 895.6954
988.2269, 895.7663
988.7090, 896.1979
989.1912, 896.8480
989.6733, 897.0812
990.1554, 895.9665
990.6375, 895.0541
991.1196, 895.1887
991.6017, 895.9987
992.0839, 896.9211
992.5660, 898.1203
993.0481, 898.5240
993.5302, 897.7924
994.0123, 897.0999
994.4944, 898.1027
994.9766, 899.8605
995.4587, 900.9569
995.9408, 901.1584
996.4229, 901.0967
996.9050, 901.0568
997.3871, 900.5928
997.8693, 899.0560
998.3514, 896.8978
998.8335, 897.3051
999.3156, 900.1350
999.7977, 902.9433
1000.280, 904.8184
1000.762, 905.9723
1001.244, 906.5272
1001.726, 906.5280
1002.208, 906.0226
1002.690, 904.5026
1003.173, 903.3862
1003.655, 902.6716
1004.137, 902.4899
1004.619, 903.2239
1005.101, 904.6061
1005.583, 905.6282
1006.065, 906.2452
1006.547, 906.9011
1007.029, 908.0709
1007.512, 909.1334
1007.994, 909.6779
1008.476, 909.7747
1008.958, 909.6210
1009.440, 909.0992
1009.922, 909.0423
1010.404, 909.8566
1010.886, 910.9052
1011.369, 911.2108
1011.851, 911.1734
1012.333, 911.5706
1012.815, 913.1771
1013.297, 913.8262
1013.779, 912.2500
1014.261, 910.7806
1014.743, 911.4354
1015.225, 914.0468
1015.708, 914.6984
1016.190, 913.5146
1016.672, 912.4448
1017.154, 913.1025
1017.636, 914.0311
1018.118, 913.8528
1018.600, 913.0671
1019.082, 913.5008
1019.565, 915.9793
1020.047, 917.5330
1020.529, 917.4827
1021.011, 916.8174
1021.493, 916.6504
1021.975, 916.9512
1022.457, 917.7908
1022.939, 919.2483
1023.421, 920.5809
1023.904, 922.0555
1024.386, 922.6536
1024.868, 921.5114
1025.350, 918.9435
1025.832, 917.8778
1026.314, 918.3120
1026.796, 919.4714
1027.278, 921.6396
1027.760, 923.5588
1028.243, 923.7186
1028.725, 922.8578
1029.207, 922.1935
1029.689, 922.3649
1030.171, 921.9922
1030.653, 920.8141
1031.135, 919.6036
1031.617, 918.9951
1032.100, 918.9830
1032.582, 919.7829
1033.064, 921.3133
1033.546, 922.5436
1034.028, 922.3668
1034.510, 922.3552
1034.992, 923.5197
1035.474, 925.3674
1035.957, 926.4832
1036.439, 926.8611
1036.921, 926.7499
1037.403, 926.0230
1037.885, 925.4966
1038.367, 926.5167
1038.849, 928.0721
1039.331, 928.7819
1039.813, 928.0995
1040.296, 927.9523
1040.778, 928.5539
1041.260, 929.4788
1041.742, 930.7479
1042.224, 932.0584
1042.706, 932.0885
1043.188, 931.1445
1043.670, 930.4401
1044.152, 930.1746
1044.635, 930.7009
1045.117, 933.2068
1045.599, 936.0128
1046.081, 936.7567
1046.563, 935.0763
1047.045, 934.4105
1047.527, 935.0526
1048.009, 935.9488
1048.492, 936.2620
1048.974, 936.2927
1049.456, 936.2029
1049.938, 936.0670
1050.420, 936.4340
1050.902, 937.8129
1051.384, 938.7797
1051.866, 938.8926
1052.349, 938.5673
1052.831, 938.3456
1053.313, 938.3448
1053.795, 939.0587
1054.277, 940.8676
1054.759, 942.2294
1055.241, 941.6184
1055.723, 941.0325
1056.205, 941.9709
1056.688, 944.3635
1057.170, 945.5865
1057.652, 945.6393
1058.134, 945.2623
1058.616, 944.2888
1059.098, 943.6771
1059.580, 944.9202
1060.062, 947.0276
1060.544, 948.0546
1061.027, 946.6389
1061.509, 946.5463
1061.991, 948.2639
1062.473, 950.3212
1062.955, 951.2001
1063.437, 951.3871
1063.919, 952.0327
1064.401, 953.1048
1064.884, 953.8391
1065.366, 953.2773
1065.848, 953.0966
1066.330, 954.1053
1066.812, 955.5950
1067.294, 955.8850
1067.776, 955.0958
1068.258, 954.3653
1068.740, 953.8419
1069.223, 953.9552
1069.705, 955.6873
1070.187, 957.7390
1070.669, 959.1353
1071.151, 959.8274
1071.633, 959.3285
1072.115, 957.2919
1072.597, 955.7538
1073.079, 955.7868
1073.562, 956.5723
1074.044, 956.8730
1074.526, 957.0045
1075.008, 957.5956
1075.490, 959.4359
1075.972, 960.6221
1076.454, 960.8537
1076.936, 960.6979
1077.419, 960.5097
1077.901, 960.3126
1078.383, 960.1994
1078.865, 960.1672
1079.347, 960.1999
1079.829, 960.5054
1080.311, 960.6195
1080.793, 960.2355
1081.275, 959.5494
1081.758, 958.8188
1082.240, 958.0255
1082.722, 957.1307
1083.204, 956.0537
1083.686, 955.5336
1084.168, 957.3438
1084.650, 959.1709
1085.132, 958.5170
1085.615, 955.3331
1086.097, 953.0209
1086.579, 951.8658
1087.061, 951.0939
1087.543, 950.5855
1088.025, 950.2169
1088.507, 949.8112
1088.989, 949.4141
1089.471, 949.1858
1089.953, 949.3612
1090.436, 948.9112
1090.918, 946.8121
1091.400, 945.1516
1091.882, 945.3616
1092.364, 946.8043
1092.846, 946.0884
1093.328, 943.7755
1093.810, 942.5986
1094.293, 945.1572
1094.775, 947.2610
1095.257, 946.4647
1095.739, 944.5081
1096.221, 943.2570
1096.703, 942.8010
1097.185, 942.1653
1097.667, 941.3180
1098.150, 940.6422
1098.632, 940.4993
1099.114, 940.5878
1099.596, 940.7526
1100.078, 940.9255
1100.560, 940.9567
1101.042, 940.9340
1101.524, 940.4103
1102.006, 939.1890
1102.489, 937.9032
1102.971, 937.2497
1103.453, 936.9901
1103.935, 936.8660
1104.417, 936.8429
1104.899, 936.6350
1105.381, 936.2890
1105.863, 935.5701
1106.345, 934.3145
1106.828, 932.7967
1107.310, 931.6172
1107.792, 930.6850
1108.274, 929.6396
1108.756, 928.2407
1109.238, 927.4393
1109.720, 928.5883
1110.202, 929.5714
1110.685, 929.0062
1111.167, 927.1763
1111.649, 926.3607
1112.131, 926.4553
1112.613, 926.4003
1113.095, 925.5663
1113.577, 924.7590
1114.059, 924.7772
1114.542, 925.0113
1115.024, 924.6355
1115.506, 923.3383
1115.988, 923.0235
1116.470, 923.7793
1116.952, 924.6005
1117.434, 924.9772
1117.916, 924.9325
1118.398, 924.2538
1118.880, 923.2015
1119.363, 922.4106
1119.845, 922.0627
1120.327, 921.7214
1120.809, 921.2998
1121.291, 921.0792
1121.773, 921.5201
1122.255, 922.2745
1122.737, 922.8973
1123.220, 923.2999
1123.702, 923.1517
1124.184, 921.2352
1124.666, 920.3708
1125.148, 921.4552
1125.630, 923.2201
1126.112, 923.5144
1126.594, 922.8141
1127.077, 922.5989
1127.559, 923.0959
1128.041, 923.6400
1128.523, 924.3995
1129.005, 924.5365
1129.487, 923.4166
1129.969, 921.5957
1130.451, 920.8922
1130.933, 921.1495
1131.416, 921.1073
1131.898, 920.2326
1132.380, 919.7875
1132.862, 920.8340
1133.344, 922.4805
1133.826, 924.2063
1134.308, 925.9343
1134.790, 926.8264
1135.272, 926.8666
1135.755, 926.5417
1136.237, 925.9503
1136.719, 925.2692
1137.201, 924.5168
1137.683, 923.8654
1138.165, 923.6116
1138.647, 923.9196
1139.129, 923.9794
1139.612, 923.7889
1140.094, 923.4336
1140.576, 922.9902
1141.058, 922.4064
1141.540, 921.0810
1142.022, 919.6619
1142.504, 919.5852
1142.986, 922.4903
1143.469, 923.9908
1143.951, 923.6881
1144.433, 922.9156
1144.915, 922.7218
1145.397, 922.9024
1145.879, 923.1166
1146.361, 923.3681
1146.843, 923.7127
1147.325, 924.9195
1147.807, 924.9727
1148.290, 923.1337
1148.772, 920.9935
1149.254, 920.1541
1149.736, 920.6211
1150.218, 923.2304
1150.700, 927.7266
1151.182, 930.4779
1151.664, 928.3248
1152.147, 926.1041
1152.629, 925.0541
1153.111, 924.8356
1153.593, 925.2845
1154.075, 926.0752
1154.557, 925.5871
1155.039, 923.4775
1155.521, 921.9528
1156.004, 922.6943
1156.486, 923.8482
1156.968, 924.6076
1157.450, 925.0507
1157.932, 925.3557
1158.414, 925.5579
1158.896, 925.9675
1159.378, 926.7737
1159.860, 927.2592
1160.343, 926.7100
1160.825, 925.8674
1161.307, 925.0512
1161.789, 924.3734
1162.271, 925.0778
1162.753, 927.0679
1163.235, 927.9754
1163.717, 926.3768
1164.199, 924.8812
1164.682, 925.8855
1165.164, 927.8555
1165.646, 929.4238
1166.128, 930.5573
1166.610, 930.7999
1167.092, 930.1152
1167.574, 929.2830
1168.056, 928.5095
1168.539, 928.0179
1169.021, 928.1748
1169.503, 928.6683
1169.985, 929.0426
1170.467, 929.1658
1170.949, 929.8987
1171.431, 931.3854
1171.913, 932.2734
1172.396, 930.9816
1172.878, 929.3126
1173.360, 929.0618
1173.842, 929.8378
1174.324, 931.0033
1174.806, 933.0134
1175.288, 933.5554
1175.770, 932.2190
1176.252, 931.2350
1176.734, 933.1693
1177.217, 935.8264
1177.699, 936.1517
1178.181, 934.9149
1178.663, 934.5876
1179.145, 936.3971
1179.627, 936.6764
1180.109, 934.7695
1180.591, 932.9124
1181.074, 934.0457
1181.556, 936.0817
1182.038, 935.8839
1182.520, 933.8160
1183.002, 932.2807
1183.484, 931.8103
1183.966, 931.6223
1184.448, 931.6635
1184.931, 931.9026
1185.413, 932.4258
1185.895, 933.0666
1186.377, 933.4476
1186.859, 933.6090
1187.341, 934.1212
1187.823, 935.3126
1188.305, 936.4100
1188.787, 937.3741
1189.270, 937.8747
1189.752, 936.9957
1190.234, 935.5334
1190.716, 934.8165
1191.198, 934.9775
1191.680, 935.5354
1192.162, 936.4277
1192.644, 937.7616
1193.126, 939.9318
1193.609, 941.8602
1194.091, 941.2568
1194.573, 939.3484
1195.055, 938.4053
1195.537, 938.8096
1196.019, 939.2545
1196.501, 939.1619
1196.983, 939.6456
1197.466, 941.2448
1197.948, 943.2421
1198.430, 944.5113
1198.912, 945.1458
1199.394, 945.2443
1199.876, 944.7370
1200.358, 944.2611
1200.840, 943.7969
1201.323, 943.6519
1201.805, 944.1038
1202.287, 944.7112
1202.769, 944.4482
1203.251, 943.6721
1203.733, 943.1727
1204.215, 943.2257
1204.697, 943.1305
1205.179, 942.6788
1205.661, 942.2074
1206.144, 941.4924
1206.626, 941.3070
1207.108, 944.6551
1207.590, 949.6368
1208.072, 951.8755
1208.554, 949.1794
1209.036, 946.9928
1209.518, 946.0321
1210.001, 945.8736
1210.483, 946.6469
1210.965, 947.7559
1211.447, 947.5461
1211.929, 946.5695
1212.411, 946.0303
1212.893, 946.2945
1213.375, 946.9820
1213.858, 948.1292
1214.340, 949.4589
1214.822, 951.1975
1215.304, 952.7498
1215.786, 952.0231
1216.268, 950.0876
1216.750, 949.4566
1217.232, 952.1320
1217.714, 953.2436
1218.197, 951.7352
1218.679, 950.2264
1219.161, 950.5126
1219.643, 951.8471
1220.125, 952.8876
1220.607, 953.6488
1221.089, 954.1818
1221.571, 954.4471
1222.053, 954.5134
1222.536, 954.2923
1223.018, 954.1256
1223.500, 954.3698
1223.982, 954.7487
1224.464, 954.8202
1224.946, 954.5781
1225.428, 953.9919
1225.910, 952.2621
1226.393, 951.6866
1226.875, 952.6418
1227.357, 953.6900
1227.839, 953.5500
1228.321, 952.9697
1228.803, 953.2101
1229.285, 953.9988
1229.767, 954.7164
1230.250, 955.1955
1230.732, 955.6317
1231.214, 956.0439
1231.696, 956.3375
1232.178, 956.4442
1232.660, 956.3929
1233.142, 956.1959
1233.624, 955.8828
1234.106, 955.4857
1234.589, 954.7951
1235.071, 954.6698
1235.553, 955.2156
1236.035, 955.8836
1236.517, 956.0537
1236.999, 956.2689
1237.481, 957.5607
1237.963, 959.2827
1238.445, 959.8623
1238.928, 958.7441
1239.410, 958.1957
1239.892, 958.3421
1240.374, 958.4795
1240.856, 957.7779
1241.338, 957.0902
1241.820, 957.3487
1242.302, 958.1633
1242.785, 958.6970
1243.267, 958.8989
1243.749, 958.9717
1244.231, 958.9225
1244.713, 958.9362
1245.195, 959.3738
1245.677, 959.7069
1246.159, 959.2338
1246.641, 958.5149
1247.124, 958.6102
1247.606, 959.6122
1248.088, 960.3445
1248.570, 960.7425
1249.052, 960.8076
1249.534, 959.7190
1250.016, 959.1784
1250.498, 960.7892
1250.980, 963.2209
1251.463, 964.9188
1251.945, 965.8719
1252.427, 965.7818
1252.909, 964.7087
1253.391, 963.3494
1253.873, 961.7240
1254.355, 960.4149
1254.837, 959.5353
1255.320, 959.2394
1255.802, 960.0352
1256.284, 961.6830
1256.766, 962.5925
1257.248, 962.7939
1257.730, 963.0052
1258.212, 963.4734
1258.694, 964.2197
1259.177, 965.5199
1259.659, 966.6731
1260.141, 966.7592
1260.623, 966.1074
1261.105, 965.7738
1261.587, 965.7580
1262.069, 965.8665
1262.551, 966.2816
1263.033, 966.3606
1263.516, 965.8378
1263.998, 965.3743
1264.480, 965.9453
1264.962, 966.8925
1265.444, 966.5973
1265.926, 965.4155
1266.408, 964.7869
1266.890, 965.5836
1267.372, 965.9919
1267.855, 965.7581
1268.337, 965.7208
1268.819, 967.0599
1269.301, 968.7319
1269.783, 969.1921
1270.265, 968.7796
1270.747, 968.4807
1271.229, 968.4100
1271.712, 968.3793
1272.194, 968.3426
1272.676, 968.6025
1273.158, 969.7845
1273.640, 970.9960
1274.122, 971.2695
1274.604, 970.9907
1275.086, 970.9392
1275.568, 971.1508
1276.051, 971.4124
1276.533, 971.7189
1277.015, 972.0379
1277.497, 972.2426
1277.979, 972.5890
1278.461, 973.7261
1278.943, 974.7751
1279.425, 974.4484
1279.907, 972.7910
1280.390, 972.1624
1280.872, 972.5281
1281.354, 973.2284
1281.836, 974.4449
1282.318, 975.2209
1282.800, 974.8284
1283.282, 974.2921
1283.764, 974.7574
1284.247, 975.8456
1284.729, 975.3302
1285.211, 973.6610
1285.693, 972.5837
1286.175, 973.4705
1286.657, 973.9308
1287.139, 973.3784
1287.621, 972.9675
1288.104, 973.8378
1288.586, 975.3180
1289.068, 975.9571
1289.550, 976.0826
1290.032, 976.4722
1290.514, 977.7167
1290.996, 978.4606
1291.478, 978.6342
1291.960, 978.6483
1292.443, 978.8943
1292.925, 979.0045
1293.407, 978.3182
1293.889, 977.2585
1294.371, 976.4863
1294.853, 975.9791
1295.335, 976.2360
1295.817, 977.2831
1296.299, 977.8720
1296.782, 976.8163
1297.264, 975.9232
1297.746, 977.0333
1298.228, 978.6225
1298.710, 979.1988
1299.192, 978.8575
1299.674, 978.4651
1300.156, 978.0515
1300.639, 977.6972
1301.121, 977.4660
1301.603, 977.3049
1302.085, 977.0727
1302.567, 977.3710
1303.049, 978.5247
1303.531, 980.3595
##END=



