##NAMES=Vesuvianite
##RRUFFID=R050035
##IDEAL CHEMISTRY=(Ca,Na)_19_(Al,Mg,Fe^3+^)_13_(SiO_4_)_10_(Si_2_O_7_)_4_(OH,F,O)_10_
##LOCALITY=Olmsteadville, New York, USA
##OWNER=RRUFF
##SOURCE=University of Arizona Mineral Museum
##DESCRIPTION=Brown single crystal fragment
##STATUS=The identification of this mineral has been confirmed by X-ray diffraction and chemical analysis
##URL=rruff.info/R050035
##MEASURED CHEMISTRY=(Ca_18.66_Na_0.34_)_Σ=19_(Al_9.16_Mg_1.28_Ti_1.21_Fe^3+^_0.89_Fe^2+^_0.46_)_Σ=13_Si_18_O_68_((OH)_4.70_F_3.18_O_2.12_)_Σ=10_
161.9993, 1465.254
162.4814, 1494.413
162.9636, 1525.846
163.4457, 1552.071
163.9278, 1563.073
164.4099, 1569.168
164.8920, 1592.593
165.3741, 1641.111
165.8563, 1684.872
166.3384, 1701.612
166.8205, 1701.570
167.3026, 1700.582
167.7847, 1702.998
168.2668, 1709.166
168.7490, 1720.276
169.2311, 1737.592
169.7132, 1757.356
170.1953, 1781.964
170.6774, 1807.018
171.1595, 1824.744
171.6417, 1828.405
172.1238, 1823.780
172.6059, 1825.312
173.0880, 1834.711
173.5701, 1847.281
174.0522, 1861.565
174.5344, 1877.189
175.0165, 1893.713
175.4986, 1911.814
175.9807, 1930.233
176.4628, 1945.186
176.9449, 1954.107
177.4271, 1964.314
177.9092, 1978.339
178.3913, 1995.148
178.8734, 2013.674
179.3555, 2034.234
179.8376, 2055.655
180.3197, 2074.936
180.8019, 2092.573
181.2840, 2106.739
181.7661, 2115.486
182.2482, 2121.550
182.7303, 2128.173
183.2124, 2136.941
183.6946, 2147.252
184.1767, 2157.793
184.6588, 2170.215
185.1409, 2179.582
185.6230, 2183.958
186.1051, 2185.344
186.5873, 2185.541
187.0694, 2185.030
187.5515, 2184.799
188.0336, 2188.470
188.5157, 2201.967
188.9978, 2208.582
189.4800, 2201.650
189.9621, 2188.536
190.4442, 2176.712
190.9263, 2169.601
191.4084, 2165.068
191.8905, 2158.241
192.3727, 2149.485
192.8548, 2137.244
193.3369, 2114.143
193.8190, 2091.250
194.3011, 2080.624
194.7832, 2087.195
195.2654, 2103.413
195.7475, 2113.607
196.2296, 2117.611
196.7117, 2115.062
197.1938, 2098.333
197.6759, 2080.299
198.1581, 2072.547
198.6402, 2078.872
199.1223, 2094.000
199.6044, 2109.044
200.0865, 2126.190
200.5686, 2138.463
201.0508, 2141.768
201.5329, 2143.114
202.0150, 2148.837
202.4971, 2160.391
202.9792, 2172.933
203.4613, 2177.382
203.9435, 2166.305
204.4256, 2164.170
204.9077, 2177.225
205.3898, 2194.501
205.8719, 2208.612
206.3540, 2218.130
206.8362, 2226.597
207.3183, 2239.348
207.8004, 2258.793
208.2825, 2276.164
208.7646, 2290.469
209.2467, 2303.726
209.7289, 2318.416
210.2110, 2333.981
210.6931, 2346.711
211.1752, 2351.532
211.6573, 2345.926
212.1395, 2341.443
212.6216, 2335.774
213.1037, 2333.049
213.5858, 2336.182
214.0679, 2344.634
214.5500, 2355.548
215.0322, 2366.379
215.5143, 2377.128
215.9964, 2387.577
216.4785, 2399.454
216.9606, 2409.498
217.4427, 2416.771
217.9249, 2421.141
218.4070, 2422.240
218.8891, 2418.438
219.3712, 2409.368
219.8533, 2408.929
220.3354, 2428.243
220.8176, 2445.789
221.2997, 2458.676
221.7818, 2465.254
222.2639, 2462.750
222.7460, 2447.840
223.2281, 2422.069
223.7103, 2403.430
224.1924, 2398.208
224.6745, 2393.857
225.1566, 2389.668
225.6387, 2384.326
226.1208, 2376.035
226.6030, 2363.592
227.0851, 2347.880
227.5672, 2332.337
228.0493, 2313.695
228.5314, 2300.036
229.0135, 2294.814
229.4957, 2294.188
229.9778, 2293.746
230.4599, 2291.473
230.9420, 2288.728
231.4241, 2288.925
231.9062, 2293.300
232.3884, 2298.796
232.8705, 2307.311
233.3526, 2315.356
233.8347, 2318.480
234.3168, 2315.466
234.7989, 2311.427
235.2811, 2316.438
235.7632, 2337.192
236.2453, 2350.997
236.7274, 2351.581
237.2095, 2348.665
237.6916, 2347.532
238.1738, 2349.656
238.6559, 2354.807
239.1380, 2364.289
239.6201, 2380.930
240.1022, 2391.277
240.5843, 2386.976
241.0665, 2382.741
241.5486, 2387.424
242.0307, 2400.113
242.5128, 2412.502
242.9949, 2414.971
243.4770, 2406.147
243.9592, 2404.185
244.4413, 2420.573
244.9234, 2433.028
245.4055, 2427.799
245.8876, 2411.094
246.3697, 2399.894
246.8519, 2408.858
247.3340, 2435.115
247.8161, 2451.674
248.2982, 2450.211
248.7803, 2449.854
249.2624, 2459.132
249.7446, 2473.572
250.2267, 2485.229
250.7088, 2488.706
251.1909, 2487.992
251.6730, 2495.128
252.1551, 2513.716
252.6373, 2533.159
253.1194, 2552.423
253.6015, 2569.711
254.0836, 2582.495
254.5657, 2589.419
255.0478, 2593.233
255.5300, 2598.784
256.0121, 2607.210
256.4942, 2612.945
256.9763, 2614.230
257.4584, 2612.206
257.9406, 2606.033
258.4227, 2595.352
258.9048, 2585.018
259.3869, 2583.081
259.8690, 2590.274
260.3511, 2587.886
260.8333, 2564.800
261.3154, 2537.253
261.7975, 2514.510
262.2796, 2497.426
262.7617, 2487.185
263.2438, 2491.595
263.7260, 2506.354
264.2081, 2503.965
264.6902, 2470.762
265.1723, 2436.748
265.6544, 2425.936
266.1365, 2432.639
266.6187, 2438.671
267.1008, 2434.467
267.5829, 2423.972
268.0650, 2414.265
268.5471, 2404.373
269.0292, 2399.022
269.5114, 2406.312
269.9935, 2420.082
270.4756, 2430.048
270.9577, 2433.062
271.4398, 2431.608
271.9219, 2425.818
272.4041, 2415.428
272.8862, 2409.900
273.3683, 2414.721
273.8504, 2427.540
274.3325, 2443.395
274.8146, 2465.162
275.2968, 2484.378
275.7789, 2492.709
276.2610, 2492.898
276.7431, 2496.593
277.2252, 2508.766
277.7073, 2525.170
278.1895, 2537.885
278.6716, 2545.302
279.1537, 2556.648
279.6358, 2579.830
280.1179, 2608.068
280.6000, 2627.967
281.0822, 2635.596
281.5643, 2641.276
282.0464, 2659.094
282.5285, 2690.389
283.0106, 2715.417
283.4927, 2727.332
283.9749, 2734.973
284.4570, 2744.895
284.9391, 2758.031
285.4212, 2776.088
285.9033, 2803.802
286.3854, 2840.050
286.8676, 2856.043
287.3497, 2834.656
287.8318, 2811.633
288.3139, 2805.526
288.7960, 2811.988
289.2781, 2818.609
289.7603, 2819.211
290.2424, 2813.651
290.7245, 2800.845
291.2066, 2778.208
291.6887, 2752.138
292.1708, 2716.223
292.6530, 2679.974
293.1351, 2656.484
293.6172, 2650.196
294.0993, 2653.660
294.5814, 2654.585
295.0635, 2657.677
295.5457, 2647.741
296.0278, 2615.679
296.5099, 2578.297
296.9920, 2545.927
297.4741, 2520.428
297.9562, 2500.016
298.4384, 2483.538
298.9205, 2472.100
299.4026, 2456.570
299.8847, 2428.606
300.3668, 2404.984
300.8489, 2393.294
301.3311, 2390.463
301.8131, 2389.917
302.2953, 2387.988
302.7774, 2384.128
303.2595, 2374.769
303.7416, 2352.010
304.2237, 2335.678
304.7058, 2333.825
305.1880, 2338.004
305.6701, 2338.350
306.1522, 2331.057
306.6343, 2322.060
307.1164, 2321.830
307.5985, 2332.875
308.0807, 2343.355
308.5628, 2350.759
309.0449, 2357.266
309.5270, 2365.514
310.0091, 2375.189
310.4912, 2381.203
310.9734, 2375.725
311.4555, 2360.331
311.9376, 2352.697
312.4197, 2355.725
312.9018, 2364.806
313.3839, 2381.731
313.8661, 2402.257
314.3482, 2414.612
314.8303, 2405.384
315.3124, 2388.314
315.7945, 2390.476
316.2766, 2415.391
316.7588, 2438.863
317.2409, 2446.634
317.7230, 2444.820
318.2051, 2443.280
318.6872, 2442.787
319.1693, 2443.335
319.6515, 2446.102
320.1336, 2450.298
320.6157, 2451.483
321.0978, 2446.149
321.5799, 2440.342
322.0620, 2444.461
322.5442, 2459.097
323.0263, 2475.648
323.5084, 2493.478
323.9905, 2511.183
324.4726, 2528.127
324.9547, 2544.236
325.4369, 2555.755
325.9190, 2557.164
326.4011, 2547.096
326.8832, 2546.257
327.3653, 2563.135
327.8474, 2581.070
328.3296, 2591.670
328.8117, 2595.545
329.2938, 2594.739
329.7759, 2589.257
330.2580, 2582.104
330.7401, 2587.150
331.2223, 2628.366
331.7044, 2652.048
332.1865, 2640.329
332.6686, 2614.045
333.1507, 2592.706
333.6328, 2583.102
334.1150, 2584.498
334.5971, 2597.947
335.0792, 2632.008
335.5613, 2654.493
336.0434, 2659.549
336.5255, 2659.707
337.0077, 2658.215
337.4898, 2657.052
337.9719, 2659.350
338.4540, 2668.697
338.9361, 2683.893
339.4182, 2693.852
339.9004, 2694.672
340.3825, 2695.734
340.8646, 2702.366
341.3467, 2709.934
341.8288, 2711.246
342.3109, 2702.538
342.7931, 2691.866
343.2752, 2688.161
343.7573, 2690.117
344.2394, 2709.907
344.7215, 2772.084
345.2036, 2836.023
345.6858, 2868.087
346.1679, 2867.154
346.6500, 2858.152
347.1321, 2855.350
347.6142, 2856.509
348.0963, 2854.592
348.5785, 2847.513
349.0606, 2841.699
349.5427, 2841.969
350.0248, 2847.553
350.5069, 2857.032
350.9890, 2872.356
351.4712, 2889.813
351.9533, 2908.234
352.4354, 2926.884
352.9175, 2940.901
353.3996, 2945.762
353.8817, 2947.141
354.3639, 2961.902
354.8460, 2998.486
355.3281, 3027.698
355.8102, 3037.925
356.2923, 3039.677
356.7744, 3043.617
357.2566, 3052.413
357.7387, 3065.709
358.2208, 3083.273
358.7029, 3105.575
359.1850, 3130.379
359.6671, 3162.503
360.1493, 3191.917
360.6314, 3211.686
361.1135, 3225.303
361.5956, 3240.426
362.0777, 3261.626
362.5598, 3287.789
363.0420, 3315.427
363.5241, 3348.409
364.0062, 3376.309
364.4883, 3396.154
364.9704, 3412.157
365.4525, 3427.184
365.9347, 3442.034
366.4168, 3457.058
366.8989, 3472.739
367.3810, 3489.287
367.8631, 3505.087
368.3452, 3521.200
368.8274, 3535.078
369.3095, 3545.713
369.7916, 3553.418
370.2737, 3559.075
370.7558, 3564.158
371.2379, 3566.583
371.7201, 3562.219
372.2022, 3550.668
372.6843, 3536.414
373.1664, 3521.989
373.6485, 3505.204
374.1306, 3482.557
374.6128, 3452.306
375.0949, 3422.153
375.5770, 3399.779
376.0591, 3379.900
376.5412, 3350.129
377.0233, 3306.934
377.5055, 3261.669
377.9876, 3225.767
378.4697, 3200.514
378.9518, 3175.702
379.4339, 3152.847
379.9160, 3129.037
380.3982, 3100.234
380.8803, 3068.931
381.3624, 3043.396
381.8445, 3028.839
382.3266, 3020.448
382.8087, 3003.203
383.2909, 2968.113
383.7730, 2935.570
384.2551, 2902.359
384.7372, 2874.240
385.2193, 2859.203
385.7014, 2856.499
386.1836, 2854.813
386.6657, 2841.340
387.1478, 2815.274
387.6299, 2793.844
388.1120, 2776.659
388.5941, 2765.102
389.0763, 2764.986
389.5584, 2769.314
390.0405, 2766.309
390.5226, 2749.234
391.0047, 2727.682
391.4868, 2718.539
391.9690, 2723.607
392.4511, 2723.787
392.9332, 2708.957
393.4153, 2692.010
393.8974, 2686.973
394.3795, 2693.796
394.8617, 2698.086
395.3438, 2688.328
395.8259, 2673.076
396.3080, 2667.314
396.7901, 2672.706
397.2722, 2680.777
397.7544, 2685.419
398.2365, 2687.918
398.7186, 2694.782
399.2007, 2716.632
399.6828, 2730.888
400.1649, 2721.424
400.6471, 2700.310
401.1292, 2687.810
401.6113, 2690.573
402.0934, 2701.515
402.5755, 2710.669
403.0576, 2718.038
403.5398, 2723.156
404.0219, 2728.780
404.5040, 2730.030
404.9861, 2720.197
405.4682, 2703.774
405.9503, 2691.379
406.4325, 2689.817
406.9146, 2696.987
407.3967, 2706.637
407.8788, 2723.189
408.3609, 2732.840
408.8430, 2728.110
409.3252, 2719.269
409.8073, 2715.305
410.2894, 2717.231
410.7715, 2717.456
411.2536, 2706.541
411.7357, 2687.395
412.2179, 2676.252
412.7000, 2676.926
413.1821, 2679.046
413.6642, 2678.591
414.1463, 2674.255
414.6284, 2661.622
415.1106, 2631.753
415.5927, 2603.221
416.0748, 2593.243
416.5569, 2596.114
417.0390, 2593.933
417.5211, 2580.238
418.0033, 2560.911
418.4854, 2545.486
418.9675, 2537.720
419.4496, 2520.072
419.9317, 2479.920
420.4138, 2439.696
420.8960, 2414.990
421.3781, 2403.910
421.8602, 2396.794
422.3423, 2387.805
422.8244, 2376.860
423.3065, 2363.780
423.7887, 2349.409
424.2708, 2331.144
424.7529, 2304.425
425.2350, 2276.939
425.7171, 2253.046
426.1992, 2234.254
426.6814, 2222.910
427.1635, 2226.499
427.6456, 2242.893
428.1277, 2245.003
428.6098, 2226.415
429.0919, 2205.741
429.5741, 2190.908
430.0562, 2180.515
430.5383, 2173.513
431.0204, 2171.200
431.5025, 2168.862
431.9846, 2162.101
432.4668, 2151.987
432.9489, 2142.243
433.4310, 2133.767
433.9131, 2125.953
434.3952, 2116.702
434.8773, 2105.346
435.3595, 2102.423
435.8416, 2118.573
436.3237, 2134.282
436.8058, 2135.460
437.2879, 2126.283
437.7701, 2119.167
438.2522, 2120.625
438.7343, 2126.897
439.2164, 2128.415
439.6985, 2122.611
440.1806, 2116.385
440.6628, 2104.691
441.1449, 2096.827
441.6270, 2102.500
442.1091, 2118.649
442.5912, 2132.285
443.0733, 2132.487
443.5555, 2122.966
444.0376, 2118.175
444.5197, 2119.482
445.0018, 2121.685
445.4839, 2122.199
445.9660, 2123.020
446.4482, 2127.659
446.9303, 2137.476
447.4124, 2143.488
447.8945, 2135.731
448.3766, 2121.125
448.8587, 2113.758
449.3409, 2115.548
449.8230, 2123.683
450.3051, 2138.353
450.7872, 2158.294
451.2693, 2171.128
451.7514, 2172.356
452.2336, 2172.318
452.7157, 2173.594
453.1978, 2175.906
453.6799, 2179.605
454.1620, 2184.531
454.6441, 2188.179
455.1263, 2186.459
455.6084, 2177.449
456.0905, 2173.986
456.5726, 2184.364
457.0547, 2191.937
457.5368, 2189.578
458.0190, 2181.558
458.5011, 2174.210
458.9832, 2169.683
459.4653, 2169.257
459.9474, 2178.953
460.4295, 2199.053
460.9117, 2206.385
461.3938, 2189.940
461.8759, 2168.343
462.3580, 2158.124
462.8401, 2157.461
463.3222, 2157.380
463.8044, 2154.938
464.2865, 2152.448
464.7686, 2152.633
465.2507, 2154.750
465.7328, 2155.813
466.2149, 2154.530
466.6971, 2151.520
467.1792, 2148.024
467.6613, 2144.244
468.1434, 2139.378
468.6255, 2132.601
469.1076, 2125.470
469.5898, 2118.259
470.0719, 2111.535
470.5540, 2107.101
471.0361, 2106.678
471.5182, 2107.643
472.0003, 2101.368
472.4825, 2084.499
472.9646, 2069.650
473.4467, 2059.800
473.9288, 2052.752
474.4109, 2047.810
474.8930, 2044.734
475.3752, 2042.481
475.8573, 2043.221
476.3394, 2043.325
476.8215, 2033.949
477.3036, 2014.832
477.7857, 1999.866
478.2679, 1997.409
478.7500, 2002.339
479.2321, 2002.023
479.7142, 1994.368
480.1963, 1987.674
480.6784, 1982.723
481.1606, 1979.933
481.6427, 1981.251
482.1248, 1985.698
482.6069, 1988.611
483.0890, 1986.145
483.5711, 1979.635
484.0533, 1976.439
484.5354, 1977.463
485.0175, 1980.574
485.4996, 1990.634
485.9817, 1998.804
486.4638, 1995.263
486.9460, 1980.488
487.4281, 1966.851
487.9102, 1965.030
488.3923, 1971.717
488.8744, 1976.273
489.3565, 1977.736
489.8387, 1982.661
490.3208, 1998.698
490.8029, 2017.885
491.2850, 2023.479
491.7671, 2010.931
492.2492, 1998.318
492.7314, 1990.307
493.2135, 1986.242
493.6956, 1987.425
494.1777, 1992.864
494.6598, 1996.664
495.1419, 1993.873
495.6241, 1985.895
496.1062, 1981.782
496.5883, 1983.695
497.0704, 1986.745
497.5525, 1992.097
498.0346, 1997.209
498.5168, 2000.025
498.9989, 2000.328
499.4810, 1999.142
499.9631, 1996.819
500.4452, 1993.698
500.9273, 1991.020
501.4095, 1988.751
501.8916, 1986.826
502.3737, 1982.728
502.8558, 1980.660
503.3379, 1988.251
503.8200, 2008.702
504.3022, 2025.659
504.7843, 2032.075
505.2664, 2032.282
505.7485, 2029.107
506.2306, 2023.797
506.7127, 2020.568
507.1949, 2022.593
507.6770, 2028.418
508.1591, 2031.950
508.6412, 2038.260
509.1233, 2034.088
509.6054, 2001.335
510.0876, 1971.711
510.5697, 1974.598
511.0518, 2005.834
511.5339, 2035.326
512.0161, 2040.225
512.4982, 2028.664
512.9803, 2023.102
513.4624, 2024.892
513.9445, 2024.257
514.4266, 2014.256
514.9088, 2003.370
515.3909, 2004.193
515.8730, 2017.897
516.3551, 2027.708
516.8372, 2029.221
517.3193, 2024.190
517.8015, 2009.571
518.2836, 1988.870
518.7657, 1974.859
519.2478, 1974.924
519.7299, 1983.218
520.2120, 1985.723
520.6942, 1978.382
521.1763, 1972.900
521.6584, 1968.091
522.1405, 1965.987
522.6226, 1969.346
523.1047, 1976.315
523.5869, 1982.804
524.0690, 1987.487
524.5511, 1988.880
525.0332, 1983.013
525.5153, 1969.942
525.9974, 1958.270
526.4796, 1950.042
526.9617, 1943.774
527.4438, 1936.606
527.9259, 1929.015
528.4080, 1927.992
528.8901, 1939.841
529.3723, 1953.281
529.8544, 1964.009
530.3365, 1971.082
530.8186, 1970.614
531.3007, 1961.653
531.7828, 1953.293
532.2650, 1960.133
532.7471, 1986.858
533.2292, 1999.512
533.7113, 1983.256
534.1934, 1969.629
534.6755, 1968.245
535.1577, 1975.092
535.6398, 1987.435
536.1219, 2005.851
536.6040, 2016.978
537.0861, 1997.764
537.5682, 1960.878
538.0504, 1951.987
538.5325, 1979.735
539.0146, 2010.035
539.4967, 2019.314
539.9788, 2011.100
540.4609, 2003.553
540.9431, 1994.162
541.4252, 1988.643
541.9073, 1991.022
542.3894, 1995.925
542.8715, 1999.381
543.3536, 2000.281
543.8358, 1996.983
544.3179, 1986.097
544.8000, 1971.992
545.2821, 1977.083
545.7642, 2012.379
546.2463, 2036.603
546.7285, 2031.121
547.2106, 2016.430
547.6927, 2006.547
548.1748, 2002.038
548.6569, 1999.557
549.1390, 1996.251
549.6211, 1995.305
550.1032, 2002.629
550.5853, 2016.129
551.0674, 2027.161
551.5496, 2032.651
552.0317, 2032.565
552.5138, 2026.426
552.9959, 2012.097
553.4780, 1998.741
553.9601, 1983.716
554.4423, 1972.245
554.9244, 1969.809
555.4065, 1971.257
555.8886, 1968.298
556.3707, 1957.792
556.8528, 1944.634
557.3350, 1933.972
557.8171, 1925.720
558.2992, 1919.921
558.7813, 1917.812
559.2634, 1914.098
559.7455, 1903.380
560.2277, 1888.607
560.7098, 1879.279
561.1919, 1877.444
561.6740, 1877.523
562.1561, 1880.874
562.6382, 1883.402
563.1204, 1879.600
563.6025, 1869.916
564.0846, 1859.268
564.5667, 1850.623
565.0488, 1844.749
565.5309, 1845.642
566.0131, 1857.893
566.4952, 1865.304
566.9773, 1862.058
567.4594, 1855.422
567.9415, 1848.545
568.4236, 1841.967
568.9058, 1836.776
569.3879, 1833.269
569.8700, 1831.470
570.3521, 1830.513
570.8342, 1831.150
571.3163, 1837.174
571.7985, 1850.215
572.2806, 1864.069
572.7627, 1870.489
573.2448, 1868.077
573.7269, 1871.760
574.2090, 1889.781
574.6912, 1903.797
575.1733, 1906.717
575.6554, 1904.571
576.1375, 1904.776
576.6196, 1908.721
577.1017, 1911.311
577.5839, 1904.474
578.0660, 1892.619
578.5481, 1893.646
579.0302, 1909.880
579.5123, 1919.469
579.9944, 1907.619
580.4766, 1887.579
580.9587, 1886.831
581.4408, 1909.872
581.9229, 1928.962
582.4050, 1941.643
582.8871, 1947.964
583.3693, 1941.328
583.8514, 1929.144
584.3335, 1928.215
584.8156, 1946.360
585.2977, 1971.225
585.7798, 1981.711
586.2620, 1976.025
586.7441, 1977.747
587.2262, 1994.451
587.7083, 2008.005
588.1904, 2000.795
588.6725, 1985.593
589.1547, 1985.576
589.6368, 2011.830
590.1189, 2031.988
590.6010, 2021.888
591.0831, 2001.596
591.5652, 1996.547
592.0474, 2008.033
592.5295, 2025.128
593.0116, 2041.177
593.4937, 2056.021
593.9758, 2070.020
594.4579, 2085.957
594.9401, 2094.252
595.4222, 2087.408
595.9043, 2078.653
596.3864, 2071.306
596.8685, 2067.373
597.3506, 2071.828
597.8328, 2091.000
598.3149, 2110.282
598.7970, 2114.218
599.2791, 2108.186
599.7612, 2105.268
600.2433, 2107.971
600.7255, 2115.312
601.2076, 2126.868
601.6897, 2142.288
602.1718, 2158.792
602.6539, 2181.863
603.1360, 2198.235
603.6182, 2206.800
604.1003, 2208.547
604.5824, 2197.963
605.0645, 2180.014
605.5466, 2172.133
606.0287, 2188.336
606.5109, 2214.479
606.9930, 2230.763
607.4751, 2237.816
607.9572, 2239.176
608.4393, 2234.255
608.9214, 2229.869
609.4036, 2234.604
609.8857, 2248.490
610.3678, 2251.964
610.8499, 2234.122
611.3320, 2220.710
611.8141, 2217.029
612.2963, 2220.998
612.7784, 2234.270
613.2605, 2254.294
613.7426, 2270.593
614.2247, 2273.652
614.7068, 2268.713
615.1890, 2269.127
615.6711, 2275.201
616.1532, 2280.118
616.6353, 2282.996
617.1174, 2281.906
617.5995, 2270.530
618.0817, 2248.592
618.5638, 2242.091
619.0459, 2265.069
619.5280, 2288.534
620.0101, 2306.190
620.4922, 2315.616
620.9744, 2312.267
621.4565, 2296.679
621.9386, 2276.199
622.4207, 2254.000
622.9028, 2233.626
623.3849, 2234.149
623.8671, 2261.144
624.3492, 2275.328
624.8313, 2257.658
625.3134, 2230.397
625.7955, 2221.678
626.2776, 2230.240
626.7598, 2234.202
627.2419, 2224.427
627.7240, 2216.044
628.2061, 2220.659
628.6882, 2229.900
629.1703, 2230.277
629.6525, 2219.376
630.1346, 2206.083
630.6167, 2199.000
631.0988, 2197.021
631.5809, 2193.877
632.0630, 2189.280
632.5452, 2184.781
633.0273, 2182.458
633.5094, 2178.785
633.9915, 2167.866
634.4736, 2150.271
634.9557, 2137.664
635.4379, 2137.041
635.9200, 2137.157
636.4021, 2130.665
636.8842, 2121.169
637.3663, 2115.194
637.8484, 2113.913
638.3306, 2112.751
638.8127, 2107.632
639.2948, 2098.594
639.7769, 2084.662
640.2590, 2063.078
640.7411, 2046.476
641.2233, 2041.299
641.7054, 2040.003
642.1875, 2035.116
642.6696, 2026.853
643.1517, 2017.678
643.6339, 2005.231
644.1160, 1995.055
644.5981, 1993.659
645.0802, 1995.125
645.5623, 1991.254
646.0444, 1979.982
646.5266, 1962.437
647.0087, 1938.124
647.4908, 1909.443
647.9729, 1887.348
648.4550, 1872.067
648.9371, 1863.583
649.4193, 1866.273
649.9014, 1871.110
650.3835, 1870.811
650.8656, 1865.458
651.3477, 1854.634
651.8298, 1833.616
652.3120, 1812.363
652.7941, 1795.024
653.2762, 1780.380
653.7583, 1766.253
654.2404, 1752.674
654.7225, 1742.625
655.2047, 1739.715
655.6868, 1740.555
656.1689, 1731.097
656.6510, 1707.766
657.1331, 1698.106
657.6152, 1718.103
658.0974, 1738.578
658.5795, 1727.348
659.0616, 1692.345
659.5437, 1669.089
660.0258, 1666.882
660.5079, 1669.151
660.9901, 1672.986
661.4722, 1676.811
661.9543, 1680.292
662.4364, 1682.383
662.9185, 1679.990
663.4006, 1670.526
663.8828, 1656.785
664.3649, 1642.728
664.8470, 1628.102
665.3291, 1621.997
665.8112, 1627.111
666.2933, 1638.181
666.7755, 1655.411
667.2576, 1675.466
667.7397, 1684.562
668.2218, 1677.218
668.7039, 1667.974
669.1860, 1652.738
669.6682, 1642.265
670.1503, 1647.411
670.6324, 1664.760
671.1145, 1684.555
671.5966, 1702.760
672.0787, 1716.156
672.5609, 1718.227
673.0430, 1710.570
673.5251, 1702.620
674.0072, 1693.667
674.4893, 1695.229
674.9714, 1719.506
675.4536, 1754.790
675.9357, 1769.421
676.4178, 1749.632
676.8999, 1739.379
677.3820, 1744.831
677.8641, 1754.886
678.3463, 1763.280
678.8284, 1772.385
679.3105, 1787.762
679.7926, 1811.139
680.2747, 1835.931
680.7568, 1856.432
681.2390, 1873.449
681.7211, 1887.503
682.2032, 1898.871
682.6853, 1913.065
683.1674, 1933.137
683.6495, 1954.786
684.1317, 1970.341
684.6138, 1976.568
685.0959, 1993.694
685.5780, 2036.744
686.0601, 2072.940
686.5422, 2087.922
687.0244, 2096.193
687.5065, 2112.804
687.9886, 2139.552
688.4707, 2168.557
688.9528, 2197.680
689.4349, 2225.034
689.9171, 2246.746
690.3992, 2264.901
690.8813, 2287.287
691.3634, 2315.805
691.8455, 2341.344
692.3276, 2353.656
692.8098, 2354.711
693.2919, 2362.961
693.7740, 2386.336
694.2561, 2399.357
694.7382, 2396.317
695.2203, 2381.992
695.7025, 2353.825
696.1846, 2316.332
696.6667, 2286.097
697.1488, 2272.636
697.6309, 2259.108
698.1130, 2238.285
698.5952, 2211.458
699.0773, 2177.666
699.5594, 2138.872
700.0415, 2101.676
700.5236, 2069.900
701.0057, 2042.419
701.4879, 2018.667
701.9700, 1999.033
702.4521, 1972.848
702.9342, 1935.599
703.4163, 1900.868
703.8984, 1876.333
704.3806, 1860.035
704.8627, 1848.389
705.3448, 1846.570
705.8269, 1834.363
706.3090, 1792.714
706.7911, 1756.114
707.2733, 1751.002
707.7554, 1763.238
708.2375, 1767.872
708.7196, 1757.351
709.2017, 1742.414
709.6838, 1733.860
710.1660, 1728.470
710.6481, 1714.673
711.1302, 1693.363
711.6123, 1683.641
712.0944, 1694.010
712.5765, 1711.221
713.0587, 1719.128
713.5408, 1717.310
714.0229, 1715.094
714.5050, 1710.625
714.9871, 1708.382
715.4692, 1711.295
715.9514, 1714.901
716.4335, 1713.561
716.9156, 1708.994
717.3977, 1710.285
717.8798, 1726.433
718.3619, 1741.944
718.8441, 1741.567
719.3262, 1733.319
719.8083, 1729.296
720.2904, 1731.757
720.7725, 1741.656
721.2546, 1760.915
721.7368, 1782.532
722.2189, 1786.146
722.7010, 1767.109
723.1831, 1762.978
723.6652, 1781.405
724.1473, 1805.571
724.6295, 1830.450
725.1116, 1852.979
725.5937, 1865.659
726.0758, 1863.289
726.5579, 1869.085
727.0400, 1894.422
727.5222, 1921.804
728.0043, 1943.027
728.4864, 1958.485
728.9685, 1968.590
729.4506, 1974.035
729.9327, 1979.167
730.4149, 1987.399
730.8970, 1998.276
731.3791, 2010.185
731.8612, 2023.417
732.3433, 2041.164
732.8254, 2064.753
733.3076, 2091.148
733.7897, 2117.716
734.2718, 2144.280
734.7539, 2169.672
735.2360, 2193.261
735.7181, 2216.940
736.2003, 2244.786
736.6824, 2269.359
737.1645, 2281.521
737.6466, 2286.982
738.1287, 2301.561
738.6108, 2332.179
739.0930, 2366.020
739.5751, 2402.088
740.0572, 2433.438
740.5393, 2448.042
741.0214, 2449.842
741.5035, 2452.941
741.9857, 2463.887
742.4678, 2479.891
742.9499, 2499.049
743.4320, 2520.768
743.9141, 2535.758
744.3962, 2542.119
744.8784, 2551.855
745.3605, 2570.353
745.8426, 2593.674
746.3247, 2618.212
746.8068, 2645.085
747.2889, 2662.264
747.7711, 2665.573
748.2532, 2665.391
748.7353, 2659.101
749.2174, 2654.129
749.6995, 2658.516
750.1816, 2670.817
750.6638, 2683.246
751.1459, 2695.308
751.6280, 2700.090
752.1101, 2684.870
752.5922, 2660.067
753.0743, 2646.795
753.5565, 2645.986
754.0386, 2645.249
754.5207, 2637.629
755.0028, 2624.090
755.4849, 2604.230
755.9670, 2576.530
756.4492, 2558.299
756.9313, 2554.472
757.4134, 2548.437
757.8955, 2533.590
758.3776, 2512.042
758.8597, 2484.301
759.3419, 2449.262
759.8240, 2421.206
760.3061, 2409.074
760.7882, 2394.731
761.2703, 2369.217
761.7524, 2339.510
762.2346, 2314.393
762.7167, 2293.410
763.1988, 2267.611
763.6809, 2228.621
764.1630, 2188.590
764.6451, 2162.000
765.1273, 2145.103
765.6094, 2128.460
766.0915, 2110.966
766.5736, 2097.023
767.0557, 2090.156
767.5378, 2084.842
768.0200, 2067.179
768.5021, 2033.858
768.9842, 2009.542
769.4663, 1999.933
769.9484, 1987.468
770.4305, 1954.831
770.9127, 1921.920
771.3948, 1924.058
771.8769, 1965.356
772.3590, 1985.188
772.8411, 1957.588
773.3232, 1930.170
773.8054, 1923.335
774.2875, 1924.523
774.7696, 1917.549
775.2517, 1903.585
775.7338, 1898.599
776.2159, 1916.338
776.6981, 1935.951
777.1802, 1931.346
777.6623, 1911.422
778.1444, 1894.551
778.6265, 1883.543
779.1086, 1879.587
779.5908, 1884.190
780.0729, 1890.521
780.5550, 1883.800
781.0371, 1861.762
781.5192, 1851.388
782.0013, 1859.532
782.4835, 1860.098
782.9656, 1834.300
783.4477, 1804.622
783.9298, 1803.557
784.4119, 1831.856
784.8940, 1850.666
785.3762, 1853.131
785.8583, 1852.678
786.3404, 1849.661
786.8225, 1847.745
787.3046, 1851.185
787.7867, 1858.566
788.2689, 1864.520
788.7510, 1866.580
789.2331, 1867.433
789.7152, 1869.239
790.1973, 1871.394
790.6794, 1873.495
791.1616, 1875.114
791.6437, 1873.842
792.1258, 1868.624
792.6079, 1864.826
793.0900, 1871.202
793.5721, 1886.271
794.0543, 1894.587
794.5364, 1895.070
795.0185, 1895.752
795.5006, 1898.940
795.9827, 1903.240
796.4648, 1908.937
796.9470, 1915.196
797.4291, 1912.889
797.9112, 1890.521
798.3933, 1876.107
798.8754, 1873.950
799.3575, 1876.985
799.8397, 1883.120
800.3218, 1890.956
800.8039, 1899.272
801.2860, 1908.278
801.7681, 1914.031
802.2502, 1912.060
802.7324, 1908.159
803.2145, 1909.826
803.6966, 1912.855
804.1787, 1907.257
804.6608, 1891.651
805.1429, 1875.440
805.6251, 1865.878
806.1072, 1861.841
806.5893, 1862.273
807.0714, 1866.543
807.5535, 1870.307
808.0356, 1872.924
808.5178, 1873.028
808.9999, 1869.007
809.4820, 1863.347
809.9641, 1862.593
810.4462, 1868.205
810.9283, 1873.754
811.4105, 1882.227
811.8926, 1885.725
812.3747, 1876.010
812.8568, 1863.178
813.3389, 1859.847
813.8210, 1866.073
814.3032, 1869.736
814.7853, 1866.371
815.2674, 1863.637
815.7495, 1865.799
816.2316, 1868.435
816.7137, 1864.295
817.1959, 1856.963
817.6780, 1859.691
818.1601, 1880.876
818.6422, 1899.571
819.1243, 1896.233
819.6064, 1880.057
820.0886, 1859.534
820.5707, 1839.086
821.0528, 1832.872
821.5349, 1845.194
822.0170, 1859.544
822.4991, 1856.742
822.9813, 1841.355
823.4634, 1834.272
823.9455, 1836.105
824.4276, 1830.446
824.9097, 1810.847
825.3918, 1796.289
825.8740, 1804.100
826.3561, 1825.603
826.8382, 1830.099
827.3203, 1801.574
827.8024, 1793.305
828.2845, 1825.702
828.7667, 1853.387
829.2488, 1860.251
829.7309, 1853.711
830.2130, 1837.533
830.6951, 1812.417
831.1772, 1799.350
831.6594, 1812.985
832.1415, 1827.845
832.6236, 1833.302
833.1057, 1834.356
833.5878, 1833.764
834.0699, 1833.827
834.5521, 1839.368
835.0342, 1853.308
835.5163, 1868.801
835.9984, 1882.192
836.4805, 1891.614
836.9626, 1888.829
837.4448, 1878.825
837.9269, 1882.394
838.4090, 1905.733
838.8911, 1930.384
839.3732, 1935.499
839.8553, 1927.478
840.3375, 1932.759
840.8196, 1951.803
841.3017, 1957.816
841.7838, 1943.178
842.2659, 1929.379
842.7480, 1930.833
843.2302, 1943.260
843.7123, 1955.692
844.1944, 1966.210
844.6765, 1984.014
845.1586, 2021.029
845.6407, 2047.512
846.1229, 2042.061
846.6050, 2029.450
847.0871, 2036.311
847.5692, 2061.002
848.0513, 2078.075
848.5334, 2073.881
849.0156, 2075.575
849.4977, 2094.636
849.9798, 2118.621
850.4619, 2144.041
850.9440, 2165.318
851.4261, 2168.940
851.9083, 2149.279
852.3904, 2136.049
852.8725, 2154.579
853.3546, 2184.323
853.8367, 2206.702
854.3188, 2222.481
854.8010, 2234.379
855.2831, 2243.435
855.7652, 2250.302
856.2473, 2254.710
856.7294, 2259.310
857.2115, 2269.527
857.6937, 2284.131
858.1758, 2298.698
858.6579, 2312.637
859.1400, 2322.582
859.6221, 2326.595
860.1042, 2328.975
860.5864, 2336.844
861.0685, 2349.697
861.5506, 2352.877
862.0327, 2342.046
862.5148, 2339.267
862.9969, 2352.926
863.4791, 2368.968
863.9612, 2377.188
864.4433, 2378.850
864.9254, 2377.854
865.4075, 2367.873
865.8896, 2368.558
866.3718, 2392.785
866.8539, 2411.873
867.3360, 2414.570
867.8181, 2407.782
868.3002, 2396.673
868.7823, 2382.481
869.2645, 2372.764
869.7466, 2375.061
870.2287, 2374.942
870.7108, 2359.679
871.1929, 2345.696
871.6750, 2352.201
872.1572, 2371.356
872.6393, 2382.830
873.1214, 2379.725
873.6035, 2372.307
874.0856, 2369.896
874.5677, 2365.485
875.0499, 2345.028
875.5320, 2318.198
876.0141, 2309.580
876.4962, 2320.080
876.9783, 2323.966
877.4604, 2302.084
877.9426, 2271.867
878.4247, 2262.129
878.9068, 2268.148
879.3889, 2275.228
879.8710, 2281.445
880.3531, 2278.425
880.8353, 2262.444
881.3174, 2240.836
881.7995, 2219.825
882.2816, 2201.879
882.7637, 2208.330
883.2458, 2245.046
883.7280, 2260.163
884.2101, 2240.340
884.6922, 2213.493
885.1743, 2194.759
885.6564, 2184.244
886.1385, 2184.264
886.6207, 2200.787
887.1028, 2200.202
887.5849, 2169.935
888.0670, 2142.829
888.5491, 2128.004
889.0313, 2119.259
889.5134, 2112.162
889.9955, 2106.576
890.4776, 2101.921
890.9597, 2100.165
891.4418, 2095.752
891.9240, 2084.822
892.4061, 2074.408
892.8882, 2066.475
893.3703, 2062.203
893.8524, 2065.990
894.3345, 2077.079
894.8167, 2080.972
895.2988, 2065.103
895.7809, 2048.824
896.2630, 2039.558
896.7451, 2037.208
897.2272, 2047.360
897.7094, 2063.471
898.1915, 2069.384
898.6736, 2059.270
899.1557, 2046.100
899.6378, 2037.993
900.1199, 2034.354
900.6021, 2034.372
901.0842, 2038.307
901.5663, 2048.682
902.0484, 2064.413
902.5305, 2079.238
903.0126, 2089.690
903.4948, 2094.338
903.9769, 2086.141
904.4590, 2071.079
904.9411, 2068.753
905.4232, 2078.846
905.9053, 2093.720
906.3875, 2110.754
906.8696, 2123.243
907.3517, 2122.663
907.8338, 2116.058
908.3159, 2130.136
908.7980, 2165.104
909.2802, 2185.418
909.7623, 2185.282
910.2444, 2186.158
910.7265, 2198.001
911.2086, 2217.400
911.6907, 2241.042
912.1729, 2268.757
912.6550, 2286.679
913.1371, 2289.699
913.6192, 2299.715
914.1013, 2323.472
914.5834, 2349.308
915.0656, 2370.310
915.5477, 2387.735
916.0298, 2404.604
916.5119, 2421.036
916.9940, 2436.617
917.4761, 2453.449
917.9583, 2466.413
918.4404, 2467.823
918.9225, 2470.607
919.4046, 2488.478
919.8867, 2516.571
920.3688, 2536.425
920.8510, 2543.786
921.3331, 2549.475
921.8152, 2554.579
922.2973, 2558.853
922.7794, 2561.330
923.2615, 2563.499
923.7437, 2567.888
924.2258, 2574.043
924.7079, 2577.349
925.1900, 2571.857
925.6721, 2570.877
926.1542, 2590.952
926.6364, 2607.219
927.1185, 2593.801
927.6006, 2564.577
928.0827, 2542.711
928.5648, 2533.995
929.0469, 2535.917
929.5291, 2563.784
930.0112, 2582.453
930.4933, 2553.528
930.9754, 2508.490
931.4575, 2488.290
931.9396, 2488.122
932.4218, 2480.950
932.9039, 2456.999
933.3860, 2432.525
933.8681, 2421.481
934.3502, 2417.837
934.8323, 2415.539
935.3145, 2414.152
935.7966, 2414.762
936.2787, 2416.015
936.7608, 2411.286
937.2429, 2396.760
937.7250, 2380.140
938.2072, 2368.924
938.6893, 2363.316
939.1714, 2367.989
939.6535, 2378.953
940.1356, 2379.278
940.6177, 2366.091
941.0999, 2351.988
941.5820, 2346.040
942.0641, 2343.199
942.5462, 2331.824
943.0283, 2315.039
943.5104, 2312.055
943.9926, 2322.277
944.4747, 2324.111
944.9568, 2310.517
945.4389, 2305.271
945.9210, 2334.017
946.4031, 2376.854
946.8853, 2368.935
947.3674, 2310.657
947.8495, 2290.162
948.3316, 2316.617
948.8137, 2339.147
949.2958, 2338.117
949.7780, 2325.700
950.2601, 2313.961
950.7422, 2303.634
951.2243, 2298.912
951.7064, 2300.313
952.1885, 2304.576
952.6707, 2312.521
953.1528, 2318.680
953.6349, 2319.423
954.1170, 2319.731
954.5991, 2328.036
955.0812, 2343.410
955.5634, 2344.732
956.0455, 2324.844
956.5276, 2313.104
957.0097, 2314.757
957.4918, 2321.595
957.9739, 2331.450
958.4561, 2341.451
958.9382, 2346.588
959.4203, 2346.483
959.9024, 2347.718
960.3845, 2356.651
960.8666, 2353.460
961.3488, 2324.588
961.8309, 2297.719
962.3130, 2293.208
962.7951, 2300.302
963.2772, 2297.140
963.7593, 2280.823
964.2415, 2269.809
964.7236, 2269.981
965.2057, 2266.896
965.6878, 2256.602
966.1699, 2243.785
966.6520, 2231.442
967.1342, 2218.709
967.6163, 2203.484
968.0984, 2185.127
968.5805, 2166.700
969.0626, 2148.229
969.5447, 2129.753
970.0269, 2113.232
970.5090, 2094.935
970.9911, 2068.159
971.4732, 2037.845
971.9553, 2018.010
972.4374, 2013.128
972.9196, 2007.186
973.4017, 1993.922
973.8838, 1984.338
974.3659, 1987.567
974.8480, 1991.718
975.3301, 1985.548
975.8123, 1971.356
976.2944, 1957.997
976.7765, 1946.971
977.2586, 1936.482
977.7407, 1925.244
978.2228, 1915.606
978.7050, 1910.601
979.1871, 1906.185
979.6692, 1895.920
980.1513, 1882.598
980.6334, 1878.054
981.1155, 1890.403
981.5977, 1894.021
982.0798, 1873.060
982.5619, 1851.190
983.0440, 1838.073
983.5261, 1832.015
984.0082, 1834.390
984.4904, 1841.695
984.9725, 1842.630
985.4546, 1833.074
985.9367, 1820.423
986.4188, 1805.053
986.9009, 1789.854
987.3831, 1774.978
987.8652, 1762.235
988.3473, 1754.508
988.8294, 1751.088
989.3115, 1748.199
989.7936, 1744.613
990.2758, 1741.765
990.7579, 1745.925
991.2400, 1744.810
991.7221, 1722.725
992.2042, 1695.974
992.6863, 1684.552
993.1685, 1688.393
993.6506, 1696.621
994.1327, 1710.597
994.6148, 1713.979
995.0969, 1685.557
995.5790, 1659.023
996.0612, 1663.676
996.5433, 1679.783
997.0254, 1680.618
997.5075, 1666.493
997.9896, 1654.968
998.4717, 1651.589
998.9539, 1652.793
999.4360, 1661.842
999.9181, 1669.659
1000.400, 1665.881
1000.882, 1659.651
1001.364, 1666.302
1001.847, 1682.855
1002.329, 1690.107
1002.811, 1679.662
1003.293, 1664.929
1003.775, 1646.678
1004.257, 1632.204
1004.739, 1627.243
1005.221, 1628.718
1005.703, 1636.528
1006.186, 1647.069
1006.668, 1648.403
1007.150, 1632.745
1007.632, 1620.457
1008.114, 1619.858
1008.596, 1626.724
1009.078, 1649.664
1009.560, 1670.799
1010.043, 1665.585
1010.525, 1638.089
1011.007, 1611.466
1011.489, 1590.485
1011.971, 1579.102
1012.453, 1581.057
1012.935, 1590.642
1013.417, 1613.878
1013.899, 1635.909
1014.382, 1636.411
1014.864, 1620.517
1015.346, 1611.325
1015.828, 1617.184
1016.310, 1621.109
1016.792, 1612.799
1017.274, 1605.350
1017.756, 1610.903
1018.239, 1616.961
1018.721, 1605.760
1019.203, 1583.918
1019.685, 1574.448
1020.167, 1584.737
1020.649, 1596.724
1021.131, 1606.838
1021.613, 1614.544
1022.095, 1622.052
1022.578, 1625.033
1023.060, 1615.532
1023.542, 1598.995
1024.024, 1589.274
1024.506, 1589.582
1024.988, 1592.310
1025.470, 1601.211
1025.952, 1604.724
1026.435, 1591.281
1026.917, 1577.409
1027.399, 1578.370
1027.881, 1588.593
1028.363, 1594.387
1028.845, 1593.233
1029.327, 1594.339
1029.809, 1603.220
1030.292, 1609.210
1030.774, 1607.658
1031.256, 1604.131
1031.738, 1600.109
1032.220, 1597.716
1032.702, 1601.673
1033.184, 1613.007
1033.666, 1620.350
1034.148, 1617.756
1034.630, 1618.104
1035.113, 1627.418
1035.595, 1635.895
1036.077, 1634.162
1036.559, 1630.313
1037.041, 1639.205
1037.523, 1661.656
1038.005, 1673.103
1038.487, 1667.942
1038.970, 1660.401
1039.452, 1643.208
1039.934, 1634.367
1040.416, 1646.411
1040.898, 1666.971
1041.380, 1682.733
1041.862, 1693.717
1042.344, 1700.293
1042.826, 1702.079
1043.309, 1699.778
1043.791, 1689.624
1044.273, 1682.376
1044.755, 1681.846
1045.237, 1686.382
1045.719, 1697.388
1046.201, 1711.277
1046.683, 1710.291
1047.166, 1687.891
1047.648, 1673.306
1048.130, 1669.615
1048.612, 1665.285
1049.094, 1656.968
1049.576, 1647.200
1050.058, 1639.395
1050.540, 1630.050
1051.022, 1606.893
1051.505, 1566.871
1051.987, 1545.659
1052.469, 1546.633
1052.951, 1545.374
1053.433, 1535.224
1053.915, 1527.971
1054.397, 1532.476
1054.879, 1541.459
1055.361, 1541.991
1055.844, 1534.399
1056.326, 1519.916
1056.808, 1498.515
1057.290, 1488.571
1057.772, 1493.328
1058.254, 1499.134
1058.736, 1499.170
1059.218, 1492.757
1059.701, 1476.439
1060.183, 1455.080
1060.665, 1446.187
1061.147, 1447.651
1061.629, 1448.210
1062.111, 1446.837
1062.593, 1447.711
1063.075, 1452.308
1063.557, 1455.946
1064.040, 1453.419
1064.522, 1448.524
1065.004, 1450.853
1065.486, 1455.350
1065.968, 1446.067
1066.450, 1427.177
1066.932, 1416.985
1067.414, 1419.569
1067.896, 1424.735
1068.379, 1425.625
1068.861, 1425.958
1069.343, 1428.906
1069.825, 1434.663
1070.307, 1447.846
1070.789, 1462.288
1071.271, 1465.411
1071.753, 1456.918
1072.236, 1444.048
1072.718, 1428.510
1073.200, 1420.090
1073.682, 1432.868
1074.164, 1448.139
1074.646, 1448.261
1075.128, 1443.195
1075.610, 1445.358
1076.093, 1453.774
1076.575, 1462.632
1077.057, 1470.531
1077.539, 1474.986
1078.021, 1472.861
1078.503, 1469.739
1078.985, 1466.555
1079.467, 1464.916
1079.949, 1467.369
1080.432, 1471.537
1080.914, 1473.066
1081.396, 1471.668
1081.878, 1471.949
1082.360, 1479.754
1082.842, 1481.574
1083.324, 1463.661
1083.806, 1453.392
1084.288, 1473.258
1084.771, 1499.343
1085.253, 1502.521
1085.735, 1488.360
1086.217, 1485.037
1086.699, 1498.799
1087.181, 1506.499
1087.663, 1503.913
1088.145, 1503.996
1088.628, 1511.637
1089.110, 1519.798
1089.592, 1522.852
1090.074, 1523.608
1090.556, 1528.842
1091.038, 1538.902
1091.520, 1542.077
1092.002, 1536.453
1092.484, 1536.833
1092.967, 1546.458
1093.449, 1556.824
1093.931, 1564.079
1094.413, 1567.572
1094.895, 1565.091
1095.377, 1559.901
1095.859, 1565.621
1096.341, 1580.564
1096.823, 1592.206
1097.306, 1599.463
1097.788, 1601.839
1098.270, 1599.772
1098.752, 1603.188
1099.234, 1622.135
1099.716, 1641.532
1100.198, 1632.447
1100.680, 1610.096
1101.163, 1604.905
1101.645, 1613.332
1102.127, 1623.988
1102.609, 1634.696
1103.091, 1649.248
1103.573, 1669.731
1104.055, 1686.512
1104.537, 1688.743
1105.020, 1686.642
1105.502, 1684.210
1105.984, 1687.028
1106.466, 1710.292
1106.948, 1741.532
1107.430, 1750.262
1107.912, 1731.399
1108.394, 1715.678
1108.876, 1712.949
1109.359, 1719.625
1109.841, 1745.024
1110.323, 1767.478
1110.805, 1769.923
1111.287, 1764.459
1111.769, 1764.011
1112.251, 1769.623
1112.733, 1781.678
1113.215, 1805.061
1113.698, 1822.683
1114.180, 1829.630
1114.662, 1838.070
1115.144, 1856.157
1115.626, 1868.064
1116.108, 1857.032
1116.590, 1839.331
1117.072, 1847.585
1117.555, 1881.993
1118.037, 1903.056
1118.519, 1909.375
1119.001, 1909.244
1119.483, 1902.732
1119.965, 1894.734
1120.447, 1886.613
1120.929, 1882.672
1121.411, 1887.865
1121.894, 1899.226
1122.376, 1908.532
1122.858, 1916.916
1123.340, 1933.321
1123.822, 1955.374
1124.304, 1968.226
1124.786, 1969.343
1125.268, 1967.586
1125.750, 1967.745
1126.233, 1970.909
1126.715, 1979.641
1127.197, 1990.954
1127.679, 2003.972
1128.161, 2014.685
1128.643, 2014.871
1129.125, 2007.477
1129.607, 1998.643
1130.090, 1991.375
1130.572, 1996.266
1131.054, 2027.791
1131.536, 2056.407
1132.018, 2066.882
1132.500, 2069.230
1132.982, 2062.004
1133.464, 2056.696
1133.947, 2069.240
1134.429, 2095.796
1134.911, 2117.802
1135.393, 2132.770
1135.875, 2144.016
1136.357, 2152.179
1136.839, 2155.311
1137.321, 2145.586
1137.803, 2142.318
1138.286, 2161.897
1138.768, 2187.364
1139.250, 2191.060
1139.732, 2176.868
1140.214, 2185.755
1140.696, 2223.472
1141.178, 2234.612
1141.660, 2211.735
1142.142, 2211.030
1142.625, 2252.122
1143.107, 2288.128
1143.589, 2280.538
1144.071, 2257.490
1144.553, 2271.332
1145.035, 2308.446
1145.517, 2330.342
1145.999, 2338.864
1146.482, 2334.863
1146.964, 2324.493
1147.446, 2330.693
1147.928, 2360.835
1148.410, 2390.922
1148.892, 2402.330
1149.374, 2408.031
1149.856, 2417.616
1150.339, 2428.657
1150.821, 2436.232
1151.303, 2445.085
1151.785, 2465.758
1152.267, 2495.240
1152.749, 2517.155
1153.231, 2525.945
1153.713, 2533.230
1154.195, 2536.766
1154.677, 2546.112
1155.160, 2565.553
1155.642, 2590.431
1156.124, 2624.687
1156.606, 2656.877
1157.088, 2667.335
1157.570, 2658.626
1158.052, 2661.746
1158.534, 2679.720
1159.017, 2695.284
1159.499, 2706.716
1159.981, 2720.422
1160.463, 2738.217
1160.945, 2760.571
1161.427, 2789.038
1161.909, 2817.056
1162.391, 2834.369
1162.874, 2842.145
1163.356, 2837.215
1163.838, 2827.526
1164.320, 2846.646
1164.802, 2887.760
1165.284, 2905.716
1165.766, 2889.409
1166.248, 2879.533
1166.730, 2905.191
1167.213, 2940.927
1167.695, 2972.817
1168.177, 2998.102
1168.659, 3011.987
1169.141, 3019.248
1169.623, 3024.368
1170.105, 3028.629
1170.587, 3032.968
1171.069, 3037.276
1171.552, 3044.100
1172.034, 3058.387
1172.516, 3068.142
1172.998, 3065.003
1173.480, 3067.098
1173.962, 3088.695
1174.444, 3109.308
1174.926, 3105.177
1175.409, 3084.670
1175.891, 3076.919
1176.373, 3082.817
1176.855, 3091.304
1177.337, 3102.714
1177.819, 3100.496
1178.301, 3081.890
1178.783, 3061.981
1179.266, 3048.086
1179.748, 3038.135
1180.230, 3029.313
1180.712, 3024.633
1181.194, 3036.650
1181.676, 3051.265
1182.158, 3040.402
1182.640, 3013.976
1183.122, 2995.434
1183.604, 2986.607
1184.087, 2975.254
1184.569, 2956.572
1185.051, 2938.153
1185.533, 2925.095
1186.015, 2910.834
1186.497, 2890.217
1186.979, 2869.886
1187.461, 2856.338
1187.944, 2844.652
1188.426, 2826.515
1188.908, 2803.364
1189.390, 2784.949
1189.872, 2772.300
1190.354, 2760.906
1190.836, 2751.390
1191.318, 2741.140
1191.801, 2730.475
1192.283, 2711.749
1192.765, 2679.594
1193.247, 2646.021
1193.729, 2626.496
1194.211, 2615.763
1194.693, 2601.349
1195.175, 2584.890
1195.657, 2570.041
1196.140, 2557.200
1196.622, 2547.458
1197.104, 2540.069
1197.586, 2531.769
1198.068, 2521.398
1198.550, 2507.022
1199.032, 2482.538
1199.514, 2460.046
1199.996, 2450.920
1200.479, 2441.777
1200.961, 2415.486
1201.443, 2386.378
1201.925, 2378.386
1202.407, 2389.532
1202.889, 2394.823
1203.371, 2393.596
1203.853, 2387.836
1204.336, 2375.636
1204.818, 2366.703
1205.300, 2365.790
1205.782, 2352.162
1206.264, 2311.891
1206.746, 2272.691
1207.228, 2269.296
1207.710, 2287.624
1208.193, 2294.142
1208.675, 2292.708
1209.157, 2295.676
1209.639, 2300.412
1210.121, 2295.926
1210.603, 2282.716
1211.085, 2270.929
1211.567, 2264.519
1212.049, 2261.314
1212.531, 2262.719
1213.014, 2263.183
1213.496, 2258.249
1213.978, 2253.031
1214.460, 2249.172
1214.942, 2248.500
1215.424, 2255.539
1215.906, 2267.379
1216.388, 2274.081
1216.871, 2276.156
1217.353, 2267.320
1217.835, 2241.215
1218.317, 2233.333
1218.799, 2251.403
1219.281, 2268.317
1219.763, 2273.039
1220.245, 2270.313
1220.728, 2262.881
1221.210, 2257.214
1221.692, 2268.612
1222.174, 2287.712
1222.656, 2292.400
1223.138, 2290.903
1223.620, 2304.917
1224.102, 2328.794
1224.584, 2339.176
1225.067, 2330.751
1225.549, 2319.155
1226.031, 2306.927
1226.513, 2300.687
1226.995, 2301.587
1227.477, 2310.313
1227.959, 2339.971
1228.441, 2363.674
1228.923, 2354.903
1229.406, 2334.119
1229.888, 2338.628
1230.370, 2364.972
1230.852, 2372.730
1231.334, 2360.847
1231.816, 2357.272
1232.298, 2363.445
1232.780, 2372.675
1233.263, 2382.829
1233.745, 2390.213
1234.227, 2392.562
1234.709, 2397.007
1235.191, 2414.265
1235.673, 2433.617
1236.155, 2450.163
##END=



