##NAMES=Vesuvianite
##RRUFFID=R060170
##IDEAL CHEMISTRY=(Ca,Na)_19_(Al,Mg,Fe^3+^)_13_(SiO_4_)_10_(Si_2_O_7_)_4_(OH,F,O)_10_
##LOCALITY=Jeffrey mine, Asbestos, Quebec, Canada
##OWNER=RRUFF
##SOURCE=Guy Ouellet
##DESCRIPTION=Violet prismatic crystals on diopside, R060171
##STATUS=The identification of this mineral is confirmed by single-crystal X-ray diffraction and chemical analysis.
##URL=rruff.info/R060170
##MEASURED CHEMISTRY=Ca_19.00_(Al_10.85_Mg_1.38_Mn_0.54_Fe^2+^_0.21_Cr_0.02_)_Σ=13_Si_18.00_O_68_((OH)_9.13_O_0.87_)_Σ=10_ ; B not measured.
92.02539, 1629.449
92.50751, 1612.049
92.98962, 1615.622
93.47174, 1628.504
93.95386, 1650.055
94.43597, 1668.181
94.91809, 1680.883
95.40021, 1689.954
95.88232, 1694.613
96.36444, 1693.920
96.84656, 1690.223
97.32867, 1684.972
97.81078, 1678.752
98.29290, 1671.903
98.77502, 1663.408
99.25713, 1650.359
99.73925, 1639.210
100.2214, 1630.686
100.7035, 1623.417
101.1856, 1616.512
101.6677, 1609.832
102.1498, 1603.991
102.6320, 1599.844
103.1141, 1598.034
103.5962, 1596.291
104.0783, 1594.070
104.5604, 1591.914
105.0425, 1590.461
105.5247, 1589.871
106.0068, 1589.847
106.4889, 1589.549
106.9710, 1588.821
107.4531, 1588.125
107.9352, 1587.625
108.4173, 1587.265
108.8995, 1586.860
109.3816, 1586.080
109.8637, 1585.348
110.3458, 1584.970
110.8279, 1584.883
111.3100, 1585.417
111.7922, 1587.344
112.2743, 1591.330
112.7564, 1594.470
113.2385, 1595.555
113.7206, 1595.691
114.2027, 1595.790
114.6849, 1596.280
115.1670, 1596.922
115.6491, 1596.843
116.1312, 1594.736
116.6133, 1593.404
117.0954, 1593.800
117.5776, 1595.179
118.0597, 1596.291
118.5418, 1596.164
119.0239, 1594.752
119.5060, 1594.969
119.9881, 1597.907
120.4703, 1601.056
120.9524, 1603.965
121.4345, 1606.335
121.9166, 1607.426
122.3987, 1606.178
122.8808, 1602.082
123.3630, 1599.557
123.8451, 1599.489
124.3272, 1600.517
124.8093, 1601.474
125.2914, 1602.203
125.7735, 1602.705
126.2557, 1602.812
126.7378, 1602.613
127.2199, 1602.527
127.7020, 1603.166
128.1841, 1604.120
128.6662, 1603.923
129.1483, 1601.511
129.6305, 1598.899
130.1126, 1597.591
130.5947, 1597.534
131.0768, 1598.009
131.5589, 1598.774
132.0410, 1600.003
132.5232, 1600.138
133.0053, 1597.796
133.4874, 1595.096
133.9695, 1592.769
134.4516, 1591.072
134.9337, 1590.258
135.4159, 1590.946
135.8980, 1594.601
136.3801, 1596.965
136.8622, 1597.303
137.3443, 1596.768
137.8264, 1596.039
138.3086, 1595.418
138.7907, 1595.137
139.2728, 1595.859
139.7549, 1599.868
140.2370, 1602.260
140.7191, 1602.109
141.2013, 1600.217
141.6834, 1597.576
142.1655, 1594.579
142.6476, 1591.435
143.1297, 1589.125
143.6118, 1588.204
144.0939, 1587.359
144.5761, 1585.689
145.0582, 1583.483
145.5403, 1582.109
146.0224, 1582.776
146.5045, 1584.826
146.9866, 1586.051
147.4688, 1585.929
147.9509, 1585.319
148.4330, 1585.190
148.9151, 1585.695
149.3972, 1585.706
149.8793, 1583.588
150.3615, 1580.720
150.8436, 1578.888
151.3257, 1579.214
151.8078, 1580.728
152.2899, 1581.115
152.7720, 1579.593
153.2542, 1578.290
153.7363, 1577.986
154.2184, 1578.422
154.7005, 1579.257
155.1826, 1580.377
155.6647, 1581.736
156.1469, 1582.854
156.6290, 1583.953
157.1111, 1584.511
157.5932, 1583.813
158.0753, 1582.416
158.5574, 1581.445
159.0396, 1581.896
159.5217, 1583.937
160.0038, 1585.905
160.4859, 1587.665
160.9680, 1589.485
161.4501, 1591.841
161.9323, 1594.511
162.4144, 1596.613
162.8965, 1597.088
163.3786, 1595.303
163.8607, 1594.704
164.3428, 1596.275
164.8250, 1598.246
165.3071, 1599.114
165.7892, 1598.699
166.2713, 1598.264
166.7534, 1599.547
167.2355, 1602.893
167.7177, 1605.413
168.1998, 1606.010
168.6819, 1605.910
169.1640, 1606.897
169.6461, 1609.563
170.1282, 1612.471
170.6104, 1613.679
171.0925, 1613.407
171.5746, 1613.037
172.0567, 1613.088
172.5388, 1613.448
173.0209, 1613.744
173.5031, 1613.725
173.9852, 1613.917
174.4673, 1614.857
174.9494, 1616.471
175.4315, 1618.092
175.9136, 1619.230
176.3958, 1619.901
176.8779, 1620.517
177.3600, 1621.208
177.8421, 1621.778
178.3242, 1622.012
178.8063, 1621.946
179.2885, 1621.896
179.7706, 1622.279
180.2527, 1623.271
180.7348, 1623.939
181.2169, 1623.967
181.6990, 1623.858
182.1812, 1623.814
182.6633, 1623.892
183.1454, 1624.084
183.6275, 1624.610
184.1096, 1626.560
184.5917, 1626.327
185.0738, 1622.249
185.5560, 1617.515
186.0381, 1614.687
186.5202, 1614.281
187.0023, 1614.609
187.4844, 1612.775
187.9665, 1606.983
188.4487, 1601.667
188.9308, 1596.536
189.4129, 1592.025
189.8950, 1588.932
190.3771, 1587.502
190.8592, 1586.644
191.3414, 1584.162
191.8235, 1579.035
192.3056, 1574.230
192.7877, 1569.696
193.2698, 1565.769
193.7519, 1563.162
194.2341, 1562.309
194.7162, 1562.200
195.1983, 1560.570
195.6804, 1557.004
196.1625, 1553.811
196.6446, 1551.905
197.1268, 1550.871
197.6089, 1549.762
198.0910, 1548.242
198.5731, 1546.548
199.0552, 1545.044
199.5373, 1543.722
200.0195, 1542.512
200.5016, 1541.362
200.9837, 1540.283
201.4658, 1539.295
201.9479, 1538.254
202.4300, 1537.506
202.9122, 1537.393
203.3943, 1537.955
203.8764, 1538.823
204.3585, 1539.984
204.8406, 1541.438
205.3227, 1542.187
205.8048, 1541.028
206.2870, 1539.801
206.7691, 1539.822
207.2512, 1541.235
207.7333, 1543.350
208.2154, 1545.662
208.6975, 1548.289
209.1797, 1550.398
209.6618, 1551.418
210.1439, 1552.151
210.6260, 1553.164
211.1081, 1554.496
211.5902, 1555.553
212.0724, 1555.343
212.5545, 1553.191
213.0366, 1551.825
213.5187, 1551.739
214.0008, 1552.193
214.4829, 1552.942
214.9651, 1553.854
215.4472, 1554.722
215.9293, 1555.322
216.4114, 1555.941
216.8935, 1555.564
217.3756, 1553.148
217.8578, 1550.643
218.3399, 1549.544
218.8220, 1550.108
219.3041, 1551.344
219.7862, 1551.730
220.2683, 1550.674
220.7505, 1549.867
221.2326, 1549.234
221.7147, 1548.861
222.1968, 1548.932
222.6789, 1549.448
223.1610, 1550.082
223.6432, 1550.291
224.1253, 1549.432
224.6074, 1549.592
225.0895, 1551.128
225.5716, 1553.456
226.0537, 1556.308
226.5358, 1559.584
227.0180, 1562.806
227.5001, 1565.341
227.9822, 1567.128
228.4643, 1568.203
228.9464, 1568.700
229.4285, 1568.417
229.9107, 1566.932
230.3928, 1564.133
230.8749, 1560.714
231.3570, 1557.431
231.8391, 1554.263
232.3212, 1551.458
232.8034, 1549.225
233.2855, 1547.331
233.7676, 1545.575
234.2497, 1543.965
234.7318, 1542.259
235.2139, 1540.019
235.6961, 1537.329
236.1782, 1534.853
236.6603, 1532.572
237.1424, 1530.665
237.6245, 1529.550
238.1066, 1529.467
238.5888, 1529.513
239.0709, 1528.739
239.5530, 1527.370
240.0351, 1526.050
240.5172, 1525.531
240.9993, 1525.081
241.4815, 1522.888
241.9636, 1517.993
242.4457, 1513.559
242.9278, 1512.720
243.4099, 1514.043
243.8920, 1514.627
244.3742, 1512.976
244.8563, 1509.804
245.3384, 1506.476
245.8205, 1502.531
246.3026, 1499.547
246.7847, 1498.641
247.2668, 1499.148
247.7490, 1500.167
248.2311, 1501.619
248.7132, 1503.165
249.1953, 1503.906
249.6774, 1503.488
250.1595, 1502.959
250.6417, 1502.454
251.1238, 1502.192
251.6059, 1502.537
252.0880, 1503.777
252.5701, 1505.574
253.0522, 1506.977
253.5344, 1507.364
254.0165, 1508.640
254.4986, 1512.251
254.9807, 1516.579
255.4628, 1519.706
255.9449, 1520.642
256.4271, 1520.492
256.9092, 1521.992
257.3913, 1526.353
257.8734, 1530.084
258.3555, 1533.117
258.8376, 1535.037
259.3198, 1535.394
259.8019, 1533.998
260.2840, 1531.174
260.7661, 1527.456
261.2482, 1522.223
261.7303, 1517.240
262.2125, 1513.031
262.6946, 1508.886
263.1767, 1504.115
263.6588, 1498.501
264.1409, 1492.572
264.6230, 1487.158
265.1052, 1482.199
265.5873, 1477.959
266.0694, 1474.618
266.5515, 1471.745
267.0336, 1469.327
267.5157, 1467.239
267.9979, 1464.954
268.4800, 1461.523
268.9621, 1455.821
269.4442, 1451.509
269.9263, 1449.444
270.4084, 1447.862
270.8906, 1445.428
271.3727, 1442.094
271.8548, 1438.964
272.3369, 1437.494
272.8190, 1438.439
273.3011, 1438.618
273.7833, 1437.746
274.2654, 1436.528
274.7475, 1435.225
275.2296, 1433.930
275.7117, 1432.705
276.1938, 1431.570
276.6760, 1430.455
277.1581, 1429.957
277.6402, 1430.884
278.1223, 1431.543
278.6044, 1430.620
279.0865, 1428.582
279.5686, 1427.129
280.0508, 1427.758
280.5329, 1430.526
281.0150, 1432.235
281.4971, 1432.039
281.9792, 1431.860
282.4613, 1432.762
282.9435, 1434.272
283.4256, 1435.093
283.9077, 1434.276
284.3898, 1432.083
284.8719, 1430.975
285.3540, 1431.811
285.8362, 1432.561
286.3183, 1432.463
286.8004, 1431.932
287.2825, 1431.746
287.7646, 1432.313
288.2467, 1433.474
288.7289, 1434.712
289.2110, 1436.101
289.6931, 1437.475
290.1752, 1439.279
290.6573, 1440.934
291.1394, 1441.498
291.6216, 1440.579
292.1037, 1438.753
292.5858, 1437.127
293.0679, 1435.720
293.5500, 1434.515
294.0321, 1433.718
294.5143, 1433.042
294.9964, 1432.182
295.4785, 1431.052
295.9606, 1429.731
296.4427, 1428.296
296.9248, 1426.663
297.4070, 1425.180
297.8891, 1424.072
298.3712, 1422.990
298.8533, 1421.624
299.3354, 1419.934
299.8175, 1418.042
300.2997, 1416.052
300.7818, 1413.942
301.2639, 1411.828
301.7460, 1409.310
302.2281, 1407.107
302.7102, 1405.839
303.1924, 1405.446
303.6745, 1405.284
304.1566, 1404.972
304.6387, 1404.458
305.1208, 1403.362
305.6029, 1400.681
306.0851, 1398.424
306.5672, 1397.778
307.0493, 1398.438
307.5314, 1399.471
308.0135, 1400.532
308.4956, 1401.414
308.9778, 1401.195
309.4599, 1399.247
309.9420, 1397.206
310.4241, 1395.185
310.9062, 1393.465
311.3883, 1392.889
311.8705, 1394.010
312.3526, 1395.811
312.8347, 1395.833
313.3168, 1393.136
313.7989, 1391.186
314.2810, 1391.019
314.7632, 1391.859
315.2453, 1392.736
315.7274, 1393.392
316.2095, 1394.014
316.6916, 1394.964
317.1737, 1396.471
317.6559, 1397.242
318.1380, 1396.675
318.6201, 1395.625
319.1022, 1394.636
319.5843, 1393.833
320.0664, 1393.664
320.5485, 1394.836
321.0306, 1397.474
321.5128, 1398.713
321.9949, 1397.300
322.4770, 1395.595
322.9591, 1395.331
323.4412, 1396.277
323.9233, 1396.918
324.4055, 1396.198
324.8876, 1394.299
325.3697, 1392.725
325.8518, 1391.414
326.3339, 1390.418
326.8160, 1389.984
327.2982, 1389.876
327.7803, 1389.542
328.2624, 1388.698
328.7445, 1387.560
329.2266, 1386.766
329.7087, 1386.973
330.1909, 1386.327
330.6730, 1383.718
331.1551, 1380.338
331.6372, 1377.819
332.1193, 1376.641
332.6014, 1376.020
333.0836, 1374.868
333.5657, 1373.074
334.0478, 1370.960
334.5299, 1367.944
335.0120, 1365.008
335.4941, 1363.220
335.9763, 1362.593
336.4584, 1361.950
336.9405, 1360.166
337.4226, 1357.103
337.9047, 1354.278
338.3868, 1351.910
338.8690, 1349.515
339.3511, 1346.724
339.8332, 1343.664
340.3153, 1340.826
340.7974, 1338.583
341.2795, 1336.781
341.7617, 1334.426
342.2438, 1330.356
342.7259, 1327.187
343.2080, 1326.217
343.6901, 1326.345
344.1722, 1325.940
344.6544, 1324.331
345.1365, 1321.964
345.6186, 1319.745
346.1007, 1317.595
346.5828, 1315.768
347.0649, 1314.081
347.5471, 1312.841
348.0292, 1312.350
348.5113, 1312.652
348.9934, 1313.597
349.4755, 1315.170
349.9576, 1317.856
350.4398, 1318.990
350.9219, 1317.698
351.4040, 1315.904
351.8861, 1314.103
352.3682, 1312.612
352.8503, 1311.974
353.3325, 1312.693
353.8146, 1314.660
354.2967, 1316.291
354.7788, 1318.069
355.2609, 1318.953
355.7430, 1317.666
356.2252, 1315.620
356.7073, 1314.929
357.1894, 1316.622
357.6715, 1319.718
358.1536, 1321.814
358.6357, 1322.920
359.1179, 1322.836
359.5999, 1320.073
360.0821, 1317.168
360.5642, 1316.491
361.0463, 1318.347
361.5284, 1321.005
362.0105, 1322.265
362.4926, 1321.661
362.9748, 1321.477
363.4569, 1322.760
363.9390, 1323.479
364.4211, 1322.527
364.9032, 1320.213
365.3853, 1317.498
365.8675, 1315.006
366.3496, 1312.765
366.8317, 1311.071
367.3138, 1310.260
367.7959, 1309.610
368.2780, 1308.738
368.7602, 1307.999
369.2423, 1308.084
369.7244, 1309.339
370.2065, 1310.834
370.6886, 1310.606
371.1707, 1307.945
371.6529, 1305.298
372.1350, 1302.888
372.6171, 1300.682
373.0992, 1298.487
373.5813, 1296.364
374.0634, 1294.730
374.5456, 1294.314
375.0277, 1295.204
375.5098, 1295.454
375.9919, 1294.877
376.4740, 1293.725
376.9561, 1291.916
377.4383, 1289.658
377.9204, 1287.403
378.4025, 1285.322
378.8846, 1283.453
379.3667, 1281.982
379.8488, 1281.130
380.3310, 1280.096
380.8131, 1278.473
381.2952, 1276.546
381.7773, 1274.636
382.2594, 1272.873
382.7415, 1270.902
383.2237, 1268.088
383.7058, 1264.434
384.1879, 1261.321
384.6700, 1258.986
385.1521, 1257.475
385.6342, 1256.920
386.1164, 1257.256
386.5985, 1257.610
387.0806, 1257.847
387.5627, 1257.723
388.0448, 1256.319
388.5269, 1253.117
389.0091, 1250.163
389.4912, 1249.297
389.9733, 1249.813
390.4554, 1250.267
390.9375, 1250.590
391.4196, 1250.552
391.9018, 1249.552
392.3839, 1247.745
392.8660, 1246.641
393.3481, 1247.067
393.8302, 1248.451
394.3123, 1249.690
394.7945, 1250.851
395.2766, 1251.696
395.7587, 1251.489
396.2408, 1251.058
396.7229, 1252.154
397.2050, 1255.315
397.6872, 1258.666
398.1693, 1260.021
398.6514, 1259.151
399.1335, 1258.755
399.6156, 1258.328
400.0977, 1258.900
400.5798, 1261.665
401.0620, 1266.256
401.5441, 1271.056
402.0262, 1275.088
402.5083, 1278.515
402.9904, 1282.055
403.4725, 1285.742
403.9547, 1289.483
404.4368, 1293.580
404.9189, 1297.606
405.4010, 1301.067
405.8831, 1303.789
406.3652, 1305.811
406.8474, 1307.171
407.3295, 1307.781
407.8116, 1307.852
408.2937, 1307.277
408.7758, 1306.335
409.2579, 1304.939
409.7401, 1303.280
410.2222, 1301.949
410.7043, 1301.529
411.1864, 1301.741
411.6685, 1300.093
412.1506, 1294.570
412.6328, 1289.585
413.1149, 1286.239
413.5970, 1283.552
414.0791, 1280.551
414.5612, 1276.878
415.0433, 1272.566
415.5255, 1267.391
416.0076, 1260.745
416.4897, 1255.270
416.9718, 1252.542
417.4539, 1249.837
417.9360, 1245.755
418.4182, 1240.488
418.9003, 1235.166
419.3824, 1230.568
419.8645, 1226.552
420.3466, 1222.237
420.8287, 1217.039
421.3109, 1212.829
421.7930, 1211.624
422.2751, 1211.238
422.7572, 1209.021
423.2393, 1204.000
423.7214, 1198.261
424.2036, 1194.131
424.6857, 1191.550
425.1678, 1188.738
425.6499, 1185.322
426.1320, 1181.540
426.6141, 1177.535
427.0963, 1173.351
427.5784, 1169.218
428.0605, 1164.919
428.5426, 1160.859
429.0247, 1157.745
429.5068, 1155.623
429.9890, 1154.076
430.4711, 1153.374
430.9532, 1152.913
431.4353, 1150.935
431.9174, 1146.621
432.3995, 1141.993
432.8817, 1137.575
433.3638, 1133.625
433.8459, 1130.852
434.3280, 1129.579
434.8101, 1128.929
435.2922, 1127.652
435.7744, 1125.456
436.2565, 1123.843
436.7386, 1123.234
437.2207, 1122.911
437.7028, 1122.729
438.1849, 1122.451
438.6671, 1121.353
439.1492, 1118.822
439.6313, 1115.199
440.1134, 1112.543
440.5955, 1111.610
441.0776, 1110.733
441.5598, 1109.523
442.0418, 1108.408
442.5240, 1108.088
443.0061, 1108.641
443.4882, 1109.205
443.9703, 1108.471
444.4524, 1105.914
444.9345, 1104.565
445.4167, 1105.793
445.8988, 1106.901
446.3809, 1107.251
446.8630, 1106.734
447.3451, 1105.153
447.8272, 1102.210
448.3094, 1098.599
448.7915, 1096.016
449.2736, 1094.526
449.7557, 1093.875
450.2378, 1094.941
450.7199, 1096.188
451.2021, 1096.328
451.6842, 1095.282
452.1663, 1094.292
452.6484, 1094.881
453.1305, 1096.475
453.6126, 1096.254
454.0948, 1093.356
454.5769, 1090.311
455.0590, 1089.152
455.5411, 1089.001
456.0232, 1088.278
456.5053, 1086.062
456.9875, 1083.995
457.4696, 1083.831
457.9517, 1085.140
458.4338, 1085.855
458.9159, 1085.132
459.3980, 1083.855
459.8802, 1083.518
460.3623, 1084.271
460.8444, 1084.331
461.3265, 1082.647
461.8086, 1080.633
462.2907, 1079.477
462.7729, 1079.234
463.2550, 1079.585
463.7371, 1080.460
464.2192, 1081.660
464.7013, 1082.038
465.1834, 1080.846
465.6656, 1079.847
466.1477, 1079.608
466.6298, 1079.524
467.1119, 1078.784
467.5940, 1077.274
468.0761, 1075.724
468.5583, 1075.037
469.0404, 1075.345
469.5225, 1075.635
470.0046, 1075.926
470.4867, 1076.180
470.9688, 1075.756
471.4510, 1075.423
471.9331, 1076.722
472.4152, 1080.558
472.8973, 1085.210
473.3794, 1087.106
473.8615, 1085.443
474.3437, 1084.432
474.8258, 1085.551
475.3079, 1086.973
475.7900, 1087.683
476.2721, 1087.661
476.7542, 1087.280
477.2364, 1086.602
477.7185, 1085.757
478.2006, 1084.994
478.6827, 1084.309
479.1648, 1083.804
479.6469, 1083.689
480.1291, 1083.728
480.6112, 1083.490
481.0933, 1082.890
481.5754, 1082.224
482.0575, 1081.708
482.5396, 1081.218
483.0217, 1080.494
483.5038, 1079.481
483.9860, 1078.377
484.4681, 1077.524
484.9502, 1076.917
485.4323, 1075.103
485.9144, 1070.792
486.3965, 1066.723
486.8787, 1064.015
487.3608, 1062.353
487.8429, 1061.176
488.3250, 1060.253
488.8071, 1059.483
489.2892, 1058.787
489.7714, 1058.640
490.2535, 1057.304
490.7356, 1053.463
491.2177, 1049.860
491.6998, 1048.120
492.1819, 1047.803
492.6641, 1047.633
493.1462, 1046.872
493.6283, 1045.578
494.1104, 1043.726
494.5925, 1040.822
495.0746, 1038.722
495.5568, 1038.750
496.0389, 1039.131
496.5210, 1038.631
497.0031, 1037.173
497.4852, 1035.469
497.9673, 1033.952
498.4495, 1032.577
498.9316, 1031.277
499.4137, 1030.092
499.8958, 1028.758
500.3779, 1026.818
500.8600, 1024.724
501.3422, 1023.466
501.8243, 1023.482
502.3064, 1023.467
502.7885, 1022.977
503.2706, 1021.963
503.7527, 1020.025
504.2349, 1017.063
504.7170, 1014.310
505.1991, 1013.147
505.6812, 1013.694
506.1633, 1013.220
506.6454, 1010.839
507.1276, 1008.544
507.6097, 1007.085
508.0918, 1006.181
508.5739, 1005.391
509.0560, 1004.545
509.5381, 1003.709
510.0203, 1002.961
510.5024, 1002.225
510.9845, 1001.844
511.4666, 1002.615
511.9487, 1002.947
512.4308, 1002.160
512.9130, 1000.473
513.3951, 998.2532
513.8772, 995.5208
514.3593, 992.8358
514.8414, 991.4004
515.3235, 991.4033
515.8057, 991.1676
516.2878, 990.3002
516.7699, 989.0579
517.2520, 987.5330
517.7341, 985.7892
518.2162, 984.2591
518.6984, 983.2488
519.1805, 982.4676
519.6626, 981.6298
520.1447, 980.7134
520.6268, 979.4777
521.1089, 977.6157
521.5911, 975.5907
522.0732, 974.7074
522.5553, 975.6205
523.0374, 975.5780
523.5195, 973.4648
524.0016, 970.6751
524.4838, 968.2760
524.9659, 966.4026
525.4480, 964.8305
525.9301, 963.4180
526.4122, 962.1730
526.8943, 961.1169
527.3765, 960.5869
527.8586, 959.7689
528.3407, 958.3030
528.8228, 956.7375
529.3049, 955.4368
529.7870, 954.4886
530.2692, 953.9023
530.7513, 953.8640
531.2334, 954.2188
531.7155, 953.9482
532.1976, 952.7291
532.6797, 951.6469
533.1619, 951.4850
533.6440, 951.5389
534.1261, 951.0957
534.6082, 950.0301
535.0903, 948.6511
535.5724, 946.8669
536.0546, 944.9679
536.5367, 943.5624
537.0188, 942.7332
537.5009, 942.3089
537.9830, 942.4153
538.4651, 942.8179
538.9473, 942.2912
539.4294, 939.8448
539.9115, 937.7933
540.3936, 937.1992
540.8757, 937.1450
541.3578, 936.3060
541.8400, 934.5219
542.3221, 932.8572
542.8042, 932.4273
543.2863, 933.2496
543.7684, 934.2652
544.2505, 937.0439
544.7326, 938.0311
545.2147, 935.1748
545.6968, 930.8972
546.1790, 927.6696
546.6611, 926.1590
547.1432, 925.7490
547.6253, 926.5344
548.1074, 928.2726
548.5895, 927.7740
549.0717, 923.8422
549.5538, 919.9958
550.0359, 918.4227
550.5180, 918.2631
551.0001, 918.4570
551.4822, 919.0792
551.9644, 919.4373
552.4465, 918.8499
552.9286, 917.7326
553.4107, 916.9818
553.8928, 916.7753
554.3749, 916.6379
554.8571, 916.1286
555.3392, 915.2560
555.8213, 914.5479
556.3034, 914.2737
556.7855, 913.8080
557.2676, 912.9509
557.7498, 911.8292
558.2319, 910.4911
558.7140, 909.0009
559.1961, 907.6453
559.6782, 906.7709
560.1603, 906.3900
560.6425, 905.9328
561.1246, 905.6230
561.6067, 904.8876
562.0888, 903.2536
562.5709, 901.3058
563.0530, 899.6719
563.5352, 898.5081
564.0173, 897.6056
564.4994, 896.7906
564.9815, 896.0956
565.4636, 895.7648
565.9457, 895.9464
566.4279, 895.7542
566.9100, 894.0186
567.3921, 891.5576
567.8742, 891.2240
568.3563, 894.7686
568.8384, 897.5067
569.3206, 897.4851
569.8027, 895.9746
570.2848, 894.2336
570.7669, 892.5932
571.2490, 891.2474
571.7311, 890.4557
572.2133, 890.1231
572.6954, 889.2170
573.1775, 886.5350
573.6596, 884.9638
574.1417, 885.5355
574.6238, 886.8632
575.1060, 887.8950
575.5881, 888.4315
576.0702, 888.6669
576.5523, 888.6390
577.0344, 888.4525
577.5165, 888.4536
577.9987, 888.6164
578.4808, 889.1285
578.9629, 890.5160
579.4450, 891.9869
579.9271, 892.2477
580.4092, 891.0410
580.8914, 890.3336
581.3735, 891.1545
581.8556, 892.6672
582.3377, 894.1667
582.8198, 895.5159
583.3019, 896.4525
583.7841, 896.7751
584.2662, 896.6986
584.7483, 896.8083
585.2304, 897.0216
585.7125, 897.5842
586.1946, 899.2198
586.6768, 900.5449
587.1589, 900.4465
587.6410, 899.2950
588.1231, 898.1444
588.6052, 897.5306
589.0873, 897.4908
589.5695, 898.2938
590.0516, 900.0947
590.5337, 901.6122
591.0158, 902.4491
591.4979, 903.1161
591.9800, 904.4435
592.4622, 906.0822
592.9443, 906.5293
593.4264, 904.4906
593.9085, 901.8533
594.3906, 900.0632
594.8727, 898.9281
595.3549, 898.0042
595.8370, 897.1827
596.3191, 896.2010
596.8012, 894.6257
597.2833, 892.2581
597.7654, 890.7330
598.2476, 891.1136
598.7297, 890.9827
599.2118, 889.3718
599.6939, 886.9115
600.1760, 884.2870
600.6581, 881.7469
601.1403, 879.4689
601.6224, 877.8295
602.1045, 876.7743
602.5866, 875.0609
603.0687, 872.1658
603.5508, 869.7779
604.0330, 869.1860
604.5151, 869.4001
604.9972, 869.2795
605.4793, 868.6896
605.9614, 867.8231
606.4435, 866.5972
606.9257, 865.2334
607.4078, 863.9382
607.8899, 862.7745
608.3720, 858.8461
608.8541, 859.2549
609.3362, 859.2770
609.8184, 858.9329
610.3005, 857.1268
610.7826, 857.2088
611.2647, 856.5341
611.7468, 855.8283
612.2289, 856.1761
612.7111, 854.5825
613.1932, 854.9135
613.6753, 854.4763
614.1574, 854.3906
614.6395, 853.5436
615.1216, 852.9318
615.6038, 853.0814
616.0859, 852.8095
616.5680, 851.8748
617.0501, 851.8115
617.5322, 852.7852
618.0143, 851.6788
618.4965, 849.4208
618.9786, 847.5764
619.4607, 847.5040
619.9428, 848.3980
620.4249, 848.7875
620.9070, 848.3170
621.3892, 847.4413
621.8713, 846.5603
622.3534, 845.6767
622.8355, 845.1348
623.3176, 845.2150
623.7997, 845.3004
624.2819, 845.4005
624.7640, 845.4089
625.2461, 845.1758
625.7282, 844.7217
626.2103, 844.2762
626.6924, 843.9949
627.1745, 843.8589
627.6566, 843.7881
628.1387, 843.7713
628.6208, 843.9638
629.1030, 844.3038
629.5851, 845.0212
630.0672, 846.8984
630.5493, 850.0748
631.0314, 852.0180
631.5135, 851.0222
631.9957, 849.9608
632.4778, 850.8260
632.9599, 852.9839
633.4420, 854.9698
633.9241, 856.2203
634.4063, 857.2226
634.8884, 858.7332
635.3705, 860.8846
635.8526, 862.4237
636.3347, 862.7665
636.8168, 863.2967
637.2990, 864.7278
637.7811, 866.4734
638.2632, 868.0836
638.7453, 869.5097
639.2274, 869.8734
639.7095, 868.0042
640.1917, 864.8821
640.6738, 862.0555
641.1559, 859.6630
641.6380, 857.8173
642.1201, 856.7444
642.6022, 855.9820
643.0844, 854.4473
643.5665, 851.7050
644.0486, 849.0629
644.5307, 846.3821
645.0128, 843.9423
645.4949, 842.1287
645.9771, 840.6231
646.4592, 838.7642
646.9413, 836.2610
647.4234, 833.5097
647.9055, 831.1242
648.3876, 829.0919
648.8698, 826.7384
649.3519, 823.7375
649.8340, 821.0582
650.3161, 819.5279
650.7982, 818.6812
651.2803, 817.6719
651.7625, 816.5048
652.2446, 815.0125
652.7267, 813.3287
653.2088, 811.1658
653.6909, 807.5662
654.1730, 802.9840
654.6552, 799.6213
655.1373, 798.9329
655.6194, 799.7978
656.1015, 799.3246
656.5836, 797.1550
657.0657, 794.5786
657.5479, 790.4157
658.0300, 787.0684
658.5121, 786.0403
658.9942, 786.5199
659.4763, 786.8806
659.9584, 786.5975
660.4406, 786.0190
660.9227, 785.3525
661.4048, 784.6425
661.8869, 784.0963
662.3690, 783.7512
662.8511, 783.0696
663.3333, 781.4865
663.8154, 779.3708
664.2975, 778.2888
664.7796, 779.5078
665.2617, 779.9836
665.7438, 778.7079
666.2260, 777.4911
666.7081, 778.1429
667.1902, 779.8943
667.6723, 780.4637
668.1544, 778.5306
668.6365, 775.5247
669.1187, 773.5375
669.6008, 772.5457
670.0829, 772.0886
670.5650, 772.3361
671.0471, 772.4921
671.5292, 771.7658
672.0114, 770.4864
672.4935, 769.8795
672.9756, 770.4353
673.4577, 770.8267
673.9398, 770.5522
674.4219, 770.0068
674.9041, 769.6695
675.3862, 769.4584
675.8683, 768.7872
676.3504, 767.2180
676.8325, 765.3313
677.3146, 764.5418
677.7968, 765.0367
678.2789, 765.7419
678.7610, 766.7224
679.2431, 767.6893
679.7252, 768.2657
680.2073, 768.7393
680.6895, 769.7613
681.1716, 771.7078
681.6537, 773.6116
682.1358, 774.7454
682.6179, 775.5779
683.1000, 776.8187
683.5822, 778.5002
684.0643, 780.1736
684.5464, 781.4979
685.0285, 782.7796
685.5106, 784.9764
685.9927, 788.6150
686.4749, 791.9191
686.9570, 794.5290
687.4391, 797.0720
687.9212, 799.6950
688.4033, 802.4718
688.8854, 805.6570
689.3676, 809.4898
689.8497, 813.0010
690.3318, 815.1552
690.8139, 816.4427
691.2960, 818.0266
691.7781, 820.0070
692.2603, 821.4982
692.7424, 822.0225
693.2245, 821.6176
693.7066, 820.3574
694.1887, 817.9214
694.6708, 815.2146
695.1530, 812.8145
695.6351, 809.5869
696.1172, 804.5200
696.5993, 798.3558
697.0814, 792.3762
697.5635, 787.0273
698.0457, 781.8839
698.5278, 776.0194
699.0099, 770.0164
699.4920, 766.1637
699.9741, 764.7976
700.4562, 762.7677
700.9384, 758.0845
701.4205, 752.1833
701.9026, 748.2482
702.3847, 747.5197
702.8668, 745.4625
703.3489, 740.7936
703.8311, 736.0659
704.3132, 732.2659
704.7953, 729.3542
705.2774, 727.2266
705.7595, 725.8217
706.2416, 724.6568
706.7238, 723.2214
707.2059, 721.6032
707.6880, 720.1680
708.1701, 718.9246
708.6522, 717.8475
709.1343, 716.9316
709.6164, 716.1573
710.0985, 715.5524
710.5806, 715.1647
711.0627, 714.5649
711.5449, 713.9800
712.0270, 712.8881
712.5091, 710.5754
712.9912, 707.8109
713.4733, 705.5001
713.9554, 703.9227
714.4376, 703.1523
714.9197, 703.5536
715.4018, 704.7180
715.8839, 705.1007
716.3660, 704.6904
716.8481, 703.5174
717.3303, 701.1906
717.8124, 698.6631
718.2945, 697.1000
718.7766, 696.4293
719.2587, 695.5888
719.7408, 694.1030
720.2230, 692.8975
720.7051, 692.7237
721.1872, 692.8073
721.6693, 692.0853
722.1514, 690.5482
722.6335, 689.0690
723.1157, 688.2654
723.5978, 688.0574
724.0799, 688.5858
724.5620, 690.0477
725.0441, 690.0565
725.5262, 687.4099
726.0084, 684.5525
726.4905, 683.5964
726.9726, 684.1151
727.4547, 684.4892
727.9368, 684.8486
728.4189, 684.7296
728.9011, 683.6053
729.3832, 682.2291
729.8653, 681.3761
730.3474, 680.9673
730.8295, 680.2558
731.3116, 678.7394
731.7938, 677.4820
732.2759, 677.8433
732.7580, 679.1117
733.2401, 679.6663
733.7222, 679.5453
734.2043, 676.7256
734.6865, 677.3907
735.1686, 676.6593
735.6507, 675.8707
736.1328, 677.0263
736.6149, 674.5991
737.0970, 675.7240
737.5792, 675.4308
738.0613, 675.7868
738.5434, 674.7375
739.0255, 674.1222
739.5076, 673.9581
739.9897, 673.7790
740.4719, 673.2299
740.9540, 672.3619
741.4361, 671.5029
741.9182, 670.6266
742.4003, 669.9039
742.8824, 669.4149
743.3646, 669.0918
743.8467, 668.8763
744.3288, 668.7677
744.8109, 668.6726
745.2930, 668.6266
745.7751, 668.5455
746.2573, 668.2823
746.7394, 668.0323
747.2215, 668.1918
747.7036, 668.6887
748.1857, 668.8894
748.6678, 668.2563
749.1500, 667.1249
749.6321, 666.2449
750.1142, 665.6168
750.5963, 664.8315
751.0784, 663.6673
751.5605, 662.7595
752.0427, 662.6879
752.5248, 663.3206
753.0069, 663.8963
753.4890, 664.4991
753.9711, 664.9192
754.4532, 665.4231
754.9354, 665.4756
755.4175, 664.1030
755.8996, 662.0485
756.3817, 661.2022
756.8638, 662.4445
757.3459, 663.7995
757.8281, 662.4874
758.3102, 659.2968
758.7923, 657.3303
759.2744, 656.8191
759.7565, 656.5724
760.2386, 656.0286
760.7208, 655.4230
761.2029, 655.2161
761.6850, 655.6234
762.1671, 655.5392
762.6492, 654.6854
763.1313, 653.7187
763.6135, 652.7960
764.0956, 651.9010
764.5777, 650.8564
765.0598, 649.7274
765.5419, 649.0226
766.0240, 649.2794
766.5062, 649.9619
766.9883, 650.5582
767.4704, 650.9533
767.9525, 650.5715
768.4346, 649.2595
768.9167, 647.5350
769.3989, 645.7766
769.8810, 644.0424
770.3631, 642.7649
770.8452, 641.9047
771.3273, 641.5773
771.8094, 642.2612
772.2916, 642.9908
772.7737, 643.4110
773.2558, 643.4605
773.7379, 643.0413
774.2200, 642.0599
774.7021, 640.8998
775.1843, 639.4644
775.6664, 638.2073
776.1485, 637.9742
776.6306, 638.5656
777.1127, 639.1019
777.5948, 639.2043
778.0770, 638.6746
778.5591, 636.8653
779.0412, 633.6116
779.5233, 632.7715
780.0054, 635.8811
780.4875, 638.1722
780.9697, 637.5119
781.4518, 635.7825
781.9339, 634.7467
782.4160, 634.3713
782.8981, 633.9537
783.3802, 633.1019
783.8624, 632.4245
784.3445, 632.3012
784.8266, 632.4905
785.3087, 632.8782
785.7908, 633.3000
786.2729, 633.2054
786.7551, 632.1160
787.2372, 630.7569
787.7193, 630.7770
788.2014, 632.1557
788.6835, 633.2831
789.1656, 634.1252
789.6478, 634.1404
790.1299, 632.5526
790.6120, 630.1857
791.0941, 629.1221
791.5762, 629.8893
792.0583, 630.2961
792.5404, 629.9145
793.0225, 629.4935
793.5046, 629.2237
793.9868, 629.2043
794.4689, 629.7525
794.9510, 630.8195
795.4331, 631.5382
795.9152, 631.0413
796.3973, 629.9449
796.8795, 629.4567
797.3616, 629.3441
797.8437, 628.2327
798.3258, 625.7270
798.8079, 623.4221
799.2900, 622.8157
799.7722, 623.5527
800.2543, 623.6481
800.7364, 622.5953
801.2185, 621.9325
801.7006, 621.7115
802.1827, 621.9818
802.6649, 623.5344
803.1470, 625.3969
803.6291, 625.5640
804.1112, 623.2770
804.5933, 621.2990
805.0754, 621.1685
805.5576, 621.8951
806.0397, 622.8741
806.5218, 623.8318
807.0039, 624.2773
807.4860, 624.0572
807.9681, 623.5195
808.4503, 623.0416
808.9324, 622.5825
809.4145, 621.7662
809.8966, 620.4179
810.3787, 619.8094
810.8608, 620.4218
811.3430, 621.5803
811.8251, 623.1199
812.3072, 624.7847
812.7893, 624.9627
813.2714, 622.5643
813.7535, 620.3260
814.2357, 618.2083
814.7178, 616.7562
815.1999, 616.7158
815.6820, 617.5697
816.1641, 618.3158
816.6462, 618.6077
817.1284, 618.6761
817.6105, 618.5436
818.0926, 618.4084
818.5747, 618.8568
819.0568, 619.7546
819.5389, 620.1160
820.0211, 619.5715
820.5032, 618.7722
820.9853, 618.4545
821.4674, 618.5883
821.9495, 618.7283
822.4316, 618.8997
822.9138, 619.0174
823.3959, 619.0814
823.8780, 619.0651
824.3601, 618.9560
824.8422, 618.7545
825.3243, 618.4410
825.8065, 617.9194
826.2886, 617.5181
826.7707, 617.0373
827.2528, 617.0045
827.7349, 618.4809
828.2170, 620.6791
828.6992, 621.7692
829.1813, 621.1543
829.6634, 619.9738
830.1455, 619.2059
830.6276, 618.9075
831.1097, 619.5026
831.5919, 620.9669
832.0740, 622.0739
832.5561, 622.4614
833.0382, 622.4170
833.5203, 622.1223
834.0024, 621.6358
834.4846, 621.4103
834.9667, 621.4604
835.4488, 621.7498
835.9309, 622.3488
836.4130, 623.0823
836.8951, 623.9511
837.3773, 624.8640
837.8594, 625.6612
838.3415, 626.2930
838.8236, 626.9480
839.3057, 627.6889
839.7878, 628.5370
840.2700, 629.5537
840.7521, 630.6910
841.2342, 632.0043
841.7163, 633.4272
842.1984, 634.3664
842.6805, 634.0593
843.1627, 633.1442
843.6448, 633.8068
844.1269, 636.1096
844.6090, 637.5974
845.0911, 637.6495
845.5732, 637.5188
846.0554, 637.9877
846.5375, 638.9446
847.0196, 640.0383
847.5017, 640.9227
847.9838, 642.7606
848.4659, 646.5638
848.9481, 650.1093
849.4302, 652.4615
849.9123, 654.1510
850.3944, 655.7379
850.8765, 657.3400
851.3586, 659.0583
851.8408, 661.1223
852.3229, 663.1521
852.8050, 664.6252
853.2871, 665.9343
853.7692, 667.8474
854.2513, 670.3643
854.7335, 672.9431
855.2156, 675.2455
855.6977, 677.2343
856.1798, 678.8689
856.6619, 680.1461
857.1440, 680.6498
857.6262, 680.1456
858.1083, 680.0313
858.5904, 681.0783
859.0725, 682.5519
859.5546, 683.4736
860.0367, 683.8141
860.5189, 683.9454
861.0010, 683.7465
861.4831, 683.5208
861.9652, 683.5985
862.4473, 683.4270
862.9294, 682.2693
863.4116, 680.5293
863.8937, 679.4774
864.3758, 679.7875
864.8579, 679.8196
865.3400, 678.0558
865.8221, 675.8384
866.3043, 674.7277
866.7864, 674.4890
867.2685, 674.2562
867.7506, 673.7299
868.2327, 673.1786
868.7148, 672.9056
869.1970, 672.8115
869.6791, 672.4325
870.1612, 671.7670
870.6433, 671.9049
871.1254, 673.3634
871.6075, 674.2032
872.0897, 672.6520
872.5718, 669.6110
873.0539, 668.0441
873.5360, 668.7179
874.0181, 669.1109
874.5002, 669.5471
874.9823, 669.3088
875.4644, 667.3485
875.9465, 665.0837
876.4286, 664.4583
876.9108, 665.5039
877.3929, 665.7472
877.8750, 663.7927
878.3571, 661.4789
878.8392, 659.3685
879.3214, 657.7565
879.8035, 657.2209
880.2856, 657.5270
880.7677, 657.9003
881.2498, 657.9880
881.7319, 657.5960
882.2141, 656.2213
882.6962, 654.2092
883.1783, 652.5753
883.6604, 651.3478
884.1425, 650.5066
884.6246, 650.1173
885.1068, 649.3681
885.5889, 647.2391
886.0710, 643.9748
886.5531, 641.5602
887.0352, 640.2462
887.5173, 639.0643
887.9995, 638.0391
888.4816, 636.9069
888.9637, 635.2721
889.4458, 633.4764
889.9279, 632.3720
890.4100, 632.3759
890.8922, 631.4025
891.3743, 627.9647
891.8564, 624.8680
892.3385, 623.5602
892.8206, 623.1689
893.3027, 622.6686
893.7849, 621.9927
894.2670, 621.7708
894.7491, 622.7164
895.2312, 623.3512
895.7133, 622.0072
896.1954, 619.6112
896.6776, 617.4267
897.1597, 615.6633
897.6418, 614.4807
898.1239, 613.9444
898.6060, 613.6194
899.0881, 612.9669
899.5703, 612.0579
900.0524, 611.2708
900.5345, 610.6183
901.0166, 609.7716
901.4987, 608.5055
901.9808, 607.6568
902.4630, 608.0988
902.9451, 609.3300
903.4272, 609.5338
903.9093, 608.0117
904.3914, 607.0829
904.8735, 607.0937
905.3557, 607.2739
905.8378, 607.2293
906.3199, 607.2948
906.8020, 607.8953
907.2841, 609.0217
907.7662, 610.2062
908.2484, 611.8508
908.7305, 612.8729
909.2126, 611.4584
909.6947, 610.3221
910.1768, 612.6668
910.6589, 617.3796
911.1411, 621.4310
911.6232, 623.6922
912.1053, 624.6488
912.5874, 623.8304
913.0695, 622.5336
913.5516, 622.7859
914.0338, 624.3016
914.5159, 626.1613
914.9980, 628.1069
915.4801, 630.1328
915.9622, 632.2714
916.4443, 634.4098
916.9265, 636.2508
917.4086, 637.7991
917.8907, 639.4482
918.3728, 641.1790
918.8549, 643.4377
919.3370, 646.6145
919.8192, 650.0338
920.3013, 652.6699
920.7834, 654.5059
921.2655, 657.1295
921.7476, 661.4347
922.2297, 664.9824
922.7119, 666.6558
923.1940, 668.2582
923.6761, 670.8190
924.1582, 674.0328
924.6403, 677.3171
925.1224, 680.6855
925.6046, 683.7621
926.0867, 686.1823
926.5688, 688.5826
927.0509, 691.7592
927.5330, 694.7973
928.0151, 696.5826
928.4973, 697.0997
928.9794, 697.0052
929.4615, 696.4759
929.9436, 695.8345
930.4257, 695.6521
930.9078, 695.3546
931.3900, 693.7945
931.8721, 691.3339
932.3542, 689.5679
932.8363, 688.9328
933.3184, 687.8111
933.8005, 684.5311
934.2827, 679.6733
934.7648, 674.3834
935.2469, 668.7987
935.7290, 664.3553
936.2111, 661.3627
936.6932, 658.2589
937.1754, 654.0725
937.6575, 649.4128
938.1396, 645.1917
938.6217, 641.2798
939.1038, 639.8821
939.5859, 642.9651
940.0681, 643.1060
940.5502, 636.7145
941.0323, 629.1588
941.5144, 624.8241
941.9965, 623.0753
942.4786, 621.2296
942.9608, 619.1192
943.4429, 617.2519
943.9250, 616.4843
944.4071, 614.9820
944.8892, 611.1957
945.3713, 606.8082
945.8535, 603.6109
946.3356, 601.7394
946.8177, 600.6182
947.2998, 600.5997
947.7819, 600.4580
948.2640, 599.3109
948.7462, 598.0287
949.2283, 597.4797
949.7104, 597.4414
950.1925, 597.3322
950.6746, 596.9695
951.1567, 596.4740
951.6389, 596.0206
952.1210, 595.4111
952.6031, 594.4231
953.0852, 593.0683
953.5673, 590.8473
954.0494, 588.0989
954.5316, 586.8877
955.0137, 588.3715
955.4958, 590.7396
955.9779, 591.3106
956.4600, 590.4680
956.9421, 590.0748
957.4242, 590.1218
957.9063, 590.2731
958.3884, 590.4308
958.8705, 590.8580
959.3527, 591.8693
959.8348, 593.0899
960.3169, 593.2813
960.7990, 592.1535
961.2811, 591.6378
961.7632, 592.1003
962.2454, 592.2025
962.7275, 591.2159
963.2096, 590.0203
963.6917, 589.7560
964.1738, 590.2726
964.6559, 589.8283
965.1381, 587.3854
965.6202, 585.6765
966.1023, 585.4846
966.5844, 585.2322
967.0665, 584.3400
967.5486, 582.9345
968.0308, 580.9451
968.5129, 578.3975
968.9950, 576.5640
969.4771, 576.3478
969.9592, 576.0321
970.4413, 574.9539
970.9235, 573.6271
971.4056, 572.6020
971.8877, 571.6198
972.3698, 569.9418
972.8519, 567.3680
973.3340, 565.0833
973.8162, 563.8981
974.2983, 563.1188
974.7804, 562.1566
975.2625, 561.2625
975.7446, 560.9729
976.2267, 561.1358
976.7089, 561.0433
977.1910, 560.3599
977.6731, 559.4728
978.1552, 558.4406
978.6373, 557.6733
979.1194, 558.3674
979.6016, 559.9182
980.0837, 560.3837
980.5658, 559.4046
981.0479, 557.8171
981.5300, 556.1593
982.0121, 554.4300
982.4943, 552.3964
982.9764, 550.2637
983.4585, 549.3038
983.9406, 549.5286
984.4227, 550.2528
984.9048, 551.3629
985.3870, 551.5037
985.8691, 549.2038
986.3512, 545.4174
986.8333, 543.3530
987.3154, 543.2460
987.7975, 542.9777
988.2797, 542.4547
988.7618, 541.7268
989.2439, 540.8168
989.7260, 539.6816
990.2081, 538.1342
990.6902, 536.2911
991.1724, 535.2426
991.6545, 535.4305
992.1366, 535.4035
992.6187, 535.1192
993.1008, 534.5323
993.5829, 533.3842
994.0651, 532.0851
994.5472, 531.1273
995.0293, 530.5081
995.5114, 530.3405
995.9935, 531.0460
996.4756, 531.5797
996.9578, 532.0455
997.4399, 532.0490
997.9220, 531.0148
998.4041, 529.5337
998.8862, 528.4324
999.3683, 527.8082
999.8505, 527.6882
1000.333, 528.6324
1000.815, 529.3629
1001.297, 529.1710
1001.779, 528.7944
1002.261, 528.9280
1002.743, 529.3364
1003.225, 529.4345
1003.707, 529.0778
1004.190, 528.6415
1004.672, 528.1649
1005.154, 527.8395
1005.636, 527.5344
1006.118, 527.6282
1006.600, 529.1196
1007.082, 531.3523
1007.564, 532.3375
1008.046, 531.3354
1008.529, 530.1122
1009.011, 529.8051
1009.493, 530.2013
1009.975, 531.5773
1010.457, 533.2617
1010.939, 533.9308
1011.421, 533.6519
1011.903, 533.5318
1012.385, 534.1136
1012.868, 534.8669
1013.350, 535.2330
1013.832, 535.3675
1014.314, 535.7775
1014.796, 536.1859
1015.278, 535.6102
1015.760, 534.0021
1016.242, 532.2802
1016.725, 530.9799
1017.207, 529.8787
1017.689, 528.5292
1018.171, 527.1215
1018.653, 526.4427
1019.135, 526.4123
1019.617, 526.4407
1020.099, 526.3940
1020.581, 526.4197
1021.064, 526.6385
1021.546, 526.8735
1022.028, 526.7379
1022.510, 526.2746
1022.992, 526.0390
1023.474, 526.0400
1023.956, 525.8846
1024.438, 525.4635
1024.921, 524.9342
1025.403, 524.3626
1025.885, 523.9032
1026.367, 524.0605
1026.849, 524.9136
1027.331, 524.9623
1027.813, 524.0106
1028.295, 523.4048
1028.777, 523.5992
1029.260, 523.8801
1029.742, 523.5933
1030.224, 523.0706
1030.706, 523.3417
1031.188, 524.6644
1031.670, 525.3795
1032.152, 525.3321
1032.634, 525.1265
1033.116, 524.8846
1033.599, 524.6055
1034.081, 524.1879
1034.563, 523.7888
1035.045, 523.8831
1035.527, 524.4571
1036.009, 525.6433
1036.491, 527.9896
1036.973, 529.9029
1037.456, 530.8779
1037.938, 531.3445
1038.420, 531.6395
1038.902, 531.7122
1039.384, 531.3210
1039.866, 530.0866
1040.348, 529.4739
1040.830, 529.8923
1041.313, 530.3533
1041.795, 530.6733
1042.277, 530.8829
1042.759, 531.0991
1043.241, 531.2216
1043.723, 530.8397
1044.205, 529.4893
1044.687, 528.9144
1045.169, 530.7449
1045.651, 531.2997
1046.134, 528.3785
1046.616, 524.8022
1047.098, 522.8769
1047.580, 522.1849
1048.062, 521.2668
1048.544, 519.9154
1049.026, 518.6395
1049.508, 517.4776
1049.991, 516.4410
1050.473, 515.6927
1050.955, 514.9331
1051.437, 513.8777
1051.919, 512.6115
1052.401, 511.3716
1052.883, 510.2065
1053.365, 509.0445
1053.848, 507.7509
1054.330, 506.6182
1054.812, 505.8287
1055.294, 505.1865
1055.776, 504.4557
1056.258, 503.7427
1056.740, 503.4386
1057.222, 503.7267
1057.704, 503.6254
1058.187, 502.3443
1058.669, 501.2654
1059.151, 501.2969
1059.633, 501.4936
1060.115, 500.7533
1060.597, 499.5686
1061.079, 499.3362
1061.561, 500.4565
1062.043, 501.0253
1062.526, 499.7848
1063.008, 498.6382
1063.490, 498.7033
1063.972, 499.0023
1064.454, 498.2995
1064.936, 497.2632
1065.418, 497.6753
1065.900, 499.9259
1066.383, 501.3954
1066.865, 500.5169
1067.347, 499.3491
1067.829, 498.5736
1068.311, 498.1677
1068.793, 498.4392
1069.275, 498.9287
1069.757, 498.7892
1070.240, 497.8733
1070.722, 496.8371
1071.204, 495.7556
1071.686, 494.8670
1072.168, 494.3462
1072.650, 493.9960
1073.132, 493.7506
1073.614, 493.5063
1074.096, 492.9814
1074.578, 492.2057
1075.061, 491.8725
1075.543, 492.4991
1076.025, 493.2499
1076.507, 493.8870
1076.989, 494.3246
1077.471, 494.5319
1077.953, 494.4740
1078.435, 493.9292
1078.918, 493.0026
1079.400, 492.4638
1079.882, 492.9046
1080.364, 493.1326
1080.846, 492.1803
1081.328, 491.2288
1081.810, 491.2612
1082.292, 491.7590
1082.774, 492.0840
1083.257, 492.1158
1083.739, 491.7988
1084.221, 490.8530
1084.703, 490.3626
1085.185, 491.3777
1085.667, 492.4025
1086.149, 492.3352
1086.631, 491.8060
1087.114, 491.4832
1087.596, 491.4465
1088.078, 491.6304
1088.560, 492.0782
1089.042, 492.4285
1089.524, 492.4216
1090.006, 492.4059
1090.488, 492.6832
1090.970, 492.9634
1091.453, 492.9656
1091.935, 492.7088
1092.417, 492.2633
1092.899, 491.6125
1093.381, 491.1200
1093.863, 491.1198
1094.345, 491.0501
1094.827, 490.4849
1095.309, 489.8976
1095.792, 489.9677
1096.274, 490.2248
1096.756, 489.5335
1097.238, 487.7123
1097.720, 486.4345
1098.202, 486.5038
1098.684, 486.8062
1099.166, 487.0144
1099.649, 487.2793
1100.131, 488.0151
1100.613, 488.7145
1101.095, 488.3268
1101.577, 486.9171
1102.059, 486.3576
1102.541, 487.7683
1103.023, 488.9591
1103.505, 489.2287
1103.988, 489.3657
1104.470, 490.1973
1104.952, 490.8332
1105.434, 489.8903
1105.916, 487.6919
1106.398, 486.1847
1106.880, 485.7654
1107.362, 485.7892
1107.844, 486.4487
1108.327, 487.1575
1108.809, 487.9172
1109.291, 488.4510
1109.773, 488.0507
1110.255, 486.6739
1110.737, 488.5774
1111.219, 489.7671
1111.701, 490.2812
1112.184, 488.0971
1112.666, 489.3974
1113.148, 489.3011
1113.630, 487.8376
1114.112, 489.4020
1114.594, 490.2524
1115.076, 490.4274
1115.558, 487.9035
1116.041, 488.8644
1116.523, 488.4289
1117.005, 487.9361
1117.487, 489.3876
1117.969, 487.2563
1118.451, 488.6770
1118.933, 488.6798
1119.415, 489.3315
1119.897, 488.5781
1120.380, 487.6429
1120.862, 489.0853
1121.344, 489.8138
1121.826, 489.8668
1122.308, 487.2210
1122.790, 488.0601
1123.272, 487.5026
1123.754, 486.8878
1124.236, 488.2174
1124.719, 485.9638
1125.201, 487.2625
1125.683, 487.1433
1126.165, 487.6731
1126.647, 485.3968
1127.129, 485.6412
1127.611, 486.0726
1128.093, 486.1850
1128.576, 486.1745
1129.058, 486.4042
1129.540, 486.8649
1130.022, 487.4570
1130.504, 488.2242
1130.986, 488.4627
1131.468, 487.9993
1131.950, 487.7514
1132.432, 488.2047
1132.915, 488.7467
1133.397, 488.6073
1133.879, 487.9918
1134.361, 487.6358
1134.843, 487.5118
1135.325, 487.3189
1135.807, 487.0433
1136.289, 486.8236
1136.771, 486.7100
1137.254, 486.9423
1137.736, 487.7879
1138.218, 488.7524
1138.700, 488.8334
1139.182, 488.3063
1139.664, 487.9704
1140.146, 487.8826
1140.628, 488.3803
1141.111, 489.3640
1141.593, 489.7417
1142.075, 488.9274
1142.557, 487.9516
1143.039, 488.1517
1143.521, 488.8082
1144.003, 488.5696
1144.485, 487.9267
1144.968, 487.9726
1145.450, 488.5859
1145.932, 488.9167
1146.414, 488.7391
1146.896, 488.7109
1147.378, 489.4344
1147.860, 490.1992
1148.342, 490.5717
1148.824, 490.3952
1149.307, 488.9884
1149.789, 487.1304
1150.271, 486.1307
1150.753, 486.1295
1151.235, 486.6205
1151.717, 487.5097
1152.199, 488.3339
1152.681, 488.6267
1153.163, 489.0083
1153.646, 490.2722
1154.128, 491.5253
1154.610, 491.7887
1155.092, 491.2732
1155.574, 490.4944
1156.056, 489.5313
1156.538, 489.0904
1157.020, 490.2291
1157.503, 490.6845
1157.985, 488.7155
1158.467, 487.0800
1158.949, 488.0901
1159.431, 489.9622
1159.913, 490.2256
1160.395, 488.9897
1160.877, 488.0783
1161.359, 487.4477
1161.842, 487.4371
1162.324, 488.5697
1162.806, 489.5189
1163.288, 489.9734
1163.770, 490.0691
1164.252, 489.8312
1164.734, 489.3591
1165.216, 488.8305
1165.698, 488.2241
1166.181, 487.8965
1166.663, 487.8486
1167.145, 488.1751
1167.627, 489.0673
1168.109, 489.6299
1168.591, 489.3012
1169.073, 488.9660
1169.555, 489.7330
1170.037, 491.2223
1170.520, 492.0870
1171.002, 492.3271
1171.484, 491.7754
1171.966, 490.4630
1172.448, 489.8405
1172.930, 490.2821
1173.412, 490.8712
1173.894, 491.0040
1174.377, 490.8564
1174.859, 490.4845
1175.341, 490.1286
1175.823, 490.6593
1176.305, 491.7352
1176.787, 492.4545
1177.269, 492.6647
1177.751, 492.1227
1178.234, 490.8584
1178.716, 490.0246
1179.198, 490.6356
1179.680, 491.7954
1180.162, 492.9142
1180.644, 493.6904
1181.126, 493.4785
1181.608, 492.7709
1182.090, 492.4724
1182.573, 492.6081
1183.055, 492.5518
1183.537, 491.9995
1184.019, 491.7650
1184.501, 492.9093
1184.983, 493.6886
1185.465, 492.3997
1185.947, 491.0169
1186.429, 491.3672
1186.912, 492.8198
1187.394, 494.3925
1187.876, 495.8924
1188.358, 496.1786
1188.840, 493.7282
1189.322, 492.1979
1189.804, 492.5731
1190.286, 493.1217
1190.769, 493.3747
1191.251, 493.4217
1191.733, 493.2935
1192.215, 493.0341
1192.697, 492.7427
1193.179, 492.4085
1193.661, 492.1114
1194.143, 491.7403
1194.625, 491.9484
1195.108, 493.0567
1195.590, 493.7294
1196.072, 493.1942
1196.554, 492.5631
1197.036, 493.2298
1197.518, 494.5843
1198.000, 494.5556
1198.482, 493.3415
1198.964, 492.8136
1199.447, 492.9412
1199.929, 492.6259
1200.411, 491.6880
1200.893, 491.0662
1201.375, 491.3101
1201.857, 491.8293
1202.339, 492.0316
1202.821, 491.9854
1203.304, 491.6329
1203.786, 491.2124
1204.268, 491.2499
1204.750, 491.5773
1205.232, 491.4389
1205.714, 490.8519
1206.196, 491.2159
1206.678, 493.7904
1207.161, 495.7056
1207.643, 494.4920
1208.125, 492.7850
1208.607, 492.0755
1209.089, 492.1159
1209.571, 493.0616
1210.053, 494.3214
1210.535, 494.6037
1211.017, 493.6772
1211.500, 492.7574
1211.982, 491.6989
1212.464, 491.1485
1212.946, 491.3495
1213.428, 491.8789
1213.910, 492.8939
1214.392, 493.7900
1214.874, 493.9678
1215.356, 493.5795
1215.839, 493.0320
1216.321, 492.2591
1216.803, 491.9907
1217.285, 492.3075
1217.767, 492.6220
1218.249, 492.8483
1218.731, 492.9496
1219.213, 492.8942
1219.696, 492.9247
1220.178, 493.3899
1220.660, 493.9383
1221.142, 493.5829
1221.624, 492.6518
1222.106, 492.1212
1222.588, 492.0385
1223.070, 492.4773
1223.552, 493.3352
1224.035, 494.1517
1224.517, 494.7110
1224.999, 495.0741
1225.481, 495.2793
1225.963, 495.3160
1226.445, 494.8723
1226.927, 494.5124
1227.409, 495.3001
1227.891, 496.3537
1228.374, 495.9511
1228.856, 494.2096
1229.338, 493.0233
1229.820, 493.1116
1230.302, 492.9676
1230.784, 491.5950
1231.266, 490.8455
1231.748, 491.8430
1232.231, 493.0479
1232.713, 493.7054
1233.195, 493.8286
1233.677, 493.2090
1234.159, 492.0195
1234.641, 491.9332
1235.123, 493.3964
1235.605, 493.6978
1236.088, 492.4808
1236.570, 491.8525
1237.052, 492.3996
1237.534, 493.2060
1238.016, 493.7114
1238.498, 493.9789
1238.980, 494.1359
1239.462, 494.0882
1239.944, 493.2402
1240.427, 492.0647
1240.909, 492.1685
1241.391, 493.2532
1241.873, 493.9605
1242.355, 493.9945
1242.837, 493.8937
1243.319, 493.9553
1243.801, 493.8508
1244.283, 493.2206
1244.766, 492.4625
1245.248, 491.2886
1245.730, 490.6798
1246.212, 492.2575
1246.694, 494.7709
1247.176, 496.0026
1247.658, 495.7933
1248.140, 495.4394
1248.622, 494.9818
1249.105, 494.6956
1249.587, 494.6722
1250.069, 494.6893
1250.551, 494.7128
1251.033, 494.7177
1251.515, 494.6455
1251.997, 494.6447
1252.479, 495.0844
1252.962, 495.7112
1253.444, 494.7304
1253.926, 492.1955
1254.408, 491.3843
1254.890, 492.3620
1255.372, 493.2998
1255.854, 493.7383
1256.336, 494.0977
1256.818, 494.6212
1257.301, 494.9760
1257.783, 494.6997
1258.265, 494.1616
1258.747, 493.7481
1259.229, 493.4830
1259.711, 493.5333
1260.193, 493.6927
1260.675, 493.4175
1261.157, 492.8272
1261.640, 492.8013
1262.122, 493.7037
1262.604, 494.6841
1263.086, 495.7614
1263.568, 496.4668
1264.050, 496.6718
1264.532, 496.4115
1265.014, 495.2055
1265.497, 494.0290
1265.979, 494.1873
1266.461, 495.2733
1266.943, 495.5027
1267.425, 494.6790
1267.907, 494.5322
1268.389, 495.1396
1268.871, 495.6608
1269.354, 495.9546
1269.836, 495.6473
1270.318, 494.5560
1270.800, 493.5728
1271.282, 493.5609
1271.764, 494.1699
1272.246, 495.1481
1272.728, 496.1412
1273.210, 496.4230
1273.693, 496.2904
1274.175, 496.4008
1274.657, 496.6686
1275.139, 496.4829
1275.621, 495.7026
1276.103, 495.0766
1276.585, 494.9759
1277.067, 494.9703
1277.549, 494.8040
1278.032, 494.8406
1278.514, 495.7861
1278.996, 496.4713
1279.478, 495.3975
1279.960, 493.7550
1280.442, 494.0847
1280.924, 496.2835
1281.406, 496.8237
1281.889, 495.4374
1282.371, 494.4162
1282.853, 493.9023
1283.335, 494.6637
1283.817, 496.9061
1284.299, 498.3134
1284.781, 497.3443
1285.263, 495.6401
1285.745, 494.8339
1286.228, 494.9209
##END=



