##NAMES=Vesuvianite
##RRUFFID=R050056
##IDEAL CHEMISTRY=(Ca,Na)_19_(Al,Mg,Fe^3+^)_13_(SiO_4_)_10_(Si_2_O_7_)_4_(OH,F,O)_10_
##LOCALITY=Jeffrey Quarry, Asbestos, Quebec, Canada
##OWNER=RRUFF
##SOURCE=Tony Gordian
##DESCRIPTION=Green prismatic single crystal
##STATUS=The identification of this mineral has been confirmed by X-ray diffraction and chemical analysis
##URL=rruff.info/R050056
##MEASURED CHEMISTRY=Ca_19_(Al_.804_Mg_.149_Fe_.045_Mn_.002_)_13_Si_18_O_68_(OH)_10_
113.5031, 57.05567
113.9852, 60.26973
114.4673, 64.03792
114.9494, 67.72385
115.4315, 71.38454
115.9136, 75.75089
116.3958, 81.25436
116.8779, 87.55006
117.3600, 94.29514
117.8421, 102.1136
118.3242, 109.8044
118.8063, 116.6094
119.2885, 122.4337
119.7706, 127.9558
120.2527, 131.9859
120.7348, 136.0415
121.2169, 142.9285
121.6990, 155.2861
122.1812, 170.5182
122.6633, 185.9931
123.1454, 201.2668
123.6275, 217.0371
124.1096, 233.3179
124.5917, 250.4166
125.0739, 269.5872
125.5560, 292.0538
126.0381, 317.0590
126.5202, 343.6735
127.0023, 371.9311
127.4844, 401.4190
127.9666, 431.9500
128.4487, 463.5090
128.9308, 495.0317
129.4129, 525.7729
129.8950, 555.7872
130.3772, 583.5757
130.8593, 607.3392
131.3414, 628.7965
131.8235, 654.5234
132.3056, 684.8010
132.7877, 717.0427
133.2699, 746.6630
133.7520, 773.5156
134.2341, 804.5075
134.7162, 844.8650
135.1983, 894.7775
135.6804, 939.5540
136.1626, 978.8444
136.6447, 1012.787
137.1268, 1040.581
137.6089, 1061.011
138.0910, 1078.813
138.5731, 1096.980
139.0553, 1117.361
139.5374, 1130.074
140.0195, 1132.469
140.5016, 1127.054
140.9837, 1123.321
141.4658, 1121.689
141.9480, 1121.022
142.4301, 1120.699
142.9122, 1121.078
143.3943, 1120.908
143.8764, 1118.984
144.3585, 1115.432
144.8407, 1115.968
145.3228, 1120.520
145.8049, 1129.235
146.2870, 1142.425
146.7691, 1162.077
147.2512, 1183.343
147.7334, 1205.125
148.2155, 1227.405
148.6976, 1251.226
149.1797, 1275.073
149.6618, 1300.985
150.1439, 1331.377
150.6261, 1370.295
151.1082, 1409.712
151.5903, 1446.667
152.0724, 1477.748
152.5545, 1513.704
153.0366, 1555.283
153.5188, 1602.095
154.0009, 1653.152
154.4830, 1712.787
154.9651, 1773.841
155.4472, 1833.909
155.9293, 1893.467
156.4115, 1950.550
156.8936, 2000.688
157.3757, 2047.140
157.8578, 2101.845
158.3399, 2172.056
158.8221, 2249.335
159.3042, 2328.928
159.7863, 2420.471
160.2684, 2503.553
160.7505, 2571.055
161.2326, 2624.241
161.7148, 2667.858
162.1969, 2704.078
162.6790, 2731.840
163.1611, 2749.762
163.6432, 2755.851
164.1253, 2753.550
164.6075, 2743.187
165.0896, 2724.721
165.5717, 2702.620
166.0538, 2675.339
166.5359, 2646.670
167.0180, 2621.952
167.5002, 2606.492
167.9823, 2593.645
168.4644, 2577.361
168.9465, 2556.394
169.4286, 2537.603
169.9107, 2524.172
170.3929, 2516.598
170.8750, 2515.607
171.3571, 2531.005
171.8392, 2549.141
172.3213, 2553.764
172.8034, 2540.104
173.2856, 2521.828
173.7677, 2512.230
174.2498, 2508.841
174.7319, 2503.377
175.2140, 2487.126
175.6961, 2466.475
176.1783, 2451.163
176.6604, 2443.424
177.1425, 2440.987
177.6246, 2443.481
178.1067, 2450.131
178.5888, 2456.066
179.0710, 2458.474
179.5531, 2457.522
180.0352, 2453.303
180.5173, 2445.482
180.9994, 2434.793
181.4815, 2422.758
181.9637, 2409.244
182.4458, 2393.433
182.9279, 2374.049
183.4100, 2351.530
183.8921, 2327.255
184.3742, 2301.583
184.8564, 2274.362
185.3385, 2244.791
185.8206, 2212.302
186.3027, 2181.246
186.7848, 2158.309
187.2669, 2142.098
187.7491, 2121.050
188.2312, 2086.723
188.7133, 2044.366
189.1954, 2013.344
189.6775, 1994.941
190.1596, 1983.119
190.6418, 1970.335
191.1239, 1956.763
191.6060, 1946.666
192.0881, 1941.553
192.5702, 1941.354
193.0524, 1946.369
193.5345, 1957.559
194.0166, 1971.400
194.4987, 1981.352
194.9808, 1986.986
195.4629, 1995.270
195.9451, 2010.597
196.4272, 2032.992
196.9093, 2054.164
197.3914, 2074.691
197.8735, 2092.682
198.3556, 2102.883
198.8378, 2103.970
199.3199, 2105.479
199.8020, 2111.491
200.2841, 2121.863
200.7662, 2138.031
201.2483, 2160.268
201.7305, 2188.172
202.2126, 2222.069
202.6947, 2263.370
203.1768, 2305.402
203.6589, 2344.538
204.1410, 2380.233
204.6232, 2414.028
205.1053, 2444.989
205.5874, 2474.583
206.0695, 2508.390
206.5516, 2547.954
207.0337, 2587.669
207.5159, 2622.811
207.9980, 2650.815
208.4801, 2683.685
208.9622, 2724.527
209.4443, 2771.295
209.9264, 2813.807
210.4086, 2851.002
210.8907, 2886.223
211.3728, 2922.926
211.8549, 2964.250
212.3370, 2996.840
212.8191, 3016.340
213.3013, 3024.535
213.7834, 3039.230
214.2655, 3065.040
214.7476, 3089.990
215.2297, 3102.469
215.7118, 3097.965
216.1940, 3094.015
216.6761, 3095.089
217.1582, 3100.691
217.6403, 3099.534
218.1224, 3091.527
218.6045, 3076.948
219.0867, 3052.918
219.5688, 3010.388
220.0509, 2980.743
220.5330, 2974.511
221.0151, 2992.230
221.4972, 3002.729
221.9794, 3002.735
222.4615, 2999.287
222.9436, 3000.707
223.4257, 3011.495
223.9078, 3017.642
224.3899, 3013.981
224.8721, 2999.213
225.3542, 2991.392
225.8363, 2993.096
226.3184, 2999.224
226.8005, 3004.188
227.2827, 3008.542
227.7648, 3010.682
228.2469, 3011.031
228.7290, 3010.291
229.2111, 3001.425
229.6932, 2978.120
230.1754, 2951.910
230.6575, 2938.919
231.1396, 2948.265
231.6217, 2954.836
232.1038, 2950.920
232.5859, 2934.144
233.0681, 2919.493
233.5502, 2906.968
234.0323, 2896.604
234.5144, 2888.405
234.9965, 2882.837
235.4786, 2878.830
235.9608, 2876.860
236.4429, 2878.194
236.9250, 2875.829
237.4071, 2869.081
237.8892, 2859.052
238.3713, 2846.644
238.8535, 2827.999
239.3356, 2813.544
239.8177, 2808.302
240.2998, 2816.546
240.7819, 2817.024
241.2640, 2805.759
241.7462, 2789.051
242.2283, 2776.557
242.7104, 2764.670
243.1925, 2763.072
243.6746, 2777.210
244.1567, 2813.482
244.6389, 2843.189
245.1210, 2860.642
245.6031, 2874.838
246.0852, 2901.236
246.5673, 2941.276
247.0494, 2991.150
247.5316, 3050.709
248.0137, 3122.544
248.4958, 3194.640
248.9779, 3260.748
249.4600, 3330.347
249.9421, 3422.954
250.4243, 3557.047
250.9064, 3682.011
251.3885, 3774.696
251.8706, 3819.299
252.3527, 3888.001
252.8348, 3994.629
253.3170, 4116.544
253.7991, 4211.361
254.2812, 4275.405
254.7633, 4317.645
255.2454, 4341.489
255.7275, 4347.894
256.2097, 4329.980
256.6918, 4280.549
257.1739, 4211.995
257.6560, 4145.417
258.1381, 4080.068
258.6202, 4018.053
259.1024, 3961.448
259.5845, 3914.448
260.0666, 3855.946
260.5487, 3777.699
261.0308, 3694.349
261.5129, 3631.269
261.9951, 3596.237
262.4772, 3564.140
262.9593, 3523.831
263.4414, 3470.580
263.9235, 3429.875
264.4056, 3401.652
264.8878, 3385.669
265.3699, 3383.223
265.8520, 3399.076
266.3341, 3414.710
266.8162, 3419.804
267.2983, 3410.055
267.7805, 3419.525
268.2626, 3455.885
268.7447, 3502.887
269.2268, 3528.836
269.7089, 3525.573
270.1910, 3530.539
270.6732, 3563.145
271.1553, 3627.497
271.6374, 3678.201
272.1195, 3714.371
272.6016, 3738.257
273.0837, 3750.145
273.5659, 3748.108
274.0480, 3744.326
274.5301, 3743.527
275.0122, 3745.867
275.4943, 3747.045
275.9764, 3747.378
276.4586, 3745.949
276.9407, 3740.232
277.4228, 3729.655
277.9049, 3720.240
278.3870, 3712.305
278.8691, 3706.214
279.3513, 3710.475
279.8334, 3725.514
280.3155, 3749.813
280.7976, 3782.888
281.2798, 3824.661
281.7619, 3870.557
282.2440, 3922.555
282.7261, 3978.708
283.2082, 4023.603
283.6903, 4056.274
284.1725, 4081.239
284.6546, 4101.350
285.1367, 4116.718
285.6188, 4135.038
286.1009, 4162.984
286.5830, 4196.447
287.0652, 4218.222
287.5473, 4227.861
288.0294, 4227.364
288.5115, 4218.840
288.9936, 4202.033
289.4757, 4175.388
289.9579, 4133.685
290.4400, 4082.857
290.9221, 4039.726
291.4042, 4005.001
291.8863, 3969.124
292.3684, 3917.189
292.8506, 3854.121
293.3327, 3800.849
293.8148, 3767.807
294.2969, 3746.032
294.7790, 3713.081
295.2611, 3668.813
295.7433, 3633.462
296.2254, 3632.595
296.7075, 3655.248
297.1896, 3669.993
297.6717, 3662.804
298.1538, 3647.679
298.6360, 3647.491
299.1181, 3661.041
299.6002, 3674.167
300.0823, 3673.341
300.5644, 3664.769
301.0465, 3659.910
301.5287, 3661.048
302.0108, 3667.995
302.4929, 3684.302
302.9750, 3708.273
303.4571, 3729.267
303.9392, 3739.677
304.4214, 3743.082
304.9035, 3744.032
305.3856, 3742.167
305.8677, 3740.382
306.3498, 3744.784
306.8319, 3752.489
307.3141, 3753.294
307.7962, 3732.635
308.2783, 3706.130
308.7604, 3690.001
309.2425, 3692.152
309.7246, 3695.591
310.2068, 3686.270
310.6889, 3669.347
311.1710, 3658.103
311.6531, 3663.634
312.1352, 3674.418
312.6173, 3680.531
313.0995, 3676.634
313.5816, 3678.863
314.0637, 3702.445
314.5458, 3737.007
315.0279, 3763.195
315.5100, 3763.508
315.9922, 3761.101
316.4743, 3768.886
316.9564, 3790.531
317.4385, 3813.338
317.9206, 3836.566
318.4027, 3857.674
318.8849, 3873.115
319.3670, 3879.721
319.8491, 3882.445
320.3312, 3880.229
320.8133, 3870.826
321.2954, 3870.163
321.7776, 3885.944
322.2597, 3910.139
322.7418, 3934.190
323.2239, 3958.446
323.7060, 3980.876
324.1881, 4000.512
324.6703, 4017.113
325.1524, 4033.803
325.6345, 4050.470
326.1166, 4067.286
326.5987, 4084.488
327.0808, 4098.068
327.5630, 4116.812
328.0451, 4145.219
328.5272, 4182.533
329.0093, 4212.162
329.4914, 4227.886
329.9735, 4240.914
330.4557, 4258.054
330.9378, 4279.240
331.4199, 4305.595
331.9020, 4343.921
332.3841, 4388.718
332.8662, 4411.597
333.3484, 4402.478
333.8305, 4386.386
334.3126, 4378.173
334.7947, 4384.066
335.2768, 4378.300
335.7589, 4356.490
336.2411, 4324.056
336.7232, 4293.476
337.2053, 4265.173
337.6874, 4238.127
338.1695, 4213.528
338.6516, 4192.842
339.1338, 4161.851
339.6159, 4116.915
340.0980, 4067.439
340.5801, 4029.898
341.0622, 4004.507
341.5443, 3985.305
342.0265, 3968.661
342.5086, 3955.274
342.9907, 3950.854
343.4728, 3955.983
343.9549, 3967.978
344.4370, 3986.154
344.9192, 4009.676
345.4013, 4031.332
345.8834, 4046.342
346.3655, 4058.025
346.8476, 4073.079
347.3297, 4091.307
347.8119, 4115.765
348.2940, 4155.812
348.7761, 4205.257
349.2582, 4243.564
349.7403, 4258.525
350.2225, 4267.269
350.7046, 4297.172
351.1867, 4345.979
351.6688, 4394.202
352.1509, 4423.965
352.6331, 4445.260
353.1152, 4473.765
353.5973, 4515.857
354.0794, 4560.505
354.5615, 4599.242
355.0436, 4632.730
355.5258, 4662.994
356.0079, 4683.993
356.4900, 4706.218
356.9721, 4740.664
357.4542, 4792.640
357.9363, 4844.557
358.4185, 4886.504
358.9006, 4921.724
359.3827, 4955.828
359.8648, 4986.593
360.3469, 5020.302
360.8290, 5064.936
361.3112, 5124.563
361.7933, 5170.520
362.2754, 5181.246
362.7575, 5178.693
363.2396, 5186.750
363.7217, 5222.488
364.2039, 5257.553
364.6860, 5281.155
365.1681, 5293.065
365.6502, 5314.796
366.1323, 5358.945
366.6144, 5407.663
367.0966, 5448.818
367.5787, 5478.203
368.0608, 5504.024
368.5429, 5522.899
369.0250, 5537.459
369.5071, 5561.116
369.9893, 5601.137
370.4714, 5641.649
370.9535, 5676.148
371.4356, 5707.242
371.9177, 5725.151
372.3998, 5726.718
372.8820, 5716.534
373.3641, 5704.055
373.8462, 5688.629
374.3283, 5672.772
374.8104, 5659.048
375.2925, 5648.158
375.7747, 5629.541
376.2568, 5602.613
376.7389, 5568.829
377.2210, 5529.767
377.7031, 5485.287
378.1852, 5437.596
378.6674, 5385.794
379.1495, 5331.344
379.6316, 5280.502
380.1137, 5234.679
380.5958, 5183.548
381.0779, 5115.101
381.5601, 5031.725
382.0422, 4950.152
382.5243, 4871.307
383.0064, 4797.252
383.4885, 4733.513
383.9706, 4678.407
384.4528, 4624.011
384.9349, 4561.175
385.4170, 4495.993
385.8991, 4436.190
386.3812, 4381.418
386.8633, 4335.175
387.3455, 4300.724
387.8276, 4277.208
388.3097, 4262.239
388.7918, 4259.963
389.2739, 4262.613
389.7560, 4263.500
390.2382, 4261.738
390.7203, 4262.735
391.2024, 4267.302
391.6845, 4276.892
392.1666, 4293.309
392.6487, 4320.155
393.1309, 4351.159
393.6130, 4382.240
394.0951, 4414.045
394.5772, 4453.239
395.0593, 4504.164
395.5414, 4561.392
396.0236, 4621.088
396.5057, 4686.472
396.9878, 4750.150
397.4699, 4808.104
397.9520, 4863.180
398.4341, 4923.759
398.9163, 4994.979
399.3984, 5066.403
399.8805, 5135.979
400.3626, 5207.935
400.8447, 5264.978
401.3268, 5303.059
401.8090, 5329.135
402.2911, 5353.788
402.7732, 5378.495
403.2553, 5397.436
403.7374, 5409.653
404.2195, 5415.032
404.7017, 5410.691
405.1838, 5395.236
405.6659, 5373.601
406.1480, 5350.943
406.6301, 5327.276
407.1122, 5297.178
407.5944, 5260.085
408.0765, 5215.372
408.5586, 5162.122
409.0407, 5100.181
409.5228, 5030.742
410.0049, 4950.848
410.4871, 4864.712
410.9692, 4785.992
411.4513, 4718.851
411.9334, 4646.865
412.4155, 4538.296
412.8976, 4405.942
413.3798, 4290.908
413.8619, 4228.005
414.3440, 4180.250
414.8261, 4107.245
415.3082, 4007.755
415.7903, 3903.086
416.2725, 3797.587
416.7546, 3697.460
417.2367, 3607.765
417.7188, 3539.280
418.2009, 3473.981
418.6830, 3403.010
419.1652, 3328.371
419.6473, 3260.198
420.1294, 3203.799
420.6115, 3152.693
421.0937, 3102.996
421.5758, 3056.521
422.0579, 3008.594
422.5400, 2956.402
423.0221, 2902.771
423.5042, 2851.135
423.9864, 2798.012
424.4685, 2751.605
424.9506, 2716.285
425.4327, 2694.036
425.9148, 2662.386
426.3969, 2614.985
426.8791, 2565.446
427.3612, 2526.228
427.8433, 2499.973
428.3254, 2476.348
428.8075, 2455.247
429.2896, 2435.420
429.7718, 2411.651
430.2539, 2382.499
430.7360, 2356.694
431.2181, 2340.188
431.7002, 2332.539
432.1823, 2329.198
432.6645, 2331.802
433.1466, 2332.470
433.6287, 2315.053
434.1108, 2283.906
434.5929, 2260.834
435.0750, 2257.871
435.5572, 2267.513
436.0393, 2280.075
436.5214, 2295.235
437.0035, 2306.213
437.4856, 2304.290
437.9677, 2295.807
438.4499, 2289.205
438.9320, 2285.766
439.4141, 2286.170
439.8962, 2293.079
440.3783, 2304.403
440.8604, 2314.962
441.3426, 2318.434
441.8247, 2323.416
442.3068, 2337.053
442.7889, 2363.232
443.2710, 2382.946
443.7531, 2383.847
444.2353, 2378.510
444.7174, 2380.863
445.1995, 2402.277
445.6816, 2421.147
446.1637, 2432.774
446.6458, 2437.819
447.1280, 2444.273
447.6101, 2451.710
448.0922, 2461.074
448.5743, 2474.090
449.0564, 2495.879
449.5385, 2507.205
450.0207, 2504.302
450.5028, 2493.734
450.9849, 2487.323
451.4670, 2485.510
451.9491, 2485.960
452.4312, 2488.743
452.9134, 2493.365
453.3955, 2497.292
453.8776, 2501.076
454.3597, 2500.298
454.8418, 2486.579
455.3239, 2463.419
455.8061, 2446.108
456.2882, 2438.954
456.7703, 2437.508
457.2524, 2437.063
457.7345, 2437.257
458.2166, 2436.593
458.6988, 2426.206
459.1809, 2418.522
459.6630, 2431.082
460.1451, 2468.684
460.6272, 2504.740
461.1093, 2521.303
461.5915, 2526.772
462.0736, 2531.177
462.5557, 2533.808
463.0378, 2539.917
463.5199, 2550.214
464.0020, 2565.027
464.4842, 2587.075
464.9663, 2623.209
465.4484, 2661.942
465.9305, 2697.238
466.4126, 2725.941
466.8947, 2757.016
467.3769, 2790.313
467.8590, 2825.888
468.3411, 2864.934
468.8232, 2909.903
469.3053, 2952.713
469.7874, 2988.582
470.2696, 3018.565
470.7517, 3065.316
471.2338, 3133.699
471.7159, 3203.442
472.1980, 3255.021
472.6801, 3289.036
473.1623, 3323.917
473.6444, 3363.237
474.1265, 3403.200
474.6086, 3441.304
475.0907, 3476.136
475.5728, 3498.562
476.0550, 3490.845
476.5371, 3472.128
477.0192, 3478.091
477.5013, 3510.269
477.9834, 3539.973
478.4655, 3549.537
478.9477, 3541.914
479.4298, 3520.113
479.9119, 3474.037
480.3940, 3427.650
480.8761, 3401.293
481.3582, 3385.763
481.8404, 3354.806
482.3225, 3280.090
482.8046, 3204.335
483.2867, 3148.615
483.7688, 3122.304
484.2509, 3089.712
484.7331, 3044.932
485.2152, 2994.161
485.6973, 2941.009
486.1794, 2877.432
486.6615, 2825.629
487.1436, 2792.149
487.6258, 2772.719
488.1079, 2745.687
488.5900, 2707.284
489.0721, 2672.157
489.5542, 2649.436
490.0363, 2639.094
490.5185, 2630.388
491.0006, 2623.945
491.4827, 2616.390
491.9648, 2599.649
492.4470, 2576.323
492.9291, 2561.822
493.4112, 2567.700
493.8933, 2580.083
494.3754, 2572.852
494.8575, 2549.654
495.3397, 2533.850
495.8218, 2549.707
496.3039, 2576.583
496.7860, 2590.980
497.2681, 2586.942
497.7502, 2581.113
498.2324, 2582.127
498.7145, 2586.761
499.1966, 2590.655
499.6787, 2593.754
500.1608, 2594.654
500.6429, 2590.413
501.1251, 2581.710
501.6072, 2579.033
502.0893, 2589.781
502.5714, 2600.743
503.0535, 2604.830
503.5356, 2595.376
504.0178, 2596.067
504.4999, 2613.234
504.9820, 2634.764
505.4641, 2641.695
505.9462, 2631.740
506.4283, 2618.614
506.9105, 2603.834
507.3926, 2589.472
507.8747, 2587.332
508.3568, 2598.249
508.8389, 2605.634
509.3210, 2592.311
509.8032, 2565.980
510.2853, 2548.895
510.7674, 2545.421
511.2495, 2544.394
511.7316, 2534.864
512.2137, 2519.242
512.6959, 2502.644
513.1780, 2485.514
513.6601, 2469.371
514.1422, 2457.061
514.6243, 2447.611
515.1064, 2434.452
515.5886, 2411.827
516.0707, 2386.846
516.5528, 2363.322
517.0349, 2338.677
517.5170, 2321.463
517.9991, 2321.709
518.4813, 2326.360
518.9634, 2318.558
519.4455, 2291.409
519.9276, 2263.190
520.4097, 2234.743
520.8918, 2207.872
521.3740, 2192.602
521.8561, 2191.179
522.3382, 2193.929
522.8203, 2197.335
523.3024, 2200.924
523.7845, 2195.519
524.2667, 2179.014
524.7488, 2159.368
525.2309, 2142.279
525.7130, 2129.144
526.1951, 2125.466
526.6772, 2138.143
527.1594, 2156.336
527.6415, 2169.092
528.1236, 2176.658
528.6057, 2180.337
529.0878, 2176.432
529.5699, 2171.752
530.0521, 2172.104
530.5342, 2179.535
531.0163, 2186.029
531.4984, 2185.281
531.9805, 2183.953
532.4626, 2189.110
532.9448, 2211.876
533.4269, 2228.721
533.9090, 2231.772
534.3911, 2226.420
534.8732, 2235.076
535.3553, 2267.180
535.8375, 2295.726
536.3196, 2305.600
536.8017, 2295.475
537.2838, 2300.064
537.7659, 2323.232
538.2480, 2348.519
538.7302, 2357.493
539.2123, 2352.128
539.6944, 2345.260
540.1765, 2339.323
540.6586, 2333.733
541.1407, 2329.132
541.6229, 2324.447
542.1050, 2315.816
542.5871, 2298.762
543.0692, 2278.397
543.5513, 2258.706
544.0334, 2240.093
544.5156, 2222.762
544.9977, 2207.022
545.4798, 2192.490
545.9619, 2178.850
546.4440, 2163.091
546.9261, 2152.599
547.4083, 2153.016
547.8904, 2158.430
548.3725, 2158.435
548.8546, 2152.597
549.3367, 2141.736
549.8188, 2123.397
550.3010, 2098.840
550.7831, 2083.975
551.2652, 2081.088
551.7473, 2080.253
552.2294, 2072.831
552.7115, 2059.953
553.1937, 2054.189
553.6758, 2057.503
554.1579, 2063.914
554.6400, 2066.422
555.1221, 2066.063
555.6042, 2065.796
556.0864, 2067.253
556.5685, 2068.679
557.0506, 2064.616
557.5327, 2058.012
558.0148, 2060.022
558.4969, 2089.095
558.9791, 2118.705
559.4612, 2128.640
559.9433, 2110.841
560.4254, 2104.653
560.9075, 2132.661
561.3896, 2166.582
561.8718, 2181.502
562.3539, 2164.265
562.8360, 2150.031
563.3181, 2140.863
563.8002, 2136.586
564.2823, 2136.884
564.7645, 2141.893
565.2466, 2151.104
565.7287, 2166.570
566.2108, 2186.205
566.6929, 2197.923
567.1750, 2201.277
567.6572, 2204.747
568.1393, 2214.829
568.6214, 2230.135
569.1035, 2248.592
569.5856, 2271.088
570.0677, 2292.369
570.5499, 2304.281
571.0320, 2313.114
571.5141, 2328.883
571.9962, 2363.177
572.4783, 2397.206
572.9604, 2421.985
573.4426, 2439.187
573.9247, 2458.683
574.4068, 2481.117
574.8889, 2506.915
575.3710, 2536.777
575.8531, 2571.266
576.3353, 2605.658
576.8174, 2642.335
577.2995, 2674.886
577.7816, 2693.436
578.2637, 2695.494
578.7458, 2710.580
579.2280, 2745.322
579.7101, 2790.564
580.1922, 2830.214
580.6743, 2865.543
581.1564, 2903.745
581.6385, 2949.325
582.1207, 2999.105
582.6028, 3048.326
583.0849, 3096.903
583.5670, 3147.500
584.0491, 3207.196
584.5313, 3265.898
585.0134, 3314.471
585.4955, 3347.744
585.9776, 3382.988
586.4597, 3429.928
586.9418, 3478.622
587.4240, 3516.758
587.9061, 3532.103
588.3882, 3556.281
588.8703, 3596.495
589.3524, 3646.660
589.8345, 3689.019
590.3167, 3722.542
590.7988, 3752.163
591.2809, 3775.996
591.7630, 3796.862
592.2451, 3833.483
592.7272, 3886.751
593.2094, 3934.000
593.6915, 3947.154
594.1736, 3942.742
594.6557, 3954.284
595.1378, 3990.133
595.6199, 4028.388
596.1021, 4052.498
596.5842, 4068.608
597.0663, 4085.553
597.5485, 4109.937
598.0306, 4131.507
598.5127, 4142.813
598.9948, 4147.431
599.4769, 4161.472
599.9590, 4198.810
600.4412, 4230.111
600.9233, 4242.902
601.4054, 4235.459
601.8875, 4238.963
602.3696, 4256.808
602.8517, 4277.248
603.3339, 4289.554
603.8160, 4294.481
604.2981, 4298.667
604.7802, 4301.098
605.2623, 4309.037
605.7444, 4340.107
606.2266, 4384.930
606.7087, 4416.731
607.1908, 4419.026
607.6729, 4412.290
608.1550, 4408.319
608.6371, 4408.063
609.1193, 4414.466
609.6014, 4431.913
610.0835, 4453.618
610.5656, 4476.388
611.0477, 4499.925
611.5298, 4525.001
612.0120, 4546.000
612.4941, 4573.791
612.9762, 4615.208
613.4583, 4671.060
613.9404, 4737.729
614.4225, 4816.842
614.9047, 4903.240
615.3868, 4985.098
615.8689, 5064.945
616.3510, 5167.125
616.8331, 5300.569
617.3152, 5457.094
617.7974, 5628.329
618.2795, 5812.821
618.7616, 6013.287
619.2437, 6227.538
619.7258, 6459.692
620.2079, 6712.549
620.6901, 6985.523
621.1722, 7288.589
621.6543, 7627.088
622.1364, 7996.988
622.6185, 8392.149
623.1006, 8812.294
623.5828, 9262.116
624.0649, 9740.842
624.5470, 10249.97
625.0291, 10793.45
625.5112, 11373.97
625.9933, 11974.86
626.4755, 12582.42
626.9576, 13213.25
627.4397, 13904.74
627.9218, 14651.77
628.4039, 15415.29
628.8860, 16188.13
629.3682, 16963.21
629.8503, 17729.05
630.3324, 18485.87
630.8145, 19214.89
631.2966, 19935.20
631.7787, 20594.02
632.2609, 21171.42
632.7430, 21692.10
633.2251, 22022.70
633.7072, 22115.10
634.1893, 22011.45
634.6714, 21741.19
635.1536, 21266.86
635.6357, 20704.41
636.1178, 20064.86
636.5999, 19345.74
637.0820, 18522.83
637.5641, 17595.43
638.0463, 16664.53
638.5284, 15744.30
639.0105, 14848.48
639.4926, 13988.13
639.9747, 13157.78
640.4568, 12352.23
640.9390, 11526.85
641.4211, 10739.71
641.9032, 10049.58
642.3853, 9463.035
642.8674, 8913.806
643.3495, 8372.673
643.8317, 7863.507
644.3138, 7397.016
644.7959, 6991.140
645.2780, 6603.634
645.7601, 6231.836
646.2422, 5882.094
646.7244, 5558.532
647.2065, 5265.531
647.6886, 4989.529
648.1707, 4729.475
648.6528, 4488.099
649.1349, 4268.401
649.6171, 4070.518
650.0992, 3888.419
650.5813, 3720.923
651.0634, 3566.663
651.5455, 3424.826
652.0276, 3294.215
652.5098, 3175.307
652.9919, 3076.550
653.4740, 2982.880
653.9561, 2881.531
654.4382, 2767.167
654.9203, 2670.895
655.4025, 2606.664
655.8846, 2553.137
656.3667, 2497.207
656.8488, 2436.550
657.3309, 2379.792
657.8130, 2326.589
658.2952, 2277.790
658.7773, 2235.023
659.2594, 2197.798
659.7415, 2165.358
660.2236, 2139.766
660.7057, 2114.860
661.1879, 2078.473
661.6700, 2035.355
662.1521, 1999.217
662.6342, 1981.356
663.1163, 1968.580
663.5984, 1955.747
664.0806, 1941.939
664.5627, 1922.008
665.0448, 1882.482
665.5269, 1848.188
666.0090, 1832.064
666.4911, 1837.910
666.9733, 1833.758
667.4554, 1815.800
667.9375, 1795.391
668.4196, 1781.979
668.9017, 1775.306
669.3839, 1769.207
669.8660, 1763.578
670.3481, 1756.478
670.8302, 1743.485
671.3123, 1727.509
671.7944, 1714.925
672.2766, 1709.008
672.7587, 1705.087
673.2408, 1702.561
673.7229, 1699.537
674.2050, 1692.276
674.6871, 1670.679
675.1693, 1654.605
675.6514, 1653.277
676.1335, 1662.950
676.6156, 1663.385
677.0977, 1649.753
677.5798, 1637.899
678.0620, 1635.494
678.5441, 1641.525
679.0262, 1647.017
679.5083, 1652.087
679.9904, 1655.472
680.4725, 1652.740
680.9547, 1648.654
681.4368, 1652.994
681.9189, 1667.672
682.4010, 1682.824
682.8831, 1687.465
683.3652, 1691.251
683.8474, 1704.219
684.3295, 1735.666
684.8116, 1765.193
685.2937, 1791.893
685.7758, 1814.236
686.2579, 1828.265
686.7401, 1828.993
687.2222, 1834.954
687.7043, 1849.565
688.1864, 1871.113
688.6685, 1897.891
689.1506, 1929.422
689.6328, 1957.940
690.1149, 1978.880
690.5970, 1995.790
691.0791, 2013.890
691.5612, 2032.932
692.0433, 2051.073
692.5255, 2066.329
693.0076, 2081.618
693.4897, 2101.561
693.9718, 2127.630
694.4539, 2142.871
694.9360, 2144.727
695.4182, 2135.475
695.9003, 2114.438
696.3824, 2079.064
696.8645, 2044.073
697.3466, 2010.115
697.8287, 1974.829
698.3109, 1933.665
698.7930, 1888.247
699.2751, 1848.373
699.7572, 1817.871
700.2393, 1786.781
700.7214, 1740.491
701.2036, 1687.489
701.6857, 1642.048
702.1678, 1617.179
702.6499, 1591.473
703.1320, 1553.213
703.6141, 1508.339
704.0963, 1471.652
704.5784, 1445.411
705.0605, 1424.613
705.5426, 1410.481
706.0247, 1400.759
706.5068, 1383.962
706.9890, 1358.671
707.4711, 1337.508
707.9532, 1331.121
708.4353, 1332.827
708.9174, 1323.492
709.3995, 1304.351
709.8817, 1287.819
710.3638, 1284.543
710.8459, 1286.413
711.3280, 1287.086
711.8101, 1285.905
712.2922, 1283.058
712.7744, 1279.464
713.2565, 1273.478
713.7386, 1263.696
714.2207, 1247.548
714.7028, 1233.966
715.1849, 1222.487
715.6671, 1214.166
716.1492, 1210.565
716.6313, 1211.426
717.1134, 1213.884
717.5955, 1218.164
718.0776, 1221.552
718.5598, 1218.137
719.0419, 1211.707
719.5240, 1209.847
720.0061, 1222.173
720.4882, 1231.207
720.9703, 1225.642
721.4525, 1211.188
721.9346, 1200.807
722.4167, 1197.888
722.8988, 1197.047
723.3809, 1198.646
723.8630, 1201.457
724.3452, 1198.657
724.8273, 1188.741
725.3094, 1184.179
725.7915, 1194.626
726.2736, 1213.305
726.7557, 1224.120
727.2379, 1227.255
727.7200, 1224.159
728.2021, 1208.428
728.6842, 1192.109
729.1663, 1186.144
729.6484, 1191.764
730.1306, 1197.223
730.6127, 1197.104
731.0948, 1197.723
731.5769, 1203.281
732.0590, 1216.217
732.5411, 1223.788
733.0233, 1224.875
733.5054, 1223.108
733.9875, 1219.616
734.4696, 1215.340
734.9517, 1218.493
735.4338, 1230.937
735.9160, 1245.058
736.3981, 1255.142
736.8802, 1261.274
737.3623, 1263.402
737.8444, 1260.581
738.3266, 1255.556
738.8087, 1244.650
739.2908, 1233.714
739.7729, 1231.724
740.2551, 1243.834
740.7372, 1255.879
741.2193, 1266.952
741.7014, 1276.533
742.1835, 1283.238
742.6656, 1287.011
743.1478, 1289.614
743.6299, 1290.791
744.1120, 1292.179
744.5941, 1297.020
745.0762, 1304.336
745.5583, 1311.250
746.0405, 1317.366
746.5226, 1321.655
747.0047, 1322.683
747.4868, 1321.015
747.9689, 1319.745
748.4510, 1317.906
748.9332, 1318.288
749.4153, 1322.553
749.8974, 1330.238
750.3795, 1335.712
750.8616, 1338.635
751.3438, 1341.834
751.8259, 1349.374
752.3080, 1358.009
752.7901, 1359.225
753.2722, 1353.116
753.7543, 1345.714
754.2365, 1339.994
754.7186, 1335.357
755.2007, 1331.567
755.6828, 1328.680
756.1649, 1325.838
756.6470, 1318.836
757.1292, 1315.420
757.6113, 1322.262
758.0934, 1343.909
758.5755, 1354.860
759.0576, 1353.901
759.5397, 1346.549
760.0219, 1334.432
760.5040, 1320.453
760.9861, 1315.001
761.4682, 1320.680
761.9503, 1329.649
762.4324, 1341.129
762.9146, 1350.107
763.3967, 1350.158
763.8788, 1331.070
764.3609, 1317.117
764.8430, 1314.496
765.3251, 1317.793
765.8073, 1322.056
766.2894, 1328.541
766.7715, 1330.209
767.2536, 1324.204
767.7357, 1316.510
768.2178, 1318.393
768.7000, 1327.731
769.1821, 1335.368
769.6642, 1336.818
770.1463, 1338.076
770.6284, 1346.757
771.1105, 1358.648
771.5927, 1365.605
772.0748, 1358.932
772.5569, 1354.190
773.0390, 1354.386
773.5211, 1359.092
774.0032, 1368.322
774.4854, 1383.580
774.9675, 1397.836
775.4496, 1409.356
775.9317, 1418.208
776.4138, 1422.543
776.8959, 1423.494
777.3781, 1427.413
777.8602, 1442.688
778.3423, 1458.249
778.8244, 1459.772
779.3065, 1452.133
779.7886, 1456.140
780.2708, 1493.745
780.7529, 1527.457
781.2350, 1542.462
781.7171, 1541.493
782.1992, 1551.241
782.6813, 1574.091
783.1635, 1597.854
783.6456, 1617.104
784.1277, 1632.286
784.6098, 1642.862
785.0919, 1649.658
785.5740, 1661.063
786.0562, 1687.060
786.5383, 1716.846
787.0204, 1741.266
787.5025, 1759.935
787.9846, 1777.873
788.4667, 1797.857
788.9489, 1815.634
789.4310, 1828.301
789.9131, 1835.194
790.3952, 1848.213
790.8773, 1868.259
791.3594, 1889.740
791.8416, 1904.423
792.3237, 1917.674
792.8058, 1948.936
793.2879, 1998.953
793.7700, 2041.724
794.2521, 2055.518
794.7343, 2057.064
795.2164, 2057.416
795.6985, 2056.027
796.1806, 2064.147
796.6627, 2096.680
797.1448, 2123.688
797.6270, 2119.064
798.1091, 2075.017
798.5912, 2066.616
799.0733, 2099.042
799.5554, 2141.631
800.0375, 2167.850
800.5197, 2181.874
801.0018, 2189.171
801.4839, 2189.226
801.9660, 2192.975
802.4481, 2212.241
802.9302, 2234.886
803.4124, 2250.268
803.8945, 2252.101
804.3766, 2257.684
804.8587, 2269.954
805.3408, 2282.088
805.8229, 2284.249
806.3051, 2276.587
806.7872, 2286.001
807.2693, 2317.357
807.7514, 2350.281
808.2335, 2359.886
808.7156, 2358.961
809.1978, 2369.156
809.6799, 2400.732
810.1620, 2424.015
810.6441, 2416.555
811.1262, 2400.668
811.6083, 2399.037
812.0905, 2422.216
812.5726, 2435.369
813.0547, 2433.828
813.5368, 2429.685
814.0189, 2440.102
814.5010, 2461.764
814.9832, 2473.722
815.4653, 2470.795
815.9474, 2466.514
816.4295, 2477.025
816.9116, 2492.031
817.3937, 2497.790
817.8759, 2483.119
818.3580, 2474.502
818.8401, 2483.585
819.3222, 2496.987
819.8043, 2501.195
820.2864, 2492.799
820.7686, 2492.432
821.2507, 2504.297
821.7328, 2517.276
822.2149, 2512.649
822.6970, 2497.946
823.1791, 2492.913
823.6613, 2504.088
824.1434, 2518.596
824.6255, 2528.483
825.1076, 2536.740
825.5897, 2546.527
826.0718, 2560.989
826.5540, 2573.367
827.0361, 2583.151
827.5182, 2591.622
828.0003, 2598.826
828.4824, 2604.788
828.9645, 2618.603
829.4467, 2643.122
829.9288, 2669.089
830.4109, 2681.146
830.8930, 2689.127
831.3751, 2710.035
831.8572, 2755.745
832.3394, 2796.999
832.8215, 2820.204
833.3036, 2835.900
833.7857, 2856.938
834.2678, 2887.162
834.7499, 2909.082
835.2321, 2917.859
835.7142, 2926.661
836.1963, 2955.025
836.6784, 2997.937
837.1605, 3035.793
837.6426, 3063.647
838.1248, 3090.200
838.6069, 3121.554
839.0890, 3155.567
839.5711, 3189.750
840.0532, 3225.920
840.5353, 3257.465
841.0175, 3279.891
841.4996, 3302.073
841.9817, 3332.344
842.4638, 3370.927
842.9459, 3414.659
843.4280, 3463.426
843.9102, 3516.374
844.3923, 3579.547
844.8744, 3644.213
845.3565, 3693.222
845.8386, 3718.634
846.3207, 3746.981
846.8029, 3792.514
847.2850, 3843.428
847.7671, 3888.823
848.2492, 3923.874
848.7313, 3968.598
849.2134, 4028.193
849.6956, 4083.356
850.1777, 4107.651
850.6598, 4111.275
851.1419, 4133.015
851.6240, 4179.426
852.1061, 4224.490
852.5883, 4243.382
853.0704, 4255.196
853.5525, 4280.522
854.0346, 4332.439
854.5167, 4363.824
854.9988, 4359.836
855.4810, 4351.236
855.9631, 4364.408
856.4452, 4400.013
856.9273, 4411.271
857.4094, 4395.764
857.8915, 4374.134
858.3737, 4364.821
858.8558, 4360.083
859.3379, 4351.405
859.8200, 4338.026
860.3021, 4317.790
860.7842, 4280.490
861.2664, 4244.753
861.7485, 4222.658
862.2306, 4215.916
862.7127, 4203.522
863.1948, 4184.653
863.6769, 4163.330
864.1591, 4143.324
864.6412, 4122.622
865.1233, 4091.837
865.6054, 4051.814
866.0875, 4019.874
866.5696, 4017.750
867.0518, 4017.022
867.5339, 3997.606
868.0160, 3956.832
868.4981, 3922.044
868.9802, 3893.146
869.4623, 3870.584
869.9445, 3857.516
870.4266, 3850.998
870.9087, 3834.738
871.3908, 3809.867
871.8729, 3790.434
872.3550, 3791.234
872.8372, 3795.730
873.3193, 3788.982
873.8014, 3772.744
874.2835, 3759.337
874.7656, 3755.392
875.2477, 3749.732
875.7299, 3737.670
876.2120, 3722.225
876.6941, 3715.753
877.1762, 3718.242
877.6583, 3722.126
878.1404, 3728.122
878.6226, 3729.571
879.1047, 3709.465
879.5869, 3677.637
880.0690, 3658.893
880.5511, 3681.791
881.0332, 3696.908
881.5153, 3683.671
881.9974, 3655.367
882.4796, 3639.069
882.9617, 3637.444
883.4438, 3631.438
883.9259, 3613.606
884.4080, 3595.605
884.8901, 3595.821
885.3723, 3610.464
885.8544, 3632.552
886.3365, 3674.267
886.8186, 3698.666
887.3007, 3676.487
887.7828, 3632.197
888.2650, 3600.231
888.7471, 3585.772
889.2292, 3571.866
889.7113, 3556.444
890.1934, 3542.802
890.6755, 3535.538
891.1577, 3533.471
891.6398, 3533.458
892.1219, 3535.612
892.6040, 3536.151
893.0861, 3535.695
893.5682, 3530.483
894.0504, 3514.991
894.5325, 3478.680
895.0146, 3459.013
895.4967, 3462.838
895.9788, 3470.663
896.4609, 3460.543
896.9431, 3437.958
897.4252, 3443.122
897.9073, 3478.508
898.3894, 3510.891
898.8715, 3511.658
899.3536, 3501.484
899.8358, 3496.757
900.3179, 3499.380
900.8000, 3504.817
901.2821, 3510.440
901.7642, 3521.458
902.2463, 3541.298
902.7285, 3568.751
903.2106, 3599.647
903.6927, 3633.563
904.1748, 3662.810
904.6569, 3677.289
905.1390, 3689.187
905.6212, 3708.731
906.1033, 3735.975
906.5854, 3771.173
907.0675, 3825.183
907.5496, 3873.569
908.0317, 3906.979
908.5139, 3932.077
908.9960, 3971.360
909.4781, 4024.752
909.9602, 4077.498
910.4423, 4121.810
910.9244, 4166.307
911.4066, 4224.301
911.8887, 4289.083
912.3708, 4349.161
912.8529, 4390.680
913.3350, 4439.852
913.8171, 4508.465
914.2993, 4581.185
914.7814, 4632.768
915.2635, 4660.313
915.7456, 4708.901
916.2277, 4789.092
916.7098, 4873.427
917.1920, 4927.682
917.6741, 4965.605
918.1562, 5006.612
918.6383, 5054.657
919.1204, 5104.474
919.6025, 5151.731
920.0847, 5202.732
920.5668, 5268.213
921.0489, 5356.215
921.5310, 5394.046
922.0131, 5376.271
922.4952, 5353.040
922.9774, 5367.459
923.4595, 5400.934
923.9416, 5430.460
924.4237, 5453.775
924.9058, 5465.229
925.3879, 5460.289
925.8701, 5444.700
926.3522, 5418.404
926.8343, 5383.147
927.3164, 5356.428
927.7985, 5339.977
928.2806, 5314.243
928.7628, 5261.567
929.2449, 5203.109
929.7270, 5175.327
930.2091, 5169.100
930.6912, 5158.921
931.1733, 5132.674
931.6555, 5103.219
932.1376, 5077.585
932.6197, 5049.850
933.1018, 5007.273
933.5839, 4946.689
934.0660, 4892.936
934.5482, 4850.955
935.0303, 4814.191
935.5124, 4773.058
935.9945, 4730.638
936.4766, 4693.729
936.9587, 4666.740
937.4409, 4635.701
937.9230, 4592.335
938.4051, 4545.528
938.8872, 4501.210
939.3693, 4458.436
939.8514, 4421.749
940.3336, 4391.706
940.8157, 4366.042
941.2978, 4351.937
941.7799, 4336.287
942.2620, 4292.353
942.7441, 4221.212
943.2263, 4162.747
943.7084, 4143.816
944.1905, 4130.646
944.6726, 4110.657
945.1547, 4084.722
945.6368, 4055.855
946.1190, 4023.163
946.6011, 3999.609
947.0832, 3997.902
947.5653, 4000.762
948.0474, 3982.991
948.5295, 3951.589
949.0117, 3922.836
949.4938, 3898.564
949.9759, 3882.848
950.4580, 3878.417
950.9401, 3880.706
951.4222, 3882.657
951.9044, 3884.182
952.3865, 3890.458
952.8686, 3902.504
953.3507, 3918.507
953.8328, 3942.575
954.3149, 3966.578
954.7971, 3978.027
955.2792, 3968.817
955.7613, 3968.682
956.2434, 3987.819
956.7255, 4010.152
957.2076, 4026.444
957.6898, 4036.896
958.1719, 4045.954
958.6540, 4053.738
959.1361, 4063.537
959.6182, 4082.054
960.1003, 4100.268
960.5825, 4109.219
961.0646, 4109.994
961.5467, 4110.468
962.0288, 4108.566
962.5109, 4113.182
962.9930, 4132.423
963.4752, 4154.278
963.9573, 4142.175
964.4394, 4101.997
964.9215, 4070.159
965.4036, 4062.794
965.8857, 4059.062
966.3679, 4045.036
966.8500, 4023.385
967.3321, 3997.141
967.8142, 3966.061
968.2963, 3931.612
968.7784, 3892.752
969.2606, 3853.177
969.7427, 3814.810
970.2248, 3779.178
970.7069, 3754.036
971.1890, 3739.914
971.6711, 3725.200
972.1533, 3703.931
972.6354, 3678.356
973.1175, 3647.730
973.5996, 3612.494
974.0817, 3585.426
974.5638, 3570.282
975.0460, 3549.898
975.5281, 3515.168
976.0102, 3472.169
976.4923, 3435.827
976.9744, 3402.155
977.4565, 3359.440
977.9387, 3282.705
978.4208, 3219.321
978.9029, 3202.367
979.3850, 3200.508
979.8671, 3168.368
980.3492, 3098.890
980.8314, 3042.272
981.3135, 3005.474
981.7956, 2974.631
982.2777, 2933.275
982.7598, 2888.062
983.2419, 2850.027
983.7241, 2822.127
984.2062, 2789.795
984.6883, 2749.589
985.1704, 2702.240
985.6525, 2642.878
986.1346, 2574.233
986.6168, 2528.852
987.0989, 2506.045
987.5810, 2484.188
988.0631, 2447.103
988.5452, 2408.319
989.0273, 2384.148
989.5095, 2368.550
989.9916, 2345.914
990.4737, 2300.018
990.9558, 2268.664
991.4379, 2261.044
991.9200, 2263.316
992.4022, 2250.694
992.8843, 2228.570
993.3664, 2223.057
993.8485, 2242.055
994.3306, 2258.395
994.8127, 2250.244
995.2949, 2233.243
995.7770, 2220.685
996.2591, 2214.131
996.7412, 2205.066
997.2233, 2190.679
997.7054, 2184.342
998.1876, 2201.606
998.6697, 2229.641
999.1518, 2239.189
999.6339, 2233.803
1000.116, 2227.985
1000.598, 2220.899
1001.080, 2223.184
1001.562, 2246.296
1002.044, 2277.377
1002.527, 2290.395
1003.009, 2283.040
1003.491, 2292.184
1003.973, 2327.696
1004.455, 2366.661
1004.937, 2383.549
1005.419, 2388.473
1005.901, 2392.386
1006.384, 2395.611
1006.866, 2405.578
1007.348, 2429.706
1007.830, 2450.046
1008.312, 2452.306
1008.794, 2441.472
1009.276, 2450.979
1009.758, 2478.218
1010.240, 2501.688
1010.723, 2504.765
1011.205, 2504.136
1011.687, 2512.664
1012.169, 2525.236
1012.651, 2527.317
1013.133, 2514.122
1013.615, 2504.446
1014.097, 2502.319
1014.580, 2501.223
1015.062, 2490.683
1015.544, 2475.123
1016.026, 2462.840
1016.508, 2455.700
1016.990, 2450.337
1017.472, 2455.470
1017.954, 2451.832
1018.436, 2423.989
1018.919, 2373.979
1019.401, 2342.829
1019.883, 2330.571
1020.365, 2325.684
1020.847, 2325.891
1021.329, 2326.679
1021.811, 2325.103
1022.293, 2320.479
1022.776, 2310.836
1023.258, 2289.504
1023.740, 2273.923
1024.222, 2267.273
1024.704, 2264.409
1025.186, 2258.137
1025.668, 2249.721
1026.150, 2244.426
1026.632, 2243.264
1027.115, 2240.815
1027.597, 2230.378
1028.079, 2220.453
1028.561, 2216.932
1029.043, 2219.565
1029.525, 2224.175
1030.007, 2230.978
1030.489, 2237.503
1030.972, 2243.705
1031.454, 2247.739
1031.936, 2248.648
1032.418, 2245.265
1032.900, 2235.170
1033.382, 2205.161
1033.864, 2187.165
1034.346, 2192.643
1034.828, 2199.751
1035.311, 2178.249
1035.793, 2133.984
1036.275, 2109.659
1036.757, 2108.604
1037.239, 2108.072
1037.721, 2096.476
1038.203, 2075.689
1038.685, 2043.581
1039.167, 2001.867
1039.650, 1964.063
1040.132, 1930.906
1040.614, 1899.758
1041.096, 1870.811
1041.578, 1842.831
1042.060, 1817.076
1042.542, 1790.894
1043.024, 1757.886
1043.507, 1707.986
1043.989, 1668.438
1044.471, 1646.288
1044.953, 1632.494
1045.435, 1622.279
1045.917, 1615.093
1046.399, 1603.125
1046.881, 1586.281
1047.364, 1565.170
1047.846, 1535.052
1048.328, 1505.564
1048.810, 1484.310
1049.292, 1469.714
1049.774, 1452.441
1050.256, 1429.852
1050.738, 1414.593
1051.220, 1411.030
1051.703, 1410.756
1052.185, 1403.130
1052.667, 1390.071
1053.149, 1373.299
1053.631, 1351.175
1054.113, 1335.029
1054.595, 1331.490
1055.077, 1330.657
1055.559, 1328.884
1056.042, 1325.746
1056.524, 1316.927
1057.006, 1303.098
1057.488, 1289.757
1057.970, 1279.610
1058.452, 1271.191
1058.934, 1263.438
1059.416, 1256.770
1059.899, 1252.213
1060.381, 1250.750
1060.863, 1247.645
1061.345, 1242.310
1061.827, 1236.127
1062.309, 1227.552
1062.791, 1220.430
1063.273, 1223.455
1063.755, 1236.892
1064.238, 1243.898
1064.720, 1234.149
1065.202, 1224.615
1065.684, 1220.179
1066.166, 1219.350
1066.648, 1218.909
1067.130, 1218.571
1067.612, 1216.639
1068.094, 1211.308
1068.577, 1207.320
1069.059, 1207.390
1069.541, 1210.355
1070.023, 1216.019
1070.505, 1226.056
1070.987, 1227.060
1071.469, 1218.011
1071.951, 1210.036
1072.434, 1213.728
1072.916, 1220.561
1073.398, 1219.979
1073.880, 1213.753
1074.362, 1208.690
1074.844, 1207.583
1075.326, 1204.902
1075.808, 1198.495
1076.291, 1192.859
1076.773, 1197.145
1077.255, 1207.074
1077.737, 1209.874
1078.219, 1203.490
1078.701, 1195.045
1079.183, 1184.152
1079.665, 1176.377
1080.147, 1174.599
1080.630, 1178.039
1081.112, 1182.255
1081.594, 1187.246
1082.076, 1193.618
1082.558, 1204.327
1083.040, 1211.245
1083.522, 1202.379
1084.004, 1187.409
1084.486, 1179.728
1084.969, 1183.583
1085.451, 1186.198
1085.933, 1187.421
1086.415, 1187.887
1086.897, 1188.240
1087.379, 1188.067
1087.861, 1185.996
1088.343, 1182.585
1088.826, 1180.210
1089.308, 1178.185
1089.790, 1180.031
1090.272, 1188.765
1090.754, 1198.562
1091.236, 1199.110
1091.718, 1192.422
1092.200, 1188.115
1092.682, 1187.856
1093.165, 1186.815
1093.647, 1179.009
1094.129, 1172.266
1094.611, 1173.062
1095.093, 1179.776
1095.575, 1179.522
1096.057, 1171.892
1096.539, 1167.973
1097.022, 1174.050
1097.504, 1181.237
1097.986, 1182.095
1098.468, 1177.602
1098.950, 1167.921
1099.432, 1146.964
1099.914, 1138.708
1100.396, 1146.375
1100.879, 1156.680
1101.361, 1159.010
1101.843, 1157.883
1102.325, 1163.573
1102.807, 1174.027
1103.289, 1181.172
1103.771, 1181.801
1104.253, 1178.385
1104.735, 1168.414
1105.218, 1158.679
1105.700, 1161.979
1106.182, 1174.537
1106.664, 1176.507
1107.146, 1165.562
1107.628, 1155.541
1108.110, 1158.538
1108.592, 1161.095
1109.074, 1153.690
1109.557, 1139.672
1110.039, 1133.659
1110.521, 1135.722
1111.003, 1135.951
1111.485, 1130.108
1111.967, 1125.646
1112.449, 1130.175
1112.931, 1139.684
1113.414, 1151.800
1113.896, 1168.720
1114.378, 1172.179
1114.860, 1159.249
1115.342, 1145.546
1115.824, 1138.606
1116.306, 1137.276
1116.788, 1142.562
1117.271, 1151.659
1117.753, 1158.389
1118.235, 1164.172
1118.717, 1160.795
1119.199, 1143.382
1119.681, 1125.363
1120.163, 1121.051
1120.645, 1126.670
1121.127, 1131.779
1121.609, 1135.943
1122.092, 1140.351
1122.574, 1150.749
1123.056, 1154.370
1123.538, 1141.499
1124.020, 1124.124
1124.502, 1131.060
1124.984, 1158.358
1125.466, 1170.443
1125.949, 1159.188
1126.431, 1146.396
1126.913, 1150.067
1127.395, 1155.379
1127.877, 1149.105
1128.359, 1133.426
1128.841, 1128.482
1129.323, 1134.908
1129.806, 1140.564
1130.288, 1140.286
1130.770, 1139.068
1131.252, 1144.114
1131.734, 1150.249
1132.216, 1150.036
1132.698, 1140.408
1133.180, 1132.177
1133.662, 1124.612
1134.145, 1121.832
1134.627, 1130.829
1135.109, 1143.310
1135.591, 1145.125
1136.073, 1139.781
1136.555, 1136.119
1137.037, 1138.151
1137.519, 1139.659
1138.001, 1139.784
1138.484, 1140.352
1138.966, 1147.080
1139.448, 1154.708
1139.930, 1145.321
1140.412, 1120.690
1140.894, 1105.527
1141.376, 1117.279
1141.858, 1131.074
1142.341, 1142.706
1142.823, 1150.122
1143.305, 1147.803
1143.787, 1137.730
1144.269, 1127.728
1144.751, 1118.704
1145.233, 1114.340
1145.715, 1120.475
1146.198, 1128.226
1146.680, 1133.193
1147.162, 1135.582
1147.644, 1135.140
1148.126, 1132.215
1148.608, 1132.256
1149.090, 1139.324
1149.572, 1143.528
1150.054, 1133.770
1150.536, 1120.140
1151.019, 1112.125
1151.501, 1110.228
1151.983, 1110.333
1152.465, 1112.561
1152.947, 1113.697
1153.429, 1109.639
1153.911, 1106.375
1154.393, 1111.684
1154.876, 1121.123
1155.358, 1126.804
1155.840, 1127.154
1156.322, 1127.380
1156.804, 1127.893
1157.286, 1126.524
1157.768, 1116.931
1158.250, 1107.668
1158.733, 1113.911
1159.215, 1130.546
1159.697, 1136.948
1160.179, 1124.725
1160.661, 1113.308
1161.143, 1103.346
1161.625, 1099.170
1162.107, 1113.264
1162.589, 1133.013
1163.072, 1134.560
1163.554, 1117.358
1164.036, 1103.305
1164.518, 1093.491
1165.000, 1096.037
1165.482, 1118.104
1165.964, 1145.379
1166.446, 1150.549
1166.928, 1140.920
1167.411, 1132.301
1167.893, 1127.698
1168.375, 1123.421
1168.857, 1114.911
1169.339, 1111.313
1169.821, 1119.284
1170.303, 1132.410
1170.785, 1129.577
1171.268, 1115.627
1171.750, 1106.694
1172.232, 1109.797
1172.714, 1113.545
1173.196, 1113.632
1173.678, 1112.800
1174.160, 1112.909
1174.642, 1113.541
1175.125, 1109.831
1175.607, 1103.248
1176.089, 1102.203
1176.571, 1118.667
1177.053, 1130.895
1177.535, 1125.473
1178.017, 1114.108
1178.499, 1106.209
1178.981, 1101.737
1179.464, 1103.989
1179.946, 1112.417
1180.428, 1118.462
1180.910, 1113.267
1181.392, 1108.048
1181.874, 1110.428
1182.356, 1115.758
1182.838, 1116.088
1183.320, 1111.127
1183.803, 1111.336
1184.285, 1117.723
1184.767, 1122.500
1185.249, 1115.571
1185.731, 1109.083
1186.213, 1115.923
1186.695, 1129.200
1187.177, 1126.467
1187.660, 1105.926
1188.142, 1100.083
1188.624, 1116.400
1189.106, 1130.363
1189.588, 1110.461
1190.070, 1087.392
1190.552, 1091.952
1191.034, 1119.364
1191.516, 1125.672
1191.999, 1107.888
1192.481, 1099.211
1192.963, 1110.625
1193.445, 1123.554
1193.927, 1114.784
1194.409, 1101.303
1194.891, 1101.955
1195.373, 1118.273
1195.855, 1130.760
1196.338, 1139.987
1196.820, 1140.146
1197.302, 1125.115
1197.784, 1108.162
1198.266, 1104.813
1198.748, 1107.663
1199.230, 1106.716
1199.712, 1099.426
1200.195, 1099.141
1200.677, 1106.771
1201.159, 1115.252
1201.641, 1122.708
1202.123, 1126.677
1202.605, 1119.662
1203.087, 1108.853
1203.569, 1107.677
1204.052, 1127.135
1204.534, 1122.675
1205.016, 1089.394
1205.498, 1061.386
1205.980, 1067.816
1206.462, 1087.429
1206.944, 1098.188
1207.426, 1102.611
1207.908, 1106.599
1208.391, 1112.875
1208.873, 1112.109
1209.355, 1102.400
1209.837, 1093.768
1210.319, 1098.805
1210.801, 1106.462
1211.283, 1102.013
1211.765, 1089.081
1212.247, 1082.059
1212.730, 1084.130
1213.212, 1084.967
1213.694, 1083.199
1214.176, 1081.661
1214.658, 1082.459
1215.140, 1085.460
1215.622, 1093.049
1216.104, 1103.454
1216.587, 1105.494
1217.069, 1094.484
1217.551, 1091.104
1218.033, 1100.642
1218.515, 1110.096
1218.997, 1100.061
1219.479, 1085.284
1219.961, 1084.351
1220.443, 1097.497
1220.926, 1104.302
1221.408, 1102.457
1221.890, 1099.914
1222.372, 1098.025
1222.854, 1097.760
1223.336, 1103.037
1223.818, 1108.843
1224.300, 1108.861
1224.782, 1102.041
1225.265, 1096.259
1225.747, 1091.921
1226.229, 1086.021
1226.711, 1075.811
1227.193, 1068.722
1227.675, 1079.566
1228.157, 1095.271
1228.639, 1098.741
1229.122, 1086.713
1229.604, 1080.167
1230.086, 1079.325
1230.568, 1082.689
1231.050, 1091.538
1231.532, 1100.426
1232.014, 1103.029
1232.496, 1102.016
1232.979, 1100.066
1233.461, 1097.093
1233.943, 1097.743
1234.425, 1102.546
1234.907, 1105.470
1235.389, 1102.430
1235.871, 1098.316
1236.353, 1097.773
1236.835, 1099.165
1237.318, 1101.204
1237.800, 1104.695
1238.282, 1100.196
1238.764, 1087.198
1239.246, 1077.432
1239.728, 1078.536
1240.210, 1084.292
1240.692, 1093.939
1241.175, 1102.665
1241.657, 1103.844
1242.139, 1096.571
1242.621, 1084.313
1243.103, 1066.842
1243.585, 1060.543
1244.067, 1089.703
1244.549, 1117.844
1245.031, 1117.859
1245.514, 1102.775
1245.996, 1090.412
1246.478, 1080.252
1246.960, 1081.330
1247.442, 1093.027
1247.924, 1099.874
1248.406, 1084.090
1248.888, 1069.262
1249.370, 1069.413
1249.853, 1077.958
1250.335, 1087.938
1250.817, 1099.063
1251.299, 1104.957
1251.781, 1105.504
1252.263, 1103.790
1252.745, 1099.239
1253.227, 1095.791
1253.710, 1096.145
1254.192, 1097.778
1254.674, 1098.658
1255.156, 1098.311
1255.638, 1089.275
1256.120, 1072.696
1256.602, 1066.331
1257.084, 1094.234
1257.567, 1115.695
1258.049, 1116.998
1258.531, 1107.133
1259.013, 1093.696
1259.495, 1079.715
1259.977, 1079.272
1260.459, 1091.945
1260.941, 1101.233
1261.423, 1094.664
1261.906, 1091.000
1262.388, 1096.735
1262.870, 1103.341
1263.352, 1094.855
1263.834, 1078.843
1264.316, 1073.837
1264.798, 1080.692
1265.280, 1087.069
1265.762, 1089.100
1266.245, 1090.402
1266.727, 1091.035
1267.209, 1092.533
1267.691, 1100.500
1268.173, 1109.065
1268.655, 1105.656
1269.137, 1090.306
1269.619, 1083.151
1270.102, 1088.405
1270.584, 1095.996
1271.066, 1104.629
1271.548, 1112.188
1272.030, 1116.105
1272.512, 1117.139
1272.994, 1116.095
1273.476, 1112.861
1273.958, 1106.504
1274.441, 1096.211
1274.923, 1086.474
1275.405, 1077.519
1275.887, 1073.159
1276.369, 1082.333
1276.851, 1094.143
1277.333, 1098.005
1277.815, 1094.445
1278.297, 1089.250
1278.780, 1082.170
1279.262, 1080.393
1279.744, 1086.368
1280.226, 1093.016
1280.708, 1094.479
1281.190, 1094.633
1281.672, 1097.071
1282.154, 1100.452
1282.637, 1099.113
1283.119, 1093.479
1283.601, 1086.329
1284.083, 1077.148
1284.565, 1074.300
1285.047, 1093.080
1285.529, 1107.537
1286.011, 1102.447
1286.494, 1086.403
1286.976, 1082.783
1287.458, 1089.156
1287.940, 1099.448
1288.422, 1113.633
1288.904, 1121.208
1289.386, 1115.248
1289.868, 1105.022
1290.350, 1091.076
1290.833, 1077.955
1291.315, 1075.300
1291.797, 1080.236
1292.279, 1089.169
1292.761, 1102.790
1293.243, 1106.965
1293.725, 1096.244
1294.207, 1088.330
1294.689, 1090.627
1295.172, 1094.520
1295.654, 1083.741
1296.136, 1068.870
1296.618, 1064.465
1297.100, 1073.740
1297.582, 1083.347
1298.064, 1093.943
1298.546, 1100.835
1299.029, 1102.381
1299.511, 1100.300
1299.993, 1093.186
1300.475, 1085.714
1300.957, 1082.600
1301.439, 1083.513
1301.921, 1087.337
1302.403, 1093.907
1302.885, 1097.692
1303.368, 1096.614
1303.850, 1095.031
1304.332, 1094.211
1304.814, 1096.055
1305.296, 1103.350
1305.778, 1113.036
1306.260, 1113.362
1306.742, 1106.380
1307.224, 1099.868
1307.707, 1095.445
##END=



