##NAMES=Vesuvianite
##RRUFFID=R060532
##IDEAL CHEMISTRY=(Ca,Na)_19_(Al,Mg,Fe^3+^)_13_(SiO_4_)_10_(Si_2_O_7_)_4_(OH,F,O)_10_
##LOCALITY=Jeffrey mine, Asbestos, Quebec, Canada
##OWNER=RRUFF
##SOURCE=Michael Scott
##DESCRIPTION=Green prismatic single crystal
##STATUS=The identification of this mineral has been confirmed by single-crystal X-ray diffraction.
##URL=rruff.info/R060532
153.824, 16112.900
154.306, 16162.160
154.788, 16247.160
155.270, 16329.230
155.752, 16392.789
156.234, 16457.490
156.716, 16542.689
157.198, 16643.480
157.680, 16772.600
158.163, 16939.221
158.645, 17151.029
159.127, 17368.070
159.609, 17580.199
160.091, 17790.020
160.573, 18002.590
161.055, 18216.240
161.538, 18431.301
162.020, 18645.631
162.502, 18859.510
162.984, 19068.039
163.466, 19255.090
163.948, 19431.730
164.430, 19629.699
164.912, 19883.811
165.394, 20151.770
165.876, 20402.410
166.359, 20642.670
166.841, 20846.020
167.323, 20994.090
167.805, 21090.600
168.287, 21154.480
168.769, 21182.330
169.251, 21188.641
169.733, 21189.840
170.216, 21172.869
170.698, 21166.529
171.180, 21190.510
171.662, 21245.381
172.144, 21330.529
172.626, 21458.369
173.108, 21615.529
173.590, 21780.750
174.072, 21940.070
174.555, 22104.301
175.037, 22289.141
175.519, 22496.340
176.001, 22716.510
176.483, 22944.520
176.965, 23178.779
177.447, 23408.590
177.929, 23645.420
178.412, 23870.340
178.894, 24051.490
179.376, 24181.980
179.858, 24272.490
180.340, 24346.270
180.822, 24396.301
181.304, 24386.689
181.786, 24279.119
182.268, 24094.670
182.751, 23874.811
183.233, 23609.660
183.715, 23339.221
184.197, 23164.051
184.679, 23077.471
185.161, 22961.100
185.643, 22677.641
186.125, 22273.141
186.607, 21917.270
187.090, 21664.949
187.572, 21481.721
188.054, 21282.711
188.536, 21067.311
189.018, 20863.080
189.500, 20700.189
189.982, 20578.010
190.464, 20475.660
190.947, 20406.760
191.429, 20354.090
191.911, 20238.170
192.393, 20048.070
192.875, 19844.020
193.357, 19699.789
193.839, 19617.311
194.321, 19539.051
194.803, 19432.650
195.286, 19303.930
195.768, 19218.961
196.250, 19185.590
196.732, 19178.279
197.214, 19155.961
197.696, 19116.080
198.178, 19087.250
198.661, 19081.801
199.143, 19100.010
199.625, 19137.650
200.107, 19202.000
200.589, 19277.420
201.071, 19323.840
201.553, 19332.109
202.035, 19355.051
202.517, 19431.510
202.999, 19568.430
203.482, 19682.670
203.964, 19755.070
204.446, 19808.199
204.928, 19907.510
205.410, 20057.131
205.892, 20238.670
206.374, 20444.971
206.857, 20682.160
207.339, 20909.141
207.821, 21112.250
208.303, 21301.141
208.785, 21530.490
209.267, 21818.279
209.749, 22110.359
210.231, 22359.520
210.713, 22554.279
211.195, 22761.600
211.678, 23000.869
212.160, 23268.600
212.642, 23508.949
213.124, 23722.711
213.606, 23914.279
214.088, 24081.320
214.570, 24217.051
215.052, 24353.750
215.535, 24495.020
216.017, 24641.230
216.499, 24814.680
216.981, 25038.070
217.463, 25260.529
217.945, 25421.490
218.427, 25499.721
218.909, 25557.660
219.391, 25609.279
219.874, 25655.510
220.356, 25678.160
220.838, 25661.119
221.320, 25634.539
221.802, 25639.750
222.284, 25679.410
222.766, 25745.961
223.248, 25836.920
223.731, 25953.490
224.213, 26099.811
224.695, 26296.990
225.177, 26511.779
225.659, 26698.400
226.141, 26873.779
226.623, 26989.840
227.105, 27029.920
227.587, 26990.391
228.070, 26883.891
228.552, 26689.859
229.034, 26437.311
229.516, 26190.850
229.998, 25952.510
230.480, 25715.311
230.962, 25472.900
231.444, 25212.189
231.926, 24977.680
232.409, 24765.570
232.891, 24582.590
233.373, 24445.199
233.855, 24365.090
234.337, 24315.770
234.819, 24284.820
235.301, 24268.420
235.783, 24280.090
236.266, 24327.811
236.748, 24403.580
237.230, 24481.721
237.712, 24570.211
238.194, 24652.471
238.676, 24720.779
239.158, 24779.400
239.640, 24816.971
240.122, 24833.900
240.605, 24829.789
241.087, 24802.061
241.569, 24748.301
242.051, 24673.490
242.533, 24576.641
243.015, 24435.551
243.497, 24318.580
243.980, 24237.449
244.462, 24186.020
244.944, 24123.100
245.426, 24010.529
245.908, 23932.699
246.390, 23947.730
246.872, 24084.480
247.354, 24255.061
247.836, 24472.971
248.318, 24724.670
248.801, 24895.680
249.283, 24931.859
249.765, 24954.539
250.247, 25051.740
250.729, 25247.199
251.211, 25465.400
251.693, 25703.119
252.176, 25959.170
252.658, 26208.289
253.140, 26453.580
253.622, 26691.189
254.104, 26926.619
254.586, 27174.939
255.068, 27387.061
255.550, 27564.160
256.032, 27704.801
256.514, 27765.740
256.997, 27738.930
257.479, 27643.580
257.961, 27489.359
258.443, 27258.600
258.925, 27004.430
259.407, 26718.420
259.889, 26406.391
260.371, 26128.230
260.854, 25893.551
261.336, 25676.570
261.818, 25447.010
262.300, 25191.600
262.782, 24963.240
263.264, 24779.461
263.746, 24635.230
264.228, 24477.141
264.711, 24299.109
265.193, 24114.180
265.675, 23926.199
266.157, 23728.119
266.639, 23554.449
267.121, 23415.359
267.603, 23309.830
268.085, 23229.160
268.567, 23179.770
269.050, 23145.801
269.532, 23108.760
270.014, 23061.801
270.496, 23042.189
270.978, 23059.330
271.460, 23111.760
271.942, 23193.199
272.424, 23313.961
272.906, 23441.039
273.389, 23539.020
273.871, 23600.080
274.353, 23673.189
274.835, 23769.189
275.317, 23885.980
275.799, 24013.439
276.281, 24154.369
276.763, 24295.971
277.246, 24430.240
277.728, 24558.119
278.210, 24661.070
278.692, 24723.381
279.174, 24754.340
279.656, 24815.580
280.138, 24912.850
280.620, 25017.730
281.103, 25088.230
281.585, 25121.221
282.067, 25201.520
282.549, 25362.590
283.031, 25583.891
283.513, 25785.381
283.995, 25962.840
284.477, 26143.000
284.959, 26367.311
285.441, 26632.570
285.924, 26857.840
286.406, 27013.971
286.888, 27120.500
287.370, 27234.680
287.852, 27357.551
288.334, 27485.240
288.816, 27620.330
289.298, 27759.689
289.781, 27886.529
290.263, 27992.100
290.745, 28085.510
291.227, 28197.330
291.709, 28329.561
292.191, 28440.211
292.673, 28490.029
293.155, 28487.240
293.638, 28465.500
294.120, 28428.520
294.602, 28381.529
295.084, 28341.881
295.566, 28309.070
296.048, 28256.551
296.530, 28161.221
297.012, 28029.510
297.494, 27878.051
297.977, 27700.109
298.459, 27516.301
298.941, 27358.609
299.423, 27224.189
299.905, 27096.539
300.387, 26956.779
300.869, 26815.100
301.351, 26686.641
301.833, 26570.631
302.316, 26473.270
302.798, 26413.180
303.280, 26382.820
303.762, 26345.340
304.244, 26259.770
304.726, 26154.721
305.208, 26075.381
305.690, 26042.590
306.172, 26015.990
306.655, 25950.131
307.137, 25855.680
307.619, 25773.170
308.101, 25737.590
308.583, 25721.850
309.065, 25698.180
309.547, 25658.891
310.030, 25617.420
310.512, 25584.039
310.994, 25557.090
311.476, 25530.891
311.958, 25537.189
312.440, 25523.750
312.922, 25435.740
313.404, 25229.609
313.886, 25038.971
314.369, 24942.900
314.851, 24912.779
315.333, 24891.760
315.815, 24872.881
316.297, 24843.680
316.779, 24791.381
317.261, 24703.789
317.743, 24627.500
318.225, 24578.539
318.708, 24553.029
319.190, 24544.820
319.672, 24547.340
320.154, 24570.859
320.636, 24624.170
321.118, 24715.051
321.600, 24808.990
322.082, 24906.061
322.565, 25000.010
323.047, 25081.090
323.529, 25119.410
324.011, 25170.680
324.493, 25255.080
324.975, 25380.391
325.457, 25502.400
325.939, 25613.051
326.422, 25719.359
326.904, 25829.400
327.386, 25949.141
327.868, 26064.980
328.350, 26179.051
328.832, 26293.150
329.314, 26384.770
329.796, 26431.230
330.278, 26469.859
330.760, 26536.221
331.243, 26674.141
331.725, 26773.131
332.207, 26804.980
332.689, 26771.949
333.171, 26758.660
333.653, 26777.641
334.135, 26802.461
334.617, 26813.721
335.100, 26810.770
335.582, 26795.430
336.064, 26760.199
336.546, 26712.350
337.028, 26695.449
337.510, 26724.061
337.992, 26752.949
338.474, 26744.961
338.957, 26688.000
339.439, 26653.770
339.921, 26651.619
340.403, 26673.260
340.885, 26680.471
341.367, 26657.830
341.849, 26694.881
342.331, 26720.008
342.813, 26879.660
343.296, 27006.680
343.778, 27102.783
344.260, 27075.436
344.742, 27207.498
345.224, 27275.674
345.706, 27341.229
346.188, 27460.570
346.670, 27552.061
347.152, 27692.520
347.635, 27881.480
348.117, 28104.010
348.599, 28358.770
349.081, 28638.641
349.563, 28897.869
350.045, 29079.529
350.527, 29234.250
351.009, 29460.789
351.491, 29763.590
351.974, 30095.100
352.456, 30420.910
352.938, 30743.301
353.420, 31071.359
353.902, 31397.020
354.384, 31736.660
354.866, 32112.779
355.349, 32520.650
355.831, 32932.000
356.313, 33338.629
356.795, 33734.180
357.277, 34108.660
357.759, 34456.371
358.241, 34792.699
358.723, 35150.129
359.205, 35514.090
359.688, 35824.230
360.170, 36028.512
360.652, 36178.879
361.134, 36320.000
361.616, 36497.801
362.098, 36611.000
362.580, 36585.930
363.062, 36462.859
363.544, 36351.422
364.027, 36343.922
364.509, 36308.730
364.991, 36171.512
365.473, 35868.051
365.955, 35580.230
366.437, 35355.461
366.919, 35158.648
367.401, 34931.840
367.884, 34659.941
368.366, 34366.359
368.848, 34045.109
369.330, 33680.930
369.812, 33364.039
370.294, 33131.441
370.776, 32924.480
371.258, 32678.301
371.741, 32345.961
372.223, 32046.189
372.705, 31812.070
373.187, 31645.650
373.669, 31456.141
374.151, 31226.449
374.633, 30995.561
375.115, 30795.891
375.597, 30637.400
376.079, 30475.189
376.562, 30300.199
377.044, 30114.570
377.526, 29933.420
378.008, 29756.301
378.490, 29579.330
378.972, 29388.660
379.454, 29188.350
379.936, 29017.949
380.419, 28887.359
380.901, 28783.070
381.383, 28690.430
381.865, 28608.609
382.347, 28521.490
382.829, 28395.301
383.311, 28255.240
383.793, 28192.381
384.276, 28222.279
384.758, 28272.930
385.240, 28254.400
385.722, 28186.561
386.204, 28129.260
386.686, 28111.980
387.168, 28118.381
387.650, 28129.500
388.132, 28144.270
388.615, 28162.461
389.097, 28190.471
389.579, 28219.131
390.061, 28235.539
390.543, 28218.260
391.025, 28203.211
391.507, 28211.539
391.989, 28241.990
392.471, 28287.539
392.954, 28360.971
393.436, 28440.609
393.918, 28509.400
394.400, 28553.230
394.882, 28607.160
395.364, 28684.930
395.846, 28780.920
396.328, 28883.051
396.810, 28992.830
397.293, 29104.461
397.775, 29220.180
398.257, 29351.660
398.739, 29453.740
399.221, 29486.051
399.703, 29499.350
400.185, 29554.539
400.668, 29681.430
401.150, 29809.689
401.632, 29923.381
402.114, 30021.461
402.596, 30129.461
403.078, 30251.570
403.560, 30379.150
404.042, 30507.330
404.524, 30635.141
405.007, 30761.461
405.489, 30876.570
405.971, 30993.580
406.453, 31166.619
406.935, 31406.561
407.417, 31661.100
407.899, 31890.900
408.381, 32099.039
408.863, 32340.730
409.346, 32629.721
409.828, 32932.391
410.310, 33208.602
410.792, 33459.078
411.274, 33681.230
411.756, 33870.520
412.238, 34031.891
412.720, 34172.859
413.203, 34292.148
413.685, 34395.090
414.167, 34507.270
414.649, 34604.738
415.131, 34639.461
415.613, 34576.191
416.095, 34459.551
416.577, 34324.609
417.060, 34170.828
417.542, 33988.961
418.024, 33765.680
418.506, 33515.320
418.988, 33255.680
419.470, 32981.020
419.952, 32706.260
420.434, 32439.260
420.916, 32175.949
421.398, 31900.619
421.881, 31571.990
422.363, 31265.250
422.845, 31017.770
423.327, 30843.730
423.809, 30688.340
424.291, 30571.580
424.773, 30460.641
425.255, 30320.779
425.738, 30125.760
426.220, 29937.359
426.702, 29766.600
427.184, 29614.641
427.666, 29465.311
428.148, 29321.391
428.630, 29177.061
429.112, 29030.619
429.595, 28883.061
430.077, 28719.721
430.559, 28531.000
431.041, 28332.920
431.523, 28157.850
432.005, 28009.430
432.487, 27862.400
432.969, 27682.230
433.451, 27481.180
433.934, 27381.670
434.416, 27405.010
434.898, 27434.539
435.380, 27301.840
435.862, 27047.830
436.344, 26838.430
436.826, 26752.320
437.308, 26730.410
437.790, 26693.641
438.273, 26642.811
438.755, 26586.711
439.237, 26512.961
439.719, 26443.770
440.201, 26410.920
440.683, 26438.740
441.165, 26467.529
441.647, 26449.039
442.129, 26402.270
442.612, 26370.480
443.094, 26387.529
443.576, 26410.051
444.058, 26415.311
444.540, 26397.971
445.022, 26381.301
445.504, 26362.010
445.987, 26349.801
446.469, 26354.150
446.951, 26357.461
447.433, 26340.951
447.915, 26350.291
448.397, 26353.355
448.879, 26350.482
449.361, 26323.887
449.843, 26327.924
450.326, 26319.684
450.808, 26310.941
451.290, 26312.529
451.772, 26314.199
452.254, 26341.119
452.736, 26365.199
453.218, 26385.240
453.700, 26409.840
454.182, 26450.070
454.665, 26499.580
455.147, 26506.730
455.629, 26466.340
456.111, 26429.910
456.593, 26459.400
457.075, 26537.580
457.557, 26600.949
458.039, 26626.721
458.522, 26643.240
459.004, 26682.900
459.486, 26745.109
459.968, 26826.420
460.450, 26953.270
460.932, 27083.750
461.414, 27174.971
461.896, 27215.961
462.379, 27245.301
462.861, 27259.660
463.343, 27282.330
463.825, 27344.350
464.307, 27477.471
464.789, 27629.590
465.271, 27797.039
465.753, 27976.539
466.235, 28133.270
466.717, 28218.740
467.200, 28308.930
467.682, 28446.131
468.164, 28677.900
468.646, 28881.449
469.128, 29045.609
469.610, 29186.529
470.092, 29339.520
470.574, 29512.170
471.057, 29679.131
471.539, 29829.270
472.021, 29961.980
472.503, 30111.910
472.985, 30284.330
473.467, 30453.609
473.949, 30588.061
474.431, 30690.500
474.914, 30805.051
475.396, 30950.150
475.878, 31099.930
476.360, 31199.250
476.842, 31255.439
477.324, 31314.391
477.806, 31416.689
478.288, 31535.561
478.770, 31636.289
479.253, 31717.051
479.735, 31778.520
480.217, 31841.070
480.699, 31880.400
481.181, 31861.760
481.663, 31723.590
482.145, 31569.119
482.627, 31454.789
483.109, 31369.730
483.592, 31257.711
484.074, 31072.980
484.556, 30876.221
485.038, 30695.811
485.520, 30529.250
486.002, 30384.461
486.484, 30247.029
486.966, 30137.279
487.448, 30002.139
487.931, 29914.645
488.413, 29815.600
488.895, 29705.613
489.377, 29551.873
489.859, 29454.629
490.341, 29334.746
490.823, 29213.908
491.306, 29124.607
491.788, 28977.236
492.270, 28884.350
492.752, 28773.961
493.234, 28681.461
493.716, 28610.619
494.198, 28557.580
494.680, 28505.211
495.162, 28437.359
495.645, 28366.869
496.127, 28311.641
496.609, 28271.641
497.091, 28239.430
497.573, 28229.369
498.055, 28216.039
498.537, 28165.650
499.019, 28038.520
499.501, 27926.910
499.984, 27886.980
500.466, 27894.539
500.948, 27896.961
501.430, 27868.439
501.912, 27842.971
502.394, 27837.561
502.876, 27858.449
503.358, 27867.109
503.841, 27844.199
504.323, 27823.631
504.805, 27835.920
505.287, 27907.930
505.769, 27948.131
506.251, 27934.461
506.733, 27889.740
507.215, 27870.590
507.698, 27876.990
508.180, 27908.020
508.662, 27978.510
509.144, 28079.811
509.626, 28143.510
510.108, 28167.359
510.590, 28177.301
511.072, 28200.150
511.554, 28230.811
512.036, 28256.289
512.519, 28277.840
513.001, 28286.680
513.483, 28268.910
513.965, 28230.189
514.447, 28186.770
514.929, 28123.660
515.411, 28075.730
515.893, 28088.150
516.375, 28177.961
516.858, 28211.689
517.340, 28075.711
517.822, 27896.260
518.304, 27787.760
518.786, 27870.221
519.268, 27898.039
519.750, 27814.949
520.232, 27659.930
520.715, 27560.320
521.197, 27534.730
521.679, 27534.340
522.161, 27553.670
522.643, 27597.949
523.125, 27575.961
523.607, 27469.910
524.089, 27346.699
524.571, 27278.830
525.054, 27262.789
525.536, 27259.439
526.018, 27266.590
526.500, 27272.830
526.982, 27255.211
527.464, 27217.721
527.946, 27181.029
528.429, 27157.830
528.911, 27140.320
529.393, 27120.689
529.875, 27098.330
530.357, 27073.270
530.839, 27043.180
531.321, 27011.230
531.803, 26979.850
532.286, 26938.160
532.768, 26911.391
533.250, 26921.480
533.732, 26952.260
534.214, 26958.490
534.696, 26903.039
535.178, 26861.080
535.660, 26860.100
536.142, 26905.439
536.625, 26931.840
537.107, 26929.170
537.589, 26924.920
538.071, 26945.449
538.553, 26993.260
539.035, 27036.221
539.517, 27068.080
539.999, 27096.330
540.481, 27135.631
540.964, 27184.670
541.446, 27234.900
541.928, 27279.461
542.410, 27322.910
542.892, 27372.170
543.374, 27426.600
543.856, 27485.689
544.338, 27539.240
544.820, 27600.891
545.303, 27689.641
545.785, 27829.189
546.267, 27951.311
546.749, 28021.770
547.231, 28057.240
547.713, 28085.141
548.195, 28126.090
548.677, 28144.039
549.159, 28113.170
549.642, 28039.369
550.124, 28013.641
550.606, 28066.631
551.088, 28123.400
551.570, 28140.971
552.052, 28114.461
552.534, 28072.369
553.016, 28009.680
553.499, 27943.490
553.981, 27893.061
554.463, 27858.391
554.945, 27845.381
555.427, 27866.420
555.909, 27899.770
556.391, 27903.010
556.873, 27881.869
557.356, 27868.789
557.838, 27898.070
558.320, 27937.570
558.802, 27950.420
559.284, 27929.100
559.766, 27915.760
560.248, 27933.529
560.730, 27968.580
561.213, 28006.141
561.695, 28047.990
562.177, 28087.051
562.659, 28119.029
563.141, 28147.080
563.623, 28178.869
564.105, 28204.721
564.587, 28250.180
565.069, 28332.850
565.552, 28453.240
566.034, 28531.131
566.516, 28556.119
566.998, 28574.881
567.480, 28639.869
567.962, 28742.391
568.444, 28805.520
568.926, 28808.699
569.408, 28799.830
569.891, 28849.471
570.373, 28937.961
570.855, 29014.270
571.337, 29053.381
571.819, 29071.980
572.301, 29076.750
572.783, 29069.830
573.265, 29063.561
573.747, 29036.160
574.230, 29030.830
574.712, 29081.150
575.194, 29222.289
575.676, 29333.410
576.158, 29382.020
576.640, 29411.240
577.122, 29463.641
577.604, 29548.660
578.086, 29639.221
578.569, 29734.770
579.051, 29832.680
579.533, 29919.461
580.015, 29993.980
580.497, 30072.461
580.979, 30167.510
581.461, 30273.279
581.943, 30366.131
582.426, 30445.570
582.908, 30527.910
583.390, 30619.350
583.872, 30723.900
584.354, 30848.689
584.836, 31001.711
585.318, 31157.410
585.800, 31299.650
586.282, 31434.711
586.765, 31570.131
587.247, 31728.439
587.729, 31865.789
588.211, 31961.260
588.693, 32018.051
589.175, 32081.010
589.657, 32151.840
590.140, 32227.100
590.622, 32311.100
591.104, 32409.900
591.586, 32471.340
592.068, 32486.000
592.550, 32488.711
593.032, 32524.689
593.514, 32587.439
593.996, 32627.760
594.479, 32636.480
594.961, 32618.369
595.443, 32557.830
595.925, 32472.170
596.407, 32414.170
596.889, 32456.730
597.371, 32499.980
597.853, 32461.500
598.335, 32346.830
598.818, 32229.711
599.300, 32120.680
599.782, 32031.500
600.264, 31976.830
600.746, 31989.830
601.228, 31958.250
601.710, 31848.570
602.192, 31719.420
602.674, 31632.350
603.157, 31595.760
603.639, 31573.840
604.121, 31567.350
604.603, 31565.580
605.085, 31526.221
605.567, 31451.430
606.049, 31418.279
606.531, 31514.920
607.013, 31661.391
607.496, 31686.779
607.978, 31598.930
608.460, 31520.980
608.942, 31544.730
609.424, 31615.240
609.906, 31682.109
610.388, 31736.510
610.870, 31789.340
611.353, 31850.900
611.835, 31910.250
612.317, 31956.189
612.799, 31971.160
613.281, 31993.000
613.763, 32018.990
614.245, 32056.199
614.727, 32114.539
615.209, 32177.789
615.692, 32326.500
616.174, 32359.191
616.656, 32477.785
617.138, 32575.533
617.620, 32653.547
618.102, 32652.715
618.584, 32753.711
619.067, 32813.891
619.549, 32894.262
620.031, 32936.020
620.513, 33035.680
620.995, 33144.352
621.477, 33251.852
621.959, 33345.820
622.441, 33389.680
622.923, 33454.988
623.406, 33569.719
623.888, 33719.340
624.370, 33860.199
624.852, 33972.680
625.334, 34102.219
625.816, 34259.250
626.298, 34443.699
626.780, 34663.988
627.263, 34930.340
627.745, 35194.449
628.227, 35410.629
628.709, 35593.969
629.191, 35816.539
629.673, 36083.609
630.155, 36388.539
630.637, 36737.031
631.119, 37115.480
631.602, 37507.031
632.084, 37905.750
632.566, 38320.219
633.048, 38757.441
633.530, 39211.219
634.012, 39666.039
634.494, 40053.781
634.976, 40516.211
635.458, 41117.410
635.941, 41839.570
636.423, 42505.059
636.905, 43099.512
637.387, 43666.129
637.869, 44226.352
638.351, 44781.820
638.833, 45343.422
639.315, 45911.180
639.797, 46469.469
640.280, 47013.078
640.762, 47528.801
641.244, 47983.051
641.726, 48371.789
642.208, 48678.559
642.690, 48873.328
643.172, 48974.109
643.654, 49004.820
644.137, 48936.828
644.619, 48840.602
645.101, 48759.570
645.583, 48676.879
646.065, 48516.738
646.547, 48270.199
647.029, 47954.891
647.511, 47561.230
647.994, 47090.500
648.476, 46596.430
648.958, 46069.191
649.440, 45533.129
649.922, 45011.969
650.404, 44492.891
650.886, 43911.750
651.368, 43248.160
651.851, 42566.480
652.333, 41923.512
652.815, 41303.660
653.297, 40693.801
653.779, 40091.199
654.261, 39496.641
654.743, 38892.820
655.225, 38301.102
655.707, 37761.551
656.190, 37309.039
656.672, 36882.352
657.154, 36461.660
657.636, 36055.840
658.118, 35707.891
658.600, 35405.879
659.082, 35204.422
659.564, 34986.902
660.046, 34865.645
660.529, 34720.973
661.011, 34554.246
661.493, 34299.137
661.975, 34158.129
662.457, 33971.414
662.939, 33782.805
663.421, 33657.812
663.903, 33458.012
664.385, 33326.059
664.868, 33330.680
665.350, 33316.531
665.832, 33195.199
666.314, 33112.379
666.796, 33119.512
667.278, 33173.621
667.760, 33189.039
668.242, 33134.789
668.724, 33110.660
669.207, 33148.219
669.689, 33231.988
670.171, 33298.379
670.653, 33345.898
671.135, 33398.180
671.617, 33472.621
672.099, 33558.680
672.581, 33640.699
673.064, 33718.230
673.546, 33785.551
674.028, 33819.762
674.510, 33855.762
674.992, 33922.328
675.474, 34024.199
675.956, 34160.820
676.438, 34361.148
676.920, 34583.539
677.403, 34789.078
677.885, 34961.930
678.367, 35154.879
678.849, 35376.371
679.331, 35618.250
679.813, 35857.672
680.295, 36093.012
680.778, 36388.340
681.260, 36779.520
681.742, 37224.051
682.224, 37664.559
682.706, 38105.051
683.188, 38581.660
683.670, 39135.391
684.152, 39705.730
684.634, 40241.129
685.117, 40741.059
685.599, 41296.520
686.081, 41984.129
686.563, 42688.430
687.045, 43358.789
687.527, 44004.629
688.009, 44566.691
688.491, 45037.148
688.973, 45435.211
689.456, 45795.879
689.938, 46113.840
690.420, 46303.391
690.902, 46356.430
691.384, 46273.238
691.866, 46038.641
692.348, 45667.891
692.830, 45185.852
693.312, 44548.012
693.795, 43875.680
694.277, 43235.102
694.759, 42608.211
695.241, 41959.141
695.723, 41258.320
696.205, 40556.871
696.687, 39836.422
697.169, 39126.699
697.652, 38550.480
698.134, 38138.730
698.616, 37760.051
699.098, 37355.191
699.580, 36935.461
700.062, 36543.828
700.544, 36179.930
701.026, 35864.180
701.508, 35615.391
701.991, 35417.391
702.473, 35255.949
702.955, 35131.148
703.437, 35020.488
703.919, 34895.449
704.401, 34789.570
704.883, 34734.570
705.365, 34792.891
705.847, 34796.691
706.330, 34712.840
706.812, 34603.520
707.294, 34545.301
707.776, 34546.000
708.258, 34544.941
708.740, 34540.480
709.222, 34513.840
709.705, 34416.641
710.187, 34267.520
710.669, 34129.961
711.151, 34049.461
711.633, 33970.840
712.115, 33826.309
712.597, 33644.762
713.079, 33505.230
713.561, 33487.039
714.044, 33466.219
714.526, 33387.031
715.008, 33257.070
715.490, 33153.199
715.972, 33075.648
716.454, 33024.578
716.936, 33005.160
717.418, 33014.672
717.901, 33025.648
718.383, 33038.219
718.865, 33043.691
719.347, 33024.391
719.829, 32996.621
720.311, 32995.102
720.793, 33028.191
721.275, 33045.441
721.757, 32980.480
722.240, 32907.078
722.722, 32896.980
723.204, 33045.391
723.686, 33110.762
724.168, 33031.871
724.650, 32908.078
725.132, 32866.340
725.614, 32925.410
726.096, 32949.461
726.579, 32904.480
727.061, 32841.898
727.543, 32864.988
728.025, 32948.520
728.507, 32996.039
728.989, 32940.840
729.471, 32873.121
729.953, 32885.531
730.435, 32946.039
730.918, 32971.840
731.400, 32888.500
731.882, 32815.289
732.364, 32795.891
732.846, 32821.301
733.328, 32849.711
733.810, 32894.379
734.292, 32908.141
734.775, 32849.141
735.257, 32738.039
735.739, 32708.689
736.221, 32759.449
736.703, 32829.730
737.185, 32886.680
737.667, 32932.051
738.149, 32965.730
738.631, 32987.750
739.114, 33008.961
739.596, 33044.801
740.078, 33075.520
740.560, 33085.340
741.042, 33062.020
741.524, 33050.031
742.006, 33050.430
742.489, 33062.750
742.971, 33084.820
743.453, 33115.988
743.935, 33171.879
744.417, 33258.789
744.899, 33348.289
745.381, 33408.359
745.863, 33444.750
746.345, 33470.430
746.828, 33486.078
747.310, 33493.270
747.792, 33482.430
748.274, 33465.621
748.756, 33461.129
749.238, 33464.730
749.720, 33495.590
750.202, 33592.469
750.684, 33701.641
751.167, 33686.512
751.649, 33524.602
752.131, 33406.359
752.613, 33403.020
753.095, 33460.031
753.577, 33466.898
754.059, 33434.250
754.541, 33404.859
755.023, 33395.988
755.506, 33400.449
755.988, 33413.328
756.470, 33433.609
756.952, 33460.840
757.434, 33498.672
757.916, 33536.922
758.398, 33579.250
758.880, 33622.281
759.362, 33607.520
759.845, 33507.160
760.327, 33456.430
760.809, 33405.629
761.291, 33476.145
761.773, 33517.211
762.255, 33530.410
762.737, 33432.289
763.219, 33477.918
763.702, 33465.938
764.184, 33451.594
764.666, 33517.453
765.148, 33435.520
765.630, 33500.113
766.112, 33506.211
766.594, 33539.082
767.076, 33502.012
767.558, 33567.430
768.041, 33604.379
768.523, 33625.871
769.005, 33640.020
769.487, 33647.180
769.969, 33647.930
770.451, 33638.641
770.933, 33643.172
771.416, 33702.898
771.898, 33779.738
772.380, 33827.359
772.862, 33830.590
773.344, 33814.191
773.826, 33769.699
774.308, 33717.898
774.790, 33678.738
775.272, 33649.859
775.755, 33646.648
776.237, 33677.551
776.719, 33723.301
777.201, 33732.090
777.683, 33722.730
778.165, 33682.031
778.647, 33776.328
779.129, 33837.855
779.612, 33868.379
780.094, 33775.016
780.576, 33839.449
781.058, 33804.750
781.540, 33801.961
782.022, 33810.141
782.504, 33828.789
782.986, 33861.730
783.468, 33915.480
783.951, 33959.660
784.433, 33983.539
784.915, 33998.090
785.397, 34032.660
785.879, 34082.328
786.361, 34123.238
786.843, 34142.129
787.325, 34150.871
787.807, 34154.551
788.290, 34156.719
788.772, 34166.480
789.254, 34174.852
789.736, 34206.309
790.218, 34283.879
790.700, 34390.289
791.182, 34451.000
791.664, 34452.988
792.146, 34456.762
792.629, 34482.180
793.111, 34527.531
793.593, 34603.520
794.075, 34702.129
794.557, 34783.410
795.039, 34826.191
795.521, 34838.410
796.003, 34801.371
796.485, 34726.398
796.968, 34697.770
797.450, 34774.219
797.932, 34861.289
798.414, 34932.711
798.896, 34989.551
799.378, 35048.020
799.860, 35112.879
800.343, 35157.602
800.825, 35150.781
801.307, 35116.660
801.789, 35106.781
802.271, 35121.059
802.753, 35154.941
803.235, 35216.641
803.717, 35287.512
804.199, 35355.891
804.682, 35420.469
805.164, 35481.852
805.646, 35513.922
806.128, 35578.961
806.610, 35563.531
807.092, 35702.578
807.574, 35804.129
808.056, 35870.188
808.539, 35845.988
809.021, 35851.430
809.503, 35930.770
809.985, 36016.262
810.467, 36103.250
810.949, 36190.352
811.431, 36265.949
811.913, 36349.801
812.395, 36468.129
812.878, 36637.480
813.360, 36715.230
813.842, 36581.551
814.324, 36578.629
814.806, 36591.012
815.288, 36759.238
815.770, 36889.641
816.252, 36984.242
816.734, 36935.812
817.217, 37069.590
817.699, 37085.031
818.181, 37102.070
818.663, 37093.840
819.145, 37108.852
819.627, 37176.879
820.109, 37263.801
820.591, 37354.969
821.073, 37456.590
821.556, 37522.172
822.038, 37544.879
822.520, 37555.988
823.002, 37574.891
823.484, 37603.609
823.966, 37651.770
824.448, 37720.871
824.930, 37788.250
825.413, 37812.859
825.895, 37844.730
826.377, 37938.891
826.859, 38128.738
827.341, 38264.570
827.823, 38288.871
828.305, 38312.762
828.787, 38417.359
829.269, 38611.770
829.752, 38769.000
830.234, 38889.000
830.716, 38974.371
831.198, 38994.539
831.680, 38995.941
832.162, 39060.949
832.644, 39203.480
833.127, 39342.191
833.609, 39398.371
834.091, 39466.512
834.573, 39636.590
835.055, 39947.898
835.537, 40156.000
836.019, 40236.719
836.501, 40266.449
836.983, 40276.648
837.466, 40280.680
837.948, 40359.359
838.430, 40516.352
838.912, 40693.910
839.394, 40851.852
839.876, 41005.480
840.358, 41164.711
840.840, 41329.711
841.322, 41509.980
841.805, 41724.070
842.287, 41938.270
842.769, 42123.160
843.251, 42273.340
843.733, 42495.262
844.215, 42798.441
844.697, 43097.160
845.179, 43292.109
845.661, 43447.230
846.144, 43629.750
846.626, 43848.391
847.108, 43994.406
847.590, 44499.129
848.072, 44916.680
848.554, 45251.895
849.036, 45257.996
849.518, 45689.035
850.000, 45989.070
850.483, 46287.879
850.965, 46583.031
851.447, 46877.031
851.929, 47202.328
852.411, 47558.039
852.893, 47911.629
853.375, 48232.262
853.857, 48547.078
854.340, 48891.801
854.822, 49268.531
855.304, 49635.699
855.786, 49964.441
856.268, 50304.020
856.750, 50679.238
857.232, 51085.141
857.714, 51481.559
858.196, 51872.750
858.679, 52225.410
859.161, 52505.980
859.643, 52744.590
860.125, 52993.379
860.607, 53248.070
861.089, 53474.680
861.571, 53662.102
862.054, 53811.238
862.536, 53923.109
863.018, 53997.660
863.500, 54030.629
863.982, 54024.059
864.464, 53964.789
864.946, 53828.359
865.428, 53647.262
865.910, 53505.730
866.393, 53396.129
866.875, 53287.648
867.357, 53204.238
867.839, 53079.371
868.321, 52831.301
868.803, 52499.281
869.285, 52253.309
869.767, 52158.391
870.250, 52053.629
870.732, 51897.109
871.214, 51709.961
871.696, 51545.270
872.178, 51400.871
872.660, 51270.828
873.142, 51153.961
873.624, 51046.629
874.106, 50941.480
874.589, 50842.539
875.071, 50760.379
875.553, 50676.641
876.035, 50636.359
876.517, 50645.809
876.999, 50697.609
877.481, 50801.828
877.963, 50967.711
878.445, 51049.891
878.928, 50993.059
879.410, 50902.602
879.892, 50927.539
880.374, 51021.059
880.856, 51097.859
881.338, 51133.000
881.820, 51148.301
882.302, 51152.730
882.784, 51140.641
883.267, 51103.379
883.749, 51030.898
884.231, 50973.359
884.713, 50943.039
885.195, 50901.660
885.677, 50783.629
886.159, 50620.488
886.641, 50491.090
887.123, 50413.109
887.606, 50347.891
888.088, 50296.730
888.570, 50234.289
889.052, 50140.059
889.534, 50017.609
890.016, 49842.680
890.498, 49591.520
890.981, 49339.520
891.463, 49135.820
891.945, 48984.789
892.427, 48907.898
892.909, 48905.109
893.391, 48897.691
893.873, 48821.961
894.355, 48719.809
894.837, 48612.980
895.320, 48499.738
895.802, 48434.828
896.284, 48460.660
896.766, 48462.359
897.248, 48362.469
897.730, 48186.219
898.212, 48143.629
898.694, 48225.578
899.177, 48270.301
899.659, 48138.980
900.141, 47959.789
900.623, 47830.730
901.105, 47755.578
901.587, 47727.570
902.069, 47834.461
902.551, 47876.609
903.033, 47759.051
903.516, 47564.980
903.998, 47609.801
904.480, 47888.672
904.962, 48071.852
905.444, 47982.828
905.926, 47819.219
906.408, 47804.602
906.890, 47894.441
907.372, 48003.199
907.855, 48115.238
908.337, 48226.020
908.819, 48327.309
909.301, 48431.148
909.783, 48556.980
910.265, 48706.039
910.747, 48870.590
911.229, 49055.828
911.711, 49236.512
912.194, 49361.789
912.676, 49470.129
913.158, 49620.461
913.640, 49834.891
914.122, 50066.289
914.604, 50301.949
915.086, 50549.102
915.568, 50820.039
916.050, 51126.570
916.533, 51378.109
917.015, 51564.141
917.497, 51763.410
917.979, 52039.570
918.461, 52375.578
918.943, 52761.809
919.425, 53195.828
919.907, 53611.109
920.390, 53909.301
920.872, 54245.691
921.354, 54720.309
921.836, 55316.859
922.318, 55839.520
922.800, 56279.141
923.282, 56697.738
923.764, 57105.059
924.247, 57518.211
924.729, 57976.000
925.211, 58468.629
925.693, 58945.980
926.175, 59393.480
926.657, 59822.648
927.139, 60246.539
927.621, 60650.840
928.104, 61011.012
928.586, 61327.219
929.068, 61607.309
929.550, 61856.078
930.032, 62065.398
930.514, 62222.391
930.996, 62328.641
931.478, 62380.762
931.960, 62370.109
932.443, 62327.461
932.925, 62249.871
933.407, 62155.711
933.889, 62071.090
934.371, 62019.820
934.853, 61869.781
935.335, 61604.520
935.817, 61300.500
936.299, 61014.512
936.782, 60750.660
937.264, 60525.672
937.746, 60339.191
938.228, 60149.488
938.710, 60030.852
939.192, 59811.512
939.674, 59352.270
940.156, 58667.859
940.638, 58135.039
941.121, 57773.660
941.603, 57436.941
942.085, 57043.641
942.567, 56625.371
943.049, 56218.078
943.531, 55831.238
944.013, 55486.480
944.495, 55254.980
944.978, 55007.238
945.460, 54674.281
945.942, 54307.410
946.424, 54004.141
946.906, 53774.730
947.388, 53557.520
947.870, 53350.680
948.352, 53120.148
948.834, 52752.859
949.317, 52347.371
949.799, 52084.711
950.281, 52076.059
950.763, 52045.879
951.245, 51897.480
951.727, 51706.078
952.209, 51512.660
952.692, 51306.270
953.174, 51196.090
953.656, 51192.520
954.138, 51184.160
954.620, 51054.891
955.102, 50878.359
955.584, 50746.930
956.066, 50664.570
956.548, 50603.680
957.031, 50582.891
957.513, 50553.199
957.995, 50498.629
958.477, 50423.090
958.959, 50341.000
959.441, 50253.219
959.923, 50161.320
960.405, 50048.391
960.888, 49954.320
961.370, 49945.090
961.852, 49982.820
962.334, 49994.801
962.816, 49955.570
963.298, 49886.660
963.780, 49752.262
964.262, 49631.480
964.744, 49480.098
965.227, 49462.094
965.709, 49411.707
966.191, 49330.691
966.673, 49127.234
967.155, 49079.719
967.637, 48904.641
968.119, 48778.672
968.601, 48710.699
969.083, 48626.039
969.566, 48505.230
970.048, 48396.391
970.530, 48325.109
971.012, 48286.059
971.494, 48250.340
971.976, 48219.180
972.458, 48198.590
972.940, 48204.789
973.422, 48210.820
973.905, 48194.770
974.387, 48165.770
974.869, 48150.539
975.351, 48150.059
975.833, 48158.770
976.315, 48167.289
976.797, 48201.410
977.279, 48334.629
977.761, 48521.969
978.244, 48647.738
978.726, 48675.320
979.208, 48684.609
979.690, 48703.711
980.172, 48729.859
980.654, 48766.078
981.136, 48819.109
981.619, 48831.410
982.101, 48799.000
982.583, 48748.488
983.065, 48707.980
983.547, 48657.891
984.029, 48558.629
984.511, 48418.141
984.993, 48273.871
985.475, 48153.391
985.958, 48021.871
986.440, 47865.941
986.922, 47694.680
987.404, 47533.160
987.886, 47381.750
988.368, 47218.609
988.850, 47039.922
989.332, 46844.980
989.815, 46590.590
990.297, 46334.930
990.779, 46162.352
991.261, 46147.289
991.743, 46089.879
992.225, 45959.672
992.707, 45809.320
993.189, 45678.512
993.671, 45564.988
994.154, 45458.121
994.636, 45358.391
995.118, 45276.840
995.600, 45221.699
996.082, 45187.910
996.564, 45178.699
997.046, 45191.070
997.528, 45204.172
998.010, 45219.172
998.493, 45227.270
998.975, 45218.801
999.457, 45213.801
999.939, 45268.500
1000.421, 45354.570
1000.903, 45399.262
1001.385, 45356.820
1001.867, 45325.398
1002.349, 45355.801
1002.832, 45408.691
1003.314, 45453.219
1003.796, 45492.789
1004.278, 45492.961
1004.760, 45448.051
1005.242, 45418.520
1005.724, 45473.270
1006.206, 45556.699
1006.689, 45604.121
1007.171, 45615.879
1007.653, 45616.281
1008.135, 45593.078
1008.617, 45585.738
1009.099, 45609.211
1009.581, 45650.059
1010.063, 45673.160
1010.545, 45682.000
1011.028, 45697.270
1011.510, 45722.340
1011.992, 45761.719
1012.474, 45822.949
1012.956, 45897.422
1013.438, 45977.199
1013.920, 46067.801
1014.402, 46143.648
1014.885, 46203.090
1015.367, 46251.371
1015.849, 46271.211
1016.331, 46288.660
1016.813, 46394.172
1017.295, 46568.879
1017.777, 46689.680
1018.259, 46621.660
1018.741, 46574.078
1019.224, 46647.031
1019.706, 46790.680
1020.188, 46900.449
1020.670, 46977.051
1021.152, 47000.309
1021.634, 46944.840
1022.116, 46909.102
1022.598, 47049.219
1023.081, 47249.559
1023.563, 47363.340
1024.045, 47331.391
1024.527, 47314.480
1025.009, 47329.609
1025.491, 47349.039
1025.973, 47360.602
1026.455, 47360.801
1026.938, 47331.879
1027.420, 47276.570
1027.902, 47213.941
1028.384, 47132.691
1028.866, 47069.230
1029.348, 47066.898
1029.830, 47092.410
1030.312, 47065.191
1030.794, 46969.172
1031.276, 46912.180
1031.759, 46923.398
1032.241, 46929.281
1032.723, 46802.219
1033.205, 46631.570
1033.687, 46553.641
1034.169, 46603.340
1034.651, 46653.750
1035.133, 46671.488
1035.616, 46688.879
1036.098, 46716.250
1036.580, 46754.039
1037.062, 46809.000
1037.544, 46879.172
1038.026, 46951.070
1038.508, 47021.520
1038.990, 47086.270
1039.473, 47155.949
1039.955, 47211.699
1040.437, 47223.281
1040.919, 47180.000
1041.401, 47120.512
1041.883, 47042.512
1042.365, 46970.109
1042.847, 46952.859
1043.329, 46948.172
1043.812, 46876.488
1044.294, 46734.500
1044.776, 46591.398
1045.258, 46453.691
1045.740, 46348.859
1046.222, 46302.238
1046.704, 46289.059
1047.186, 46232.020
1047.668, 46132.262
1048.151, 45993.020
1048.633, 45794.621
1049.115, 45609.559
1049.597, 45507.520
1050.079, 45445.289
1050.561, 45372.699
1051.043, 45281.691
1051.525, 45192.480
1052.008, 45101.922
1052.490, 45022.809
1052.972, 44965.051
1053.454, 44925.469
1053.936, 44900.301
1054.418, 44888.309
1054.900, 44886.148
1055.382, 44913.828
1055.865, 44919.000
1056.347, 44874.879
1056.829, 44814.469
1057.311, 44815.461
1057.793, 44863.641
1058.275, 44836.109
1058.757, 44702.191
1059.239, 44558.930
1059.721, 44470.480
1060.203, 44416.180
1060.686, 44383.609
1061.168, 44371.980
1061.650, 44394.020
1062.132, 44466.699
1062.614, 44498.680
1063.096, 44435.789
1063.578, 44323.500
1064.060, 44199.680
1064.543, 44085.320
1065.025, 44023.512
1065.507, 44069.578
1065.989, 44114.820
1066.471, 44157.891
1066.953, 44183.711
1067.435, 44164.469
1067.917, 44111.219
1068.400, 44099.840
1068.882, 44130.570
1069.364, 44144.199
1069.846, 44068.512
1070.328, 43997.281
1070.810, 43992.199
1071.292, 44036.172
1071.774, 44074.211
1072.256, 44104.461
1072.739, 44135.211
1073.221, 44168.980
1073.703, 44196.441
1074.185, 44191.730
1074.667, 44180.020
1075.149, 44203.648
1075.631, 44289.148
1076.113, 44310.090
1076.596, 44228.531
1077.078, 44147.461
1077.560, 44125.809
1078.042, 44144.020
1078.524, 44147.090
1079.006, 44138.328
1079.488, 44125.410
1079.970, 44105.629
1080.453, 44092.488
1080.935, 44093.699
1081.417, 44103.090
1081.899, 44119.379
1082.381, 44143.020
1082.863, 44134.551
1083.345, 44089.781
1083.827, 44068.891
1084.309, 44149.590
1084.792, 44246.020
1085.274, 44279.379
1085.756, 44257.641
1086.238, 44272.590
1086.720, 44337.762
1087.202, 44398.809
1087.684, 44447.730
1088.166, 44476.379
1088.648, 44462.969
1089.131, 44425.559
1089.613, 44396.250
1090.095, 44385.590
1090.577, 44360.469
1091.059, 44286.922
1091.541, 44240.840
1092.023, 44265.820
1092.505, 44345.949
1092.988, 44424.238
1093.470, 44498.969
1093.952, 44564.711
1094.434, 44628.820
1094.916, 44668.719
1095.398, 44597.641
1095.880, 44545.301
1096.362, 44686.801
1096.844, 45062.352
1097.327, 45261.609
1097.809, 45269.449
1098.291, 45185.988
1098.773, 45021.289
1099.255, 44857.820
1099.737, 44772.559
1100.219, 44756.250
1100.701, 44751.930
1101.183, 44755.789
1101.666, 44772.871
1102.148, 44808.961
1102.630, 44845.820
1103.112, 44848.691
1103.594, 44839.340
1104.076, 44866.031
1104.558, 44941.551
1105.040, 44969.289
1105.523, 44865.180
1106.005, 44795.441
1106.487, 44838.570
1106.969, 44946.809
1107.451, 44975.852
1107.933, 44941.320
1108.415, 44900.551
1108.897, 44856.941
1109.380, 44846.980
1109.862, 44947.180
1110.344, 45043.230
1110.826, 45026.789
1111.308, 44890.672
1111.790, 44816.469
1112.272, 44804.199
1112.754, 44824.672
1113.236, 44899.398
1113.719, 44962.531
1114.201, 44942.398
1114.683, 44876.828
1115.165, 44852.852
1115.647, 44878.719
1116.129, 44927.500
1116.611, 45001.730
1117.093, 45069.629
1117.575, 45089.730
1118.058, 45089.250
1118.540, 45111.980
1119.022, 45155.840
1119.504, 45157.809
1119.986, 45069.328
1120.468, 45021.961
1120.950, 45063.488
1121.432, 45133.309
1121.915, 45121.629
1122.397, 45056.711
1122.879, 44997.520
1123.361, 44953.371
1123.843, 44936.410
1124.325, 44952.551
1124.807, 45001.809
1125.289, 45103.262
1125.771, 45235.219
1126.254, 45286.230
1126.736, 45269.141
1127.218, 45253.941
1127.700, 45258.781
1128.182, 45287.160
1128.664, 45365.000
1129.146, 45448.051
1129.628, 45483.422
1130.110, 45459.469
1130.593, 45509.379
1131.075, 45632.891
1131.557, 45738.699
1132.039, 45747.641
1132.521, 45733.141
1133.003, 45752.320
1133.485, 45792.750
1133.967, 45825.840
1134.450, 45861.629
1134.932, 45847.590
1135.414, 45772.410
1135.896, 45694.648
1136.378, 45675.730
1136.860, 45686.801
1137.342, 45694.969
1137.824, 45699.648
1138.307, 45711.340
1138.789, 45729.141
1139.271, 45762.172
1139.753, 45821.988
1140.235, 45875.172
1140.717, 45845.379
1141.199, 45776.660
1141.681, 45758.262
1142.163, 45811.578
1142.646, 45841.281
1143.128, 45791.352
1143.610, 45760.809
1144.092, 45800.059
1144.574, 45874.898
1145.056, 45881.180
1145.538, 45838.648
1146.020, 45806.789
1146.502, 45811.859
1146.985, 45818.039
1147.467, 45815.148
1147.949, 45809.102
1148.431, 45794.930
1148.913, 45778.879
1149.395, 45828.480
1149.877, 45934.121
1150.359, 46022.660
1150.842, 46032.590
1151.324, 46039.238
1151.806, 46090.641
1152.288, 46149.590
1152.770, 46163.570
1153.252, 46124.941
1153.734, 46132.691
1154.216, 46188.969
1154.698, 46242.090
1155.181, 46232.910
1155.663, 46225.281
1156.145, 46282.102
1156.627, 46376.691
1157.109, 46426.160
1157.591, 46420.922
1158.073, 46435.422
1158.555, 46483.352
1159.037, 46527.840
1159.520, 46529.840
1160.002, 46514.738
1160.484, 46502.262
1160.966, 46494.840
1161.448, 46497.449
1161.930, 46510.770
1162.412, 46532.621
1162.894, 46570.141
1163.377, 46591.641
1163.859, 46530.551
1164.341, 46443.102
1164.823, 46409.461
1165.305, 46449.551
1165.787, 46472.090
1166.269, 46463.980
1166.751, 46460.461
1167.234, 46475.379
1167.716, 46504.449
1168.198, 46559.230
1168.680, 46616.809
1169.162, 46627.852
1169.644, 46553.301
1170.126, 46511.961
1170.608, 46513.828
1171.090, 46549.762
1171.573, 46622.480
1172.055, 46719.500
1172.537, 46821.000
1173.019, 46917.430
1173.501, 46980.578
1173.983, 46952.070
1174.465, 46968.391
1174.947, 47082.219
1175.430, 47189.012
1175.912, 47178.852
1176.394, 47089.809
1176.876, 47074.609
1177.358, 47126.789
1177.840, 47205.109
1178.322, 47358.160
1178.804, 47442.160
1179.286, 47388.359
1179.769, 47294.691
1180.251, 47286.309
1180.733, 47342.270
1181.215, 47324.012
1181.697, 47235.781
1182.179, 47218.680
1182.661, 47454.961
1183.143, 47649.590
1183.625, 47667.059
1184.108, 47597.289
1184.590, 47587.262
1185.072, 47627.941
1185.554, 47663.121
1186.036, 47685.801
1186.518, 47679.711
1187.000, 47571.051
1187.482, 47500.820
1187.965, 47568.871
1188.447, 47715.609
1188.929, 47789.531
1189.411, 47794.340
1189.893, 47740.430
1190.375, 47618.730
1190.857, 47520.578
1191.339, 47507.410
1191.822, 47546.949
1192.304, 47644.109
1192.786, 47773.090
1193.268, 47778.379
1193.750, 47671.410
1194.232, 47642.621
1194.714, 47775.078
1195.196, 47916.191
1195.678, 47940.930
1196.161, 47938.211
1196.643, 48000.629
1197.125, 48119.762
1197.607, 48100.879
1198.089, 47949.391
1198.571, 47826.051
1199.053, 47800.801
1199.535, 47821.078
1200.017, 47872.879
1200.500, 47934.469
1200.982, 47987.211
1201.464, 48031.820
1201.946, 48039.109
1202.428, 48009.520
1202.910, 48005.371
1203.392, 48076.980
1203.874, 48164.699
1204.357, 48246.941
1204.839, 48304.629
1205.321, 48307.809
1205.803, 48242.340
1206.285, 48217.520
1206.767, 48234.020
1207.249, 48250.891
1207.731, 48212.738
1208.214, 48194.039
1208.696, 48270.961
1209.178, 48396.320
1209.660, 48481.789
1210.142, 48517.078
1210.624, 48581.199
1211.106, 48678.000
1211.588, 48772.141
1212.070, 48849.680
1212.552, 48900.449
1213.035, 48907.879
1213.517, 48883.480
1213.999, 48849.219
1214.481, 48798.340
1214.963, 48812.891
1215.445, 48903.949
1215.927, 48988.129
1216.409, 48994.281
1216.892, 48970.820
1217.374, 48948.051
1217.856, 48926.941
1218.338, 48900.000
1218.820, 48865.379
1219.302, 48863.660
1219.784, 48904.672
1220.266, 48936.520
1220.749, 48884.039
1221.231, 48833.699
1221.713, 48859.910
1222.195, 48944.020
1222.677, 49020.879
1223.159, 49090.770
1223.641, 49129.840
1224.123, 49126.578
1224.605, 49144.629
1225.088, 49283.352
1225.570, 49423.789
1226.052, 49452.949
1226.534, 49402.012
1227.016, 49394.461
1227.498, 49430.102
1227.980, 49458.750
1228.462, 49466.898
1228.944, 49473.949
1229.427, 49469.031
1229.909, 49493.699
1230.391, 49612.309
1230.873, 49792.410
1231.355, 49835.629
1231.837, 49752.160
1232.319, 49732.180
1232.801, 49845.711
1233.284, 49961.930
1233.766, 49995.898
1234.248, 49982.711
1234.730, 49926.531
1235.212, 49845.180
1235.694, 49872.988
1236.176, 49996.551
1236.658, 50102.648
1237.141, 50150.020
1237.623, 50184.172
1238.105, 50236.148
1238.587, 50280.480
1239.069, 50293.738
1239.551, 50283.379
1240.033, 50312.539
1240.515, 50370.539
1240.997, 50384.301
1241.479, 50298.809
1241.962, 50237.949
1242.444, 50283.789
1242.926, 50365.781
1243.408, 50447.059
1243.890, 50523.961
1244.372, 50552.320
1244.854, 50544.379
1245.336, 50555.898
1245.819, 50628.570
1246.301, 50677.750
1246.783, 50619.789
1247.265, 50581.359
1247.747, 50662.879
1248.229, 50824.180
1248.711, 50896.648
1249.193, 50894.000
1249.676, 50868.762
1250.158, 50820.262
1250.640, 50790.879
1251.122, 50799.219
1251.604, 50815.539
1252.086, 50814.680
1252.568, 50810.289
1253.050, 50862.699
1253.532, 50949.660
1254.015, 50999.309
1254.497, 50947.949
1254.979, 50917.449
1255.461, 50891.621
1255.943, 50941.789
1256.425, 51218.422
1256.907, 51567.148
1257.389, 51574.051
1257.871, 51351.871
1258.354, 51191.789
1258.836, 51212.699
1259.318, 51261.301
1259.800, 51347.359
1260.282, 51416.461
1260.764, 51418.898
1261.246, 51382.879
1261.728, 51338.391
1262.211, 51294.891
1262.693, 51275.969
1263.175, 51315.969
1263.657, 51310.250
1264.139, 51249.449
1264.621, 51189.852
1265.103, 51168.969
1265.585, 51181.449
1266.068, 51257.879
1266.550, 51356.359
1267.032, 51371.020
1267.514, 51257.238
1267.996, 51230.910
1268.478, 51303.801
1268.960, 51403.070
1269.442, 51468.609
1269.924, 51539.699
1270.407, 51658.500
1270.889, 51798.078
1271.371, 51915.672
1271.853, 52012.051
1272.335, 52039.488
1272.817, 51996.809
1273.299, 51979.469
1273.781, 52065.148
1274.264, 52181.391
1274.746, 52333.148
1275.228, 52459.070
1275.710, 52439.930
1276.192, 52291.680
1276.674, 52323.910
1277.156, 52532.988
1277.638, 52722.309
1278.120, 52798.922
1278.603, 52813.691
1279.085, 52777.781
1279.567, 52704.949
1280.049, 52584.109
1280.531, 52436.578
1281.013, 52351.328
1281.495, 52329.789
1281.977, 52359.738
1282.459, 52494.711
1282.942, 52593.430
1283.424, 52625.871
1283.906, 52628.840
1284.388, 52623.949
1284.870, 52624.801
1285.352, 52683.980
1285.834, 52781.629
1286.316, 52829.930
1286.799, 52764.660
1287.281, 52713.051
1287.763, 52678.391
1288.245, 52682.738
1288.727, 52798.988
1289.209, 52928.500
1289.691, 52903.578
1290.173, 52779.980
1290.656, 52757.000
1291.138, 52885.211
1291.620, 52983.289
1292.102, 53041.219
1292.584, 53063.359
1293.066, 53010.070
##END=



