##NAMES=Vesuvianite
##RRUFFID=R050035
##IDEAL CHEMISTRY=(Ca,Na)_19_(Al,Mg,Fe^3+^)_13_(SiO_4_)_10_(Si_2_O_7_)_4_(OH,F,O)_10_
##LOCALITY=Olmsteadville, New York, USA
##OWNER=RRUFF
##SOURCE=University of Arizona Mineral Museum
##DESCRIPTION=Brown single crystal fragment
##STATUS=The identification of this mineral has been confirmed by X-ray diffraction and chemical analysis
##URL=rruff.info/R050035
##MEASURED CHEMISTRY=(Ca_18.66_Na_0.34_)_Σ=19_(Al_9.16_Mg_1.28_Ti_1.21_Fe^3+^_0.89_Fe^2+^_0.46_)_Σ=13_Si_18_O_68_((OH)_4.70_F_3.18_O_2.12_)_Σ=10_
168.9465, 4460.417
169.4286, 4489.297
169.9107, 4522.711
170.3929, 4557.506
170.8750, 4587.909
171.3571, 4605.990
171.8392, 4619.969
172.3213, 4639.561
172.8034, 4667.398
173.2856, 4695.484
173.7677, 4710.287
174.2498, 4717.244
174.7319, 4734.608
175.2140, 4786.088
175.6961, 4852.036
176.1783, 4901.275
176.6604, 4923.915
177.1425, 4934.889
177.6246, 4949.272
178.1067, 4966.840
178.5888, 4987.157
179.0710, 5011.984
179.5531, 5039.038
180.0352, 5062.626
180.5173, 5079.988
180.9994, 5094.444
181.4815, 5113.029
181.9637, 5135.635
182.4458, 5153.778
182.9279, 5155.846
183.4100, 5146.291
183.8921, 5142.284
184.3742, 5151.626
184.8564, 5168.387
185.3385, 5180.344
185.8206, 5187.765
186.3027, 5188.364
186.7848, 5177.328
187.2669, 5155.909
187.7491, 5133.537
188.2312, 5114.943
188.7133, 5098.111
189.1954, 5074.537
189.6775, 5043.701
190.1596, 5009.021
190.6418, 4969.402
191.1239, 4925.424
191.6060, 4892.187
192.0881, 4881.131
192.5702, 4889.249
193.0524, 4890.477
193.5345, 4884.461
194.0166, 4872.555
194.4987, 4852.244
194.9808, 4822.390
195.4629, 4801.275
195.9451, 4803.545
196.4272, 4828.567
196.9093, 4839.840
197.3914, 4832.832
197.8735, 4817.400
198.3556, 4811.271
198.8378, 4815.013
199.3199, 4824.322
199.8020, 4838.981
200.2841, 4859.438
200.7662, 4876.559
201.2483, 4889.362
201.7305, 4898.961
202.2126, 4906.552
202.6947, 4910.604
203.1768, 4918.372
203.6589, 4935.019
204.1410, 4961.357
204.6232, 4989.909
205.1053, 5020.579
205.5874, 5052.796
206.0695, 5085.645
206.5516, 5120.596
207.0337, 5152.310
207.5159, 5176.999
207.9980, 5193.388
208.4801, 5205.514
208.9622, 5209.456
209.4443, 5209.565
209.9264, 5230.081
210.4086, 5278.964
210.8907, 5332.452
211.3728, 5372.209
211.8549, 5396.427
212.3370, 5413.014
212.8191, 5417.680
213.3013, 5413.727
213.7834, 5432.524
214.2655, 5484.333
214.7476, 5542.587
215.2297, 5582.924
215.7118, 5599.114
216.1940, 5615.557
216.6761, 5635.857
217.1582, 5660.036
217.6403, 5688.405
218.1224, 5725.182
218.6045, 5760.092
219.0867, 5782.382
219.5688, 5787.399
220.0509, 5790.628
220.5330, 5797.134
221.0151, 5807.343
221.4972, 5803.943
221.9794, 5781.521
222.4615, 5751.529
222.9436, 5725.589
223.4257, 5704.763
223.9078, 5685.977
224.3899, 5671.855
224.8721, 5663.721
225.3542, 5637.957
225.8363, 5580.087
226.3184, 5518.084
226.8005, 5487.422
227.2827, 5508.042
227.7648, 5522.207
228.2469, 5512.883
228.7290, 5475.968
229.2111, 5447.438
229.6932, 5427.366
230.1754, 5415.936
230.6575, 5414.123
231.1396, 5425.911
231.6217, 5440.512
232.1038, 5456.485
232.5859, 5475.315
233.0681, 5486.390
233.5502, 5482.890
234.0323, 5476.488
234.5144, 5485.628
234.9965, 5520.901
235.4786, 5553.641
235.9608, 5573.486
236.4429, 5575.527
236.9250, 5587.458
237.4071, 5617.240
237.8892, 5651.880
238.3713, 5670.862
238.8535, 5670.450
239.3356, 5660.267
239.8177, 5638.730
240.2998, 5596.958
240.7819, 5579.233
241.2640, 5595.048
241.7462, 5629.086
242.2283, 5655.288
242.7104, 5670.155
243.1925, 5682.948
243.6746, 5697.051
244.1567, 5714.088
244.6389, 5726.670
245.1210, 5732.509
245.6031, 5735.241
246.0852, 5740.801
246.5673, 5748.385
247.0494, 5760.246
247.5316, 5778.581
248.0137, 5807.043
248.4958, 5828.932
248.9779, 5839.354
249.4600, 5845.853
249.9421, 5862.627
250.4243, 5894.147
250.9064, 5928.207
251.3885, 5962.592
251.8706, 6001.897
252.3527, 6024.550
252.8348, 6021.118
253.3170, 6006.873
253.7991, 6013.222
254.2812, 6052.975
254.7633, 6088.646
255.2454, 6105.537
255.7275, 6098.934
256.2097, 6090.137
256.6918, 6078.571
257.1739, 6065.311
257.6560, 6053.496
258.1381, 6047.338
258.6202, 6033.723
259.1024, 6004.958
259.5845, 5955.788
260.0666, 5914.023
260.5487, 5879.124
261.0308, 5852.167
261.5129, 5835.959
261.9951, 5836.103
262.4772, 5833.895
262.9593, 5820.493
263.4414, 5792.062
263.9235, 5769.764
264.4056, 5752.852
264.8878, 5742.573
265.3699, 5741.673
265.8520, 5752.395
266.3341, 5766.161
266.8162, 5782.061
267.2983, 5801.838
267.7805, 5809.333
268.2626, 5797.688
268.7447, 5781.332
269.2268, 5788.272
269.7089, 5825.559
270.1910, 5860.831
270.6732, 5882.506
271.1553, 5889.740
271.6374, 5885.683
272.1195, 5861.454
272.6016, 5838.978
273.0837, 5861.754
273.5659, 5939.917
274.0480, 6011.707
274.5301, 6050.653
275.0122, 6055.196
275.4943, 6064.438
275.9764, 6077.402
276.4586, 6096.909
276.9407, 6129.810
277.4228, 6177.135
277.9049, 6225.149
278.3870, 6269.065
278.8691, 6308.903
279.3513, 6343.235
279.8334, 6369.685
280.3155, 6396.740
280.7976, 6439.624
281.2798, 6498.869
281.7619, 6552.830
282.2440, 6590.656
282.7261, 6614.839
283.2082, 6645.841
283.6903, 6685.554
284.1725, 6725.117
284.6546, 6753.349
285.1367, 6770.304
285.6188, 6783.660
286.1009, 6796.844
286.5830, 6808.663
287.0652, 6814.083
287.5473, 6812.973
288.0294, 6805.996
288.5115, 6791.785
288.9936, 6771.044
289.4757, 6750.289
289.9579, 6731.368
290.4400, 6713.980
290.9221, 6697.183
291.4042, 6681.059
291.8863, 6664.468
292.3684, 6649.480
292.8506, 6634.104
293.3327, 6609.240
293.8148, 6567.483
294.2969, 6516.955
294.7790, 6470.605
295.2611, 6428.270
295.7433, 6392.194
296.2254, 6368.776
296.7075, 6353.115
297.1896, 6332.051
297.6717, 6298.233
298.1538, 6259.585
298.6360, 6226.988
299.1181, 6200.127
299.6002, 6178.798
300.0823, 6166.726
300.5644, 6159.397
301.0465, 6147.158
301.5287, 6122.314
302.0108, 6098.040
302.4929, 6094.114
302.9750, 6106.972
303.4571, 6116.403
303.9392, 6097.810
304.4214, 6070.868
304.9035, 6063.245
305.3856, 6088.749
305.8677, 6123.885
306.3498, 6150.996
306.8319, 6171.038
307.3141, 6187.901
307.7962, 6203.447
308.2783, 6216.833
308.7604, 6225.850
309.2425, 6225.684
309.7246, 6230.340
310.2068, 6249.493
310.6889, 6280.625
311.1710, 6317.269
311.6531, 6367.925
312.1352, 6415.870
312.6173, 6446.138
313.0995, 6450.395
313.5816, 6453.489
314.0637, 6463.206
314.5458, 6480.117
315.0279, 6505.268
315.5100, 6545.455
315.9922, 6589.172
316.4743, 6629.392
316.9564, 6663.431
317.4385, 6701.765
317.9206, 6751.830
318.4027, 6807.357
318.8849, 6859.583
319.3670, 6914.557
319.8491, 6958.449
320.3312, 6979.899
320.8133, 6972.437
321.2954, 6978.093
321.7776, 7018.193
322.2597, 7070.359
322.7418, 7110.742
323.2239, 7131.565
323.7060, 7144.642
324.1881, 7149.407
324.6703, 7144.875
325.1524, 7145.432
325.6345, 7154.569
326.1166, 7167.842
326.5987, 7181.750
327.0808, 7194.688
327.5630, 7210.188
328.0451, 7231.956
328.5272, 7259.307
329.0093, 7277.562
329.4914, 7287.483
329.9735, 7287.334
330.4557, 7274.417
330.9378, 7236.290
331.4199, 7207.539
331.9020, 7195.939
332.3841, 7196.524
332.8662, 7183.430
333.3484, 7147.317
333.8305, 7111.878
334.3126, 7089.834
334.7947, 7084.167
335.2768, 7084.410
335.7589, 7094.097
336.2411, 7107.186
336.7232, 7105.445
337.2053, 7081.912
337.6874, 7063.954
338.1695, 7068.117
338.6516, 7097.955
339.1338, 7118.820
339.6159, 7129.636
340.0980, 7131.856
340.5801, 7123.465
341.0622, 7102.455
341.5443, 7088.769
342.0265, 7093.058
342.5086, 7113.306
342.9907, 7131.282
343.4728, 7146.550
343.9549, 7160.651
344.4370, 7177.377
344.9192, 7195.821
345.4013, 7207.478
345.8834, 7205.134
346.3655, 7194.861
346.8476, 7191.751
347.3297, 7195.815
347.8119, 7205.991
348.2940, 7221.335
348.7761, 7242.075
349.2582, 7269.252
349.7403, 7308.599
350.2225, 7349.604
350.7046, 7375.912
351.1867, 7389.148
351.6688, 7400.005
352.1509, 7409.271
352.6331, 7422.886
353.1152, 7453.009
353.5973, 7512.410
354.0794, 7569.925
354.5615, 7587.528
355.0436, 7578.164
355.5258, 7581.227
356.0079, 7630.282
356.4900, 7694.630
356.9721, 7747.994
357.4542, 7784.831
357.9363, 7815.811
358.4185, 7844.636
358.9006, 7871.888
359.3827, 7898.578
359.8648, 7916.929
360.3469, 7941.296
360.8290, 7982.420
361.3112, 8044.051
361.7933, 8102.408
362.2754, 8147.836
362.7575, 8187.331
363.2396, 8228.674
363.7217, 8270.470
364.2039, 8316.858
364.6860, 8374.027
365.1681, 8442.338
365.6502, 8497.782
366.1323, 8528.220
366.6144, 8551.125
367.0966, 8578.653
367.5787, 8621.004
368.0608, 8655.679
368.5429, 8682.136
369.0250, 8700.126
369.5071, 8707.973
369.9893, 8704.091
370.4714, 8692.015
370.9535, 8671.975
371.4356, 8638.019
371.9177, 8611.378
372.3998, 8599.510
372.8820, 8591.316
373.3641, 8560.089
373.8462, 8497.676
374.3283, 8433.720
374.8104, 8381.813
375.2925, 8343.053
375.7747, 8297.957
376.2568, 8245.334
376.7389, 8187.994
377.2210, 8129.970
377.7031, 8071.322
378.1852, 8011.424
378.6674, 7949.304
379.1495, 7885.738
379.6316, 7817.812
380.1137, 7744.768
380.5958, 7679.404
381.0779, 7639.075
381.5601, 7618.875
382.0422, 7597.703
382.5243, 7570.492
383.0064, 7539.666
383.4885, 7507.389
383.9706, 7473.903
384.4528, 7443.247
384.9349, 7420.293
385.4170, 7401.174
385.8991, 7375.681
386.3812, 7337.390
386.8633, 7307.936
387.3455, 7317.747
387.8276, 7352.236
388.3097, 7378.208
388.7918, 7369.844
389.2739, 7351.786
389.7560, 7342.079
390.2382, 7342.181
390.7203, 7349.790
391.2024, 7369.812
391.6845, 7394.510
392.1666, 7415.229
392.6487, 7420.783
393.1309, 7429.497
393.6130, 7451.259
394.0951, 7484.899
394.5772, 7514.974
395.0593, 7533.400
395.5414, 7549.693
396.0236, 7569.606
396.5057, 7590.390
396.9878, 7619.163
397.4699, 7659.385
397.9520, 7708.417
398.4341, 7757.551
398.9163, 7808.742
399.3984, 7857.958
399.8805, 7903.645
400.3626, 7945.063
400.8447, 7985.452
401.3268, 8027.056
401.8090, 8065.919
402.2911, 8096.144
402.7732, 8113.923
403.2553, 8132.070
403.7374, 8153.052
404.2195, 8176.973
404.7017, 8207.488
405.1838, 8247.496
405.6659, 8286.598
406.1480, 8316.653
406.6301, 8337.839
407.1122, 8348.932
407.5944, 8347.189
408.0765, 8337.817
408.5586, 8333.874
409.0407, 8335.211
409.5228, 8334.840
410.0049, 8333.442
410.4871, 8326.956
410.9692, 8300.179
411.4513, 8247.827
411.9334, 8189.867
412.4155, 8152.033
412.8976, 8126.869
413.3798, 8094.495
413.8619, 8038.160
414.3440, 7973.871
414.8261, 7922.228
415.3082, 7883.233
415.7903, 7833.299
416.2725, 7745.849
416.7546, 7642.740
417.2367, 7546.597
417.7188, 7467.410
418.2009, 7396.027
418.6830, 7334.155
419.1652, 7278.432
419.6473, 7218.947
420.1294, 7145.313
420.6115, 7071.715
421.0937, 7005.881
421.5758, 6956.648
422.0579, 6901.067
422.5400, 6826.547
423.0221, 6745.796
423.5042, 6678.222
423.9864, 6635.594
424.4685, 6594.372
424.9506, 6548.774
425.4327, 6498.973
425.9148, 6450.153
426.3969, 6402.119
426.8791, 6355.309
427.3612, 6310.075
427.8433, 6265.340
428.3254, 6226.198
428.8075, 6194.816
429.2896, 6169.122
429.7718, 6142.731
430.2539, 6115.336
430.7360, 6088.629
431.2181, 6061.324
431.7002, 6034.120
432.1823, 6021.346
432.6645, 6028.074
433.1466, 6034.627
433.6287, 6004.536
434.1108, 5946.364
434.5929, 5903.209
435.0750, 5906.182
435.5572, 5929.884
436.0393, 5926.302
436.5214, 5896.735
437.0035, 5868.680
437.4856, 5871.027
437.9677, 5886.287
438.4499, 5888.182
438.9320, 5859.644
439.4141, 5833.941
439.8962, 5844.633
440.3783, 5877.576
440.8604, 5896.617
441.3426, 5860.977
441.8247, 5825.485
442.3068, 5826.770
442.7889, 5878.465
443.2710, 5920.199
443.7531, 5931.376
444.2353, 5926.095
444.7174, 5920.127
445.1995, 5911.688
445.6816, 5907.042
446.1637, 5903.954
446.6458, 5903.465
447.1280, 5919.270
447.6101, 5967.790
448.0922, 6014.610
448.5743, 6039.269
449.0564, 6032.421
449.5385, 6028.193
450.0207, 6026.330
450.5028, 6028.494
450.9849, 6041.147
451.4670, 6067.620
451.9491, 6086.870
452.4312, 6087.389
452.9134, 6072.242
453.3955, 6064.702
453.8776, 6064.852
454.3597, 6071.908
454.8418, 6093.057
455.3239, 6122.715
455.8061, 6134.260
456.2882, 6113.553
456.7703, 6085.063
457.2524, 6088.292
457.7345, 6116.043
458.2166, 6139.039
458.6988, 6129.646
459.1809, 6111.359
459.6630, 6112.655
460.1451, 6139.276
460.6272, 6164.299
461.1093, 6178.375
461.5915, 6178.566
462.0736, 6160.717
462.5557, 6095.937
463.0378, 6039.892
463.5199, 6015.223
464.0020, 6019.408
464.4842, 6030.596
464.9663, 6058.713
465.4484, 6082.050
465.9305, 6088.809
466.4126, 6069.662
466.8947, 6049.637
467.3769, 6027.994
467.8590, 6005.882
468.3411, 5984.154
468.8232, 5959.973
469.3053, 5942.359
469.7874, 5935.340
470.2696, 5938.211
470.7517, 5939.151
471.2338, 5939.393
471.7159, 5934.004
472.1980, 5916.498
472.6801, 5887.080
473.1623, 5858.064
473.6444, 5829.334
474.1265, 5804.932
474.6086, 5795.910
475.0907, 5799.801
475.5728, 5800.641
476.0550, 5784.273
476.5371, 5761.415
477.0192, 5752.030
477.5013, 5756.913
477.9834, 5760.727
478.4655, 5742.586
478.9477, 5719.064
479.4298, 5713.409
479.9119, 5752.932
480.3940, 5785.971
480.8761, 5775.898
481.3582, 5736.673
481.8404, 5708.461
482.3225, 5714.834
482.8046, 5726.554
483.2867, 5728.850
483.7688, 5715.321
484.2509, 5710.288
484.7331, 5719.374
485.2152, 5736.072
485.6973, 5754.852
486.1794, 5775.888
486.6615, 5799.042
487.1436, 5826.054
487.6258, 5855.369
488.1079, 5878.686
488.5900, 5893.425
489.0721, 5908.933
489.5542, 5934.447
490.0363, 5970.314
490.5185, 5985.693
491.0006, 5974.480
491.4827, 5960.084
491.9648, 5979.045
492.4470, 6024.740
492.9291, 6059.774
493.4112, 6062.521
493.8933, 6054.737
494.3754, 6073.563
494.8575, 6115.006
495.3397, 6152.808
495.8218, 6166.224
496.3039, 6169.113
496.7860, 6175.279
497.2681, 6186.301
497.7502, 6202.969
498.2324, 6232.666
498.7145, 6266.366
499.1966, 6292.372
499.6787, 6295.550
500.1608, 6301.991
500.6429, 6323.376
501.1251, 6358.478
501.6072, 6385.132
502.0893, 6391.695
502.5714, 6398.793
503.0535, 6416.819
503.5356, 6452.409
504.0178, 6483.430
504.4999, 6511.077
504.9820, 6532.723
505.4641, 6542.434
505.9462, 6537.359
506.4283, 6535.169
506.9105, 6541.763
507.3926, 6554.908
507.8747, 6568.719
508.3568, 6583.693
508.8389, 6590.237
509.3210, 6570.117
509.8032, 6536.177
510.2853, 6528.937
510.7674, 6559.433
511.2495, 6590.963
511.7316, 6577.222
512.2137, 6537.074
512.6959, 6509.134
513.1780, 6520.106
513.6601, 6539.568
514.1422, 6550.157
514.6243, 6552.242
515.1064, 6550.173
515.5886, 6552.365
516.0707, 6546.163
516.5528, 6519.816
517.0349, 6448.261
517.5170, 6405.562
517.9991, 6428.237
518.4813, 6472.317
518.9634, 6481.228
519.4455, 6432.055
519.9276, 6386.563
520.4097, 6354.917
520.8918, 6337.056
521.3740, 6330.829
521.8561, 6338.405
522.3382, 6350.431
522.8203, 6365.594
523.3024, 6382.806
523.7845, 6381.652
524.2667, 6357.155
524.7488, 6328.834
525.2309, 6325.511
525.7130, 6339.215
526.1951, 6341.533
526.6772, 6312.495
527.1594, 6276.919
527.6415, 6265.451
528.1236, 6273.924
528.6057, 6283.873
529.0878, 6289.041
529.5699, 6288.819
530.0521, 6278.880
530.5342, 6253.823
531.0163, 6241.012
531.4984, 6261.699
531.9805, 6293.596
532.4626, 6313.075
532.9448, 6299.926
533.4269, 6294.999
533.9090, 6309.908
534.3911, 6337.119
534.8732, 6344.646
535.3553, 6319.916
535.8375, 6299.262
536.3196, 6301.505
536.8017, 6328.219
537.2838, 6344.566
537.7659, 6349.577
538.2480, 6347.869
538.7302, 6340.838
539.2123, 6329.901
539.6944, 6326.000
540.1765, 6333.476
540.6586, 6345.364
541.1407, 6351.435
541.6229, 6353.462
542.1050, 6357.899
542.5871, 6374.795
543.0692, 6391.356
543.5513, 6392.154
544.0334, 6376.601
544.5156, 6366.380
544.9977, 6378.052
545.4798, 6395.555
545.9619, 6406.206
546.4440, 6405.354
546.9261, 6400.959
547.4083, 6387.907
547.8904, 6373.201
548.3725, 6370.552
548.8546, 6391.575
549.3367, 6405.361
549.8188, 6402.471
550.3010, 6384.500
550.7831, 6370.987
551.2652, 6363.923
551.7473, 6354.606
552.2294, 6331.923
552.7115, 6298.314
553.1937, 6282.337
553.6758, 6289.273
554.1579, 6301.283
554.6400, 6296.044
555.1221, 6277.872
555.6042, 6259.351
556.0864, 6246.200
556.5685, 6233.140
557.0506, 6213.238
557.5327, 6188.638
558.0148, 6167.630
558.4969, 6155.825
558.9791, 6147.636
559.4612, 6140.200
559.9433, 6133.391
560.4254, 6126.500
560.9075, 6126.707
561.3896, 6122.495
561.8718, 6102.604
562.3539, 6045.490
562.8360, 6010.377
563.3181, 6010.082
563.8002, 6030.630
564.2823, 6038.718
564.7645, 6032.365
565.2466, 6021.647
565.7287, 6006.040
566.2108, 5988.992
566.6929, 5992.891
567.1750, 6018.671
567.6572, 6043.448
568.1393, 6043.568
568.6214, 6029.364
569.1035, 6020.726
569.5856, 6020.611
570.0677, 6026.610
570.5499, 6040.876
571.0320, 6059.102
571.5141, 6074.563
571.9962, 6085.997
572.4783, 6093.012
572.9604, 6090.884
573.4426, 6082.421
573.9247, 6081.895
574.4068, 6094.171
574.8889, 6112.759
575.3710, 6137.109
575.8531, 6169.397
576.3353, 6194.645
576.8174, 6212.163
577.2995, 6223.296
577.7816, 6225.055
578.2637, 6215.278
578.7458, 6221.828
579.2280, 6253.338
579.7101, 6294.432
580.1922, 6314.982
580.6743, 6318.822
581.1564, 6327.606
581.6385, 6359.743
582.1207, 6398.044
582.6028, 6414.204
583.0849, 6411.594
583.5670, 6417.675
584.0491, 6460.130
584.5313, 6510.385
585.0134, 6545.179
585.4955, 6556.000
585.9776, 6567.549
586.4597, 6586.167
586.9418, 6608.592
587.4240, 6630.989
587.9061, 6653.395
588.3882, 6675.533
588.8703, 6696.572
589.3524, 6717.540
589.8345, 6740.777
590.3167, 6765.500
590.7988, 6796.176
591.2809, 6838.944
591.7630, 6889.623
592.2451, 6921.453
592.7272, 6933.728
593.2094, 6944.427
593.6915, 6966.625
594.1736, 6998.267
594.6557, 7037.881
595.1378, 7086.766
595.6199, 7133.687
596.1021, 7174.144
596.5842, 7206.046
597.0663, 7226.490
597.5485, 7216.549
598.0306, 7213.676
598.5127, 7229.682
598.9948, 7262.623
599.4769, 7304.094
599.9590, 7367.941
600.4412, 7422.934
600.9233, 7453.895
601.4054, 7458.315
601.8875, 7482.513
602.3696, 7531.734
602.8517, 7587.559
603.3339, 7639.511
603.8160, 7686.849
604.2981, 7707.538
604.7802, 7693.752
605.2623, 7671.319
605.7444, 7669.942
606.2266, 7686.524
606.7087, 7713.185
607.1908, 7758.704
607.6729, 7801.381
608.1550, 7823.108
608.6371, 7827.704
609.1193, 7828.326
609.6014, 7816.115
610.0835, 7813.268
610.5656, 7836.677
611.0477, 7892.733
611.5298, 7931.275
612.0120, 7944.288
612.4941, 7945.632
612.9762, 7942.490
613.4583, 7932.267
613.9404, 7927.870
614.4225, 7932.125
614.9047, 7938.271
615.3868, 7938.078
615.8689, 7931.485
616.3510, 7916.983
616.8331, 7890.936
617.3152, 7861.031
617.7974, 7836.409
618.2795, 7817.564
618.7616, 7804.964
619.2437, 7808.310
619.7258, 7811.064
620.2079, 7796.840
620.6901, 7765.131
621.1722, 7740.233
621.6543, 7741.819
622.1364, 7745.032
622.6185, 7732.975
623.1006, 7696.324
623.5828, 7662.821
624.0649, 7632.075
624.5470, 7604.834
625.0291, 7583.124
625.5112, 7568.348
625.9933, 7551.055
626.4755, 7528.495
626.9576, 7504.241
627.4397, 7488.392
627.9218, 7479.420
628.4039, 7465.674
628.8860, 7427.393
629.3682, 7388.325
629.8503, 7394.934
630.3324, 7439.398
630.8145, 7462.419
631.2966, 7405.576
631.7787, 7331.383
632.2609, 7285.620
632.7430, 7281.919
633.2251, 7275.890
633.7072, 7255.165
634.1893, 7231.273
634.6714, 7214.405
635.1536, 7211.509
635.6357, 7199.684
636.1178, 7174.891
636.5999, 7143.153
637.0820, 7115.228
637.5641, 7091.380
638.0463, 7068.302
638.5284, 7046.403
639.0105, 7023.111
639.4926, 6990.743
639.9747, 6950.646
640.4568, 6911.696
640.9390, 6878.254
641.4211, 6848.568
641.9032, 6823.175
642.3853, 6802.179
642.8674, 6776.345
643.3495, 6741.009
643.8317, 6700.261
644.3138, 6655.667
644.7959, 6601.503
645.2780, 6555.293
645.7601, 6517.140
646.2422, 6486.957
646.7244, 6467.753
647.2065, 6463.945
647.6886, 6447.890
648.1707, 6411.590
648.6528, 6365.458
649.1349, 6331.401
649.6171, 6307.484
650.0992, 6279.080
650.5813, 6236.896
651.0634, 6188.032
651.5455, 6137.669
652.0276, 6086.760
652.5098, 6042.882
652.9919, 6012.170
653.4740, 5987.996
653.9561, 5966.559
654.4382, 5947.392
654.9203, 5931.678
655.4025, 5927.085
655.8846, 5919.824
656.3667, 5898.729
656.8488, 5855.001
657.3309, 5825.022
657.8130, 5813.625
658.2952, 5809.317
658.7773, 5791.489
659.2594, 5762.250
659.7415, 5750.720
660.2236, 5771.417
660.7057, 5801.723
661.1879, 5811.766
661.6700, 5805.041
662.1521, 5791.001
662.6342, 5763.297
663.1163, 5739.197
663.5984, 5734.539
664.0806, 5746.387
664.5627, 5749.387
665.0448, 5723.324
665.5269, 5699.908
666.0090, 5691.455
666.4911, 5698.532
666.9733, 5719.120
667.4554, 5760.152
667.9375, 5800.949
668.4196, 5822.926
668.9017, 5826.744
669.3839, 5830.753
669.8660, 5836.150
670.3481, 5843.854
670.8302, 5851.032
671.3123, 5861.636
671.7944, 5885.070
672.2766, 5929.061
672.7587, 5978.413
673.2408, 6029.506
673.7229, 6078.230
674.2050, 6117.597
674.6871, 6138.393
675.1693, 6157.289
675.6514, 6177.482
676.1335, 6199.384
676.6156, 6224.591
677.0977, 6253.139
677.5798, 6284.317
678.0620, 6312.268
678.5441, 6340.170
679.0262, 6402.977
679.5083, 6503.186
679.9904, 6606.024
680.4725, 6685.275
680.9547, 6747.701
681.4368, 6799.256
681.9189, 6837.178
682.4010, 6892.846
682.8831, 7005.729
683.3652, 7137.677
683.8474, 7248.121
684.3295, 7308.019
684.8116, 7378.021
685.2937, 7472.410
685.7758, 7579.430
686.2579, 7684.164
686.7401, 7787.733
687.2222, 7884.196
687.7043, 7968.382
688.1864, 8047.743
688.6685, 8144.758
689.1506, 8257.884
689.6328, 8362.115
690.1149, 8450.357
690.5970, 8521.607
691.0791, 8569.711
691.5612, 8598.057
692.0433, 8622.673
692.5255, 8669.174
693.0076, 8701.921
693.4897, 8695.473
693.9718, 8645.523
694.4539, 8586.468
694.9360, 8526.016
695.4182, 8455.112
695.9003, 8366.195
696.3824, 8256.655
696.8645, 8145.265
697.3466, 8032.347
697.8287, 7916.727
698.3109, 7794.003
698.7930, 7666.413
699.2751, 7544.247
699.7572, 7429.172
700.2393, 7324.684
700.7214, 7239.435
701.2036, 7166.721
701.6857, 7095.295
702.1678, 7016.317
702.6499, 6943.601
703.1320, 6883.016
703.6141, 6832.498
704.0963, 6786.625
704.5784, 6743.704
705.0605, 6706.434
705.5426, 6677.330
706.0247, 6654.063
706.5068, 6625.653
706.9890, 6590.918
707.4711, 6559.645
707.9532, 6534.348
708.4353, 6516.921
708.9174, 6515.918
709.3995, 6530.083
709.8817, 6547.530
710.3638, 6565.824
710.8459, 6579.950
711.3280, 6578.730
711.8101, 6557.248
712.2922, 6556.545
712.7744, 6605.233
713.2565, 6666.308
713.7386, 6715.358
714.2207, 6749.089
714.7028, 6776.788
715.1849, 6791.681
715.6671, 6812.840
716.1492, 6869.479
716.6313, 6957.610
717.1134, 7033.801
717.5955, 7087.366
718.0776, 7135.515
718.5598, 7195.930
719.0419, 7265.919
719.5240, 7340.074
720.0061, 7419.436
720.4882, 7499.752
720.9703, 7582.490
721.4525, 7665.131
721.9346, 7742.080
722.4167, 7795.904
722.8988, 7867.595
723.3809, 7969.393
723.8630, 8094.348
724.3452, 8216.447
724.8273, 8335.528
725.3094, 8449.604
725.7915, 8549.758
726.2736, 8645.961
726.7557, 8768.706
727.2379, 8914.878
727.7200, 9059.950
728.2021, 9179.397
728.6842, 9296.601
729.1663, 9436.094
729.6484, 9599.985
730.1306, 9757.448
730.6127, 9888.998
731.0948, 10020.63
731.5769, 10167.88
732.0590, 10336.79
732.5411, 10501.77
733.0233, 10661.97
733.5054, 10820.14
733.9875, 10978.38
734.4696, 11137.34
734.9517, 11294.93
735.4338, 11450.91
735.9160, 11610.68
736.3981, 11786.20
736.8802, 11967.02
737.3623, 12137.57
737.8444, 12292.05
738.3266, 12439.57
738.8087, 12580.53
739.2908, 12719.41
739.7729, 12860.87
740.2551, 13004.34
740.7372, 13154.67
741.2193, 13319.91
741.7014, 13486.03
742.1835, 13617.94
742.6656, 13714.66
743.1478, 13817.27
743.6299, 13941.06
744.1120, 14076.48
744.5941, 14220.31
745.0762, 14364.15
745.5583, 14486.46
746.0405, 14554.90
746.5226, 14617.50
747.0047, 14714.41
747.4868, 14834.43
747.9689, 14906.53
748.4510, 14888.08
748.9332, 14864.92
749.4153, 14866.03
749.8974, 14887.91
750.3795, 14889.71
750.8616, 14870.69
751.3438, 14838.19
751.8259, 14790.71
752.3080, 14734.54
752.7901, 14691.99
753.2722, 14661.68
753.7543, 14607.17
754.2365, 14475.36
754.7186, 14329.11
755.2007, 14229.86
755.6828, 14197.29
756.1649, 14127.94
756.6470, 13977.96
757.1292, 13808.61
757.6113, 13653.31
758.0934, 13513.27
758.5755, 13383.61
759.0576, 13264.83
759.5397, 13150.74
760.0219, 13039.94
760.5040, 12927.85
760.9861, 12797.06
761.4682, 12640.87
761.9503, 12495.08
762.4324, 12403.92
762.9146, 12331.45
763.3967, 12232.63
763.8788, 12061.87
764.3609, 11921.43
764.8430, 11844.13
765.3251, 11797.42
765.8073, 11745.33
766.2894, 11685.48
766.7715, 11630.99
767.2536, 11585.75
767.7357, 11543.41
768.2178, 11482.48
768.7000, 11412.20
769.1821, 11374.16
769.6642, 11394.59
770.1463, 11430.38
770.6284, 11450.84
771.1105, 11459.06
771.5927, 11461.00
772.0748, 11449.21
772.5569, 11442.02
773.0390, 11441.58
773.5211, 11448.95
774.0032, 11472.15
774.4854, 11520.28
774.9675, 11548.31
775.4496, 11534.83
775.9317, 11499.61
776.4138, 11492.42
776.8959, 11509.43
777.3781, 11529.59
777.8602, 11553.07
778.3423, 11565.93
778.8244, 11552.24
779.3065, 11516.66
779.7886, 11479.30
780.2708, 11424.46
780.7529, 11393.66
781.2350, 11418.97
781.7171, 11488.37
782.1992, 11477.94
782.6813, 11367.33
783.1635, 11258.05
783.6456, 11200.98
784.1277, 11185.43
784.6098, 11189.43
785.0919, 11208.86
785.5740, 11204.07
786.0562, 11123.11
786.5383, 11025.97
787.0204, 10970.04
787.5025, 10957.90
787.9846, 10928.19
788.4667, 10840.25
788.9489, 10757.02
789.4310, 10707.08
789.9131, 10693.17
790.3952, 10669.94
790.8773, 10637.93
791.3594, 10594.89
791.8416, 10527.10
792.3237, 10448.84
792.8058, 10405.08
793.2879, 10397.00
793.7700, 10385.05
794.2521, 10339.67
794.7343, 10280.05
795.2164, 10220.22
795.6985, 10159.60
796.1806, 10107.00
796.6627, 10064.96
797.1448, 10028.18
797.6270, 9995.724
798.1091, 9969.092
798.5912, 9935.265
799.0733, 9893.940
799.5554, 9844.660
800.0375, 9783.753
800.5197, 9716.044
801.0018, 9646.772
801.4839, 9575.349
801.9660, 9517.403
802.4481, 9498.721
802.9302, 9487.568
803.4124, 9454.640
803.8945, 9374.387
804.3766, 9323.463
804.8587, 9318.924
805.3408, 9321.259
805.8229, 9290.737
806.3051, 9227.631
806.7872, 9172.895
807.2693, 9128.983
807.7514, 9099.105
808.2335, 9098.262
808.7156, 9108.960
809.1978, 9102.294
809.6799, 9065.810
810.1620, 9033.663
810.6441, 9024.831
811.1262, 9024.348
811.6083, 9017.302
812.0905, 8998.176
812.5726, 8984.067
813.0547, 8975.901
813.5368, 8971.871
814.0189, 8975.176
814.5010, 8982.641
814.9832, 8971.885
815.4653, 8935.523
815.9474, 8899.620
816.4295, 8890.849
816.9116, 8895.377
817.3937, 8896.746
817.8759, 8893.649
818.3580, 8881.865
818.8401, 8855.941
819.3222, 8823.980
819.8043, 8791.431
820.2864, 8756.266
820.7686, 8730.256
821.2507, 8715.504
821.7328, 8707.532
822.2149, 8705.896
822.6970, 8706.372
823.1791, 8697.616
823.6613, 8675.850
824.1434, 8648.905
824.6255, 8607.307
825.1076, 8570.189
825.5897, 8559.537
826.0718, 8625.027
826.5540, 8648.603
827.0361, 8611.984
827.5182, 8554.522
828.0003, 8521.767
828.4824, 8513.714
828.9645, 8508.144
829.4467, 8501.315
829.9288, 8498.880
830.4109, 8515.456
830.8930, 8538.055
831.3751, 8545.311
831.8572, 8524.049
832.3394, 8504.496
832.8215, 8491.875
833.3036, 8489.358
833.7857, 8500.879
834.2678, 8533.597
834.7499, 8558.736
835.2321, 8573.333
835.7142, 8582.604
836.1963, 8593.725
836.6784, 8605.209
837.1605, 8607.618
837.6426, 8594.959
838.1248, 8592.320
838.6069, 8632.105
839.0890, 8686.451
839.5711, 8723.627
840.0532, 8725.331
840.5353, 8730.996
841.0175, 8743.100
841.4996, 8760.108
841.9817, 8782.018
842.4638, 8809.282
842.9459, 8828.264
843.4280, 8834.380
843.9102, 8849.388
844.3923, 8906.266
844.8744, 8985.328
845.3565, 9057.219
845.8386, 9119.987
846.3207, 9162.353
846.8029, 9146.566
847.2850, 9129.935
847.7671, 9167.172
848.2492, 9295.543
848.7313, 9372.906
849.2134, 9384.563
849.6956, 9381.233
850.1777, 9414.721
850.6598, 9475.720
851.1419, 9533.603
851.6240, 9585.322
852.1061, 9629.665
852.5883, 9658.207
853.0704, 9684.137
853.5525, 9720.840
854.0346, 9774.094
854.5167, 9825.952
854.9988, 9879.696
855.4810, 9926.286
855.9631, 9956.062
856.4452, 9968.743
856.9273, 9994.343
857.4094, 10034.60
857.8915, 10072.40
858.3737, 10089.14
858.8558, 10095.86
859.3379, 10104.41
859.8200, 10115.80
860.3021, 10134.26
860.7842, 10166.89
861.2664, 10202.04
861.7485, 10231.59
862.2306, 10254.55
862.7127, 10289.85
863.1948, 10344.06
863.6769, 10382.94
864.1591, 10366.05
864.6412, 10319.72
865.1233, 10311.57
865.6054, 10340.69
866.0875, 10366.50
866.5696, 10358.33
867.0518, 10344.64
867.5339, 10346.43
868.0160, 10365.97
868.4981, 10370.68
868.9802, 10356.19
869.4623, 10335.77
869.9445, 10313.42
870.4266, 10290.45
870.9087, 10272.04
871.3908, 10258.16
871.8729, 10250.55
872.3550, 10264.64
872.8372, 10273.64
873.3193, 10245.18
873.8014, 10187.11
874.2835, 10147.15
874.7656, 10161.18
875.2477, 10164.01
875.7299, 10134.69
876.2120, 10082.96
876.6941, 10046.78
877.1762, 10026.23
877.6583, 10004.88
878.1404, 9972.810
878.6226, 9939.478
879.1047, 9917.392
879.5869, 9904.265
880.0690, 9893.630
880.5511, 9886.544
881.0332, 9877.644
881.5153, 9865.472
881.9974, 9850.485
882.4796, 9832.846
882.9617, 9812.235
883.4438, 9790.150
883.9259, 9766.000
884.4080, 9742.937
884.8901, 9733.120
885.3723, 9727.953
885.8544, 9705.746
886.3365, 9644.786
886.8186, 9589.102
887.3007, 9561.994
887.7828, 9550.646
888.2650, 9536.680
888.7471, 9517.172
889.2292, 9501.963
889.7113, 9491.560
890.1934, 9486.308
890.6755, 9495.828
891.1577, 9510.979
891.6398, 9498.290
892.1219, 9445.987
892.6040, 9395.163
893.0861, 9377.360
893.5682, 9373.294
894.0504, 9364.495
894.5325, 9343.133
895.0146, 9330.149
895.4967, 9322.586
895.9788, 9328.787
896.4609, 9371.714
896.9431, 9439.938
897.4252, 9451.108
897.9073, 9400.186
898.3894, 9347.846
898.8715, 9327.406
899.3536, 9333.803
899.8358, 9372.260
900.3179, 9446.399
900.8000, 9500.211
901.2821, 9517.178
901.7642, 9529.153
902.2463, 9549.833
902.7285, 9577.903
903.2106, 9605.671
903.6927, 9633.186
904.1748, 9664.107
904.6569, 9702.487
905.1390, 9744.435
905.6212, 9785.371
906.1033, 9825.910
906.5854, 9871.609
907.0675, 9934.901
907.5496, 9989.113
908.0317, 10022.90
908.5139, 10045.17
908.9960, 10084.35
909.4781, 10140.37
909.9602, 10200.78
910.4423, 10260.15
910.9244, 10322.46
911.4066, 10392.78
911.8887, 10468.91
912.3708, 10547.92
912.8529, 10636.76
913.3350, 10717.12
913.8171, 10779.49
914.2993, 10835.90
914.7814, 10903.66
915.2635, 10984.18
915.7456, 11058.60
916.2277, 11125.31
916.7098, 11181.15
917.1920, 11207.16
917.6741, 11225.20
918.1562, 11268.83
918.6383, 11349.58
919.1204, 11437.48
919.6025, 11549.10
920.0847, 11643.25
920.5668, 11686.36
921.0489, 11668.73
921.5310, 11668.57
922.0131, 11686.32
922.4952, 11717.22
922.9774, 11766.21
923.4595, 11821.61
923.9416, 11867.73
924.4237, 11903.35
924.9058, 11930.34
925.3879, 11957.32
925.8701, 11966.62
926.3522, 11942.63
926.8343, 11892.26
927.3164, 11876.46
927.7985, 11899.09
928.2806, 11920.15
928.7628, 11923.32
929.2449, 11912.31
929.7270, 11885.30
930.2091, 11848.69
930.6912, 11819.03
931.1733, 11818.86
931.6555, 11808.40
932.1376, 11764.51
932.6197, 11707.98
933.1018, 11675.86
933.5839, 11672.12
934.0660, 11658.22
934.5482, 11622.33
935.0303, 11588.97
935.5124, 11595.73
935.9945, 11625.43
936.4766, 11650.70
936.9587, 11671.85
937.4409, 11670.29
937.9230, 11610.50
938.4051, 11548.09
938.8872, 11529.02
939.3693, 11563.41
939.8514, 11577.67
940.3336, 11568.44
940.8157, 11561.95
941.2978, 11588.67
941.7799, 11627.60
942.2620, 11650.89
942.7441, 11656.61
943.2263, 11648.26
943.7084, 11599.59
944.1905, 11567.11
944.6726, 11579.53
945.1547, 11628.03
945.6368, 11658.01
946.1190, 11669.12
946.6011, 11670.87
947.0832, 11663.41
947.5653, 11653.43
948.0474, 11649.38
948.5295, 11649.78
949.0117, 11651.25
949.4938, 11648.79
949.9759, 11652.62
950.4580, 11667.75
950.9401, 11687.45
951.4222, 11700.99
951.9044, 11708.29
952.3865, 11719.72
952.8686, 11739.47
953.3507, 11751.34
953.8328, 11724.20
954.3149, 11685.48
954.7971, 11674.35
955.2792, 11710.67
955.7613, 11726.45
956.2434, 11699.20
956.7255, 11663.95
957.2076, 11644.57
957.6898, 11639.95
958.1719, 11606.42
958.6540, 11544.33
959.1361, 11495.79
959.6182, 11509.54
960.1003, 11534.09
960.5825, 11524.30
961.0646, 11482.03
961.5467, 11427.81
962.0288, 11352.56
962.5109, 11287.17
962.9930, 11247.01
963.4752, 11215.77
963.9573, 11141.79
964.4394, 11035.31
964.9215, 10959.75
965.4036, 10954.78
965.8857, 10948.95
966.3679, 10879.18
966.8500, 10776.51
967.3321, 10680.34
967.8142, 10602.07
968.2963, 10520.42
968.7784, 10432.42
969.2606, 10348.17
969.7427, 10280.48
970.2248, 10226.04
970.7069, 10174.64
971.1890, 10125.64
971.6711, 10074.19
972.1533, 10010.33
972.6354, 9949.273
973.1175, 9904.534
973.5996, 9875.941
974.0817, 9843.682
974.5638, 9809.643
975.0460, 9764.582
975.5281, 9698.753
976.0102, 9624.298
976.4923, 9563.305
976.9744, 9514.957
977.4565, 9476.858
977.9387, 9475.885
978.4208, 9452.293
978.9029, 9359.314
979.3850, 9244.257
979.8671, 9169.646
980.3492, 9140.747
980.8314, 9128.693
981.3135, 9134.539
981.7956, 9137.798
982.2777, 9117.030
982.7598, 9078.792
983.2419, 9030.481
983.7241, 8972.275
984.2062, 8912.175
984.6883, 8836.597
985.1704, 8777.100
985.6525, 8753.946
986.1346, 8762.318
986.6168, 8750.895
987.0989, 8720.071
987.5810, 8682.314
988.0631, 8646.014
988.5452, 8604.842
989.0273, 8547.030
989.5095, 8480.094
989.9916, 8423.936
990.4737, 8385.413
990.9558, 8354.531
991.4379, 8335.358
991.9200, 8316.464
992.4022, 8272.622
992.8843, 8212.327
993.3664, 8174.126
993.8485, 8168.957
994.3306, 8163.961
994.8127, 8132.757
995.2949, 8094.266
995.7770, 8066.095
996.2591, 8051.278
996.7412, 8030.641
997.2233, 8002.833
997.7054, 7974.814
998.1876, 7950.958
998.6697, 7929.912
999.1518, 7906.360
999.6339, 7882.044
1000.116, 7863.552
1000.598, 7850.510
1001.080, 7847.794
1001.562, 7867.601
1002.044, 7893.786
1002.527, 7893.286
1003.009, 7863.387
1003.491, 7848.629
1003.973, 7860.709
1004.455, 7875.135
1004.937, 7857.607
1005.419, 7829.844
1005.901, 7823.168
1006.384, 7852.334
1006.866, 7860.945
1007.348, 7827.174
1007.830, 7795.913
1008.312, 7794.810
1008.794, 7818.297
1009.276, 7837.253
1009.758, 7851.092
1010.240, 7855.926
1010.723, 7845.202
1011.205, 7828.976
1011.687, 7808.972
1012.169, 7788.814
1012.651, 7777.992
1013.133, 7780.537
1013.615, 7780.263
1014.097, 7774.023
1014.580, 7766.185
1015.062, 7763.322
1015.544, 7763.177
1016.026, 7760.963
1016.508, 7755.192
1016.990, 7751.113
1017.472, 7750.480
1017.954, 7752.699
1018.436, 7758.141
1018.919, 7766.539
1019.401, 7772.974
1019.883, 7777.446
1020.365, 7780.348
1020.847, 7788.208
1021.329, 7789.369
1021.811, 7757.665
1022.293, 7711.128
1022.776, 7694.762
1023.258, 7753.651
1023.740, 7779.327
1024.222, 7748.537
1024.704, 7702.436
1025.186, 7705.219
1025.668, 7740.656
1026.150, 7750.157
1026.632, 7723.817
1027.115, 7696.744
1027.597, 7681.794
1028.079, 7680.767
1028.561, 7698.886
1029.043, 7734.630
1029.525, 7767.025
1030.007, 7796.743
1030.489, 7812.276
1030.972, 7797.390
1031.454, 7777.571
1031.936, 7792.416
1032.418, 7829.275
1032.900, 7860.720
1033.382, 7872.864
1033.864, 7885.705
1034.346, 7894.340
1034.828, 7913.325
1035.311, 7971.293
1035.793, 8058.889
1036.275, 8100.947
1036.757, 8091.528
1037.239, 8092.498
1037.721, 8169.548
1038.203, 8254.021
1038.685, 8286.476
1039.167, 8273.535
1039.650, 8305.040
1040.132, 8394.097
1040.614, 8469.616
1041.096, 8505.478
1041.578, 8516.873
1042.060, 8520.470
1042.542, 8518.025
1043.024, 8513.748
1043.507, 8516.487
1043.989, 8501.500
1044.471, 8459.806
1044.953, 8404.884
1045.435, 8347.122
1045.917, 8286.012
1046.399, 8203.169
1046.881, 8100.153
1047.364, 8008.494
1047.846, 7972.924
1048.328, 7934.382
1048.810, 7841.753
1049.292, 7709.113
1049.774, 7604.014
1050.256, 7531.968
1050.738, 7471.889
1051.220, 7423.419
1051.703, 7375.095
1052.185, 7311.745
1052.667, 7238.207
1053.149, 7158.865
1053.631, 7069.194
1054.113, 7000.428
1054.595, 6982.844
1055.077, 6962.770
1055.559, 6910.331
1056.042, 6831.377
1056.524, 6762.579
1057.006, 6702.946
1057.488, 6644.373
1057.970, 6572.706
1058.452, 6510.795
1058.934, 6477.997
1059.416, 6462.944
1059.899, 6444.602
1060.381, 6423.369
1060.863, 6392.817
1061.345, 6349.599
1061.827, 6308.723
1062.309, 6290.609
1062.791, 6281.738
1063.273, 6257.735
1063.755, 6217.124
1064.238, 6191.918
1064.720, 6199.092
1065.202, 6214.241
1065.684, 6239.444
1066.166, 6261.347
1066.648, 6230.095
1067.130, 6158.213
1067.612, 6100.805
1068.094, 6075.807
1068.577, 6068.441
1069.059, 6085.315
1069.541, 6104.855
1070.023, 6104.578
1070.505, 6079.201
1070.987, 6063.423
1071.469, 6057.376
1071.951, 6057.452
1072.434, 6063.771
1072.916, 6072.844
1073.398, 6085.291
1073.880, 6097.492
1074.362, 6096.982
1074.844, 6067.201
1075.326, 6048.721
1075.808, 6049.628
1076.291, 6057.737
1076.773, 6054.345
1077.255, 6044.300
1077.737, 6043.362
1078.219, 6054.345
1078.701, 6062.055
1079.183, 6056.723
1079.665, 6047.684
1080.147, 6036.475
1080.630, 6025.551
1081.112, 6035.710
1081.594, 6065.786
1082.076, 6078.369
1082.558, 6050.977
1083.040, 6016.993
1083.522, 6002.726
1084.004, 6001.589
1084.486, 6005.682
1084.969, 6015.922
1085.451, 6026.938
1085.933, 6040.353
1086.415, 6048.126
1086.897, 6038.680
1087.379, 6022.163
1087.861, 6015.001
1088.343, 6016.742
1088.826, 6023.664
1089.308, 6042.380
1089.790, 6055.689
1090.272, 6061.581
1090.754, 6059.622
1091.236, 6042.738
1091.718, 6016.234
1092.200, 6006.694
1092.682, 6019.113
1093.165, 6033.941
1093.647, 6041.411
1094.129, 6045.000
1094.611, 6045.276
1095.093, 6043.352
1095.575, 6049.125
1096.057, 6063.225
1096.539, 6067.700
1097.022, 6049.063
1097.504, 6031.692
1097.986, 6046.377
1098.468, 6075.663
1098.950, 6096.739
1099.432, 6110.909
1099.914, 6098.800
1100.396, 6050.915
1100.879, 6008.274
1101.361, 6005.706
1101.843, 6026.550
1102.325, 6043.184
1102.807, 6054.892
1103.289, 6060.152
1103.771, 6052.088
1104.253, 6045.431
1104.735, 6039.519
1105.218, 6039.906
1105.700, 6059.737
1106.182, 6093.746
1106.664, 6117.070
1107.146, 6127.201
1107.628, 6126.402
1108.110, 6099.607
1108.592, 6078.980
1109.074, 6085.366
1109.557, 6112.567
1110.039, 6140.269
1110.521, 6168.830
1111.003, 6183.768
1111.485, 6176.378
1111.967, 6167.405
1112.449, 6177.970
1112.931, 6196.815
1113.414, 6212.468
1113.896, 6223.659
1114.378, 6231.542
1114.860, 6236.578
1115.342, 6236.065
1115.824, 6224.245
1116.306, 6209.539
1116.788, 6204.992
1117.271, 6208.137
1117.753, 6213.464
1118.235, 6222.733
1118.717, 6229.090
1119.199, 6232.304
1119.681, 6232.374
1120.163, 6226.929
1120.645, 6218.687
1121.127, 6218.976
1121.609, 6226.560
1122.092, 6225.921
1122.574, 6202.609
1123.056, 6177.059
1123.538, 6149.786
1124.020, 6129.145
1124.502, 6137.635
1124.984, 6171.260
1125.466, 6194.678
1125.949, 6199.937
1126.431, 6205.798
1126.913, 6236.400
1127.395, 6262.676
1127.877, 6253.784
1128.359, 6217.103
1128.841, 6219.987
1129.323, 6265.356
1129.806, 6296.873
1130.288, 6287.149
1130.770, 6270.280
1131.252, 6290.215
1131.734, 6319.367
1132.216, 6318.014
1132.698, 6268.837
1133.180, 6238.112
1133.662, 6228.347
1134.145, 6227.349
1134.627, 6227.713
1135.109, 6231.758
1135.591, 6251.392
1136.073, 6277.307
1136.555, 6285.418
1137.037, 6239.418
1137.519, 6223.172
1138.001, 6253.353
1138.484, 6289.049
1138.966, 6280.028
1139.448, 6245.506
1139.930, 6234.651
1140.412, 6247.319
1140.894, 6256.593
1141.376, 6240.611
1141.858, 6234.892
1142.341, 6255.271
1142.823, 6283.494
1143.305, 6278.444
1143.787, 6250.317
1144.269, 6250.457
1144.751, 6290.660
1145.233, 6322.374
1145.715, 6309.516
1146.198, 6288.695
1146.680, 6280.702
1147.162, 6282.108
1147.644, 6270.534
1148.126, 6248.476
1148.608, 6253.890
1149.090, 6313.089
1149.572, 6364.575
1150.054, 6349.514
1150.536, 6313.263
1151.019, 6298.696
1151.501, 6308.127
1151.983, 6323.824
1152.465, 6346.369
1152.947, 6362.645
1153.429, 6365.307
1153.911, 6358.858
1154.393, 6338.597
1154.876, 6314.940
1155.358, 6307.690
1155.840, 6323.923
1156.322, 6338.479
1156.804, 6352.144
1157.286, 6357.319
1157.768, 6332.907
1158.250, 6306.976
1158.733, 6325.646
1159.215, 6375.348
1159.697, 6400.555
1160.179, 6376.674
1160.661, 6364.643
1161.143, 6372.701
1161.625, 6390.593
1162.107, 6415.598
1162.589, 6438.249
1163.072, 6437.103
1163.554, 6412.624
1164.036, 6397.262
1164.518, 6404.354
1165.000, 6412.396
1165.482, 6416.643
1165.964, 6419.007
1166.446, 6423.347
1166.928, 6428.346
1167.411, 6430.658
1167.893, 6429.213
1168.375, 6428.441
1168.857, 6425.803
1169.339, 6429.999
1169.821, 6448.366
1170.303, 6473.053
1170.785, 6480.252
1171.268, 6474.028
1171.750, 6467.974
1172.232, 6467.091
1172.714, 6464.975
1173.196, 6449.882
1173.678, 6442.813
1174.160, 6465.137
1174.642, 6508.048
1175.125, 6501.914
1175.607, 6456.283
1176.089, 6424.056
1176.571, 6439.652
1177.053, 6461.278
1177.535, 6473.869
1178.017, 6481.544
1178.499, 6485.363
1178.981, 6485.530
1179.464, 6501.668
1179.946, 6532.479
1180.428, 6553.646
1180.910, 6541.593
1181.392, 6524.905
1181.874, 6514.239
1182.356, 6510.986
1182.838, 6519.060
1183.320, 6539.065
1183.803, 6555.331
1184.285, 6566.750
1184.767, 6570.879
1185.249, 6559.982
1185.731, 6546.953
1186.213, 6538.429
1186.695, 6535.383
1187.177, 6541.100
1187.660, 6556.327
1188.142, 6572.350
1188.624, 6589.713
1189.106, 6590.990
1189.588, 6528.991
1190.070, 6470.715
1190.552, 6486.147
1191.034, 6563.208
1191.516, 6599.512
1191.999, 6591.321
1192.481, 6576.521
1192.963, 6562.043
1193.445, 6554.131
1193.927, 6568.320
1194.409, 6585.926
1194.891, 6584.082
1195.373, 6560.930
1195.855, 6554.725
1196.338, 6567.493
1196.820, 6579.376
1197.302, 6582.542
1197.784, 6581.730
1198.266, 6577.107
1198.748, 6574.186
1199.230, 6580.798
1199.712, 6598.523
1200.195, 6621.670
1200.677, 6652.852
1201.159, 6670.369
1201.641, 6653.257
1202.123, 6628.206
1202.605, 6627.968
1203.087, 6640.054
1203.569, 6643.686
1204.052, 6634.666
1204.534, 6620.723
1205.016, 6599.261
1205.498, 6587.844
1205.980, 6610.511
1206.462, 6639.998
1206.944, 6638.102
1207.426, 6619.707
1207.908, 6621.830
1208.391, 6662.539
1208.873, 6677.146
1209.355, 6658.482
1209.837, 6638.610
1210.319, 6650.983
1210.801, 6672.274
1211.283, 6675.283
1211.765, 6663.998
1212.247, 6654.313
1212.730, 6645.029
1213.212, 6647.234
1213.694, 6664.473
1214.176, 6681.796
1214.658, 6685.908
1215.140, 6681.552
1215.622, 6670.229
1216.104, 6654.430
1216.587, 6647.267
1217.069, 6651.987
1217.551, 6656.357
1218.033, 6658.823
1218.515, 6658.676
1218.997, 6647.298
1219.479, 6638.184
1219.961, 6649.967
1220.443, 6682.466
1220.926, 6711.791
1221.408, 6740.975
1221.890, 6746.502
1222.372, 6716.698
1222.854, 6683.263
1223.336, 6687.904
1223.818, 6707.801
1224.300, 6717.881
1224.782, 6714.613
1225.265, 6707.396
1225.747, 6693.124
1226.229, 6692.015
1226.711, 6714.490
1227.193, 6740.918
1227.675, 6748.140
1228.157, 6745.363
1228.639, 6743.457
1229.122, 6744.016
1229.604, 6736.894
1230.086, 6719.371
1230.568, 6713.522
1231.050, 6734.029
1231.532, 6756.771
1232.014, 6749.097
1232.496, 6730.128
1232.979, 6723.720
1233.461, 6732.746
1233.943, 6747.475
1234.425, 6769.733
1234.907, 6777.407
1235.389, 6753.020
1235.871, 6720.911
1236.353, 6696.201
1236.835, 6682.745
1237.318, 6688.896
1237.800, 6717.034
1238.282, 6740.694
1238.764, 6759.779
1239.246, 6772.535
1239.728, 6772.902
1240.210, 6772.481
1240.692, 6786.013
1241.175, 6801.759
1241.657, 6802.433
1242.139, 6784.366
1242.621, 6773.370
1243.103, 6769.362
1243.585, 6773.108
1244.067, 6799.095
1244.549, 6817.793
1245.031, 6800.763
1245.514, 6768.617
1245.996, 6749.245
1246.478, 6742.726
1246.960, 6749.253
1247.442, 6768.181
1247.924, 6787.729
1248.406, 6805.117
1248.888, 6815.408
1249.370, 6806.146
1249.853, 6794.152
1250.335, 6806.856
1250.817, 6842.646
1251.299, 6850.610
1251.781, 6830.178
1252.263, 6807.338
1252.745, 6783.659
1253.227, 6778.978
1253.710, 6822.644
1254.192, 6873.454
1254.674, 6870.937
1255.156, 6825.051
1255.638, 6810.499
1256.120, 6829.260
1256.602, 6848.046
1257.084, 6841.499
1257.567, 6841.874
1258.049, 6864.065
1258.531, 6891.804
1259.013, 6901.658
1259.495, 6897.798
1259.977, 6893.668
1260.459, 6890.677
1260.941, 6890.887
1261.423, 6901.555
1261.906, 6906.467
1262.388, 6900.525
1262.870, 6890.062
1263.352, 6877.271
1263.834, 6869.101
1264.316, 6893.469
1264.798, 6947.824
1265.280, 6972.834
1265.762, 6921.185
1266.245, 6887.757
1266.727, 6893.514
1267.209, 6913.320
1267.691, 6910.586
1268.173, 6899.452
1268.655, 6905.274
1269.137, 6929.196
1269.619, 6948.662
1270.102, 6959.688
1270.584, 6970.982
1271.066, 6985.489
1271.548, 6996.594
1272.030, 6992.670
1272.512, 6982.519
1272.994, 6977.281
1273.476, 6977.189
1273.958, 6970.293
1274.441, 6954.092
1274.923, 6941.762
1275.405, 6935.752
1275.887, 6936.750
1276.369, 6955.997
1276.851, 6974.403
1277.333, 6965.077
1277.815, 6935.208
1278.297, 6936.487
1278.780, 6970.522
1279.262, 7002.262
1279.744, 7024.384
1280.226, 7037.220
1280.708, 7038.878
1281.190, 7033.058
1281.672, 7019.654
1282.154, 7001.783
1282.637, 6987.191
1283.119, 6976.819
1283.601, 6983.159
1284.083, 7011.765
1284.565, 7035.327
1285.047, 7034.499
1285.529, 7026.865
1286.011, 7020.533
1286.494, 7014.963
1286.976, 7006.193
1287.458, 6997.095
1287.940, 7000.637
1288.422, 7021.944
1288.904, 7034.490
1289.386, 7012.813
1289.868, 7002.992
1290.350, 7024.086
1290.833, 7059.775
1291.315, 7082.951
1291.797, 7094.421
1292.279, 7093.972
1292.761, 7080.247
1293.243, 7065.049
1293.725, 7045.578
1294.207, 7037.603
1294.689, 7050.612
1295.172, 7067.058
1295.654, 7053.933
1296.136, 7032.587
1296.618, 7032.599
1297.100, 7060.590
1297.582, 7089.627
1298.064, 7122.940
1298.546, 7134.637
1299.029, 7109.891
1299.511, 7082.675
1299.993, 7093.843
1300.475, 7116.284
1300.957, 7122.688
##END=



