##NAMES=Vistepite
##RRUFFID=R070712
##IDEAL CHEMISTRY=Mn^2+^_4_Sn^4+^B_2_O_2_(Si_2_O_7_)_2_(OH)_2_
##LOCALITY=Rhodonite occurrence, Muzeinyi Valley, Inyl'chek Range, Issyk-Kul'skaya Oblast, Kyrgyzstan
##OWNER=RRUFF
##SOURCE=Michael Scott
##DESCRIPTION=Yellow gemmy fragments associated with rhodonite. Portion of type sample.
##STATUS=The identification of this mineral has been confirmed by single-crystal X-ray diffraction.
##URL=rruff.info/R070712
152.4291, 4897.116
152.9112, 4888.467
153.3933, 4890.919
153.8755, 4901.181
154.3576, 4930.514
154.8397, 4956.174
155.3218, 4969.100
155.8039, 4965.506
156.2860, 4973.440
156.7682, 5004.427
157.2503, 5047.539
157.7324, 5089.564
158.2145, 5115.419
158.6966, 5148.570
159.1787, 5198.547
159.6609, 5268.044
160.1430, 5351.170
160.6251, 5454.110
161.1072, 5569.267
161.5893, 5679.927
162.0714, 5794.563
162.5536, 5893.733
163.0357, 5964.878
163.5178, 6009.842
163.9999, 6021.633
164.4820, 5990.999
164.9641, 5921.280
165.4463, 5832.247
165.9284, 5717.628
166.4105, 5594.092
166.8926, 5479.589
167.3747, 5367.336
167.8568, 5275.118
168.3390, 5220.046
168.8211, 5205.077
169.3032, 5200.723
169.7853, 5187.833
170.2674, 5172.545
170.7495, 5165.655
171.2317, 5175.934
171.7138, 5195.290
172.1959, 5217.915
172.6780, 5245.344
173.1601, 5268.576
173.6422, 5286.647
174.1244, 5296.090
174.6065, 5285.334
175.0886, 5238.542
175.5707, 5169.689
176.0528, 5096.257
176.5349, 5015.147
177.0171, 4941.355
177.4992, 4896.517
177.9813, 4878.338
178.4634, 4864.242
178.9455, 4838.848
179.4276, 4804.704
179.9098, 4766.211
180.3919, 4713.806
180.8740, 4663.497
181.3561, 4645.721
181.8382, 4661.788
182.3203, 4685.739
182.8025, 4693.547
183.2846, 4687.747
183.7667, 4678.707
184.2488, 4667.933
184.7309, 4657.263
185.2130, 4651.854
185.6951, 4651.758
186.1773, 4657.241
186.6594, 4672.443
187.1415, 4696.299
187.6236, 4717.006
188.1057, 4726.057
188.5878, 4725.851
189.0700, 4728.371
189.5521, 4734.863
190.0342, 4743.817
190.5163, 4752.925
190.9984, 4761.970
191.4805, 4770.951
191.9627, 4776.917
192.4448, 4780.580
192.9269, 4793.010
193.4090, 4818.285
193.8911, 4852.053
194.3732, 4883.703
194.8554, 4914.373
195.3375, 4938.375
195.8196, 4946.504
196.3017, 4938.423
196.7838, 4935.448
197.2659, 4943.177
197.7481, 4960.815
198.2302, 4981.990
198.7123, 5006.023
199.1944, 5035.979
199.6765, 5077.424
200.1586, 5132.225
200.6408, 5187.731
201.1229, 5240.458
201.6050, 5289.955
202.0871, 5338.356
202.5692, 5387.502
203.0513, 5432.581
203.5335, 5461.484
204.0156, 5469.029
204.4977, 5481.563
204.9798, 5515.847
205.4619, 5576.487
205.9440, 5622.776
206.4262, 5653.442
206.9083, 5668.870
207.3904, 5665.918
207.8725, 5637.570
208.3546, 5609.734
208.8367, 5598.573
209.3189, 5607.931
209.8010, 5617.443
210.2831, 5624.431
210.7652, 5630.403
211.2473, 5640.311
211.7294, 5650.851
212.2116, 5672.137
212.6937, 5716.887
213.1758, 5797.583
213.6579, 5862.522
214.1400, 5901.515
214.6221, 5916.563
215.1043, 5933.879
215.5864, 5958.434
216.0685, 5978.883
216.5506, 5980.179
217.0327, 5950.697
217.5148, 5932.407
217.9970, 5938.274
218.4791, 5970.130
218.9612, 5992.158
219.4433, 6000.842
219.9254, 6002.662
220.4075, 6005.778
220.8897, 6010.763
221.3718, 6015.478
221.8539, 6022.619
222.3360, 6037.506
222.8181, 6027.139
223.3002, 5980.312
223.7824, 5915.120
224.2645, 5866.399
224.7466, 5844.021
225.2287, 5820.307
225.7108, 5781.897
226.1929, 5717.016
226.6750, 5671.858
227.1572, 5655.001
227.6393, 5655.844
228.1214, 5644.517
228.6035, 5607.293
229.0856, 5578.597
229.5677, 5578.554
230.0499, 5625.796
230.5320, 5658.826
231.0141, 5673.274
231.4962, 5671.372
231.9783, 5660.882
232.4604, 5635.468
232.9426, 5609.670
233.4247, 5593.328
233.9068, 5596.106
234.3889, 5588.412
234.8710, 5562.589
235.3531, 5521.455
235.8353, 5493.073
236.3174, 5483.226
236.7995, 5479.715
237.2816, 5473.021
237.7637, 5458.755
238.2458, 5449.880
238.7280, 5448.262
239.2101, 5453.875
239.6922, 5465.069
240.1743, 5485.428
240.6564, 5507.775
241.1385, 5524.014
241.6207, 5525.099
242.1028, 5536.749
242.5849, 5566.853
243.0670, 5617.282
243.5491, 5662.310
244.0313, 5702.208
244.5134, 5736.490
244.9955, 5763.908
245.4776, 5780.817
245.9597, 5797.321
246.4418, 5816.406
246.9240, 5838.991
247.4061, 5860.096
247.8882, 5884.532
248.3703, 5903.954
248.8524, 5904.859
249.3345, 5878.871
249.8167, 5848.595
250.2988, 5818.826
250.7809, 5787.527
251.2630, 5766.316
251.7451, 5764.979
252.2272, 5768.040
252.7094, 5746.371
253.1915, 5688.863
253.6736, 5624.879
254.1557, 5561.789
254.6378, 5492.621
255.1199, 5445.867
255.6021, 5428.947
256.0842, 5431.181
256.5663, 5430.976
257.0484, 5430.377
257.5305, 5423.765
258.0126, 5408.092
258.4948, 5380.402
258.9769, 5351.143
259.4590, 5317.256
259.9411, 5283.040
260.4232, 5259.619
260.9053, 5249.434
261.3875, 5245.698
261.8696, 5245.968
262.3517, 5252.041
262.8338, 5256.400
263.3159, 5258.070
263.7980, 5257.876
264.2802, 5256.456
264.7623, 5248.359
265.2444, 5249.686
265.7265, 5274.545
266.2086, 5331.936
266.6907, 5377.542
267.1729, 5405.348
267.6550, 5418.501
268.1371, 5429.256
268.6192, 5437.428
269.1013, 5443.102
269.5834, 5443.468
270.0656, 5434.887
270.5477, 5438.766
271.0298, 5462.503
271.5119, 5499.864
271.9940, 5525.369
272.4761, 5538.328
272.9583, 5540.939
273.4404, 5531.496
273.9225, 5506.902
274.4046, 5487.865
274.8867, 5476.906
275.3688, 5473.875
275.8510, 5479.454
276.3331, 5495.539
276.8152, 5514.629
277.2973, 5530.338
277.7794, 5542.213
278.2615, 5555.257
278.7437, 5570.982
279.2258, 5588.546
279.7079, 5605.154
280.1900, 5621.646
280.6721, 5634.104
281.1542, 5637.709
281.6364, 5632.155
282.1185, 5625.277
282.6006, 5616.251
283.0827, 5607.699
283.5648, 5614.596
284.0469, 5640.388
284.5291, 5663.965
285.0112, 5663.989
285.4933, 5640.983
285.9754, 5611.688
286.4575, 5577.269
286.9396, 5540.431
287.4217, 5511.745
287.9038, 5491.663
288.3860, 5475.568
288.8681, 5459.586
289.3502, 5443.782
289.8323, 5428.041
290.3144, 5411.400
290.7965, 5395.141
291.2787, 5383.358
291.7608, 5376.157
292.2429, 5371.824
292.7250, 5372.762
293.2071, 5376.790
293.6892, 5371.965
294.1714, 5346.971
294.6535, 5314.183
295.1356, 5303.688
295.6177, 5316.460
296.0998, 5332.643
296.5819, 5331.708
297.0641, 5318.523
297.5462, 5309.175
298.0283, 5311.141
298.5104, 5319.099
298.9925, 5322.119
299.4746, 5320.135
299.9568, 5322.921
300.4389, 5347.958
300.9210, 5384.508
301.4031, 5408.024
301.8852, 5398.266
302.3673, 5377.005
302.8495, 5373.313
303.3316, 5386.834
303.8137, 5403.509
304.2958, 5413.209
304.7779, 5417.836
305.2600, 5420.578
305.7422, 5418.149
306.2243, 5417.188
306.7064, 5426.463
307.1885, 5445.543
307.6706, 5464.103
308.1527, 5476.558
308.6349, 5483.743
309.1170, 5486.581
309.5991, 5473.764
310.0812, 5465.372
310.5633, 5483.073
311.0454, 5525.225
311.5276, 5560.498
312.0097, 5557.949
312.4918, 5542.528
312.9739, 5542.091
313.4560, 5584.113
313.9381, 5629.302
314.4203, 5653.399
314.9024, 5658.246
315.3845, 5664.199
315.8666, 5682.990
316.3487, 5706.485
316.8308, 5726.992
317.3130, 5736.446
317.7951, 5747.803
318.2772, 5767.800
318.7593, 5795.608
319.2414, 5821.018
319.7235, 5836.851
320.2057, 5850.882
320.6878, 5869.287
321.1699, 5905.583
321.6520, 5934.267
322.1341, 5940.470
322.6162, 5927.612
323.0984, 5929.865
323.5805, 5965.020
324.0626, 6010.979
324.5447, 6052.857
325.0268, 6087.616
325.5089, 6119.563
325.9911, 6147.150
326.4732, 6170.856
326.9553, 6198.308
327.4374, 6228.119
327.9195, 6262.748
328.4016, 6304.048
328.8838, 6368.204
329.3659, 6418.070
329.8480, 6442.679
330.3301, 6447.283
330.8122, 6466.800
331.2943, 6515.652
331.7765, 6565.082
332.2586, 6599.019
332.7407, 6611.429
333.2228, 6619.275
333.7049, 6623.854
334.1870, 6624.771
334.6692, 6620.688
335.1513, 6613.068
335.6334, 6598.421
336.1155, 6573.076
336.5976, 6531.762
337.0797, 6498.051
337.5619, 6481.037
338.0440, 6469.074
338.5261, 6421.265
339.0082, 6322.171
339.4903, 6233.549
339.9724, 6199.876
340.4546, 6229.884
340.9367, 6233.165
341.4188, 6198.516
341.9009, 6142.759
342.3830, 6098.719
342.8651, 6066.985
343.3473, 6043.266
343.8294, 6032.274
344.3115, 6032.063
344.7936, 6012.788
345.2757, 5966.941
345.7578, 5916.324
346.2400, 5898.205
346.7221, 5911.112
347.2042, 5924.943
347.6863, 5923.059
348.1684, 5909.926
348.6505, 5897.953
349.1327, 5886.078
349.6148, 5881.404
350.0969, 5898.842
350.5790, 5932.671
351.0611, 5961.247
351.5432, 5974.579
352.0254, 5975.838
352.5075, 5966.317
352.9896, 5944.830
353.4717, 5924.914
353.9538, 5924.286
354.4359, 5934.247
354.9181, 5937.702
355.4002, 5911.638
355.8823, 5885.622
356.3644, 5894.872
356.8465, 5940.293
357.3286, 5980.507
357.8108, 5980.494
358.2929, 5961.859
358.7750, 5952.893
359.2571, 5976.625
359.7392, 6002.266
360.2213, 6007.677
360.7035, 5994.638
361.1856, 5991.653
361.6677, 6022.960
362.1498, 6064.120
362.6319, 6094.266
363.1140, 6092.298
363.5962, 6094.224
364.0783, 6111.171
364.5604, 6141.698
365.0425, 6175.383
365.5246, 6220.316
366.0067, 6261.046
366.4889, 6288.104
366.9710, 6288.022
367.4531, 6289.104
367.9352, 6292.094
368.4173, 6297.661
368.8994, 6308.875
369.3815, 6334.301
369.8636, 6357.927
370.3458, 6371.989
370.8279, 6365.903
371.3100, 6368.809
371.7921, 6384.516
372.2742, 6408.336
372.7563, 6428.875
373.2385, 6444.626
373.7206, 6459.088
374.2027, 6471.274
374.6848, 6477.126
375.1669, 6499.593
375.6490, 6548.364
376.1312, 6603.596
376.6133, 6633.726
377.0954, 6636.423
377.5775, 6623.151
378.0596, 6593.125
378.5417, 6547.545
379.0239, 6509.645
379.5060, 6482.078
379.9881, 6455.343
380.4702, 6415.863
380.9523, 6363.858
381.4344, 6315.403
381.9166, 6276.099
382.3987, 6244.095
382.8808, 6213.449
383.3629, 6184.689
383.8450, 6151.739
384.3271, 6101.330
384.8093, 6040.796
385.2914, 5995.122
385.7735, 5978.656
386.2556, 5974.306
386.7377, 5960.244
387.2198, 5937.433
387.7020, 5912.475
388.1841, 5891.768
388.6662, 5871.713
389.1483, 5846.358
389.6304, 5810.611
390.1125, 5775.875
390.5947, 5747.682
391.0768, 5726.622
391.5589, 5715.247
392.0410, 5724.738
392.5231, 5738.321
393.0052, 5743.897
393.4874, 5737.893
393.9695, 5727.290
394.4516, 5707.836
394.9337, 5686.118
395.4158, 5674.242
395.8979, 5679.172
396.3801, 5691.214
396.8622, 5709.168
397.3443, 5736.863
397.8264, 5755.456
398.3085, 5752.527
398.7906, 5742.334
399.2728, 5742.316
399.7549, 5774.881
400.2370, 5792.821
400.7191, 5779.198
401.2012, 5730.378
401.6833, 5706.377
402.1655, 5717.609
402.6476, 5743.759
403.1297, 5769.453
403.6118, 5798.116
404.0939, 5817.830
404.5760, 5824.034
405.0582, 5819.641
405.5403, 5821.335
406.0224, 5832.005
406.5045, 5840.235
406.9866, 5832.381
407.4688, 5806.481
407.9509, 5801.230
408.4330, 5826.258
408.9151, 5865.873
409.3972, 5886.530
409.8793, 5888.060
410.3615, 5887.604
410.8436, 5890.551
411.3257, 5898.923
411.8078, 5922.496
412.2899, 5964.678
412.7720, 6010.048
413.2542, 6038.430
413.7363, 6054.300
414.2184, 6071.358
414.7005, 6101.614
415.1826, 6133.397
415.6647, 6148.990
416.1469, 6147.495
416.6290, 6149.445
417.1111, 6178.956
417.5932, 6218.133
418.0753, 6242.730
418.5574, 6227.649
419.0396, 6211.339
419.5217, 6208.776
420.0038, 6220.318
420.4859, 6248.051
420.9680, 6317.746
421.4501, 6388.963
421.9323, 6431.779
422.4144, 6419.201
422.8965, 6409.725
423.3786, 6410.610
423.8607, 6421.931
424.3428, 6443.311
424.8250, 6490.359
425.3071, 6534.396
425.7892, 6565.708
426.2713, 6583.435
426.7534, 6591.789
427.2355, 6585.347
427.7177, 6572.796
428.1998, 6567.330
428.6819, 6572.340
429.1640, 6576.438
429.6461, 6578.150
430.1282, 6577.076
430.6104, 6564.241
431.0925, 6537.735
431.5746, 6503.730
432.0567, 6463.887
432.5388, 6417.625
433.0209, 6385.875
433.5031, 6380.005
433.9852, 6385.766
434.4673, 6364.675
434.9494, 6317.525
435.4315, 6267.166
435.9136, 6226.949
436.3958, 6196.684
436.8779, 6177.314
437.3600, 6171.704
437.8421, 6170.220
438.3242, 6159.782
438.8063, 6144.523
439.2885, 6135.906
439.7706, 6150.494
440.2527, 6168.076
440.7348, 6168.181
441.2169, 6147.716
441.6990, 6125.273
442.1812, 6100.340
442.6633, 6082.699
443.1454, 6083.610
443.6275, 6134.005
444.1096, 6176.790
444.5917, 6182.346
445.0739, 6153.977
445.5560, 6142.843
446.0381, 6177.840
446.5202, 6220.358
447.0023, 6247.652
447.4844, 6239.758
447.9666, 6240.884
448.4487, 6259.203
448.9308, 6286.348
449.4129, 6297.578
449.8950, 6278.702
450.3771, 6267.078
450.8592, 6279.041
451.3413, 6318.678
451.8235, 6360.228
452.3056, 6409.590
452.7877, 6451.680
453.2698, 6459.840
453.7519, 6430.309
454.2340, 6409.719
454.7162, 6414.313
455.1983, 6437.616
455.6804, 6459.806
456.1625, 6481.207
456.6446, 6496.235
457.1267, 6495.392
457.6089, 6484.289
458.0910, 6479.499
458.5731, 6487.601
459.0552, 6497.567
459.5373, 6486.470
460.0194, 6463.729
460.5016, 6460.643
460.9837, 6509.806
461.4658, 6578.181
461.9479, 6638.036
462.4300, 6685.735
462.9121, 6727.109
463.3943, 6759.015
463.8764, 6787.756
464.3585, 6820.995
464.8406, 6845.595
465.3227, 6890.111
465.8048, 6974.517
466.2870, 7098.684
466.7691, 7207.451
467.2512, 7266.815
467.7333, 7329.390
468.2154, 7427.684
468.6975, 7582.310
469.1797, 7740.768
469.6618, 7908.704
470.1439, 8075.256
470.6260, 8206.267
471.1081, 8288.648
471.5902, 8366.936
472.0724, 8464.132
472.5545, 8583.624
473.0366, 8676.925
473.5187, 8741.301
474.0008, 8784.749
474.4829, 8812.208
474.9651, 8824.657
475.4472, 8832.383
475.9293, 8833.216
476.4114, 8835.172
476.8935, 8853.465
477.3756, 8887.891
477.8578, 8936.357
478.3399, 8995.745
478.8220, 9068.835
479.3041, 9158.945
479.7862, 9265.427
480.2683, 9392.619
480.7505, 9547.189
481.2326, 9724.997
481.7147, 9917.524
482.1968, 10117.20
482.6789, 10335.33
483.1610, 10579.33
483.6432, 10850.83
484.1253, 11137.24
484.6074, 11428.18
485.0895, 11732.67
485.5716, 12060.72
486.0537, 12461.73
486.5359, 12827.94
487.0180, 13152.34
487.5001, 13436.50
487.9822, 13695.24
488.4643, 13956.92
488.9464, 14142.99
489.4286, 14215.43
489.9107, 14167.19
490.3928, 14040.52
490.8749, 13830.56
491.3570, 13551.77
491.8391, 13207.74
492.3213, 12801.87
492.8034, 12373.71
493.2855, 11932.96
493.7676, 11486.89
494.2497, 11031.09
494.7318, 10570.28
495.2140, 10145.55
495.6961, 9807.934
496.1782, 9527.734
496.6603, 9264.454
497.1424, 8998.899
497.6245, 8759.843
498.1067, 8576.564
498.5888, 8434.991
499.0709, 8301.089
499.5530, 8153.444
500.0351, 8012.975
500.5172, 7887.970
500.9994, 7781.180
501.4815, 7688.115
501.9636, 7604.337
502.4457, 7534.592
502.9278, 7483.247
503.4099, 7467.188
503.8921, 7448.126
504.3742, 7424.734
504.8563, 7396.510
505.3384, 7357.376
505.8205, 7294.708
506.3026, 7246.023
506.7848, 7233.525
507.2669, 7262.850
507.7490, 7289.267
508.2311, 7313.733
508.7132, 7333.609
509.1953, 7340.045
509.6775, 7334.927
510.1596, 7341.061
510.6417, 7369.193
511.1238, 7410.612
511.6059, 7443.539
512.0880, 7469.925
512.5701, 7511.135
513.0522, 7593.469
513.5344, 7695.156
514.0165, 7787.003
514.4986, 7858.753
514.9807, 7934.951
515.4628, 8026.798
515.9449, 8134.434
516.4271, 8256.509
516.9092, 8415.789
517.3913, 8569.026
517.8734, 8687.249
518.3555, 8767.323
518.8376, 8885.111
519.3198, 9059.698
519.8019, 9267.608
520.2840, 9498.703
520.7661, 9756.577
521.2482, 10026.24
521.7303, 10308.14
522.2125, 10602.02
522.6946, 10898.12
523.1767, 11192.22
523.6588, 11512.05
524.1409, 11876.07
524.6230, 12274.28
525.1052, 12679.06
525.5873, 13089.40
526.0694, 13516.31
526.5515, 13982.90
527.0336, 14473.10
527.5157, 14940.00
527.9979, 15366.47
528.4800, 15757.41
528.9621, 16146.40
529.4442, 16504.36
529.9263, 16757.46
530.4084, 16860.40
530.8906, 16845.76
531.3727, 16732.76
531.8548, 16522.29
532.3369, 16212.01
532.8190, 15757.31
533.3011, 15222.75
533.7833, 14674.37
534.2654, 14088.59
534.7475, 13522.12
535.2296, 12978.54
535.7117, 12453.71
536.1938, 11934.25
536.6760, 11392.21
537.1581, 10894.21
537.6402, 10470.47
538.1223, 10128.60
538.6044, 9787.585
539.0865, 9436.694
539.5687, 9107.940
540.0508, 8846.578
540.5329, 8643.942
541.0150, 8463.104
541.4971, 8296.967
541.9792, 8144.688
542.4614, 8009.691
542.9435, 7890.749
543.4256, 7782.123
543.9077, 7679.403
544.3898, 7585.852
544.8719, 7506.299
545.3541, 7442.355
545.8362, 7383.570
546.3183, 7316.900
546.8004, 7255.323
547.2825, 7212.430
547.7646, 7207.557
548.2468, 7204.031
548.7289, 7197.350
549.2110, 7187.001
549.6931, 7169.740
550.1752, 7130.135
550.6573, 7104.690
551.1395, 7111.977
551.6216, 7159.021
552.1037, 7197.347
552.5858, 7225.025
553.0679, 7248.904
553.5500, 7278.028
554.0322, 7311.866
554.5143, 7341.461
554.9964, 7363.188
555.4785, 7381.671
555.9606, 7406.474
556.4427, 7436.246
556.9249, 7462.878
557.4070, 7485.056
557.8891, 7499.571
558.3712, 7498.637
558.8533, 7479.543
559.3354, 7464.567
559.8176, 7484.750
560.2997, 7506.935
560.7818, 7497.025
561.2639, 7414.248
561.7460, 7334.549
562.2281, 7279.526
562.7103, 7240.333
563.1924, 7182.897
563.6745, 7080.750
564.1566, 6995.640
564.6387, 6956.211
565.1208, 6968.840
565.6030, 6963.752
566.0851, 6940.577
566.5672, 6901.324
567.0493, 6836.270
567.5314, 6748.673
568.0135, 6688.748
568.4957, 6674.687
568.9778, 6678.035
569.4599, 6647.350
569.9420, 6591.164
570.4241, 6546.917
570.9063, 6547.354
571.3884, 6561.348
571.8705, 6554.348
572.3526, 6525.028
572.8347, 6499.989
573.3168, 6493.137
573.7990, 6496.777
574.2811, 6505.060
574.7632, 6525.004
575.2453, 6537.900
575.7274, 6534.666
576.2095, 6523.545
576.6917, 6520.667
577.1738, 6527.894
577.6559, 6540.878
578.1380, 6563.390
578.6201, 6593.667
579.1022, 6599.214
579.5844, 6573.916
580.0665, 6546.389
580.5486, 6538.398
581.0307, 6547.938
581.5128, 6561.812
581.9949, 6578.731
582.4771, 6598.971
582.9592, 6624.941
583.4413, 6654.620
583.9234, 6682.992
584.4055, 6700.252
584.8876, 6721.608
585.3698, 6765.067
585.8519, 6825.647
586.3340, 6877.296
586.8161, 6885.882
587.2982, 6899.102
587.7803, 6945.857
588.2625, 7042.741
588.7446, 7138.141
589.2267, 7229.523
589.7088, 7318.333
590.1909, 7404.435
590.6730, 7480.998
591.1552, 7572.421
591.6373, 7687.632
592.1194, 7817.187
592.6015, 7933.604
593.0836, 8036.790
593.5657, 8133.963
594.0479, 8231.603
594.5300, 8327.041
595.0121, 8414.555
595.4942, 8494.609
595.9763, 8557.509
596.4584, 8603.218
596.9406, 8623.793
597.4227, 8606.980
597.9048, 8533.742
598.3869, 8450.389
598.8690, 8383.409
599.3511, 8320.681
599.8333, 8237.340
600.3154, 8105.281
600.7975, 7976.045
601.2796, 7863.452
601.7617, 7766.862
602.2438, 7667.949
602.7260, 7560.353
603.2081, 7462.124
603.6902, 7387.292
604.1723, 7336.828
604.6544, 7293.472
605.1365, 7257.420
605.6187, 7226.807
606.1008, 7202.353
606.5829, 7182.432
607.0650, 7160.234
607.5471, 7133.159
608.0292, 7102.770
608.5114, 7064.682
608.9935, 7023.468
609.4756, 6994.816
609.9577, 6996.551
610.4398, 7006.539
610.9219, 7012.285
611.4041, 7012.279
611.8862, 7010.369
612.3683, 7008.048
612.8504, 7003.401
613.3325, 6993.034
613.8146, 6959.498
614.2968, 6957.937
614.7789, 7007.214
615.2610, 7075.700
615.7431, 7095.673
616.2252, 7062.075
616.7073, 7030.518
617.1895, 7020.098
617.6716, 7026.309
618.1537, 7038.797
618.6358, 7057.459
619.1179, 7079.152
619.6000, 7105.185
620.0822, 7131.474
620.5643, 7149.634
621.0464, 7155.935
621.5285, 7171.905
622.0106, 7218.144
622.4927, 7276.308
622.9749, 7326.615
623.4570, 7376.882
623.9391, 7404.310
624.4212, 7396.078
624.9033, 7364.118
625.3854, 7338.049
625.8676, 7321.324
626.3497, 7303.352
626.8318, 7280.330
627.3139, 7252.650
627.7960, 7227.999
628.2781, 7208.101
628.7603, 7176.556
629.2424, 7109.825
629.7245, 7021.734
630.2066, 6943.760
630.6887, 6878.170
631.1708, 6831.813
631.6530, 6828.888
632.1351, 6844.887
632.6172, 6842.688
633.0993, 6791.395
633.5814, 6738.098
634.0635, 6697.359
634.5457, 6667.628
635.0278, 6642.394
635.5099, 6614.022
635.9920, 6598.455
636.4741, 6604.212
636.9562, 6632.993
637.4384, 6655.032
637.9205, 6670.606
638.4026, 6679.508
638.8847, 6675.604
639.3668, 6661.431
639.8489, 6665.637
640.3311, 6696.142
640.8132, 6726.845
641.2953, 6717.784
641.7774, 6685.970
642.2595, 6668.803
642.7416, 6693.260
643.2238, 6724.058
643.7059, 6737.516
644.1880, 6738.567
644.6701, 6744.472
645.1522, 6774.012
645.6343, 6797.043
646.1165, 6799.463
646.5986, 6779.723
647.0807, 6757.098
647.5628, 6726.551
648.0449, 6700.267
648.5270, 6688.958
649.0092, 6693.923
649.4913, 6697.921
649.9734, 6699.829
650.4555, 6700.522
650.9376, 6701.877
651.4197, 6703.172
651.9019, 6701.657
652.3840, 6695.183
652.8661, 6686.864
653.3482, 6677.940
653.8303, 6669.247
654.3124, 6663.517
654.7946, 6671.418
655.2767, 6673.878
655.7588, 6655.655
656.2408, 6612.642
656.7230, 6588.926
657.2051, 6601.849
657.6872, 6617.104
658.1693, 6610.198
658.6514, 6570.612
659.1335, 6559.775
659.6157, 6586.149
660.0978, 6625.602
660.5799, 6649.143
661.0620, 6658.233
661.5441, 6658.172
662.0262, 6646.228
662.5084, 6632.841
662.9905, 6628.747
663.4726, 6633.273
663.9547, 6644.582
664.4368, 6671.450
664.9189, 6695.996
665.4011, 6707.216
665.8832, 6705.010
666.3653, 6702.153
666.8474, 6695.187
667.3295, 6692.502
667.8116, 6700.071
668.2938, 6722.857
668.7759, 6730.588
669.2580, 6716.668
669.7401, 6702.381
670.2222, 6713.829
670.7043, 6748.509
671.1865, 6780.336
671.6686, 6804.601
672.1507, 6824.452
672.6328, 6840.860
673.1149, 6856.346
673.5970, 6876.297
674.0792, 6900.666
674.5613, 6932.779
675.0434, 6980.323
675.5255, 7039.485
676.0076, 7090.894
676.4897, 7123.346
676.9719, 7153.853
677.4540, 7185.008
677.9361, 7214.793
678.4182, 7267.831
678.9003, 7353.128
679.3824, 7442.628
679.8646, 7506.167
680.3467, 7547.350
680.8288, 7618.521
681.3109, 7729.305
681.7930, 7850.536
682.2751, 7944.853
682.7573, 8026.205
683.2394, 8126.642
683.7215, 8269.912
684.2036, 8413.899
684.6857, 8528.014
685.1678, 8625.479
685.6500, 8739.778
686.1321, 8872.361
686.6142, 9030.256
687.0963, 9226.194
687.5784, 9451.938
688.0605, 9647.619
688.5427, 9796.451
689.0248, 9954.938
689.5069, 10171.78
689.9890, 10437.41
690.4711, 10655.98
690.9532, 10825.56
691.4354, 10958.12
691.9175, 11068.73
692.3996, 11148.43
692.8817, 11183.88
693.3638, 11174.17
693.8459, 11115.88
694.3281, 10999.20
694.8102, 10835.07
695.2923, 10640.00
695.7744, 10401.79
696.2565, 10149.41
696.7386, 9879.794
697.2208, 9601.956
697.7029, 9336.935
698.1850, 9082.321
698.6671, 8848.587
699.1492, 8645.741
699.6313, 8466.406
700.1135, 8284.538
700.5956, 8101.162
701.0777, 7935.336
701.5598, 7796.451
702.0419, 7684.136
702.5240, 7605.794
703.0062, 7563.894
703.4883, 7520.366
703.9704, 7450.141
704.4525, 7375.083
704.9346, 7312.386
705.4167, 7277.218
705.8989, 7232.210
706.3810, 7164.934
706.8631, 7098.634
707.3452, 7063.434
707.8273, 7063.712
708.3094, 7065.741
708.7916, 7062.821
709.2737, 7060.096
709.7558, 7070.878
710.2379, 7091.175
710.7200, 7105.474
711.2021, 7107.049
711.6843, 7099.144
712.1664, 7075.711
712.6485, 7042.411
713.1306, 7023.890
713.6127, 7048.859
714.0948, 7073.081
714.5770, 7069.421
715.0591, 7034.363
715.5412, 7028.059
716.0233, 7065.571
716.5054, 7104.966
716.9875, 7118.847
717.4697, 7107.250
717.9518, 7085.199
718.4339, 7052.057
718.9160, 7018.395
719.3981, 6996.856
719.8802, 6983.150
720.3624, 6968.527
720.8445, 6947.927
721.3266, 6933.365
721.8087, 6941.047
722.2908, 6957.100
722.7729, 6961.258
723.2551, 6930.799
723.7372, 6910.872
724.2193, 6911.890
724.7014, 6926.424
725.1835, 6933.911
725.6656, 6932.477
726.1478, 6931.018
726.6299, 6933.261
727.1120, 6937.258
727.5941, 6937.659
728.0762, 6934.479
728.5583, 6928.707
729.0405, 6918.580
729.5226, 6907.809
730.0047, 6899.550
730.4868, 6894.190
730.9689, 6891.463
731.4510, 6889.365
731.9332, 6891.660
732.4153, 6904.600
732.8974, 6941.911
733.3795, 6948.676
733.8616, 6915.751
734.3438, 6866.861
734.8259, 6817.801
735.3080, 6769.076
735.7901, 6748.318
736.2722, 6763.755
736.7543, 6792.643
737.2365, 6816.217
737.7186, 6830.594
738.2007, 6826.248
738.6828, 6779.508
739.1649, 6739.304
739.6470, 6736.752
740.1292, 6758.836
740.6113, 6775.980
741.0934, 6782.089
741.5755, 6783.628
742.0576, 6779.710
742.5397, 6772.161
743.0219, 6770.563
743.5040, 6776.510
743.9861, 6778.557
744.4682, 6764.267
744.9503, 6743.170
745.4324, 6746.312
745.9146, 6771.213
746.3967, 6792.917
746.8788, 6792.903
747.3609, 6783.190
747.8430, 6770.657
748.3251, 6754.604
748.8073, 6747.653
749.2894, 6765.303
749.7715, 6783.044
750.2536, 6784.993
750.7357, 6765.308
751.2178, 6747.060
751.7000, 6728.644
752.1821, 6715.183
752.6642, 6719.666
753.1463, 6736.637
753.6284, 6734.313
754.1105, 6700.209
754.5927, 6667.325
755.0748, 6674.377
755.5569, 6702.904
756.0390, 6723.884
756.5211, 6718.867
757.0032, 6714.154
757.4854, 6726.208
757.9675, 6742.147
758.4496, 6730.008
758.9317, 6667.957
759.4138, 6626.056
759.8959, 6624.142
760.3781, 6651.549
760.8602, 6682.615
761.3423, 6716.290
761.8244, 6736.437
762.3065, 6725.501
762.7886, 6701.202
763.2708, 6680.759
763.7529, 6665.366
764.2350, 6661.221
764.7171, 6690.848
765.1992, 6715.291
765.6813, 6707.040
766.1635, 6658.791
766.6456, 6633.546
767.1277, 6639.859
767.6098, 6655.045
768.0919, 6666.201
768.5740, 6673.396
769.0562, 6682.607
769.5383, 6694.784
770.0204, 6701.087
770.5025, 6685.378
770.9846, 6660.922
771.4667, 6651.017
771.9489, 6662.488
772.4310, 6673.436
772.9131, 6664.730
773.3952, 6653.992
773.8773, 6659.849
774.3594, 6712.571
774.8416, 6736.019
775.3237, 6718.824
775.8058, 6682.684
776.2879, 6652.493
776.7700, 6628.257
777.2521, 6621.149
777.7343, 6640.802
778.2164, 6662.425
778.6985, 6639.582
779.1806, 6592.366
779.6627, 6565.892
780.1448, 6598.229
780.6270, 6635.741
781.1091, 6661.580
781.5912, 6674.688
782.0733, 6669.869
782.5554, 6629.199
783.0375, 6600.006
783.5197, 6594.922
784.0018, 6608.474
784.4839, 6624.977
784.9660, 6644.716
785.4481, 6654.828
785.9302, 6639.198
786.4124, 6614.598
786.8945, 6613.179
787.3766, 6630.276
787.8587, 6642.320
788.3408, 6628.350
788.8229, 6613.228
789.3051, 6612.542
789.7872, 6628.502
790.2693, 6640.969
790.7514, 6653.493
791.2335, 6656.193
791.7156, 6637.753
792.1978, 6598.796
792.6799, 6584.271
793.1620, 6595.534
793.6441, 6611.008
794.1262, 6610.691
794.6083, 6603.659
795.0905, 6604.147
795.5726, 6614.424
796.0547, 6624.025
796.5368, 6625.869
797.0189, 6626.005
797.5010, 6629.321
797.9832, 6637.537
798.4653, 6644.742
798.9474, 6649.834
799.4295, 6655.476
799.9116, 6666.636
800.3937, 6682.506
800.8759, 6689.673
801.3580, 6684.558
801.8401, 6680.227
802.3222, 6699.324
802.8043, 6725.762
803.2864, 6733.822
803.7686, 6704.473
804.2507, 6678.879
804.7328, 6671.496
805.2149, 6675.287
805.6970, 6679.859
806.1791, 6685.061
806.6613, 6691.261
807.1434, 6699.232
807.6255, 6706.847
808.1076, 6709.174
808.5897, 6707.130
809.0718, 6707.127
809.5540, 6712.936
810.0361, 6718.239
810.5182, 6713.132
811.0003, 6703.493
811.4824, 6700.851
811.9645, 6718.813
812.4467, 6732.999
812.9288, 6738.464
813.4109, 6736.139
813.8930, 6725.234
814.3751, 6701.667
814.8572, 6687.394
815.3394, 6692.507
815.8215, 6707.415
816.3036, 6708.978
816.7857, 6700.191
817.2678, 6694.697
817.7499, 6698.524
818.2321, 6708.762
818.7142, 6729.052
819.1963, 6755.678
819.6784, 6771.881
820.1605, 6762.980
820.6426, 6756.106
821.1247, 6758.497
821.6068, 6768.566
822.0889, 6776.643
822.5710, 6782.049
823.0532, 6791.531
823.5353, 6812.272
824.0174, 6837.858
824.4995, 6856.689
824.9816, 6869.365
825.4637, 6881.813
825.9459, 6897.194
826.4280, 6913.034
826.9101, 6931.533
827.3922, 6952.596
827.8743, 6957.063
828.3564, 6932.963
828.8386, 6914.073
829.3207, 6917.067
829.8028, 6939.498
830.2849, 6969.259
830.7670, 7005.827
831.2491, 7028.837
831.7313, 7005.169
832.2134, 6970.808
832.6955, 6973.328
833.1776, 7015.129
833.6597, 7040.602
834.1418, 7011.330
834.6240, 6978.323
835.1061, 6968.800
835.5882, 6985.416
836.0703, 6998.913
836.5524, 7009.020
837.0345, 7017.051
837.5167, 7028.388
837.9988, 7038.191
838.4809, 7029.568
838.9630, 7001.878
839.4451, 6970.354
839.9272, 6936.466
840.4094, 6909.229
840.8915, 6896.769
841.3736, 6902.426
841.8557, 6912.814
842.3378, 6933.147
842.8199, 6949.391
843.3021, 6951.908
843.7842, 6940.228
844.2663, 6922.370
844.7484, 6897.394
845.2305, 6875.894
845.7126, 6862.562
846.1948, 6860.545
846.6769, 6881.615
847.1590, 6931.705
847.6411, 6965.373
848.1232, 6947.047
848.6053, 6919.241
849.0875, 6913.951
849.5696, 6941.017
850.0517, 6952.104
850.5338, 6943.740
851.0159, 6929.561
851.4980, 6916.890
851.9802, 6908.561
852.4623, 6919.665
852.9444, 6953.406
853.4265, 6979.299
853.9086, 6962.762
854.3907, 6934.477
854.8729, 6921.962
855.3550, 6934.104
855.8371, 6949.700
856.3192, 6979.301
856.8013, 6996.940
857.2834, 6972.097
857.7656, 6903.272
858.2477, 6873.325
858.7298, 6889.292
859.2119, 6917.157
859.6940, 6926.675
860.1761, 6927.559
860.6583, 6935.146
861.1404, 6954.814
861.6225, 6964.344
862.1046, 6944.501
862.5867, 6919.273
863.0688, 6905.670
863.5510, 6903.761
864.0331, 6916.523
864.5152, 6950.269
864.9973, 6977.735
865.4794, 6961.896
865.9615, 6920.750
866.4437, 6905.726
866.9258, 6923.678
867.4079, 6948.303
867.8900, 6973.725
868.3721, 6991.079
868.8542, 6989.628
869.3364, 6954.938
869.8185, 6942.928
870.3006, 6965.679
870.7827, 6992.282
871.2648, 6999.753
871.7469, 6989.150
872.2291, 6965.042
872.7112, 6926.515
873.1933, 6894.649
873.6754, 6887.835
874.1575, 6897.251
874.6396, 6916.189
875.1218, 6945.827
875.6039, 6971.905
876.0860, 6989.793
876.5681, 7003.977
877.0502, 7016.781
877.5323, 7028.312
878.0145, 7035.842
878.4966, 7038.946
878.9787, 7040.186
879.4608, 7039.679
879.9429, 7039.483
880.4250, 7044.583
880.9072, 7055.565
881.3893, 7063.790
881.8714, 7063.287
882.3535, 7060.018
882.8356, 7056.813
883.3177, 7053.292
883.7999, 7054.233
884.2820, 7060.271
884.7641, 7068.920
885.2462, 7082.467
885.7283, 7096.952
886.2104, 7096.397
886.6926, 7081.542
887.1747, 7072.230
887.6568, 7093.111
888.1389, 7114.931
888.6210, 7113.408
889.1031, 7084.061
889.5853, 7069.879
890.0674, 7078.222
890.5495, 7090.316
891.0316, 7098.499
891.5137, 7102.942
891.9958, 7102.570
892.4780, 7097.808
892.9601, 7094.593
893.4422, 7095.445
893.9243, 7100.592
894.4064, 7109.071
894.8885, 7121.201
895.3707, 7141.858
895.8528, 7189.190
896.3349, 7223.540
896.8170, 7230.015
897.2991, 7212.453
897.7813, 7185.624
898.2634, 7149.620
898.7455, 7130.329
899.2276, 7162.931
899.7097, 7206.449
900.1918, 7203.596
900.6740, 7166.139
901.1561, 7138.010
901.6382, 7133.920
902.1203, 7144.354
902.6024, 7175.895
903.0845, 7218.351
903.5667, 7228.174
904.0488, 7200.619
904.5309, 7185.242
905.0130, 7210.279
905.4951, 7243.887
905.9772, 7218.890
906.4594, 7160.928
906.9415, 7137.178
907.4236, 7226.771
907.9057, 7297.778
908.3878, 7282.670
908.8699, 7223.490
909.3521, 7204.652
909.8342, 7236.994
910.3163, 7266.002
910.7984, 7280.738
911.2805, 7286.629
911.7626, 7296.185
912.2448, 7303.965
912.7269, 7294.520
913.2090, 7246.594
913.6911, 7207.831
914.1732, 7207.156
914.6553, 7226.790
915.1375, 7241.542
915.6196, 7249.091
916.1017, 7255.063
916.5838, 7258.767
917.0659, 7263.229
917.5480, 7274.696
918.0302, 7290.068
918.5123, 7299.191
918.9944, 7297.975
919.4765, 7298.586
919.9586, 7305.409
920.4407, 7319.678
920.9229, 7346.889
921.4050, 7408.352
921.8871, 7421.587
922.3692, 7367.381
922.8513, 7306.398
923.3334, 7307.183
923.8156, 7349.663
924.2977, 7348.088
924.7798, 7294.700
925.2619, 7254.703
925.7440, 7290.779
926.2261, 7348.079
926.7083, 7383.185
927.1904, 7387.285
927.6725, 7400.576
928.1546, 7432.725
928.6367, 7455.789
929.1188, 7447.621
929.6010, 7415.920
930.0831, 7400.013
930.5652, 7399.226
931.0473, 7402.972
931.5294, 7406.625
932.0115, 7410.616
932.4937, 7416.086
932.9758, 7422.662
933.4579, 7424.870
933.9400, 7410.941
934.4221, 7415.285
934.9042, 7458.400
935.3864, 7521.251
935.8685, 7542.743
936.3506, 7527.937
936.8327, 7508.958
937.3148, 7490.507
937.7969, 7484.459
938.2791, 7511.639
938.7612, 7556.653
939.2433, 7583.095
939.7254, 7578.283
940.2075, 7567.137
940.6896, 7546.318
941.1718, 7529.144
941.6539, 7548.274
942.1360, 7595.888
942.6181, 7627.447
943.1002, 7625.245
943.5823, 7621.150
944.0645, 7637.296
944.5466, 7667.653
945.0287, 7705.753
945.5108, 7769.259
945.9929, 7804.390
946.4750, 7799.372
946.9572, 7785.619
947.4393, 7799.286
947.9214, 7834.205
948.4035, 7856.291
948.8856, 7861.511
949.3677, 7865.618
949.8499, 7882.805
950.3320, 7902.710
950.8141, 7913.937
951.2962, 7911.120
951.7783, 7925.315
952.2604, 7962.078
952.7426, 8005.814
953.2247, 8052.119
953.7068, 8098.021
954.1889, 8124.038
954.6710, 8132.481
955.1531, 8144.121
955.6353, 8169.397
956.1174, 8204.509
956.5995, 8250.247
957.0816, 8304.632
957.5637, 8356.521
958.0458, 8406.285
958.5280, 8450.979
959.0101, 8485.989
959.4922, 8519.571
959.9743, 8573.020
960.4564, 8642.144
960.9385, 8712.272
961.4207, 8771.171
961.9028, 8838.196
962.3849, 8924.606
962.8670, 9027.289
963.3491, 9141.991
963.8312, 9284.273
964.3134, 9393.898
964.7955, 9453.239
965.2776, 9506.657
965.7597, 9621.042
966.2418, 9774.478
966.7239, 9912.855
967.2061, 10021.83
967.6882, 10133.56
968.1703, 10267.84
968.6524, 10410.21
969.1345, 10543.95
969.6166, 10662.73
970.0988, 10814.51
970.5809, 11008.21
971.0630, 11201.95
971.5451, 11370.08
972.0272, 11515.37
972.5093, 11650.31
972.9915, 11774.31
973.4736, 11882.77
973.9557, 11978.87
974.4378, 12054.56
974.9199, 12103.20
975.4020, 12129.42
975.8842, 12159.96
976.3663, 12200.43
976.8484, 12192.29
977.3305, 12097.32
977.8126, 11962.81
978.2947, 11860.25
978.7769, 11770.78
979.2590, 11656.50
979.7411, 11475.53
980.2232, 11304.07
980.7053, 11161.30
981.1874, 11028.72
981.6696, 10876.28
982.1517, 10702.97
982.6338, 10547.59
983.1159, 10418.05
983.5980, 10299.48
984.0801, 10176.82
984.5623, 10057.79
985.0444, 9950.984
985.5264, 9861.537
986.0085, 9773.057
986.4907, 9688.743
986.9728, 9598.762
987.4549, 9487.852
987.9370, 9361.413
988.4191, 9282.442
988.9012, 9249.098
989.3834, 9219.267
989.8655, 9166.598
990.3476, 9106.010
990.8297, 9042.899
991.3118, 8979.980
991.7939, 8930.208
992.2761, 8898.238
992.7582, 8870.669
993.2403, 8847.371
993.7224, 8822.763
994.2045, 8781.317
994.6866, 8728.251
995.1688, 8679.987
995.6509, 8638.601
996.1330, 8610.748
996.6151, 8610.834
997.0972, 8621.377
997.5793, 8619.905
998.0615, 8603.000
998.5436, 8581.959
999.0257, 8554.465
999.5078, 8532.900
999.9899, 8538.965
1000.472, 8556.213
1000.954, 8551.153
1001.436, 8519.570
1001.918, 8498.818
1002.401, 8514.717
1002.883, 8534.223
1003.365, 8539.037
1003.847, 8532.275
1004.329, 8547.215
1004.811, 8584.781
1005.293, 8617.037
1005.775, 8623.971
1006.257, 8625.385
1006.740, 8641.612
1007.222, 8669.677
1007.704, 8702.378
1008.186, 8740.842
1008.668, 8779.233
1009.150, 8812.760
1009.632, 8851.241
1010.114, 8913.756
1010.596, 8996.256
1011.079, 9072.766
1011.561, 9136.393
1012.043, 9203.855
1012.525, 9290.241
1013.007, 9382.633
1013.489, 9467.123
1013.971, 9539.710
1014.453, 9625.529
1014.936, 9729.009
1015.418, 9831.280
1015.900, 9908.979
1016.382, 9979.992
1016.864, 10092.86
1017.346, 10240.32
1017.828, 10383.22
1018.310, 10521.57
1018.792, 10630.33
1019.275, 10686.38
1019.757, 10711.88
1020.239, 10763.32
1020.721, 10843.29
1021.203, 10900.49
1021.685, 10924.74
1022.167, 10915.68
1022.649, 10863.18
1023.132, 10780.83
1023.614, 10687.19
1024.096, 10581.20
1024.578, 10471.65
1025.060, 10344.94
1025.542, 10237.14
1026.024, 10203.72
1026.506, 10221.99
1026.989, 10134.46
1027.471, 9944.466
1027.953, 9743.576
1028.435, 9568.684
1028.917, 9421.329
1029.399, 9307.087
1029.881, 9224.092
1030.363, 9164.415
1030.845, 9134.562
1031.328, 9102.163
1031.810, 9057.281
1032.292, 9005.736
1032.774, 8951.418
1033.256, 8898.729
1033.738, 8855.208
1034.220, 8822.064
1034.702, 8801.049
1035.184, 8799.965
1035.667, 8803.590
1036.149, 8801.071
1036.631, 8792.408
1037.113, 8773.272
1037.595, 8742.961
1038.077, 8720.879
1038.559, 8723.802
1039.041, 8740.007
1039.524, 8768.896
1040.006, 8806.781
1040.488, 8816.813
1040.970, 8781.860
1041.452, 8757.802
1041.934, 8765.132
1042.416, 8788.566
1042.898, 8801.529
1043.380, 8805.072
1043.863, 8802.661
1044.345, 8797.914
1044.827, 8782.973
1045.309, 8738.561
1045.791, 8694.121
1046.273, 8683.008
1046.755, 8711.326
1047.237, 8705.238
1047.719, 8659.985
1048.202, 8613.979
1048.684, 8603.467
1049.166, 8605.102
1049.648, 8598.349
1050.130, 8581.760
1050.612, 8554.080
1051.094, 8503.941
1051.576, 8467.304
1052.059, 8460.227
1052.541, 8465.854
1053.023, 8440.265
1053.505, 8393.337
1053.987, 8355.992
1054.469, 8340.109
1054.951, 8332.167
1055.433, 8337.307
1055.916, 8339.556
1056.398, 8321.100
1056.880, 8276.074
1057.362, 8247.671
1057.844, 8237.939
1058.326, 8226.096
1058.808, 8182.216
1059.290, 8136.254
1059.772, 8127.533
1060.255, 8152.749
1060.737, 8165.974
1061.219, 8153.159
1061.701, 8141.164
1062.183, 8138.219
1062.665, 8137.450
1063.147, 8118.135
1063.629, 8088.112
1064.111, 8074.900
1064.594, 8093.738
1065.076, 8110.534
1065.558, 8104.979
1066.040, 8092.187
1066.522, 8087.836
1067.004, 8095.707
1067.486, 8081.670
1067.968, 8044.308
1068.450, 8004.234
1068.933, 7971.744
1069.415, 7947.817
1069.897, 7937.714
1070.379, 7938.469
1070.861, 7936.609
1071.343, 7925.499
1071.825, 7921.429
1072.307, 7930.438
1072.790, 7942.638
1073.272, 7938.090
1073.754, 7922.969
1074.236, 7914.752
1074.718, 7918.568
1075.200, 7923.077
1075.682, 7917.098
1076.164, 7915.271
1076.646, 7928.920
1077.129, 7957.936
1077.611, 7979.301
1078.093, 7993.063
1078.575, 7997.346
1079.057, 7987.807
1079.539, 7971.151
1080.021, 7943.973
1080.503, 7914.923
1080.985, 7909.069
1081.468, 7941.592
1081.950, 7965.138
1082.432, 7975.439
1082.914, 7973.370
1083.396, 7953.023
1083.878, 7923.314
1084.360, 7900.505
1084.842, 7886.893
1085.325, 7881.008
1085.807, 7885.525
1086.289, 7895.421
1086.771, 7912.394
1087.253, 7932.431
1087.735, 7931.213
1088.217, 7911.490
1088.699, 7896.267
1089.182, 7899.369
1089.664, 7904.583
1090.146, 7896.604
1090.628, 7886.090
1091.110, 7889.025
1091.592, 7910.466
1092.074, 7929.042
1092.556, 7944.884
1093.038, 7953.515
1093.521, 7937.748
1094.003, 7920.245
1094.485, 7937.039
1094.967, 7985.986
1095.449, 8024.410
1095.931, 8045.366
1096.413, 8048.204
1096.895, 8022.417
1097.377, 7990.232
1097.860, 8007.318
1098.342, 8059.080
1098.824, 8099.857
1099.306, 8118.198
1099.788, 8122.742
1100.270, 8099.632
1100.752, 8079.117
1101.234, 8084.614
1101.717, 8116.768
1102.199, 8148.543
1102.681, 8179.966
1103.163, 8201.452
1103.645, 8204.284
1104.127, 8196.889
1104.609, 8175.223
1105.091, 8149.893
1105.573, 8150.347
1106.056, 8190.396
1106.538, 8216.576
1107.020, 8220.884
1107.502, 8215.801
1107.984, 8212.892
1108.466, 8211.758
1108.948, 8211.288
1109.430, 8211.159
1109.912, 8214.610
1110.395, 8230.066
1110.877, 8236.896
1111.359, 8223.468
1111.841, 8198.788
1112.323, 8191.500
1112.805, 8197.631
1113.287, 8204.069
1113.769, 8208.462
1114.252, 8207.572
1114.734, 8193.998
1115.216, 8178.909
1115.698, 8173.649
1116.180, 8179.426
1116.662, 8180.669
1117.144, 8177.356
1117.626, 8171.485
1118.109, 8163.706
1118.591, 8154.875
1119.073, 8141.012
1119.555, 8126.836
1120.037, 8130.838
1120.519, 8163.552
1121.001, 8173.764
1121.483, 8147.758
1121.965, 8114.033
1122.448, 8102.702
1122.930, 8109.644
1123.412, 8136.071
1123.894, 8187.204
1124.376, 8211.434
1124.858, 8186.624
1125.340, 8167.043
1125.822, 8183.755
1126.304, 8216.090
1126.787, 8196.705
1127.269, 8143.433
1127.751, 8109.680
1128.233, 8127.754
1128.715, 8150.464
1129.197, 8166.485
1129.679, 8179.425
1130.161, 8192.265
1130.644, 8204.796
1131.126, 8213.247
1131.608, 8217.813
1132.090, 8226.521
1132.572, 8258.254
1133.054, 8282.237
1133.536, 8268.993
1134.018, 8234.463
1134.500, 8226.458
1134.983, 8250.033
1135.465, 8247.223
1135.947, 8201.977
1136.429, 8157.005
1136.911, 8163.636
1137.393, 8189.754
1137.875, 8204.077
1138.357, 8201.707
1138.839, 8190.604
1139.322, 8166.914
1139.804, 8149.686
1140.286, 8151.410
1140.768, 8158.886
1141.250, 8148.588
1141.732, 8127.445
1142.214, 8107.614
1142.696, 8080.697
1143.179, 8081.622
1143.661, 8127.611
1144.143, 8172.604
1144.625, 8169.000
1145.107, 8135.757
1145.589, 8139.082
1146.071, 8174.107
1146.553, 8204.618
1147.036, 8223.338
1147.518, 8220.600
1148.000, 8180.368
1148.482, 8131.336
1148.964, 8129.206
1149.446, 8165.215
1149.928, 8184.116
1150.410, 8177.102
1150.892, 8163.887
1151.375, 8155.133
1151.857, 8146.695
1152.339, 8134.171
1152.821, 8119.684
1153.303, 8115.377
1153.785, 8121.221
1154.267, 8127.406
1154.749, 8133.195
1155.231, 8132.540
1155.714, 8100.998
1156.196, 8070.743
1156.678, 8089.028
1157.160, 8172.693
1157.642, 8202.960
1158.124, 8173.031
1158.606, 8139.586
1159.088, 8137.542
1159.571, 8152.185
1160.053, 8181.214
1160.535, 8211.956
1161.017, 8210.338
1161.499, 8146.260
1161.981, 8110.669
1162.463, 8114.378
1162.945, 8132.836
1163.427, 8142.496
1163.910, 8148.521
1164.392, 8164.185
1164.874, 8187.790
1165.356, 8191.095
1165.838, 8144.735
1166.320, 8115.415
1166.802, 8120.369
1167.284, 8144.398
1167.766, 8171.122
1168.249, 8194.066
1168.731, 8195.002
1169.213, 8165.308
1169.695, 8143.390
1170.177, 8147.822
1170.659, 8155.417
1171.141, 8156.544
1171.623, 8153.356
1172.106, 8150.640
1172.588, 8149.929
1173.070, 8157.408
1173.552, 8179.302
1174.034, 8203.046
1174.516, 8237.143
1174.998, 8258.954
1175.480, 8244.438
1175.963, 8195.840
1176.445, 8161.793
1176.927, 8142.079
1177.409, 8129.998
1177.891, 8125.763
1178.373, 8123.939
1178.855, 8116.949
1179.337, 8113.351
1179.819, 8131.994
1180.302, 8173.827
1180.784, 8190.743
1181.266, 8177.011
1181.748, 8162.695
1182.230, 8176.584
1182.712, 8194.000
1183.194, 8191.959
1183.676, 8177.555
1184.158, 8181.482
1184.641, 8204.934
1185.123, 8234.398
1185.605, 8269.294
1186.087, 8296.952
1186.569, 8304.369
1187.051, 8298.761
1187.533, 8284.012
1188.015, 8259.938
1188.498, 8244.063
1188.980, 8237.805
1189.462, 8227.710
1189.944, 8202.304
1190.426, 8179.876
1190.908, 8189.163
1191.390, 8212.816
1191.872, 8224.775
1192.354, 8217.610
1192.837, 8210.650
1193.319, 8203.278
1193.801, 8199.919
1194.283, 8206.901
1194.765, 8217.578
1195.247, 8225.572
1195.729, 8229.904
1196.211, 8226.122
1196.693, 8198.163
1197.176, 8202.512
1197.658, 8252.998
1198.140, 8300.847
1198.622, 8284.755
1199.104, 8241.948
1199.586, 8223.045
1200.068, 8229.939
1200.550, 8252.953
1201.033, 8312.931
1201.515, 8336.998
1201.997, 8301.954
1202.479, 8251.409
1202.961, 8247.996
1203.443, 8271.874
1203.925, 8294.542
1204.407, 8312.460
1204.890, 8315.116
1205.372, 8285.357
1205.854, 8274.275
1206.336, 8307.493
1206.818, 8356.033
1207.300, 8356.531
1207.782, 8329.308
1208.264, 8316.192
1208.746, 8333.962
1209.229, 8339.131
1209.711, 8319.743
1210.193, 8298.684
1210.675, 8285.837
1211.157, 8281.288
1211.639, 8290.462
1212.121, 8307.394
1212.603, 8315.995
1213.085, 8296.222
1213.568, 8293.886
1214.050, 8319.815
1214.532, 8352.962
1215.014, 8382.271
1215.496, 8404.833
1215.978, 8405.509
1216.460, 8389.443
1216.942, 8377.751
1217.425, 8386.433
1217.907, 8389.304
1218.389, 8380.151
1218.871, 8367.207
1219.353, 8356.196
1219.835, 8349.767
1220.317, 8358.753
1220.799, 8382.113
1221.281, 8403.659
1221.764, 8426.386
1222.246, 8431.538
1222.728, 8409.262
1223.210, 8376.625
1223.692, 8356.045
1224.174, 8348.438
1224.656, 8363.321
1225.138, 8403.167
1225.620, 8427.504
1226.103, 8403.533
1226.585, 8382.802
1227.067, 8381.080
1227.549, 8390.626
1228.031, 8396.061
1228.513, 8398.396
1228.995, 8401.679
1229.477, 8408.870
1229.960, 8406.658
1230.442, 8380.433
1230.924, 8359.073
1231.406, 8355.990
1231.888, 8366.716
1232.370, 8386.309
1232.852, 8408.755
1233.334, 8415.568
1233.816, 8386.788
1234.299, 8376.055
1234.781, 8403.831
1235.263, 8435.320
1235.745, 8448.379
1236.227, 8447.437
1236.709, 8443.230
1237.191, 8437.186
1237.673, 8434.142
1238.156, 8425.390
1238.638, 8437.210
1239.120, 8478.503
1239.602, 8527.601
1240.084, 8577.074
1240.566, 8615.503
1241.048, 8598.359
1241.530, 8536.822
1242.012, 8482.292
1242.495, 8449.420
1242.977, 8437.100
1243.459, 8452.505
1243.941, 8472.939
1244.423, 8464.504
1244.905, 8444.482
1245.387, 8460.326
1245.869, 8507.992
1246.351, 8534.799
1246.834, 8502.957
1247.316, 8479.320
1247.798, 8474.934
1248.280, 8481.644
1248.762, 8491.408
1249.244, 8502.938
1249.726, 8514.780
1250.208, 8526.751
1250.691, 8535.462
1251.173, 8544.179
1251.655, 8539.960
1252.137, 8513.843
1252.619, 8485.271
1253.101, 8491.353
1253.583, 8512.688
1254.065, 8514.286
1254.547, 8487.861
1255.030, 8480.089
1255.512, 8495.972
1255.994, 8527.826
1256.476, 8581.237
1256.958, 8633.318
1257.440, 8649.923
1257.922, 8641.276
1258.404, 8619.051
1258.886, 8579.278
1259.369, 8554.191
1259.851, 8545.075
1260.333, 8548.156
1260.815, 8572.871
1261.297, 8591.975
1261.779, 8549.472
1262.261, 8486.071
1262.743, 8466.587
1263.226, 8511.739
1263.708, 8551.743
1264.190, 8589.143
1264.672, 8604.224
1265.154, 8565.616
1265.636, 8521.276
1266.118, 8527.140
1266.600, 8558.615
1267.083, 8574.818
1267.565, 8568.984
1268.047, 8564.769
1268.529, 8561.737
1269.011, 8567.277
1269.493, 8603.823
1269.975, 8633.278
1270.457, 8610.451
1270.939, 8566.051
1271.422, 8558.745
1271.904, 8595.266
1272.386, 8606.133
1272.868, 8588.884
1273.350, 8574.094
1273.832, 8588.884
1274.314, 8607.033
1274.796, 8608.490
1275.278, 8604.671
1275.761, 8618.547
1276.243, 8648.701
1276.725, 8652.947
1277.207, 8628.825
1277.689, 8604.859
1278.171, 8601.210
1278.653, 8599.564
1279.135, 8589.931
1279.618, 8578.388
1280.100, 8573.011
1280.582, 8574.436
1281.064, 8589.902
1281.546, 8620.043
1282.028, 8643.917
1282.510, 8649.606
1282.992, 8647.059
1283.474, 8635.964
1283.957, 8623.971
1284.439, 8629.113
1284.921, 8643.852
1285.403, 8644.152
1285.885, 8626.102
1286.367, 8617.109
1286.849, 8630.543
1287.331, 8648.093
1287.813, 8667.125
1288.296, 8684.185
1288.778, 8688.462
1289.260, 8688.307
1289.742, 8704.292
1290.224, 8742.503
1290.706, 8752.047
1291.188, 8714.602
1291.670, 8689.184
1292.153, 8698.261
1292.635, 8720.465
1293.117, 8728.578
1293.599, 8727.990
1294.081, 8722.888
1294.563, 8712.188
1295.045, 8722.402
1295.527, 8760.206
1296.010, 8777.094
1296.492, 8745.616
1296.974, 8708.807
1297.456, 8714.711
1297.938, 8740.680
##END=



