##NAMES=Vivianite
##RRUFFID=R040185
##IDEAL CHEMISTRY=Fe^2+^_3_(PO_4_)_2_&#183;8H_2_O
##LOCALITY=Siglo XX mine, Llallagua, Bustillos, Potosi, Bolivia
##OWNER=RRUFF
##SOURCE=University of Arizona Mineral Museum
##DESCRIPTION=Green acicular single crystal
##STATUS=The identification of this mineral has been confirmed by X-ray diffraction and chemical analysis
##URL=rruff.info/R040185
##MEASURED CHEMISTRY=(Fe_1.00_Mn_0.01_)_3_(P_0.97_Si_0.03_O_3.94_F_0.07_)_2_Â·8H_2_O
114.9494, 32.53571
115.4315, 34.96928
115.9136, 37.25272
116.3958, 38.45366
116.8779, 39.35235
117.3600, 40.72432
117.8421, 42.88079
118.3242, 45.55707
118.8063, 48.78466
119.2885, 52.62371
119.7706, 56.38564
120.2527, 59.35503
120.7348, 61.95109
121.2169, 64.95300
121.6990, 69.87017
122.1812, 74.85111
122.6633, 77.16273
123.1454, 75.20301
123.6275, 74.14365
124.1096, 79.80285
124.5917, 91.04260
125.0739, 103.2129
125.5560, 112.9589
126.0381, 121.4755
126.5202, 131.0884
127.0023, 141.6428
127.4844, 154.2309
127.9666, 172.0349
128.4487, 194.9913
128.9308, 218.0820
129.4129, 238.2931
129.8950, 255.3532
130.3772, 266.7202
130.8593, 270.4248
131.3414, 268.0289
131.8235, 264.0882
132.3056, 258.1918
132.7877, 252.6992
133.2699, 250.5206
133.7520, 251.7292
134.2341, 254.7389
134.7162, 259.0410
135.1983, 264.6477
135.6804, 271.3166
136.1626, 278.7843
136.6447, 287.5599
137.1268, 299.0662
137.6089, 313.8412
138.0910, 329.1616
138.5731, 343.8241
139.0553, 358.4406
139.5374, 369.7774
140.0195, 375.3095
140.5016, 377.7616
140.9837, 387.9407
141.4658, 408.7325
141.9480, 432.8677
142.4301, 456.0916
142.9122, 480.4310
143.3943, 499.2281
143.8764, 509.6931
144.3585, 511.9843
144.8407, 518.7112
145.3228, 532.5441
145.8049, 548.7481
146.2870, 562.8668
146.7691, 573.7544
147.2512, 583.8585
147.7334, 593.9778
148.2155, 604.9437
148.6976, 612.5594
149.1797, 615.6506
149.6618, 615.7216
150.1439, 614.7618
150.6261, 612.1207
151.1082, 609.0439
151.5903, 605.5863
152.0724, 600.8710
152.5545, 597.7916
153.0366, 596.3376
153.5188, 596.6896
154.0009, 599.1899
154.4830, 605.7562
154.9651, 613.1208
155.4472, 619.7156
155.9293, 623.1670
156.4115, 629.0246
156.8936, 636.2229
157.3757, 646.1459
157.8578, 663.5396
158.3399, 695.4969
158.8221, 732.0453
159.3042, 766.9984
159.7863, 799.0676
160.2684, 829.1176
160.7505, 855.5975
161.2326, 879.3907
161.7148, 905.4614
162.1969, 940.2397
162.6790, 976.8123
163.1611, 1008.086
163.6432, 1035.633
164.1253, 1054.589
164.6075, 1061.020
165.0896, 1054.736
165.5717, 1042.426
166.0538, 1027.989
166.5359, 1009.783
167.0180, 985.5411
167.5002, 946.7419
167.9823, 906.0984
168.4644, 874.5229
168.9465, 853.9932
169.4286, 834.3152
169.9107, 804.6451
170.3929, 770.3013
170.8750, 741.7127
171.3571, 728.1262
171.8392, 721.6432
172.3213, 713.0560
172.8034, 699.8491
173.2856, 689.3521
173.7677, 689.3531
174.2498, 698.1539
174.7319, 709.8485
175.2140, 720.5636
175.6961, 731.9554
176.1783, 747.0035
176.6604, 767.2002
177.1425, 789.1638
177.6246, 807.8013
178.1067, 823.6661
178.5888, 841.6499
179.0710, 863.1686
179.5531, 889.0942
180.0352, 921.7099
180.5173, 962.9947
180.9994, 1009.439
181.4815, 1053.279
181.9637, 1095.082
182.4458, 1140.409
182.9279, 1197.730
183.4100, 1263.850
183.8921, 1327.525
184.3742, 1384.249
184.8564, 1437.186
185.3385, 1491.565
185.8206, 1547.858
186.3027, 1605.541
186.7848, 1666.592
187.2669, 1730.117
187.7491, 1791.509
188.2312, 1851.306
188.7133, 1907.603
189.1954, 1951.076
189.6775, 1978.894
190.1596, 2005.365
190.6418, 2049.100
191.1239, 2109.645
191.6060, 2174.366
192.0881, 2238.597
192.5702, 2302.636
193.0524, 2367.636
193.5345, 2431.722
194.0166, 2501.106
194.4987, 2590.540
194.9808, 2701.951
195.4629, 2804.647
195.9451, 2880.716
196.4272, 2931.615
196.9093, 2983.164
197.3914, 3042.010
197.8735, 3092.340
198.3556, 3102.786
198.8378, 3070.685
199.3199, 3016.435
199.8020, 2952.465
200.2841, 2880.473
200.7662, 2780.259
201.2483, 2645.512
201.7305, 2486.640
202.2126, 2324.904
202.6947, 2157.345
203.1768, 1997.970
203.6589, 1853.597
204.1410, 1725.443
204.6232, 1613.983
205.1053, 1522.930
205.5874, 1447.071
206.0695, 1367.274
206.5516, 1279.197
207.0337, 1198.581
207.5159, 1136.840
207.9980, 1097.776
208.4801, 1065.149
208.9622, 1038.281
209.4443, 1016.372
209.9264, 994.5949
210.4086, 970.6539
210.8907, 951.4081
211.3728, 944.0797
211.8549, 952.8088
212.3370, 958.5723
212.8191, 955.9947
213.3013, 947.1123
213.7834, 949.5675
214.2655, 966.0806
214.7476, 989.6639
215.2297, 1014.406
215.7118, 1040.344
216.1940, 1067.960
216.6761, 1096.744
217.1582, 1126.923
217.6403, 1162.032
218.1224, 1204.185
218.6045, 1247.890
219.0867, 1286.556
219.5688, 1314.702
220.0509, 1350.307
220.5330, 1397.298
221.0151, 1456.482
221.4972, 1516.772
221.9794, 1577.765
222.4615, 1640.879
222.9436, 1708.580
223.4257, 1782.086
223.9078, 1859.087
224.3899, 1941.022
224.8721, 2030.390
225.3542, 2105.546
225.8363, 2162.747
226.3184, 2209.931
226.8005, 2259.629
227.2827, 2322.482
227.7648, 2366.434
228.2469, 2380.198
228.7290, 2359.894
229.2111, 2339.677
229.6932, 2321.235
230.1754, 2301.760
230.6575, 2276.437
231.1396, 2240.727
231.6217, 2207.544
232.1038, 2181.094
232.5859, 2162.920
233.0681, 2142.695
233.5502, 2117.192
234.0323, 2092.022
234.5144, 2075.278
234.9965, 2069.857
235.4786, 2068.277
235.9608, 2068.756
236.4429, 2071.549
236.9250, 2075.691
237.4071, 2084.296
237.8892, 2092.266
238.3713, 2092.307
238.8535, 2086.756
239.3356, 2069.407
239.8177, 2038.737
240.2998, 1994.970
240.7819, 1935.176
241.2640, 1850.423
241.7462, 1753.888
242.2283, 1668.168
242.7104, 1599.862
243.1925, 1531.472
243.6746, 1456.148
244.1567, 1369.483
244.6389, 1289.667
245.1210, 1216.752
245.6031, 1150.765
246.0852, 1092.676
246.5673, 1044.013
247.0494, 1000.667
247.5316, 961.5424
248.0137, 927.1400
248.4958, 895.0481
248.9779, 864.9514
249.4600, 837.5192
249.9421, 815.3105
250.4243, 801.1649
250.9064, 786.8519
251.3885, 768.5940
251.8706, 743.6563
252.3527, 723.9220
252.8348, 711.0872
253.3170, 702.4187
253.7991, 692.7930
254.2812, 681.4155
254.7633, 670.7833
255.2454, 661.5730
255.7275, 653.5608
256.2097, 648.0826
256.6918, 645.2141
257.1739, 644.8823
257.6560, 647.5183
258.1381, 654.8865
258.6202, 661.6011
259.1024, 665.6274
259.5845, 666.4385
260.0666, 666.5612
260.5487, 665.9106
261.0308, 664.6330
261.5129, 662.2801
261.9951, 657.2429
262.4772, 655.0571
262.9593, 658.8110
263.4414, 670.2961
263.9235, 679.2712
264.4056, 685.2590
264.8878, 689.2740
265.3699, 692.7303
265.8520, 694.8770
266.3341, 698.7040
266.8162, 705.8494
267.2983, 716.8328
267.7805, 727.3672
268.2626, 737.1486
268.7447, 746.7249
269.2268, 757.3845
269.7089, 769.7111
270.1910, 781.0114
270.6732, 790.9382
271.1553, 799.7050
271.6374, 803.7036
272.1195, 801.4772
272.6016, 796.6190
273.0837, 795.1755
273.5659, 797.7709
274.0480, 800.5925
274.5301, 803.7275
275.0122, 807.3909
275.4943, 803.1322
275.9764, 789.2584
276.4586, 770.6455
276.9407, 754.3658
277.4228, 740.9457
277.9049, 727.0879
278.3870, 711.8336
278.8691, 695.1905
279.3513, 677.1243
279.8334, 657.3669
280.3155, 636.8755
280.7976, 616.2539
281.2798, 595.5974
281.7619, 576.6908
282.2440, 560.1668
282.7261, 545.9839
283.2082, 534.4300
283.6903, 526.0330
284.1725, 518.3219
284.6546, 507.7223
285.1367, 494.4578
285.6188, 482.0266
286.1009, 472.0005
286.5830, 463.8529
287.0652, 454.6934
287.5473, 444.2101
288.0294, 435.0683
288.5115, 431.4329
288.9936, 432.6083
289.4757, 432.9149
289.9579, 429.5852
290.4400, 424.2340
290.9221, 421.0504
291.4042, 420.0692
291.8863, 420.8220
292.3684, 423.5590
292.8506, 427.8686
293.3327, 431.9259
293.8148, 434.5981
294.2969, 437.0080
294.7790, 441.8753
295.2611, 449.2287
295.7433, 456.7219
296.2254, 461.8360
296.7075, 465.5166
297.1896, 470.1399
297.6717, 476.2153
298.1538, 483.8551
298.6360, 492.8511
299.1181, 503.3418
299.6002, 515.9751
300.0823, 534.4923
300.5644, 555.2728
301.0465, 571.1515
301.5287, 577.6041
302.0108, 581.7208
302.4929, 592.6234
302.9750, 609.0951
303.4571, 623.5400
303.9392, 630.1907
304.4214, 632.0354
304.9035, 633.2466
305.3856, 635.1176
305.8677, 636.0434
306.3498, 634.5544
306.8319, 630.9110
307.3141, 625.9586
307.7962, 621.5876
308.2783, 615.5646
308.7604, 605.1844
309.2425, 588.8654
309.7246, 570.8525
310.2068, 552.8721
310.6889, 535.1351
311.1710, 517.9828
311.6531, 498.3865
312.1352, 481.3529
312.6173, 472.3458
313.0995, 475.8201
313.5816, 477.0632
314.0637, 466.4901
314.5458, 449.0368
315.0279, 433.9392
315.5100, 426.5493
315.9922, 421.0784
316.4743, 413.8792
316.9564, 403.4438
317.4385, 395.8038
317.9206, 396.4372
318.4027, 400.2670
318.8849, 400.1975
319.3670, 387.7186
319.8491, 376.8281
320.3312, 374.2638
320.8133, 382.3785
321.2954, 387.3185
321.7776, 384.1996
322.2597, 377.4770
322.7418, 371.8991
323.2239, 367.7349
323.7060, 365.1879
324.1881, 364.7792
324.6703, 366.6961
325.1524, 368.4429
325.6345, 370.7039
326.1166, 372.2591
326.5987, 372.1265
327.0808, 368.1442
327.5630, 364.9916
328.0451, 362.5565
328.5272, 360.9422
329.0093, 362.5983
329.4914, 370.0289
329.9735, 378.4042
330.4557, 384.5682
330.9378, 387.4261
331.4199, 389.8982
331.9020, 391.6336
332.3841, 393.0709
332.8662, 396.7878
333.3484, 404.8824
333.8305, 412.0190
334.3126, 414.4325
334.7947, 409.1755
335.2768, 408.3980
335.7589, 413.7730
336.2411, 423.3642
336.7232, 432.5916
337.2053, 441.2036
337.6874, 449.9975
338.1695, 460.3519
338.6516, 472.8204
339.1338, 480.4568
339.6159, 481.3990
340.0980, 480.1476
340.5801, 485.7104
341.0622, 499.2063
341.5443, 509.6891
342.0265, 511.1099
342.5086, 504.6559
342.9907, 502.1701
343.4728, 504.4544
343.9549, 507.6458
344.4370, 506.8122
344.9192, 502.3055
345.4013, 497.3508
345.8834, 493.3777
346.3655, 489.7334
346.8476, 485.2833
347.3297, 480.0937
347.8119, 473.0198
348.2940, 461.1650
348.7761, 446.3174
349.2582, 434.2653
349.7403, 427.6183
350.2225, 423.1986
350.7046, 416.6888
351.1867, 408.2015
351.6688, 399.0531
352.1509, 391.0966
352.6331, 382.8369
353.1152, 371.4362
353.5973, 354.3852
354.0794, 337.5978
354.5615, 326.3272
355.0436, 319.6582
355.5258, 314.8051
356.0079, 310.9346
356.4900, 307.8239
356.9721, 305.6148
357.4542, 304.8304
357.9363, 303.2470
358.4185, 297.9250
358.9006, 291.1373
359.3827, 286.8161
359.8648, 290.0641
360.3469, 293.3438
360.8290, 291.8190
361.3112, 284.1854
361.7933, 278.3357
362.2754, 279.0168
362.7575, 281.8937
363.2396, 282.2559
363.7217, 276.2670
364.2039, 270.4313
364.6860, 266.3188
365.1681, 263.9767
365.6502, 262.4148
366.1323, 261.7993
366.6144, 261.7380
367.0966, 261.9840
367.5787, 264.6804
368.0608, 264.9748
368.5429, 260.5443
369.0250, 252.8168
369.5071, 249.3378
369.9893, 252.8755
370.4714, 257.4308
370.9535, 260.1707
371.4356, 260.3974
371.9177, 260.3169
372.3998, 259.9066
372.8820, 259.2242
373.3641, 258.2190
373.8462, 256.4729
374.3283, 255.4980
374.8104, 256.1176
375.2925, 258.5004
375.7747, 260.5758
376.2568, 262.3251
376.7389, 263.8392
377.2210, 265.2722
377.7031, 266.6436
378.1852, 267.6739
378.6674, 268.4069
379.1495, 268.7290
379.6316, 267.7064
380.1137, 265.1561
380.5958, 262.9985
381.0779, 263.7757
381.5601, 266.7970
382.0422, 268.5170
382.5243, 267.8344
383.0064, 265.9159
383.4885, 264.1681
383.9706, 262.6814
384.4528, 262.2362
384.9349, 264.3380
385.4170, 267.5777
385.8991, 269.6536
386.3812, 270.1322
386.8633, 269.7808
387.3455, 268.9922
387.8276, 267.9142
388.3097, 266.8687
388.7918, 264.1678
389.2739, 262.7705
389.7560, 266.5311
390.2382, 276.3370
390.7203, 284.0663
391.2024, 282.4168
391.6845, 277.2645
392.1666, 275.3647
392.6487, 283.0506
393.1309, 290.5817
393.6130, 293.7618
394.0951, 292.8900
394.5772, 291.9923
395.0593, 291.5834
395.5414, 291.7928
396.0236, 292.7088
396.5057, 294.3376
396.9878, 296.6898
397.4699, 301.3771
397.9520, 306.9971
398.4341, 309.0587
398.9163, 303.8593
399.3984, 298.9527
399.8805, 297.5916
400.3626, 302.2474
400.8447, 302.7056
401.3268, 295.7969
401.8090, 287.0340
402.2911, 284.3756
402.7732, 289.6531
403.2553, 296.3529
403.7374, 291.5952
404.2195, 307.8107
404.7017, 317.6926
405.1838, 321.5806
405.6659, 301.5238
406.1480, 312.3868
406.6301, 310.8585
407.1122, 308.8222
407.5944, 324.0373
408.0765, 307.4633
408.5586, 322.4044
409.0407, 324.7654
409.5228, 332.8839
410.0049, 328.5348
410.4871, 328.0368
410.9692, 340.0104
411.4513, 345.0781
411.9334, 339.2937
412.4155, 347.7783
412.8976, 337.8219
413.3798, 343.0973
413.8619, 351.7840
414.3440, 360.3116
414.8261, 364.8049
415.3082, 365.1939
415.7903, 364.0205
416.2725, 360.8299
416.7546, 357.8026
417.2367, 357.4472
417.7188, 363.3127
418.2009, 368.9834
418.6830, 371.2090
419.1652, 370.7300
419.6473, 370.1734
420.1294, 369.7063
420.6115, 369.9203
421.0937, 370.9694
421.5758, 372.2105
422.0579, 375.7154
422.5400, 383.7505
423.0221, 393.7972
423.5042, 401.9003
423.9864, 407.1791
424.4685, 411.2497
424.9506, 413.9939
425.4327, 415.1699
425.9148, 417.7148
426.3969, 421.9866
426.8791, 427.2137
427.3612, 432.9270
427.8433, 439.5719
428.3254, 445.1572
428.8075, 448.9618
429.2896, 451.6700
429.7718, 455.3581
430.2539, 459.9926
430.7360, 465.7426
431.2181, 473.2746
431.7002, 482.4022
432.1823, 489.5383
432.6645, 493.5808
433.1466, 498.7572
433.6287, 512.6555
434.1108, 533.5150
434.5929, 552.6320
435.0750, 563.7157
435.5572, 571.8223
436.0393, 587.2434
436.5214, 609.6054
437.0035, 631.0583
437.4856, 643.4110
437.9677, 651.4579
438.4499, 661.4292
438.9320, 673.9120
439.4141, 690.3825
439.8962, 714.7178
440.3783, 744.0402
440.8604, 771.6531
441.3426, 790.9055
441.8247, 810.0287
442.3068, 833.7373
442.7889, 863.1656
443.2710, 894.1962
443.7531, 926.8511
444.2353, 960.0389
444.7174, 993.1234
445.1995, 1025.300
445.6816, 1057.655
446.1637, 1090.405
446.6458, 1123.286
447.1280, 1156.583
447.6101, 1188.734
448.0922, 1223.180
448.5743, 1261.724
449.0564, 1306.288
449.5385, 1351.418
450.0207, 1398.513
450.5028, 1444.563
450.9849, 1483.629
451.4670, 1514.931
451.9491, 1541.382
452.4312, 1563.317
452.9134, 1581.002
453.3955, 1598.313
453.8776, 1615.760
454.3597, 1628.927
454.8418, 1633.119
455.3239, 1629.135
455.8061, 1620.374
456.2882, 1608.171
456.7703, 1590.460
457.2524, 1561.410
457.7345, 1523.372
458.2166, 1485.153
458.6988, 1458.179
459.1809, 1430.964
459.6630, 1388.801
460.1451, 1327.654
460.6272, 1267.429
461.1093, 1224.880
461.5915, 1189.526
462.0736, 1149.194
462.5557, 1091.359
463.0378, 1036.115
463.5199, 991.5733
464.0020, 957.1049
464.4842, 925.4844
464.9663, 901.2367
465.4484, 875.3805
465.9305, 842.1738
466.4126, 789.7266
466.8947, 750.0232
467.3769, 728.5492
467.8590, 717.4921
468.3411, 704.2534
468.8232, 688.4453
469.3053, 671.0870
469.7874, 650.9726
470.2696, 628.5339
470.7517, 612.2919
471.2338, 603.3354
471.7159, 597.3094
472.1980, 591.5642
472.6801, 586.0231
473.1623, 578.3504
473.6444, 567.4324
474.1265, 555.6796
474.6086, 547.2076
475.0907, 541.7174
475.5728, 537.2719
476.0550, 533.2493
476.5371, 529.4641
477.0192, 524.6813
477.5013, 518.7807
477.9834, 515.6580
478.4655, 523.0026
478.9477, 533.4870
479.4298, 537.1469
479.9119, 525.8919
480.3940, 513.6941
480.8761, 506.4074
481.3582, 503.7410
481.8404, 505.0328
482.3225, 516.4673
482.8046, 526.5371
483.2867, 528.9813
483.7688, 520.1874
484.2509, 514.4923
484.7331, 514.6792
485.2152, 517.7096
485.6973, 520.9064
486.1794, 524.4437
486.6615, 527.8638
487.1436, 531.1363
487.6258, 534.2612
488.1079, 537.3842
488.5900, 540.7481
489.0721, 543.3768
489.5542, 543.9747
490.0363, 542.5056
490.5185, 543.2300
491.0006, 546.1164
491.4827, 551.6526
491.9648, 562.6532
492.4470, 577.7891
492.9291, 589.2673
493.4112, 591.7513
493.8933, 591.2258
494.3754, 597.6682
494.8575, 610.0834
495.3397, 621.8168
495.8218, 628.3619
496.3039, 632.1534
496.7860, 635.4380
497.2681, 638.3031
497.7502, 641.9083
498.2324, 645.1545
498.7145, 650.0010
499.1966, 659.1831
499.6787, 678.3043
500.1608, 696.9890
500.6429, 711.3306
501.1251, 721.6230
501.6072, 733.6217
502.0893, 750.9473
502.5714, 767.3730
503.0535, 779.6253
503.5356, 784.7518
504.0178, 792.5706
504.4999, 802.9835
504.9820, 816.1502
505.4641, 833.4206
505.9462, 855.7390
506.4283, 876.9621
506.9105, 895.2107
507.3926, 910.8966
507.8747, 924.9030
508.3568, 937.1577
508.8389, 950.0616
509.3210, 966.2394
509.8032, 984.6528
510.2853, 1003.104
510.7674, 1021.722
511.2495, 1038.634
511.7316, 1049.772
512.2137, 1057.940
512.6959, 1068.639
513.1780, 1085.880
513.6601, 1105.110
514.1422, 1123.022
514.6243, 1140.013
515.1064, 1159.010
515.5886, 1182.459
516.0707, 1207.451
516.5528, 1232.280
517.0349, 1258.095
517.5170, 1281.350
517.9991, 1300.030
518.4813, 1316.461
518.9634, 1333.510
519.4455, 1352.466
519.9276, 1369.566
520.4097, 1382.345
520.8918, 1392.082
521.3740, 1410.032
521.8561, 1438.505
522.3382, 1467.537
522.8203, 1492.056
523.3024, 1511.807
523.7845, 1524.383
524.2667, 1528.276
524.7488, 1530.436
525.2309, 1539.226
525.7130, 1553.618
526.1951, 1570.014
526.6772, 1589.640
527.1594, 1608.531
527.6415, 1618.718
528.1236, 1622.693
528.6057, 1631.749
529.0878, 1661.071
529.5699, 1692.104
530.0521, 1709.574
530.5342, 1709.140
531.0163, 1706.858
531.4984, 1704.365
531.9805, 1704.122
532.4626, 1708.710
532.9448, 1725.467
533.4269, 1738.636
533.9090, 1744.582
534.3911, 1745.458
534.8732, 1749.948
535.3553, 1761.244
535.8375, 1770.215
536.3196, 1771.612
536.8017, 1764.917
537.2838, 1764.043
537.7659, 1771.578
538.2480, 1776.348
538.7302, 1761.292
539.2123, 1729.981
539.6944, 1708.470
540.1765, 1704.085
540.6586, 1708.807
541.1407, 1715.610
541.6229, 1722.830
542.1050, 1724.668
542.5871, 1715.996
543.0692, 1701.873
543.5513, 1685.592
544.0334, 1667.518
544.5156, 1650.197
544.9977, 1634.695
545.4798, 1620.509
545.9619, 1607.646
546.4440, 1599.529
546.9261, 1587.619
547.4083, 1572.063
547.8904, 1551.534
548.3725, 1523.222
548.8546, 1478.674
549.3367, 1440.067
549.8188, 1414.343
550.3010, 1400.274
550.7831, 1383.669
551.2652, 1364.177
551.7473, 1343.233
552.2294, 1320.408
552.7115, 1296.228
553.1937, 1277.960
553.6758, 1267.091
554.1579, 1258.340
554.6400, 1244.042
555.1221, 1226.379
555.6042, 1211.906
556.0864, 1204.067
556.5685, 1199.074
557.0506, 1194.190
557.5327, 1189.328
558.0148, 1184.238
558.4969, 1176.464
558.9791, 1170.169
559.4612, 1167.990
559.9433, 1170.521
560.4254, 1175.455
560.9075, 1181.265
561.3896, 1190.025
561.8718, 1203.829
562.3539, 1228.040
562.8360, 1247.997
563.3181, 1260.725
563.8002, 1269.272
564.2823, 1280.882
564.7645, 1295.574
565.2466, 1312.871
565.7287, 1332.840
566.2108, 1355.181
566.6929, 1380.382
567.1750, 1408.586
567.6572, 1431.762
568.1393, 1441.148
568.6214, 1440.628
569.1035, 1437.846
569.5856, 1434.512
570.0677, 1426.865
570.5499, 1410.935
571.0320, 1388.724
571.5141, 1363.348
571.9962, 1339.494
572.4783, 1309.178
572.9604, 1266.951
573.4426, 1214.915
573.9247, 1162.698
574.4068, 1110.671
574.8889, 1060.233
575.3710, 1011.235
575.8531, 963.0746
576.3353, 923.1749
576.8174, 895.0444
577.2995, 870.5413
577.7816, 840.6523
578.2637, 804.6144
578.7458, 772.9008
579.2280, 747.2151
579.7101, 726.1444
580.1922, 708.6575
580.6743, 694.1523
581.1564, 679.2288
581.6385, 659.9805
582.1207, 640.6381
582.6028, 628.6190
583.0849, 623.0266
583.5670, 616.0189
584.0491, 600.8887
584.5313, 583.8524
585.0134, 569.2077
585.4955, 557.1482
585.9776, 549.1115
586.4597, 549.8412
586.9418, 553.0264
587.4240, 551.4354
587.9061, 541.7912
588.3882, 531.9734
588.8703, 521.2786
589.3524, 511.3643
589.8345, 508.7440
590.3167, 516.1387
590.7988, 520.1873
591.2809, 512.8191
591.7630, 496.9767
592.2451, 488.2153
592.7272, 486.6946
593.2094, 488.3592
593.6915, 491.5814
594.1736, 495.2358
594.6557, 497.0623
595.1378, 496.4527
595.6199, 494.9019
596.1021, 493.3225
596.5842, 491.5528
597.0663, 489.3527
597.5485, 484.4885
598.0306, 481.4901
598.5127, 483.3784
598.9948, 488.7664
599.4769, 491.5783
599.9590, 489.4927
600.4412, 487.2001
600.9233, 486.0954
601.4054, 486.2062
601.8875, 486.8198
602.3696, 487.6841
602.8517, 489.6755
603.3339, 493.8387
603.8160, 500.0417
604.2981, 506.4747
604.7802, 513.1136
605.2623, 519.1198
605.7444, 524.6772
606.2266, 528.7715
606.7087, 528.3140
607.1908, 518.3431
607.6729, 507.4343
608.1550, 501.1288
608.6371, 499.2773
609.1193, 501.1736
609.6014, 509.7315
610.0835, 519.2782
610.5656, 527.5899
611.0477, 534.6869
611.5298, 538.9950
612.0120, 538.5162
612.4941, 537.2068
612.9762, 537.8585
613.4583, 541.3846
613.9404, 543.4940
614.4225, 543.7603
614.9047, 543.0004
615.3868, 541.9347
615.8689, 540.6480
616.3510, 540.6804
616.8331, 543.7042
617.3152, 546.6763
617.7974, 542.7251
618.2795, 534.0070
618.7616, 528.6719
619.2437, 534.4098
619.7258, 542.8585
620.2079, 548.4449
620.6901, 550.7928
621.1722, 551.0168
621.6543, 546.5367
622.1364, 542.1302
622.6185, 541.3998
623.1006, 547.9819
623.5828, 550.4246
624.0649, 547.2594
624.5470, 541.3013
625.0291, 535.1733
625.5112, 528.3090
625.9933, 524.6431
626.4755, 525.7823
626.9576, 529.3290
627.4397, 531.2278
627.9218, 531.3735
628.4039, 528.9658
628.8860, 520.7324
629.3682, 511.2051
629.8503, 506.7706
630.3324, 507.0017
630.8145, 508.7091
631.2966, 513.1205
631.7787, 516.1818
632.2609, 514.0394
632.7430, 504.2874
633.2251, 496.9569
633.7072, 494.9356
634.1893, 495.6328
634.6714, 497.1639
635.1536, 500.7014
635.6357, 502.5573
636.1178, 502.6048
636.5999, 500.6989
637.0820, 495.6466
637.5641, 487.2943
638.0463, 480.1502
638.5284, 475.8106
639.0105, 473.3937
639.4926, 471.0829
639.9747, 468.9828
640.4568, 467.7418
640.9390, 468.2952
641.4211, 469.5157
641.9032, 470.3762
642.3853, 470.8000
642.8674, 471.2667
643.3495, 472.7511
643.8317, 473.8166
644.3138, 473.4031
644.7959, 470.4280
645.2780, 467.6275
645.7601, 463.8063
646.2422, 461.2041
646.7244, 463.5943
647.2065, 472.6136
647.6886, 477.5379
648.1707, 475.0644
648.6528, 469.5330
649.1349, 471.1143
649.6171, 478.5511
650.0992, 483.0193
650.5813, 478.2950
651.0634, 469.6642
651.5455, 462.6136
652.0276, 457.1089
652.5098, 453.3184
652.9919, 451.3756
653.4740, 451.1227
653.9561, 452.9802
654.4382, 457.4661
654.9203, 461.0518
655.4025, 461.5516
655.8846, 462.4525
656.3667, 466.8155
656.8488, 477.6299
657.3309, 482.0500
657.8130, 477.4109
658.2952, 470.4004
658.7773, 472.3338
659.2594, 482.1558
659.7415, 486.4558
660.2236, 479.7082
660.7057, 469.2174
661.1879, 465.0955
661.6700, 465.8116
662.1521, 467.1772
662.6342, 467.9901
663.1163, 468.0871
663.5984, 466.2749
664.0806, 463.0557
664.5627, 462.3316
665.0448, 469.3322
665.5269, 475.0593
666.0090, 474.4486
666.4911, 465.8456
666.9733, 463.8726
667.4554, 470.9689
667.9375, 479.8599
668.4196, 485.4987
668.9017, 487.8662
669.3839, 484.5793
669.8660, 473.9312
670.3481, 464.7562
670.8302, 471.2477
671.3123, 486.6818
671.7944, 496.1266
672.2766, 491.5049
672.7587, 485.2020
673.2408, 486.0045
673.7229, 490.8493
674.2050, 493.7465
674.6871, 491.2824
675.1693, 488.5691
675.6514, 486.8115
676.1335, 485.9026
676.6156, 485.0512
677.0977, 483.3748
677.5798, 483.8529
678.0620, 489.1083
678.5441, 498.3212
679.0262, 502.7985
679.5083, 502.4108
679.9904, 499.9835
680.4725, 495.2618
680.9547, 490.7942
681.4368, 492.1105
681.9189, 500.4283
682.4010, 508.8270
682.8831, 514.0508
683.3652, 516.2601
683.8474, 515.2554
684.3295, 507.2919
684.8116, 502.0035
685.2937, 502.9913
685.7758, 506.4064
686.2579, 506.6966
686.7401, 501.0493
687.2222, 500.7696
687.7043, 510.6125
688.1864, 524.3793
688.6685, 523.8391
689.1506, 510.1630
689.6328, 502.4187
690.1149, 515.1041
690.5970, 534.7698
691.0791, 541.3340
691.5612, 536.5025
692.0433, 528.9579
692.5255, 519.6162
693.0076, 511.9764
693.4897, 508.8710
693.9718, 510.8773
694.4539, 512.6665
694.9360, 513.5201
695.4182, 513.9547
695.9003, 513.8729
696.3824, 512.5681
696.8645, 514.6300
697.3466, 521.6277
697.8287, 527.8737
698.3109, 525.2062
698.7930, 515.6669
699.2751, 510.6992
699.7572, 513.2693
700.2393, 517.2816
700.7214, 515.4565
701.2036, 510.9117
701.6857, 508.9110
702.1678, 515.2052
702.6499, 519.8324
703.1320, 516.7374
703.6141, 509.2923
704.0963, 506.0927
704.5784, 510.1193
705.0605, 514.5052
705.5426, 518.3376
706.0247, 521.3842
706.5068, 521.9561
706.9890, 519.6765
707.4711, 518.1290
707.9532, 520.6319
708.4353, 524.9066
708.9174, 524.0342
709.3995, 518.5441
709.8817, 513.6190
710.3638, 512.9077
710.8459, 514.3177
711.3280, 516.5630
711.8101, 519.7173
712.2922, 521.7344
712.7744, 522.0129
713.2565, 520.9512
713.7386, 518.6164
714.2207, 513.5990
714.7028, 511.3392
715.1849, 513.1216
715.6671, 515.3909
716.1492, 512.5667
716.6313, 505.4276
717.1134, 504.0328
717.5955, 511.5298
718.0776, 520.6086
718.5598, 521.7216
719.0419, 517.9222
719.5240, 515.1108
720.0061, 515.5794
720.4882, 517.2489
720.9703, 520.2996
721.4525, 523.7872
721.9346, 525.5790
722.4167, 524.5659
722.8988, 522.8454
723.3809, 520.1518
723.8630, 517.0995
724.3452, 516.3262
724.8273, 518.0369
725.3094, 520.6228
725.7915, 524.6926
726.2736, 528.6002
726.7557, 526.6196
727.2379, 519.5542
727.7200, 513.7340
728.2021, 514.6254
728.6842, 517.5298
729.1663, 518.3862
729.6484, 516.7753
730.1306, 516.0782
730.6127, 517.8298
731.0948, 520.3094
731.5769, 522.5063
732.0590, 524.2120
732.5411, 526.6426
733.0233, 529.9490
733.5054, 533.6424
733.9875, 537.8628
734.4696, 542.3367
734.9517, 544.8823
735.4338, 545.2251
735.9160, 543.9644
736.3981, 539.5266
736.8802, 534.5641
737.3623, 533.1980
737.8444, 537.9951
738.3266, 543.6722
738.8087, 550.1686
739.2908, 555.7278
739.7729, 557.3051
740.2551, 549.8376
740.7372, 547.9854
741.2193, 555.9271
741.7014, 568.2565
742.1835, 573.2155
742.6656, 570.7010
743.1478, 567.3383
743.6299, 564.8583
744.1120, 563.1649
744.5941, 562.4862
745.0762, 562.5284
745.5583, 562.3561
746.0405, 560.6681
746.5226, 559.4261
747.0047, 560.3130
747.4868, 562.8572
747.9689, 564.1755
748.4510, 562.0166
748.9332, 561.0957
749.4153, 563.5521
749.8974, 568.9271
750.3795, 571.1531
750.8616, 569.6399
751.3438, 569.4557
751.8259, 575.7141
752.3080, 585.2495
752.7901, 591.0735
753.2722, 593.0142
753.7543, 592.0253
754.2365, 583.7700
754.7186, 576.2780
755.2007, 577.3362
755.6828, 589.6348
756.1649, 599.4108
756.6470, 605.5914
757.1292, 607.6183
757.6113, 603.7133
758.0934, 591.1924
758.5755, 585.7147
759.0576, 588.7935
759.5397, 593.7184
760.0219, 593.1193
760.5040, 588.5906
760.9861, 585.1407
761.4682, 583.6547
761.9503, 582.8673
762.4324, 581.9313
762.9146, 581.0574
763.3967, 580.3879
763.8788, 578.7410
764.3609, 579.3185
764.8430, 585.3792
765.3251, 592.3665
765.8073, 595.2576
766.2894, 593.5844
766.7715, 588.9581
767.2536, 580.1080
767.7357, 571.2341
768.2178, 569.8586
768.7000, 574.7816
769.1821, 581.4056
769.6642, 590.4196
770.1463, 597.1140
770.6284, 595.3270
771.1105, 588.5690
771.5927, 583.6265
772.0748, 587.2859
772.5569, 587.3494
773.0390, 577.0043
773.5211, 561.8866
774.0032, 557.3690
774.4854, 566.5048
774.9675, 574.8129
775.4496, 577.8613
775.9317, 577.4090
776.4138, 577.9943
776.8959, 579.2068
777.3781, 578.8457
777.8602, 574.8757
778.3423, 569.5491
778.8244, 562.6068
779.3065, 555.3506
779.7886, 553.0534
780.2708, 564.6160
780.7529, 573.6571
781.2350, 573.9109
781.7171, 566.4636
782.1992, 561.6011
782.6813, 559.9403
783.1635, 558.5581
783.6456, 555.2512
784.1277, 551.1998
784.6098, 550.6746
785.0919, 553.3958
785.5740, 556.4987
786.0562, 558.5979
786.5383, 559.9795
787.0204, 561.1521
787.5025, 562.1348
787.9846, 561.4555
788.4667, 553.4855
788.9489, 549.1154
789.4310, 555.3876
789.9131, 573.4072
790.3952, 578.8718
790.8773, 569.6299
791.3594, 557.6633
791.8416, 550.1257
792.3237, 547.0143
792.8058, 550.2198
793.2879, 559.7109
793.7700, 567.7773
794.2521, 567.3651
794.7343, 564.4288
795.2164, 563.5942
795.6985, 565.6234
796.1806, 569.1174
796.6627, 575.6879
797.1448, 581.6714
797.6270, 584.1343
798.1091, 582.3726
798.5912, 583.2163
799.0733, 587.1879
799.5554, 591.2347
800.0375, 591.4594
800.5197, 589.8675
801.0018, 591.0181
801.4839, 596.0040
801.9660, 599.5078
802.4481, 594.0916
802.9302, 588.3898
803.4124, 590.3914
803.8945, 607.2458
804.3766, 617.9938
804.8587, 619.8015
805.3408, 619.2292
805.8229, 622.1852
806.3051, 628.6480
806.7872, 636.1481
807.2693, 645.0822
807.7514, 651.4075
808.2335, 648.7405
808.7156, 641.6066
809.1978, 636.5129
809.6799, 634.5594
810.1620, 635.5596
810.6441, 641.1252
811.1262, 648.7141
811.6083, 655.9611
812.0905, 663.8127
812.5726, 668.8533
813.0547, 670.2319
813.5368, 670.2205
814.0189, 670.4678
814.5010, 671.3566
814.9832, 675.7455
815.4653, 684.6829
815.9474, 694.1514
816.4295, 700.4280
816.9116, 705.1266
817.3937, 710.5483
817.8759, 719.2192
818.3580, 724.5986
818.8401, 721.6461
819.3222, 717.2059
819.8043, 718.0908
820.2864, 725.7850
820.7686, 731.6931
821.2507, 734.4775
821.7328, 736.9641
822.2149, 743.8787
822.6970, 753.2437
823.1791, 759.7928
823.6613, 761.4286
824.1434, 762.9637
824.6255, 768.1610
825.1076, 774.7085
825.5897, 779.9553
826.0718, 784.4175
826.5540, 785.7182
827.0361, 781.6522
827.5182, 777.0024
828.0003, 778.6662
828.4824, 786.5217
828.9645, 790.4159
829.4467, 788.0275
829.9288, 784.8203
830.4109, 787.0627
830.8930, 792.5789
831.3751, 798.3880
831.8572, 804.7078
832.3394, 808.8641
832.8215, 809.4661
833.3036, 807.6154
833.7857, 804.2305
834.2678, 797.5207
834.7499, 794.7252
835.2321, 796.7156
835.7142, 801.7424
836.1963, 810.8900
836.6784, 821.6569
837.1605, 823.1690
837.6426, 811.5699
838.1248, 798.7453
838.6069, 792.7246
839.0890, 791.0961
839.5711, 791.5516
840.0532, 795.8848
840.5353, 798.0015
841.0175, 796.1868
841.4996, 793.4948
841.9817, 793.3621
842.4638, 795.9346
842.9459, 797.6998
843.4280, 798.6066
843.9102, 797.2216
844.3923, 790.3976
844.8744, 780.7100
845.3565, 772.1659
845.8386, 765.3585
846.3207, 760.2881
846.8029, 759.6406
847.2850, 758.9886
847.7671, 753.6536
848.2492, 738.4808
848.7313, 734.1237
849.2134, 744.4665
849.6956, 755.7950
850.1777, 751.9581
850.6598, 737.5480
851.1419, 729.4343
851.6240, 730.1656
852.1061, 731.2358
852.5883, 726.9969
853.0704, 719.5483
853.5525, 709.4681
854.0346, 693.5836
854.5167, 686.5892
854.9988, 694.4442
855.4810, 704.3373
855.9631, 707.2533
856.4452, 703.0887
856.9273, 697.7663
857.4094, 691.3413
857.8915, 685.1995
858.3737, 680.3734
858.8558, 676.7287
859.3379, 674.9397
859.8200, 675.3480
860.3021, 673.5798
860.7842, 662.5130
861.2664, 653.8079
861.7485, 655.5176
862.2306, 669.4152
862.7127, 674.9520
863.1948, 670.6424
863.6769, 664.7046
864.1591, 662.4231
864.6412, 662.9755
865.1233, 666.0987
865.6054, 671.2903
866.0875, 672.4489
866.5696, 660.8994
867.0518, 648.3712
867.5339, 642.5311
868.0160, 644.2372
868.4981, 646.2010
868.9802, 649.3930
869.4623, 650.6025
869.9445, 646.6979
870.4266, 639.6575
870.9087, 640.2620
871.3908, 647.7067
871.8729, 653.3996
872.3550, 650.0345
872.8372, 644.4393
873.3193, 642.8360
873.8014, 644.4454
874.2835, 644.0688
874.7656, 637.0510
875.2477, 632.2526
875.7299, 633.1555
876.2120, 637.6902
876.6941, 636.3206
877.1762, 629.0684
877.6583, 625.4982
878.1404, 632.8799
878.6226, 642.9221
879.1047, 643.9921
879.5869, 638.8336
880.0690, 634.5463
880.5511, 633.5035
881.0332, 634.0985
881.5153, 637.2656
881.9974, 641.3091
882.4796, 642.2306
882.9617, 639.0705
883.4438, 638.4568
883.9259, 642.5490
884.4080, 648.6493
884.8901, 653.3978
885.3723, 656.7320
885.8544, 658.4094
886.3365, 657.4393
886.8186, 656.2514
887.3007, 655.2144
887.7828, 654.9031
888.2650, 656.1485
888.7471, 659.4719
889.2292, 662.7518
889.7113, 665.5333
890.1934, 668.8954
890.6755, 676.8856
891.1577, 686.6996
891.6398, 688.6387
892.1219, 679.5404
892.6040, 669.4572
893.0861, 661.2402
893.5682, 657.8408
894.0504, 663.2101
894.5325, 683.5931
895.0146, 698.2457
895.4967, 706.3536
895.9788, 710.2260
896.4609, 709.8552
896.9431, 706.3038
897.4252, 706.7463
897.9073, 711.6038
898.3894, 716.8542
898.8715, 717.4136
899.3536, 718.5660
899.8358, 726.7444
900.3179, 743.3928
900.8000, 753.7045
901.2821, 752.9398
901.7642, 750.5198
902.2463, 749.7263
902.7285, 750.7784
903.2106, 756.5077
903.6927, 766.7008
904.1748, 776.2200
904.6569, 780.4445
905.1390, 783.6704
905.6212, 791.1539
906.1033, 801.7014
906.5854, 810.2521
907.0675, 813.7088
907.5496, 816.7994
908.0317, 820.1775
908.5139, 824.1216
908.9960, 829.2961
909.4781, 835.6860
909.9602, 844.5630
910.4423, 857.1569
910.9244, 871.0001
911.4066, 883.2476
911.8887, 894.4609
912.3708, 905.8564
912.8529, 922.6413
913.3350, 932.8561
913.8171, 927.2186
914.2993, 919.2476
914.7814, 929.3655
915.2635, 959.3766
915.7456, 982.9198
916.2277, 995.3923
916.7098, 1004.624
917.1920, 1019.576
917.6741, 1037.053
918.1562, 1051.565
918.6383, 1060.021
919.1204, 1072.223
919.6025, 1095.460
920.0847, 1119.922
920.5668, 1138.103
921.0489, 1148.308
921.5310, 1165.148
922.0131, 1188.887
922.4952, 1216.275
922.9774, 1244.033
923.4595, 1274.022
923.9416, 1312.618
924.4237, 1358.894
924.9058, 1397.506
925.3879, 1409.543
925.8701, 1426.200
926.3522, 1460.614
926.8343, 1511.425
927.3164, 1568.096
927.7985, 1631.846
928.2806, 1692.354
928.7628, 1740.153
929.2449, 1785.631
929.7270, 1846.644
930.2091, 1919.099
930.6912, 1993.705
931.1733, 2061.146
931.6555, 2135.702
932.1376, 2217.665
932.6197, 2310.609
933.1018, 2424.131
933.5839, 2562.167
934.0660, 2696.396
934.5482, 2820.195
935.0303, 2947.272
935.5124, 3090.779
935.9945, 3254.195
936.4766, 3441.635
936.9587, 3658.530
937.4409, 3894.485
937.9230, 4151.964
938.4051, 4426.787
938.8872, 4712.882
939.3693, 5009.602
939.8514, 5342.139
940.3336, 5710.988
940.8157, 6089.850
941.2978, 6451.121
941.7799, 6814.571
942.2620, 7210.156
942.7441, 7637.725
943.2263, 8091.113
943.7084, 8575.364
944.1905, 9067.467
944.6726, 9564.743
945.1547, 10062.00
945.6368, 10526.45
946.1190, 10961.68
946.6011, 11368.72
947.0832, 11769.38
947.5653, 12120.01
948.0474, 12380.80
948.5295, 12549.65
949.0117, 12621.68
949.4938, 12610.24
949.9759, 12475.27
950.4580, 12199.96
950.9401, 11813.94
951.4222, 11355.91
951.9044, 10823.77
952.3865, 10243.54
952.8686, 9613.800
953.3507, 8963.460
953.8328, 8292.021
954.3149, 7633.193
954.7971, 7024.249
955.2792, 6485.204
955.7613, 5994.383
956.2434, 5560.072
956.7255, 5156.105
957.2076, 4766.686
957.6898, 4390.857
958.1719, 4044.149
958.6540, 3723.972
959.1361, 3440.706
959.6182, 3208.426
960.1003, 3006.805
960.5825, 2815.538
961.0646, 2635.330
961.5467, 2475.306
962.0288, 2344.635
962.5109, 2224.011
962.9930, 2111.877
963.4752, 2007.714
963.9573, 1913.992
964.4394, 1830.345
964.9215, 1749.177
965.4036, 1665.892
965.8857, 1588.287
966.3679, 1522.067
966.8500, 1465.478
967.3321, 1416.004
967.8142, 1379.661
968.2963, 1338.516
968.7784, 1289.959
969.2606, 1242.376
969.7427, 1205.105
970.2248, 1176.394
970.7069, 1152.635
971.1890, 1133.510
971.6711, 1108.782
972.1533, 1061.903
972.6354, 1015.653
973.1175, 986.3865
973.5996, 974.4744
974.0817, 966.9645
974.5638, 965.6338
975.0460, 962.4047
975.5281, 953.4490
976.0102, 940.8348
976.4923, 927.0091
976.9744, 913.0873
977.4565, 902.3461
977.9387, 900.7710
978.4208, 897.2853
978.9029, 883.9112
979.3850, 868.4548
979.8671, 862.5161
980.3492, 868.4712
980.8314, 869.3061
981.3135, 862.0422
981.7956, 854.5871
982.2777, 856.8801
982.7598, 863.9028
983.2419, 868.4032
983.7241, 868.9932
984.2062, 869.7764
984.6883, 872.9532
985.1704, 875.5403
985.6525, 875.9841
986.1346, 874.5292
986.6168, 873.4814
987.0989, 872.8607
987.5810, 873.2869
988.0631, 875.5949
988.5452, 878.7218
989.0273, 882.2153
989.5095, 885.6969
989.9916, 888.2721
990.4737, 893.7158
990.9558, 891.1260
991.4379, 876.1283
991.9200, 857.0626
992.4022, 846.8972
992.8843, 844.1660
993.3664, 843.0500
993.8485, 843.1368
994.3306, 840.6895
994.8127, 829.0135
995.2949, 816.4451
995.7770, 811.6393
996.2591, 816.6443
996.7412, 816.2583
997.2233, 809.5699
997.7054, 800.8315
998.1876, 791.3126
998.6697, 782.1011
999.1518, 777.1077
999.6339, 774.8223
1000.116, 769.1899
1000.598, 749.0520
1001.080, 734.9404
1001.562, 738.7558
1002.044, 750.6664
1002.527, 753.0781
1003.009, 745.3470
1003.491, 736.5545
1003.973, 727.8755
1004.455, 721.0475
1004.937, 719.3181
1005.419, 720.0944
1005.901, 720.2613
1006.384, 719.1904
1006.866, 717.6656
1007.348, 714.1345
1007.830, 712.7564
1008.312, 717.7790
1008.794, 727.2249
1009.276, 728.8635
1009.758, 723.3113
1010.240, 715.9047
1010.723, 707.9208
1011.205, 700.8773
1011.687, 695.1068
1012.169, 691.1639
1012.651, 690.3180
1013.133, 693.4623
1013.615, 697.4278
1014.097, 702.5489
1014.580, 706.2074
1015.062, 703.5585
1015.544, 697.1510
1016.026, 691.1591
1016.508, 685.9461
1016.990, 683.8952
1017.472, 689.0672
1017.954, 694.8154
1018.436, 696.7192
1018.919, 695.0886
1019.401, 698.1948
1019.883, 706.0542
1020.365, 712.5061
1020.847, 712.9589
1021.329, 711.1747
1021.811, 708.7201
1022.293, 707.1182
1022.776, 710.2144
1023.258, 722.5931
1023.740, 733.3847
1024.222, 741.4622
1024.704, 747.7648
1025.186, 752.6525
1025.668, 756.7915
1026.150, 763.3398
1026.632, 773.1642
1027.115, 779.8382
1027.597, 772.9965
1028.079, 767.2155
1028.561, 773.9250
1029.043, 792.4431
1029.525, 807.1954
1030.007, 817.3851
1030.489, 828.4081
1030.972, 843.0206
1031.454, 859.4476
1031.936, 876.7790
1032.418, 894.0740
1032.900, 909.0596
1033.382, 910.5744
1033.864, 926.2172
1034.346, 965.3027
1034.828, 1009.775
1035.311, 1036.239
1035.793, 1048.440
1036.275, 1070.421
1036.757, 1104.347
1037.239, 1140.347
1037.721, 1165.027
1038.203, 1194.843
1038.685, 1245.019
1039.167, 1313.215
1039.650, 1373.161
1040.132, 1421.064
1040.614, 1475.707
1041.096, 1543.411
1041.578, 1618.840
1042.060, 1693.467
1042.542, 1767.828
1043.024, 1843.394
1043.507, 1914.955
1043.989, 1998.110
1044.471, 2101.801
1044.953, 2211.679
1045.435, 2319.478
1045.917, 2424.746
1046.399, 2527.467
1046.881, 2627.261
1047.364, 2725.108
1047.846, 2821.886
1048.328, 2916.744
1048.810, 3014.345
1049.292, 3109.623
1049.774, 3184.886
1050.256, 3237.170
1050.738, 3281.888
1051.220, 3326.153
1051.703, 3352.975
1052.185, 3331.284
1052.667, 3276.662
1053.149, 3217.140
1053.631, 3162.324
1054.113, 3082.383
1054.595, 2956.776
1055.077, 2817.804
1055.559, 2677.713
1056.042, 2538.143
1056.524, 2401.106
1057.006, 2267.046
1057.488, 2139.587
1057.970, 2020.684
1058.452, 1909.034
1058.934, 1801.577
1059.416, 1700.339
1059.899, 1611.016
1060.381, 1538.150
1060.863, 1456.669
1061.345, 1361.122
1061.827, 1270.475
1062.309, 1204.626
1062.791, 1154.585
1063.273, 1109.453
1063.755, 1067.680
1064.238, 1028.233
1064.720, 989.0164
1065.202, 954.1902
1065.684, 926.8474
1066.166, 903.8080
1066.648, 874.4928
1067.130, 841.4284
1067.612, 814.3654
1068.094, 798.0479
1068.577, 784.5563
1069.059, 772.7548
1069.541, 758.7366
1070.023, 737.2258
1070.505, 705.1931
1070.987, 683.4307
1071.469, 672.2767
1071.951, 665.2910
1072.434, 660.7044
1072.916, 655.7172
1073.398, 645.4882
1073.880, 631.7291
1074.362, 620.6635
1074.844, 614.7281
1075.326, 609.7475
1075.808, 606.2855
1076.291, 601.5914
1076.773, 589.0003
1077.255, 572.2289
1077.737, 562.9722
1078.219, 563.2729
1078.701, 564.6664
1079.183, 563.7729
1079.665, 562.0201
1080.147, 560.2946
1080.630, 558.4185
1081.112, 554.6953
1081.594, 549.2296
1082.076, 545.4802
1082.558, 545.9427
1083.040, 546.3099
1083.522, 543.3031
1084.004, 537.6041
1084.486, 529.5276
1084.969, 516.2256
1085.451, 509.0239
1085.933, 509.0172
1086.415, 511.2010
1086.897, 513.0217
1087.379, 513.8608
1087.861, 511.8745
1088.343, 507.7345
1088.826, 504.3249
1089.308, 503.6387
1089.790, 502.3852
1090.272, 499.0503
1090.754, 496.0072
1091.236, 498.5672
1091.718, 505.0027
1092.200, 507.3125
1092.682, 504.2022
1093.165, 498.4359
1093.647, 486.8519
1094.129, 477.7388
1094.611, 477.6440
1095.093, 484.9710
1095.575, 489.4485
1096.057, 491.0902
1096.539, 488.7585
1097.022, 479.2018
1097.504, 471.2523
1097.986, 478.8877
1098.468, 491.7745
1098.950, 495.2921
1099.432, 483.8940
1099.914, 470.7055
1100.396, 453.8244
1100.879, 442.0153
1101.361, 445.8407
1101.843, 457.2678
1102.325, 459.3893
1102.807, 454.8896
1103.289, 454.2788
1103.771, 471.1147
1104.253, 478.2106
1104.735, 466.8159
1105.218, 449.6671
1105.700, 445.4006
1106.182, 451.2973
1106.664, 454.5159
1107.146, 453.6352
1107.628, 452.7287
1108.110, 454.3197
1108.592, 456.6134
1109.074, 459.2989
1109.557, 461.8172
1110.039, 461.5934
1110.521, 458.5970
1111.003, 454.8358
1111.485, 450.7277
1111.967, 446.6852
1112.449, 443.1186
1112.931, 439.9080
1113.414, 436.5672
1113.896, 432.5379
1114.378, 432.2114
1114.860, 436.9372
1115.342, 439.3399
1115.824, 432.5950
1116.306, 423.2784
1116.788, 421.5788
1117.271, 425.5614
1117.753, 430.9257
1118.235, 440.5752
1118.717, 444.7612
1119.199, 441.4156
1119.681, 435.5387
1120.163, 431.5223
1120.645, 429.0354
1121.127, 427.3751
1121.609, 426.4014
1122.092, 425.4341
1122.574, 424.7354
1123.056, 423.1317
1123.538, 419.1480
1124.020, 414.9207
1124.502, 414.3738
1124.984, 417.4372
1125.466, 425.1058
1125.949, 438.3393
1126.431, 448.2292
1126.913, 446.4394
1127.395, 440.6594
1127.877, 435.4744
1128.359, 431.1743
1128.841, 428.9094
1129.323, 428.7020
1129.806, 430.4171
1130.288, 434.8142
1130.770, 439.3428
1131.252, 442.9778
1131.734, 444.4200
1132.216, 440.8795
1132.698, 428.9950
1133.180, 424.4395
1133.662, 428.6807
1134.145, 434.2074
1134.627, 436.7216
1135.109, 437.2821
1135.591, 436.3721
1136.073, 434.9072
1136.555, 435.2284
1137.037, 443.3024
1137.519, 444.1280
1138.001, 433.8269
1138.484, 422.5531
1138.966, 421.9926
1139.448, 428.3938
1139.930, 432.7172
1140.412, 434.8024
1140.894, 437.8374
1141.376, 446.5364
1141.858, 451.8125
1142.341, 450.1761
1142.823, 445.2920
1143.305, 444.0502
1143.787, 445.5690
1144.269, 446.2576
1144.751, 445.6510
1145.233, 442.6676
1145.715, 431.8193
1146.198, 423.4890
1146.680, 424.0745
1147.162, 431.5344
1147.644, 436.5458
1148.126, 439.2751
1148.608, 441.7393
1149.090, 444.6898
1149.572, 447.4074
1150.054, 450.0684
1150.536, 451.7076
1151.019, 451.4376
1151.501, 449.2583
1151.983, 445.3618
1152.465, 439.6684
1152.947, 433.8268
1153.429, 427.2176
1153.911, 422.5571
1154.393, 422.5654
1154.876, 426.3566
1155.358, 433.4037
1155.840, 447.2901
1156.322, 451.5518
1156.804, 444.3559
1157.286, 435.9596
1157.768, 435.7054
1158.250, 438.2454
1158.733, 435.1149
1159.215, 428.6230
1159.697, 428.7012
1160.179, 442.6754
1160.661, 449.3183
1161.143, 444.0905
1161.625, 437.0178
1162.107, 443.1375
1162.589, 453.7198
1163.072, 451.9660
1163.554, 437.5668
1164.036, 427.4891
1164.518, 428.4874
1165.000, 429.7946
1165.482, 428.5747
1165.964, 426.9848
1166.446, 429.5383
1166.928, 434.6101
1167.411, 438.9283
1167.893, 442.0381
1168.375, 443.2424
1168.857, 442.6946
1169.339, 439.2491
1169.821, 430.3444
1170.303, 419.7385
1170.785, 419.7817
1171.268, 427.6233
1171.750, 433.9292
1172.232, 435.3794
1172.714, 435.8667
1173.196, 437.5097
1173.678, 437.8688
1174.160, 434.2608
1174.642, 427.8730
1175.125, 428.2192
1175.607, 433.9594
1176.089, 437.6936
1176.571, 434.4805
1177.053, 430.4472
1177.535, 426.5415
1178.017, 424.4449
1178.499, 427.0815
1178.981, 434.3577
1179.464, 435.2429
1179.946, 430.0527
1180.428, 425.6894
1180.910, 426.2318
1181.392, 429.0458
1181.874, 435.2232
1182.356, 441.5493
1182.838, 442.7914
1183.320, 438.7738
1183.803, 434.6438
1184.285, 430.7480
1184.767, 428.5727
1185.249, 431.6989
1185.731, 434.5348
1186.213, 431.3532
1186.695, 425.0776
1187.177, 425.1006
1187.660, 432.1129
1188.142, 433.9330
1188.624, 427.9498
1189.106, 421.7072
1189.588, 421.7933
1190.070, 424.4350
1190.552, 428.1903
1191.034, 432.0788
1191.516, 429.8422
1191.999, 420.4816
1192.481, 414.6718
1192.963, 415.5763
1193.445, 418.7798
1193.927, 420.2909
1194.409, 421.5869
1194.891, 425.7447
1195.373, 433.0373
1195.855, 430.1359
1196.338, 415.3056
1196.820, 405.5625
1197.302, 409.4038
1197.784, 417.2536
1198.266, 421.4341
1198.748, 421.9505
1199.230, 416.9548
1199.712, 404.2283
1200.195, 401.9218
1200.677, 411.5814
1201.159, 420.8092
1201.641, 422.1051
1202.123, 420.6725
1202.605, 424.1324
1203.087, 428.3181
1203.569, 425.4714
1204.052, 410.0013
1204.534, 403.1122
1205.016, 405.8429
1205.498, 410.6257
1205.980, 412.7605
1206.462, 413.7140
1206.944, 415.0665
1207.426, 416.5954
1207.908, 417.6369
1208.391, 417.6268
1208.873, 418.9108
1209.355, 421.9242
1209.837, 424.4727
1210.319, 424.8347
1210.801, 423.6056
1211.283, 419.1851
1211.765, 413.6212
1212.247, 414.9788
1212.730, 427.8606
1213.212, 433.6478
1213.694, 429.5454
1214.176, 422.2911
1214.658, 416.4029
1215.140, 412.3381
1215.622, 411.3581
1216.104, 412.9252
1216.587, 413.5025
1217.069, 411.8534
1217.551, 413.2620
1218.033, 419.4372
1218.515, 425.1489
1218.997, 423.6410
1219.479, 419.0863
1219.961, 415.0871
1220.443, 412.3326
1220.926, 413.6354
1221.408, 420.1822
1221.890, 426.7011
1222.372, 432.9167
1222.854, 435.3596
1223.336, 425.5244
1223.818, 412.3542
1224.300, 406.1437
1224.782, 408.5186
1225.265, 412.3821
1225.747, 418.3269
1226.229, 422.6158
1226.711, 424.0262
1227.193, 423.5385
1227.675, 420.6057
1228.157, 417.4711
1228.639, 417.5678
1229.122, 421.7247
1229.604, 422.3083
1230.086, 418.8750
1230.568, 414.6626
1231.050, 410.2142
1231.532, 407.0045
1232.014, 408.2862
1232.496, 410.9373
1232.979, 410.4801
1233.461, 405.9706
1233.943, 404.7734
1234.425, 407.1360
1234.907, 410.4368
1235.389, 413.6148
1235.871, 416.9454
1236.353, 422.6981
1236.835, 427.7902
1237.318, 427.3758
1237.800, 420.5620
1238.282, 415.6206
1238.764, 412.6459
1239.246, 410.2685
1239.728, 406.2214
1240.210, 404.4664
1240.692, 412.2393
1241.175, 422.2684
1241.657, 423.7800
1242.139, 414.4860
1242.621, 412.2261
1243.103, 417.0500
1243.585, 420.1463
1244.067, 411.4274
1244.549, 404.1964
1245.031, 411.9069
1245.514, 424.0839
1245.996, 425.5674
1246.478, 415.2320
1246.960, 406.7245
1247.442, 400.4016
1247.924, 399.0892
1248.406, 408.7684
1248.888, 419.4161
1249.370, 427.5139
1249.853, 431.9486
1250.335, 429.9814
1250.817, 421.9466
1251.299, 418.1137
1251.781, 418.6450
1252.263, 418.9130
1252.745, 413.5029
1253.227, 410.3250
1253.710, 415.8231
1254.192, 423.0890
1254.674, 422.3268
1255.156, 414.9836
1255.638, 410.9596
1256.120, 410.8456
1256.602, 413.7526
1257.084, 424.6071
1257.567, 431.1825
1258.049, 427.9700
1258.531, 421.0862
1259.013, 418.4314
1259.495, 419.3203
1259.977, 422.4508
1260.459, 427.2880
1260.941, 429.7087
1261.423, 424.4770
1261.906, 421.5673
1262.388, 425.0858
1262.870, 428.7222
1263.352, 419.4884
1263.834, 404.5223
1264.316, 402.0128
1264.798, 412.5550
1265.280, 421.5557
1265.762, 424.8509
1266.245, 425.4840
1266.727, 423.1124
1267.209, 420.2947
1267.691, 421.0240
1268.173, 423.4675
1268.655, 424.0659
1269.137, 422.7429
1269.619, 424.2938
1270.102, 432.0353
1270.584, 434.5688
1271.066, 428.6961
1271.548, 419.7095
1272.030, 411.4624
1272.512, 405.9234
1272.994, 406.6918
1273.476, 413.6644
1273.958, 419.8762
1274.441, 425.6570
1274.923, 427.4147
1275.405, 423.7133
1275.887, 418.6668
1276.369, 415.4211
1276.851, 413.7833
1277.333, 414.6646
1277.815, 417.3074
1278.297, 416.9493
1278.780, 413.3961
1279.262, 411.3981
1279.744, 412.4017
1280.226, 412.9649
1280.708, 409.2738
1281.190, 404.9774
1281.672, 401.3472
1282.154, 399.5004
1282.637, 406.8809
1283.119, 421.7917
1283.601, 426.3040
1284.083, 415.1242
1284.565, 405.0743
1285.047, 409.4608
1285.529, 413.9542
1286.011, 410.2973
1286.494, 402.5874
1286.976, 402.7221
1287.458, 408.8120
1287.940, 415.3648
1288.422, 421.6980
1288.904, 424.6260
1289.386, 418.3658
1289.868, 415.1020
1290.350, 420.4486
1290.833, 428.6943
1291.315, 427.4334
1291.797, 420.8008
1292.279, 416.8946
1292.761, 417.4430
1293.243, 418.5882
1293.725, 420.7228
1294.207, 420.6243
1294.689, 416.2619
1295.172, 411.4914
1295.654, 411.9893
1296.136, 415.5153
1296.618, 419.9721
1297.100, 425.2411
1297.582, 426.0025
1298.064, 421.0719
1298.546, 419.9724
1299.029, 427.1715
1299.511, 434.3531
1299.993, 431.5002
1300.475, 425.2717
1300.957, 421.9717
1301.439, 421.4487
1301.921, 421.3382
1302.403, 421.6027
1302.885, 421.1118
1303.368, 419.3893
1303.850, 417.5662
1304.332, 415.9599
1304.814, 415.0842
1305.296, 415.3762
1305.778, 416.4488
1306.260, 417.6899
##END=



