##NAMES=Vivianite
##RRUFFID=R070331
##IDEAL CHEMISTRY=Fe^2+^_3_(PO_4_)_2_&#183;8H_2_O
##LOCALITY=Big Fish River, Yukon Territory, Canada
##OWNER=RRUFF
##SOURCE=Mark Mauthner
##DESCRIPTION=Platy, indigo-blue massive, associated with maricite
##STATUS=The identification of this mineral is confirmed by single-crystal X-ray diffraction and chemical analysis.
##URL=rruff.info/R070331
##MEASURED CHEMISTRY=(Fe^2+^_1.77_Mg_1.21_Mn_0.02_)_Σ=3_(P_1.00_O_4_)_2_·8H_2_O;  (dark phase, H_2_O is estimated by difference) : Na_1.00_Fe^2+^_1.00_P_1.00_O_4_ (light phase = maricite, with trace amounts of Mn)
170.8750, 2426.479
171.3571, 2427.316
171.8392, 2416.095
172.3213, 2406.333
172.8034, 2398.779
173.2856, 2396.104
173.7677, 2402.937
174.2498, 2417.482
174.7319, 2433.400
175.2140, 2449.901
175.6961, 2464.689
176.1783, 2472.546
176.6604, 2468.687
177.1425, 2464.388
177.6246, 2475.137
178.1067, 2499.126
178.5888, 2525.399
179.0710, 2543.896
179.5531, 2558.508
180.0352, 2577.585
180.5173, 2603.258
180.9994, 2634.004
181.4815, 2666.687
181.9637, 2701.628
182.4458, 2739.820
182.9279, 2781.762
183.4100, 2827.799
183.8921, 2880.020
184.3742, 2940.423
184.8564, 3006.901
185.3385, 3071.981
185.8206, 3135.872
186.3027, 3202.622
186.7848, 3275.854
187.2669, 3355.620
187.7491, 3444.580
188.2312, 3547.384
188.7133, 3659.806
189.1954, 3769.188
189.6775, 3874.857
190.1596, 3977.409
190.6418, 4074.573
191.1239, 4166.343
191.6060, 4268.042
192.0881, 4392.536
192.5702, 4536.199
193.0524, 4664.159
193.5345, 4771.489
194.0166, 4875.056
194.4987, 5003.355
194.9808, 5158.379
195.4629, 5308.676
195.9451, 5437.732
196.4272, 5547.482
196.9093, 5649.866
197.3914, 5746.714
197.8735, 5833.929
198.3556, 5905.169
198.8378, 5960.660
199.3199, 5997.866
199.8020, 6013.384
200.2841, 6006.497
200.7662, 5986.344
201.2483, 5952.081
201.7305, 5906.068
202.2126, 5853.447
202.6947, 5793.908
203.1768, 5728.915
203.6589, 5658.238
204.1410, 5581.968
204.6232, 5503.975
205.1053, 5424.533
205.5874, 5343.643
206.0695, 5261.404
206.5516, 5177.988
207.0337, 5092.780
207.5159, 5003.134
207.9980, 4908.716
208.4801, 4819.442
208.9622, 4736.965
209.4443, 4660.621
209.9264, 4587.136
210.4086, 4516.275
210.8907, 4448.478
211.3728, 4385.921
211.8549, 4330.152
212.3370, 4271.826
212.8191, 4205.714
213.3013, 4134.615
213.7834, 4079.119
214.2655, 4045.722
214.7476, 4017.332
215.2297, 3978.704
215.7118, 3924.427
216.1940, 3874.053
216.6761, 3832.613
217.1582, 3799.380
217.6403, 3761.296
218.1224, 3715.685
218.6045, 3669.392
219.0867, 3631.378
219.5688, 3610.594
220.0509, 3576.725
220.5330, 3519.124
221.0151, 3436.226
221.4972, 3369.453
221.9794, 3322.462
222.4615, 3286.833
222.9436, 3253.585
223.4257, 3223.153
223.9078, 3193.913
224.3899, 3166.392
224.8721, 3140.476
225.3542, 3113.135
225.8363, 3084.356
226.3184, 3053.952
226.8005, 3020.154
227.2827, 2978.857
227.7648, 2942.594
228.2469, 2915.958
228.7290, 2900.735
229.2111, 2881.498
229.6932, 2855.064
230.1754, 2827.427
230.6575, 2805.841
231.1396, 2790.730
231.6217, 2781.363
232.1038, 2778.632
232.5859, 2783.963
233.0681, 2788.331
233.5502, 2791.554
234.0323, 2793.936
234.5144, 2795.090
234.9965, 2790.830
235.4786, 2792.604
235.9608, 2805.870
236.4429, 2834.257
236.9250, 2855.841
237.4071, 2865.786
237.8892, 2871.778
238.3713, 2886.148
238.8535, 2912.104
239.3356, 2941.196
239.8177, 2972.149
240.2998, 3007.354
240.7819, 3035.000
241.2640, 3052.359
241.7462, 3064.195
242.2283, 3078.576
242.7104, 3095.613
243.1925, 3115.095
243.6746, 3138.200
244.1567, 3168.027
244.6389, 3191.099
245.1210, 3206.505
245.6031, 3215.713
246.0852, 3220.059
246.5673, 3215.012
247.0494, 3212.909
247.5316, 3219.772
248.0137, 3240.837
248.4958, 3252.677
248.9779, 3251.511
249.4600, 3243.163
249.9421, 3238.517
250.4243, 3239.454
250.9064, 3240.670
251.3885, 3240.416
251.8706, 3238.679
252.3527, 3235.459
252.8348, 3230.783
253.3170, 3224.635
253.7991, 3216.762
254.2812, 3206.460
254.7633, 3195.958
255.2454, 3186.373
255.7275, 3178.635
256.2097, 3168.437
256.6918, 3154.684
257.1739, 3139.344
257.6560, 3125.647
258.1381, 3113.260
258.6202, 3103.270
259.1024, 3098.467
259.5845, 3103.454
260.0666, 3092.591
260.5487, 3056.174
261.0308, 3011.313
261.5129, 2989.638
261.9951, 2999.033
262.4772, 3013.316
262.9593, 3023.603
263.4414, 3030.271
263.9235, 3030.606
264.4056, 3021.547
264.8878, 3009.001
265.3699, 3003.759
265.8520, 3008.132
266.3341, 3013.052
266.8162, 3013.958
267.2983, 3009.286
267.7805, 3010.643
268.2626, 3018.676
268.7447, 3032.061
269.2268, 3050.314
269.7089, 3075.746
270.1910, 3097.689
270.6732, 3111.750
271.1553, 3117.203
271.6374, 3119.745
272.1195, 3116.997
272.6016, 3114.840
273.0837, 3124.045
273.5659, 3146.609
274.0480, 3170.504
274.5301, 3193.976
275.0122, 3217.260
275.4943, 3227.841
275.9764, 3223.262
276.4586, 3210.602
276.9407, 3199.085
277.4228, 3188.760
277.9049, 3180.494
278.3870, 3178.302
278.8691, 3181.384
279.3513, 3168.943
279.8334, 3137.471
280.3155, 3099.500
280.7976, 3074.535
281.2798, 3063.651
281.7619, 3045.669
282.2440, 3009.670
282.7261, 2958.314
283.2082, 2912.370
283.6903, 2872.912
284.1725, 2834.912
284.6546, 2792.991
285.1367, 2747.498
285.6188, 2697.690
286.1009, 2639.481
286.5830, 2576.418
287.0652, 2525.033
287.5473, 2486.999
288.0294, 2453.432
288.5115, 2414.530
288.9936, 2370.904
289.4757, 2329.326
289.9579, 2292.155
290.4400, 2258.422
290.9221, 2225.195
291.4042, 2192.605
291.8863, 2158.842
292.3684, 2119.118
292.8506, 2075.720
293.3327, 2038.002
293.8148, 2009.798
294.2969, 1988.304
294.7790, 1968.031
295.2611, 1948.899
295.7433, 1931.071
296.2254, 1915.926
296.7075, 1902.034
297.1896, 1885.643
297.6717, 1862.663
298.1538, 1838.800
298.6360, 1824.670
299.1181, 1819.393
299.6002, 1814.120
300.0823, 1798.467
300.5644, 1778.311
301.0465, 1764.636
301.5287, 1760.987
302.0108, 1764.121
302.4929, 1774.348
302.9750, 1790.166
303.4571, 1802.392
303.9392, 1799.202
304.4214, 1790.462
304.9035, 1791.268
305.3856, 1812.794
305.8677, 1832.444
306.3498, 1823.259
306.8319, 1793.238
307.3141, 1770.434
307.7962, 1776.259
308.2783, 1795.303
308.7604, 1813.763
309.2425, 1830.303
309.7246, 1841.946
310.2068, 1846.996
310.6889, 1845.685
311.1710, 1838.777
311.6531, 1820.828
312.1352, 1800.959
312.6173, 1786.421
313.0995, 1780.041
313.5816, 1774.585
314.0637, 1770.215
314.5458, 1764.172
315.0279, 1751.287
315.5100, 1721.580
315.9922, 1690.537
316.4743, 1666.454
316.9564, 1651.308
317.4385, 1638.911
317.9206, 1629.521
318.4027, 1621.138
318.8849, 1610.969
319.3670, 1597.321
319.8491, 1582.586
320.3312, 1566.901
320.8133, 1549.696
321.2954, 1534.868
321.7776, 1525.403
322.2597, 1517.709
322.7418, 1507.959
323.2239, 1488.572
323.7060, 1474.096
324.1881, 1471.700
324.6703, 1483.192
325.1524, 1485.533
325.6345, 1468.004
326.1166, 1445.542
326.5987, 1429.972
327.0808, 1423.382
327.5630, 1421.393
328.0451, 1426.337
328.5272, 1437.670
329.0093, 1443.504
329.4914, 1442.193
329.9735, 1436.799
330.4557, 1428.888
330.9378, 1415.900
331.4199, 1404.727
331.9020, 1395.241
332.3841, 1387.821
332.8662, 1384.794
333.3484, 1388.570
333.8305, 1393.134
334.3126, 1394.585
334.7947, 1390.580
335.2768, 1391.245
335.7589, 1399.643
336.2411, 1411.567
336.7232, 1416.120
337.2053, 1411.479
337.6874, 1404.674
338.1695, 1398.068
338.6516, 1391.402
339.1338, 1388.468
339.6159, 1390.972
340.0980, 1394.658
340.5801, 1390.740
341.0622, 1378.078
341.5443, 1368.031
342.0265, 1367.561
342.5086, 1375.120
342.9907, 1375.099
343.4728, 1366.255
343.9549, 1354.690
344.4370, 1349.457
344.9192, 1349.620
345.4013, 1345.683
345.8834, 1332.426
346.3655, 1313.261
346.8476, 1296.862
347.3297, 1283.277
347.8119, 1272.492
348.2940, 1264.787
348.7761, 1260.022
349.2582, 1258.788
349.7403, 1265.965
350.2225, 1271.854
350.7046, 1258.008
351.1867, 1226.889
351.6688, 1198.459
352.1509, 1191.098
352.6331, 1194.527
353.1152, 1193.404
353.5973, 1183.660
354.0794, 1169.817
354.5615, 1152.541
355.0436, 1133.762
355.5258, 1119.359
356.0079, 1117.841
356.4900, 1119.184
356.9721, 1113.639
357.4542, 1097.419
357.9363, 1082.087
358.4185, 1076.179
358.9006, 1075.331
359.3827, 1071.995
359.8648, 1060.739
360.3469, 1048.210
360.8290, 1036.867
361.3112, 1026.531
361.7933, 1020.265
362.2754, 1023.653
362.7575, 1029.813
363.2396, 1031.271
363.7217, 1020.590
364.2039, 1010.776
364.6860, 1004.966
365.1681, 1003.270
365.6502, 1003.687
366.1323, 1007.958
366.6144, 1013.066
367.0966, 1016.967
367.5787, 1020.987
368.0608, 1021.962
368.5429, 1017.364
369.0250, 1008.807
369.5071, 1004.695
369.9893, 1006.962
370.4714, 1011.403
370.9535, 1016.164
371.4356, 1021.272
371.9177, 1026.627
372.3998, 1032.753
372.8820, 1038.876
373.3641, 1042.882
373.8462, 1043.792
374.3283, 1045.120
374.8104, 1048.696
375.2925, 1054.906
375.7747, 1058.471
376.2568, 1058.014
376.7389, 1057.702
377.2210, 1063.653
377.7031, 1076.228
378.1852, 1089.917
378.6674, 1103.931
379.1495, 1117.680
379.6316, 1129.481
380.1137, 1139.286
380.5958, 1146.672
381.0779, 1148.542
381.5601, 1146.640
382.0422, 1149.894
382.5243, 1162.283
383.0064, 1178.311
383.4885, 1189.922
383.9706, 1197.317
384.4528, 1201.195
384.9349, 1199.008
385.4170, 1194.426
385.8991, 1194.198
386.3812, 1200.542
386.8633, 1207.334
387.3455, 1208.822
387.8276, 1206.393
388.3097, 1203.224
388.7918, 1199.444
389.2739, 1196.530
389.7560, 1196.697
390.2382, 1200.511
390.7203, 1202.563
391.2024, 1198.949
391.6845, 1192.317
392.1666, 1185.653
392.6487, 1178.270
393.1309, 1172.640
393.6130, 1171.086
394.0951, 1173.127
394.5772, 1173.400
395.0593, 1165.973
395.5414, 1159.232
396.0236, 1158.521
396.5057, 1174.222
396.9878, 1184.539
397.4699, 1182.971
397.9520, 1173.934
398.4341, 1171.311
398.9163, 1178.892
399.3984, 1189.001
399.8805, 1199.537
400.3626, 1211.763
400.8447, 1220.350
401.3268, 1223.001
401.8090, 1223.700
402.2911, 1227.998
402.7732, 1236.232
403.2553, 1247.020
403.7374, 1259.851
404.2195, 1274.794
404.7017, 1294.510
405.1838, 1321.359
405.6659, 1346.802
406.1480, 1361.812
406.6301, 1366.306
407.1122, 1370.248
407.5944, 1372.773
408.0765, 1378.581
408.5586, 1404.275
409.0407, 1449.494
409.5228, 1489.818
410.0049, 1501.739
410.4871, 1495.807
410.9692, 1502.677
411.4513, 1526.988
411.9334, 1558.088
412.4155, 1586.590
412.8976, 1612.831
413.3798, 1636.732
413.8619, 1652.483
414.3440, 1669.705
414.8261, 1703.330
415.3082, 1753.607
415.7903, 1798.477
416.2725, 1816.222
416.7546, 1823.656
417.2367, 1840.409
417.7188, 1881.289
418.2009, 1922.687
418.6830, 1951.732
419.1652, 1971.807
419.6473, 1994.191
420.1294, 2026.590
420.6115, 2059.613
421.0937, 2088.216
421.5758, 2108.242
422.0579, 2130.177
422.5400, 2161.963
423.0221, 2195.165
423.5042, 2216.379
423.9864, 2211.849
424.4685, 2210.196
424.9506, 2220.306
425.4327, 2243.676
425.9148, 2257.379
426.3969, 2257.325
426.8791, 2252.280
427.3612, 2249.674
427.8433, 2250.492
428.3254, 2251.259
428.8075, 2253.626
429.2896, 2254.753
429.7718, 2243.927
430.2539, 2219.714
430.7360, 2191.389
431.2181, 2164.223
431.7002, 2138.042
432.1823, 2109.037
432.6645, 2075.692
433.1466, 2043.836
433.6287, 2025.920
434.1108, 2018.656
434.5929, 2005.236
435.0750, 1973.859
435.5572, 1934.240
436.0393, 1902.851
436.5214, 1879.493
437.0035, 1859.843
437.4856, 1842.284
437.9677, 1826.011
438.4499, 1810.012
438.9320, 1793.946
439.4141, 1778.240
439.8962, 1765.645
440.3783, 1753.945
440.8604, 1737.053
441.3426, 1700.541
441.8247, 1667.202
442.3068, 1652.521
442.7889, 1662.413
443.2710, 1670.451
443.7531, 1664.483
444.2353, 1655.072
444.7174, 1653.799
445.1995, 1674.053
445.6816, 1689.686
446.1637, 1693.933
446.6458, 1688.064
447.1280, 1686.060
447.6101, 1690.367
448.0922, 1695.858
448.5743, 1698.637
449.0564, 1694.146
449.5385, 1700.223
450.0207, 1721.344
450.5028, 1749.487
450.9849, 1768.402
451.4670, 1775.756
451.9491, 1785.024
452.4312, 1803.704
452.9134, 1829.680
453.3955, 1845.712
453.8776, 1850.732
454.3597, 1853.174
454.8418, 1861.316
455.3239, 1873.923
455.8061, 1885.665
456.2882, 1895.709
456.7703, 1903.998
457.2524, 1909.835
457.7345, 1913.649
458.2166, 1917.320
458.6988, 1923.075
459.1809, 1928.669
459.6630, 1932.026
460.1451, 1933.114
460.6272, 1930.824
461.1093, 1920.342
461.5915, 1907.350
462.0736, 1899.139
462.5557, 1903.317
463.0378, 1907.568
463.5199, 1907.523
464.0020, 1903.496
464.4842, 1898.383
464.9663, 1894.393
465.4484, 1888.285
465.9305, 1878.097
466.4126, 1860.478
466.8947, 1844.348
467.3769, 1830.094
467.8590, 1817.215
468.3411, 1804.854
468.8232, 1793.567
469.3053, 1781.893
469.7874, 1770.035
470.2696, 1757.802
470.7517, 1740.155
471.2338, 1714.966
471.7159, 1691.046
472.1980, 1677.541
472.6801, 1674.154
473.1623, 1669.512
473.6444, 1661.475
474.1265, 1652.455
474.6086, 1647.800
475.0907, 1646.628
475.5728, 1643.237
476.0550, 1634.444
476.5371, 1621.516
477.0192, 1603.530
477.5013, 1580.219
477.9834, 1562.927
478.4655, 1570.019
478.9477, 1585.392
479.4298, 1587.034
479.9119, 1554.419
480.3940, 1524.292
480.8761, 1518.930
481.3582, 1531.664
481.8404, 1543.516
482.3225, 1550.781
482.8046, 1553.719
483.2867, 1550.569
483.7688, 1537.324
484.2509, 1531.451
484.7331, 1544.174
485.2152, 1559.877
485.6973, 1563.292
486.1794, 1542.629
486.6615, 1529.916
487.1436, 1530.846
487.6258, 1543.130
488.1079, 1557.106
488.5900, 1574.150
489.0721, 1588.824
489.5542, 1595.453
490.0363, 1593.924
490.5185, 1603.113
491.0006, 1626.177
491.4827, 1650.773
491.9648, 1658.705
492.4470, 1652.764
492.9291, 1647.961
493.4112, 1650.455
493.8933, 1656.005
494.3754, 1653.744
494.8575, 1646.138
495.3397, 1648.819
495.8218, 1686.958
496.3039, 1733.708
496.7860, 1756.627
497.2681, 1745.356
497.7502, 1733.961
498.2324, 1739.198
498.7145, 1755.591
499.1966, 1775.817
499.6787, 1802.251
500.1608, 1827.518
500.6429, 1849.881
501.1251, 1869.273
501.6072, 1885.495
502.0893, 1893.823
502.5714, 1903.377
503.0535, 1918.847
503.5356, 1943.536
504.0178, 1966.212
504.4999, 1986.679
504.9820, 2005.101
505.4641, 2021.252
505.9462, 2034.233
506.4283, 2049.091
506.9105, 2066.203
507.3926, 2086.434
507.8747, 2115.331
508.3568, 2153.507
508.8389, 2191.109
509.3210, 2222.742
509.8032, 2248.668
510.2853, 2267.903
510.7674, 2278.302
511.2495, 2290.707
511.7316, 2321.941
512.2137, 2363.230
512.6959, 2396.251
513.1780, 2402.519
513.6601, 2407.372
514.1422, 2428.344
514.6243, 2463.648
515.1064, 2499.814
515.5886, 2529.610
516.0707, 2560.158
516.5528, 2596.310
517.0349, 2644.388
517.5170, 2686.762
517.9991, 2716.001
518.4813, 2740.604
518.9634, 2771.305
519.4455, 2812.269
519.9276, 2852.619
520.4097, 2893.170
520.8918, 2931.617
521.3740, 2952.708
521.8561, 2949.291
522.3382, 2952.207
522.8203, 2986.049
523.3024, 3048.487
523.7845, 3104.432
524.2667, 3151.881
524.7488, 3194.289
525.2309, 3239.704
525.7130, 3285.544
526.1951, 3321.256
526.6772, 3335.538
527.1594, 3345.821
527.6415, 3372.878
528.1236, 3413.930
528.6057, 3457.620
529.0878, 3503.835
529.5699, 3545.638
530.0521, 3574.387
530.5342, 3585.267
531.0163, 3601.487
531.4984, 3637.333
531.9805, 3679.525
532.4626, 3714.086
532.9448, 3735.450
533.4269, 3753.271
533.9090, 3765.749
534.3911, 3775.146
534.8732, 3790.483
535.3553, 3816.066
535.8375, 3839.932
536.3196, 3856.933
536.8017, 3867.161
537.2838, 3872.200
537.7659, 3870.624
538.2480, 3868.719
538.7302, 3877.323
539.2123, 3893.795
539.6944, 3898.003
540.1765, 3881.820
540.6586, 3858.441
541.1407, 3846.765
541.6229, 3843.760
542.1050, 3838.332
542.5871, 3823.333
543.0692, 3804.018
543.5513, 3786.808
544.0334, 3772.080
544.5156, 3750.492
544.9977, 3712.316
545.4798, 3668.550
545.9619, 3628.471
546.4440, 3599.616
546.9261, 3565.830
547.4083, 3522.730
547.8904, 3473.508
548.3725, 3424.616
548.8546, 3375.702
549.3367, 3327.138
549.8188, 3278.840
550.3010, 3230.884
550.7831, 3186.156
551.2652, 3147.496
551.7473, 3102.354
552.2294, 3035.986
552.7115, 2951.405
553.1937, 2882.359
553.6758, 2832.728
554.1579, 2793.630
554.6400, 2760.246
555.1221, 2728.960
555.6042, 2689.593
556.0864, 2629.743
556.5685, 2568.495
557.0506, 2525.753
557.5327, 2497.896
558.0148, 2472.264
558.4969, 2444.787
558.9791, 2415.930
559.4612, 2383.844
559.9433, 2345.954
560.4254, 2318.018
560.9075, 2313.172
561.3896, 2313.853
561.8718, 2304.086
562.3539, 2274.270
562.8360, 2250.227
563.3181, 2234.584
563.8002, 2225.706
564.2823, 2218.721
564.7645, 2212.477
565.2466, 2214.033
565.7287, 2230.638
566.2108, 2257.668
566.6929, 2269.261
567.1750, 2264.640
567.6572, 2260.053
568.1393, 2273.187
568.6214, 2295.453
569.1035, 2306.672
569.5856, 2300.226
570.0677, 2297.289
570.5499, 2324.607
571.0320, 2365.184
571.5141, 2392.312
571.9962, 2380.193
572.4783, 2368.727
572.9604, 2376.770
573.4426, 2400.409
573.9247, 2418.627
574.4068, 2432.994
574.8889, 2436.294
575.3710, 2423.800
575.8531, 2392.422
576.3353, 2363.010
576.8174, 2338.312
577.2995, 2311.923
577.7816, 2273.267
578.2637, 2220.086
578.7458, 2183.779
579.2280, 2174.565
579.7101, 2173.723
580.1922, 2145.133
580.6743, 2093.156
581.1564, 2042.423
581.6385, 2004.185
582.1207, 1973.631
582.6028, 1946.519
583.0849, 1922.754
583.5670, 1899.756
584.0491, 1878.510
584.5313, 1855.885
585.0134, 1827.825
585.4955, 1790.199
585.9776, 1759.027
586.4597, 1742.513
586.9418, 1733.012
587.4240, 1722.000
587.9061, 1705.726
588.3882, 1693.529
588.8703, 1690.087
589.3524, 1690.363
589.8345, 1677.254
590.3167, 1646.415
590.7988, 1618.900
591.2809, 1606.580
591.7630, 1605.719
592.2451, 1596.392
592.7272, 1578.231
593.2094, 1560.645
593.6915, 1556.714
594.1736, 1557.863
594.6557, 1543.761
595.1378, 1506.556
595.6199, 1474.945
596.1021, 1477.333
596.5842, 1497.198
597.0663, 1511.026
597.5485, 1508.129
598.0306, 1500.762
598.5127, 1490.339
598.9948, 1477.970
599.4769, 1468.138
599.9590, 1463.430
600.4412, 1458.268
600.9233, 1450.298
601.4054, 1439.110
601.8875, 1431.099
602.3696, 1426.816
602.8517, 1424.513
603.3339, 1425.176
603.8160, 1428.123
604.2981, 1421.656
604.7802, 1402.087
605.2623, 1381.558
605.7444, 1378.453
606.2266, 1387.296
606.7087, 1393.478
607.1908, 1389.309
607.6729, 1382.886
608.1550, 1381.563
608.6371, 1383.492
609.1193, 1382.621
609.6014, 1371.569
610.0835, 1361.409
610.5656, 1359.294
611.0477, 1367.384
611.5298, 1369.349
612.0120, 1360.506
612.4941, 1349.592
612.9762, 1342.680
613.4583, 1341.437
613.9404, 1337.361
614.4225, 1328.010
614.9047, 1319.553
615.3868, 1322.997
615.8689, 1337.340
616.3510, 1348.984
616.8331, 1353.808
617.3152, 1354.114
617.7974, 1352.610
618.2795, 1349.470
618.7616, 1345.322
619.2437, 1337.717
619.7258, 1331.333
620.2079, 1331.092
620.6901, 1337.149
621.1722, 1341.168
621.6543, 1335.429
622.1364, 1330.098
622.6185, 1333.124
623.1006, 1354.247
623.5828, 1362.165
624.0649, 1349.099
624.5470, 1329.965
625.0291, 1322.637
625.5112, 1328.755
625.9933, 1339.345
626.4755, 1356.095
626.9576, 1371.846
627.4397, 1365.814
627.9218, 1341.376
628.4039, 1324.313
628.8860, 1338.505
629.3682, 1361.524
629.8503, 1359.554
630.3324, 1335.680
630.8145, 1313.802
631.2966, 1310.777
631.7787, 1312.907
632.2609, 1310.092
632.7430, 1299.150
633.2251, 1290.712
633.7072, 1288.326
634.1893, 1288.455
634.6714, 1288.555
635.1536, 1290.309
635.6357, 1287.886
636.1178, 1279.299
636.5999, 1268.040
637.0820, 1260.859
637.5641, 1257.969
638.0463, 1254.777
638.5284, 1249.736
639.0105, 1243.497
639.4926, 1236.765
639.9747, 1229.691
640.4568, 1223.339
640.9390, 1218.448
641.4211, 1214.422
641.9032, 1210.755
642.3853, 1207.423
642.8674, 1204.407
643.3495, 1200.237
643.8317, 1197.372
644.3138, 1198.162
644.7959, 1209.214
645.2780, 1211.108
645.7601, 1199.283
646.2422, 1182.339
646.7244, 1170.463
647.2065, 1164.971
647.6886, 1157.015
648.1707, 1142.024
648.6528, 1128.226
649.1349, 1138.996
649.6171, 1170.001
650.0992, 1190.977
650.5813, 1181.219
651.0634, 1157.818
651.5455, 1137.142
652.0276, 1119.869
652.5098, 1110.692
652.9919, 1123.283
653.4740, 1136.040
653.9561, 1131.979
654.4382, 1104.808
654.9203, 1089.767
655.4025, 1101.628
655.8846, 1118.358
656.3667, 1125.071
656.8488, 1117.733
657.3309, 1112.498
657.8130, 1110.283
658.2952, 1109.579
658.7773, 1108.915
659.2594, 1108.166
659.7415, 1105.808
660.2236, 1101.117
660.7057, 1095.161
661.1879, 1087.400
661.6700, 1079.423
662.1521, 1075.801
662.6342, 1085.018
663.1163, 1093.879
663.5984, 1092.423
664.0806, 1081.920
664.5627, 1074.200
665.0448, 1072.912
665.5269, 1074.528
666.0090, 1077.889
666.4911, 1083.226
666.9733, 1088.981
667.4554, 1096.783
667.9375, 1101.773
668.4196, 1097.938
668.9017, 1085.662
669.3839, 1077.710
669.8660, 1075.517
670.3481, 1076.373
670.8302, 1079.496
671.3123, 1083.126
671.7944, 1082.958
672.2766, 1074.516
672.7587, 1067.063
673.2408, 1067.469
673.7229, 1073.085
674.2050, 1078.719
674.6871, 1087.334
675.1693, 1090.945
675.6514, 1083.185
676.1335, 1067.443
676.6156, 1062.064
677.0977, 1070.793
677.5798, 1081.549
678.0620, 1091.127
678.5441, 1098.874
679.0262, 1093.954
679.5083, 1075.334
679.9904, 1060.367
680.4725, 1069.071
680.9547, 1089.025
681.4368, 1097.125
681.9189, 1089.552
682.4010, 1080.791
682.8831, 1080.003
683.3652, 1083.258
683.8474, 1086.757
684.3295, 1090.437
684.8116, 1093.114
685.2937, 1097.762
685.7758, 1099.892
686.2579, 1091.562
686.7401, 1065.625
687.2222, 1049.395
687.7043, 1049.895
688.1864, 1060.993
688.6685, 1069.046
689.1506, 1074.163
689.6328, 1078.090
690.1149, 1082.592
690.5970, 1085.763
691.0791, 1081.608
691.5612, 1072.258
692.0433, 1068.573
692.5255, 1083.741
693.0076, 1100.466
693.4897, 1108.743
693.9718, 1107.552
694.4539, 1099.926
694.9360, 1074.049
695.4182, 1053.329
695.9003, 1053.594
696.3824, 1084.034
696.8645, 1093.355
697.3466, 1074.975
697.8287, 1052.748
698.3109, 1057.120
698.7930, 1082.060
699.2751, 1093.997
699.7572, 1084.548
700.2393, 1070.201
700.7214, 1068.948
701.2036, 1074.409
701.6857, 1075.876
702.1678, 1064.811
702.6499, 1054.628
703.1320, 1050.795
703.6141, 1051.509
704.0963, 1052.032
704.5784, 1048.166
705.0605, 1050.350
705.5426, 1064.624
706.0247, 1086.409
706.5068, 1093.086
706.9890, 1082.930
707.4711, 1072.515
707.9532, 1070.877
708.4353, 1075.178
708.9174, 1079.576
709.3995, 1083.836
709.8817, 1085.361
710.3638, 1079.343
710.8459, 1071.737
711.3280, 1068.075
711.8101, 1069.306
712.2922, 1070.835
712.7744, 1071.879
713.2565, 1072.403
713.7386, 1072.365
714.2207, 1071.411
714.7028, 1071.336
715.1849, 1073.715
715.6671, 1074.220
716.1492, 1065.611
716.6313, 1049.028
717.1134, 1037.492
717.5955, 1033.777
718.0776, 1034.222
718.5598, 1037.486
719.0419, 1041.310
719.5240, 1041.108
720.0061, 1029.569
720.4882, 1020.577
720.9703, 1023.708
721.4525, 1033.781
721.9346, 1039.020
722.4167, 1034.938
722.8988, 1029.637
723.3809, 1023.739
723.8630, 1017.813
724.3452, 1014.654
724.8273, 1014.708
725.3094, 1014.226
725.7915, 1008.817
726.2736, 1002.567
726.7557, 1009.558
727.2379, 1027.848
727.7200, 1042.139
728.2021, 1040.205
728.6842, 1031.729
729.1663, 1022.886
729.6484, 1014.166
730.1306, 1009.137
730.6127, 1015.180
731.0948, 1019.822
731.5769, 1015.029
732.0590, 996.5918
732.5411, 986.6097
733.0233, 986.8463
733.5054, 991.5821
733.9875, 996.9114
734.4696, 1002.529
734.9517, 1005.882
735.4338, 1006.589
735.9160, 1005.789
736.3981, 1004.653
736.8802, 1002.751
737.3623, 999.5718
737.8444, 995.5204
738.3266, 989.0837
738.8087, 975.0072
739.2908, 959.7000
739.7729, 953.1418
740.2551, 962.4614
740.7372, 967.7783
741.2193, 965.8869
741.7014, 959.6015
742.1835, 952.7683
742.6656, 945.3651
743.1478, 945.4290
743.6299, 959.3532
744.1120, 977.3185
744.5941, 983.1431
745.0762, 979.7698
745.5583, 976.5241
746.0405, 977.3048
746.5226, 980.1357
747.0047, 988.1208
747.4868, 998.8489
747.9689, 998.1176
748.4510, 970.9944
748.9332, 949.5135
749.4153, 945.0604
749.8974, 956.1346
750.3795, 965.2084
750.8616, 972.2584
751.3438, 977.3168
751.8259, 980.3290
752.3080, 981.3425
752.7901, 979.9279
753.2722, 976.1992
753.7543, 972.3493
754.2365, 971.8906
754.7186, 970.4991
755.2007, 962.4966
755.6828, 944.7119
756.1649, 935.6772
756.6470, 944.6182
757.1292, 957.6792
757.6113, 967.2252
758.0934, 972.9507
758.5755, 976.4312
759.0576, 977.6122
759.5397, 976.8226
760.0219, 972.5972
760.5040, 966.6010
760.9861, 964.9385
761.4682, 969.3002
761.9503, 973.9655
762.4324, 975.1616
762.9146, 973.7902
763.3967, 970.5922
763.8788, 961.6202
764.3609, 957.6200
764.8430, 965.5453
765.3251, 976.3896
765.8073, 979.6465
766.2894, 973.2394
766.7715, 966.8621
767.2536, 960.8142
767.7357, 957.3333
768.2178, 963.1370
768.7000, 975.5708
769.1821, 983.1450
769.6642, 980.0626
770.1463, 974.3143
770.6284, 972.0175
771.1105, 972.1189
771.5927, 972.5829
772.0748, 975.9498
772.5569, 975.7354
773.0390, 965.7361
773.5211, 952.0259
774.0032, 951.9282
774.4854, 970.0010
774.9675, 984.5251
775.4496, 988.4557
775.9317, 985.1756
776.4138, 982.2266
776.8959, 979.5312
777.3781, 976.5247
777.8602, 970.6941
778.3423, 966.2289
778.8244, 967.8866
779.3065, 974.2985
779.7886, 979.5624
780.2708, 981.5854
780.7529, 982.4102
781.2350, 982.2609
781.7171, 981.3672
782.1992, 982.5268
782.6813, 986.7280
783.1635, 988.9821
783.6456, 985.4583
784.1277, 978.2200
784.6098, 973.0117
785.0919, 969.9821
785.5740, 970.2130
786.0562, 978.0094
786.5383, 986.7408
787.0204, 990.2131
787.5025, 988.1183
787.9846, 986.6766
788.4667, 985.5452
788.9489, 987.4270
789.4310, 996.5399
789.9131, 1014.020
790.3952, 1013.199
790.8773, 990.4626
791.3594, 966.3186
791.8416, 954.8703
792.3237, 954.0880
792.8058, 961.9604
793.2879, 978.2033
793.7700, 990.7458
794.2521, 988.8338
794.7343, 981.3202
795.2164, 975.0167
795.6985, 970.8502
796.1806, 967.4261
796.6627, 965.7603
797.1448, 963.4203
797.6270, 957.5306
798.1091, 946.7592
798.5912, 944.6642
799.0733, 952.6980
799.5554, 961.9588
800.0375, 962.9146
800.5197, 959.1282
801.0018, 957.3989
801.4839, 958.8192
801.9660, 960.8867
802.4481, 963.8605
802.9302, 965.7191
803.4124, 964.0897
803.8945, 954.1595
804.3766, 951.7643
804.8587, 962.0524
805.3408, 973.0808
805.8229, 972.1601
806.3051, 959.3960
806.7872, 952.8447
807.2693, 955.1458
807.7514, 956.7565
808.2335, 943.5544
808.7156, 924.6823
809.1978, 914.9580
809.6799, 920.2629
810.1620, 925.3068
810.6441, 921.2411
811.1262, 915.3514
811.6083, 915.0385
812.0905, 923.7319
812.5726, 930.3419
813.0547, 934.1733
813.5368, 936.7158
814.0189, 940.1129
814.5010, 943.9242
814.9832, 945.3106
815.4653, 943.5168
815.9474, 940.6747
816.4295, 936.8964
816.9116, 933.9968
817.3937, 934.6702
817.8759, 942.6552
818.3580, 948.1362
818.8401, 947.5618
819.3222, 944.5804
819.8043, 942.8719
820.2864, 943.4387
820.7686, 940.4868
821.2507, 933.2427
821.7328, 923.2630
822.2149, 909.1282
822.6970, 894.1863
823.1791, 888.2027
823.6613, 896.3386
824.1434, 903.9409
824.6255, 897.7966
825.1076, 887.3804
825.5897, 883.3179
826.0718, 893.9183
826.5540, 901.8423
827.0361, 906.6489
827.5182, 909.3222
828.0003, 910.6755
828.4824, 910.7158
828.9645, 910.6457
829.4467, 910.3167
829.9288, 911.2766
830.4109, 917.5237
830.8930, 925.4999
831.3751, 929.7309
831.8572, 928.1000
832.3394, 924.1174
832.8215, 917.2631
833.3036, 909.5285
833.7857, 902.5487
834.2678, 894.7470
834.7499, 894.0519
835.2321, 904.1895
835.7142, 913.9843
836.1963, 905.0327
836.6784, 883.2509
837.1605, 871.4913
837.6426, 875.7065
838.1248, 883.3717
838.6069, 886.5250
839.0890, 886.9918
839.5711, 886.3969
840.0532, 881.8281
840.5353, 882.7836
841.0175, 894.6779
841.4996, 907.0785
841.9817, 907.3766
842.4638, 894.8792
842.9459, 889.0297
843.4280, 892.6245
843.9102, 897.9190
844.3923, 896.2972
844.8744, 890.6981
845.3565, 885.0375
845.8386, 878.8878
846.3207, 877.1771
846.8029, 890.3837
847.2850, 903.3564
847.7671, 901.3151
848.2492, 872.6595
848.7313, 861.9948
849.2134, 874.4081
849.6956, 892.0538
850.1777, 897.2255
850.6598, 892.8206
851.1419, 888.1371
851.6240, 884.0452
852.1061, 882.0204
852.5883, 885.3000
853.0704, 889.8311
853.5525, 891.5287
854.0346, 888.0918
854.5167, 887.1646
854.9988, 890.0757
855.4810, 894.3416
855.9631, 899.6393
856.4452, 906.0750
856.9273, 904.4799
857.4094, 894.0418
857.8915, 883.9510
858.3737, 883.1077
858.8558, 887.0530
859.3379, 891.1774
859.8200, 895.0818
860.3021, 896.2513
860.7842, 888.5043
861.2664, 882.4095
861.7485, 885.4694
862.2306, 899.4439
862.7127, 903.2684
863.1948, 894.5916
863.6769, 886.2518
864.1591, 889.4459
864.6412, 899.2616
865.1233, 904.2906
865.6054, 904.3861
866.0875, 902.4896
866.5696, 898.6880
867.0518, 894.8606
867.5339, 891.7531
868.0160, 889.4435
868.4981, 889.4037
868.9802, 891.4884
869.4623, 896.3399
869.9445, 906.8553
870.4266, 920.2151
870.9087, 921.1103
871.3908, 910.6769
871.8729, 900.9324
872.3550, 901.0139
872.8372, 903.3367
873.3193, 900.4570
873.8014, 893.5470
874.2835, 890.2479
874.7656, 894.7885
875.2477, 900.4197
875.7299, 906.6001
876.2120, 912.3736
876.6941, 913.7120
877.1762, 910.6301
877.6583, 906.3059
878.1404, 900.6189
878.6226, 896.0219
879.1047, 895.1850
879.5869, 898.0644
880.0690, 904.5032
880.5511, 921.6772
881.0332, 934.0197
881.5153, 935.0273
881.9974, 928.9405
882.4796, 923.2993
882.9617, 917.8040
883.4438, 914.4249
883.9259, 913.6299
884.4080, 915.2069
884.8901, 920.8529
885.3723, 928.4902
885.8544, 932.9520
886.3365, 929.2288
886.8186, 927.2342
887.3007, 933.0930
887.7828, 942.5482
888.2650, 949.6790
888.7471, 953.8254
889.2292, 957.0954
889.7113, 959.8934
890.1934, 961.3206
890.6755, 959.5840
891.1577, 955.5263
891.6398, 951.8419
892.1219, 949.2406
892.6040, 946.1146
893.0861, 938.2152
893.5682, 931.1461
894.0504, 930.6867
894.5325, 940.7642
895.0146, 949.9823
895.4967, 959.0612
895.9788, 965.9363
896.4609, 967.6302
896.9431, 965.1262
897.4252, 964.3130
897.9073, 965.5074
898.3894, 967.8387
898.8715, 970.0463
899.3536, 973.5482
899.8358, 980.8853
900.3179, 992.7680
900.8000, 1000.356
901.2821, 999.8976
901.7642, 999.3983
902.2463, 1003.136
902.7285, 1010.167
903.2106, 1011.226
903.6927, 1006.777
904.1748, 1008.607
904.6569, 1031.458
905.1390, 1058.548
905.6212, 1074.342
906.1033, 1079.545
906.5854, 1079.806
907.0675, 1068.482
907.5496, 1062.073
908.0317, 1064.798
908.5139, 1074.883
908.9960, 1088.607
909.4781, 1105.938
909.9602, 1121.671
910.4423, 1133.940
910.9244, 1143.547
911.4066, 1148.182
911.8887, 1151.368
912.3708, 1159.703
912.8529, 1184.423
913.3350, 1202.670
913.8171, 1206.206
914.2993, 1204.392
914.7814, 1209.573
915.2635, 1222.247
915.7456, 1235.636
916.2277, 1249.021
916.7098, 1261.976
917.1920, 1273.110
917.6741, 1283.694
918.1562, 1294.720
918.6383, 1304.768
919.1204, 1320.873
919.6025, 1351.083
920.0847, 1383.349
920.5668, 1409.470
921.0489, 1428.511
921.5310, 1448.829
922.0131, 1470.539
922.4952, 1491.916
922.9774, 1508.597
923.4595, 1525.436
923.9416, 1550.511
924.4237, 1583.813
924.9058, 1618.863
925.3879, 1656.488
925.8701, 1691.923
926.3522, 1721.195
926.8343, 1746.166
927.3164, 1782.527
927.7985, 1831.835
928.2806, 1879.347
928.7628, 1913.654
929.2449, 1946.039
929.7270, 1995.803
930.2091, 2058.512
930.6912, 2123.619
931.1733, 2183.820
931.6555, 2248.562
932.1376, 2321.505
932.6197, 2399.928
933.1018, 2478.288
933.5839, 2556.012
934.0660, 2643.747
934.5482, 2745.963
935.0303, 2853.363
935.5124, 2946.576
935.9945, 3040.670
936.4766, 3162.000
936.9587, 3325.247
937.4409, 3496.990
937.9230, 3676.138
938.4051, 3854.560
938.8872, 4021.032
939.3693, 4169.503
939.8514, 4352.525
940.3336, 4570.509
940.8157, 4808.464
941.2978, 5059.631
941.7799, 5322.131
942.2620, 5594.386
942.7441, 5875.257
943.2263, 6169.551
943.7084, 6477.386
944.1905, 6794.209
944.6726, 7118.466
945.1547, 7449.231
945.6368, 7780.373
946.1190, 8114.708
946.6011, 8447.963
947.0832, 8785.903
947.5653, 9114.372
948.0474, 9426.235
948.5295, 9717.390
949.0117, 9978.295
949.4938, 10191.14
949.9759, 10391.73
950.4580, 10602.83
950.9401, 10796.04
951.4222, 10930.60
951.9044, 11007.36
952.3865, 11019.87
952.8686, 10963.36
953.3507, 10860.49
953.8328, 10743.29
954.3149, 10590.40
954.7971, 10367.76
955.2792, 10059.60
955.7613, 9732.037
956.2434, 9396.309
956.7255, 9044.163
957.2076, 8666.502
957.6898, 8262.558
958.1719, 7857.006
958.6540, 7446.980
959.1361, 7057.096
959.6182, 6702.705
960.1003, 6372.270
960.5825, 6052.691
961.0646, 5743.908
961.5467, 5447.939
962.0288, 5164.252
962.5109, 4897.282
962.9930, 4655.239
963.4752, 4431.182
963.9573, 4208.247
964.4394, 3991.310
964.9215, 3800.239
965.4036, 3647.539
965.8857, 3510.149
966.3679, 3369.326
966.8500, 3232.645
967.3321, 3108.824
967.8142, 3004.963
968.2963, 2904.807
968.7784, 2808.323
969.2606, 2717.099
969.7427, 2632.661
970.2248, 2555.802
970.7069, 2490.946
971.1890, 2438.551
971.6711, 2390.476
972.1533, 2345.071
972.6354, 2299.822
973.1175, 2252.482
973.5996, 2203.148
974.0817, 2158.179
974.5638, 2117.820
975.0460, 2080.748
975.5281, 2043.920
976.0102, 2011.868
976.4923, 1999.684
976.9744, 2000.549
977.4565, 1994.433
977.9387, 1966.057
978.4208, 1936.869
978.9029, 1912.920
979.3850, 1893.246
979.8671, 1876.220
980.3492, 1861.629
980.8314, 1852.126
981.3135, 1848.623
981.7956, 1847.353
982.2777, 1844.594
982.7598, 1841.165
983.2419, 1838.844
983.7241, 1838.328
984.2062, 1835.105
984.6883, 1823.303
985.1704, 1812.987
985.6525, 1807.274
986.1346, 1806.551
986.6168, 1819.520
987.0989, 1845.535
987.5810, 1864.367
988.0631, 1858.592
988.5452, 1845.170
989.0273, 1837.807
989.5095, 1835.614
989.9916, 1836.353
990.4737, 1840.032
990.9558, 1846.253
991.4379, 1855.825
991.9200, 1866.612
992.4022, 1878.320
992.8843, 1888.787
993.3664, 1884.789
993.8485, 1860.293
994.3306, 1844.520
994.8127, 1870.751
995.2949, 1905.737
995.7770, 1916.114
996.2591, 1894.258
996.7412, 1896.818
997.2233, 1930.921
997.7054, 1963.337
998.1876, 1970.945
998.6697, 1963.854
999.1518, 1961.664
999.6339, 1964.494
1000.116, 1972.629
1000.598, 1988.543
1001.080, 2007.217
1001.562, 2027.845
1002.044, 2049.774
1002.527, 2073.935
1003.009, 2100.734
1003.491, 2119.473
1003.973, 2125.701
1004.455, 2132.647
1004.937, 2156.426
1005.419, 2188.701
1005.901, 2218.584
1006.384, 2242.933
1006.866, 2270.201
1007.348, 2304.219
1007.830, 2336.679
1008.312, 2362.902
1008.794, 2383.450
1009.276, 2400.242
1009.758, 2413.991
1010.240, 2431.102
1010.723, 2462.331
1011.205, 2491.178
1011.687, 2507.369
1012.169, 2512.864
1012.651, 2513.023
1013.133, 2503.046
1013.615, 2504.259
1014.097, 2522.988
1014.580, 2545.493
1015.062, 2553.333
1015.544, 2550.827
1016.026, 2544.908
1016.508, 2535.991
1016.990, 2529.026
1017.472, 2534.787
1017.954, 2534.391
1018.436, 2514.880
1018.919, 2477.532
1019.401, 2447.500
1019.883, 2424.800
1020.365, 2402.626
1020.847, 2378.489
1021.329, 2351.817
1021.811, 2319.358
1022.293, 2284.195
1022.776, 2253.127
1023.258, 2225.287
1023.740, 2206.092
1024.222, 2198.928
1024.704, 2195.794
1025.186, 2187.896
1025.668, 2174.860
1026.150, 2154.715
1026.632, 2126.751
1027.115, 2096.857
1027.597, 2061.738
1028.079, 2031.877
1028.561, 2016.432
1029.043, 2014.473
1029.525, 2007.391
1030.007, 1994.438
1030.489, 1983.698
1030.972, 1980.981
1031.454, 1980.198
1031.936, 1968.882
1032.418, 1953.346
1032.900, 1947.229
1033.382, 1960.472
1033.864, 1976.020
1034.346, 1992.861
1034.828, 2009.954
1035.311, 2026.456
1035.793, 2042.219
1036.275, 2053.018
1036.757, 2058.565
1037.239, 2069.709
1037.721, 2100.315
1038.203, 2133.991
1038.685, 2159.417
1039.167, 2176.602
1039.650, 2190.498
1040.132, 2198.339
1040.614, 2214.243
1041.096, 2241.741
1041.578, 2281.131
1042.060, 2339.258
1042.542, 2407.409
1043.024, 2470.612
1043.507, 2526.173
1043.989, 2570.649
1044.471, 2591.051
1044.953, 2615.495
1045.435, 2669.338
1045.917, 2749.940
1046.399, 2827.907
1046.881, 2902.319
1047.364, 2972.615
1047.846, 3033.215
1048.328, 3094.368
1048.810, 3164.756
1049.292, 3242.087
1049.774, 3315.660
1050.256, 3385.410
1050.738, 3451.569
1051.220, 3514.570
1051.703, 3572.784
1052.185, 3625.093
1052.667, 3668.840
1053.149, 3697.928
1053.631, 3709.197
1054.113, 3715.047
1054.595, 3716.805
1055.077, 3716.438
1055.559, 3719.437
1056.042, 3721.910
1056.524, 3695.257
1057.006, 3641.182
1057.488, 3573.626
1057.970, 3499.695
1058.452, 3415.111
1058.934, 3308.508
1059.416, 3190.707
1059.899, 3084.249
1060.381, 2992.989
1060.863, 2898.623
1061.345, 2798.418
1061.827, 2699.183
1062.309, 2605.434
1062.791, 2516.617
1063.273, 2435.549
1063.755, 2361.386
1064.238, 2283.256
1064.720, 2183.695
1065.202, 2097.552
1065.684, 2036.793
1066.166, 1996.026
1066.648, 1968.700
1067.130, 1950.641
1067.612, 1918.028
1068.094, 1854.290
1068.577, 1796.050
1069.059, 1771.417
1069.541, 1758.500
1070.023, 1734.247
1070.505, 1694.507
1070.987, 1664.879
1071.469, 1645.399
1071.951, 1631.879
1072.434, 1625.984
1072.916, 1620.877
1073.398, 1605.599
1073.880, 1583.657
1074.362, 1567.851
1074.844, 1564.675
1075.326, 1561.423
1075.808, 1557.625
1076.291, 1551.211
1076.773, 1535.643
1077.255, 1515.363
1077.737, 1505.516
1078.219, 1508.976
1078.701, 1509.450
1079.183, 1495.673
1079.665, 1479.759
1080.147, 1467.497
1080.630, 1458.440
1081.112, 1449.579
1081.594, 1440.942
1082.076, 1433.786
1082.558, 1430.233
1083.040, 1425.168
1083.522, 1410.453
1084.004, 1393.041
1084.486, 1383.505
1084.969, 1389.801
1085.451, 1382.189
1085.933, 1357.081
1086.415, 1331.859
1086.897, 1320.333
1087.379, 1317.353
1087.861, 1318.681
1088.343, 1321.415
1088.826, 1314.446
1089.308, 1280.288
1089.790, 1254.868
1090.272, 1248.719
1090.754, 1249.007
1091.236, 1233.658
1091.718, 1206.578
1092.200, 1186.109
1092.682, 1175.448
1093.165, 1166.603
1093.647, 1155.053
1094.129, 1143.311
1094.611, 1131.113
1095.093, 1119.487
1095.575, 1119.726
1096.057, 1132.664
1096.539, 1136.186
1097.022, 1119.653
1097.504, 1095.341
1097.986, 1067.097
1098.468, 1042.686
1098.950, 1035.693
1099.432, 1062.988
1099.914, 1063.299
1100.396, 1028.014
1100.879, 993.7349
1101.361, 990.8602
1101.843, 1005.428
1102.325, 1014.875
1102.807, 1018.083
1103.289, 1012.019
1103.771, 985.2370
1104.253, 962.8137
1104.735, 949.1855
1105.218, 940.9363
1105.700, 933.7830
1106.182, 927.9195
1106.664, 925.4050
1107.146, 926.4870
1107.628, 926.7450
1108.110, 927.3732
1108.592, 922.2309
1109.074, 902.7804
1109.557, 875.0172
1110.039, 866.5663
1110.521, 877.6897
1111.003, 880.9485
1111.485, 865.1247
1111.967, 848.7844
1112.449, 854.5734
1112.931, 866.6965
1113.414, 867.0128
1113.896, 850.9982
1114.378, 836.6540
1114.860, 823.2894
1115.342, 814.7923
1115.824, 816.6940
1116.306, 821.9575
1116.788, 817.3093
1117.271, 807.4746
1117.753, 802.9482
1118.235, 815.4771
1118.717, 820.4241
1119.199, 814.1401
1119.681, 804.1967
1120.163, 796.8642
1120.645, 792.0776
1121.127, 790.3383
1121.609, 791.3437
1122.092, 792.5380
1122.574, 794.1720
1123.056, 793.6918
1123.538, 788.6624
1124.020, 782.4310
1124.502, 782.9288
1124.984, 789.1107
1125.466, 792.2086
1125.949, 790.5777
1126.431, 786.1135
1126.913, 778.4003
1127.395, 769.7486
1127.877, 759.6323
1128.359, 749.1993
1128.841, 751.7744
1129.323, 768.5068
1129.806, 776.2237
1130.288, 761.1329
1130.770, 745.2500
1131.252, 756.7178
1131.734, 778.1442
1132.216, 785.4839
1132.698, 770.5199
1133.180, 762.3283
1133.662, 761.9063
1134.145, 764.3035
1134.627, 766.9485
1135.109, 770.0925
1135.591, 776.5202
1136.073, 783.6454
1136.555, 784.7512
1137.037, 771.9134
1137.519, 761.3350
1138.001, 753.1162
1138.484, 749.1638
1138.966, 753.3779
1139.448, 762.9807
1139.930, 772.0586
1140.412, 780.1688
1140.894, 786.1075
1141.376, 789.3728
1141.858, 790.2553
1142.341, 787.8687
1142.823, 784.4012
1143.305, 783.3047
1143.787, 784.5974
1144.269, 790.5733
1144.751, 802.6746
1145.233, 807.3403
1145.715, 784.6823
1146.198, 764.9903
1146.680, 766.7116
1147.162, 784.6313
1147.644, 793.1938
1148.126, 793.3615
1148.608, 799.1764
1149.090, 820.0911
1149.572, 834.7032
1150.054, 817.6295
1150.536, 793.1056
1151.019, 785.8559
1151.501, 798.0839
1151.983, 800.1912
1152.465, 791.5984
1152.947, 787.7224
1153.429, 805.4408
1153.911, 821.9557
1154.393, 807.9426
1154.876, 779.8972
1155.358, 768.2336
1155.840, 784.0679
1156.322, 786.0389
1156.804, 770.7855
1157.286, 756.0206
1157.768, 759.6777
1158.250, 769.4608
1158.733, 770.1591
1159.215, 763.3369
1159.697, 756.3597
1160.179, 748.6232
1160.661, 744.8263
1161.143, 746.0670
1161.625, 749.8042
1162.107, 753.3215
1162.589, 757.2512
1163.072, 762.8853
1163.554, 770.2264
1164.036, 777.6062
1164.518, 787.4088
1165.000, 792.3296
1165.482, 790.1163
1165.964, 782.8943
1166.446, 771.4666
1166.928, 758.7866
1167.411, 751.4993
1167.893, 751.1822
1168.375, 753.7614
1168.857, 759.9402
1169.339, 766.5797
1169.821, 773.8809
1170.303, 779.7532
1170.785, 775.4693
1171.268, 764.3795
1171.750, 758.1405
1172.232, 763.8243
1172.714, 765.9445
1173.196, 754.6918
1173.678, 741.1837
1174.160, 730.0773
1174.642, 722.2789
1175.125, 729.4733
1175.607, 748.2969
1176.089, 759.7111
1176.571, 744.4323
1177.053, 733.6029
1177.535, 748.7150
1178.017, 768.7783
1178.499, 773.2305
1178.981, 762.3436
1179.464, 757.5089
1179.946, 758.7325
1180.428, 761.4294
1180.910, 765.4113
1181.392, 767.1379
1181.874, 762.7113
1182.356, 755.7972
1182.838, 752.3284
1183.320, 752.4531
1183.803, 749.7873
1184.285, 743.6852
1184.767, 739.8422
1185.249, 743.9319
1185.731, 750.3660
1186.213, 757.3768
1186.695, 763.3041
1187.177, 762.3055
1187.660, 753.5109
1188.142, 753.5289
1188.624, 766.6200
1189.106, 775.9889
1189.588, 760.1887
1190.070, 739.9898
1190.552, 731.8302
1191.034, 735.4518
1191.516, 744.2634
1191.999, 759.6045
1192.481, 766.6546
1192.963, 760.2299
1193.445, 750.3792
1193.927, 746.4716
1194.409, 744.6671
1194.891, 740.0696
1195.373, 732.2455
1195.855, 732.3535
1196.338, 741.9595
1196.820, 744.9956
1197.302, 731.1891
1197.784, 716.6415
1198.266, 722.3533
1198.748, 736.0328
1199.230, 741.5683
1199.712, 735.5593
1200.195, 733.6743
1200.677, 736.7993
1201.159, 737.6627
1201.641, 730.3024
1202.123, 721.3563
1202.605, 717.3329
1203.087, 717.3886
1203.569, 720.4858
1204.052, 728.0297
1204.534, 734.4363
1205.016, 740.4210
1205.498, 741.2609
1205.980, 728.4655
1206.462, 713.0101
1206.944, 708.4144
1207.426, 710.8173
1207.908, 711.1613
1208.391, 706.1998
1208.873, 706.4992
1209.355, 713.5104
1209.837, 720.3491
1210.319, 720.5878
1210.801, 717.8915
1211.283, 714.2751
1211.765, 711.2071
1212.247, 714.7159
1212.730, 730.8771
1213.212, 733.4219
1213.694, 717.2170
1214.176, 698.7712
1214.658, 691.6807
1215.140, 692.6237
1215.622, 701.6400
1216.104, 716.2250
1216.587, 722.5366
1217.069, 716.8697
1217.551, 713.8301
1218.033, 716.2288
1218.515, 719.8253
1218.997, 718.9201
1219.479, 717.2692
1219.961, 721.3545
1220.443, 730.5100
1220.926, 729.6855
1221.408, 714.5483
1221.890, 705.4985
1222.372, 708.2462
1222.854, 715.1832
1223.336, 720.3946
1223.818, 722.6607
1224.300, 717.4424
1224.782, 704.1603
1225.265, 706.9460
1225.747, 732.0275
1226.229, 741.1149
1226.711, 716.7890
1227.193, 687.5068
1227.675, 688.3532
1228.157, 703.6060
1228.639, 716.3972
1229.122, 724.9174
1229.604, 726.0660
1230.086, 718.1155
1230.568, 714.8997
1231.050, 724.1658
1231.532, 735.3252
1232.014, 735.6995
1232.496, 731.0961
1232.979, 729.3724
1233.461, 732.0125
1233.943, 727.7158
1234.425, 715.3945
1234.907, 707.8032
1235.389, 714.3562
1235.871, 722.6850
1236.353, 718.5018
1236.835, 709.8236
1237.318, 708.1866
1237.800, 715.5414
1238.282, 716.5447
1238.764, 710.8434
1239.246, 706.0579
1239.728, 709.5958
1240.210, 711.8254
1240.692, 699.4526
1241.175, 683.7025
1241.657, 680.4998
1242.139, 692.3077
1242.621, 702.9994
1243.103, 712.7061
1243.585, 716.4755
1244.067, 706.9112
1244.549, 695.2894
1245.031, 686.9348
1245.514, 682.5963
1245.996, 683.1010
1246.478, 688.9088
1246.960, 695.8571
1247.442, 703.5815
1247.924, 705.7150
1248.406, 689.6078
1248.888, 676.1818
1249.370, 680.8371
1249.853, 692.9302
1250.335, 698.6193
1250.817, 698.0856
1251.299, 699.8744
1251.781, 703.8831
1252.263, 703.4265
1252.745, 686.7861
1253.227, 673.8217
1253.710, 676.7161
1254.192, 685.3564
1254.674, 685.9314
1255.156, 680.3303
1255.638, 685.6630
1256.120, 701.3718
1256.602, 708.9918
1257.084, 684.8159
1257.567, 668.9542
1258.049, 679.7827
1258.531, 697.6297
1259.013, 690.8018
1259.495, 667.8671
1259.977, 661.5222
1260.459, 672.9664
1260.941, 685.3270
1261.423, 690.3480
1261.906, 696.9217
1262.388, 710.1273
1262.870, 720.6913
1263.352, 709.6265
1263.834, 687.2485
1264.316, 679.2808
1264.798, 686.7531
1265.280, 690.5780
1265.762, 680.2578
1266.245, 674.1534
1266.727, 676.9376
1267.209, 681.7020
1267.691, 675.1760
1268.173, 666.0261
1268.655, 672.4211
1269.137, 694.4336
1269.619, 703.9594
1270.102, 692.7168
1270.584, 684.4777
1271.066, 684.5527
1271.548, 687.8652
1272.030, 689.2609
1272.512, 689.4555
1272.994, 689.0087
1273.476, 688.0330
1273.958, 686.7788
1274.441, 684.4278
1274.923, 686.6955
1275.405, 695.9645
1275.887, 704.9210
1276.369, 705.4896
1276.851, 702.4287
1277.333, 699.0835
1277.815, 696.0898
1278.297, 695.8505
1278.780, 698.5546
1279.262, 699.8818
1279.744, 698.6970
1280.226, 696.9033
1280.708, 695.0179
1281.190, 694.0968
1281.672, 695.9312
1282.154, 699.1358
1282.637, 696.9166
1283.119, 690.3729
1283.601, 691.7897
1284.083, 705.4201
1284.565, 714.8000
1285.047, 705.9514
1285.529, 694.2728
1286.011, 685.7362
1286.494, 681.3001
1286.976, 687.7021
1287.458, 700.7046
1287.940, 704.1648
1288.422, 693.1540
1288.904, 686.6268
1289.386, 698.3143
1289.868, 705.8129
1290.350, 698.4802
1290.833, 687.6399
1291.315, 701.7498
1291.797, 727.5057
1292.279, 737.4791
1292.761, 724.8270
1293.243, 712.7880
1293.725, 702.7896
1294.207, 697.9465
1294.689, 700.3677
1295.172, 705.6799
1295.654, 709.4789
1296.136, 711.1418
1296.618, 708.7994
1297.100, 701.6744
1297.582, 698.6553
1298.064, 700.4691
1298.546, 701.5337
1299.029, 699.8993
1299.511, 697.6034
1299.993, 691.8902
1300.475, 690.1829
1300.957, 706.9770
1301.439, 736.8606
1301.921, 740.6990
1302.403, 719.4585
1302.885, 701.5028
1303.368, 694.0475
1303.850, 693.6955
1304.332, 708.2792
1304.814, 718.0708
1305.296, 706.0779
1305.778, 682.8823
1306.260, 691.6077
1306.742, 723.2096
1307.224, 741.0103
1307.707, 734.1603
1308.189, 723.4799
1308.671, 711.3595
1309.153, 705.4686
1309.635, 710.7945
1310.117, 721.4371
1310.599, 725.5699
1311.081, 725.2756
1311.564, 724.9431
1312.046, 725.7973
1312.528, 722.4141
1313.010, 712.8529
1313.492, 703.5797
1313.974, 695.6113
1314.456, 691.9300
1314.938, 701.3618
##END=



