##NAMES=Vivianite
##RRUFFID=R050464
##IDEAL CHEMISTRY=Fe^2+^_3_(PO_4_)_2_&#183;8H_2_O
##LOCALITY=Siglo XX mine, Llallagua, Potosi, Bolivia
##OWNER=RRUFF
##SOURCE=University of Arizona Mineral Museum
##DESCRIPTION=Bluish green elongated prismatic crystals
##STATUS=The identification of this mineral is confirmed by single-crystal X-ray diffraction and chemical analysis.
##URL=rruff.info/R050464
##MEASURED CHEMISTRY=Fe^2+^_3.00_(P_1.00_O_4_)_2_Â·8H_2_O
91.00781, 4.548035
91.48993, 4.685640
91.97205, 4.740803
92.45416, 4.623045
92.93628, 4.426687
93.41840, 4.375175
93.90051, 4.541365
94.38263, 4.799608
94.86475, 4.948291
95.34686, 4.988262
95.82898, 5.001357
96.31110, 5.013309
96.79321, 5.032413
97.27533, 5.165247
97.75745, 5.484292
98.23956, 5.927428
98.72168, 6.203054
99.20380, 6.273458
99.68591, 6.286161
100.1680, 6.373302
100.6501, 6.524274
101.1323, 6.800924
101.6144, 7.248181
102.0965, 7.882041
102.5786, 8.482751
103.0607, 9.025408
103.5428, 9.561268
104.0250, 10.17922
104.5071, 10.85224
104.9892, 11.64490
105.4713, 12.59478
105.9534, 13.80193
106.4355, 14.93607
106.9177, 15.90465
107.3998, 16.79525
107.8819, 17.92148
108.3640, 19.35671
108.8461, 20.95522
109.3282, 22.67473
109.8104, 24.70142
110.2925, 26.59687
110.7746, 28.21228
111.2567, 29.59383
111.7388, 31.17424
112.2209, 33.09664
112.7031, 35.16035
113.1852, 37.24977
113.6673, 39.26354
114.1494, 41.35778
114.6315, 43.58460
115.1136, 45.96671
115.5958, 48.42634
116.0779, 50.99152
116.5600, 53.60819
117.0421, 56.20447
117.5242, 58.52563
118.0063, 61.01967
118.4885, 63.97474
118.9706, 67.45417
119.4527, 71.18066
119.9348, 75.18287
120.4169, 79.30595
120.8990, 83.33153
121.3812, 86.72071
121.8633, 90.13974
122.3454, 94.23251
122.8275, 99.26865
123.3096, 104.6197
123.7917, 109.6269
124.2739, 114.4422
124.7560, 119.6221
125.2381, 125.4165
125.7202, 131.8566
126.2023, 138.9396
126.6844, 146.8578
127.1666, 155.2527
127.6487, 164.4015
128.1308, 174.2079
128.6129, 182.5286
129.0950, 188.5022
129.5771, 191.8389
130.0593, 191.3429
130.5414, 185.7690
131.0235, 176.5006
131.5056, 166.3171
131.9877, 154.6849
132.4698, 142.6414
132.9520, 131.6296
133.4341, 121.6487
133.9162, 113.5637
134.3983, 107.8425
134.8804, 104.3208
135.3625, 102.0264
135.8447, 101.0108
136.3268, 100.9813
136.8089, 101.6534
137.2910, 103.0900
137.7731, 104.8192
138.2552, 106.7886
138.7374, 109.0552
139.2195, 110.9309
139.7016, 112.1955
140.1837, 113.3008
140.6658, 115.2052
141.1479, 118.1473
141.6301, 121.3397
142.1122, 124.4080
142.5943, 127.1899
143.0764, 130.3670
143.5585, 134.2316
144.0406, 138.4877
144.5228, 142.2393
145.0049, 145.3478
145.4870, 148.0990
145.9691, 150.6253
146.4512, 153.1215
146.9333, 155.1581
147.4155, 156.9218
147.8976, 158.3519
148.3797, 158.6484
148.8618, 157.3344
149.3439, 155.2505
149.8260, 152.9471
150.3082, 150.2489
150.7903, 147.5008
151.2724, 144.5037
151.7545, 141.2487
152.2366, 138.5592
152.7188, 136.3779
153.2009, 134.7916
153.6830, 133.8982
154.1651, 133.9518
154.6472, 134.4385
155.1293, 135.2903
155.6115, 136.5171
156.0936, 137.9565
156.5757, 139.2296
157.0578, 140.8165
157.5399, 143.2300
158.0220, 146.6624
158.5042, 150.8821
158.9863, 155.8659
159.4684, 161.6980
159.9505, 167.8620
160.4326, 174.1409
160.9147, 180.6286
161.3969, 187.4640
161.8790, 195.7243
162.3611, 203.6138
162.8432, 210.3605
163.3253, 215.9595
163.8074, 219.9079
164.2896, 221.9236
164.7717, 222.1251
165.2538, 220.7414
165.7359, 217.6227
166.2180, 213.1077
166.7001, 207.2399
167.1823, 199.6516
167.6644, 191.7180
168.1465, 183.9472
168.6286, 176.4573
169.1107, 169.5867
169.5928, 163.4444
170.0750, 158.0606
170.5571, 153.3566
171.0392, 149.3373
171.5213, 146.0566
172.0034, 143.6116
172.4855, 141.9661
172.9677, 141.0125
173.4498, 140.7474
173.9319, 141.0933
174.4140, 141.9251
174.8961, 143.1367
175.3782, 144.9074
175.8604, 147.5194
176.3425, 150.9545
176.8246, 154.9259
177.3067, 159.1106
177.7888, 163.7288
178.2709, 169.1780
178.7531, 175.8877
179.2352, 183.3152
179.7173, 190.6101
180.1994, 197.8190
180.6815, 205.4165
181.1636, 213.8632
181.6458, 223.0402
182.1279, 232.2984
182.6100, 241.4399
183.0921, 250.5833
183.5742, 260.1384
184.0563, 269.9283
184.5385, 280.3442
185.0206, 292.2009
185.5027, 305.1848
185.9848, 317.1889
186.4669, 327.2914
186.9490, 335.9369
187.4312, 344.6910
187.9133, 353.3795
188.3954, 362.2861
188.8775, 371.6420
189.3596, 381.3682
189.8417, 391.1748
190.3239, 400.2688
190.8060, 409.1742
191.2881, 420.3810
191.7702, 434.0356
192.2523, 448.9189
192.7344, 463.5284
193.2166, 477.8097
193.6987, 492.9043
194.1808, 509.8577
194.6629, 528.4123
195.1450, 546.6404
195.6271, 564.8737
196.1093, 581.9662
196.5914, 596.8539
197.0735, 609.6790
197.5556, 618.6514
198.0377, 623.7136
198.5198, 624.9278
199.0020, 619.1870
199.4841, 606.0108
199.9662, 586.6815
200.4483, 561.9792
200.9304, 531.2892
201.4125, 498.9973
201.8947, 466.3810
202.3768, 433.2871
202.8589, 401.6771
203.3410, 371.3408
203.8231, 342.6608
204.3052, 316.6683
204.7874, 293.1696
205.2695, 272.4849
205.7516, 255.0802
206.2337, 241.2500
206.7158, 228.6409
207.1979, 217.1381
207.6801, 206.8895
208.1622, 198.4632
208.6443, 192.0088
209.1264, 186.7218
209.6085, 182.1981
210.0906, 178.3254
210.5728, 175.7573
211.0549, 174.6910
211.5370, 174.8154
212.0191, 175.5568
212.5012, 177.0795
212.9833, 178.8281
213.4655, 180.4512
213.9476, 181.7620
214.4297, 183.6600
214.9118, 186.1579
215.3939, 189.2517
215.8760, 193.0127
216.3581, 197.4024
216.8403, 202.4741
217.3224, 208.1902
217.8045, 214.5755
218.2866, 221.6475
218.7687, 229.3618
219.2508, 237.7567
219.7330, 246.7793
220.2151, 256.5566
220.6972, 266.6744
221.1793, 276.6953
221.6614, 286.2872
222.1435, 296.9412
222.6257, 309.1038
223.1078, 322.2306
223.5899, 335.3216
224.0720, 349.0137
224.5541, 361.7018
225.0362, 372.8103
225.5184, 381.7447
226.0005, 390.4393
226.4826, 399.4406
226.9647, 408.1300
227.4468, 415.1441
227.9289, 420.7687
228.4111, 424.2157
228.8932, 424.9337
229.3753, 422.0173
229.8574, 418.5449
230.3395, 414.5161
230.8216, 410.0088
231.3038, 404.9870
231.7859, 398.7163
232.2680, 393.0591
232.7501, 388.8078
233.2322, 386.0387
233.7143, 384.5429
234.1965, 384.6354
234.6786, 385.9240
235.1607, 387.2896
235.6428, 388.4441
236.1249, 390.0816
236.6070, 392.7960
237.0892, 398.1166
237.5713, 401.1445
238.0534, 401.8199
238.5355, 400.2136
239.0176, 396.5913
239.4997, 391.2720
239.9819, 383.3544
240.4640, 372.2855
240.9461, 356.7530
241.4282, 341.0654
241.9103, 325.4628
242.3924, 309.6379
242.8746, 292.6837
243.3567, 273.5994
243.8388, 254.9098
244.3209, 237.3919
244.8030, 220.9045
245.2851, 206.4858
245.7673, 194.6235
246.2494, 184.6280
246.7315, 175.0313
247.2136, 165.6875
247.6957, 156.9666
248.1778, 148.9062
248.6600, 141.3696
249.1421, 135.1339
249.6242, 130.5034
250.1063, 126.9616
250.5884, 123.5181
251.0705, 120.0540
251.5527, 116.8780
252.0348, 114.1878
252.5169, 112.1138
252.9990, 109.9319
253.4811, 107.4398
253.9632, 104.9451
254.4454, 103.0652
254.9275, 102.0435
255.4096, 101.1420
255.8917, 100.0711
256.3738, 98.72535
256.8560, 97.76444
257.3381, 97.36800
257.8202, 97.19821
258.3023, 96.64992
258.7844, 95.39462
259.2665, 94.50011
259.7487, 94.43757
260.2308, 95.39449
260.7129, 95.83766
261.1950, 95.53405
261.6771, 94.97070
262.1592, 94.80140
262.6414, 95.10925
263.1235, 95.61595
263.6056, 96.32821
264.0877, 97.28639
264.5698, 97.85453
265.0519, 97.78244
265.5341, 97.65977
266.0162, 98.29882
266.4983, 100.0256
266.9804, 101.4889
267.4625, 102.2983
267.9446, 102.4592
268.4268, 102.7113
268.9089, 103.0305
269.3910, 103.4737
269.8731, 104.1753
270.3552, 105.2376
270.8373, 106.1381
271.3195, 106.8239
271.8016, 107.2720
272.2837, 107.1641
272.7658, 106.2531
273.2479, 105.3378
273.7300, 105.3890
274.2122, 106.6823
274.6943, 107.2045
275.1764, 106.4077
275.6585, 104.5240
276.1406, 102.7398
276.6227, 101.0817
277.1049, 99.43761
277.5870, 97.78331
278.0691, 96.14314
278.5512, 94.20567
279.0333, 91.87920
279.5154, 89.24340
279.9976, 86.47778
280.4797, 83.51809
280.9618, 80.72215
281.4439, 78.39746
281.9260, 76.56023
282.4081, 74.43835
282.8903, 71.76696
283.3724, 68.93871
283.8545, 66.99706
284.3366, 66.01003
284.8187, 65.18282
285.3008, 63.97933
285.7830, 62.43298
286.2651, 61.06038
286.7472, 59.89894
287.2293, 58.92478
287.7114, 58.08094
288.1935, 57.36776
288.6757, 56.85170
289.1578, 56.66050
289.6399, 56.72935
290.1220, 56.74758
290.6041, 56.69838
291.0862, 56.59324
291.5684, 56.33217
292.0505, 55.95353
292.5326, 55.82134
293.0147, 56.30006
293.4968, 57.16675
293.9789, 57.70190
294.4611, 57.83277
294.9432, 57.93445
295.4253, 58.46044
295.9074, 59.34493
296.3895, 60.28439
296.8716, 61.14527
297.3538, 61.98450
297.8359, 62.89831
298.3180, 63.89244
298.8001, 65.00346
299.2822, 66.35986
299.7643, 67.88430
300.2465, 69.35054
300.7286, 70.61417
301.2107, 71.81647
301.6928, 73.24313
302.1749, 74.86219
302.6570, 76.37669
303.1392, 77.41479
303.6213, 78.19772
304.1034, 79.13161
304.5855, 80.67317
305.0676, 82.02324
305.5497, 82.33918
306.0319, 81.72758
306.5140, 80.75650
306.9961, 79.67431
307.4782, 78.49559
307.9603, 77.21646
308.4424, 75.82696
308.9246, 74.37062
309.4067, 72.91306
309.8888, 71.42787
310.3709, 69.80856
310.8530, 67.89879
311.3351, 65.90084
311.8173, 63.98051
312.2994, 62.13701
312.7815, 60.38773
313.2636, 58.72129
313.7457, 57.17213
314.2278, 55.79235
314.7100, 54.66424
315.1921, 53.68706
315.6742, 52.79451
316.1563, 51.97459
316.6384, 51.28850
317.1205, 50.94939
317.6027, 50.72110
318.0848, 50.30584
318.5669, 49.19801
319.0490, 48.25325
319.5311, 47.92099
320.0132, 48.24556
320.4954, 48.48064
320.9775, 48.38622
321.4596, 48.12602
321.9417, 47.83887
322.4238, 47.15270
322.9059, 46.85647
323.3881, 47.36782
323.8702, 48.59915
324.3523, 49.53141
324.8344, 49.88921
325.3165, 49.99163
325.7986, 50.03218
326.2808, 49.71745
326.7629, 49.70514
327.2450, 50.23866
327.7271, 51.15924
328.2092, 51.83807
328.6913, 51.92781
329.1735, 52.07664
329.6556, 52.56048
330.1377, 53.62425
330.6198, 54.55686
331.1019, 55.30442
331.5840, 55.93363
332.0662, 56.56699
332.5483, 57.08321
333.0304, 57.78849
333.5125, 58.82891
333.9946, 60.32291
334.4767, 61.57640
334.9589, 62.51839
335.4410, 63.27405
335.9231, 63.97580
336.4052, 64.58289
336.8873, 65.21547
337.3694, 65.82528
337.8516, 66.43088
338.3336, 67.52704
338.8158, 69.31715
339.2979, 71.17507
339.7800, 72.54400
340.2621, 73.35613
340.7442, 74.06248
341.2263, 74.66050
341.7085, 75.23457
342.1906, 76.17272
342.6727, 77.58177
343.1548, 78.73904
343.6369, 79.11726
344.1190, 78.74639
344.6012, 78.12730
345.0833, 77.26320
345.5654, 76.26955
346.0475, 75.43351
346.5296, 74.73528
347.0117, 73.79006
347.4939, 72.39603
347.9760, 70.60526
348.4581, 68.44312
348.9402, 65.85072
349.4223, 63.24664
349.9044, 61.06568
350.3866, 59.22689
350.8687, 57.42435
351.3508, 55.39501
351.8329, 53.37088
352.3150, 51.76719
352.7971, 50.56744
353.2793, 49.43416
353.7614, 48.02481
354.2435, 46.49574
354.7256, 45.09132
355.2077, 43.90458
355.6898, 42.84372
356.1720, 41.79115
356.6541, 40.77348
357.1362, 39.90715
357.6183, 39.31804
358.1004, 38.86750
358.5826, 38.45510
359.0647, 38.10645
359.5468, 37.67949
360.0289, 36.97746
360.5110, 36.15034
360.9931, 35.48119
361.4753, 35.17840
361.9574, 34.99125
362.4395, 34.80862
362.9216, 34.62037
363.4037, 34.43327
363.8858, 34.14157
364.3680, 33.89428
364.8501, 33.84827
365.3322, 34.43197
365.8143, 34.81696
366.2964, 34.64817
366.7785, 33.94120
367.2607, 33.53338
367.7428, 33.87070
368.2249, 34.28385
368.7070, 34.36428
369.1891, 33.74498
369.6712, 33.27434
370.1534, 32.97812
370.6355, 32.84461
371.1176, 32.85905
371.5997, 33.20734
372.0818, 33.46056
372.5639, 33.39469
373.0461, 32.81661
373.5282, 32.56885
374.0103, 32.76956
374.4924, 33.18353
374.9745, 33.46384
375.4566, 33.59476
375.9388, 33.64708
376.4209, 33.63425
376.9030, 33.55729
377.3851, 33.39930
377.8672, 33.11053
378.3493, 32.89212
378.8315, 33.02298
379.3136, 33.51403
379.7957, 33.80909
380.2778, 33.74364
380.7599, 33.48686
381.2420, 33.47613
381.7242, 33.71131
382.2063, 33.93937
382.6884, 33.95041
383.1705, 33.81205
383.6526, 33.77431
384.1347, 33.87976
384.6169, 34.00717
385.0990, 33.91808
385.5811, 33.70167
386.0632, 33.65364
386.5453, 34.07210
387.0274, 34.66547
387.5096, 35.06168
387.9917, 35.25441
388.4738, 35.32181
388.9559, 35.18468
389.4380, 34.99639
389.9201, 34.96897
390.4023, 35.29676
390.8844, 35.65916
391.3665, 35.83207
391.8486, 35.85809
392.3307, 35.88649
392.8128, 35.95175
393.2950, 36.06848
393.7771, 36.27538
394.2592, 36.65116
394.7413, 36.91775
395.2234, 36.85520
395.7055, 36.65075
396.1877, 36.59418
396.6698, 36.92431
397.1519, 37.24418
397.6340, 37.43626
398.1161, 37.48616
398.5982, 37.49701
399.0804, 37.35593
399.5625, 37.25199
400.0446, 37.32758
400.5267, 37.74378
401.0088, 38.10534
401.4909, 38.34126
401.9731, 38.49440
402.4552, 38.75608
402.9373, 39.25639
403.4194, 39.65377
403.9015, 39.73102
404.3836, 39.34992
404.8658, 39.20327
405.3479, 39.32923
405.8300, 39.63879
406.3121, 40.04847
406.7942, 40.58219
407.2763, 41.04315
407.7585, 41.35757
408.2406, 41.54554
408.7227, 41.69183
409.2048, 41.78743
409.6869, 41.90620
410.1690, 42.14080
410.6512, 42.46354
411.1333, 42.74390
411.6154, 42.94093
412.0975, 43.11644
412.5796, 43.37010
413.0617, 43.69129
413.5439, 44.02956
414.0260, 44.37978
414.5081, 44.72506
414.9902, 44.98678
415.4723, 45.14238
415.9544, 45.41903
416.4366, 46.20787
416.9187, 47.19159
417.4008, 47.89204
417.8829, 47.82655
418.3650, 47.69297
418.8471, 47.90100
419.3293, 48.40952
419.8114, 48.97408
420.2935, 49.66650
420.7756, 50.26439
421.2577, 50.55085
421.7398, 50.18477
422.2220, 50.11816
422.7041, 50.71044
423.1862, 51.71107
423.6683, 52.66683
424.1504, 53.45793
424.6325, 54.27982
425.1147, 55.18245
425.5968, 56.18765
426.0789, 57.18981
426.5610, 58.26036
427.0431, 59.26415
427.5252, 60.02149
428.0074, 60.25237
428.4895, 60.90095
428.9716, 62.14109
429.4537, 63.83083
429.9358, 65.56171
430.4179, 67.36700
430.9001, 69.07707
431.3822, 70.52108
431.8643, 71.69224
432.3464, 73.00527
432.8285, 74.42368
433.3106, 76.10498
433.7928, 78.40360
434.2749, 81.24113
434.7570, 83.93412
435.2391, 86.12936
435.7212, 88.16444
436.2033, 90.70535
436.6855, 93.70741
437.1676, 96.94188
437.6497, 100.3598
438.1318, 103.8661
438.6139, 107.2677
439.0960, 110.4700
439.5782, 113.8052
440.0603, 117.6142
440.5424, 121.7618
441.0245, 125.9311
441.5066, 129.9219
441.9887, 133.9939
442.4709, 138.3002
442.9530, 142.8422
443.4351, 147.5344
443.9172, 152.3413
444.3993, 157.2561
444.8814, 162.2031
445.3636, 167.1666
445.8457, 172.2177
446.3278, 177.3147
446.8099, 182.4808
447.2920, 187.9236
447.7741, 194.1267
448.2563, 200.1034
448.7384, 205.3319
449.2205, 209.7104
449.7026, 214.6249
450.1847, 220.3176
450.6668, 226.1746
451.1490, 231.7728
451.6311, 237.3389
452.1132, 241.7619
452.5953, 244.6990
453.0774, 246.5652
453.5595, 248.9272
454.0417, 251.9620
454.5238, 253.8671
455.0059, 253.5027
455.4880, 251.1237
455.9701, 247.9408
456.4522, 243.9698
456.9344, 239.3792
457.4165, 234.4610
457.8986, 229.0580
458.3807, 222.8405
458.8628, 215.2776
459.3449, 207.2588
459.8271, 199.7712
460.3092, 192.6725
460.7913, 185.2200
461.2734, 176.3700
461.7555, 167.3792
462.2376, 159.2001
462.7198, 152.1017
463.2019, 145.5398
463.6840, 139.4917
464.1661, 133.8283
464.6482, 128.3940
465.1303, 122.9944
465.6125, 117.9776
466.0946, 113.6059
466.5767, 109.7737
467.0588, 105.8639
467.5409, 101.4904
468.0230, 97.32442
468.5052, 93.62894
468.9873, 90.35572
469.4694, 87.72250
469.9515, 86.00137
470.4336, 84.69312
470.9157, 83.04780
471.3979, 80.95065
471.8800, 78.93586
472.3621, 77.10734
472.8442, 75.47800
473.3263, 74.05965
473.8084, 72.86662
474.2906, 71.77029
474.7727, 70.65124
475.2548, 69.53983
475.7369, 68.58369
476.2190, 67.79521
476.7011, 67.16113
477.1833, 66.72041
477.6654, 66.41846
478.1475, 66.10628
478.6296, 65.73979
479.1117, 65.32107
479.5938, 64.75349
480.0760, 64.08066
480.5581, 63.60940
481.0402, 63.57720
481.5223, 63.77579
482.0044, 64.07349
482.4865, 64.51509
482.9687, 64.86147
483.4508, 64.98740
483.9329, 64.98165
484.4150, 64.96956
484.8971, 64.75280
485.3792, 64.76451
485.8614, 65.27485
486.3435, 66.22916
486.8256, 66.80421
487.3077, 66.71488
487.7898, 66.57500
488.2719, 66.73545
488.7541, 67.32580
489.2362, 67.75393
489.7183, 67.90203
490.2004, 68.04002
490.6825, 68.64983
491.1646, 69.78847
491.6468, 70.85125
492.1289, 71.68705
492.6110, 72.31364
493.0931, 72.70105
493.5752, 72.85715
494.0573, 73.21389
494.5395, 74.17873
495.0216, 75.55191
495.5037, 76.99705
495.9858, 78.47334
496.4679, 79.87686
496.9500, 81.05215
497.4322, 82.08443
497.9143, 83.09351
498.3964, 84.03821
498.8785, 85.05581
499.3606, 86.14600
499.8427, 87.35506
500.3249, 88.81509
500.8070, 90.99419
501.2891, 93.12223
501.7712, 94.67851
502.2533, 95.23379
502.7354, 96.29140
503.2176, 98.21540
503.6997, 100.5581
504.1818, 102.9107
504.6639, 105.4231
505.1460, 107.6457
505.6281, 109.3958
506.1103, 110.8296
506.5924, 112.4925
507.0745, 114.4140
507.5566, 116.4536
508.0387, 118.5298
508.5208, 120.6469
509.0030, 122.8970
509.4851, 125.2763
509.9672, 127.8080
510.4493, 130.7233
510.9314, 133.8469
511.4135, 136.5116
511.8957, 138.2639
512.3778, 139.9415
512.8599, 142.8454
513.3420, 146.5304
513.8242, 149.6782
514.3063, 150.9635
514.7884, 151.9494
515.2705, 153.8749
515.7526, 156.8193
516.2347, 159.9189
516.7169, 163.0555
517.1990, 166.0755
517.6811, 168.8479
518.1632, 170.9009
518.6453, 173.3147
519.1274, 176.5445
519.6096, 180.1483
520.0917, 183.2670
520.5738, 185.6379
521.0559, 187.9441
521.5380, 190.4138
522.0201, 193.0175
522.5023, 195.0967
522.9844, 196.4029
523.4665, 197.9230
523.9486, 200.7083
524.4307, 204.6714
524.9128, 207.5969
525.3950, 209.1291
525.8771, 210.1531
526.3592, 211.7967
526.8413, 213.9034
527.3234, 215.9878
527.8055, 218.0007
528.2877, 219.7452
528.7698, 221.0166
529.2519, 221.8271
529.7340, 222.2849
530.2161, 221.7792
530.6982, 221.3957
531.1804, 222.1466
531.6625, 224.3641
532.1446, 226.3391
532.6267, 227.3130
533.1088, 227.8783
533.5909, 228.5659
534.0731, 229.8979
534.5552, 230.8020
535.0373, 231.0888
535.5194, 230.9237
536.0015, 230.7182
536.4836, 230.4684
536.9658, 230.1921
537.4479, 229.9400
537.9300, 229.7003
538.4121, 229.1031
538.8942, 228.0549
539.3763, 227.0414
539.8585, 226.6765
540.3406, 226.7841
540.8227, 226.3251
541.3048, 225.1041
541.7869, 223.5022
542.2690, 221.9046
542.7512, 220.2936
543.2333, 218.6292
543.7154, 217.1345
544.1975, 215.3809
544.6796, 212.8795
545.1617, 209.7523
545.6439, 206.6315
546.1260, 203.8010
546.6081, 201.0645
547.0902, 198.3552
547.5723, 195.7616
548.0544, 192.9104
548.5366, 189.3868
549.0187, 185.7652
549.5008, 182.5705
549.9829, 180.2310
550.4650, 177.5063
550.9471, 174.0555
551.4293, 170.2956
551.9114, 167.2018
552.3935, 164.9180
552.8756, 162.5992
553.3577, 159.8418
553.8398, 156.7893
554.3220, 154.0673
554.8041, 151.6667
555.2862, 149.5942
555.7683, 148.2023
556.2504, 147.0578
556.7325, 145.0283
557.2147, 141.7617
557.6968, 138.7425
558.1789, 137.3947
558.6610, 137.0490
559.1431, 136.7298
559.6252, 136.0346
560.1074, 135.3512
560.5895, 134.7823
561.0716, 134.3360
561.5537, 134.0499
562.0358, 133.6809
562.5179, 133.7184
563.0001, 134.4512
563.4822, 135.9579
563.9643, 137.2016
564.4464, 137.9439
564.9285, 138.7620
565.4106, 140.2161
565.8928, 142.4718
566.3749, 144.2802
566.8570, 145.4973
567.3391, 146.3922
567.8212, 147.4676
568.3033, 148.6627
568.7855, 149.4716
569.2676, 149.8096
569.7497, 149.5930
570.2318, 148.7827
570.7139, 147.3473
571.1960, 145.0827
571.6782, 141.5728
572.1603, 137.3986
572.6424, 133.0068
573.1245, 128.3928
573.6066, 123.6868
574.0887, 118.7286
574.5709, 113.7764
575.0530, 108.9775
575.5351, 104.1443
576.0172, 99.70228
576.4993, 95.79089
576.9814, 92.20119
577.4636, 88.63945
577.9457, 85.00404
578.4278, 81.66967
578.9099, 78.76231
579.3920, 76.26923
579.8741, 74.29809
580.3563, 72.90431
580.8384, 71.39436
581.3205, 69.02403
581.8026, 66.21673
582.2847, 64.42007
582.7668, 63.68012
583.2490, 63.16264
583.7311, 62.14915
584.2132, 60.95099
584.6953, 59.98258
585.1774, 59.44758
585.6595, 58.91506
586.1416, 58.11164
586.6237, 57.18347
587.1058, 56.33885
587.5880, 55.60408
588.0701, 54.98392
588.5522, 54.49497
589.0343, 54.12449
589.5164, 53.82733
589.9985, 53.60035
590.4807, 53.45789
590.9628, 53.48916
591.4449, 53.70491
591.9270, 53.40625
592.4091, 52.46019
592.8912, 51.56722
593.3734, 51.47349
593.8555, 52.01320
594.3376, 52.40919
594.8197, 52.54047
595.3018, 52.56351
595.7839, 52.65057
596.2661, 52.75301
596.7482, 52.77549
597.2303, 52.60665
597.7124, 52.42568
598.1945, 52.23491
598.6766, 52.10328
599.1588, 52.23736
599.6409, 53.13310
600.1230, 53.89588
600.6051, 54.09058
601.0872, 53.66911
601.5693, 53.44551
602.0515, 53.48029
602.5336, 53.63226
603.0157, 53.83228
603.4978, 54.09008
603.9799, 54.34021
604.4620, 54.58472
604.9442, 54.81388
605.4263, 54.98844
605.9084, 55.12619
606.3905, 55.32627
606.8726, 55.64553
607.3547, 55.97777
607.8369, 56.16644
608.3190, 56.26333
608.8011, 56.40595
609.2832, 56.70785
609.7653, 57.03308
610.2474, 57.28115
610.7296, 57.46565
611.2117, 57.69220
611.6938, 58.08614
612.1759, 58.44957
612.6580, 58.64080
613.1401, 58.56856
613.6223, 58.76197
614.1044, 59.41591
614.5865, 60.06921
615.0686, 60.26289
615.5507, 59.93399
616.0328, 59.71470
616.5150, 59.69192
616.9971, 59.73860
617.4792, 59.72418
617.9613, 59.63068
618.4434, 59.33497
618.9255, 58.57056
619.4077, 57.86401
619.8898, 58.08352
620.3719, 58.91247
620.8540, 59.35432
621.3361, 58.33461
621.8182, 57.28025
622.3004, 57.12962
622.7825, 57.90955
623.2646, 58.40961
623.7467, 58.21677
624.2288, 57.82911
624.7109, 57.46824
625.1931, 57.10461
625.6752, 56.87823
626.1573, 56.83659
626.6394, 56.84812
627.1215, 56.78377
627.6036, 56.64247
628.0858, 56.47853
628.5679, 56.31874
629.0500, 56.08964
629.5321, 55.57381
630.0142, 54.87927
630.4963, 54.37178
630.9785, 54.33157
631.4606, 54.39883
631.9427, 54.25362
632.4248, 53.95592
632.9069, 53.69536
633.3890, 53.68251
633.8712, 53.60869
634.3533, 53.28835
634.8354, 52.69128
635.3175, 52.19809
635.7996, 51.79479
636.2817, 51.52587
636.7639, 51.46637
637.2460, 51.70469
637.7281, 51.65803
638.2102, 51.24504
638.6923, 50.77461
639.1744, 50.59961
639.6566, 50.67942
640.1387, 50.76684
640.6208, 50.81289
641.1029, 50.86118
641.5850, 51.05954
642.0671, 51.28820
642.5493, 51.31081
643.0314, 50.81929
643.5135, 50.30315
643.9956, 50.03996
644.4777, 49.95898
644.9598, 49.83264
645.4420, 49.44748
645.9241, 49.18484
646.4062, 49.21235
646.8883, 49.51258
647.3704, 49.68690
647.8525, 49.72579
648.3347, 49.65649
648.8168, 49.42597
649.2989, 49.04183
649.7810, 48.89009
650.2631, 48.98865
650.7452, 49.17827
651.2274, 49.35447
651.7095, 49.49937
652.1916, 49.57143
652.6737, 49.55077
653.1558, 49.49680
653.6379, 49.35831
654.1201, 49.24336
654.6022, 49.29296
655.0843, 49.86547
655.5664, 50.24001
656.0485, 50.09060
656.5306, 49.64470
657.0128, 49.42241
657.4949, 49.50712
657.9770, 49.66142
658.4591, 49.84201
658.9412, 50.04564
659.4233, 50.28302
659.9055, 50.56468
660.3876, 50.77166
660.8697, 50.79163
661.3518, 50.70016
661.8339, 50.67559
662.3160, 50.71740
662.7982, 50.79562
663.2803, 50.92645
663.7624, 51.06212
664.2445, 51.15649
664.7266, 51.20267
665.2087, 51.21881
665.6909, 51.10289
666.1730, 51.02347
666.6551, 51.13863
667.1372, 51.71687
667.6193, 52.00582
668.1014, 51.87107
668.5836, 51.57885
669.0657, 51.49693
669.5478, 51.64264
670.0299, 51.80397
670.5120, 51.94592
670.9941, 52.06856
671.4763, 52.15343
671.9584, 52.21435
672.4405, 52.30517
672.9226, 52.47051
673.4047, 52.66046
673.8868, 52.89496
674.3690, 53.13009
674.8511, 53.21790
675.3332, 52.85507
675.8153, 52.56098
676.2974, 52.55010
676.7795, 52.84060
677.2617, 53.29755
677.7438, 54.12781
678.2259, 54.81332
678.7080, 55.00913
679.1901, 54.67091
679.6722, 54.61657
680.1544, 54.87209
680.6365, 55.24956
681.1186, 55.68096
681.6007, 56.09216
682.0828, 56.29999
682.5649, 56.26844
683.0471, 56.07679
683.5292, 55.62703
684.0113, 55.12099
684.4934, 54.81976
684.9755, 54.95428
685.4576, 55.04263
685.9398, 54.86412
686.4219, 54.59812
686.9040, 54.55056
687.3861, 54.88994
687.8682, 55.09588
688.3503, 55.01651
688.8325, 54.80596
689.3146, 54.89980
689.7967, 55.30229
690.2788, 55.67667
690.7609, 55.87620
691.2430, 55.96871
691.7252, 56.07980
692.2073, 56.19926
692.6894, 56.27589
693.1715, 56.22825
693.6536, 56.16788
694.1357, 56.18556
694.6179, 56.28099
695.1000, 56.35176
695.5821, 56.43630
696.0642, 56.42641
696.5463, 56.21444
697.0284, 55.72412
697.5106, 55.58573
697.9927, 55.93177
698.4748, 56.32154
698.9569, 56.34402
699.4390, 56.05346
699.9211, 55.90953
700.4033, 55.96029
700.8854, 56.04236
701.3675, 55.92525
701.8496, 55.75062
702.3317, 55.78904
702.8138, 56.24220
703.2960, 56.54177
703.7781, 56.26149
704.2602, 55.71950
704.7423, 55.30528
705.2244, 55.19936
705.7065, 55.06557
706.1887, 54.80209
706.6708, 54.54242
707.1529, 54.56000
707.6350, 54.90410
708.1171, 55.23075
708.5992, 55.46291
709.0814, 55.61100
709.5635, 55.74686
710.0456, 55.83924
710.5277, 55.74075
711.0098, 55.07685
711.4919, 54.42992
711.9741, 54.35279
712.4562, 54.74748
712.9383, 55.20608
713.4204, 55.96532
713.9025, 56.39605
714.3846, 55.96940
714.8668, 54.75395
715.3489, 54.20703
715.8310, 54.60883
716.3131, 55.11113
716.7952, 55.27453
717.2773, 55.12563
717.7595, 55.08937
718.2416, 55.17519
718.7237, 55.21016
719.2058, 54.93926
719.6879, 54.56933
720.1700, 54.45880
720.6522, 54.65312
721.1343, 54.89820
721.6164, 55.12431
722.0985, 55.28986
722.5806, 55.33136
723.0627, 55.05835
723.5449, 55.09974
724.0270, 55.65345
724.5091, 56.36369
724.9912, 56.96669
725.4733, 57.51321
725.9554, 57.60117
726.4376, 57.08278
726.9197, 56.44720
727.4018, 56.44583
727.8839, 56.88962
728.3660, 57.15643
728.8481, 56.99845
729.3303, 56.83545
729.8124, 57.09391
730.2945, 57.56482
730.7766, 57.92682
731.2587, 58.04645
731.7408, 58.09697
732.2230, 58.00695
732.7051, 57.89804
733.1872, 58.03443
733.6693, 58.53944
734.1514, 58.91723
734.6335, 59.00137
735.1157, 58.93365
735.5978, 59.04121
736.0799, 59.32153
736.5620, 59.75927
737.0441, 60.57939
737.5262, 61.36636
738.0084, 61.53819
738.4905, 61.25620
738.9726, 61.06914
739.4547, 61.42902
739.9368, 61.72790
740.4189, 61.55560
740.9011, 60.95792
741.3832, 60.82803
741.8653, 61.37762
742.3474, 62.01647
742.8295, 62.55733
743.3116, 62.98701
743.7938, 63.10329
744.2759, 62.89543
744.7580, 62.71399
745.2401, 62.88671
745.7222, 63.20378
746.2043, 63.32727
746.6865, 63.25247
747.1686, 63.17538
747.6507, 63.14117
748.1328, 63.19172
748.6149, 63.41436
749.0970, 63.89322
749.5792, 64.11012
750.0613, 63.82568
750.5434, 63.56482
751.0255, 63.70410
751.5076, 64.28827
751.9897, 64.73605
752.4719, 65.03867
752.9540, 65.23271
753.4361, 65.27097
753.9182, 65.25010
754.4003, 65.44217
754.8824, 65.92616
755.3646, 66.23622
755.8467, 65.76186
756.3288, 65.13234
756.8109, 64.98044
757.2930, 65.77361
757.7751, 66.27447
758.2573, 66.30479
758.7394, 66.13053
759.2215, 65.99425
759.7036, 65.90420
760.1857, 65.77662
760.6678, 65.59336
761.1500, 65.41411
761.6321, 65.24500
762.1142, 65.14613
762.5963, 65.31958
763.0784, 65.93504
763.5605, 66.48192
764.0427, 66.59012
764.5248, 66.42184
765.0069, 66.18050
765.4890, 65.63430
765.9711, 65.40384
766.4532, 65.71308
766.9354, 66.22337
767.4175, 66.44130
767.8996, 66.32774
768.3817, 66.17431
768.8638, 66.03802
769.3459, 65.86966
769.8281, 65.53689
770.3102, 65.10532
770.7923, 64.77528
771.2744, 64.67725
771.7565, 64.60368
772.2386, 64.31799
772.7208, 63.97617
773.2029, 63.84991
773.6850, 64.26168
774.1671, 64.57011
774.6492, 64.70027
775.1313, 64.66918
775.6135, 64.50508
776.0956, 64.20493
776.5777, 63.76400
777.0598, 63.07221
777.5419, 62.40471
778.0240, 62.35612
778.5062, 62.75647
778.9883, 63.07739
779.4704, 63.09819
779.9525, 62.94619
780.4346, 62.54139
780.9167, 62.02549
781.3989, 61.73997
781.8810, 61.92867
782.3631, 62.15320
782.8452, 62.38451
783.3273, 62.58379
783.8094, 62.61026
784.2916, 62.44627
784.7737, 62.28714
785.2558, 62.18744
785.7379, 62.14738
786.2200, 62.24096
786.7021, 62.40892
787.1843, 62.44776
787.6664, 62.11031
788.1485, 61.76308
788.6306, 61.59272
789.1127, 61.57846
789.5948, 61.64384
790.0770, 61.86240
790.5591, 62.02180
791.0412, 61.99300
791.5233, 61.89247
792.0054, 62.29847
792.4875, 63.22493
792.9697, 63.78832
793.4518, 63.28063
793.9339, 62.45453
794.4160, 62.62317
794.8981, 63.52342
795.3802, 64.27998
795.8624, 64.16759
796.3445, 64.12137
796.8266, 64.77832
797.3087, 65.93888
797.7908, 66.53188
798.2729, 66.16835
798.7551, 65.94624
799.2372, 66.23656
799.7193, 66.88335
800.2014, 67.32662
800.6835, 67.57747
801.1656, 67.80254
801.6478, 67.96618
802.1299, 68.23723
802.6120, 69.00130
803.0941, 70.06765
803.5762, 70.83999
804.0583, 70.50716
804.5405, 70.41255
805.0226, 71.28413
805.5047, 72.84663
805.9868, 74.02771
806.4689, 74.69151
806.9510, 75.35655
807.4332, 76.19633
807.9153, 77.15903
808.3974, 78.09196
808.8795, 78.99748
809.3616, 79.89170
809.8438, 80.83054
810.3259, 81.71095
810.8080, 82.38097
811.2901, 82.90911
811.7722, 83.53905
812.2543, 84.72976
812.7365, 85.54969
813.2186, 85.63595
813.7007, 85.20854
814.1828, 85.07218
814.6649, 85.26104
815.1470, 85.45341
815.6292, 85.49964
816.1113, 85.50727
816.5934, 85.77901
817.0755, 86.20261
817.5576, 86.40440
818.0397, 85.73418
818.5219, 85.26787
819.0040, 85.70297
819.4861, 86.79932
819.9682, 87.75076
820.4503, 88.43576
820.9324, 89.11533
821.4146, 89.87794
821.8967, 90.63048
822.3788, 91.05144
822.8609, 91.16196
823.3430, 91.32897
823.8251, 91.67651
824.3073, 92.16190
824.7894, 92.88598
825.2715, 93.69569
825.7536, 94.29174
826.2357, 94.30831
826.7178, 94.37668
827.2000, 94.74238
827.6821, 95.25974
828.1642, 95.66503
828.6463, 95.95623
829.1284, 96.14109
829.6105, 96.18864
830.0927, 96.19537
830.5748, 96.42083
831.0569, 96.76907
831.5390, 96.88804
832.0211, 96.48692
832.5032, 96.10915
832.9854, 96.20621
833.4675, 96.55740
833.9496, 96.82763
834.4317, 96.90865
834.9138, 96.94096
835.3959, 96.81857
835.8781, 96.75829
836.3602, 97.34872
836.8423, 98.57632
837.3244, 98.85854
837.8065, 97.71446
838.2886, 96.15022
838.7708, 95.15130
839.2529, 94.58968
839.7350, 94.28106
840.2171, 94.34077
840.6992, 94.30521
841.1813, 93.92368
841.6635, 93.42750
842.1456, 93.05600
842.6277, 92.84412
843.1098, 92.71786
843.5919, 92.77515
844.0740, 92.64407
844.5562, 91.59204
845.0383, 89.99711
845.5204, 89.06643
846.0025, 89.05847
846.4846, 89.19536
846.9667, 89.08420
847.4489, 88.75143
847.9310, 88.17715
848.4131, 87.17255
848.8952, 86.45046
849.3773, 86.16045
849.8594, 85.95887
850.3416, 85.58690
850.8237, 85.04855
851.3058, 84.50957
851.7879, 83.96974
852.2700, 83.45046
852.7521, 82.97093
853.2343, 82.50654
853.7164, 82.02233
854.1985, 81.51794
854.6806, 81.02760
855.1627, 80.60303
855.6448, 80.15451
856.1270, 79.61893
856.6091, 78.99002
857.0912, 78.43152
857.5733, 77.93236
858.0554, 77.58794
858.5375, 77.64189
859.0197, 77.83863
859.5018, 77.53280
859.9839, 76.79850
860.4660, 76.10533
860.9481, 75.79755
861.4302, 75.52205
861.9124, 74.99955
862.3945, 74.27750
862.8766, 73.88003
863.3587, 73.95306
863.8408, 74.02748
864.3229, 73.92420
864.8051, 73.72425
865.2872, 73.80016
865.7693, 74.06358
866.2514, 73.98557
866.7335, 73.00488
867.2156, 71.88223
867.6978, 71.14616
868.1799, 70.72807
868.6620, 70.46231
869.1441, 70.36250
869.6262, 70.37486
870.1083, 70.56074
870.5905, 70.80326
871.0726, 70.88354
871.5547, 70.80411
872.0368, 70.58816
872.5189, 70.21394
873.0010, 69.78349
873.4832, 69.33107
873.9653, 68.92130
874.4474, 68.66232
874.9295, 68.61194
875.4116, 68.66061
875.8937, 68.87077
876.3759, 69.11120
876.8580, 69.30217
877.3401, 69.49110
877.8222, 69.25107
878.3043, 68.43736
878.7864, 67.69823
879.2686, 67.86451
879.7507, 68.54404
880.2328, 69.04981
880.7149, 69.27908
881.1970, 69.37918
881.6791, 69.43943
882.1613, 69.38114
882.6434, 69.06399
883.1255, 68.40311
883.6076, 68.20030
884.0897, 68.56084
884.5718, 69.04185
885.0540, 69.42704
885.5361, 69.69257
886.0182, 69.63052
886.5003, 69.29905
886.9824, 69.15365
887.4645, 69.67299
887.9467, 70.28323
888.4288, 70.67652
888.9109, 70.83079
889.3930, 70.77531
889.8751, 70.22664
890.3572, 70.12877
890.8394, 70.99846
891.3215, 72.35151
891.8036, 72.67299
892.2857, 72.14915
892.7678, 71.80998
893.2499, 72.27145
893.7321, 72.88906
894.2142, 73.14250
894.6963, 73.22181
895.1784, 73.48849
895.6605, 74.25078
896.1426, 74.86176
896.6248, 75.28178
897.1069, 75.51883
897.5890, 75.46980
898.0711, 75.18608
898.5532, 75.17482
899.0353, 75.53598
899.5175, 76.14194
899.9996, 77.12241
900.4817, 78.16389
900.9638, 78.85152
901.4459, 78.95250
901.9280, 79.19932
902.4102, 79.75928
902.8923, 80.38135
903.3744, 80.84111
903.8565, 81.13380
904.3386, 81.77026
904.8207, 82.75389
905.3029, 83.78025
905.7850, 84.57487
906.2671, 85.29056
906.7492, 86.15855
907.2313, 87.16324
907.7134, 87.99424
908.1956, 88.24236
908.6777, 88.65510
909.1598, 89.45055
909.6419, 90.60677
910.1240, 92.17822
910.6061, 94.17211
911.0883, 95.82127
911.5704, 96.62564
912.0525, 97.09681
912.5346, 97.74441
913.0167, 98.59555
913.4988, 99.70913
913.9810, 101.3885
914.4631, 102.9740
914.9452, 104.2332
915.4273, 105.3987
915.9094, 106.8424
916.3915, 108.5798
916.8737, 110.1625
917.3558, 111.4569
917.8379, 112.9059
918.3200, 115.1471
918.8021, 117.8135
919.2842, 120.3702
919.7664, 122.6541
920.2485, 125.0077
920.7306, 127.5652
921.2127, 130.2068
921.6948, 132.7993
922.1769, 135.3322
922.6591, 138.0541
923.1412, 140.9502
923.6233, 144.2959
924.1054, 148.5897
924.5875, 153.3072
925.0696, 157.6776
925.5518, 161.7966
926.0339, 166.3088
926.5160, 171.3190
926.9981, 176.9240
927.4802, 183.2833
927.9623, 190.1319
928.4445, 196.7194
928.9266, 203.0267
929.4087, 209.5244
929.8908, 216.1709
930.3729, 223.6184
930.8550, 232.8481
931.3372, 243.5472
931.8193, 254.9375
932.3014, 266.6469
932.7835, 279.4403
933.2656, 293.5756
933.7477, 308.9420
934.2299, 325.6242
934.7120, 343.4864
935.1941, 363.5960
935.6762, 386.0389
936.1583, 409.7910
936.6404, 433.1560
937.1226, 457.3847
937.6047, 483.8954
938.0868, 512.8253
938.5689, 542.9262
939.0510, 573.4825
939.5331, 605.4161
940.0153, 639.2664
940.4974, 674.8990
940.9795, 712.2384
941.4616, 751.5779
941.9437, 792.4891
942.4258, 833.9485
942.9080, 877.2342
943.3901, 923.3008
943.8722, 971.7477
944.3543, 1021.720
944.8364, 1073.535
945.3185, 1126.253
945.8007, 1181.214
946.2828, 1235.098
946.7649, 1285.326
947.2470, 1331.817
947.7291, 1371.532
948.2112, 1404.457
948.6934, 1427.774
949.1755, 1441.527
949.6576, 1442.823
950.1397, 1428.445
950.6218, 1397.338
951.1039, 1353.406
951.5861, 1294.355
952.0682, 1227.744
952.5503, 1155.858
953.0324, 1079.349
953.5145, 1000.753
953.9966, 920.8087
954.4788, 844.8398
954.9609, 774.4843
955.4430, 709.7684
955.9251, 651.5412
956.4072, 598.9538
956.8893, 549.7206
957.3715, 502.9782
957.8536, 460.9766
958.3357, 424.7114
958.8178, 392.9681
959.2999, 364.5464
959.7820, 339.1739
960.2642, 316.4473
960.7463, 296.2192
961.2284, 277.7233
961.7105, 260.1737
962.1926, 244.0149
962.6747, 229.5674
963.1569, 216.9595
963.6390, 205.2641
964.1211, 194.2742
964.6032, 184.5193
965.0853, 177.1419
965.5674, 171.1955
966.0496, 163.7063
966.5317, 155.1767
967.0138, 147.6706
967.4959, 143.0668
967.9780, 139.0054
968.4601, 134.5525
968.9423, 129.8681
969.4244, 125.4992
969.9065, 121.4230
970.3886, 117.5887
970.8707, 113.9123
971.3528, 110.5895
971.8350, 108.0260
972.3171, 105.9123
972.7992, 103.5517
973.2813, 100.6617
973.7634, 98.13757
974.2455, 96.58200
974.7277, 95.25646
975.2098, 93.64444
975.6919, 91.73412
976.1740, 90.60045
976.6561, 90.27705
977.1382, 89.99355
977.6204, 89.11880
978.1025, 88.12606
978.5846, 87.69189
979.0667, 87.62303
979.5488, 87.32803
980.0309, 86.26863
980.5131, 85.46296
980.9952, 85.14259
981.4773, 85.07143
981.9594, 84.86362
982.4415, 84.54055
982.9236, 84.25925
983.4058, 84.04167
983.8879, 83.93186
984.3700, 84.04279
984.8521, 84.23115
985.3342, 84.40872
985.8163, 84.60597
986.2985, 84.48739
986.7806, 83.94035
987.2627, 83.33462
987.7448, 82.87636
988.2269, 82.49714
988.7090, 81.91615
989.1912, 81.20422
989.6733, 80.65405
990.1554, 80.78904
990.6375, 80.70776
991.1196, 79.74874
991.6017, 78.38191
992.0839, 77.42339
992.5660, 76.93810
993.0481, 76.66328
993.5302, 76.66914
994.0123, 76.46177
994.4944, 75.24522
994.9766, 73.54967
995.4587, 72.17050
995.9408, 71.23380
996.4229, 70.40710
996.9050, 69.52869
997.3871, 68.80914
997.8693, 68.41223
998.3514, 68.25466
998.8335, 67.88744
999.3156, 67.31489
999.7977, 66.53519
1000.280, 65.36269
1000.762, 64.25229
1001.244, 63.82322
1001.726, 63.69735
1002.208, 63.22448
1002.690, 61.96043
1003.173, 60.89540
1003.655, 60.05796
1004.137, 59.43549
1004.619, 59.10262
1005.101, 58.97905
1005.583, 58.83719
1006.065, 58.65493
1006.547, 58.37356
1007.029, 57.81707
1007.512, 57.27665
1007.994, 57.02936
1008.476, 56.95895
1008.958, 56.46651
1009.440, 55.43469
1009.922, 54.71661
1010.404, 54.61030
1010.886, 54.84097
1011.369, 55.33440
1011.851, 55.80277
1012.333, 55.68463
1012.815, 54.40174
1013.297, 53.60234
1013.779, 53.80935
1014.261, 54.27576
1014.743, 54.51793
1015.225, 54.55050
1015.708, 54.61117
1016.190, 54.69733
1016.672, 54.76076
1017.154, 54.78554
1017.636, 54.76040
1018.118, 54.55824
1018.600, 54.29698
1019.082, 54.37477
1019.565, 54.97908
1020.047, 55.44290
1020.529, 55.63087
1021.011, 55.71638
1021.493, 55.98090
1021.975, 56.31603
1022.457, 56.41353
1022.939, 56.16707
1023.421, 56.18237
1023.904, 56.98130
1024.386, 57.86290
1024.868, 58.44778
1025.350, 58.78180
1025.832, 59.31011
1026.314, 60.03085
1026.796, 60.74659
1027.278, 61.35412
1027.760, 61.93622
1028.243, 62.52781
1028.725, 63.16743
1029.207, 63.91777
1029.689, 64.84103
1030.171, 65.80152
1030.653, 66.80370
1031.135, 67.84062
1031.617, 68.79308
1032.100, 69.78280
1032.582, 71.30746
1033.064, 73.35860
1033.546, 75.44213
1034.028, 77.24767
1034.510, 79.10181
1034.992, 81.10081
1035.474, 83.27994
1035.957, 85.64219
1036.439, 88.21216
1036.921, 90.98199
1037.403, 93.91062
1037.885, 97.25352
1038.367, 101.4862
1038.849, 106.1986
1039.331, 110.6618
1039.813, 114.5877
1040.296, 119.3669
1040.778, 125.2798
1041.260, 131.5573
1041.742, 137.7287
1042.224, 143.9150
1042.706, 150.2851
1043.188, 156.8020
1043.670, 163.6951
1044.152, 170.8041
1044.635, 178.5122
1045.117, 187.2964
1045.599, 196.5412
1046.081, 205.3871
1046.563, 213.8564
1047.045, 222.6462
1047.527, 231.8443
1048.009, 241.0153
1048.492, 249.5529
1048.974, 257.8849
1049.456, 266.9515
1049.938, 276.6144
1050.420, 284.3346
1050.902, 290.1610
1051.384, 293.9451
1051.866, 295.5174
1052.349, 295.2468
1052.831, 294.0216
1053.313, 291.5202
1053.795, 286.8341
1054.277, 279.7412
1054.759, 270.6307
1055.241, 258.6728
1055.723, 245.5485
1056.205, 232.2690
1056.688, 218.8413
1057.170, 205.3914
1057.652, 191.8708
1058.134, 179.1941
1058.616, 167.7573
1059.098, 157.2807
1059.580, 147.6257
1060.062, 138.7166
1060.544, 130.4385
1061.027, 122.6388
1061.509, 115.6530
1061.991, 109.5866
1062.473, 104.1299
1062.955, 99.01862
1063.437, 94.31095
1063.919, 90.19876
1064.401, 86.68120
1064.884, 83.37019
1065.366, 80.18115
1065.848, 77.13558
1066.330, 74.25908
1066.812, 71.53732
1067.294, 68.86983
1067.776, 66.31386
1068.258, 64.32481
1068.740, 63.09584
1069.223, 61.96400
1069.705, 60.33016
1070.187, 58.60225
1070.669, 57.08837
1071.151, 55.80106
1071.633, 54.77665
1072.115, 54.05505
1072.597, 53.35699
1073.079, 52.54235
1073.562, 51.70516
1074.044, 51.01146
1074.526, 50.38926
1075.008, 49.68227
1075.490, 48.71476
1075.972, 47.91040
1076.454, 47.31417
1076.936, 46.85854
1077.419, 46.53440
1077.901, 46.30677
1078.383, 46.03394
1078.865, 45.70422
1079.347, 45.27302
1079.829, 44.54620
1080.311, 43.89791
1080.793, 43.57864
1081.275, 43.40916
1081.758, 43.10245
1082.240, 42.64373
1082.722, 42.29937
1083.204, 42.11648
1083.686, 41.34925
1084.168, 41.83565
1084.650, 42.04787
1085.132, 42.00072
1085.615, 40.91687
1086.097, 41.17157
1086.579, 40.88999
1087.061, 40.58639
1087.543, 41.02948
1088.025, 40.09665
1088.507, 40.52790
1088.989, 40.41462
1089.471, 40.55057
1089.953, 40.14686
1090.436, 39.90954
1090.918, 40.21234
1091.400, 40.21621
1091.882, 39.75042
1092.364, 39.90218
1092.846, 38.95053
1093.328, 38.96714
1093.810, 39.40151
1094.293, 38.96256
1094.775, 39.12419
1095.257, 39.05721
1095.739, 37.95115
1096.221, 38.65213
1096.703, 38.57161
1097.185, 37.68868
1097.667, 38.32775
1098.150, 37.55516
1098.632, 37.28665
1099.114, 37.39722
1099.596, 37.11261
1100.078, 37.45107
1100.560, 37.18925
1101.042, 36.87383
1101.524, 36.79243
1102.006, 36.04783
1102.489, 36.53334
1102.971, 36.17869
1103.453, 36.24178
1103.935, 35.99924
1104.417, 35.75578
1104.899, 35.75049
1105.381, 36.33578
1105.863, 36.75471
1106.345, 36.79253
1106.828, 36.57364
1107.310, 36.27915
1107.792, 35.95100
1108.274, 35.73635
1108.756, 35.68689
1109.238, 35.65769
1109.720, 35.58376
1110.202, 35.50546
1110.685, 35.43671
1111.167, 35.38213
1111.649, 35.39746
1112.131, 35.47463
1112.613, 35.54856
1113.095, 35.67783
1113.577, 35.64288
1114.059, 35.05098
1114.542, 34.34269
1115.024, 34.06230
1115.506, 34.31990
1115.988, 34.48001
1116.470, 34.53748
1116.952, 34.54832
1117.434, 34.55190
1117.916, 34.52716
1118.398, 34.39909
1118.880, 34.23017
1119.363, 34.17368
1119.845, 34.24511
1120.327, 34.48076
1120.809, 34.96508
1121.291, 35.34971
1121.773, 35.16902
1122.255, 34.70278
1122.737, 34.44695
1123.220, 34.39516
1123.702, 34.30608
1124.184, 33.98161
1124.666, 33.77978
1125.148, 33.77007
1125.630, 33.90114
1126.112, 34.20285
1126.594, 34.57048
1127.077, 34.61531
1127.559, 34.26954
1128.041, 34.01126
1128.523, 34.21098
1129.005, 34.39633
1129.487, 34.34026
1129.969, 34.12785
1130.451, 33.97647
1130.933, 33.89772
1131.416, 34.03415
1131.898, 34.50822
1132.380, 34.85089
1132.862, 34.60501
1133.344, 34.21236
1133.826, 34.01156
1134.308, 34.00066
1134.790, 34.04897
1135.272, 34.15817
1135.755, 34.27522
1136.237, 34.41172
1136.719, 34.49149
1137.201, 34.39023
1137.683, 34.21619
1138.165, 34.08804
1138.647, 33.97243
1139.129, 34.15184
1139.612, 34.68738
1140.094, 35.10926
1140.576, 35.03679
1141.058, 34.75338
1141.540, 34.55889
1142.022, 34.43813
1142.504, 34.35872
1142.986, 34.32514
1143.469, 34.30550
1143.951, 34.28733
1144.433, 34.31841
1144.915, 34.50414
1145.397, 34.73638
1145.879, 34.83895
1146.361, 34.81161
1146.843, 34.68009
1147.325, 34.25391
1147.807, 34.02364
1148.290, 34.10413
1148.772, 34.29429
1149.254, 34.35822
1149.736, 34.33501
1150.218, 34.32100
1150.700, 34.32389
1151.182, 34.33792
1151.664, 34.38869
1152.147, 34.41688
1152.629, 34.42788
1153.111, 34.38556
1153.593, 34.15803
1154.075, 33.81279
1154.557, 33.62009
1155.039, 33.62472
1155.521, 33.71667
1156.004, 33.86311
1156.486, 34.06297
1156.968, 34.36606
1157.450, 34.69299
1157.932, 34.77819
1158.414, 34.65030
1158.896, 34.51526
1159.378, 34.43069
1159.860, 34.31145
1160.343, 33.94156
1160.825, 33.66943
1161.307, 33.80332
1161.789, 34.26580
1162.271, 34.46484
1162.753, 34.40745
1163.235, 34.23621
1163.717, 33.94006
1164.199, 33.69873
1164.682, 33.75567
1165.164, 33.87546
1165.646, 33.78913
1166.128, 33.47346
1166.610, 33.39562
1167.092, 33.56638
1167.574, 33.68361
1168.056, 33.54443
1168.539, 33.36954
1169.021, 33.44113
1169.503, 33.56226
1169.985, 33.39860
1170.467, 32.79141
1170.949, 32.63227
1171.431, 32.96413
1171.913, 33.37088
1172.396, 33.63021
1172.878, 33.78838
1173.360, 33.88894
1173.842, 33.92689
1174.324, 33.88612
1174.806, 33.75073
1175.288, 33.57495
1175.770, 33.34182
1176.252, 33.16555
1176.734, 33.12373
1177.217, 33.19794
1177.699, 33.47451
1178.181, 33.84681
1178.663, 33.98901
1179.145, 33.75424
1179.627, 33.54193
1180.109, 33.36731
1180.591, 33.27072
1181.074, 33.36404
1181.556, 33.51570
1182.038, 33.54261
1182.520, 33.45647
1183.002, 33.35402
1183.484, 33.23294
1183.966, 33.13609
1184.448, 33.06591
1184.931, 33.03136
1185.413, 33.06262
1185.895, 33.12589
1186.377, 33.19281
1186.859, 33.25004
1187.341, 33.20180
1187.823, 32.89579
1188.305, 32.77193
1188.787, 32.96074
1189.270, 33.24195
1189.752, 33.32842
1190.234, 33.28804
1190.716, 33.23244
1191.198, 33.17353
1191.680, 33.08015
1192.162, 32.85765
1192.644, 32.77937
1193.126, 32.95288
1193.609, 33.21739
1194.091, 33.41625
1194.573, 33.47890
1195.055, 33.19023
1195.537, 32.49721
1196.019, 31.96389
1196.501, 31.69406
1196.983, 31.63355
1197.466, 31.81623
1197.948, 32.11917
1198.430, 32.36638
1198.912, 32.55190
1199.394, 32.65495
1199.876, 32.66201
1200.358, 32.64697
1200.840, 32.58996
1201.323, 32.58788
1201.805, 32.72748
1202.287, 32.87110
1202.769, 32.62153
1203.251, 32.18200
1203.733, 32.05220
1204.215, 32.47652
1204.697, 32.54491
1205.179, 31.89029
1205.661, 31.27655
1206.144, 31.00305
1206.626, 31.02833
1207.108, 31.48783
1207.590, 32.13060
1208.072, 32.36319
1208.554, 31.84968
1209.036, 31.52452
1209.518, 31.62756
1210.001, 31.72155
1210.483, 31.53791
1210.965, 31.24307
1211.447, 31.27368
1211.929, 31.50604
1212.411, 31.68050
1212.893, 31.75051
1213.375, 31.65610
1213.858, 31.29082
1214.340, 30.99635
1214.822, 30.98818
1215.304, 31.16445
1215.786, 31.36321
1216.268, 31.53628
1216.750, 31.55700
1217.232, 31.27424
1217.714, 31.09302
1218.197, 31.08713
1218.679, 31.08391
1219.161, 30.91570
1219.643, 30.71537
1220.125, 30.85629
1220.607, 31.17991
1221.089, 31.31215
1221.571, 30.92968
1222.053, 30.77350
1222.536, 30.97088
1223.018, 31.15262
1223.500, 30.99391
1223.982, 30.70257
1224.464, 30.73298
1224.946, 30.95276
1225.428, 31.05978
1225.910, 30.79647
1226.393, 30.72812
1226.875, 30.92434
1227.357, 31.12500
1227.839, 31.12911
1228.321, 31.02209
1228.803, 30.90594
1229.285, 30.79844
1229.767, 30.74143
1230.250, 30.76174
1230.732, 30.80069
1231.214, 30.85670
1231.696, 30.93526
1232.178, 31.13051
1232.660, 31.28428
1233.142, 31.09174
1233.624, 30.69742
1234.106, 30.44906
1234.589, 30.45996
1235.071, 30.43623
1235.553, 30.35647
1236.035, 30.32214
1236.517, 30.45923
1236.999, 30.64517
1237.481, 30.72494
1237.963, 30.74557
1238.445, 30.82774
1238.928, 31.02011
1239.410, 31.15735
1239.892, 31.24729
1240.374, 31.16924
1240.856, 30.59756
1241.338, 30.03445
1241.820, 30.03210
1242.302, 30.35095
1242.785, 30.46135
1243.267, 30.28648
1243.749, 30.24104
1244.231, 30.34704
1244.713, 30.43285
1245.195, 30.34598
1245.677, 30.22048
1246.159, 30.10932
1246.641, 30.05272
1247.124, 30.14103
1247.606, 30.40156
1248.088, 30.43067
1248.570, 30.21591
1249.052, 30.07757
1249.534, 30.36552
1250.016, 30.64647
1250.498, 30.57110
1250.980, 30.38517
1251.463, 30.45347
1251.945, 30.76968
1252.427, 30.87582
1252.909, 30.76759
1253.391, 30.60546
1253.873, 30.43735
1254.355, 30.29786
1254.837, 30.19971
1255.320, 30.14028
1255.802, 30.16362
1256.284, 30.23752
1256.766, 30.10029
1257.248, 29.77873
1257.730, 29.53251
1258.212, 29.44545
1258.694, 29.54835
1259.177, 29.98296
1259.659, 30.39427
1260.141, 30.37568
1260.623, 30.03077
1261.105, 29.59068
1261.587, 29.12831
1262.069, 28.92146
1262.551, 29.38532
1263.033, 29.67346
1263.516, 29.65303
1263.998, 29.49765
1264.480, 29.30090
1264.962, 29.12699
1265.444, 29.12756
1265.926, 29.27413
1266.408, 29.45274
1266.890, 29.75969
1267.372, 29.83488
1267.855, 29.59797
1268.337, 29.33786
1268.819, 29.28678
1269.301, 29.37597
1269.783, 29.61176
1270.265, 29.89944
1270.747, 29.96660
1271.229, 29.70224
1271.712, 29.51054
1272.194, 29.40418
1272.676, 29.40406
1273.158, 29.62619
1273.640, 29.86818
1274.122, 29.92523
1274.604, 29.86874
1275.086, 29.84583
1275.568, 29.86667
1276.051, 29.87091
1276.533, 29.85669
1277.015, 29.85831
1277.497, 30.06638
1277.979, 30.11151
1278.461, 29.48927
1278.943, 28.75655
1279.425, 28.66261
1279.907, 29.19146
1280.390, 29.41225
1280.872, 29.33694
1281.354, 29.18790
1281.836, 28.93537
1282.318, 28.83451
1282.800, 29.09456
1283.282, 29.41128
1283.764, 29.52664
1284.247, 29.47535
1284.729, 29.42345
1285.211, 29.35804
1285.693, 29.22828
1286.175, 28.87545
1286.657, 28.66992
1287.139, 28.66773
1287.621, 28.76949
1288.104, 28.96782
1288.586, 29.17796
1289.068, 29.15311
1289.550, 29.00939
1290.032, 29.02277
1290.514, 29.48734
1290.996, 29.65449
1291.478, 29.47234
1291.960, 29.20449
1292.443, 28.94819
1292.925, 28.76936
1293.407, 28.79818
1293.889, 28.94036
1294.371, 29.03529
1294.853, 29.04922
1295.335, 29.20176
1295.817, 29.50202
1296.299, 29.60811
1296.782, 29.17627
1297.264, 28.75744
1297.746, 28.87294
1298.228, 29.12631
1298.710, 29.08274
1299.192, 28.77153
1299.674, 28.71279
1300.156, 28.86871
1300.639, 28.98637
1301.121, 28.93727
1301.603, 28.90067
1302.085, 29.08632
1302.567, 29.17605
1303.049, 29.02155
1303.531, 28.61846
##END=



