##NAMES=Vivianite
##RRUFFID=R050596
##IDEAL CHEMISTRY=Fe^2+^_3_(PO_4_)_2_&#183;8H_2_O
##LOCALITY=Chernomorskiy Quarry, near Kertch City, Crimea Peninsula, Ukraine
##OWNER=RRUFF
##SOURCE=Barb Dutrow
##DESCRIPTION=Group of dark blue elongated prismatic single crystals in a fossilized clam shell
##STATUS=The identification of this mineral has been confirmed by X-ray diffraction and chemical analysis
##URL=rruff.info/R050596
##MEASURED CHEMISTRY=(Fe^2+^_2.89_Mg_0.08_Mn_0.03_)_Σ=3_(P_1.00_O_4_)_2_·8H_2_O
91.11523, 7.170207
91.59735, 6.982728
92.07947, 7.170667
92.56158, 7.609312
93.04370, 7.905374
93.52582, 7.723948
94.00793, 7.250917
94.49006, 6.880018
94.97218, 6.652128
95.45429, 6.532846
95.93641, 6.488356
96.41853, 6.517410
96.90064, 6.568927
97.38276, 6.596488
97.86488, 6.605566
98.34699, 6.665313
98.82911, 6.797826
99.31123, 6.981675
99.79334, 7.169827
100.2755, 7.381397
100.7576, 7.525105
101.2397, 7.491964
101.7218, 7.243058
102.2039, 6.996881
102.6861, 6.781230
103.1682, 6.595047
103.6503, 6.515047
104.1324, 6.584902
104.6145, 6.711747
105.0966, 6.776818
105.5788, 6.716105
106.0609, 6.703303
106.5430, 6.780611
107.0251, 6.956637
107.5072, 7.199117
107.9893, 7.571267
108.4715, 7.995931
108.9536, 8.334750
109.4357, 8.467266
109.9178, 8.624146
110.3999, 8.908810
110.8820, 9.588222
111.3642, 9.952925
111.8463, 9.404630
112.3284, 8.452213
112.8105, 8.490075
113.2926, 10.75391
113.7747, 13.34063
114.2569, 15.26990
114.7390, 15.87807
115.2211, 16.42576
115.7032, 17.08984
116.1853, 17.88336
116.6674, 18.86813
117.1496, 19.89767
117.6317, 21.22011
118.1138, 23.02524
118.5959, 25.61473
119.0780, 28.50477
119.5602, 31.59143
120.0423, 34.88222
120.5244, 38.05336
121.0065, 40.77092
121.4886, 43.29849
121.9707, 45.99556
122.4529, 48.91157
122.9350, 52.08526
123.4171, 55.62945
123.8992, 59.57348
124.3813, 63.56668
124.8634, 67.26595
125.3456, 70.79170
125.8277, 74.43318
126.3098, 78.03333
126.7919, 81.89084
127.2740, 86.39936
127.7561, 91.58495
128.2383, 97.44491
128.7204, 104.4361
129.2025, 112.3268
129.6846, 119.8996
130.1667, 126.9035
130.6488, 133.0084
131.1310, 137.7433
131.6131, 141.2029
132.0952, 142.9814
132.5773, 141.7413
133.0594, 137.4267
133.5416, 132.4751
134.0237, 128.2796
134.5058, 124.8186
134.9879, 121.9834
135.4700, 119.7048
135.9521, 118.0467
136.4343, 117.2294
136.9164, 117.3394
137.3985, 117.9400
137.8806, 118.6422
138.3627, 119.4077
138.8448, 120.6340
139.3270, 122.5188
139.8091, 124.9944
140.2912, 127.3053
140.7733, 129.4029
141.2554, 131.4591
141.7375, 133.5860
142.2197, 135.7445
142.7018, 138.1239
143.1839, 140.6707
143.6660, 143.3315
144.1481, 146.7475
144.6303, 150.8783
145.1124, 155.7786
145.5945, 161.5587
146.0766, 169.1503
146.5587, 176.3005
147.0408, 182.3768
147.5230, 187.1027
148.0051, 191.7009
148.4872, 195.3673
148.9693, 197.7000
149.4514, 199.7070
149.9335, 201.6722
150.4157, 203.0833
150.8978, 203.7298
151.3799, 203.2546
151.8620, 202.8609
152.3441, 202.7727
152.8262, 202.7529
153.3084, 202.3474
153.7905, 201.1200
154.2726, 199.8645
154.7547, 198.8194
155.2368, 197.9087
155.7189, 197.3806
156.2011, 197.1590
156.6832, 197.3096
157.1653, 198.0251
157.6474, 199.4322
158.1295, 201.3216
158.6117, 203.5746
159.0938, 206.0325
159.5759, 209.0198
160.0580, 212.6855
160.5401, 216.9491
161.0222, 221.5553
161.5044, 226.7243
161.9865, 232.0229
162.4686, 237.1789
162.9507, 242.5294
163.4328, 247.2847
163.9149, 251.4652
164.3971, 254.9931
164.8792, 257.2123
165.3613, 257.6748
165.8434, 256.7911
166.3255, 254.9234
166.8076, 252.0319
167.2898, 248.3708
167.7719, 243.7772
168.2540, 238.3466
168.7361, 232.8950
169.2182, 227.3097
169.7004, 222.1356
170.1825, 218.0252
170.6646, 215.5045
171.1467, 213.9291
171.6288, 212.8522
172.1109, 212.2731
172.5931, 212.0855
173.0752, 212.0272
173.5573, 212.3257
174.0394, 213.3596
174.5215, 215.3954
175.0036, 218.1705
175.4858, 221.2957
175.9679, 224.7811
176.4500, 228.9174
176.9321, 234.0329
177.4142, 240.0430
177.8963, 246.6519
178.3785, 254.0164
178.8606, 261.9263
179.3427, 269.6571
179.8248, 277.2007
180.3069, 285.3219
180.7891, 294.5651
181.2712, 304.9298
181.7533, 316.3726
182.2354, 328.9958
182.7175, 342.6367
183.1996, 356.7108
183.6818, 371.4293
184.1639, 386.2596
184.6460, 401.1705
185.1281, 416.0088
185.6102, 430.7650
186.0923, 445.2809
186.5745, 459.6680
187.0566, 473.7780
187.5387, 487.8102
188.0208, 501.4610
188.5029, 515.0585
188.9850, 528.4904
189.4672, 540.9907
189.9493, 551.9053
190.4314, 561.4616
190.9135, 571.3090
191.3956, 581.4733
191.8778, 591.9632
192.3599, 603.2487
192.8420, 615.2875
193.3241, 627.5423
193.8062, 639.6033
194.2883, 651.6156
194.7705, 664.3036
195.2526, 678.0977
195.7347, 691.8132
196.2168, 703.4784
196.6989, 713.0670
197.1810, 720.8180
197.6632, 727.5878
198.1453, 733.4192
198.6274, 734.5430
199.1095, 730.5301
199.5916, 722.0438
200.0737, 710.5264
200.5559, 695.9932
201.0380, 678.2566
201.5201, 656.6276
202.0022, 630.6765
202.4843, 604.2975
202.9665, 577.4515
203.4486, 550.5730
203.9307, 524.3847
204.4128, 499.0077
204.8949, 474.8160
205.3770, 451.8490
205.8592, 429.9503
206.3413, 410.3229
206.8234, 393.0930
207.3055, 378.0898
207.7876, 364.9282
208.2697, 353.7584
208.7519, 344.2261
209.2340, 336.1268
209.7161, 329.4933
210.1982, 324.1236
210.6803, 320.1158
211.1624, 317.2972
211.6446, 315.2141
212.1267, 313.8838
212.6088, 313.2944
213.0909, 313.4198
213.5730, 314.2352
214.0551, 315.9023
214.5373, 318.5516
215.0194, 322.0076
215.5015, 325.7549
215.9836, 329.5580
216.4657, 334.1924
216.9479, 340.2859
217.4300, 348.3022
217.9121, 356.2960
218.3942, 363.9931
218.8763, 371.6173
219.3584, 379.7139
219.8406, 388.1224
220.3227, 397.1819
220.8048, 407.0849
221.2869, 418.1087
221.7690, 429.3492
222.2511, 440.6255
222.7333, 452.1097
223.2154, 463.9710
223.6975, 476.5107
224.1796, 489.1495
224.6617, 501.8046
225.1438, 514.9319
225.6260, 526.8605
226.1081, 537.5384
226.5902, 546.9875
227.0723, 554.8697
227.5544, 560.9926
228.0366, 566.0146
228.5187, 570.3248
229.0008, 574.2786
229.4829, 576.5602
229.9650, 576.6339
230.4471, 575.1673
230.9293, 573.9158
231.4114, 572.9187
231.8935, 572.0120
232.3756, 571.0156
232.8577, 569.3928
233.3398, 568.8803
233.8220, 569.6075
234.3041, 571.3906
234.7862, 573.8389
235.2683, 577.2718
235.7504, 580.8721
236.2325, 584.4975
236.7147, 588.5355
237.1968, 591.5468
237.6789, 593.7689
238.1610, 594.9098
238.6431, 594.4123
239.1253, 592.6926
239.6074, 588.7214
240.0895, 582.0359
240.5716, 572.4786
241.0537, 560.8619
241.5358, 546.9340
242.0180, 531.0595
242.5001, 513.8322
242.9822, 494.7460
243.4643, 475.0734
243.9464, 455.0395
244.4285, 434.1079
244.9107, 414.3168
245.3928, 395.5497
245.8749, 377.8327
246.3570, 361.1747
246.8391, 345.3800
247.3212, 330.9888
247.8034, 318.3449
248.2855, 307.7514
248.7676, 297.4858
249.2497, 287.3255
249.7318, 277.5871
250.2140, 268.7015
250.6961, 260.5235
251.1782, 253.4678
251.6603, 247.7481
252.1424, 243.5402
252.6245, 239.5564
253.1067, 235.7502
253.5888, 232.1820
254.0709, 228.8569
254.5530, 225.7239
255.0351, 222.9258
255.5172, 220.5414
255.9994, 218.5716
256.4815, 216.8370
256.9636, 215.3214
257.4457, 214.0763
257.9278, 213.1995
258.4099, 212.8607
258.8921, 212.4878
259.3742, 211.8777
259.8563, 211.0269
260.3384, 210.5027
260.8205, 210.3686
261.3026, 210.4843
261.7848, 210.6905
262.2669, 210.9058
262.7490, 211.4423
263.2311, 212.4143
263.7132, 213.7998
264.1953, 215.2132
264.6775, 216.6604
265.1596, 218.1092
265.6417, 219.5554
266.1238, 221.0340
266.6059, 222.3551
267.0880, 223.3895
267.5702, 224.2175
268.0523, 225.3853
268.5344, 227.0926
269.0165, 228.7596
269.4987, 229.8568
269.9808, 230.1926
270.4629, 230.8968
270.9450, 232.2624
271.4271, 234.0720
271.9092, 235.3960
272.3914, 236.1586
272.8735, 236.6495
273.3556, 237.1730
273.8377, 237.8378
274.3198, 237.7365
274.8019, 236.6466
275.2841, 234.8330
275.7662, 233.0267
276.2483, 231.2893
276.7304, 229.3214
277.2125, 227.0617
277.6946, 224.5217
278.1768, 221.3680
278.6589, 217.4642
279.1410, 213.0966
279.6231, 208.9057
280.1052, 204.9140
280.5873, 200.6756
281.0695, 195.9137
281.5516, 190.6176
282.0337, 185.3627
282.5158, 180.1241
282.9979, 175.0124
283.4800, 170.2138
283.9622, 165.7325
284.4443, 161.4355
284.9264, 157.1289
285.4085, 152.9071
285.8906, 149.3802
286.3727, 146.6465
286.8549, 144.2482
287.3370, 141.5271
287.8191, 138.5109
288.3012, 135.7789
288.7833, 133.6032
289.2654, 131.8992
289.7476, 130.3258
290.2297, 128.8780
290.7118, 127.6063
291.1939, 126.5518
291.6761, 125.7234
292.1582, 125.1193
292.6403, 124.7865
293.1224, 124.6566
293.6045, 124.5718
294.0866, 124.5331
294.5688, 124.5570
295.0509, 124.5026
295.5330, 124.4925
296.0151, 124.9814
296.4972, 126.2147
296.9793, 127.8440
297.4615, 129.2197
297.9436, 130.3899
298.4257, 131.6654
298.9078, 133.2818
299.3899, 135.1635
299.8720, 137.1073
300.3542, 139.0953
300.8363, 141.1453
301.3184, 143.2942
301.8005, 145.5475
302.2826, 147.8333
302.7647, 150.3551
303.2469, 152.8223
303.7290, 154.8005
304.2111, 156.1464
304.6932, 157.2976
305.1753, 158.8651
305.6574, 160.5672
306.1396, 161.6764
306.6217, 161.8016
307.1038, 161.1782
307.5859, 159.9286
308.0680, 158.0124
308.5501, 155.9077
309.0323, 154.0913
309.5144, 152.3049
309.9965, 150.1475
310.4786, 147.1721
310.9607, 143.9402
311.4428, 140.8235
311.9250, 137.8423
312.4071, 134.8742
312.8892, 131.7964
313.3713, 128.7855
313.8534, 126.0034
314.3355, 123.5190
314.8177, 121.2976
315.2998, 119.4660
315.7819, 117.9552
316.2640, 116.3409
316.7462, 114.2052
317.2283, 112.0403
317.7104, 110.2045
318.1925, 108.9077
318.6746, 107.7554
319.1567, 106.6483
319.6389, 105.5819
320.1210, 104.5746
320.6031, 103.7273
321.0852, 102.8694
321.5673, 101.8635
322.0494, 100.5280
322.5316, 99.43217
323.0137, 98.85130
323.4958, 98.55781
323.9779, 98.18169
324.4600, 97.51388
324.9421, 96.88724
325.4243, 96.42007
325.9064, 96.13873
326.3885, 95.91403
326.8706, 95.76633
327.3527, 95.65978
327.8348, 95.55413
328.3170, 95.34525
328.7991, 95.24751
329.2812, 95.30530
329.7633, 95.52003
330.2454, 95.79469
330.7275, 96.13535
331.2097, 96.52386
331.6918, 96.96118
332.1739, 97.59120
332.6560, 98.01891
333.1381, 98.07476
333.6202, 97.87183
334.1024, 97.97886
334.5845, 98.57487
335.0666, 99.20947
335.5487, 99.63511
336.0308, 99.75492
336.5129, 99.92704
336.9951, 100.1305
337.4772, 100.4138
337.9593, 100.9541
338.4414, 101.8999
338.9236, 102.6831
339.4057, 102.9931
339.8878, 102.7744
340.3699, 102.8893
340.8520, 103.4533
341.3341, 104.1367
341.8163, 104.4899
342.2984, 104.4748
342.7805, 104.5201
343.2626, 104.8766
343.7447, 105.4080
344.2268, 105.3076
344.7090, 104.4999
345.1911, 103.4852
345.6732, 102.7874
346.1553, 102.3411
346.6374, 101.7105
347.1195, 100.8114
347.6017, 99.66164
348.0838, 98.03139
348.5659, 95.95921
349.0480, 94.31557
349.5301, 94.33556
350.0122, 95.23807
350.4944, 94.91116
350.9765, 92.92249
351.4586, 90.27944
351.9407, 88.06238
352.4228, 86.20789
352.9049, 84.50485
353.3871, 82.81111
353.8692, 81.22105
354.3513, 79.82817
354.8334, 78.63293
355.3155, 77.70879
355.7976, 77.32293
356.2798, 77.20362
356.7619, 76.90972
357.2440, 76.10698
357.7261, 75.19899
358.2082, 74.44835
358.6903, 73.84534
359.1725, 73.32773
359.6546, 72.93620
360.1367, 72.57546
360.6188, 72.13624
361.1009, 71.39698
361.5831, 70.89262
362.0652, 71.11643
362.5473, 71.76710
363.0294, 72.10144
363.5115, 71.57190
363.9937, 70.89275
364.4758, 70.43026
364.9579, 70.28445
365.4400, 70.15141
365.9221, 69.92711
366.4042, 69.69438
366.8864, 69.55809
367.3685, 69.64236
367.8506, 69.71491
368.3327, 69.73640
368.8148, 69.70665
369.2969, 69.60347
369.7791, 69.31557
370.2612, 69.03303
370.7433, 68.88187
371.2254, 68.84676
371.7075, 68.97906
372.1896, 69.40615
372.6718, 70.01662
373.1539, 70.31267
373.6360, 70.10111
374.1181, 69.88681
374.6002, 69.90404
375.0823, 70.18853
375.5645, 70.60851
376.0466, 71.26115
376.5287, 71.93574
377.0108, 72.23061
377.4929, 72.05862
377.9750, 71.90030
378.4572, 71.89220
378.9393, 72.03313
379.4214, 72.38270
379.9035, 72.99588
380.3856, 73.57732
380.8677, 73.75657
381.3499, 73.56827
381.8320, 73.47839
382.3141, 73.62227
382.7962, 73.87866
383.2783, 73.93672
383.7604, 73.81361
384.2426, 73.80476
384.7247, 74.33207
385.2068, 75.09612
385.6889, 75.33977
386.1711, 74.88101
386.6532, 74.30432
387.1353, 74.33179
387.6174, 74.74853
388.0995, 74.99509
388.5816, 74.51597
389.0638, 73.91489
389.5459, 73.90256
390.0280, 74.47601
390.5101, 75.01336
390.9922, 75.02934
391.4743, 74.81478
391.9565, 74.69836
392.4386, 74.90903
392.9207, 75.07886
393.4028, 74.87908
393.8849, 74.46084
394.3670, 74.28045
394.8492, 74.79837
395.3313, 75.39359
395.8134, 75.67797
396.2955, 75.44100
396.7776, 75.34555
397.2597, 75.64314
397.7419, 76.12880
398.2240, 76.53800
398.7061, 76.88524
399.1882, 77.10143
399.6703, 77.09966
400.1524, 76.86613
400.6346, 76.77408
401.1167, 76.80627
401.5988, 76.99500
402.0809, 77.38546
402.5630, 78.14030
403.0451, 78.78635
403.5273, 79.30846
404.0094, 79.69209
404.4915, 79.83604
404.9736, 79.60342
405.4557, 79.46127
405.9378, 79.64271
406.4200, 80.17883
406.9021, 80.68295
407.3842, 81.15748
407.8663, 81.58382
408.3484, 81.91344
408.8306, 82.14636
409.3127, 82.38455
409.7948, 82.59407
410.2769, 82.86467
410.7590, 83.57852
411.2411, 84.74295
411.7233, 85.78102
412.2054, 86.07134
412.6875, 85.90099
413.1696, 86.11904
413.6517, 86.94666
414.1339, 87.86243
414.6160, 88.08064
415.0981, 87.86498
415.5802, 87.93442
416.0623, 88.94367
416.5444, 90.24660
417.0266, 91.19587
417.5087, 91.77867
417.9908, 92.18617
418.4729, 92.31873
418.9550, 92.42357
419.4371, 92.76869
419.9193, 93.61869
420.4014, 94.49783
420.8835, 95.11332
421.3656, 95.58339
421.8477, 96.27766
422.3298, 97.72145
422.8120, 99.06978
423.2941, 99.86723
423.7762, 99.80782
424.2583, 99.99140
424.7404, 100.6852
425.2225, 101.6195
425.7047, 102.5031
426.1868, 103.2874
426.6689, 104.0662
427.1510, 104.7744
427.6331, 105.4439
428.1152, 106.5008
428.5974, 108.1820
429.0795, 109.9177
429.5616, 111.3097
430.0437, 112.1709
430.5258, 113.5048
431.0079, 115.4841
431.4901, 117.7759
431.9722, 119.7214
432.4543, 121.2582
432.9364, 123.0096
433.4185, 125.2428
433.9007, 127.8665
434.3828, 130.4006
434.8649, 132.8286
435.3470, 135.3670
435.8291, 138.1888
436.3112, 141.2930
436.7934, 144.6398
437.2755, 148.2927
437.7576, 152.0732
438.2397, 155.5231
438.7218, 158.8199
439.2039, 162.5522
439.6861, 167.2841
440.1682, 172.5201
440.6503, 177.6481
441.1324, 182.6696
441.6145, 187.7403
442.0966, 192.8271
442.5788, 198.0572
443.0609, 203.5682
443.5430, 209.5459
444.0251, 215.6478
444.5072, 221.5730
444.9893, 227.4734
445.4715, 233.9592
445.9536, 241.9328
446.4357, 249.9328
446.9178, 257.2538
447.3999, 263.4951
447.8820, 270.1000
448.3642, 277.4862
448.8463, 285.0671
449.3284, 292.3317
449.8105, 299.0444
450.2926, 305.7763
450.7747, 312.7862
451.2569, 319.9562
451.7390, 326.2891
452.2211, 331.6820
452.7032, 336.6430
453.1853, 341.5820
453.6674, 346.5831
454.1496, 350.7492
454.6317, 354.1509
455.1138, 356.5020
455.5959, 357.1828
456.0781, 356.2760
456.5602, 354.6884
457.0423, 352.9206
457.5244, 350.5791
458.0065, 346.8063
458.4886, 341.6714
458.9708, 335.4902
459.4529, 328.5088
459.9350, 320.6382
460.4171, 311.7930
460.8992, 301.5632
461.3813, 291.3250
461.8635, 282.1832
462.3456, 273.6889
462.8277, 265.2882
463.3098, 256.7669
463.7919, 248.1366
464.2740, 239.1238
464.7562, 229.7961
465.2383, 221.1140
465.7204, 213.3556
466.2025, 206.3171
466.6846, 199.9755
467.1667, 194.6095
467.6489, 189.4990
468.1310, 184.5487
468.6131, 179.8184
469.0952, 175.2732
469.5773, 170.8125
470.0594, 166.7182
470.5416, 163.0600
471.0237, 159.8456
471.5058, 156.7503
471.9879, 153.6726
472.4700, 150.9346
472.9521, 148.9771
473.4343, 147.8456
473.9164, 146.3297
474.3985, 144.1593
474.8806, 141.8639
475.3627, 140.3650
475.8448, 139.6040
476.3270, 138.9754
476.8091, 138.2041
477.2912, 137.4051
477.7733, 136.8942
478.2554, 136.6480
478.7375, 136.3132
479.2197, 135.4724
479.7018, 134.4276
480.1839, 133.5774
480.6660, 132.9799
481.1482, 132.6495
481.6303, 132.8098
482.1124, 133.2148
482.5945, 133.4482
483.0766, 132.9677
483.5587, 132.6408
484.0409, 132.9875
484.5230, 133.9907
485.0051, 134.7729
485.4872, 134.8216
485.9693, 134.8551
486.4514, 135.2960
486.9336, 136.3150
487.4157, 137.4693
487.8978, 138.9599
488.3799, 140.4756
488.8620, 141.5040
489.3441, 141.7736
489.8263, 142.2393
490.3084, 143.1605
490.7905, 144.5014
491.2726, 145.9952
491.7547, 147.6808
492.2368, 149.3791
492.7190, 150.8958
493.2011, 152.2775
493.6832, 153.6894
494.1653, 155.1501
494.6474, 156.6750
495.1295, 158.2827
495.6117, 159.9838
496.0938, 161.8392
496.5759, 163.9900
497.0580, 166.2086
497.5401, 168.1140
498.0222, 169.8039
498.5044, 171.6822
498.9865, 174.1770
499.4686, 176.8581
499.9507, 179.3843
500.4328, 181.6648
500.9149, 183.9419
501.3971, 186.2411
501.8792, 188.6232
502.3613, 191.1578
502.8434, 193.9685
503.3256, 196.8408
503.8077, 199.7656
504.2898, 202.7300
504.7719, 205.6739
505.2540, 208.4927
505.7361, 211.4264
506.2183, 214.6363
506.7004, 218.1563
507.1825, 221.6251
507.6646, 225.0366
508.1467, 228.4105
508.6288, 231.6804
509.1110, 234.8494
509.5931, 238.3685
510.0752, 242.4502
510.5573, 246.7537
511.0394, 250.5495
511.5215, 253.9254
512.0037, 257.4216
512.4858, 261.3740
512.9679, 265.6133
513.4500, 269.9871
513.9321, 274.4840
514.4142, 278.8637
514.8964, 282.8544
515.3785, 286.6992
515.8606, 290.5893
516.3427, 294.5192
516.8248, 298.6420
517.3069, 303.0956
517.7891, 307.7704
518.2712, 312.4848
518.7533, 317.4168
519.2354, 322.1167
519.7175, 326.2426
520.1996, 329.8278
520.6818, 333.8292
521.1639, 338.5784
521.6460, 343.3545
522.1281, 347.6435
522.6102, 351.2856
523.0923, 355.2105
523.5745, 359.6143
524.0566, 364.0372
524.5387, 367.7390
525.0208, 370.7364
525.5029, 373.7334
525.9850, 376.8961
526.4672, 380.2161
526.9493, 383.9384
527.4314, 388.0195
527.9135, 391.7641
528.3956, 394.7904
528.8777, 397.2951
529.3599, 399.2850
529.8420, 400.7255
530.3241, 402.5196
530.8062, 405.7940
531.2883, 409.5845
531.7704, 412.7150
532.2526, 414.3667
532.7347, 416.0712
533.2168, 418.6159
533.6989, 421.5537
534.1810, 423.9034
534.6631, 425.2475
535.1453, 426.2390
535.6274, 426.9757
536.1095, 427.4640
536.5916, 427.8907
537.0737, 428.2402
537.5558, 428.5608
538.0380, 429.0558
538.5201, 429.8902
539.0023, 429.6455
539.4844, 428.0338
539.9665, 425.8173
540.4486, 424.2782
540.9307, 423.2938
541.4128, 421.7611
541.8950, 419.1749
542.3771, 415.9954
542.8592, 412.9012
543.3413, 409.8728
543.8234, 406.6202
544.3055, 403.2074
544.7877, 399.3390
545.2698, 394.5231
545.7519, 388.6264
546.2340, 382.9966
546.7161, 378.6198
547.1982, 374.6714
547.6804, 370.3198
548.1625, 365.2659
548.6446, 360.0322
549.1267, 354.6426
549.6088, 349.1353
550.0909, 343.5892
550.5731, 337.9827
551.0552, 332.3575
551.5373, 326.6789
552.0194, 320.9792
552.5015, 315.8795
552.9836, 311.5057
553.4658, 307.2859
553.9479, 302.6807
554.4300, 297.7758
554.9121, 293.5338
555.3942, 290.0868
555.8763, 287.0495
556.3585, 283.8903
556.8406, 280.8051
557.3227, 278.3275
557.8048, 276.7640
558.2869, 275.6314
558.7690, 274.6366
559.2512, 273.7203
559.7333, 272.7447
560.2154, 271.1704
560.6975, 269.9371
561.1796, 269.5464
561.6617, 270.0359
562.1439, 270.9340
562.6260, 272.3585
563.1081, 274.0204
563.5902, 275.7172
564.0723, 277.0688
564.5544, 279.3273
565.0366, 282.8219
565.5187, 286.9291
566.0008, 290.7913
566.4829, 294.4085
566.9650, 297.9885
567.4471, 301.6598
567.9293, 305.2396
568.4114, 308.2838
568.8935, 310.7917
569.3756, 312.5735
569.8577, 313.7729
570.3398, 314.0709
570.8220, 312.8563
571.3041, 310.1254
571.7862, 306.2398
572.2683, 301.3722
572.7504, 295.5040
573.2325, 288.4565
573.7147, 280.0268
574.1968, 270.9974
574.6789, 261.3115
575.1610, 251.3526
575.6431, 241.4845
576.1252, 231.3338
576.6074, 221.9562
577.0895, 213.6453
577.5716, 206.1836
578.0537, 198.5395
578.5358, 190.4239
579.0179, 182.7929
579.5001, 176.0558
579.9822, 170.1345
580.4643, 164.7675
580.9464, 159.9863
581.4285, 155.5493
581.9106, 151.0968
582.3928, 146.7646
582.8749, 143.0949
583.3570, 140.2070
583.8391, 137.6336
584.3212, 134.9186
584.8033, 132.1754
585.2855, 129.5739
585.7676, 127.0540
586.2498, 124.8239
586.7319, 123.1254
587.2140, 121.7955
587.6961, 120.3685
588.1782, 118.5456
588.6603, 116.7845
589.1425, 115.2433
589.6246, 113.9123
590.1067, 112.6826
590.5888, 111.5618
591.0709, 110.5452
591.5530, 109.6455
592.0352, 108.8820
592.5173, 108.0763
592.9994, 107.2042
593.4815, 106.3460
593.9636, 105.5677
594.4457, 104.8860
594.9279, 104.3600
595.4100, 104.0361
595.8921, 103.8214
596.3742, 103.6720
596.8563, 103.5461
597.3384, 103.3308
597.8206, 102.8710
598.3027, 102.3923
598.7848, 102.0145
599.2669, 101.7415
599.7490, 101.5828
600.2311, 101.5409
600.7133, 101.6124
601.1954, 101.8409
601.6775, 102.3318
602.1596, 102.5844
602.6417, 102.4500
603.1238, 102.2487
603.6060, 102.2829
604.0881, 102.5889
604.5702, 102.9342
605.0523, 103.3322
605.5344, 103.6793
606.0165, 103.7481
606.4987, 103.5768
606.9808, 103.3817
607.4629, 103.1438
607.9450, 103.0261
608.4271, 103.3887
608.9092, 104.1156
609.3914, 104.7347
609.8735, 104.8275
610.3556, 104.8449
610.8377, 105.1308
611.3198, 105.7183
611.8019, 106.2281
612.2841, 106.6455
612.7662, 106.8924
613.2483, 106.9005
613.7304, 106.5515
614.2125, 106.2196
614.6946, 105.7928
615.1768, 105.4966
615.6589, 105.6676
616.1410, 106.3847
616.6231, 107.0167
617.1052, 107.4622
617.5873, 107.7503
618.0695, 107.8894
618.5516, 107.8973
619.0337, 107.8654
619.5158, 107.8237
619.9979, 107.7750
620.4800, 107.7916
620.9622, 107.8335
621.4443, 107.6938
621.9264, 107.0358
622.4085, 106.3393
622.8906, 105.8906
623.3727, 105.7381
623.8549, 105.7081
624.3370, 106.0417
624.8191, 106.2841
625.3012, 106.1123
625.7833, 105.2703
626.2654, 104.6195
626.7476, 104.2328
627.2297, 103.9471
627.7118, 103.4946
628.1939, 102.8673
628.6760, 102.4325
629.1581, 102.3422
629.6403, 102.3733
630.1224, 102.1745
630.6045, 101.7716
631.0866, 101.2560
631.5687, 100.4711
632.0509, 99.74316
632.5330, 99.44685
633.0151, 99.51334
633.4973, 99.55594
633.9794, 99.60854
634.4615, 99.43510
634.9436, 98.78423
635.4257, 97.47690
635.9078, 96.59676
636.3900, 96.40723
636.8721, 96.40098
637.3542, 96.20744
637.8363, 95.73313
638.3184, 95.52054
638.8005, 95.66863
639.2827, 95.89602
639.7648, 95.78647
640.2469, 95.39531
640.7290, 95.12541
641.2111, 95.11446
641.6932, 95.17861
642.1754, 95.14943
642.6575, 95.01818
643.1396, 94.76676
643.6217, 94.22452
644.1038, 93.70590
644.5859, 93.37642
645.0681, 93.22114
645.5502, 93.15032
646.0323, 93.27497
646.5144, 93.35408
646.9965, 93.28630
647.4786, 93.06059
647.9608, 92.88622
648.4429, 92.79096
648.9250, 92.68747
649.4071, 92.44351
649.8892, 92.06967
650.3713, 92.04038
650.8535, 92.42183
651.3356, 92.86142
651.8177, 93.00935
652.2998, 92.93098
652.7819, 92.72954
653.2640, 92.35493
653.7462, 92.07165
654.2283, 92.23129
654.7104, 92.57425
655.1925, 92.71403
655.6746, 92.33507
656.1567, 91.96230
656.6389, 91.75101
657.1210, 91.64895
657.6031, 91.49207
658.0852, 91.14172
658.5673, 91.00300
659.0494, 91.30235
659.5316, 91.92274
660.0137, 92.05318
660.4958, 91.64001
660.9779, 91.31846
661.4600, 91.65023
661.9421, 92.33923
662.4243, 92.55556
662.9064, 92.28921
663.3885, 92.02742
663.8706, 92.17789
664.3527, 92.49524
664.8348, 92.73151
665.3170, 92.82207
665.7991, 92.93865
666.2812, 93.21005
666.7633, 93.49525
667.2454, 93.65328
667.7275, 93.56027
668.2097, 93.55934
668.6918, 93.72034
669.1739, 93.92093
669.6560, 93.96432
670.1381, 93.83937
670.6202, 93.64908
671.1024, 93.34171
671.5845, 93.10267
672.0666, 93.43017
672.5487, 94.17392
673.0308, 94.74699
673.5129, 94.67838
673.9951, 94.45072
674.4772, 94.44646
674.9593, 94.63762
675.4414, 94.89013
675.9235, 95.20789
676.4056, 95.52448
676.8878, 95.84921
677.3699, 96.19341
677.8520, 96.30051
678.3341, 95.94346
678.8162, 95.68774
679.2984, 95.93284
679.7805, 96.72750
680.2626, 97.25640
680.7448, 97.48609
681.2269, 97.60586
681.7090, 97.76235
682.1911, 97.95204
682.6732, 98.11423
683.1553, 98.19812
683.6375, 98.47896
684.1196, 99.52807
684.6017, 100.7698
685.0838, 101.4977
685.5659, 101.2424
686.0480, 100.8269
686.5302, 100.3495
687.0123, 99.85588
687.4944, 99.40987
687.9765, 98.96542
688.4586, 98.65894
688.9407, 98.49120
689.4229, 98.48878
689.9050, 98.81020
690.3871, 99.46603
690.8692, 99.99604
691.3513, 100.1459
691.8334, 100.0933
692.3156, 100.1495
692.7977, 100.2868
693.2798, 100.3773
693.7619, 100.2370
694.2440, 100.1124
694.7261, 100.2000
695.2083, 100.5022
695.6904, 100.8042
696.1725, 101.0918
696.6546, 101.3392
697.1367, 101.5736
697.6188, 101.8339
698.1010, 101.7811
698.5831, 101.3098
699.0652, 100.7686
699.5473, 100.3245
700.0294, 100.0105
700.5115, 100.2362
700.9937, 101.0958
701.4758, 101.9630
701.9579, 102.2818
702.4400, 102.1642
702.9221, 101.6854
703.4042, 100.6123
703.8864, 99.87141
704.3685, 100.3175
704.8506, 101.2050
705.3327, 101.6551
705.8148, 101.0487
706.2969, 100.6241
706.7791, 100.4989
707.2612, 100.5672
707.7433, 100.6630
708.2254, 100.7959
708.7075, 100.9112
709.1896, 101.0039
709.6718, 101.0645
710.1539, 101.0577
710.6360, 100.9970
711.1181, 100.9331
711.6002, 100.9193
712.0823, 100.8910
712.5645, 100.7188
713.0466, 100.4673
713.5287, 100.3779
714.0108, 100.8084
714.4929, 101.1506
714.9750, 101.0928
715.4572, 100.6726
715.9393, 100.3282
716.4214, 100.0204
716.9035, 99.86487
717.3856, 99.98458
717.8677, 100.3436
718.3499, 100.5153
718.8320, 100.4977
719.3141, 100.4352
719.7962, 100.4280
720.2783, 100.4529
720.7604, 100.5048
721.2426, 100.5867
721.7247, 100.5729
722.2068, 100.2651
722.6889, 99.92000
723.1710, 99.73093
723.6531, 99.76184
724.1353, 99.86546
724.6174, 100.0577
725.0995, 100.2927
725.5816, 100.5675
726.0638, 100.9075
726.5459, 101.0554
727.0280, 100.9505
727.5101, 100.7921
727.9922, 100.8082
728.4744, 100.9714
728.9565, 101.2226
729.4386, 101.5700
729.9207, 101.9243
730.4028, 102.2348
730.8849, 102.4999
731.3671, 102.7130
731.8492, 102.8430
732.3313, 102.9558
732.8134, 103.0556
733.2955, 103.1492
733.7776, 103.2536
734.2598, 103.3925
734.7419, 103.4640
735.2240, 103.4153
735.7061, 103.3251
736.1882, 103.3538
736.6703, 103.4998
737.1525, 103.7494
737.6346, 104.2119
738.1167, 104.6607
738.5988, 104.7956
739.0809, 104.7042
739.5630, 104.6356
740.0452, 104.7624
740.5273, 104.8636
741.0094, 104.7374
741.4915, 104.4610
741.9736, 104.5368
742.4557, 105.1587
742.9379, 105.7522
743.4200, 106.0761
743.9021, 106.1978
744.3842, 106.5638
744.8663, 107.1772
745.3484, 107.6740
745.8306, 107.6699
746.3127, 107.4944
746.7948, 107.7026
747.2769, 108.2590
747.7590, 108.7538
748.2411, 108.9299
748.7233, 109.0091
749.2054, 109.1518
749.6875, 109.3927
750.1696, 109.4494
750.6517, 109.1082
751.1339, 108.8709
751.6160, 109.0555
752.0981, 109.6826
752.5802, 110.2891
753.0623, 110.8961
753.5444, 111.2965
754.0266, 111.1077
754.5087, 110.6465
754.9908, 110.6057
755.4729, 111.0758
755.9550, 111.4551
756.4371, 111.2373
756.9193, 110.8485
757.4014, 110.6332
757.8835, 110.6991
758.3656, 110.7898
758.8477, 110.9082
759.3298, 111.0294
759.8120, 111.1659
760.2941, 111.3387
760.7762, 111.2769
761.2583, 110.9026
761.7404, 110.5767
762.2225, 110.8599
762.7047, 111.4794
763.1868, 111.7903
763.6689, 111.6348
764.1510, 111.3327
764.6331, 110.9422
765.1152, 110.5958
765.5974, 110.4421
766.0795, 110.6734
766.5616, 110.8389
767.0437, 110.9166
767.5258, 110.9114
768.0079, 110.8327
768.4901, 110.6822
768.9722, 110.3945
769.4543, 109.9111
769.9364, 109.4303
770.4185, 109.2369
770.9006, 109.2620
771.3828, 109.3551
771.8649, 109.5418
772.3470, 109.6302
772.8291, 109.4153
773.3113, 109.0515
773.7934, 108.7526
774.2755, 108.5770
774.7576, 108.4624
775.2397, 108.4219
775.7219, 108.4297
776.2040, 108.4891
776.6861, 108.6299
777.1682, 108.5443
777.6503, 108.1185
778.1324, 107.5565
778.6146, 107.1374
779.0967, 106.8402
779.5788, 106.6073
780.0609, 106.4379
780.5430, 106.2922
781.0251, 106.1889
781.5073, 106.0835
781.9894, 105.8978
782.4715, 105.5008
782.9536, 105.1723
783.4357, 104.9558
783.9178, 104.8214
784.4000, 104.7324
784.8821, 104.6978
785.3642, 104.5807
785.8463, 104.3254
786.3284, 103.9968
786.8105, 103.6307
787.2927, 103.2791
787.7748, 103.0812
788.2569, 103.1949
788.7390, 103.3742
789.2211, 103.5531
789.7032, 103.7047
790.1854, 103.7708
790.6675, 103.7749
791.1496, 103.6255
791.6317, 103.2007
792.1138, 102.6861
792.5959, 102.6278
793.0781, 103.0235
793.5602, 103.2906
794.0423, 103.1131
794.5244, 102.8801
795.0065, 103.2940
795.4886, 104.0882
795.9708, 104.6101
796.4529, 104.3692
796.9350, 104.0417
797.4171, 103.8266
797.8992, 103.7326
798.3813, 103.7697
798.8635, 103.9796
799.3456, 104.2321
799.8277, 104.5318
800.3098, 104.8233
800.7919, 104.9644
801.2740, 104.9640
801.7562, 104.8777
802.2383, 104.5577
802.7204, 104.3842
803.2025, 105.0787
803.6846, 106.2235
804.1667, 106.8740
804.6489, 105.9269
805.1310, 105.2877
805.6131, 105.8143
806.0952, 106.9855
806.5773, 107.7400
807.0594, 107.9935
807.5416, 108.0624
808.0237, 107.9235
808.5058, 107.7766
808.9879, 108.1484
809.4700, 108.9246
809.9521, 109.5972
810.4343, 109.8583
810.9164, 110.0749
811.3985, 110.6273
811.8806, 111.3324
812.3627, 111.8058
812.8448, 111.6475
813.3270, 111.6347
813.8091, 111.9798
814.2912, 112.4961
814.7733, 112.7132
815.2554, 112.5827
815.7375, 112.6981
816.2197, 113.3409
816.7018, 114.0890
817.1839, 114.0113
817.6660, 113.4903
818.1481, 113.4419
818.6302, 114.6476
819.1124, 115.8800
819.5945, 116.5761
820.0767, 116.9186
820.5588, 117.2452
821.0409, 117.4815
821.5230, 117.9216
822.0051, 118.7437
822.4872, 119.6259
822.9694, 119.8656
823.4515, 119.5401
823.9336, 119.4901
824.4157, 120.0325
824.8978, 120.7167
825.3799, 121.0810
825.8621, 121.2601
826.3442, 121.4705
826.8263, 121.8139
827.3084, 122.1512
827.7905, 122.5998
828.2726, 122.9501
828.7548, 122.8373
829.2369, 122.0478
829.7190, 121.7633
830.2011, 122.2494
830.6832, 123.0005
831.1653, 123.3616
831.6475, 123.4145
832.1296, 123.3857
832.6117, 123.3269
833.0938, 123.2131
833.5759, 122.9387
834.0580, 122.6431
834.5402, 122.4829
835.0223, 122.6031
835.5044, 122.6914
835.9865, 122.7779
836.4686, 122.7968
836.9507, 122.6283
837.4329, 122.2833
837.9150, 122.0623
838.3971, 122.0122
838.8792, 121.9862
839.3613, 121.7645
839.8434, 121.5010
840.3256, 121.4705
840.8077, 121.8357
841.2898, 121.9617
841.7719, 121.3236
842.2540, 120.5976
842.7361, 120.3116
843.2183, 120.6145
843.7004, 120.8023
844.1825, 120.9138
844.6646, 120.7604
845.1467, 119.9002
845.6288, 118.6771
846.1110, 118.1117
846.5931, 118.2936
847.0752, 118.3676
847.5573, 117.5618
848.0394, 116.5788
848.5215, 115.9414
849.0037, 115.7632
849.4858, 115.6000
849.9679, 115.4672
850.4500, 115.3048
850.9321, 115.1205
851.4142, 114.8958
851.8964, 114.3356
852.3785, 113.4493
852.8606, 112.6670
853.3427, 112.4370
853.8248, 112.3794
854.3069, 112.1217
854.7891, 111.6587
855.2712, 111.1254
855.7533, 110.2539
856.2354, 109.6879
856.7175, 109.8462
857.1996, 110.5588
857.6818, 110.4945
858.1639, 109.5341
858.6460, 108.6590
859.1281, 108.3653
859.6102, 108.4076
860.0923, 108.4160
860.5745, 108.3716
861.0566, 108.2117
861.5387, 107.7981
862.0208, 107.3757
862.5029, 107.0944
862.9850, 106.8909
863.4672, 106.5246
863.9493, 105.8525
864.4314, 105.3942
864.9135, 105.3019
865.3956, 105.4367
865.8777, 105.6003
866.3599, 105.7529
866.8420, 105.7062
867.3242, 105.3145
867.8063, 104.8477
868.2884, 104.3481
868.7705, 103.9488
869.2526, 103.8564
869.7347, 104.5117
870.2169, 104.9136
870.6990, 104.9707
871.1811, 104.8044
871.6632, 104.5242
872.1453, 104.1379
872.6274, 103.7612
873.1096, 103.4037
873.5917, 103.1105
874.0738, 103.0075
874.5559, 102.9658
875.0380, 102.7911
875.5201, 102.3578
876.0023, 102.0904
876.4844, 102.2622
876.9665, 102.4920
877.4486, 102.4879
877.9307, 102.1722
878.4128, 102.2934
878.8950, 102.9189
879.3771, 103.4536
879.8592, 103.1162
880.3413, 102.4866
880.8234, 102.6298
881.3055, 103.5803
881.7877, 104.3301
882.2698, 104.2576
882.7519, 104.0171
883.2340, 103.9125
883.7161, 103.9445
884.1982, 104.0809
884.6804, 104.3480
885.1625, 104.6111
885.6446, 104.8175
886.1267, 104.9661
886.6088, 104.9685
887.0909, 104.8911
887.5731, 105.0051
888.0552, 105.7034
888.5373, 106.3714
889.0194, 106.6170
889.5015, 106.5765
889.9836, 106.7177
890.4658, 107.0929
890.9479, 107.5539
891.4300, 108.0999
891.9121, 108.6748
892.3942, 109.2175
892.8763, 109.7144
893.3585, 110.0766
893.8406, 110.2333
894.3227, 110.3679
894.8048, 110.5945
895.2869, 110.8819
895.7690, 111.1911
896.2512, 111.3918
896.7333, 111.8422
897.2154, 112.6550
897.6975, 113.5254
898.1796, 114.0462
898.6617, 114.2948
899.1439, 114.8518
899.6260, 115.7979
900.1081, 116.6805
900.5902, 116.8893
901.0723, 117.0137
901.5544, 117.6750
902.0366, 119.0323
902.5187, 120.2253
903.0008, 121.1848
903.4829, 121.9250
903.9650, 122.3483
904.4471, 122.5243
904.9293, 123.1064
905.4114, 124.0900
905.8935, 125.2400
906.3756, 126.6294
906.8577, 127.9492
907.3398, 128.7606
907.8220, 129.1957
908.3041, 129.7710
908.7862, 130.5406
909.2683, 131.6133
909.7504, 133.1391
910.2325, 134.9008
910.7147, 136.3248
911.1968, 137.4278
911.6789, 138.5583
912.1610, 139.7708
912.6431, 141.1292
913.1252, 142.7962
913.6074, 144.6245
914.0895, 146.3875
914.5717, 147.9674
915.0538, 149.5518
915.5359, 150.9505
916.0180, 152.5831
916.5001, 155.0026
916.9822, 158.2657
917.4644, 161.2485
917.9465, 163.8982
918.4286, 166.1640
918.9107, 167.4485
919.3928, 168.5993
919.8749, 170.7104
920.3571, 173.9149
920.8392, 177.3908
921.3213, 181.1164
921.8034, 184.8424
922.2855, 188.3837
922.7676, 191.8114
923.2498, 195.7055
923.7319, 200.0554
924.2140, 204.6555
924.6961, 209.4411
925.1782, 214.3913
925.6603, 219.2400
926.1425, 224.1838
926.6246, 229.7246
927.1067, 236.1132
927.5888, 242.9669
928.0709, 250.1399
928.5530, 257.7942
929.0352, 266.2229
929.5173, 275.4838
929.9994, 284.6885
930.4815, 293.4183
930.9636, 302.8227
931.4457, 314.2248
931.9279, 327.0941
932.4100, 340.6564
932.8921, 354.4323
933.3742, 369.5607
933.8563, 386.1339
934.3384, 404.2983
934.8206, 423.6609
935.3027, 444.4152
935.7848, 467.1098
936.2669, 491.9095
936.7490, 519.1473
937.2311, 549.2147
937.7133, 581.9904
938.1954, 616.0775
938.6775, 652.0729
939.1596, 691.2709
939.6417, 734.6798
940.1238, 780.8065
940.6060, 828.9796
941.0881, 879.0599
941.5702, 931.6786
942.0523, 986.8503
942.5344, 1043.639
943.0165, 1102.424
943.4987, 1163.659
943.9808, 1228.330
944.4629, 1295.849
944.9450, 1365.166
945.4271, 1438.621
945.9092, 1511.194
946.3914, 1583.859
946.8735, 1654.579
947.3556, 1722.655
947.8377, 1787.563
948.3198, 1845.845
948.8019, 1897.149
949.2841, 1937.687
949.7662, 1966.168
950.2483, 1980.641
950.7304, 1979.422
951.2125, 1962.357
951.6946, 1928.303
952.1768, 1875.136
952.6589, 1809.991
953.1410, 1733.129
953.6231, 1647.172
954.1052, 1556.548
954.5873, 1462.002
955.0695, 1367.973
955.5516, 1274.252
956.0337, 1184.315
956.5158, 1101.671
956.9979, 1025.355
957.4800, 953.1610
957.9622, 883.7708
958.4443, 820.0551
958.9264, 762.1180
959.4085, 709.7650
959.8906, 662.9039
960.3727, 620.6754
960.8549, 580.5712
961.3370, 541.9603
961.8192, 507.2645
962.3013, 479.0272
962.7834, 453.8880
963.2655, 429.8222
963.7476, 406.5808
964.2297, 386.0470
964.7119, 368.9454
965.1940, 353.3398
965.6761, 338.5337
966.1582, 324.6804
966.6403, 311.7780
967.1224, 299.8925
967.6046, 288.8198
968.0867, 278.6178
968.5688, 269.2390
969.0509, 260.8090
969.5330, 253.0966
970.0151, 245.6695
970.4973, 238.6234
970.9794, 231.4910
971.4615, 224.0892
971.9436, 217.4385
972.4257, 213.2516
972.9078, 210.2632
973.3900, 206.3608
973.8721, 201.2590
974.3542, 196.7109
974.8363, 193.4771
975.3184, 190.7493
975.8005, 188.2768
976.2827, 186.0008
976.7648, 183.6971
977.2469, 181.3766
977.7290, 179.2284
978.2111, 177.2513
978.6932, 175.6358
979.1754, 174.7847
979.6575, 174.4120
980.1396, 173.9742
980.6217, 173.3345
981.1038, 172.5975
981.5859, 171.6750
982.0681, 170.7997
982.5502, 170.2737
983.0323, 170.0605
983.5144, 169.9030
983.9965, 169.7740
984.4786, 169.7798
984.9608, 170.0611
985.4429, 170.4594
985.9250, 170.9040
986.4071, 171.3821
986.8892, 171.7081
987.3713, 171.8846
987.8535, 171.8721
988.3356, 171.6032
988.8177, 171.1851
989.2998, 170.8093
989.7819, 170.4873
990.2640, 170.2586
990.7462, 170.2031
991.2283, 170.1504
991.7104, 170.2960
992.1925, 170.2418
992.6746, 169.4533
993.1567, 167.6996
993.6389, 166.4981
994.1210, 165.9932
994.6031, 165.5124
995.0852, 164.3050
995.5673, 162.8290
996.0494, 161.7422
996.5316, 161.0507
997.0137, 160.2813
997.4958, 159.2487
997.9779, 158.1370
998.4600, 157.0167
998.9421, 155.8675
999.4243, 154.5489
999.9064, 153.1134
1000.388, 152.0558
1000.871, 151.7430
1001.353, 151.3448
1001.835, 149.9098
1002.317, 148.0759
1002.799, 146.6155
1003.281, 145.8241
1003.763, 144.9346
1004.245, 143.8305
1004.728, 142.8915
1005.210, 142.5446
1005.692, 142.5729
1006.174, 142.2672
1006.656, 141.6641
1007.138, 141.1092
1007.620, 140.8243
1008.102, 140.5866
1008.585, 140.3289
1009.067, 140.0317
1009.549, 139.6613
1010.031, 139.2155
1010.513, 138.6062
1010.995, 137.7283
1011.477, 136.9962
1011.959, 137.1219
1012.441, 137.6273
1012.924, 137.8050
1013.406, 137.4058
1013.888, 137.2579
1014.370, 137.6590
1014.852, 138.1007
1015.334, 138.3766
1015.816, 138.4754
1016.298, 138.1627
1016.781, 137.5292
1017.263, 137.2268
1017.745, 137.9827
1018.227, 138.8046
1018.709, 139.0576
1019.191, 138.9273
1019.673, 138.7364
1020.155, 138.2973
1020.637, 138.4833
1021.120, 139.5171
1021.602, 140.6608
1022.084, 141.0290
1022.566, 140.9549
1023.048, 140.9409
1023.530, 141.0462
1024.012, 141.5277
1024.494, 142.7922
1024.976, 144.1224
1025.459, 145.1439
1025.941, 146.0199
1026.423, 147.5414
1026.905, 149.6658
1027.387, 151.4576
1027.869, 152.4003
1028.351, 153.2584
1028.833, 154.6562
1029.316, 156.4249
1029.798, 158.3795
1030.280, 160.5396
1030.762, 162.7590
1031.244, 164.9590
1031.726, 167.3734
1032.208, 170.1824
1032.690, 173.3699
1033.172, 176.9801
1033.655, 180.9380
1034.137, 184.8044
1034.619, 187.5863
1035.101, 191.1100
1035.583, 196.2437
1036.065, 202.3889
1036.547, 208.4989
1037.029, 214.5125
1037.512, 220.8717
1037.994, 227.5556
1038.476, 234.8450
1038.958, 242.6775
1039.440, 251.2880
1039.922, 260.8884
1040.404, 271.6849
1040.886, 282.5635
1041.369, 293.2044
1041.851, 304.6332
1042.333, 317.4604
1042.815, 331.4629
1043.297, 346.0460
1043.779, 361.2953
1044.261, 376.8863
1044.743, 392.4235
1045.225, 408.7155
1045.708, 426.3894
1046.190, 444.6157
1046.672, 462.5860
1047.154, 480.2508
1047.636, 498.1841
1048.118, 516.5612
1048.600, 534.6878
1049.082, 552.5386
1049.564, 569.6023
1050.047, 585.8082
1050.529, 600.8896
1051.011, 612.5579
1051.493, 620.4609
1051.975, 625.9678
1052.457, 629.6744
1052.939, 630.3650
1053.421, 626.1954
1053.904, 617.5791
1054.386, 604.9240
1054.868, 588.1599
1055.350, 569.0093
1055.832, 547.3915
1056.314, 524.3207
1056.796, 500.2155
1057.278, 475.1088
1057.760, 449.9037
1058.243, 424.5448
1058.725, 400.1245
1059.207, 376.7797
1059.689, 355.0347
1060.171, 335.3425
1060.653, 317.2535
1061.135, 300.1061
1061.617, 283.6513
1062.099, 268.7773
1062.582, 255.5699
1063.064, 243.5589
1063.546, 232.2079
1064.028, 221.6767
1064.510, 212.4980
1064.992, 204.5358
1065.474, 196.8600
1065.956, 188.5334
1066.439, 181.1404
1066.921, 175.1514
1067.403, 170.1402
1067.885, 165.3524
1068.367, 160.7620
1068.849, 156.5268
1069.331, 152.6168
1069.813, 148.9507
1070.296, 145.3584
1070.778, 142.0056
1071.260, 139.1301
1071.742, 136.6786
1072.224, 134.3050
1072.706, 132.0327
1073.188, 129.6680
1073.670, 126.9859
1074.152, 124.4235
1074.635, 122.6644
1075.117, 121.3796
1075.599, 119.9964
1076.081, 118.3119
1076.563, 116.7382
1077.045, 115.2801
1077.527, 113.9981
1078.009, 113.0750
1078.491, 112.3698
1078.974, 111.1887
1079.456, 109.6436
1079.938, 108.3154
1080.420, 107.7904
1080.902, 107.1538
1081.384, 105.7926
1081.866, 104.2695
1082.349, 103.2991
1082.831, 102.9089
1083.313, 102.5532
1083.795, 102.2011
1084.277, 101.7136
1084.759, 100.9124
1085.241, 99.98331
1085.723, 99.04250
1086.205, 98.10994
1086.688, 97.20912
1087.170, 96.24483
1087.652, 95.67976
1088.134, 95.74194
1088.616, 95.94783
1089.098, 95.58986
1089.580, 94.89132
1090.062, 94.18165
1090.544, 93.49479
1091.027, 92.95268
1091.509, 92.61182
1091.991, 92.35439
1092.473, 92.13787
1092.955, 91.96181
1093.437, 91.94813
1093.919, 91.99924
1094.401, 91.68439
1094.884, 90.51466
1095.366, 89.48286
1095.848, 89.15126
1096.330, 89.08500
1096.812, 88.89314
1097.294, 88.56523
1097.776, 88.18943
1098.258, 87.76597
1098.740, 87.38882
1099.223, 87.17300
1099.705, 86.97617
1100.187, 86.67213
1100.669, 86.29607
1101.151, 85.94492
1101.633, 85.60941
1102.115, 85.34025
1102.597, 85.14750
1103.079, 84.98319
1103.562, 84.89546
1104.044, 84.75289
1104.526, 84.31774
1105.008, 83.59561
1105.490, 82.89896
1105.972, 82.27560
1106.454, 81.76308
1106.936, 81.42131
1107.419, 81.13615
1107.901, 80.60788
1108.383, 79.96565
1108.865, 79.64315
1109.347, 79.79292
1109.829, 79.85191
1110.311, 79.56011
1110.793, 79.10156
1111.276, 78.51863
1111.758, 77.85376
1112.240, 77.31409
1112.722, 76.89975
1113.204, 76.68786
1113.686, 76.78454
1114.168, 76.92712
1114.650, 76.99332
1115.132, 76.96963
1115.615, 76.85020
1116.097, 76.64437
1116.579, 76.25520
1117.061, 75.66750
1117.543, 75.16242
1118.025, 74.89822
1118.507, 74.83768
1118.989, 75.05669
1119.471, 75.43139
1119.954, 75.68584
1120.436, 75.78790
1120.918, 75.73391
1121.400, 75.47977
1121.882, 75.21565
1122.364, 75.18670
1122.846, 75.23857
1123.328, 75.04810
1123.811, 74.65865
1124.293, 74.41660
1124.775, 74.66453
1125.257, 74.70788
1125.739, 74.30688
1126.221, 73.84946
1126.703, 74.07192
1127.185, 74.71664
1127.667, 74.93526
1128.150, 74.60905
1128.632, 74.40305
1129.114, 74.94278
1129.596, 75.30968
1130.078, 75.05116
1130.560, 74.39522
1131.042, 74.02145
1131.524, 73.90291
1132.007, 73.87369
1132.489, 73.91043
1132.971, 73.94683
1133.453, 73.94118
1133.935, 73.91273
1134.417, 73.86157
1134.899, 73.79150
1135.381, 73.81444
1135.864, 73.92991
1136.346, 73.97438
1136.828, 73.82738
1137.310, 73.67387
1137.792, 73.66779
1138.274, 73.76328
1138.756, 73.92930
1139.238, 74.21347
1139.720, 74.29653
1140.203, 74.14902
1140.685, 73.99796
1141.167, 73.98526
1141.649, 74.05130
1142.131, 74.14017
1142.613, 74.24645
1143.095, 74.37055
1143.577, 74.68688
1144.059, 74.59953
1144.542, 73.93160
1145.024, 73.34315
1145.506, 73.62698
1145.988, 74.29967
1146.470, 74.57281
1146.952, 74.46136
1147.434, 74.18427
1147.916, 73.29430
1148.399, 73.07450
1148.881, 73.97272
1149.363, 75.06395
1149.845, 74.97968
1150.327, 74.17625
1150.809, 73.82002
1151.291, 73.98567
1151.773, 74.08139
1152.255, 73.76699
1152.738, 73.44460
1153.220, 73.18620
1153.702, 73.03374
1154.184, 73.12369
1154.666, 73.39118
1155.148, 73.57384
1155.630, 73.62378
1156.112, 73.63957
1156.594, 73.65896
1157.077, 73.67290
1157.559, 73.69123
1158.041, 73.69545
1158.523, 73.60799
1159.005, 73.43892
1159.487, 73.25780
1159.969, 73.06679
1160.451, 72.93446
1160.934, 72.89719
1161.416, 72.95652
1161.898, 73.17718
1162.380, 73.52045
1162.862, 73.50363
1163.344, 73.14480
1163.826, 72.89950
1164.308, 72.99215
1164.791, 73.16776
1165.273, 73.24528
1165.755, 73.28865
1166.237, 73.36995
1166.719, 73.49522
1167.201, 73.64707
1167.683, 73.83629
1168.165, 73.82303
1168.647, 73.25576
1169.130, 72.70262
1169.612, 72.79948
1170.094, 73.21622
1170.576, 73.46880
1171.058, 73.56158
1171.540, 73.29289
1172.022, 72.59797
1172.504, 72.04618
1172.987, 72.15520
1173.469, 72.51465
1173.951, 72.72118
1174.433, 72.81898
1174.915, 72.92931
1175.397, 73.15327
1175.879, 73.13013
1176.361, 72.80537
1176.844, 72.41068
1177.326, 71.82079
1177.808, 71.50346
1178.290, 72.54066
1178.772, 74.45057
1179.254, 75.19588
1179.736, 73.98336
1180.218, 73.00045
1180.700, 72.46562
1181.182, 72.21102
1181.665, 72.15538
1182.147, 72.20251
1182.629, 72.23634
1183.111, 72.24428
1183.593, 72.19326
1184.075, 71.98627
1184.557, 71.94836
1185.039, 72.20174
1185.522, 72.46425
1186.004, 72.25442
1186.486, 71.84086
1186.968, 71.64957
1187.450, 71.71964
1187.932, 71.89185
1188.414, 72.31962
1188.896, 72.44741
1189.379, 72.02168
1189.861, 71.47874
1190.343, 71.62456
1190.825, 72.12892
1191.307, 72.40317
1191.789, 72.34971
1192.271, 72.20475
1192.753, 71.96711
1193.235, 71.74827
1193.718, 71.60662
1194.200, 71.46973
1194.682, 71.11731
1195.164, 70.69006
1195.646, 70.48092
1196.128, 70.56924
1196.610, 70.76379
1197.092, 71.18233
1197.574, 71.41566
1198.057, 71.24941
1198.539, 70.86210
1199.021, 70.57919
1199.503, 70.40325
1199.985, 70.35488
1200.467, 70.47380
1200.949, 70.59383
1201.431, 70.66879
1201.914, 70.77268
1202.396, 71.01402
1202.878, 71.24726
1203.360, 70.93073
1203.842, 70.31502
1204.324, 70.06102
1204.806, 70.46473
1205.288, 70.98892
1205.771, 71.75923
1206.253, 72.22267
1206.735, 71.91303
1207.217, 71.14903
1207.699, 70.81411
1208.181, 70.79224
1208.663, 70.74487
1209.145, 70.42441
1209.627, 70.37231
1210.109, 70.82088
1210.592, 71.24773
1211.074, 71.27171
1211.556, 71.01222
1212.038, 70.73532
1212.520, 70.48808
1213.002, 70.42013
1213.484, 70.84563
1213.966, 71.01150
1214.449, 70.72322
1214.931, 70.38570
1215.413, 70.31451
1215.895, 70.43932
1216.377, 70.61183
1216.859, 70.80612
1217.341, 70.94371
1217.823, 71.03106
1218.306, 70.97692
1218.788, 70.68836
1219.270, 70.43267
1219.752, 70.46280
1220.234, 70.68757
1220.716, 70.97072
1221.198, 71.25309
1221.680, 71.34713
1222.162, 70.95931
1222.645, 70.71626
1223.127, 70.68509
1223.609, 70.77316
1224.091, 70.94177
1224.573, 71.14427
1225.055, 71.27920
1225.537, 71.35574
1226.019, 71.42088
1226.502, 71.52422
1226.984, 71.55769
1227.466, 71.50599
1227.948, 71.39991
1228.430, 71.18247
1228.912, 70.97567
1229.394, 71.10130
1229.876, 71.46561
1230.359, 71.62253
1230.841, 71.30775
1231.323, 71.08867
1231.805, 71.04103
1232.287, 71.02237
1232.769, 70.90015
1233.251, 70.70096
1233.733, 70.40806
1234.215, 70.06632
1234.698, 69.87308
1235.180, 69.75510
1235.662, 70.10777
1236.144, 71.11783
1236.626, 72.05428
1237.108, 72.00037
1237.590, 71.51403
1238.072, 71.19851
1238.554, 71.08698
1239.037, 71.17744
1239.519, 71.60519
1240.001, 71.72281
1240.483, 71.40063
1240.965, 71.00945
1241.447, 70.91021
1241.929, 70.94957
1242.411, 71.01022
1242.894, 71.06655
1243.376, 71.04764
1243.858, 70.93716
1244.340, 70.82151
1244.822, 70.71230
1245.304, 70.60171
1245.786, 70.23067
1246.268, 70.06589
1246.750, 70.84010
1247.233, 72.22433
1247.715, 72.72818
1248.197, 72.24535
1248.679, 71.79236
1249.161, 71.50362
1249.643, 71.35451
1250.125, 71.47545
1250.607, 71.59303
1251.089, 71.41277
1251.572, 71.07673
1252.054, 71.00553
1252.536, 71.19798
1253.018, 71.39725
1253.500, 71.57173
1253.982, 71.68704
1254.464, 71.63423
1254.946, 71.60179
1255.429, 71.74719
1255.911, 71.96996
1256.393, 72.08779
1256.875, 72.09811
1257.357, 71.90018
1257.839, 71.47651
1258.321, 71.26329
1258.803, 71.91857
1259.286, 72.36806
1259.768, 72.06144
1260.250, 71.40579
1260.732, 71.14818
1261.214, 71.22309
1261.696, 71.39159
1262.178, 71.62234
1262.660, 71.85880
1263.142, 72.17466
1263.625, 72.33376
1264.107, 72.16611
1264.589, 71.96656
1265.071, 72.33891
1265.553, 73.02954
1266.035, 73.41605
1266.517, 73.43803
1266.999, 73.31688
1267.482, 72.88529
1267.964, 72.74607
1268.446, 73.13344
1268.928, 73.60332
1269.410, 73.46187
1269.892, 73.00807
1270.374, 72.69263
1270.856, 72.55551
1271.339, 72.45806
1271.821, 72.37316
1272.303, 72.36234
1272.785, 72.46819
1273.267, 72.53254
1273.749, 72.18549
1274.231, 71.82323
1274.713, 72.00076
1275.195, 72.65559
1275.677, 73.06551
1276.160, 73.19234
1276.642, 73.19518
1277.124, 73.09627
1277.606, 72.90213
1278.088, 72.44704
1278.570, 72.05445
1279.052, 72.04521
1279.534, 72.32113
1280.017, 72.58835
1280.499, 72.84997
1280.981, 72.91806
1281.463, 72.76271
1281.945, 72.57980
1282.427, 72.38216
1282.909, 72.34499
1283.391, 72.69941
1283.874, 73.18718
1284.356, 73.32033
1284.838, 73.15320
1285.320, 73.02982
1285.802, 72.98421
1286.284, 72.89202
1286.766, 72.57915
1287.248, 72.34605
1287.730, 72.24616
1288.213, 72.31089
1288.695, 72.75118
1289.177, 73.35437
1289.659, 73.50585
1290.141, 73.20333
1290.623, 72.89364
1291.105, 72.57842
1291.587, 72.55708
1292.069, 72.97938
1292.552, 73.41000
1293.034, 73.32116
1293.516, 72.93009
1293.998, 72.44343
1294.480, 71.93078
1294.962, 71.68505
1295.444, 71.80558
1295.926, 71.85316
1296.409, 71.75583
1296.891, 71.74727
1297.373, 72.15590
1297.855, 72.65003
1298.337, 72.98503
1298.819, 73.13463
1299.301, 73.04735
1299.783, 72.67259
1300.266, 72.72767
1300.748, 73.26972
1301.230, 73.66540
1301.712, 73.17653
1302.194, 72.74673
1302.676, 72.82328
1303.158, 73.37912
##END=



