##NAMES=Vivianite
##RRUFFID=R050076
##IDEAL CHEMISTRY=Fe^2+^_3_(PO_4_)_2_&#183;8H_2_O
##LOCALITY=near Canutillos mine, Potosi, Saavedra, Bolivia
##OWNER=RRUFF
##SOURCE=Rock Currier
##DESCRIPTION=Green prismatic and elongated single crystal
##STATUS=The identification of this mineral has been confirmed by X-ray diffraction and chemical analysis
##URL=rruff.info/R050076
##MEASURED CHEMISTRY=(Fe^2+^_0.99_Mn_0.01_)_3_(P_1.00_O_4_)_2_Â·8H_2_O
124.3942, 729.6395
124.8763, 782.8883
125.3585, 855.8008
125.8406, 927.0453
126.3227, 996.3102
126.8048, 1060.157
127.2869, 1114.065
127.7690, 1154.413
128.2512, 1185.122
128.7333, 1220.249
129.2154, 1257.445
129.6975, 1303.247
130.1796, 1363.642
130.6617, 1431.877
131.1439, 1499.598
131.6260, 1562.388
132.1081, 1619.758
132.5902, 1667.686
133.0723, 1693.304
133.5544, 1722.238
134.0366, 1768.476
134.5187, 1820.836
135.0008, 1859.588
135.4829, 1870.543
135.9650, 1854.944
136.4471, 1836.966
136.9293, 1808.962
137.4114, 1786.553
137.8935, 1783.280
138.3756, 1790.359
138.8577, 1787.605
139.3398, 1759.892
139.8220, 1706.792
140.3041, 1648.365
140.7862, 1570.174
141.2683, 1501.274
141.7504, 1454.053
142.2325, 1427.794
142.7147, 1416.420
143.1968, 1415.678
143.6789, 1426.477
144.1610, 1449.653
144.6431, 1488.502
145.1252, 1535.100
145.6074, 1585.471
146.0895, 1639.452
146.5716, 1699.104
147.0537, 1768.462
147.5358, 1847.249
148.0179, 1915.630
148.5001, 1969.913
148.9822, 2016.775
149.4643, 2062.209
149.9464, 2106.518
150.4285, 2143.797
150.9106, 2168.906
151.3928, 2181.476
151.8749, 2188.798
152.3570, 2195.609
152.8391, 2194.631
153.3212, 2180.040
153.8033, 2151.443
154.2855, 2108.745
154.7676, 2044.518
155.2497, 1963.642
155.7318, 1888.245
156.2139, 1819.341
156.6960, 1758.737
157.1782, 1707.056
157.6603, 1663.713
158.1424, 1633.622
158.6245, 1619.668
159.1066, 1622.148
159.5887, 1647.115
160.0709, 1714.125
160.5530, 1797.852
161.0351, 1860.996
161.5172, 1899.276
161.9993, 1928.807
162.4814, 1959.479
162.9636, 1989.582
163.4457, 2015.844
163.9278, 2040.026
164.4099, 2058.689
164.8920, 2063.495
165.3741, 2050.733
165.8563, 2034.325
166.3384, 2025.754
166.8205, 2019.516
167.3026, 2005.308
167.7847, 1973.911
168.2668, 1933.437
168.7490, 1901.875
169.2311, 1881.976
169.7132, 1864.740
170.1953, 1842.091
170.6774, 1818.981
171.1595, 1803.655
171.6417, 1800.156
172.1238, 1806.733
172.6059, 1820.547
173.0880, 1845.864
173.5701, 1869.942
174.0522, 1886.519
174.5344, 1898.692
175.0165, 1909.785
175.4986, 1919.012
175.9807, 1929.715
176.4628, 1951.973
176.9449, 1990.002
177.4271, 2032.734
177.9092, 2073.445
178.3913, 2115.836
178.8734, 2164.632
179.3555, 2222.319
179.8376, 2288.459
180.3197, 2362.084
180.8019, 2442.251
181.2840, 2532.940
181.7661, 2636.351
182.2482, 2748.734
182.7303, 2864.590
183.2124, 2980.829
183.6946, 3099.755
184.1767, 3230.222
184.6588, 3382.779
185.1409, 3526.729
185.6230, 3658.447
186.1051, 3776.568
186.5873, 3880.439
187.0694, 3969.736
187.5515, 4044.338
188.0336, 4105.051
188.5157, 4147.798
188.9978, 4181.077
189.4800, 4200.411
189.9621, 4215.385
190.4442, 4235.508
190.9263, 4264.732
191.4084, 4301.758
191.8905, 4342.979
192.3727, 4385.856
192.8548, 4439.026
193.3369, 4500.337
193.8190, 4572.279
194.3011, 4659.784
194.7832, 4765.011
195.2654, 4880.735
195.7475, 4992.284
196.2296, 5107.187
196.7117, 5203.379
197.1938, 5289.779
197.6759, 5354.343
198.1581, 5389.678
198.6402, 5393.085
199.1223, 5360.100
199.6044, 5279.766
200.0865, 5136.336
200.5686, 4971.793
201.0508, 4788.695
201.5329, 4591.165
202.0150, 4379.002
202.4971, 4152.672
202.9792, 3924.088
203.4613, 3711.233
203.9435, 3516.977
204.4256, 3334.615
204.9077, 3161.273
205.3898, 2998.609
205.8719, 2845.596
206.3540, 2702.904
206.8362, 2574.923
207.3183, 2466.884
207.8004, 2381.377
208.2825, 2313.435
208.7646, 2267.945
209.2467, 2233.402
209.7289, 2205.575
210.2110, 2183.027
210.6931, 2164.568
211.1752, 2148.315
211.6573, 2132.809
212.1395, 2125.694
212.6216, 2124.257
213.1037, 2132.641
213.5858, 2154.581
214.0679, 2189.096
214.5500, 2231.970
215.0322, 2279.346
215.5143, 2330.979
215.9964, 2388.314
216.4785, 2461.902
216.9606, 2531.629
217.4427, 2582.998
217.9249, 2622.646
218.4070, 2669.823
218.8891, 2741.150
219.3712, 2837.186
219.8533, 2937.212
220.3354, 3040.253
220.8176, 3148.795
221.2997, 3262.399
221.7818, 3382.202
222.2639, 3511.155
222.7460, 3651.446
223.2281, 3802.876
223.7103, 3950.796
224.1924, 4095.520
224.6745, 4236.440
225.1566, 4375.081
225.6387, 4509.918
226.1208, 4641.125
226.6030, 4769.719
227.0851, 4891.304
227.5672, 4986.778
228.0493, 5043.953
228.5314, 5088.732
229.0135, 5133.285
229.4957, 5166.032
229.9778, 5169.914
230.4599, 5136.530
230.9420, 5079.865
231.4241, 5034.995
231.9062, 5015.885
232.3884, 4984.333
232.8705, 4925.681
233.3526, 4859.929
233.8347, 4800.375
234.3168, 4752.220
234.7989, 4718.099
235.2811, 4705.503
235.7632, 4725.603
236.2453, 4741.076
236.7274, 4743.412
237.2095, 4744.435
237.6916, 4757.064
238.1738, 4781.528
238.6559, 4801.459
239.1380, 4799.053
239.6201, 4775.235
240.1022, 4723.962
240.5843, 4640.714
241.0665, 4533.594
241.5486, 4397.408
242.0307, 4236.339
242.5128, 4066.597
242.9949, 3903.495
243.4770, 3747.737
243.9592, 3586.666
244.4413, 3405.834
244.9234, 3232.080
245.4055, 3077.031
245.8876, 2937.286
246.3697, 2802.898
246.8519, 2662.181
247.3340, 2517.881
247.8161, 2403.388
248.2982, 2334.019
248.7803, 2276.160
249.2624, 2220.128
249.7446, 2165.740
250.2267, 2113.208
250.7088, 2061.396
251.1909, 2012.365
251.6730, 1972.748
252.1551, 1946.789
252.6373, 1921.646
253.1194, 1893.739
253.6015, 1864.244
254.0836, 1832.319
254.5657, 1796.021
255.0478, 1763.532
255.5300, 1750.533
256.0121, 1762.704
256.4942, 1772.999
256.9763, 1773.884
257.4584, 1769.801
257.9406, 1761.031
258.4227, 1747.319
258.9048, 1736.775
259.3869, 1740.072
259.8690, 1757.930
260.3511, 1773.242
260.8333, 1781.291
261.3154, 1787.168
261.7975, 1795.981
262.2796, 1807.435
262.7617, 1815.419
263.2438, 1810.175
263.7260, 1795.513
264.2081, 1794.176
264.6902, 1811.786
265.1723, 1838.729
265.6544, 1869.807
266.1365, 1904.025
266.6187, 1937.722
267.1008, 1972.812
267.5829, 2005.592
268.0650, 2026.022
268.5471, 2030.355
269.0292, 2033.778
269.5114, 2048.946
269.9935, 2070.130
270.4756, 2087.728
270.9577, 2096.962
271.4398, 2103.488
271.9219, 2114.184
272.4041, 2129.224
272.8862, 2143.282
273.3683, 2154.272
273.8504, 2162.129
274.3325, 2168.625
274.8146, 2178.458
275.2968, 2178.414
275.7789, 2154.423
276.2610, 2111.581
276.7431, 2070.845
277.2252, 2040.508
277.7073, 2014.206
278.1895, 1980.867
278.6716, 1939.604
279.1537, 1897.828
279.6358, 1860.805
280.1179, 1824.464
280.6000, 1781.213
281.0822, 1728.690
281.5643, 1672.684
282.0464, 1618.272
282.5285, 1565.452
283.0106, 1517.906
283.4927, 1479.544
283.9749, 1444.494
284.4570, 1407.817
284.9391, 1368.991
285.4212, 1328.404
285.9033, 1285.038
286.3854, 1239.490
286.8676, 1203.065
287.3497, 1177.907
287.8318, 1158.756
288.3139, 1143.582
288.7960, 1132.329
289.2781, 1125.917
289.7603, 1125.245
290.2424, 1129.103
290.7245, 1132.514
291.2066, 1141.297
291.6887, 1142.617
292.1708, 1125.820
292.6530, 1103.583
293.1351, 1092.562
293.6172, 1098.488
294.0993, 1113.582
294.5814, 1123.816
295.0635, 1122.813
295.5457, 1129.426
296.0278, 1149.442
296.5099, 1172.232
296.9920, 1190.108
297.4741, 1202.460
297.9562, 1212.978
298.4384, 1224.492
298.9205, 1235.767
299.4026, 1257.422
299.8847, 1300.841
300.3668, 1342.921
300.8489, 1374.065
301.3311, 1397.780
301.8131, 1422.684
302.2953, 1454.765
302.7774, 1492.332
303.2595, 1526.898
303.7416, 1558.721
304.2237, 1586.620
304.7058, 1611.420
305.1880, 1632.238
305.6701, 1648.800
306.1522, 1661.097
306.6343, 1667.303
307.1164, 1664.457
307.5985, 1652.264
308.0807, 1632.046
308.5628, 1593.269
309.0449, 1553.895
309.5270, 1528.533
310.0091, 1516.921
310.4912, 1502.361
310.9734, 1467.795
311.4555, 1415.157
311.9376, 1365.675
312.4197, 1318.751
312.9018, 1278.893
313.3839, 1250.982
313.8661, 1231.509
314.3482, 1211.797
314.8303, 1188.218
315.3124, 1161.872
315.7945, 1133.469
316.2766, 1102.244
316.7588, 1073.652
317.2409, 1051.733
317.7230, 1034.383
318.2051, 1018.090
318.6872, 1002.143
319.1693, 987.9355
319.6515, 977.9269
320.1336, 971.1064
320.6157, 963.0515
321.0978, 952.9111
321.5799, 939.9644
322.0620, 921.3124
322.5442, 895.8094
323.0263, 873.3289
323.5084, 854.4823
323.9905, 841.0397
324.4726, 837.3710
324.9547, 844.1313
325.4369, 853.3243
325.9190, 858.0871
326.4011, 857.9529
326.8832, 853.7890
327.3653, 839.9098
327.8474, 827.3317
328.3296, 822.9917
328.8117, 825.2983
329.2938, 829.1526
329.7759, 831.9374
330.2580, 833.3384
330.7401, 831.8178
331.2223, 825.5275
331.7044, 818.5566
332.1865, 808.0823
332.6686, 798.5829
333.1507, 796.0202
333.6328, 801.8316
334.1150, 810.9323
334.5971, 815.7297
335.0792, 814.4019
335.5613, 813.5372
336.0434, 812.6951
336.5255, 812.6309
337.0077, 813.9247
337.4898, 816.3964
337.9719, 819.4319
338.4540, 822.5759
338.9361, 825.8459
339.4182, 829.7495
339.9004, 837.1190
340.3825, 840.5975
340.8646, 834.6417
341.3467, 825.2805
341.8288, 820.3328
342.3109, 823.0378
342.7931, 829.5206
343.2752, 835.6116
343.7573, 842.0493
344.2394, 842.4461
344.7215, 828.9573
345.2036, 813.8149
345.6858, 808.0558
346.1679, 811.9278
346.6500, 814.9104
347.1321, 809.1165
347.6142, 797.4005
348.0963, 787.1506
348.5785, 778.7457
349.0606, 772.8799
349.5427, 772.8937
350.0248, 776.2552
350.5069, 775.1129
350.9890, 763.9247
351.4712, 751.0230
351.9533, 743.8486
352.4354, 741.3240
352.9175, 737.4825
353.3996, 729.1399
353.8817, 718.1896
354.3639, 709.5717
354.8460, 703.7075
355.3281, 698.6799
355.8102, 694.7969
356.2923, 691.2159
356.7744, 687.3084
357.2566, 682.8427
357.7387, 677.1132
358.2208, 668.7776
358.7029, 656.5271
359.1850, 649.2986
359.6671, 650.2443
360.1493, 652.2852
360.6314, 651.8018
361.1135, 649.9399
361.5956, 650.2997
362.0777, 655.3870
362.5598, 662.9438
363.0420, 664.5127
363.5241, 655.9540
364.0062, 647.7593
364.4883, 639.1314
364.9704, 632.5813
365.4525, 630.8359
365.9347, 634.2086
366.4168, 639.8223
366.8989, 646.0257
367.3810, 653.2421
367.8631, 653.9298
368.3452, 639.9706
368.8274, 628.9042
369.3095, 632.0890
369.7916, 644.7668
370.2737, 655.3314
370.7558, 657.7850
371.2379, 655.5078
371.7201, 654.3343
372.2022, 654.5880
372.6843, 652.6853
373.1664, 645.1998
373.6485, 635.8500
374.1306, 630.4039
374.6128, 629.8822
375.0949, 630.2059
375.5770, 628.1534
376.0591, 625.6548
376.5412, 626.5258
377.0233, 631.5768
377.5055, 640.0767
377.9876, 653.6836
378.4697, 673.2053
378.9518, 681.5978
379.4339, 668.3075
379.9160, 653.1086
380.3982, 648.6082
380.8803, 652.1125
381.3624, 653.9812
381.8445, 648.6030
382.3266, 639.4015
382.8087, 636.7900
383.2909, 648.2272
383.7730, 656.8306
384.2551, 660.6340
384.7372, 662.5355
385.2193, 665.2129
385.7014, 668.8902
386.1836, 671.5812
386.6657, 670.6587
387.1478, 665.8157
387.6299, 663.3840
388.1120, 665.3310
388.5941, 667.5413
389.0763, 669.2559
389.5584, 670.2082
390.0405, 669.4869
390.5226, 665.9691
391.0047, 662.7965
391.4868, 667.2559
391.9690, 680.8243
392.4511, 687.3383
392.9332, 677.5629
393.4153, 663.3615
393.8974, 655.3735
394.3795, 653.7481
394.8617, 655.5202
395.3438, 660.0856
395.8259, 666.8175
396.3080, 675.8117
396.7901, 687.2866
397.2722, 696.9824
397.7544, 701.7406
398.2365, 702.0238
398.7186, 701.7075
399.2007, 696.5575
399.6828, 695.4993
400.1649, 706.5427
400.6471, 722.8987
401.1292, 733.4550
401.6113, 734.5815
402.0934, 729.3842
402.5755, 721.7304
403.0576, 709.1765
403.5398, 702.0754
404.0219, 703.1307
404.5040, 706.2455
404.9861, 708.9458
405.4682, 711.0594
405.9503, 713.0489
406.4325, 715.1826
406.9146, 717.4680
407.3967, 720.4050
407.8788, 726.3757
408.3609, 727.9028
408.8430, 716.5629
409.3252, 705.1569
409.8073, 705.6462
410.2894, 719.2122
410.7715, 734.3030
411.2536, 740.1611
411.7357, 738.7312
412.2179, 740.0329
412.7000, 745.6066
413.1821, 751.7296
413.6642, 755.5968
414.1463, 758.1942
414.6284, 761.2122
415.1106, 763.8309
415.5927, 768.3663
416.0748, 781.2657
416.5569, 798.0724
417.0390, 801.6591
417.5211, 783.3374
418.0033, 760.4614
418.4854, 760.8778
418.9675, 795.1630
419.4496, 816.8559
419.9317, 814.6240
420.4138, 807.2625
420.8960, 806.6807
421.3781, 812.3891
421.8602, 818.5051
422.3423, 821.0715
422.8244, 821.5087
423.3065, 826.2930
423.7887, 841.5820
424.2708, 851.4772
424.7529, 850.1656
425.2350, 846.1444
425.7171, 845.9122
426.1992, 850.5520
426.6814, 857.5097
427.1635, 863.6078
427.6456, 869.3220
428.1277, 881.3228
428.6098, 905.6619
429.0919, 924.5069
429.5741, 921.3272
430.0562, 908.9592
430.5383, 906.9526
431.0204, 922.5885
431.5025, 943.6105
431.9846, 961.4811
432.4668, 976.5848
432.9489, 990.2260
433.4310, 1002.681
433.9131, 1013.722
434.3952, 1020.535
434.8773, 1021.775
435.3595, 1035.994
435.8416, 1078.412
436.3237, 1121.253
436.8058, 1145.892
437.2879, 1156.903
437.7701, 1167.878
438.2522, 1185.577
438.7343, 1208.627
439.2164, 1233.490
439.6985, 1260.272
440.1806, 1288.770
440.6628, 1322.019
441.1449, 1354.517
441.6270, 1379.060
442.1091, 1398.546
442.5912, 1424.671
443.0733, 1467.810
443.5555, 1523.677
444.0376, 1574.545
444.5197, 1616.603
445.0018, 1664.460
445.4839, 1729.371
445.9660, 1800.561
446.4482, 1869.216
446.9303, 1934.341
447.4124, 1994.071
447.8945, 2044.253
448.3766, 2088.833
448.8587, 2136.786
449.3409, 2189.928
449.8230, 2239.825
450.3051, 2277.372
450.7872, 2304.977
451.2693, 2345.429
451.7514, 2410.313
452.2336, 2473.459
452.7157, 2532.258
453.1978, 2581.891
453.6799, 2613.566
454.1620, 2625.427
454.6441, 2626.165
455.1263, 2627.024
455.6084, 2629.318
456.0905, 2624.279
456.5726, 2616.342
457.0547, 2595.727
457.5368, 2553.288
458.0190, 2497.415
458.5011, 2441.709
458.9832, 2392.284
459.4653, 2342.674
459.9474, 2281.566
460.4295, 2208.993
460.9117, 2138.404
461.3938, 2073.070
461.8759, 2009.467
462.3580, 1943.278
462.8401, 1875.344
463.3222, 1809.693
463.8044, 1746.195
464.2865, 1686.017
464.7686, 1630.850
465.2507, 1580.232
465.7328, 1532.306
466.2149, 1486.332
466.6971, 1442.523
467.1792, 1401.998
467.6613, 1365.093
468.1434, 1331.125
468.6255, 1299.795
469.1076, 1271.523
469.5898, 1247.164
470.0719, 1226.289
470.5540, 1208.099
471.0361, 1192.020
471.5182, 1178.131
472.0003, 1167.508
472.4825, 1163.539
472.9646, 1153.733
473.4467, 1125.881
473.9288, 1098.270
474.4109, 1083.223
474.8930, 1080.835
475.3752, 1082.640
475.8573, 1087.872
476.3394, 1092.610
476.8215, 1088.304
477.3036, 1074.700
477.7857, 1062.167
478.2679, 1055.810
478.7500, 1053.867
479.2321, 1052.063
479.7142, 1049.607
480.1963, 1049.124
480.6784, 1051.373
481.1606, 1055.634
481.6427, 1063.633
482.1248, 1073.840
482.6069, 1079.316
483.0890, 1073.809
483.5711, 1060.452
484.0533, 1056.974
484.5354, 1070.063
485.0175, 1082.386
485.4996, 1088.942
485.9817, 1095.570
486.4638, 1108.723
486.9460, 1128.106
487.4281, 1145.416
487.9102, 1152.782
488.3923, 1153.172
488.8744, 1156.541
489.3565, 1164.085
489.8387, 1167.494
490.3208, 1157.786
490.8029, 1143.880
491.2850, 1143.485
491.7671, 1158.627
492.2492, 1180.885
492.7314, 1215.264
493.2135, 1250.788
493.6956, 1274.575
494.1777, 1285.745
494.6598, 1290.651
495.1419, 1293.055
495.6241, 1294.011
496.1062, 1300.502
496.5883, 1315.303
497.0704, 1332.124
497.5525, 1352.935
498.0346, 1373.697
498.5168, 1390.694
498.9989, 1403.777
499.4810, 1415.676
499.9631, 1426.389
500.4452, 1437.819
500.9273, 1458.398
501.4095, 1490.357
501.8916, 1521.914
502.3737, 1544.721
502.8558, 1566.438
503.3379, 1600.470
503.8200, 1651.030
504.3022, 1696.441
504.7843, 1725.454
505.2664, 1746.745
505.7485, 1767.282
506.2306, 1788.887
506.7127, 1815.752
507.1949, 1851.997
507.6770, 1894.188
508.1591, 1926.663
508.6412, 1937.930
509.1233, 1956.443
509.6054, 1988.139
510.0876, 2023.817
510.5697, 2056.092
511.0518, 2085.278
511.5339, 2116.783
512.0161, 2154.502
512.4982, 2197.238
512.9803, 2243.962
513.4624, 2295.854
513.9445, 2342.183
514.4266, 2374.081
514.9088, 2402.994
515.3909, 2446.145
515.8730, 2505.164
516.3551, 2557.646
516.8372, 2594.530
517.3193, 2623.757
517.8015, 2650.407
518.2836, 2675.933
518.7657, 2703.945
519.2478, 2736.277
519.7299, 2772.057
520.2120, 2809.545
520.6942, 2852.061
521.1763, 2890.039
521.6584, 2918.094
522.1405, 2947.101
522.6226, 2985.748
523.1047, 3030.319
523.5869, 3068.823
524.0690, 3092.405
524.5511, 3113.022
525.0332, 3155.276
525.5153, 3218.949
525.9974, 3268.391
526.4796, 3291.294
526.9617, 3303.776
527.4438, 3321.873
527.9259, 3344.812
528.4080, 3365.381
528.8901, 3376.985
529.3723, 3391.525
529.8544, 3420.864
530.3365, 3457.363
530.8186, 3484.254
531.3007, 3496.189
531.7828, 3504.169
532.2650, 3524.985
532.7471, 3562.853
533.2292, 3587.477
533.7113, 3583.151
534.1934, 3583.502
534.6755, 3605.962
535.1577, 3636.269
535.6398, 3654.165
536.1219, 3653.210
536.6040, 3646.233
537.0861, 3646.467
537.5682, 3650.341
538.0504, 3645.566
538.5325, 3630.165
539.0146, 3610.771
539.4967, 3592.310
539.9788, 3573.707
540.4609, 3550.144
540.9431, 3511.781
541.4252, 3482.119
541.9073, 3471.817
542.3894, 3468.497
542.8715, 3465.458
543.3536, 3458.550
543.8358, 3438.511
544.3179, 3395.401
544.8000, 3335.712
545.2821, 3288.322
545.7642, 3256.960
546.2463, 3227.894
546.7285, 3202.302
547.2106, 3174.392
547.6927, 3139.644
548.1748, 3098.124
548.6569, 3052.150
549.1390, 3000.226
549.6211, 2946.444
550.1032, 2894.710
550.5853, 2845.088
551.0674, 2798.379
551.5496, 2754.476
552.0317, 2713.296
552.5138, 2674.346
552.9959, 2636.840
553.4780, 2604.075
553.9601, 2577.765
554.4423, 2553.469
554.9244, 2528.592
555.4065, 2504.780
555.8886, 2485.199
556.3707, 2470.994
556.8528, 2459.202
557.3350, 2444.301
557.8171, 2427.550
558.2992, 2419.844
558.7813, 2423.451
559.2634, 2432.077
559.7455, 2441.731
560.2277, 2453.557
560.7098, 2469.608
561.1919, 2486.348
561.6740, 2513.570
562.1561, 2562.319
562.6382, 2618.194
563.1204, 2663.290
563.6025, 2698.389
564.0846, 2739.198
564.5667, 2797.970
565.0488, 2871.142
565.5309, 2947.609
566.0131, 3034.051
566.4952, 3106.759
566.9773, 3153.399
567.4594, 3191.526
567.9415, 3232.057
568.4236, 3273.951
568.9058, 3310.030
569.3879, 3344.531
569.8700, 3365.552
570.3521, 3363.385
570.8342, 3338.060
571.3163, 3288.764
571.7985, 3214.905
572.2806, 3119.278
572.7627, 3002.630
573.2448, 2861.195
573.7269, 2730.618
574.2090, 2620.943
574.6912, 2507.816
575.1733, 2378.338
575.6554, 2245.933
576.1375, 2122.808
576.6196, 2012.374
577.1017, 1915.853
577.5839, 1840.604
578.0660, 1779.933
578.5481, 1709.853
579.0302, 1628.790
579.5123, 1550.041
579.9944, 1478.784
580.4766, 1414.436
580.9587, 1357.240
581.4408, 1307.396
581.9229, 1261.096
582.4050, 1214.077
582.8871, 1174.322
583.3693, 1153.694
583.8514, 1143.911
584.3335, 1125.145
584.8156, 1088.373
585.2977, 1045.976
585.7798, 1017.925
586.2620, 1005.504
586.7441, 993.3959
587.2262, 980.8430
587.7083, 968.4144
588.1904, 957.0377
588.6725, 945.8074
589.1547, 933.1713
589.6368, 918.6522
590.1189, 903.2889
590.6010, 884.1059
591.0831, 866.2032
591.5652, 857.7064
592.0474, 858.0001
592.5295, 859.5140
593.0116, 857.3810
593.4937, 852.5607
593.9758, 848.0776
594.4579, 844.8118
594.9401, 839.8397
595.4222, 827.3032
595.9043, 818.2567
596.3864, 822.7208
596.8685, 835.0677
597.3506, 840.2454
597.8328, 829.3491
598.3149, 816.1382
598.7970, 814.4305
599.2791, 819.9761
599.7612, 821.9835
600.2433, 818.3746
600.7255, 811.6554
601.2076, 803.2316
601.6897, 793.6326
602.1718, 787.1384
602.6539, 781.9794
603.1360, 782.7808
603.6182, 796.4371
604.1003, 810.9149
604.5824, 817.1075
605.0645, 815.4293
605.5466, 811.2625
606.0287, 805.4944
606.5109, 801.8996
606.9930, 809.4283
607.4751, 826.1200
607.9572, 835.6945
608.4393, 833.3257
608.9214, 825.8732
609.4036, 818.5622
609.8857, 811.4175
610.3678, 811.4527
610.8499, 824.0674
611.3320, 836.2722
611.8141, 845.9544
612.2963, 853.2708
612.7784, 858.3232
613.2605, 861.1995
613.7426, 861.7196
614.2247, 858.2443
614.7068, 853.5587
615.1890, 856.5875
615.6711, 867.9082
616.1532, 873.3542
616.6353, 867.0753
617.1174, 856.6245
617.5995, 849.7405
618.0817, 846.5006
618.5638, 844.9741
619.0459, 844.5485
619.5280, 846.4445
620.0101, 854.1473
620.4922, 862.9490
620.9744, 865.4618
621.4565, 861.3224
621.9386, 858.8142
622.4207, 868.1617
622.9028, 883.9224
623.3849, 881.8607
623.8671, 858.1585
624.3492, 838.9225
624.8313, 832.6905
625.3134, 833.4454
625.7955, 836.1800
626.2776, 840.7455
626.7598, 841.9016
627.2419, 838.8436
627.7240, 832.3069
628.2061, 817.3977
628.6882, 801.3780
629.1703, 795.8038
629.6525, 802.6223
630.1346, 814.0254
630.6167, 824.2916
631.0988, 832.2599
631.5809, 829.1981
632.0630, 810.5983
632.5452, 799.1901
633.0273, 808.3304
633.5094, 821.2563
633.9915, 816.5121
634.4736, 795.2939
634.9557, 781.3683
635.4379, 785.0234
635.9200, 791.3233
636.4021, 794.6752
636.8842, 794.1593
637.3663, 785.7712
637.8484, 770.1341
638.3306, 758.0010
638.8127, 761.7559
639.2948, 778.0705
639.7769, 785.8948
640.2590, 782.8440
640.7411, 780.0797
641.2233, 783.4547
641.7054, 785.7151
642.1875, 776.2021
642.6696, 756.3331
643.1517, 744.7108
643.6339, 751.4139
644.1160, 760.6196
644.5981, 764.5752
645.0802, 765.0493
645.5623, 764.9081
646.0444, 764.8009
646.5266, 763.8182
647.0087, 761.3309
647.4908, 757.1642
647.9729, 749.0056
648.4550, 734.4465
648.9371, 726.0316
649.4193, 729.4737
649.9014, 737.5090
650.3835, 745.8887
650.8656, 753.7800
651.3477, 754.5373
651.8298, 737.7294
652.3120, 724.1561
652.7941, 727.3838
653.2762, 737.7640
653.7583, 741.6656
654.2404, 737.5886
654.7225, 734.4753
655.2047, 741.0353
655.6868, 752.0555
656.1689, 746.7737
656.6510, 720.7015
657.1331, 706.9521
657.6152, 718.0569
658.0974, 735.2434
658.5795, 742.1093
659.0616, 740.6857
659.5437, 739.4718
660.0258, 740.1970
660.5079, 740.0449
660.9901, 736.0280
661.4722, 731.9578
661.9543, 733.0330
662.4364, 738.5208
662.9185, 742.9306
663.4006, 742.4838
663.8828, 739.1028
664.3649, 737.1243
664.8470, 736.6399
665.3291, 734.6210
665.8112, 730.7136
666.2933, 724.4149
666.7755, 709.7784
667.2576, 692.4654
667.7397, 696.3798
668.2218, 744.6149
668.7039, 776.3804
669.1860, 769.1445
669.6682, 750.0771
670.1503, 737.5283
670.6324, 732.2997
671.1145, 728.5796
671.5966, 723.1206
672.0787, 720.5311
672.5609, 731.0504
673.0430, 751.9394
673.5251, 762.7371
674.0072, 760.5482
674.4893, 753.3079
674.9714, 742.6642
675.4536, 732.5089
675.9357, 733.8535
676.4178, 754.9105
676.8999, 769.5383
677.3820, 773.6437
677.8641, 774.6963
678.3463, 774.9791
678.8284, 775.3943
679.3105, 777.1120
679.7926, 780.4971
680.2747, 783.7098
680.7568, 784.3529
681.2390, 783.6822
681.7211, 786.1319
682.2032, 791.4670
682.6853, 791.5139
683.1674, 781.4460
683.6495, 768.6923
684.1317, 765.1346
684.6138, 772.8918
685.0959, 778.6975
685.5780, 780.7917
686.0601, 783.0983
686.5422, 788.1386
687.0244, 792.8853
687.5065, 793.1827
687.9886, 789.0093
688.4707, 785.8849
688.9528, 788.4913
689.4349, 792.5535
689.9171, 792.4677
690.3992, 789.7769
690.8813, 789.6213
691.3634, 793.3310
691.8455, 797.1708
692.3276, 797.2336
692.8098, 794.0189
693.2919, 791.7769
693.7740, 790.1415
694.2561, 790.3624
694.7382, 795.9935
695.2203, 800.5318
695.7025, 797.2258
696.1846, 788.7007
696.6667, 785.2032
697.1488, 793.4598
697.6309, 800.9407
698.1130, 799.0855
698.5952, 793.7570
699.0773, 791.9590
699.5594, 794.2531
700.0415, 798.3867
700.5236, 803.2361
701.0057, 807.7607
701.4879, 810.0975
701.9700, 810.2848
702.4521, 807.2431
702.9342, 799.6645
703.4163, 791.8530
703.8984, 785.4306
704.3806, 780.9012
704.8627, 779.2921
705.3448, 780.6428
705.8269, 784.4946
706.3090, 795.0798
706.7911, 803.8868
707.2733, 804.8457
707.7554, 800.8396
708.2375, 797.3196
708.7196, 795.8650
709.2017, 793.3074
709.6838, 783.4116
710.1660, 770.9052
710.6481, 769.9598
711.1302, 779.9705
711.6123, 787.4916
712.0944, 787.6740
712.5765, 783.7723
713.0587, 778.8547
713.5408, 772.6088
714.0229, 772.1795
714.5050, 785.4811
714.9871, 793.7398
715.4692, 792.2702
715.9514, 786.1652
716.4335, 775.1957
716.9156, 762.5071
717.3977, 759.7311
717.8798, 778.9174
718.3619, 798.9562
718.8441, 800.4099
719.3262, 792.3312
719.8083, 790.1469
720.2904, 795.4983
720.7725, 802.4025
721.2546, 807.3315
721.7368, 809.0955
722.2189, 804.0019
722.7010, 791.0209
723.1831, 777.2877
723.6652, 759.3071
724.1473, 748.7831
724.6295, 759.0956
725.1116, 778.7084
725.5937, 782.5353
726.0758, 764.0925
726.5579, 752.2966
727.0400, 757.9821
727.5222, 766.0029
728.0043, 768.1240
728.4864, 766.1401
728.9685, 762.1507
729.4506, 757.4420
729.9327, 756.8119
730.4149, 770.4127
730.8970, 788.8212
731.3791, 787.5364
731.8612, 768.7515
732.3433, 752.4080
732.8254, 743.7551
733.3076, 742.6570
733.7897, 750.2670
734.2718, 765.6901
734.7539, 777.5663
735.2360, 786.5394
735.7181, 790.8140
736.2003, 787.0670
736.6824, 781.6952
737.1645, 777.2937
737.6466, 774.5151
738.1287, 774.3983
738.6108, 777.1461
739.0930, 782.7668
739.5751, 796.2424
740.0572, 809.2842
740.5393, 808.9930
741.0214, 798.8940
741.5035, 794.6669
741.9857, 803.7558
742.4678, 813.9575
742.9499, 803.0765
743.4320, 773.6859
743.9141, 763.6884
744.3962, 776.7115
744.8784, 791.9397
745.3605, 802.8300
745.8426, 810.0948
746.3247, 814.4521
746.8068, 815.7411
747.2889, 815.3627
747.7711, 810.8550
748.2532, 807.9547
748.7353, 810.3142
749.2174, 813.1197
749.6995, 810.9132
750.1816, 804.7339
750.6638, 801.3436
751.1459, 807.6300
751.6280, 810.7533
752.1101, 789.3156
752.5922, 759.6495
753.0743, 758.0079
753.5565, 784.1780
754.0386, 806.5042
754.5207, 806.0974
755.0028, 793.5079
755.4849, 788.5142
755.9670, 791.7023
756.4492, 798.1690
756.9313, 810.5793
757.4134, 819.3275
757.8955, 819.9923
758.3776, 814.9609
758.8597, 804.7130
759.3419, 787.5892
759.8240, 782.4005
760.3061, 804.1967
760.7882, 821.9728
761.2703, 822.1458
761.7524, 813.7404
762.2346, 803.0101
762.7167, 793.1876
763.1988, 790.9653
763.6809, 803.5426
764.1630, 819.2462
764.6451, 827.8353
765.1273, 828.4796
765.6094, 814.3667
766.0915, 786.8354
766.5736, 765.4415
767.0557, 762.7236
767.5378, 771.4142
768.0200, 775.9363
768.5021, 775.3395
768.9842, 776.2669
769.4663, 779.2868
769.9484, 782.9625
770.4305, 789.2480
770.9127, 794.0729
771.3948, 788.4269
771.8769, 770.6164
772.3590, 764.7843
772.8411, 788.4434
773.3232, 806.8824
773.8054, 804.8854
774.2875, 792.1760
774.7696, 776.0006
775.2517, 759.4677
775.7338, 747.5703
776.2159, 744.4562
776.6981, 744.0789
777.1802, 736.5152
777.6623, 727.2712
778.1444, 731.8829
778.6265, 750.2730
779.1086, 767.8378
779.5908, 776.7391
780.0729, 777.3735
780.5550, 767.5585
781.0371, 745.2011
781.5192, 734.7626
782.0013, 740.7030
782.4835, 746.7716
782.9656, 747.6134
783.4477, 744.8776
783.9298, 738.9885
784.4119, 729.7564
784.8940, 725.6364
785.3762, 733.2974
785.8583, 737.9508
786.3404, 731.2178
786.8225, 723.3446
787.3046, 725.3075
787.7867, 734.4052
788.2689, 739.4547
788.7510, 735.7721
789.2331, 726.8783
789.7152, 709.8519
790.1973, 692.5240
790.6794, 690.0170
791.1616, 699.8766
791.6437, 707.0951
792.1258, 705.2369
792.6079, 700.2066
793.0900, 699.5779
793.5721, 703.0784
794.0543, 708.5153
794.5364, 716.3784
795.0185, 723.6418
795.5006, 730.6004
795.9827, 733.9243
796.4648, 727.9524
796.9470, 714.2795
797.4291, 710.2800
797.9112, 731.4873
798.3933, 740.0007
798.8754, 722.0272
799.3575, 702.9926
799.8397, 696.1870
800.3218, 699.2122
800.8039, 707.8953
801.2860, 722.8287
801.7681, 732.2436
802.2502, 726.2393
802.7324, 715.6400
803.2145, 707.1024
803.6966, 702.3759
804.1787, 705.4133
804.6608, 716.0517
805.1429, 726.7109
805.6251, 731.4154
806.1072, 731.3710
806.5893, 727.6006
807.0714, 720.8331
807.5535, 716.9624
808.0356, 717.0985
808.5178, 718.3629
808.9999, 719.0229
809.4820, 719.1332
809.9641, 718.3926
810.4462, 715.4280
810.9283, 717.1816
811.4105, 729.2560
811.8926, 736.9033
812.3747, 731.3810
812.8568, 720.5301
813.3389, 711.3168
813.8210, 703.9316
814.3032, 703.7360
814.7853, 719.4275
815.2674, 732.3806
815.7495, 735.3920
816.2316, 733.5896
816.7137, 730.1194
817.1959, 726.2870
817.6780, 723.7561
818.1601, 723.3269
818.6422, 723.8463
819.1243, 724.8236
819.6064, 725.8379
820.0886, 725.8406
820.5707, 725.2415
821.0528, 725.6046
821.5349, 727.4830
822.0170, 730.1833
822.4991, 732.9485
822.9813, 735.9125
823.4634, 741.2813
823.9455, 749.5541
824.4276, 748.9892
824.9097, 734.9095
825.3918, 720.7906
825.8740, 717.4924
826.3561, 721.3681
826.8382, 719.5009
827.3203, 704.3869
827.8024, 701.0699
828.2845, 722.8217
828.7667, 740.0894
829.2488, 738.3006
829.7309, 728.7858
830.2130, 724.7950
830.6951, 727.1569
831.1772, 729.3699
831.6594, 730.4491
832.1415, 730.3893
832.6236, 727.8338
833.1057, 725.1343
833.5878, 724.7266
834.0699, 726.4087
834.5521, 729.1091
835.0342, 732.8437
835.5163, 734.6873
835.9984, 728.4407
836.4805, 720.4211
836.9626, 721.9756
837.4448, 731.5362
837.9269, 742.9803
838.4090, 753.7532
838.8911, 758.6841
839.3732, 750.1547
839.8553, 733.2055
840.3375, 727.2773
840.8196, 732.6008
841.3017, 737.6155
841.7838, 740.8815
842.2659, 740.2885
842.7480, 733.0413
843.2302, 722.7385
843.7123, 719.0143
844.1944, 725.4549
844.6765, 726.4102
845.1586, 719.8610
845.6407, 710.8395
846.1229, 695.2802
846.6050, 681.9874
847.0871, 681.8441
847.5692, 693.7590
848.0513, 702.7280
848.5334, 705.8969
849.0156, 707.0380
849.4977, 706.2029
849.9798, 704.5830
850.4619, 702.8635
850.9440, 701.1381
851.4261, 698.4875
851.9083, 694.3067
852.3904, 694.0426
852.8725, 706.8957
853.3546, 720.7112
853.8367, 720.5583
854.3188, 712.0388
854.8010, 708.0922
855.2831, 710.5301
855.7652, 710.9948
856.2473, 702.9190
856.7294, 690.7502
857.2115, 680.3396
857.6937, 672.5132
858.1758, 673.1370
858.6579, 682.3280
859.1400, 688.1893
859.6221, 684.9171
860.1042, 677.7178
860.5864, 673.2344
861.0685, 671.5768
861.5506, 676.7103
862.0327, 692.3945
862.5148, 699.4094
862.9969, 690.0240
863.4791, 677.9264
863.9612, 674.1072
864.4433, 676.0087
864.9254, 674.2358
865.4075, 664.8555
865.8896, 660.0298
866.3718, 661.4279
866.8539, 665.1563
867.3360, 671.3425
867.8181, 678.2179
868.3002, 684.6592
868.7823, 690.3152
869.2645, 692.6956
869.7466, 691.0818
870.2287, 686.1837
870.7108, 671.8793
871.1929, 659.7179
871.6750, 663.4828
872.1572, 677.3104
872.6393, 686.5186
873.1214, 686.1938
873.6035, 682.0413
874.0856, 673.9781
874.5677, 667.7261
875.0499, 670.0051
875.5320, 679.0070
876.0141, 693.4326
876.4962, 711.0737
876.9783, 723.5145
877.4604, 724.5314
877.9426, 719.5932
878.4247, 718.3795
878.9068, 718.7107
879.3889, 709.3060
879.8710, 690.8310
880.3531, 679.9091
880.8353, 683.4803
881.3174, 694.6545
881.7995, 707.0316
882.2816, 719.0963
882.7637, 718.4592
883.2458, 702.1566
883.7280, 696.8738
884.2101, 710.5806
884.6922, 723.5524
885.1743, 722.1857
885.6564, 712.7631
886.1385, 708.8781
886.6207, 711.5141
887.1028, 715.4667
887.5849, 722.6910
888.0670, 728.0001
888.5491, 727.2466
889.0313, 726.5028
889.5134, 732.8613
889.9955, 744.1205
890.4776, 750.0873
890.9597, 746.6506
891.4418, 744.0991
891.9240, 741.5802
892.4061, 742.7122
892.8882, 751.0942
893.3703, 763.3808
893.8524, 777.1116
894.3345, 791.1827
894.8167, 798.7988
895.2988, 792.5140
895.7809, 784.7996
896.2630, 781.3644
896.7451, 780.5338
897.2272, 780.8178
897.7094, 782.1058
898.1915, 785.6476
898.6736, 791.9276
899.1557, 795.9142
899.6378, 785.8730
900.1199, 777.4353
900.6021, 799.2949
901.0842, 834.9855
901.5663, 844.6500
902.0484, 826.2739
902.5305, 812.4859
903.0126, 824.1328
903.4948, 846.8862
903.9769, 860.3756
904.4590, 867.7787
904.9411, 879.9438
905.4232, 896.2334
905.9053, 907.3077
906.3875, 910.1600
906.8696, 910.7540
907.3517, 914.7686
907.8338, 921.0057
908.3159, 924.1207
908.7980, 924.0239
909.2802, 932.9219
909.7623, 953.3210
910.2444, 972.7490
910.7265, 984.3626
911.2086, 994.4431
911.6907, 1013.208
912.1729, 1040.435
912.6550, 1058.532
913.1371, 1065.182
913.6192, 1069.626
914.1013, 1070.685
914.5834, 1075.189
915.0656, 1089.549
915.5477, 1109.264
916.0298, 1123.615
916.5119, 1129.914
916.9940, 1141.021
917.4761, 1157.513
917.9583, 1177.988
918.4404, 1208.784
918.9225, 1237.825
919.4046, 1249.406
919.8867, 1250.778
920.3688, 1270.391
920.8510, 1324.826
921.3331, 1365.432
921.8152, 1366.334
922.2973, 1373.880
922.7794, 1417.360
923.2615, 1474.111
923.7437, 1514.799
924.2258, 1539.880
924.7079, 1573.069
925.1900, 1630.194
925.6721, 1682.424
926.1542, 1707.943
926.6364, 1733.265
927.1185, 1777.997
927.6006, 1838.237
928.0827, 1907.293
928.5648, 1982.560
929.0469, 2057.384
929.5291, 2124.865
930.0112, 2194.122
930.4933, 2272.330
930.9754, 2356.418
931.4575, 2438.901
931.9396, 2524.413
932.4218, 2625.534
932.9039, 2747.441
933.3860, 2882.197
933.8681, 3019.689
934.3502, 3168.449
934.8323, 3339.433
935.3145, 3529.504
935.7966, 3725.330
936.2787, 3928.582
936.7608, 4156.978
937.2429, 4419.223
937.7250, 4708.150
938.2072, 5017.315
938.6893, 5347.359
939.1714, 5696.864
939.6535, 6069.310
940.1356, 6476.825
940.6177, 6923.670
941.0999, 7405.999
941.5820, 7922.345
942.0641, 8468.821
942.5462, 9042.655
943.0283, 9640.977
943.5104, 10245.71
943.9926, 10855.80
944.4747, 11500.25
944.9568, 12188.20
945.4389, 12897.09
945.9210, 13611.08
946.4031, 14312.33
946.8853, 14963.00
947.3674, 15563.88
947.8495, 16096.99
948.3316, 16566.52
948.8137, 16908.72
949.2958, 17101.15
949.7780, 17144.86
950.2601, 17035.65
950.7422, 16780.81
951.2243, 16415.88
951.7064, 15939.23
952.1885, 15362.97
952.6707, 14683.76
953.1528, 13927.60
953.6349, 13085.58
954.1170, 12216.17
954.5991, 11382.89
955.0812, 10589.63
955.5634, 9821.709
956.0455, 9069.195
956.5276, 8381.167
957.0097, 7763.325
957.4918, 7199.420
957.9739, 6683.217
958.4561, 6211.369
958.9382, 5781.587
959.4203, 5393.866
959.9024, 5026.427
960.3845, 4669.667
960.8666, 4353.041
961.3488, 4090.592
961.8309, 3856.165
962.3130, 3637.682
962.7951, 3436.250
963.2772, 3252.913
963.7593, 3088.869
964.2415, 2936.548
964.7236, 2796.844
965.2057, 2667.528
965.6878, 2544.513
966.1699, 2434.788
966.6520, 2347.551
967.1342, 2275.174
967.6163, 2200.776
968.0984, 2122.457
968.5805, 2048.309
969.0626, 1976.515
969.5447, 1911.420
970.0269, 1855.176
970.5090, 1805.013
970.9911, 1763.561
971.4732, 1725.790
971.9553, 1677.907
972.4374, 1613.262
972.9196, 1557.733
973.4017, 1518.396
973.8838, 1483.524
974.3659, 1446.434
974.8480, 1414.353
975.3301, 1398.513
975.8123, 1393.043
976.2944, 1378.988
976.7765, 1349.353
977.2586, 1324.617
977.7407, 1313.903
978.2228, 1303.548
978.7050, 1285.743
979.1871, 1266.958
979.6692, 1253.871
980.1513, 1245.795
980.6334, 1238.044
981.1155, 1228.727
981.5977, 1222.630
982.0798, 1221.190
982.5619, 1223.295
983.0440, 1229.395
983.5261, 1238.006
984.0082, 1251.207
984.4904, 1265.701
984.9725, 1268.820
985.4546, 1250.879
985.9367, 1240.479
986.4188, 1255.039
986.9009, 1271.976
987.3831, 1274.592
987.8652, 1274.621
988.3473, 1290.472
988.8294, 1318.203
989.3115, 1334.639
989.7936, 1329.895
990.2758, 1322.035
990.7579, 1319.076
991.2400, 1314.673
991.7221, 1296.244
992.2042, 1279.647
992.6863, 1291.917
993.1685, 1326.338
993.6506, 1343.708
994.1327, 1326.328
994.6148, 1304.571
995.0969, 1289.342
995.5790, 1277.029
996.0612, 1261.855
996.5433, 1250.361
997.0254, 1257.502
997.5075, 1277.668
997.9896, 1281.108
998.4717, 1250.611
998.9539, 1223.911
999.4360, 1223.771
999.9181, 1227.653
1000.400, 1218.084
1000.882, 1204.374
1001.364, 1201.341
1001.847, 1207.278
1002.329, 1207.282
1002.811, 1194.132
1003.293, 1181.144
1003.775, 1173.539
1004.257, 1169.281
1004.739, 1169.509
1005.221, 1170.686
1005.703, 1166.809
1006.186, 1159.528
1006.668, 1157.836
1007.150, 1166.757
1007.632, 1174.657
1008.114, 1177.234
1008.596, 1175.941
1009.078, 1169.472
1009.560, 1161.175
1010.043, 1154.197
1010.525, 1149.117
1011.007, 1145.566
1011.489, 1142.565
1011.971, 1144.285
1012.453, 1157.085
1012.935, 1169.937
1013.417, 1178.304
1013.899, 1181.441
1014.382, 1178.232
1014.864, 1169.327
1015.346, 1154.855
1015.828, 1131.277
1016.310, 1117.984
1016.792, 1129.338
1017.274, 1144.768
1017.756, 1154.484
1018.239, 1161.544
1018.721, 1169.427
1019.203, 1177.888
1019.685, 1185.177
1020.167, 1190.918
1020.649, 1195.330
1021.131, 1198.054
1021.613, 1200.029
1022.095, 1198.449
1022.578, 1199.083
1023.060, 1209.266
1023.542, 1225.627
1024.024, 1238.341
1024.506, 1244.476
1024.988, 1254.261
1025.470, 1273.547
1025.952, 1292.656
1026.435, 1305.720
1026.917, 1319.157
1027.399, 1342.229
1027.881, 1368.387
1028.363, 1381.251
1028.845, 1376.283
1029.327, 1379.264
1029.809, 1394.415
1030.292, 1418.637
1030.774, 1455.998
1031.256, 1497.380
1031.738, 1536.913
1032.220, 1576.115
1032.702, 1618.742
1033.184, 1665.413
1033.666, 1710.387
1034.148, 1751.155
1034.630, 1792.718
1035.113, 1832.630
1035.595, 1877.125
1036.077, 1926.531
1036.559, 1984.128
1037.041, 2056.127
1037.523, 2143.181
1038.005, 2230.743
1038.487, 2313.674
1038.970, 2404.801
1039.452, 2503.773
1039.934, 2613.087
1040.416, 2730.193
1040.898, 2860.340
1041.380, 3013.336
1041.862, 3186.668
1042.344, 3355.956
1042.826, 3515.694
1043.309, 3680.525
1043.791, 3847.161
1044.273, 4025.566
1044.755, 4219.147
1045.237, 4429.500
1045.719, 4663.641
1046.201, 4916.273
1046.683, 5165.134
1047.166, 5415.473
1047.648, 5648.359
1048.130, 5855.108
1048.612, 6074.813
1049.094, 6334.414
1049.576, 6571.216
1050.058, 6730.786
1050.540, 6828.455
1051.022, 6908.764
1051.505, 6976.310
1051.987, 6980.693
1052.469, 6920.661
1052.951, 6799.712
1053.433, 6612.796
1053.915, 6395.163
1054.397, 6167.416
1054.879, 5925.338
1055.361, 5654.847
1055.844, 5359.010
1056.326, 5071.361
1056.808, 4789.884
1057.290, 4493.305
1057.772, 4177.435
1058.254, 3883.701
1058.736, 3634.853
1059.218, 3410.824
1059.701, 3188.039
1060.183, 2969.068
1060.665, 2758.474
1061.147, 2558.531
1061.629, 2385.851
1062.111, 2241.626
1062.593, 2125.423
1063.075, 2035.817
1063.557, 1952.088
1064.040, 1853.741
1064.522, 1752.449
1065.004, 1670.077
1065.486, 1602.273
1065.968, 1540.142
1066.450, 1482.804
1066.932, 1431.345
1067.414, 1385.158
1067.896, 1338.044
1068.379, 1283.473
1068.861, 1235.714
1069.343, 1221.098
1069.825, 1215.593
1070.307, 1182.785
1070.789, 1133.682
1071.271, 1088.391
1071.753, 1053.105
1072.236, 1033.432
1072.718, 1034.084
1073.200, 1034.095
1073.682, 1014.121
1074.164, 991.4861
1074.646, 984.8846
1075.128, 980.9720
1075.610, 958.5477
1076.093, 924.6587
1076.575, 904.6484
1077.057, 905.7745
1077.539, 899.9919
1078.021, 864.4069
1078.503, 833.5234
1078.985, 827.4768
1079.467, 827.6785
1079.949, 818.7172
1080.432, 806.3065
1080.914, 802.6575
1081.396, 808.5574
1081.878, 810.8820
1082.360, 810.6346
1082.842, 801.4999
1083.324, 770.4423
1083.806, 744.7984
1084.288, 738.2361
1084.771, 742.3190
1085.253, 751.0701
1085.735, 762.8209
1086.217, 770.5577
1086.699, 778.4291
1087.181, 769.6686
1087.663, 729.2523
1088.145, 703.4437
1088.628, 709.6151
1089.110, 723.7357
1089.592, 730.3493
1090.074, 730.3785
1090.556, 724.5758
1091.038, 712.4950
1091.520, 709.1929
1092.002, 717.1698
1092.484, 716.9704
1092.967, 704.2615
1093.449, 690.4227
1093.931, 680.2750
1094.413, 676.9285
1094.895, 686.3425
1095.377, 703.2919
1095.859, 708.5118
1096.341, 703.0113
1096.823, 692.0814
1097.306, 677.2745
1097.788, 667.4616
1098.270, 665.3531
1098.752, 666.5150
1099.234, 668.0078
1099.716, 668.5044
1100.198, 667.9867
1100.680, 663.9084
1101.163, 643.2755
1101.645, 616.6951
1102.127, 617.4597
1102.609, 643.0259
1103.091, 653.8629
1103.573, 630.3633
1104.055, 609.0359
1104.537, 627.3674
1105.020, 653.6735
1105.502, 660.8558
1105.984, 657.4960
1106.466, 653.2935
1106.948, 648.3144
1107.430, 638.7614
1107.912, 624.2060
1108.394, 611.5599
1108.876, 602.2897
1109.359, 597.4487
1109.841, 600.8088
1110.323, 604.9623
1110.805, 605.9944
1111.287, 604.8315
1111.769, 600.9191
1112.251, 595.7427
1112.733, 596.8863
1113.215, 611.2147
1113.698, 616.2464
1114.180, 603.2439
1114.662, 594.0620
1115.144, 597.6381
1115.626, 600.1392
1116.108, 589.7252
1116.590, 574.8498
1117.072, 572.1291
1117.555, 581.6432
1118.037, 585.6483
1118.519, 582.8704
1119.001, 581.3112
1119.483, 581.5493
1119.965, 586.7091
1120.447, 599.2837
1120.929, 608.7081
1121.411, 602.9009
1121.894, 588.7905
1122.376, 585.4766
1122.858, 590.3246
1123.340, 588.3134
1123.822, 580.6080
1124.304, 577.9989
1124.786, 582.1362
1125.268, 584.9727
1125.750, 581.8918
1126.233, 576.6386
1126.715, 571.2186
1127.197, 568.0503
1127.679, 572.2749
1128.161, 579.9713
1128.643, 587.0134
1129.125, 591.3598
1129.607, 588.5043
1130.090, 578.2131
1130.572, 570.0939
1131.054, 569.9061
1131.536, 571.3116
1132.018, 573.3638
1132.500, 573.2711
1132.982, 565.7904
1133.464, 557.4965
1133.947, 555.4616
1134.429, 559.8279
1134.911, 569.7114
1135.393, 589.7260
1135.875, 598.9617
1136.357, 586.4278
1136.839, 576.7916
1137.321, 576.7537
1137.803, 576.4988
1138.286, 568.2688
1138.768, 559.4612
1139.250, 562.4894
1139.732, 575.3416
1140.214, 577.2093
1140.696, 565.4389
1141.178, 565.8257
1141.660, 581.8381
1142.142, 587.2689
1142.625, 572.8992
1143.107, 561.2045
1143.589, 570.4362
1144.071, 588.4544
1144.553, 594.1842
1145.035, 591.5017
1145.517, 592.8996
1145.999, 595.9725
1146.482, 590.1420
1146.964, 577.4677
1147.446, 573.1885
1147.928, 582.3575
1148.410, 590.6876
1148.892, 586.0137
1149.374, 578.9856
1149.856, 577.8115
1150.339, 580.0389
1150.821, 584.7277
1151.303, 590.2484
1151.785, 597.3240
1152.267, 603.4742
1152.749, 598.2474
1153.231, 573.8511
1153.713, 559.2776
1154.195, 569.5978
1154.677, 578.7061
1155.160, 581.1689
1155.642, 577.1784
1156.124, 560.1467
1156.606, 542.6100
1157.088, 545.2255
1157.570, 565.6448
1158.052, 575.3507
1158.534, 571.2109
1159.017, 571.0073
1159.499, 576.3869
1159.981, 580.9938
1160.463, 582.9904
1160.945, 583.5349
1161.427, 583.5831
1161.909, 582.0773
1162.391, 575.5737
1162.874, 566.6724
1163.356, 565.5894
1163.838, 569.3992
1164.320, 568.8674
1164.802, 563.6381
1165.284, 554.4597
1165.766, 543.2155
1166.248, 543.6765
1166.730, 571.2206
1167.213, 597.3307
1167.695, 596.6840
1168.177, 586.0314
1168.659, 575.7685
1169.141, 567.7596
1169.623, 562.3923
1170.105, 560.3433
1170.587, 564.5598
1171.069, 576.9145
1171.552, 583.9363
1172.034, 580.8186
1172.516, 576.0946
1172.998, 569.4359
1173.480, 563.8076
1173.962, 561.1500
1174.444, 559.0359
1174.926, 554.3600
1175.409, 548.6274
1175.891, 547.5446
1176.373, 551.5325
1176.855, 553.5298
1177.337, 553.4241
1177.819, 559.1738
1178.301, 571.8956
1178.783, 574.4492
1179.266, 558.4427
1179.748, 542.2698
1180.230, 546.4617
1180.712, 560.2501
1181.194, 569.9213
1181.676, 574.5641
1182.158, 569.3991
1182.640, 559.0977
1183.122, 551.9564
1183.604, 549.7473
1184.087, 553.2388
1184.569, 564.0873
1185.051, 569.8267
1185.533, 559.8391
1186.015, 550.2731
1186.497, 548.0508
1186.979, 548.4509
1187.461, 548.2929
1187.944, 548.6296
1188.426, 552.6868
1188.908, 559.0688
1189.390, 558.2889
1189.872, 545.7757
1190.354, 543.0942
1190.836, 552.6901
1191.318, 562.3375
1191.801, 570.3060
1192.283, 570.3281
1192.765, 557.9133
1193.247, 543.1388
1193.729, 538.8581
1194.211, 541.1055
1194.693, 540.4723
1195.175, 538.3175
1195.657, 538.9659
1196.140, 541.2419
1196.622, 540.8918
1197.104, 537.5375
1197.586, 533.4401
1198.068, 529.2739
1198.550, 527.8892
1199.032, 534.7517
1199.514, 540.1260
1199.996, 535.5722
1200.479, 530.3381
1200.961, 531.7038
1201.443, 537.1116
1201.925, 543.5023
1202.407, 550.1059
1202.889, 553.3395
1203.371, 551.5865
1203.853, 551.8610
1204.336, 555.5647
1204.818, 556.0815
1205.300, 550.8654
1205.782, 548.8221
1206.264, 555.5487
1206.746, 562.0900
1207.228, 557.0295
1207.710, 545.4434
1208.193, 540.0220
1208.675, 538.5655
1209.157, 532.4503
1209.639, 525.1287
1210.121, 530.1974
1210.603, 546.3105
1211.085, 558.1949
1211.567, 559.8216
1212.049, 557.3806
1212.531, 551.1530
1213.014, 546.6999
1213.496, 548.2714
1213.978, 551.1889
1214.460, 555.2527
1214.942, 556.5550
1215.424, 547.3688
1215.906, 531.6476
1216.388, 523.7172
1216.871, 523.9173
1217.353, 532.0830
1217.835, 553.4367
1218.317, 558.5772
1218.799, 540.8416
1219.281, 524.6862
1219.763, 520.0590
1220.245, 522.3536
1220.728, 528.2061
1221.210, 534.9185
1221.692, 539.5436
1222.174, 540.4244
1222.656, 528.2614
1223.138, 512.5320
1223.620, 514.7296
1224.102, 531.2647
1224.584, 547.6533
1225.067, 558.8634
1225.549, 557.2285
1226.031, 527.7610
1226.513, 508.0800
1226.995, 519.4766
1227.477, 531.9655
1227.959, 528.6367
##END=



