##NAMES=Vivianite
##RRUFFID=R050596
##IDEAL CHEMISTRY=Fe^2+^_3_(PO_4_)_2_&#183;8H_2_O
##LOCALITY=Chernomorskiy Quarry, near Kertch City, Crimea Peninsula, Ukraine
##OWNER=RRUFF
##SOURCE=Barb Dutrow
##DESCRIPTION=Group of dark blue elongated prismatic single crystals in a fossilized clam shell
##STATUS=The identification of this mineral has been confirmed by X-ray diffraction and chemical analysis
##URL=rruff.info/R050596
##MEASURED CHEMISTRY=(Fe^2+^_2.89_Mg_0.08_Mn_0.03_)_Σ=3_(P_1.00_O_4_)_2_·8H_2_O
92.06543, 150.5874
92.54755, 151.3240
93.02966, 152.2288
93.51178, 151.9352
93.99390, 150.3267
94.47601, 147.4084
94.95813, 143.7496
95.44025, 140.0694
95.92236, 136.8829
96.40448, 134.1524
96.88660, 132.0922
97.36871, 131.0399
97.85082, 130.3442
98.33294, 129.5802
98.81506, 128.6101
99.29717, 127.4054
99.77929, 126.6022
100.2614, 126.1987
100.7435, 125.6492
101.2256, 124.4732
101.7078, 123.0251
102.1899, 122.1695
102.6720, 122.1748
103.1541, 122.7081
103.6362, 123.2516
104.1183, 123.8017
104.6005, 124.7111
105.0826, 126.5122
105.5647, 129.3793
106.0468, 131.7654
106.5289, 133.7322
107.0110, 134.8496
107.4931, 134.7514
107.9753, 133.3387
108.4574, 130.8143
108.9395, 127.5004
109.4216, 122.8819
109.9037, 118.1765
110.3858, 113.2265
110.8680, 108.3544
111.3501, 103.8529
111.8322, 99.85444
112.3143, 96.40355
112.7964, 93.78296
113.2785, 92.31510
113.7607, 91.22640
114.2428, 90.37826
114.7249, 89.76609
115.2070, 89.42500
115.6891, 89.41238
116.1712, 89.74285
116.6534, 90.10912
117.1355, 90.56541
117.6176, 91.01971
118.0997, 91.27205
118.5818, 91.28185
119.0639, 91.52283
119.5461, 92.56386
120.0282, 94.21568
120.5103, 96.03190
120.9924, 97.98558
121.4745, 100.0067
121.9566, 101.9540
122.4388, 103.8143
122.9209, 105.5747
123.4030, 107.1144
123.8851, 108.5180
124.3672, 110.1089
124.8493, 112.2392
125.3315, 114.9653
125.8136, 117.4626
126.2957, 119.4958
126.7778, 121.3934
127.2599, 123.5634
127.7420, 125.8986
128.2242, 127.7836
128.7063, 128.2872
129.1884, 126.6816
129.6705, 125.0767
130.1526, 123.8510
130.6347, 122.4375
131.1169, 120.2197
131.5990, 117.0410
132.0811, 113.4560
132.5632, 110.6955
133.0453, 109.4145
133.5274, 108.2036
134.0096, 106.7906
134.4917, 105.4523
134.9738, 104.6012
135.4559, 104.4420
135.9380, 104.8631
136.4201, 105.4858
136.9023, 106.2534
137.3844, 107.2322
137.8665, 108.5859
138.3486, 110.2310
138.8307, 111.7793
139.3128, 112.9263
139.7950, 113.8558
140.2771, 114.9698
140.7592, 116.2483
141.2413, 117.7643
141.7234, 119.7216
142.2055, 122.2183
142.6877, 124.6087
143.1698, 126.3276
143.6519, 127.7765
144.1340, 129.4418
144.6161, 131.6385
145.0982, 134.0960
145.5803, 136.0987
146.0625, 137.4263
146.5446, 138.6002
147.0267, 140.0899
147.5088, 141.5546
147.9909, 142.4488
148.4730, 142.3257
148.9552, 141.2393
149.4373, 140.3211
149.9194, 139.8024
150.4015, 139.2411
150.8836, 138.3855
151.3657, 137.3740
151.8479, 136.5405
152.3300, 136.2207
152.8121, 136.5307
153.2942, 136.6243
153.7763, 135.9951
154.2584, 135.6158
154.7406, 136.0479
155.2227, 137.2847
155.7048, 138.8801
156.1869, 140.3141
156.6690, 141.4093
157.1511, 143.1791
157.6333, 145.8628
158.1154, 149.0632
158.5975, 152.5284
159.0796, 156.2158
159.5617, 159.9428
160.0438, 163.5026
160.5260, 166.9133
161.0081, 170.0968
161.4902, 173.2272
161.9723, 176.0822
162.4544, 178.3268
162.9365, 179.9777
163.4187, 180.7170
163.9008, 180.1839
164.3829, 178.4662
164.8650, 176.1081
165.3471, 173.2644
165.8292, 169.9749
166.3113, 166.5262
166.7935, 162.9176
167.2756, 159.1904
167.7577, 155.3171
168.2398, 151.3019
168.7219, 147.3515
169.2040, 143.6046
169.6862, 140.0341
170.1683, 136.8938
170.6504, 134.4001
171.1325, 132.2623
171.6146, 130.3023
172.0967, 128.5041
172.5789, 127.0194
173.0610, 126.1323
173.5431, 126.1384
174.0252, 126.0972
174.5073, 125.7173
174.9894, 125.4015
175.4716, 125.4407
175.9537, 125.9278
176.4358, 126.7605
176.9179, 127.7323
177.4000, 128.7933
177.8821, 130.1104
178.3643, 131.7960
178.8464, 133.6747
179.3285, 135.5630
179.8106, 137.3922
180.2927, 139.2097
180.7748, 141.1321
181.2570, 143.1110
181.7391, 145.2565
182.2212, 147.4644
182.7033, 149.8656
183.1854, 152.6635
183.6675, 155.9730
184.1497, 159.6950
184.6318, 163.5616
185.1139, 167.5961
185.5960, 171.6856
186.0781, 175.6591
186.5602, 179.6231
187.0423, 183.9009
187.5245, 188.6512
188.0066, 193.7913
188.4887, 199.0692
188.9708, 204.4272
189.4529, 209.9231
189.9350, 215.7094
190.4172, 221.7276
190.8993, 227.5908
191.3814, 232.9739
191.8635, 238.1716
192.3456, 243.7401
192.8277, 249.9604
193.3099, 256.0475
193.7920, 261.3396
194.2741, 265.8407
194.7562, 269.5714
195.2383, 272.5437
195.7204, 274.6874
196.2026, 275.8747
196.6847, 276.1305
197.1668, 275.2646
197.6489, 272.8851
198.1310, 268.7218
198.6131, 263.7346
199.0953, 258.2701
199.5774, 252.1598
200.0595, 245.0791
200.5416, 236.8054
201.0237, 227.9268
201.5058, 219.8525
201.9880, 213.1183
202.4701, 206.2130
202.9522, 198.4995
203.4343, 190.6873
203.9164, 183.5340
204.3985, 177.3921
204.8807, 172.0285
205.3628, 166.7704
205.8449, 161.3797
206.3270, 156.5003
206.8091, 152.2282
207.2912, 148.4843
207.7733, 145.1563
208.2555, 142.2034
208.7376, 139.6395
209.2197, 137.5266
209.7018, 135.9743
210.1839, 134.7970
210.6660, 134.1041
211.1482, 133.7580
211.6303, 133.5567
212.1124, 133.3887
212.5945, 133.3232
213.0766, 133.6760
213.5587, 134.9100
214.0409, 135.9800
214.5230, 136.4440
215.0051, 136.6239
215.4872, 137.0557
215.9693, 137.9779
216.4514, 139.3930
216.9336, 141.3699
217.4157, 144.3725
217.8978, 147.2076
218.3799, 149.2697
218.8620, 150.8478
219.3441, 152.7417
219.8263, 155.4188
220.3084, 158.5483
220.7905, 161.2262
221.2726, 163.3650
221.7547, 165.3061
222.2368, 167.1522
222.7190, 168.9216
223.2011, 170.7635
223.6832, 172.9958
224.1653, 175.0679
224.6474, 176.0386
225.1295, 175.6090
225.6117, 174.8334
226.0938, 174.5479
226.5759, 174.6454
227.0580, 174.1853
227.5401, 172.5764
228.0222, 170.3743
228.5043, 168.2774
228.9865, 166.3212
229.4686, 164.5022
229.9507, 163.0099
230.4328, 161.8428
230.9149, 160.2630
231.3970, 157.5567
231.8792, 154.7086
232.3613, 152.6279
232.8434, 151.4668
233.3255, 150.5025
233.8076, 148.9083
234.2897, 146.5955
234.7719, 144.7038
235.2540, 144.0315
235.7361, 143.5038
236.2182, 142.4660
236.7003, 140.8232
237.1824, 138.8810
237.6646, 136.9594
238.1467, 135.0786
238.6288, 133.0325
239.1109, 130.7091
239.5930, 128.2514
240.0751, 125.6938
240.5573, 123.0487
241.0394, 120.3294
241.5215, 117.6006
242.0036, 114.9050
242.4857, 111.9648
242.9678, 108.2771
243.4500, 104.7276
243.9321, 101.8167
244.4142, 99.56229
244.8963, 97.59901
245.3784, 95.51380
245.8605, 93.23771
246.3427, 91.11137
246.8248, 89.05822
247.3069, 87.20836
247.7890, 85.74451
248.2711, 84.60053
248.7532, 83.49778
249.2354, 82.08761
249.7175, 80.22578
250.1996, 78.70429
250.6817, 77.62830
251.1638, 76.75162
251.6459, 76.08274
252.1281, 75.54299
252.6102, 74.94310
253.0923, 74.06738
253.5744, 72.83955
254.0565, 71.83633
254.5386, 71.09708
255.0208, 70.49551
255.5029, 70.07681
255.9850, 69.76823
256.4671, 69.36987
256.9492, 68.67976
257.4313, 67.65426
257.9135, 66.87307
258.3956, 66.32783
258.8777, 65.96879
259.3598, 65.90719
259.8419, 66.03978
260.3240, 66.10041
260.8062, 65.88891
261.2883, 65.40504
261.7704, 64.84195
262.2525, 63.88282
262.7346, 63.16895
263.2167, 63.14060
263.6989, 63.59585
264.1810, 63.98302
264.6631, 63.94379
265.1452, 63.52709
265.6273, 63.17281
266.1094, 62.68249
266.5916, 62.44329
267.0737, 62.88700
267.5558, 63.70814
268.0379, 64.14254
268.5200, 63.69851
269.0021, 62.63670
269.4843, 62.06118
269.9664, 62.29121
270.4485, 62.50255
270.9306, 62.31240
271.4127, 61.91881
271.8948, 61.78293
272.3770, 62.15941
272.8591, 62.81614
273.3412, 63.16408
273.8233, 63.23061
274.3054, 63.05018
274.7875, 62.46629
275.2697, 61.66009
275.7518, 60.97720
276.2339, 60.54737
276.7160, 60.26331
277.1981, 59.92262
277.6802, 59.49130
278.1623, 59.14836
278.6444, 58.98830
279.1266, 58.93834
279.6087, 58.91162
280.0908, 58.91126
280.5729, 58.83615
281.0550, 58.46267
281.5371, 57.78696
282.0193, 57.22730
282.5014, 56.99858
282.9835, 56.91124
283.4656, 56.65650
283.9477, 56.15453
284.4298, 55.64787
284.9120, 55.43284
285.3941, 55.46821
285.8762, 55.49156
286.3583, 55.41648
286.8404, 55.31651
287.3225, 55.30659
287.8047, 55.40905
288.2868, 55.48096
288.7689, 55.34402
289.2510, 55.07214
289.7331, 54.93069
290.2152, 55.06762
290.6974, 55.29131
291.1795, 55.38236
291.6616, 55.33181
292.1437, 55.32578
292.6258, 55.51356
293.1079, 55.82513
293.5901, 56.08882
294.0722, 56.27422
294.5543, 56.42310
295.0364, 56.56725
295.5185, 56.70668
296.0006, 56.82320
296.4828, 56.85854
296.9649, 56.90139
297.4470, 57.09731
297.9291, 57.48971
298.4112, 57.94365
298.8933, 58.40157
299.3755, 58.85320
299.8576, 59.25020
300.3397, 59.58447
300.8218, 59.83919
301.3039, 60.00884
301.7860, 60.09054
302.2682, 60.11486
302.7503, 60.05105
303.2324, 59.93497
303.7145, 59.92267
304.1966, 60.13456
304.6787, 60.30627
305.1609, 60.10465
305.6430, 59.57470
306.1251, 59.08526
306.6072, 58.83477
307.0893, 58.73200
307.5714, 58.60450
308.0536, 58.46062
308.5357, 58.21572
309.0178, 57.73566
309.4999, 57.09162
309.9820, 56.45704
310.4641, 55.83782
310.9463, 55.28122
311.4284, 54.91599
311.9105, 54.78857
312.3926, 54.61052
312.8747, 54.05330
313.3568, 53.34322
313.8390, 52.90477
314.3211, 52.95839
314.8032, 53.16800
315.2853, 53.17966
315.7674, 52.98923
316.2495, 52.81608
316.7317, 52.79443
317.2138, 52.82697
317.6959, 52.74614
318.1780, 52.48436
318.6601, 52.25502
319.1422, 52.23512
319.6243, 52.40074
320.1064, 52.58231
320.5886, 52.70321
321.0707, 52.85270
321.5528, 53.19047
322.0349, 53.74086
322.5170, 54.16768
322.9991, 54.20863
323.4813, 53.98400
323.9634, 53.82506
324.4455, 53.78151
324.9276, 53.83733
325.4097, 54.04686
325.8918, 54.37224
326.3740, 54.59742
326.8561, 54.55683
327.3382, 54.40110
327.8203, 54.34148
328.3024, 54.38279
328.7845, 54.57830
329.2667, 55.09412
329.7488, 55.79924
330.2309, 56.36935
330.7130, 56.67933
331.1951, 56.87275
331.6772, 57.03132
332.1594, 57.15726
332.6415, 57.41372
333.1236, 57.96332
333.6057, 58.67186
334.0878, 59.24256
334.5699, 59.61814
335.0521, 59.93836
335.5342, 60.29761
336.0163, 60.67832
336.4984, 61.02240
336.9805, 61.32361
337.4626, 61.55339
337.9448, 61.66377
338.4269, 61.65319
338.9090, 61.59323
339.3911, 61.55127
339.8732, 61.47283
340.3553, 61.20948
340.8375, 60.69236
341.3196, 60.15719
341.8017, 59.94411
342.2838, 60.01473
342.7659, 59.90429
343.2480, 59.43331
343.7302, 58.79028
344.2123, 58.17876
344.6944, 57.61578
345.1765, 57.00126
345.6586, 56.27225
346.1407, 55.41896
346.6229, 54.47448
347.1050, 53.23586
347.5871, 52.09595
348.0692, 51.40928
348.5513, 51.06195
349.0334, 50.57268
349.5156, 49.66444
349.9977, 48.51870
350.4798, 47.63714
350.9619, 47.05527
351.4440, 46.59883
351.9261, 46.40254
352.4083, 46.26067
352.8904, 45.74188
353.3725, 44.67836
353.8546, 43.49957
354.3367, 42.86087
354.8188, 42.91707
355.3010, 42.85841
355.7831, 42.53913
356.2652, 42.12250
356.7473, 41.74921
357.2294, 41.43542
357.7115, 41.12303
358.1937, 40.76162
358.6758, 40.34805
359.1579, 39.91237
359.6400, 39.40132
360.1221, 38.92083
360.6042, 38.52038
361.0863, 38.19286
361.5685, 37.90059
362.0506, 37.60748
362.5327, 37.35612
363.0148, 37.33440
363.4969, 37.93872
363.9790, 38.26287
364.4612, 37.92599
364.9433, 37.33670
365.4254, 37.01852
365.9075, 37.13821
366.3896, 37.45358
366.8717, 37.58254
367.3539, 37.45126
367.8360, 37.27654
368.3181, 36.95917
368.8002, 36.67749
369.2823, 36.57103
369.7644, 36.63281
370.2466, 36.76189
370.7287, 36.88726
371.2108, 37.01842
371.6929, 36.95423
372.1750, 36.28868
372.6571, 35.87366
373.1393, 36.18859
373.6214, 36.89449
374.1035, 37.39931
374.5856, 37.37014
375.0677, 36.95133
375.5498, 36.59935
376.0320, 36.27899
376.5141, 36.09494
376.9962, 36.17751
377.4783, 36.31634
377.9604, 36.29094
378.4425, 36.06331
378.9247, 35.81419
379.4068, 35.81326
379.8889, 36.15745
380.3710, 36.41150
380.8531, 36.57756
381.3352, 36.65150
381.8174, 36.58635
382.2995, 36.41802
382.7816, 36.24176
383.2637, 36.13917
383.7458, 36.09124
384.2279, 35.95256
384.7101, 35.59350
385.1922, 35.34751
385.6743, 35.34241
386.1564, 35.47825
386.6385, 35.64390
387.1206, 35.79969
387.6028, 35.94932
388.0849, 36.11873
388.5670, 36.33043
389.0491, 36.45081
389.5312, 36.38652
390.0133, 36.26015
390.4955, 36.14042
390.9776, 36.03456
391.4597, 35.92747
391.9418, 35.76970
392.4239, 35.58544
392.9060, 35.53778
393.3882, 35.70240
393.8703, 35.89212
394.3524, 36.00311
394.8345, 36.04825
395.3166, 36.04186
395.7987, 35.91752
396.2809, 35.80118
396.7630, 35.91575
397.2451, 36.28106
397.7272, 36.58333
398.2093, 36.66219
398.6914, 36.60421
399.1736, 36.56843
399.6557, 36.58378
400.1378, 36.54247
400.6199, 36.32536
401.1020, 36.00114
401.5841, 35.73731
402.0662, 35.55553
402.5483, 35.49407
403.0305, 35.66481
403.5126, 36.05040
403.9947, 36.37578
404.4768, 36.55074
404.9589, 36.67249
405.4410, 36.83371
405.9232, 37.03437
406.4053, 37.22703
406.8874, 37.39475
407.3695, 37.52302
407.8516, 37.55074
408.3337, 37.22966
408.8159, 37.10706
409.2980, 37.54695
409.7801, 38.24874
410.2622, 38.71070
410.7443, 38.76073
411.2264, 38.60957
411.7086, 38.59130
412.1907, 38.76938
412.6728, 38.93658
413.1549, 39.15536
413.6370, 39.31514
414.1191, 39.29612
414.6013, 39.13114
415.0834, 38.96606
415.5655, 38.91204
416.0476, 38.96623
416.5297, 39.08507
417.0118, 39.30053
417.4940, 39.54653
417.9761, 39.84484
418.4582, 40.15676
418.9403, 40.45337
419.4224, 40.72234
419.9045, 40.92354
420.3867, 40.94958
420.8688, 40.65621
421.3509, 40.57724
421.8330, 40.86462
422.3151, 41.24786
422.7972, 41.65913
423.2794, 42.04979
423.7615, 42.32676
424.2436, 42.36387
424.7257, 42.21613
425.2078, 42.26865
425.6899, 42.62717
426.1721, 43.00641
426.6542, 43.39002
427.1363, 43.70289
427.6184, 43.79206
428.1005, 43.56202
428.5826, 43.34358
429.0648, 43.60254
429.5469, 44.34751
430.0290, 44.99690
430.5111, 45.30645
430.9932, 45.61631
431.4753, 46.27288
431.9575, 47.23145
432.4396, 48.12537
432.9217, 48.75415
433.4038, 49.21338
433.8859, 49.63324
434.3680, 50.00760
434.8502, 50.44481
435.3323, 51.01937
435.8144, 51.71309
436.2965, 52.45039
436.7786, 53.22623
437.2607, 54.04877
437.7429, 54.93528
438.2250, 55.86834
438.7071, 56.81465
439.1892, 57.76585
439.6713, 58.70666
440.1534, 59.57298
440.6356, 60.30194
441.1177, 61.28326
441.5998, 62.76869
442.0819, 64.32596
442.5640, 65.61536
443.0461, 66.66473
443.5282, 67.72647
444.0103, 68.97001
444.4925, 70.35339
444.9746, 71.62810
445.4567, 72.52287
445.9388, 73.64370
446.4209, 75.26090
446.9030, 77.01885
447.3852, 78.52930
447.8673, 79.70570
448.3494, 80.83097
448.8315, 82.29580
449.3136, 84.20287
449.7957, 85.92758
450.2779, 87.59998
450.7600, 88.95985
451.2421, 89.76398
451.7242, 90.20055
452.2063, 90.63437
452.6884, 91.27937
453.1706, 91.98542
453.6527, 92.39080
454.1348, 92.45263
454.6169, 92.34435
455.0990, 92.08920
455.5811, 91.68267
456.0633, 91.10430
456.5454, 90.35457
457.0275, 89.45895
457.5096, 88.42091
457.9917, 87.25082
458.4738, 85.97620
458.9560, 84.60986
459.4381, 83.09838
459.9202, 81.32213
460.4023, 79.38519
460.8844, 77.44786
461.3665, 75.46617
461.8487, 73.60244
462.3308, 72.12959
462.8129, 70.90393
463.2950, 69.36698
463.7771, 67.25085
464.2592, 64.97192
464.7414, 63.13503
465.2235, 61.79758
465.7056, 60.41823
466.1877, 58.80966
466.6698, 57.21859
467.1519, 55.82247
467.6341, 54.62497
468.1162, 53.61314
468.5983, 52.80922
469.0804, 52.13929
469.5625, 51.29255
470.0446, 49.99188
470.5268, 48.86609
471.0089, 47.98525
471.4910, 47.28936
471.9731, 46.74308
472.4552, 46.33027
472.9373, 46.03986
473.4195, 45.89626
473.9016, 45.92414
474.3837, 45.76518
474.8658, 45.25305
475.3479, 44.72603
475.8300, 44.22715
476.3122, 43.78822
476.7943, 43.44402
477.2764, 43.21371
477.7585, 43.06200
478.2406, 42.92807
478.7227, 42.80626
479.2049, 42.76690
479.6870, 42.92998
480.1691, 43.06746
480.6512, 42.94239
481.1333, 42.62190
481.6154, 42.42788
482.0976, 42.72159
482.5797, 43.14266
483.0618, 43.06438
483.5439, 42.46983
484.0260, 41.83754
484.5081, 41.31075
484.9902, 40.95856
485.4724, 40.92330
485.9545, 41.30854
486.4366, 41.67807
486.9187, 41.89082
487.4008, 42.00024
487.8829, 42.07331
488.3651, 42.12154
488.8472, 42.11496
489.3293, 41.99628
489.8114, 41.76714
490.2935, 41.77568
490.7756, 42.24295
491.2578, 42.64358
491.7399, 42.80410
492.2220, 42.82123
492.7041, 42.79833
493.1862, 42.77876
493.6683, 42.80660
494.1505, 42.97146
494.6326, 43.34248
495.1147, 43.57491
495.5968, 43.52605
496.0789, 43.47380
496.5610, 43.48792
497.0432, 43.57697
497.5253, 43.74086
498.0074, 43.97986
498.4895, 44.28910
498.9716, 44.71277
499.4537, 45.29773
499.9359, 45.69041
500.4180, 45.63827
500.9001, 45.51843
501.3822, 45.64271
501.8643, 46.00059
502.3464, 46.41048
502.8286, 46.83842
503.3107, 47.24615
503.7928, 47.57568
504.2749, 47.82448
504.7570, 48.03268
505.2391, 48.21096
505.7213, 48.36950
506.2034, 48.52636
506.6855, 48.66064
507.1676, 48.83940
507.6497, 49.13511
508.1318, 49.45531
508.6140, 49.66158
509.0961, 49.75201
509.5782, 49.87219
510.0603, 50.14796
510.5424, 50.57298
511.0245, 51.03144
511.5067, 51.65206
511.9888, 52.14803
512.4709, 52.36203
512.9530, 52.48393
513.4351, 52.76029
513.9172, 53.23755
514.3994, 53.70037
514.8815, 53.79027
515.3636, 53.44600
515.8457, 53.58442
516.3278, 54.54668
516.8099, 55.55637
517.2921, 56.47711
517.7742, 57.18472
518.2563, 57.40572
518.7384, 56.92321
519.2205, 56.36691
519.7026, 56.44777
520.1848, 57.10152
520.6669, 57.86349
521.1490, 58.70610
521.6311, 59.49413
522.1132, 60.03347
522.5953, 60.37078
523.0775, 60.72984
523.5596, 61.16792
524.0417, 61.61947
524.5238, 62.10112
525.0059, 62.55951
525.4880, 62.78431
525.9702, 62.65478
526.4523, 62.48816
526.9344, 62.87011
527.4165, 64.16379
527.8986, 65.05053
528.3807, 65.33130
528.8629, 65.43054
529.3450, 65.50152
529.8271, 65.58427
530.3092, 65.69492
530.7913, 65.83964
531.2734, 66.03475
531.7556, 66.34638
532.2377, 66.84860
532.7198, 67.25468
533.2019, 67.46706
533.6840, 67.61615
534.1661, 67.75617
534.6483, 67.89426
535.1304, 68.03287
535.6125, 68.18889
536.0946, 68.33701
536.5767, 68.44613
537.0588, 68.51817
537.5410, 68.49876
538.0231, 68.32818
538.5052, 68.09061
538.9873, 67.89133
539.4694, 67.71205
539.9515, 67.67004
540.4337, 67.94820
540.9158, 68.27792
541.3979, 68.43106
541.8800, 68.38640
542.3621, 68.13418
542.8442, 67.63290
543.3264, 66.98943
543.8085, 66.56944
544.2906, 66.62047
544.7726, 66.56154
545.2548, 66.40920
545.7369, 66.12879
546.2190, 65.65016
546.7011, 65.01028
547.1832, 64.32800
547.6653, 63.68894
548.1475, 63.08998
548.6296, 62.52700
549.1117, 61.99336
549.5938, 61.51525
550.0759, 61.23255
550.5580, 60.92057
551.0402, 60.30182
551.5223, 59.38721
552.0044, 58.65179
552.4865, 58.56647
552.9686, 58.76492
553.4507, 58.55940
553.9329, 57.92013
554.4150, 57.25204
554.8971, 56.75293
555.3792, 56.37519
555.8613, 55.99529
556.3434, 55.55783
556.8256, 55.24992
557.3077, 55.12581
557.7898, 55.13135
558.2719, 55.26691
558.7540, 55.49872
559.2361, 55.74513
559.7183, 55.96863
560.2004, 56.12581
560.6825, 56.00764
561.1646, 55.31389
561.6467, 54.86355
562.1288, 54.84546
562.6110, 54.97635
563.0931, 55.07976
563.5752, 55.13833
564.0573, 55.20173
564.5394, 55.25902
565.0215, 55.37037
565.5037, 55.74164
565.9858, 56.42327
566.4679, 57.05713
566.9500, 57.58916
567.4321, 57.93242
567.9142, 57.95300
568.3964, 57.62871
568.8785, 57.31624
569.3606, 57.12374
569.8427, 57.00677
570.3248, 57.00882
570.8069, 57.07211
571.2891, 56.94418
571.7712, 56.47929
572.2533, 55.76681
572.7354, 55.03513
573.2175, 54.33241
573.6996, 53.51026
574.1818, 52.42440
574.6639, 51.35059
575.1460, 50.43569
575.6281, 49.67475
576.1102, 49.02808
576.5923, 48.48386
577.0745, 47.99757
577.5566, 47.47947
578.0387, 46.93280
578.5208, 46.33455
579.0029, 45.61003
579.4850, 44.91475
579.9672, 44.35057
580.4493, 43.91035
580.9314, 43.55944
581.4135, 43.37780
581.8956, 43.20345
582.3777, 42.84306
582.8599, 42.34655
583.3420, 41.88729
583.8241, 41.51651
584.3062, 41.24004
584.7883, 41.07413
585.2704, 41.04170
585.7526, 41.01803
586.2347, 41.11567
586.7168, 41.10260
587.1989, 40.79131
587.6810, 40.32941
588.1631, 39.95138
588.6453, 39.74347
589.1274, 39.61497
589.6095, 39.44896
590.0916, 39.24361
590.5737, 38.99035
591.0558, 38.50461
591.5380, 38.24883
592.0201, 38.64176
592.5022, 39.31225
592.9843, 39.70206
593.4664, 39.64858
593.9485, 39.40644
594.4307, 39.05519
594.9128, 38.67585
595.3949, 38.49238
595.8770, 38.54779
596.3591, 38.61938
596.8412, 38.52862
597.3234, 38.30438
597.8055, 38.15868
598.2876, 38.09078
598.7697, 38.08836
599.2518, 38.20258
599.7339, 38.34711
600.2161, 38.44032
600.6982, 38.47596
601.1803, 38.50016
601.6624, 38.55538
602.1445, 38.62490
602.6266, 38.61165
603.1088, 38.44746
603.5909, 38.37830
604.0730, 38.58052
604.5551, 38.81883
605.0372, 38.94216
605.5193, 38.94149
606.0015, 38.84234
606.4836, 38.52858
606.9657, 38.20405
607.4478, 38.15778
607.9299, 38.35273
608.4120, 38.54768
608.8942, 38.64062
609.3763, 38.71618
609.8584, 38.92501
610.3405, 39.34791
610.8226, 39.59172
611.3047, 39.60480
611.7869, 39.50255
612.2690, 39.27948
612.7511, 38.99486
613.2332, 38.71157
613.7153, 38.45642
614.1974, 38.27037
614.6796, 38.19500
615.1617, 38.22851
615.6438, 38.46870
616.1259, 39.20121
616.6080, 39.64904
617.0901, 39.04621
617.5723, 38.04290
618.0544, 37.62597
618.5365, 38.10102
619.0186, 38.62014
619.5007, 38.75180
619.9828, 38.59256
620.4650, 38.19510
620.9471, 37.60099
621.4292, 37.09106
621.9113, 36.83147
622.3934, 36.82872
622.8755, 37.12059
623.3577, 38.24095
623.8398, 38.87891
624.3219, 38.81660
624.8040, 38.44955
625.2861, 37.88144
625.7682, 37.23543
626.2504, 36.72276
626.7325, 36.47503
627.2145, 36.40919
627.6967, 36.36578
628.1788, 36.34024
628.6609, 36.50241
629.1430, 37.07770
629.6251, 37.54609
630.1072, 37.26369
630.5894, 36.44338
631.0715, 35.84558
631.5536, 35.63919
632.0357, 35.61493
632.5178, 35.82713
632.9999, 36.09579
633.4821, 36.08963
633.9642, 35.75850
634.4463, 35.37570
634.9284, 35.21477
635.4105, 35.25181
635.8926, 35.12348
636.3748, 34.55648
636.8569, 34.26990
637.3390, 34.62971
637.8211, 35.10847
638.3032, 35.30008
638.7853, 35.17657
639.2675, 34.93006
639.7496, 34.59583
640.2317, 34.26310
640.7138, 34.08917
641.1959, 34.06538
641.6780, 34.06083
642.1602, 34.02225
642.6423, 34.01039
643.1244, 34.14010
643.6065, 34.46004
644.0886, 34.57531
644.5707, 34.36562
645.0529, 34.08652
645.5350, 33.72466
646.0171, 33.40527
646.4992, 33.32510
646.9813, 33.52055
647.4634, 33.80669
647.9456, 34.02007
648.4277, 34.15359
648.9098, 34.09774
649.3919, 33.77727
649.8740, 33.46014
650.3561, 33.19642
650.8383, 33.02535
651.3204, 33.03638
651.8025, 33.24490
652.2846, 33.39417
652.7667, 33.37157
653.2488, 33.25636
653.7310, 33.08719
654.2131, 32.88982
654.6952, 32.73265
655.1773, 32.64518
655.6594, 32.59602
656.1415, 32.53654
656.6237, 32.46417
657.1058, 32.39457
657.5879, 32.30665
658.0700, 32.24626
658.5521, 32.22876
659.0342, 32.24475
659.5164, 32.30155
659.9985, 32.39910
660.4806, 32.46098
660.9627, 32.33326
661.4448, 32.14501
661.9269, 32.26250
662.4091, 32.70471
662.8912, 33.07604
663.3733, 33.19068
663.8554, 33.11679
664.3375, 32.96331
664.8196, 32.65592
665.3018, 32.49115
665.7839, 32.62532
666.2660, 32.75260
666.7481, 32.67034
667.2302, 32.47732
667.7123, 32.35201
668.1945, 32.36108
668.6766, 32.45684
669.1587, 32.58490
669.6408, 32.74597
670.1229, 32.98603
670.6050, 33.38198
671.0872, 33.62513
671.5693, 33.48522
672.0514, 33.13129
672.5335, 32.85401
673.0156, 32.66746
673.4977, 32.50642
673.9799, 32.25908
674.4620, 32.10729
674.9441, 32.33047
675.4262, 32.78031
675.9083, 33.02040
676.3904, 32.85715
676.8726, 32.52672
677.3547, 32.42023
677.8368, 32.58278
678.3189, 32.66955
678.8010, 32.63828
679.2831, 32.59166
679.7653, 32.54960
680.2474, 32.52605
680.7295, 32.54353
681.2116, 32.60794
681.6937, 32.68397
682.1758, 32.80983
682.6580, 32.90216
683.1401, 32.77368
683.6222, 32.48136
684.1043, 32.37549
684.5864, 32.64400
685.0685, 33.00954
685.5507, 32.95541
686.0328, 32.30069
686.5149, 31.95208
686.9970, 32.14403
687.4791, 32.38647
687.9612, 32.55568
688.4434, 32.68763
688.9255, 32.85730
689.4076, 33.07838
689.8897, 33.23833
690.3718, 33.23411
690.8539, 33.11436
691.3361, 32.92137
691.8182, 32.66791
692.3003, 32.55940
692.7824, 32.71842
693.2645, 32.97261
693.7466, 33.04173
694.2288, 32.86661
694.7109, 32.74796
695.1930, 32.66524
695.6751, 32.65792
696.1572, 32.86120
696.6393, 33.08928
697.1215, 33.05061
697.6036, 32.70797
698.0857, 32.38988
698.5678, 32.47082
699.0499, 32.78719
699.5320, 32.84119
700.0142, 32.62208
700.4963, 32.33837
700.9784, 31.98471
701.4605, 31.74554
701.9426, 31.93953
702.4247, 32.64898
702.9069, 33.14181
703.3890, 33.37857
703.8711, 33.43289
704.3532, 33.24496
704.8353, 32.93598
705.3174, 32.55716
705.7996, 32.17548
706.2817, 32.02193
706.7638, 32.42141
707.2459, 33.13660
707.7280, 33.35279
708.2101, 33.00990
708.6923, 32.72421
709.1743, 32.67525
709.6564, 32.73199
710.1385, 32.74995
710.6207, 32.73740
711.1028, 32.80589
711.5849, 33.11213
712.0670, 33.32299
712.5491, 33.25557
713.0313, 33.05802
713.5134, 32.83757
713.9955, 32.65125
714.4776, 32.63429
714.9597, 32.94540
715.4418, 33.38830
715.9240, 33.34750
716.4061, 32.74019
716.8882, 32.39137
717.3703, 32.55259
717.8524, 32.85701
718.3345, 33.00182
718.8167, 33.04259
719.2988, 33.18423
719.7809, 33.61895
720.2630, 33.88643
720.7451, 33.72584
721.2272, 33.39704
721.7094, 33.12092
722.1915, 32.93039
722.6736, 32.78539
723.1557, 32.65797
723.6378, 32.58857
724.1199, 32.68287
724.6021, 32.95661
725.0842, 33.20941
725.5663, 33.44773
726.0484, 33.61251
726.5305, 33.65116
727.0126, 33.59275
727.4948, 33.47477
727.9769, 33.24188
728.4590, 33.12178
728.9411, 33.17764
729.4232, 33.37541
729.9053, 33.81853
730.3875, 34.36788
730.8696, 34.69569
731.3517, 34.66502
731.8338, 34.46601
732.3159, 34.34735
732.7980, 34.30935
733.2802, 34.27380
733.7623, 34.21796
734.2444, 34.23363
734.7265, 34.41064
735.2086, 34.64411
735.6907, 34.79244
736.1729, 34.85255
736.6550, 34.86995
737.1371, 34.84615
737.6192, 34.78996
738.1013, 34.64566
738.5834, 34.49493
739.0656, 34.49702
739.5477, 34.67075
740.0298, 34.84643
740.5119, 34.85138
740.9940, 34.73077
741.4761, 34.67703
741.9583, 34.70094
742.4404, 34.73303
742.9225, 34.77008
743.4046, 34.78876
743.8867, 34.71145
744.3688, 34.57441
744.8510, 34.60183
745.3331, 35.07069
745.8152, 35.38161
746.2973, 35.21107
746.7794, 34.87494
747.2615, 34.65341
747.7437, 34.58686
748.2258, 34.62885
748.7079, 34.76078
749.1900, 34.94250
749.6721, 35.11147
750.1542, 35.26773
750.6364, 35.39045
751.1185, 35.47533
751.6006, 35.53565
752.0827, 35.60096
752.5648, 35.63893
753.0469, 35.54886
753.5291, 35.26601
754.0112, 35.03937
754.4933, 34.87452
754.9754, 34.79831
755.4575, 34.88603
755.9396, 35.05613
756.4218, 35.17818
756.9039, 35.20860
757.3860, 35.18196
757.8681, 35.10416
758.3502, 34.99987
758.8323, 34.97545
759.3145, 35.03583
759.7966, 35.05986
760.2787, 34.99276
760.7608, 34.89156
761.2429, 34.80996
761.7250, 34.74031
762.2072, 34.79654
762.6893, 35.13084
763.1714, 35.38535
763.6535, 35.41391
764.1356, 35.37190
764.6177, 35.40577
765.0999, 35.51474
765.5820, 35.60511
766.0641, 35.61779
766.5462, 35.59820
767.0283, 35.61272
767.5104, 35.64635
767.9926, 35.63947
768.4747, 35.58146
768.9568, 35.50309
769.4389, 35.42069
769.9210, 35.34135
770.4031, 35.28748
770.8853, 35.22683
771.3674, 35.25673
771.8495, 35.54337
772.3316, 35.73824
772.8137, 35.60665
773.2958, 35.32149
773.7780, 35.16740
774.2601, 35.21693
774.7422, 35.24616
775.2243, 35.01709
775.7064, 34.75365
776.1885, 34.78465
776.6707, 35.04429
777.1528, 35.25259
777.6349, 35.31222
778.1170, 35.35161
778.5991, 35.54308
779.0812, 35.87211
779.5634, 36.02435
780.0455, 35.94268
780.5276, 35.80854
781.0097, 35.59170
781.4918, 35.40101
781.9739, 35.34467
782.4561, 35.39100
782.9382, 35.40696
783.4203, 35.34089
783.9024, 35.27117
784.3845, 35.18953
784.8666, 35.15300
785.3488, 35.29577
785.8309, 35.56004
786.3130, 35.71657
786.7951, 35.63768
787.2772, 35.41200
787.7593, 35.11496
788.2415, 34.75525
788.7236, 34.70506
789.2057, 35.06791
789.6878, 35.40874
790.1699, 35.45265
790.6520, 35.41256
791.1342, 35.70444
791.6162, 36.41875
792.0983, 36.89819
792.5804, 36.98125
793.0626, 36.97055
793.5447, 36.93930
794.0268, 36.90620
794.5089, 36.86942
794.9910, 36.83916
795.4731, 36.85861
795.9553, 36.97594
796.4374, 37.13043
796.9195, 37.21650
797.4016, 37.25503
797.8837, 37.35596
798.3658, 37.54273
798.8480, 37.69006
799.3301, 37.69215
799.8122, 37.60562
800.2943, 37.61814
800.7764, 37.76060
801.2585, 37.93592
801.7407, 38.27969
802.2228, 38.50671
802.7049, 38.35265
803.1870, 38.08261
803.6691, 38.08980
804.1512, 38.44966
804.6334, 38.85781
805.1155, 39.20872
805.5976, 39.50275
806.0797, 39.69265
806.5618, 39.83558
807.0439, 40.10056
807.5261, 40.50872
808.0082, 40.83455
808.4903, 40.84920
808.9724, 40.63137
809.4545, 40.43904
809.9366, 40.24564
810.4188, 40.28069
810.9009, 40.68894
811.3830, 41.12633
811.8651, 41.32167
812.3472, 41.34363
812.8293, 41.44929
813.3115, 41.69198
813.7936, 41.90216
814.2757, 41.97262
814.7578, 42.08590
815.2399, 42.46234
815.7220, 42.92112
816.2042, 43.06970
816.6863, 42.82507
817.1684, 42.69278
817.6505, 43.32444
818.1326, 44.25293
818.6147, 44.55263
819.0969, 44.32216
819.5790, 44.10775
820.0611, 44.06050
820.5432, 44.13257
821.0253, 44.28739
821.5074, 44.51702
821.9896, 44.77427
822.4717, 45.10597
822.9538, 45.36283
823.4359, 45.52987
823.9180, 45.61345
824.4001, 45.51123
824.8823, 45.35717
825.3644, 45.44126
825.8465, 45.88274
826.3286, 46.25116
826.8107, 46.35284
827.2928, 46.34678
827.7750, 46.27934
828.2571, 46.22703
828.7392, 46.37916
829.2213, 46.75607
829.7034, 47.04653
830.1855, 46.87611
830.6677, 46.45450
831.1498, 46.41191
831.6319, 46.73732
832.1140, 47.06647
832.5961, 47.33291
833.0782, 47.52225
833.5604, 47.63499
834.0425, 47.65721
834.5246, 47.51984
835.0067, 46.98208
835.4888, 46.70039
835.9709, 46.92013
836.4531, 47.11155
836.9352, 46.96325
837.4173, 46.67635
837.8994, 46.55172
838.3815, 46.64707
838.8636, 46.82623
839.3458, 47.21204
839.8279, 47.48035
840.3100, 47.15996
840.7921, 46.55227
841.2742, 46.31203
841.7563, 46.53211
842.2385, 46.73487
842.7206, 46.50664
843.2027, 46.07116
843.6848, 46.05632
844.1669, 46.47352
844.6490, 46.69869
845.1312, 46.62885
845.6133, 46.44429
846.0954, 46.19995
846.5775, 45.95618
847.0596, 45.85495
847.5417, 45.95688
848.0239, 46.01522
848.5060, 46.20076
848.9881, 46.13793
849.4702, 45.45428
849.9523, 44.62560
850.4344, 44.08643
850.9166, 43.89948
851.3987, 44.01970
851.8808, 44.71864
852.3629, 45.30613
852.8450, 45.00149
853.3271, 44.30388
853.8093, 44.07094
854.2914, 44.30848
854.7735, 44.46624
855.2556, 44.23826
855.7377, 43.83298
856.2198, 43.60188
856.7020, 43.53460
857.1841, 43.35561
857.6662, 43.02826
858.1483, 42.76960
858.6304, 42.65750
859.1125, 42.65827
859.5947, 42.78783
860.0768, 43.04752
860.5589, 43.05599
861.0410, 42.53268
861.5231, 42.16182
862.0052, 42.12101
862.4874, 42.16170
862.9695, 42.07152
863.4516, 41.93871
863.9337, 42.03601
864.4158, 42.50244
864.8979, 42.82929
865.3801, 42.62872
865.8622, 42.19105
866.3443, 41.74967
866.8264, 41.34670
867.3085, 41.06233
867.7906, 40.90625
868.2728, 40.74984
868.7549, 40.44372
869.2370, 40.08802
869.7191, 40.01398
870.2012, 40.21911
870.6833, 40.34555
871.1655, 40.33167
871.6476, 40.22776
872.1297, 40.00793
872.6118, 39.79149
873.0939, 39.92400
873.5760, 40.68368
874.0581, 40.96714
874.5402, 40.25545
875.0223, 39.68507
875.5045, 39.71384
875.9866, 39.92770
876.4687, 39.86915
876.9508, 39.55029
877.4329, 39.36433
877.9150, 39.57788
878.3972, 39.77602
878.8793, 39.71060
879.3614, 39.53314
879.8435, 39.42247
880.3256, 39.36099
880.8077, 39.19127
881.2899, 38.83910
881.7720, 38.54816
882.2541, 38.68498
882.7362, 39.09348
883.2183, 39.32111
883.7004, 39.37159
884.1826, 39.36482
884.6647, 39.33308
885.1468, 39.29947
885.6289, 39.27825
886.1110, 39.28075
886.5931, 39.38864
887.0753, 39.67999
887.5574, 39.82850
888.0395, 39.66687
888.5216, 39.56692
889.0037, 39.90810
889.4858, 40.36440
889.9680, 40.34529
890.4501, 39.74955
890.9322, 39.25684
891.4143, 38.82561
891.8964, 38.67788
892.3785, 39.14479
892.8607, 39.77836
893.3428, 40.14326
893.8249, 40.21366
894.3070, 40.12263
894.7891, 39.86241
895.2712, 39.67250
895.7534, 39.82112
896.2355, 40.14974
896.7176, 40.49793
897.1997, 40.79435
897.6818, 40.79793
898.1639, 40.43402
898.6461, 40.11319
899.1282, 40.34485
899.6103, 40.98898
900.0924, 41.47355
900.5745, 41.79718
901.0566, 41.92045
901.5388, 41.77529
902.0209, 41.67978
902.5030, 41.87885
902.9851, 42.28133
903.4672, 42.63904
903.9493, 42.97962
904.4315, 43.19778
904.9136, 43.17467
905.3957, 43.18101
905.8778, 43.29958
906.3599, 43.48268
906.8420, 43.72960
907.3242, 44.01611
907.8063, 44.18335
908.2884, 43.98384
908.7705, 43.94421
909.2526, 44.35510
909.7347, 44.93307
910.2169, 45.53481
910.6990, 46.07465
911.1811, 46.41076
911.6632, 46.49847
912.1453, 46.56079
912.6274, 46.78444
913.1096, 47.09716
913.5917, 47.30983
914.0738, 47.52503
914.5559, 48.10524
915.0380, 49.08969
915.5201, 50.13703
916.0023, 51.02665
916.4844, 51.74157
916.9665, 52.16345
917.4486, 52.29800
917.9307, 52.76143
918.4128, 53.63360
918.8950, 54.56197
919.3771, 55.42656
919.8592, 56.24573
920.3413, 57.02449
920.8234, 57.77145
921.3055, 58.61600
921.7877, 59.59058
922.2698, 60.60635
922.7519, 61.70772
923.2340, 62.79329
923.7161, 63.67778
924.1982, 64.55096
924.6804, 65.76642
925.1625, 67.39084
925.6446, 69.12447
926.1267, 70.96948
926.6088, 72.81489
927.0909, 74.47335
927.5731, 76.18198
928.0552, 78.21876
928.5373, 80.56511
929.0194, 83.01472
929.5015, 85.45963
929.9836, 87.99637
930.4658, 90.61832
930.9479, 93.46929
931.4300, 96.79401
931.9121, 100.5487
932.3942, 104.4983
932.8763, 108.5773
933.3585, 112.9826
933.8406, 117.8906
934.3227, 123.2157
934.8048, 128.7512
935.2869, 134.4946
935.7690, 140.4832
936.2512, 146.6734
936.7333, 153.4722
937.2154, 161.1711
937.6975, 169.3073
938.1796, 177.0216
938.6617, 184.2686
939.1439, 192.4907
939.6260, 201.9688
940.1081, 211.7068
940.5902, 221.4878
941.0723, 231.6084
941.5544, 242.2796
942.0366, 253.4771
942.5187, 265.2184
943.0008, 277.5281
943.4829, 290.3578
943.9650, 304.2576
944.4471, 318.0144
944.9293, 331.2374
945.4114, 344.0591
945.8935, 356.7101
946.3756, 369.1170
946.8577, 380.7193
947.3398, 391.9260
947.8220, 401.3537
948.3041, 408.9811
948.7862, 413.8756
949.2683, 415.0383
949.7504, 412.8322
950.2325, 408.1307
950.7147, 401.1334
951.1968, 391.3135
951.6789, 377.4981
952.1610, 361.4545
952.6431, 344.7366
953.1252, 327.5860
953.6074, 310.4158
954.0895, 293.2884
954.5716, 276.0298
955.0537, 258.4644
955.5358, 241.3291
956.0179, 225.5902
956.5000, 211.1113
956.9821, 197.2397
957.4642, 183.9250
957.9464, 171.7047
958.4285, 160.6736
958.9106, 150.6740
959.3927, 141.7133
959.8748, 133.5481
960.3569, 125.7566
960.8391, 118.3015
961.3212, 111.2462
961.8033, 104.5277
962.2854, 98.44427
962.7675, 93.23910
963.2496, 88.58144
963.7318, 84.08644
964.2139, 79.82590
964.6960, 76.29678
965.1781, 74.07491
965.6602, 71.65965
966.1423, 68.73717
966.6245, 65.97240
967.1066, 63.57957
967.5887, 61.50908
968.0708, 59.78004
968.5529, 58.36642
969.0350, 56.91426
969.5172, 55.25838
969.9993, 53.67439
970.4814, 52.23684
970.9635, 50.92193
971.4456, 49.71348
971.9277, 48.62067
972.4099, 47.71174
972.8920, 46.99920
973.3741, 46.23874
973.8562, 45.20658
974.3383, 44.16602
974.8204, 43.32940
975.3026, 42.61864
975.7847, 41.87743
976.2668, 41.15270
976.7489, 40.68396
977.2310, 40.58533
977.7131, 40.51779
978.1953, 40.15540
978.6774, 39.58947
979.1595, 38.79816
979.6416, 37.94938
980.1237, 37.68017
980.6058, 38.02160
981.0880, 38.21270
981.5701, 37.74321
982.0522, 37.02899
982.5343, 36.82740
983.0164, 37.02472
983.4985, 36.97123
983.9807, 36.66083
984.4628, 36.37506
984.9449, 36.20318
985.4270, 35.97750
985.9091, 35.52279
986.3912, 34.96934
986.8734, 34.76881
987.3555, 34.99616
987.8376, 34.88133
988.3197, 34.26688
988.8018, 33.85429
989.2839, 33.97790
989.7661, 34.25166
990.2482, 34.27001
990.7303, 34.05969
991.2124, 33.80758
991.6945, 33.46875
992.1766, 33.20127
992.6588, 33.12184
993.1409, 32.94148
993.6230, 32.43834
994.1051, 31.83864
994.5872, 31.44750
995.0693, 31.26204
995.5515, 31.04572
996.0336, 30.61583
996.5157, 30.41851
996.9978, 30.81909
997.4799, 31.12635
997.9620, 30.85717
998.4442, 30.31782
998.9263, 29.96255
999.4084, 29.84072
999.8905, 29.75561
1000.373, 29.71581
1000.855, 29.63120
1001.337, 29.46612
1001.819, 29.24828
1002.301, 28.91298
1002.783, 28.57248
1003.265, 28.49183
1003.747, 28.72720
1004.230, 28.82383
1004.712, 28.30545
1005.194, 27.86507
1005.676, 28.11242
1006.158, 28.57404
1006.640, 28.73816
1007.122, 28.60545
1007.604, 28.28367
1008.086, 27.81328
1008.569, 27.56504
1009.051, 28.14090
1009.533, 28.79694
1010.015, 28.59038
1010.497, 27.94401
1010.979, 27.50442
1011.461, 27.38836
1011.943, 27.63936
1012.426, 28.28175
1012.908, 28.81167
1013.390, 28.50559
1013.872, 27.82940
1014.354, 27.69646
1014.836, 27.92004
1015.318, 27.87778
1015.800, 27.52548
1016.282, 27.37785
1016.765, 27.73864
1017.247, 28.22362
1017.729, 28.28143
1018.211, 28.01677
1018.693, 27.77267
1019.175, 27.54984
1019.657, 27.25869
1020.139, 26.89765
1020.622, 26.89278
1021.104, 27.57081
1021.586, 28.46892
1022.068, 28.73728
1022.550, 28.43188
1023.032, 28.12989
1023.514, 27.82914
1023.996, 27.70010
1024.478, 27.80316
1024.961, 27.87390
1025.443, 27.70483
1025.925, 27.42613
1026.407, 27.32981
1026.889, 27.42334
1027.371, 27.54464
1027.853, 27.68651
1028.335, 27.92938
1028.818, 28.34752
1029.300, 28.67386
1029.782, 28.67183
1030.264, 28.46913
1030.746, 28.40551
1031.228, 28.51291
1031.710, 28.54550
1032.192, 28.43350
1032.674, 28.46252
1033.156, 28.76261
1033.639, 29.11859
1034.121, 29.35347
1034.603, 29.51644
1035.085, 29.74503
1035.567, 30.02512
1036.049, 30.43997
1036.531, 31.10555
1037.013, 31.68769
1037.496, 32.14697
1037.978, 32.41525
1038.460, 32.21391
1038.942, 31.82968
1039.424, 32.23013
1039.906, 33.83010
1040.388, 34.94169
1040.870, 35.11750
1041.353, 35.44563
1041.835, 36.31842
1042.317, 37.31871
1042.799, 38.15404
1043.281, 38.85717
1043.763, 39.49780
1044.245, 40.03236
1044.727, 40.65015
1045.209, 41.39555
1045.692, 42.17610
1046.174, 43.00325
1046.656, 43.82183
1047.138, 44.53312
1047.620, 45.20435
1048.102, 46.07146
1048.584, 47.27895
1049.066, 48.19428
1049.548, 48.61777
1050.031, 48.88725
1050.513, 49.15689
1050.995, 49.27602
1051.477, 49.08075
1051.959, 48.64314
1052.441, 48.15544
1052.923, 47.65517
1053.405, 47.05336
1053.888, 46.35996
1054.370, 45.52278
1054.852, 44.45540
1055.334, 43.29552
1055.816, 42.07269
1056.298, 40.86800
1056.780, 39.88811
1057.262, 39.21000
1057.745, 38.43121
1058.227, 37.31171
1058.709, 36.23475
1059.191, 35.39308
1059.673, 34.63411
1060.155, 33.82157
1060.637, 32.98124
1061.119, 32.17427
1061.601, 31.40639
1062.083, 30.75912
1062.566, 30.36514
1063.048, 29.95772
1063.530, 29.34829
1064.012, 28.73566
1064.494, 28.30748
1064.976, 28.00731
1065.458, 27.67453
1065.940, 27.27648
1066.423, 27.00960
1066.905, 27.12642
1067.387, 27.16091
1067.869, 26.83292
1068.351, 26.39535
1068.833, 25.99005
1069.315, 25.66838
1069.797, 25.52713
1070.280, 25.56708
1070.762, 25.51705
1071.244, 25.18643
1071.726, 24.84559
1072.208, 24.50602
1072.690, 24.31256
1073.172, 24.52690
1073.654, 24.90208
1074.136, 25.02262
1074.619, 24.83705
1075.101, 24.59846
1075.583, 24.34394
1076.065, 24.16278
1076.547, 24.18610
1077.029, 24.21110
1077.511, 24.07396
1077.993, 23.83581
1078.475, 23.60469
1078.958, 23.38944
1079.440, 23.11683
1079.922, 22.67550
1080.404, 22.36178
1080.886, 22.38411
1081.368, 22.51098
1081.850, 22.57651
1082.332, 22.64346
1082.814, 22.88773
1083.297, 23.24348
1083.779, 23.36193
1084.261, 23.06454
1084.743, 22.73135
1085.225, 22.41731
1085.707, 22.25721
1086.189, 22.50284
1086.671, 22.83195
1087.154, 22.79809
1087.636, 22.50512
1088.118, 22.46867
1088.600, 22.91838
1089.082, 23.15763
1089.564, 22.66992
1090.046, 22.16810
1090.528, 22.05429
1091.010, 22.11891
1091.493, 22.20435
1091.975, 22.26639
1092.457, 22.25816
1092.939, 22.16562
1093.421, 22.05108
1093.903, 21.88905
1094.385, 21.77256
1094.867, 21.81299
1095.349, 21.85365
1095.832, 21.72030
1096.314, 21.50545
1096.796, 21.40268
1097.278, 21.44255
1097.760, 21.47402
1098.242, 21.38072
1098.724, 21.36948
1099.206, 21.66899
1099.689, 21.90666
1100.171, 21.72994
1100.653, 21.38343
1101.135, 21.25852
1101.617, 21.36806
1102.099, 21.39229
1102.581, 21.15855
1103.063, 21.00323
1103.546, 21.07961
1104.028, 21.16649
1104.510, 21.16473
1104.992, 21.09982
1105.474, 21.02859
1105.956, 20.93080
1106.438, 20.66850
1106.920, 20.00892
1107.402, 19.72541
1107.885, 20.31601
1108.367, 20.81258
1108.849, 20.78188
1109.331, 20.58585
1109.813, 20.49800
1110.295, 20.51188
1110.777, 20.62730
1111.259, 20.96225
1111.741, 20.89975
1112.224, 19.88380
1112.706, 19.19015
1113.188, 19.24711
1113.670, 19.53170
1114.152, 19.83616
1114.634, 20.09368
1115.116, 20.17268
1115.598, 20.05658
1116.081, 19.96012
1116.563, 19.80735
1117.045, 19.81247
1117.527, 20.15063
1118.009, 20.42615
1118.491, 20.42340
1118.973, 20.29633
1119.455, 20.24462
1119.938, 20.25037
1120.420, 20.13358
1120.902, 19.81740
1121.384, 19.56406
1121.866, 19.36083
1122.348, 19.26992
1122.830, 19.36085
1123.312, 19.48269
1123.794, 19.48114
1124.276, 19.41411
1124.759, 19.47671
1125.241, 19.70636
1125.723, 19.85053
1126.205, 19.89255
1126.687, 19.91973
1127.169, 19.96478
1127.651, 19.94091
1128.133, 19.75730
1128.616, 19.55216
1129.098, 19.60894
1129.580, 19.90068
1130.062, 19.89461
1130.544, 19.54332
1131.026, 19.54238
1131.508, 20.04023
1131.990, 20.31426
1132.473, 19.99395
1132.955, 19.53904
1133.437, 19.50948
1133.919, 19.74997
1134.401, 19.72086
1134.883, 19.44539
1135.365, 19.11940
1135.847, 18.77852
1136.329, 18.82746
1136.812, 19.38153
1137.294, 19.90734
1137.776, 19.98023
1138.258, 19.80636
1138.740, 19.69944
1139.222, 19.66065
1139.704, 19.74501
1140.186, 19.90389
1140.668, 19.89636
1141.151, 19.71475
1141.633, 19.63522
1142.115, 19.80003
1142.597, 19.95905
1143.079, 19.79571
1143.561, 19.48417
1144.043, 19.23999
1144.525, 19.09979
1145.008, 19.19593
1145.490, 19.46120
1145.972, 19.67951
1146.454, 19.78334
1146.936, 19.83568
1147.418, 19.89045
1147.900, 19.88769
1148.382, 19.62847
1148.865, 19.40113
1149.347, 19.66043
1149.829, 20.14165
1150.311, 20.35667
1150.793, 20.27785
1151.275, 20.18200
1151.757, 20.18458
1152.239, 20.15075
1152.721, 19.92074
1153.203, 19.72757
1153.686, 19.79554
1154.168, 19.91708
1154.650, 19.85191
1155.132, 19.66958
1155.614, 19.58303
1156.096, 19.63260
1156.578, 19.60671
1157.060, 19.36811
1157.543, 19.15755
1158.025, 18.99294
1158.507, 18.92796
1158.989, 19.05900
1159.471, 19.26220
1159.953, 19.40125
1160.435, 19.47144
1160.917, 19.48196
1161.400, 19.37078
1161.882, 19.33529
1162.364, 19.42272
1162.846, 19.51819
1163.328, 19.63520
1163.810, 19.69218
1164.292, 19.59861
1164.774, 19.42886
1165.256, 19.33524
1165.739, 19.32010
1166.221, 19.35480
1166.703, 19.47074
1167.185, 19.50926
1167.667, 19.42706
1168.149, 19.35029
1168.631, 19.33089
1169.113, 19.36679
1169.595, 19.47324
1170.078, 19.60695
1170.560, 19.60712
1171.042, 19.47714
1171.524, 19.29713
1172.006, 19.07676
1172.488, 19.05054
1172.970, 19.27369
1173.452, 19.47428
1173.934, 19.47366
1174.417, 19.38857
1174.899, 19.38110
1175.381, 19.42280
1175.863, 19.39109
1176.345, 19.35283
1176.827, 19.63780
1177.309, 20.13622
1177.791, 20.19027
1178.274, 19.62800
1178.756, 19.10912
1179.238, 19.15903
1179.720, 19.38601
1180.202, 19.45977
1180.684, 19.38937
1181.166, 19.03317
1181.648, 18.62114
1182.130, 18.60022
1182.613, 18.92218
1183.095, 19.17931
1183.577, 19.23150
1184.059, 19.15289
1184.541, 18.87181
1185.023, 18.60971
1185.505, 18.38738
1185.987, 18.33018
1186.469, 18.71628
1186.952, 19.25335
1187.434, 19.41932
1187.916, 19.18795
1188.398, 19.01304
1188.880, 18.95952
1189.362, 18.97453
1189.844, 19.17957
1190.326, 19.28059
1190.809, 19.01382
1191.291, 18.79894
1191.773, 19.06489
1192.255, 19.57822
1192.737, 19.78030
1193.219, 19.64604
1193.701, 19.45380
1194.183, 19.16343
1194.666, 18.96002
1195.148, 18.85467
1195.630, 18.94608
1196.112, 19.34952
1196.594, 19.63741
1197.076, 19.28351
1197.558, 18.58271
1198.040, 18.41514
1198.522, 18.72026
1199.005, 19.01400
1199.487, 19.26191
1199.969, 19.35090
1200.451, 19.26201
1200.933, 19.03257
1201.415, 18.68034
1201.897, 18.36408
1202.379, 18.26492
1202.861, 18.30390
1203.344, 18.39338
1203.826, 18.50590
1204.308, 18.57454
1204.790, 18.62915
1205.272, 18.79244
1205.754, 19.05322
1206.236, 19.18710
1206.718, 19.04508
1207.201, 18.90463
1207.683, 19.00009
1208.165, 19.08001
1208.647, 18.88301
1209.129, 18.66405
1209.611, 18.75910
1210.093, 19.01756
1210.575, 19.04372
1211.057, 18.77734
1211.540, 18.63053
1212.022, 18.78283
1212.504, 18.86938
1212.986, 18.76584
1213.468, 18.70304
1213.950, 18.77413
1214.432, 18.90414
1214.914, 19.05330
1215.396, 19.19090
1215.879, 19.23208
1216.361, 19.17312
1216.843, 19.06516
1217.325, 18.91073
1217.807, 18.65838
1218.289, 18.28141
1218.771, 18.00430
1219.253, 17.93019
1219.736, 17.97803
1220.218, 18.07658
1220.700, 18.20420
1221.182, 18.33762
1221.664, 18.45547
1222.146, 18.46000
1222.628, 18.38673
1223.110, 18.35483
1223.593, 18.38693
1224.075, 18.48157
1224.557, 18.63597
1225.039, 18.74090
1225.521, 18.66938
1226.003, 18.56086
1226.485, 18.49444
1226.967, 18.49706
1227.449, 18.65910
1227.932, 18.87357
1228.414, 18.98358
1228.896, 18.98036
1229.378, 18.95354
1229.860, 18.95243
1230.342, 18.81597
1230.824, 18.27143
1231.306, 17.91855
1231.788, 18.09468
1232.271, 18.32469
1232.753, 18.31754
1233.235, 18.22470
1233.717, 18.25236
1234.199, 18.37537
1234.681, 18.43843
1235.163, 18.45864
1235.645, 18.29336
1236.128, 17.88131
1236.610, 17.68604
1237.092, 17.83764
1237.574, 17.99996
1238.056, 17.96896
1238.538, 17.88416
1239.020, 17.93267
1239.502, 18.05868
1239.984, 18.12112
1240.467, 18.14445
1240.949, 18.22487
1241.431, 18.32990
1241.913, 18.30053
1242.395, 18.14439
1242.877, 18.09245
1243.359, 18.26802
1243.841, 18.47062
1244.323, 18.63957
1244.806, 18.67587
1245.288, 18.34444
1245.770, 17.99926
1246.252, 17.98718
1246.734, 18.18939
1247.216, 18.45133
1247.698, 18.71844
1248.180, 18.78368
1248.662, 18.41927
1249.145, 18.35272
1249.627, 18.97623
1250.109, 19.30101
1250.591, 18.97542
1251.073, 18.57904
1251.555, 18.39424
1252.037, 18.42031
1252.519, 18.73269
1253.002, 19.19094
1253.484, 19.03679
1253.966, 18.29177
1254.448, 17.93883
1254.930, 17.99840
1255.412, 18.17857
1255.894, 18.39479
1256.376, 18.54022
1256.859, 18.55662
1257.341, 18.54748
1257.823, 18.65921
1258.305, 18.74646
1258.787, 18.53551
1259.269, 18.24565
1259.751, 18.11971
1260.233, 18.16734
1260.715, 18.50099
1261.198, 18.98354
1261.680, 19.08347
1262.162, 18.58260
1262.644, 18.17135
1263.126, 18.03857
1263.608, 18.06134
1264.090, 18.30327
1264.572, 18.57692
1265.054, 18.88147
1265.537, 19.06640
1266.019, 18.91922
1266.501, 18.54743
1266.983, 18.30172
1267.465, 18.18196
1267.947, 18.23465
1268.429, 18.48429
1268.911, 18.59377
1269.394, 18.50973
1269.876, 18.50159
1270.358, 18.68112
1270.840, 18.75593
1271.322, 18.42509
1271.804, 18.00594
1272.286, 17.98632
1272.768, 18.20269
1273.250, 18.44612
1273.733, 18.67429
1274.215, 18.84468
1274.697, 18.94715
1275.179, 18.97376
1275.661, 18.92476
1276.143, 18.82189
1276.625, 18.64680
1277.107, 18.47141
1277.589, 18.27285
1278.072, 18.13768
1278.554, 18.14646
1279.036, 18.19046
1279.518, 18.16667
1280.000, 18.13757
1280.482, 18.22767
1280.964, 18.42081
1281.446, 18.49506
1281.929, 18.42721
1282.411, 18.41823
1282.893, 18.48148
1283.375, 18.54265
1283.857, 18.58298
1284.339, 18.58970
1284.821, 18.55506
1285.303, 18.54132
1285.786, 18.60990
1286.268, 18.75803
##END=



