##NAMES=Vivianite
##RRUFFID=R050076
##IDEAL CHEMISTRY=Fe^2+^_3_(PO_4_)_2_&#183;8H_2_O
##LOCALITY=near Canutillos mine, Potosi, Saavedra, Bolivia
##OWNER=RRUFF
##SOURCE=Rock Currier
##DESCRIPTION=Green prismatic and elongated single crystal
##STATUS=The identification of this mineral has been confirmed by X-ray diffraction and chemical analysis
##URL=rruff.info/R050076
##MEASURED CHEMISTRY=(Fe^2+^_0.99_Mn_0.01_)_3_(P_1.00_O_4_)_2_Â·8H_2_O
121.6990, 357.5392
122.1812, 381.4875
122.6633, 407.2364
123.1454, 433.6984
123.6275, 464.8067
124.1096, 503.2036
124.5917, 549.0894
125.0739, 603.2800
125.5560, 666.6083
126.0381, 738.3665
126.5202, 819.0352
127.0023, 910.4904
127.4844, 1008.866
127.9666, 1113.310
128.4487, 1223.646
128.9308, 1326.281
129.4129, 1414.014
129.8950, 1485.582
130.3772, 1529.646
130.8593, 1538.326
131.3414, 1517.614
131.8235, 1483.080
132.3056, 1432.050
132.7877, 1380.264
133.2699, 1343.718
133.7520, 1322.248
134.2341, 1319.328
134.7162, 1340.577
135.1983, 1386.054
135.6804, 1433.807
136.1626, 1483.701
136.6447, 1535.279
137.1268, 1586.464
137.6089, 1635.413
138.0910, 1689.188
138.5731, 1752.667
139.0553, 1830.226
139.5374, 1899.190
140.0195, 1953.238
140.5016, 1998.412
140.9837, 2057.079
141.4658, 2135.982
141.9480, 2218.675
142.4301, 2291.444
142.9122, 2343.024
143.3943, 2408.957
143.8764, 2500.116
144.3585, 2614.981
144.8407, 2717.405
145.3228, 2801.694
145.8049, 2877.156
146.2870, 2952.355
146.7691, 3037.532
147.2512, 3107.911
147.7334, 3157.399
148.2155, 3183.990
148.6976, 3200.427
149.1797, 3200.610
149.6618, 3192.370
150.1439, 3186.095
150.6261, 3195.994
151.1082, 3195.177
151.5903, 3173.562
152.0724, 3116.893
152.5545, 3071.281
153.0366, 3040.965
153.5188, 3024.088
154.0009, 3017.026
154.4830, 3019.494
154.9651, 3031.444
155.4472, 3051.915
155.9293, 3072.519
156.4115, 3113.735
156.8936, 3184.459
157.3757, 3280.343
157.8578, 3386.893
158.3399, 3498.358
158.8221, 3619.912
159.3042, 3756.042
159.7863, 3920.936
160.2684, 4087.609
160.7505, 4245.281
161.2326, 4396.602
161.7148, 4550.861
162.1969, 4727.286
162.6790, 4903.587
163.1611, 5056.151
163.6432, 5199.314
164.1253, 5301.208
164.6075, 5343.533
165.0896, 5325.576
165.5717, 5263.182
166.0538, 5149.458
166.5359, 4999.220
167.0180, 4833.952
167.5002, 4643.479
167.9823, 4451.888
168.4644, 4275.313
168.9465, 4114.660
169.4286, 3970.943
169.9107, 3843.351
170.3929, 3733.793
170.8750, 3642.981
171.3571, 3579.101
171.8392, 3531.948
172.3213, 3489.134
172.8034, 3446.886
173.2856, 3417.816
173.7677, 3415.935
174.2498, 3438.011
174.7319, 3472.711
175.2140, 3517.948
175.6961, 3570.290
176.1783, 3622.157
176.6604, 3666.199
177.1425, 3719.035
177.6246, 3798.665
178.1067, 3903.953
178.5888, 4033.341
179.0710, 4190.353
179.5531, 4368.716
180.0352, 4551.417
180.5173, 4727.068
180.9994, 4910.947
181.4815, 5124.842
181.9637, 5370.203
182.4458, 5632.739
182.9279, 5902.873
183.4100, 6182.217
183.8921, 6481.784
184.3742, 6810.000
184.8564, 7158.854
185.3385, 7504.934
185.8206, 7851.865
186.3027, 8188.058
186.7848, 8507.632
187.2669, 8809.803
187.7491, 9099.124
188.2312, 9369.896
188.7133, 9627.568
189.1954, 9892.716
189.6775, 10160.82
190.1596, 10449.83
190.6418, 10788.65
191.1239, 11175.43
191.6060, 11586.54
192.0881, 12009.93
192.5702, 12447.67
193.0524, 12923.23
193.5345, 13441.00
194.0166, 13981.73
194.4987, 14518.61
194.9808, 15053.41
195.4629, 15559.34
195.9451, 16032.52
196.4272, 16478.16
196.9093, 16840.30
197.3914, 17127.97
197.8735, 17315.24
198.3556, 17368.93
198.8378, 17296.99
199.3199, 17046.90
199.8020, 16558.84
200.2841, 15825.66
200.7662, 15018.48
201.2483, 14127.11
201.7305, 13185.33
202.2126, 12261.74
202.6947, 11346.38
203.1768, 10486.47
203.6589, 9708.588
204.1410, 9022.979
204.6232, 8397.081
205.1053, 7830.755
205.5874, 7321.482
206.0695, 6863.333
206.5516, 6459.727
207.0337, 6098.299
207.5159, 5763.658
207.9980, 5454.763
208.4801, 5208.687
208.9622, 5040.426
209.4443, 4938.544
209.9264, 4849.272
210.4086, 4773.792
210.8907, 4708.308
211.3728, 4646.368
211.8549, 4579.060
212.3370, 4545.050
212.8191, 4555.212
213.3013, 4605.233
213.7834, 4657.986
214.2655, 4705.957
214.7476, 4769.131
215.2297, 4867.315
215.7118, 5013.382
216.1940, 5160.877
216.6761, 5296.360
217.1582, 5421.984
217.6403, 5574.959
218.1224, 5756.042
218.6045, 5960.920
219.0867, 6185.967
219.5688, 6428.591
220.0509, 6694.252
220.5330, 6978.925
221.0151, 7286.252
221.4972, 7614.168
221.9794, 7974.098
222.4615, 8344.946
222.9436, 8707.944
223.4257, 9056.922
223.9078, 9415.785
224.3899, 9787.343
224.8721, 10177.84
225.3542, 10567.77
225.8363, 10981.14
226.3184, 11374.52
226.8005, 11705.80
227.2827, 11974.24
227.7648, 12176.50
228.2469, 12307.72
228.7290, 12364.14
229.2111, 12375.46
229.6932, 12330.38
230.1754, 12249.30
230.6575, 12152.85
231.1396, 12023.44
231.6217, 11911.31
232.1038, 11834.50
232.5859, 11801.29
233.0681, 11755.64
233.5502, 11676.39
234.0323, 11599.96
234.5144, 11579.53
234.9965, 11630.15
235.4786, 11712.81
235.9608, 11824.84
236.4429, 11976.00
236.9250, 12106.63
237.4071, 12224.25
237.8892, 12315.52
238.3713, 12363.94
238.8535, 12388.32
239.3356, 12338.41
239.8177, 12197.89
240.2998, 11961.01
240.7819, 11650.34
241.2640, 11246.48
241.7462, 10775.23
242.2283, 10272.09
242.7104, 9712.494
243.1925, 9161.173
243.6746, 8636.469
244.1567, 8134.437
244.6389, 7666.451
245.1210, 7237.233
245.6031, 6840.043
246.0852, 6465.990
246.5673, 6111.435
247.0494, 5786.293
247.5316, 5495.346
248.0137, 5242.656
248.4958, 5010.436
248.9779, 4804.460
249.4600, 4616.928
249.9421, 4436.501
250.4243, 4253.709
250.9064, 4092.721
251.3885, 3965.357
251.8706, 3880.834
252.3527, 3797.773
252.8348, 3713.959
253.3170, 3633.138
253.7991, 3563.615
254.2812, 3509.801
254.7633, 3460.217
255.2454, 3410.277
255.7275, 3359.044
256.2097, 3312.264
256.6918, 3269.444
257.1739, 3231.933
257.6560, 3202.563
258.1381, 3183.916
258.6202, 3167.973
259.1024, 3150.569
259.5845, 3129.586
260.0666, 3116.861
260.5487, 3114.062
261.0308, 3118.306
261.5129, 3124.233
261.9951, 3131.075
262.4772, 3141.381
262.9593, 3157.747
263.4414, 3183.063
263.9235, 3199.873
264.4056, 3203.152
264.8878, 3202.817
265.3699, 3217.995
265.8520, 3254.050
266.3341, 3290.637
266.8162, 3318.626
267.2983, 3335.115
267.7805, 3362.208
268.2626, 3406.157
268.7447, 3453.485
269.2268, 3477.972
269.7089, 3472.944
270.1910, 3468.929
270.6732, 3477.748
271.1553, 3500.437
271.6374, 3528.649
272.1195, 3567.824
272.6016, 3604.586
273.0837, 3613.920
273.5659, 3591.861
274.0480, 3563.191
274.5301, 3534.791
275.0122, 3506.623
275.4943, 3487.300
275.9764, 3482.454
276.4586, 3475.855
276.9407, 3441.406
277.4228, 3377.513
277.9049, 3304.213
278.3870, 3227.586
278.8691, 3147.785
279.3513, 3068.269
279.8334, 2989.086
280.3155, 2910.058
280.7976, 2829.958
281.2798, 2749.342
281.7619, 2670.841
282.2440, 2596.525
282.7261, 2525.716
283.2082, 2451.003
283.6903, 2370.260
284.1725, 2293.455
284.6546, 2236.573
285.1367, 2199.272
285.6188, 2159.396
286.1009, 2104.804
286.5830, 2040.940
287.0652, 1990.703
287.5473, 1954.983
288.0294, 1930.256
288.5115, 1917.745
288.9936, 1915.708
289.4757, 1910.068
289.9579, 1892.749
290.4400, 1869.243
290.9221, 1853.702
291.4042, 1846.261
291.8863, 1845.134
292.3684, 1848.461
292.8506, 1856.574
293.3327, 1871.295
293.8148, 1897.563
294.2969, 1928.359
294.7790, 1947.720
295.2611, 1955.702
295.7433, 1965.792
296.2254, 1991.355
296.7075, 2028.910
297.1896, 2067.251
297.6717, 2102.001
298.1538, 2137.798
298.6360, 2182.770
299.1181, 2236.610
299.6002, 2290.800
300.0823, 2338.002
300.5644, 2381.547
301.0465, 2427.723
301.5287, 2476.551
302.0108, 2530.649
302.4929, 2598.900
302.9750, 2678.344
303.4571, 2748.142
303.9392, 2793.312
304.4214, 2821.251
304.9035, 2843.134
305.3856, 2862.873
305.8677, 2874.228
306.3498, 2871.225
306.8319, 2854.933
307.3141, 2828.780
307.7962, 2797.367
308.2783, 2756.189
308.7604, 2697.767
309.2425, 2615.083
309.7246, 2529.693
310.2068, 2452.750
310.6889, 2383.292
311.1710, 2317.880
311.6531, 2254.560
312.1352, 2194.714
312.6173, 2140.727
313.0995, 2095.350
313.5816, 2050.618
314.0637, 1999.369
314.5458, 1946.161
315.0279, 1899.129
315.5100, 1862.640
315.9922, 1832.208
316.4743, 1806.577
316.9564, 1786.796
317.4385, 1766.835
317.9206, 1744.603
318.4027, 1721.024
318.8849, 1697.387
319.3670, 1668.753
319.8491, 1644.767
320.3312, 1629.329
320.8133, 1623.359
321.2954, 1621.907
321.7776, 1626.492
322.2597, 1634.115
322.7418, 1641.578
323.2239, 1648.688
323.7060, 1655.333
324.1881, 1662.370
324.6703, 1670.133
325.1524, 1674.094
325.6345, 1667.851
326.1166, 1660.864
326.5987, 1660.740
327.0808, 1675.319
327.5630, 1687.510
328.0451, 1692.544
328.5272, 1691.091
329.0093, 1698.129
329.4914, 1719.078
329.9735, 1743.386
330.4557, 1763.445
330.9378, 1771.275
331.4199, 1789.531
331.9020, 1826.079
332.3841, 1875.496
332.8662, 1909.649
333.3484, 1917.622
333.8305, 1926.380
334.3126, 1952.884
334.7947, 2005.163
335.2768, 2049.148
335.7589, 2080.714
336.2411, 2104.330
336.7232, 2131.228
337.2053, 2160.695
337.6874, 2195.016
338.1695, 2237.393
338.6516, 2288.724
339.1338, 2337.254
339.6159, 2382.279
340.0980, 2424.606
340.5801, 2464.993
341.0622, 2504.133
341.5443, 2539.209
342.0265, 2569.358
342.5086, 2594.603
342.9907, 2620.002
343.4728, 2647.329
343.9549, 2666.964
344.4370, 2663.047
344.9192, 2637.668
345.4013, 2610.301
345.8834, 2591.861
346.3655, 2575.469
346.8476, 2543.585
347.3297, 2496.247
347.8119, 2438.099
348.2940, 2368.852
348.7761, 2291.751
349.2582, 2218.449
349.7403, 2152.534
350.2225, 2089.690
350.7046, 2022.017
351.1867, 1949.926
351.6688, 1881.293
352.1509, 1823.575
352.6331, 1772.289
353.1152, 1719.710
353.5973, 1660.800
354.0794, 1606.482
354.5615, 1569.411
355.0436, 1545.582
355.5258, 1522.805
356.0079, 1496.569
356.4900, 1467.243
356.9721, 1433.368
357.4542, 1392.007
357.9363, 1355.306
358.4185, 1333.042
358.9006, 1319.737
359.3827, 1305.919
359.8648, 1287.436
360.3469, 1267.853
360.8290, 1247.698
361.3112, 1226.255
361.7933, 1209.645
362.2754, 1200.531
362.7575, 1196.802
363.2396, 1196.163
363.7217, 1204.684
364.2039, 1209.682
364.6860, 1207.563
365.1681, 1198.171
365.6502, 1185.849
366.1323, 1163.991
366.6144, 1143.559
367.0966, 1132.160
367.5787, 1140.838
368.0608, 1145.337
368.5429, 1140.817
369.0250, 1129.863
369.5071, 1126.160
369.9893, 1135.519
370.4714, 1145.356
370.9535, 1149.511
371.4356, 1145.547
371.9177, 1141.611
372.3998, 1139.305
372.8820, 1136.276
373.3641, 1124.895
373.8462, 1098.816
374.3283, 1080.993
374.8104, 1083.565
375.2925, 1108.818
375.7747, 1128.605
376.2568, 1143.527
376.7389, 1152.153
377.2210, 1149.848
377.7031, 1135.718
378.1852, 1123.468
378.6674, 1116.776
379.1495, 1115.315
379.6316, 1118.539
380.1137, 1126.808
380.5958, 1136.258
381.0779, 1143.469
381.5601, 1148.804
382.0422, 1153.231
382.5243, 1156.137
383.0064, 1159.471
383.4885, 1168.990
383.9706, 1183.561
384.4528, 1194.173
384.9349, 1190.723
385.4170, 1180.383
385.8991, 1174.886
386.3812, 1176.286
386.8633, 1181.506
387.3455, 1188.901
387.8276, 1197.931
388.3097, 1207.506
388.7918, 1216.537
389.2739, 1226.145
389.7560, 1238.425
390.2382, 1253.983
390.7203, 1266.784
391.2024, 1272.899
391.6845, 1274.682
392.1666, 1274.896
392.6487, 1268.506
393.1309, 1266.264
393.6130, 1276.992
394.0951, 1299.037
394.5772, 1312.802
395.0593, 1305.287
395.5414, 1293.011
396.0236, 1286.360
396.5057, 1290.839
396.9878, 1296.157
397.4699, 1301.950
397.9520, 1307.994
398.4341, 1313.437
398.9163, 1315.438
399.3984, 1319.800
399.8805, 1329.208
400.3626, 1346.133
400.8447, 1360.728
401.3268, 1372.278
401.8090, 1382.011
402.2911, 1392.327
402.7732, 1404.605
403.2553, 1413.579
403.7374, 1417.472
404.2195, 1416.484
404.7017, 1413.009
405.1838, 1405.311
405.6659, 1399.831
406.1480, 1403.243
406.6301, 1415.658
407.1122, 1429.361
407.5944, 1443.216
408.0765, 1457.374
408.5586, 1473.213
409.0407, 1490.723
409.5228, 1505.283
410.0049, 1512.937
410.4871, 1515.145
410.9692, 1514.465
411.4513, 1509.774
411.9334, 1507.835
412.4155, 1520.152
412.8976, 1542.203
413.3798, 1560.433
413.8619, 1566.921
414.3440, 1567.833
414.8261, 1566.653
415.3082, 1563.630
415.7903, 1567.163
416.2725, 1588.860
416.7546, 1617.845
417.2367, 1642.224
417.7188, 1653.637
418.2009, 1664.161
418.6830, 1680.720
419.1652, 1701.302
419.6473, 1717.872
420.1294, 1723.613
420.6115, 1727.840
421.0937, 1735.249
421.5758, 1745.404
422.0579, 1760.778
422.5400, 1787.131
423.0221, 1817.792
423.5042, 1842.315
423.9864, 1854.729
424.4685, 1866.912
424.9506, 1878.882
425.4327, 1889.428
425.9148, 1914.745
426.3969, 1962.977
426.8791, 2016.661
427.3612, 2059.378
427.8433, 2086.397
428.3254, 2117.396
428.8075, 2156.776
429.2896, 2201.220
429.7718, 2236.039
430.2539, 2258.473
430.7360, 2286.015
431.2181, 2331.358
431.7002, 2393.185
432.1823, 2451.464
432.6645, 2504.099
433.1466, 2557.131
433.6287, 2617.025
434.1108, 2683.470
434.5929, 2755.929
435.0750, 2836.220
435.5572, 2920.868
436.0393, 3002.036
436.5214, 3080.100
437.0035, 3163.408
437.4856, 3256.227
437.9677, 3358.176
438.4499, 3467.914
438.9320, 3583.523
439.4141, 3709.542
439.8962, 3854.010
440.3783, 4011.258
440.8604, 4170.967
441.3426, 4320.702
441.8247, 4475.353
442.3068, 4644.645
442.7889, 4832.371
443.2710, 5021.491
443.7531, 5208.002
444.2353, 5392.921
444.7174, 5580.632
445.1995, 5744.196
445.6816, 5938.067
446.1637, 6186.938
446.6458, 6482.318
447.1280, 6759.491
447.6101, 7014.913
448.0922, 7256.998
448.5743, 7486.643
449.0564, 7702.347
449.5385, 7914.832
450.0207, 8121.334
450.5028, 8326.753
450.9849, 8545.851
451.4670, 8783.619
451.9491, 9000.101
452.4312, 9182.934
452.9134, 9331.391
453.3955, 9450.066
453.8776, 9540.224
454.3597, 9590.244
454.8418, 9580.688
455.3239, 9518.384
455.8061, 9433.626
456.2882, 9336.717
456.7703, 9213.239
457.2524, 9039.259
457.7345, 8820.141
458.2166, 8572.438
458.6988, 8305.362
459.1809, 8017.018
459.6630, 7704.600
460.1451, 7361.814
460.6272, 7016.346
461.1093, 6682.104
461.5915, 6357.743
462.0736, 6048.373
462.5557, 5745.139
463.0378, 5466.873
463.5199, 5232.435
464.0020, 5037.586
464.4842, 4841.899
464.9663, 4627.062
465.4484, 4418.822
465.9305, 4229.554
466.4126, 4058.670
466.8947, 3904.971
467.3769, 3775.404
467.8590, 3660.493
468.3411, 3541.622
468.8232, 3410.204
469.3053, 3293.377
469.7874, 3199.668
470.2696, 3128.004
470.7517, 3058.910
471.2338, 2992.452
471.7159, 2928.904
472.1980, 2869.127
472.6801, 2812.902
473.1623, 2759.862
473.6444, 2708.067
474.1265, 2662.247
474.6086, 2634.007
475.0907, 2621.090
475.5728, 2608.881
476.0550, 2593.547
476.5371, 2572.544
477.0192, 2535.807
477.5013, 2482.519
477.9834, 2438.202
478.4655, 2426.852
478.9477, 2434.948
479.4298, 2445.364
479.9119, 2457.107
480.3940, 2464.893
480.8761, 2465.830
481.3582, 2460.599
481.8404, 2451.046
482.3225, 2429.401
482.8046, 2410.476
483.2867, 2400.480
483.7688, 2400.366
484.2509, 2407.768
484.7331, 2428.782
485.2152, 2453.988
485.6973, 2475.048
486.1794, 2489.391
486.6615, 2504.075
487.1436, 2520.604
487.6258, 2538.326
488.1079, 2553.859
488.5900, 2566.210
489.0721, 2578.868
489.5542, 2590.599
490.0363, 2601.292
490.5185, 2628.928
491.0006, 2677.076
491.4827, 2731.027
491.9648, 2771.640
492.4470, 2800.668
492.9291, 2826.374
493.4112, 2848.272
493.8933, 2870.620
494.3754, 2900.678
494.8575, 2937.640
495.3397, 2974.589
495.8218, 3002.675
496.3039, 3031.080
496.7860, 3070.155
497.2681, 3123.771
497.7502, 3180.891
498.2324, 3239.681
498.7145, 3297.609
499.1966, 3352.376
499.6787, 3396.633
500.1608, 3443.718
500.6429, 3498.489
501.1251, 3560.611
501.6072, 3623.066
502.0893, 3686.177
502.5714, 3749.605
503.0535, 3812.982
503.5356, 3874.281
504.0178, 3940.595
504.4999, 4015.054
504.9820, 4091.122
505.4641, 4156.577
505.9462, 4206.658
506.4283, 4270.550
506.9105, 4361.354
507.3926, 4470.828
507.8747, 4564.939
508.3568, 4643.321
508.8389, 4719.079
509.3210, 4804.384
509.8032, 4895.852
510.2853, 4982.876
510.7674, 5061.825
511.2495, 5146.251
511.7316, 5258.264
512.2137, 5386.071
512.6959, 5503.856
513.1780, 5591.420
513.6601, 5674.560
514.1422, 5771.733
514.6243, 5880.826
515.1064, 5986.163
515.5886, 6071.627
516.0707, 6158.852
516.5528, 6261.897
517.0349, 6396.022
517.5170, 6519.600
517.9991, 6620.943
518.4813, 6711.832
518.9634, 6805.876
519.4455, 6902.430
519.9276, 7003.916
520.4097, 7116.200
520.8918, 7234.012
521.3740, 7331.623
521.8561, 7402.370
522.3382, 7474.986
522.8203, 7573.535
523.3024, 7695.065
523.7845, 7802.103
524.2667, 7891.836
524.7488, 7972.071
525.2309, 8047.940
525.7130, 8123.625
526.1951, 8213.238
526.6772, 8338.380
527.1594, 8465.278
527.6415, 8548.243
528.1236, 8594.790
528.6057, 8639.819
529.0878, 8705.604
529.5699, 8775.309
530.0521, 8832.564
530.5342, 8871.066
531.0163, 8918.854
531.4984, 8998.945
531.9805, 9087.354
532.4626, 9158.938
532.9448, 9196.684
533.4269, 9233.580
533.9090, 9273.066
534.3911, 9314.342
534.8732, 9352.729
535.3553, 9388.073
535.8375, 9421.770
536.3196, 9455.709
536.8017, 9490.861
537.2838, 9516.066
537.7659, 9532.310
538.2480, 9536.037
538.7302, 9516.975
539.2123, 9478.745
539.6944, 9448.612
540.1765, 9435.495
540.6586, 9427.441
541.1407, 9407.124
541.6229, 9376.988
542.1050, 9345.608
542.5871, 9327.638
543.0692, 9303.877
543.5513, 9250.477
544.0334, 9167.008
544.5156, 9089.521
544.9977, 9064.885
545.4798, 9035.913
545.9619, 8955.635
546.4440, 8771.284
546.9261, 8600.785
547.4083, 8450.869
547.8904, 8326.428
548.3725, 8242.966
548.8546, 8246.340
549.3367, 8213.814
549.8188, 8107.947
550.3010, 7935.055
550.7831, 7763.769
551.2652, 7589.609
551.7473, 7431.446
552.2294, 7316.662
552.7115, 7238.638
553.1937, 7133.334
553.6758, 6992.423
554.1579, 6837.737
554.6400, 6687.769
555.1221, 6544.515
555.6042, 6416.273
556.0864, 6304.230
556.5685, 6208.063
557.0506, 6130.458
557.5327, 6069.665
558.0148, 6020.679
558.4969, 5988.434
558.9791, 5961.555
559.4612, 5932.255
559.9433, 5897.910
560.4254, 5871.125
560.9075, 5842.228
561.3896, 5829.225
561.8718, 5848.525
562.3539, 5930.315
562.8360, 5991.711
563.3181, 6014.616
563.8002, 6018.649
564.2823, 6052.352
564.7645, 6119.460
565.2466, 6198.985
565.7287, 6288.898
566.2108, 6384.542
566.6929, 6463.478
567.1750, 6525.182
567.6572, 6567.565
568.1393, 6587.604
568.6214, 6586.417
569.1035, 6565.995
569.5856, 6527.130
570.0677, 6466.587
570.5499, 6382.922
571.0320, 6274.939
571.5141, 6140.483
571.9962, 5975.775
572.4783, 5787.497
572.9604, 5564.778
573.4426, 5317.249
573.9247, 5087.028
574.4068, 4898.935
574.8889, 4715.021
575.3710, 4519.195
575.8531, 4308.032
576.3353, 4114.904
576.8174, 3941.564
577.2995, 3786.427
577.7816, 3648.268
578.2637, 3528.676
578.7458, 3416.407
579.2280, 3309.892
579.7101, 3209.916
580.1922, 3118.787
580.6743, 3035.883
581.1564, 2957.694
581.6385, 2880.607
582.1207, 2808.219
582.6028, 2746.573
583.0849, 2695.703
583.5670, 2651.573
584.0491, 2615.946
584.5313, 2583.622
585.0134, 2549.838
585.4955, 2512.032
585.9776, 2479.137
586.4597, 2459.417
586.9418, 2443.423
587.4240, 2420.415
587.9061, 2382.733
588.3882, 2349.121
588.8703, 2320.889
589.3524, 2298.190
589.8345, 2282.660
590.3167, 2276.062
590.7988, 2269.830
591.2809, 2260.829
591.7630, 2249.273
592.2451, 2237.000
592.7272, 2224.093
593.2094, 2208.464
593.6915, 2180.547
594.1736, 2150.258
594.6557, 2138.553
595.1378, 2152.001
595.6199, 2171.362
596.1021, 2189.617
596.5842, 2202.782
597.0663, 2205.178
597.5485, 2176.743
598.0306, 2156.402
598.5127, 2160.514
598.9948, 2184.107
599.4769, 2205.174
599.9590, 2223.239
600.4412, 2237.737
600.9233, 2247.746
601.4054, 2253.041
601.8875, 2258.059
602.3696, 2262.480
602.8517, 2267.339
603.3339, 2273.171
603.8160, 2280.038
604.2981, 2287.939
604.7802, 2296.392
605.2623, 2307.354
605.7444, 2325.125
606.2266, 2347.591
606.7087, 2368.295
607.1908, 2386.119
607.6729, 2400.472
608.1550, 2410.580
608.6371, 2416.851
609.1193, 2420.972
609.6014, 2421.788
610.0835, 2422.111
610.5656, 2422.857
611.0477, 2423.937
611.5298, 2426.621
612.0120, 2428.662
612.4941, 2434.484
612.9762, 2448.567
613.4583, 2475.148
613.9404, 2494.279
614.4225, 2504.092
614.9047, 2507.966
615.3868, 2510.532
615.8689, 2511.730
616.3510, 2510.289
616.8331, 2505.103
617.3152, 2498.081
617.7974, 2491.316
618.2795, 2485.061
618.7616, 2479.919
619.2437, 2475.914
619.7258, 2473.407
620.2079, 2474.760
620.6901, 2479.920
621.1722, 2479.744
621.6543, 2463.701
622.1364, 2446.411
622.6185, 2437.859
623.1006, 2442.694
623.5828, 2447.153
624.0649, 2452.462
624.5470, 2456.268
625.0291, 2455.594
625.5112, 2449.991
625.9933, 2442.300
626.4755, 2433.212
626.9576, 2422.200
627.4397, 2406.924
627.9218, 2388.011
628.4039, 2370.226
628.8860, 2355.665
629.3682, 2343.667
629.8503, 2335.019
630.3324, 2329.063
630.8145, 2321.234
631.2966, 2306.529
631.7787, 2290.736
632.2609, 2278.306
632.7430, 2270.828
633.2251, 2262.633
633.7072, 2251.988
634.1893, 2240.689
634.6714, 2229.705
635.1536, 2216.760
635.6357, 2209.714
636.1178, 2211.403
636.5999, 2216.930
637.0820, 2217.472
637.5641, 2212.875
638.0463, 2206.478
638.5284, 2198.345
639.0105, 2189.916
639.4926, 2183.957
639.9747, 2180.232
640.4568, 2177.512
640.9390, 2173.122
641.4211, 2170.603
641.9032, 2177.426
642.3853, 2194.031
642.8674, 2200.281
643.3495, 2175.272
643.8317, 2145.683
644.3138, 2130.074
644.7959, 2138.699
645.2780, 2146.389
645.7601, 2154.626
646.2422, 2160.624
646.7244, 2159.708
647.2065, 2149.809
647.6886, 2144.084
648.1707, 2145.865
648.6528, 2151.552
649.1349, 2155.157
649.6171, 2156.554
650.0992, 2155.036
650.5813, 2145.677
651.0634, 2136.078
651.5455, 2139.672
652.0276, 2153.351
652.5098, 2160.218
652.9919, 2142.071
653.4740, 2121.447
653.9561, 2112.439
654.4382, 2117.857
654.9203, 2126.386
655.4025, 2144.423
655.8846, 2158.816
656.3667, 2158.770
656.8488, 2136.208
657.3309, 2123.943
657.8130, 2124.826
658.2952, 2132.925
658.7773, 2142.154
659.2594, 2152.197
659.7415, 2157.765
660.2236, 2155.677
660.7057, 2151.524
661.1879, 2155.122
661.6700, 2163.442
662.1521, 2167.978
662.6342, 2156.414
663.1163, 2146.833
663.5984, 2154.757
664.0806, 2177.596
664.5627, 2192.573
665.0448, 2184.691
665.5269, 2176.196
666.0090, 2177.379
666.4911, 2190.065
666.9733, 2198.290
667.4554, 2200.082
667.9375, 2201.320
668.4196, 2209.792
668.9017, 2224.936
669.3839, 2226.392
669.8660, 2210.029
670.3481, 2190.951
670.8302, 2185.306
671.3123, 2190.347
671.7944, 2201.208
672.2766, 2221.919
672.7587, 2238.872
673.2408, 2236.745
673.7229, 2225.281
674.2050, 2223.513
674.6871, 2246.899
675.1693, 2269.620
675.6514, 2285.368
676.1335, 2294.943
676.6156, 2302.155
677.0977, 2307.464
677.5798, 2309.205
678.0620, 2304.610
678.5441, 2294.839
679.0262, 2292.285
679.5083, 2297.247
679.9904, 2304.231
680.4725, 2309.866
680.9547, 2314.211
681.4368, 2316.710
681.9189, 2316.943
682.4010, 2318.547
682.8831, 2324.436
683.3652, 2332.696
683.8474, 2341.386
684.3295, 2350.239
684.8116, 2359.285
685.2937, 2372.656
685.7758, 2384.383
686.2579, 2384.928
686.7401, 2368.219
687.2222, 2357.173
687.7043, 2356.794
688.1864, 2363.620
688.6685, 2370.371
689.1506, 2377.008
689.6328, 2382.780
690.1149, 2385.508
690.5970, 2388.445
691.0791, 2399.292
691.5612, 2415.987
692.0433, 2427.782
692.5255, 2423.926
693.0076, 2417.587
693.4897, 2416.212
693.9718, 2420.494
694.4539, 2429.131
694.9360, 2447.946
695.4182, 2465.450
695.9003, 2476.320
696.3824, 2480.626
696.8645, 2474.826
697.3466, 2454.753
697.8287, 2435.514
698.3109, 2436.648
698.7930, 2454.164
699.2751, 2466.646
699.7572, 2469.609
700.2393, 2469.362
700.7214, 2470.040
701.2036, 2472.493
701.6857, 2478.410
702.1678, 2501.339
702.6499, 2512.710
703.1320, 2488.500
703.6141, 2445.146
704.0963, 2424.641
704.5784, 2443.093
705.0605, 2462.695
705.5426, 2477.397
706.0247, 2487.002
706.5068, 2489.212
706.9890, 2483.299
707.4711, 2476.276
707.9532, 2471.984
708.4353, 2469.207
708.9174, 2464.008
709.3995, 2456.776
709.8817, 2451.588
710.3638, 2453.795
710.8459, 2457.676
711.3280, 2458.992
711.8101, 2457.475
712.2922, 2451.564
712.7744, 2434.134
713.2565, 2417.089
713.7386, 2407.864
714.2207, 2407.219
714.7028, 2414.545
715.1849, 2435.734
715.6671, 2454.755
716.1492, 2448.258
716.6313, 2419.180
717.1134, 2403.884
717.5955, 2411.477
718.0776, 2425.410
718.5598, 2424.979
719.0419, 2416.195
719.5240, 2410.912
720.0061, 2419.668
720.4882, 2425.115
720.9703, 2414.217
721.4525, 2394.544
721.9346, 2383.204
722.4167, 2383.203
722.8988, 2391.306
723.3809, 2412.143
723.8630, 2440.164
724.3452, 2451.382
724.8273, 2443.786
725.3094, 2433.580
725.7915, 2425.998
726.2736, 2422.095
726.7557, 2424.349
727.2379, 2432.741
727.7200, 2447.128
728.2021, 2479.479
728.6842, 2509.161
729.1663, 2516.318
729.6484, 2498.626
730.1306, 2481.723
730.6127, 2467.856
731.0948, 2461.250
731.5769, 2465.048
732.0590, 2482.745
732.5411, 2496.298
733.0233, 2504.844
733.5054, 2511.188
733.9875, 2515.847
734.4696, 2519.777
734.9517, 2530.522
735.4338, 2549.578
735.9160, 2571.700
736.3981, 2596.578
736.8802, 2619.504
737.3623, 2632.894
737.8444, 2630.719
738.3266, 2626.588
738.8087, 2623.743
739.2908, 2622.695
739.7729, 2623.879
740.2551, 2623.409
740.7372, 2632.793
741.2193, 2657.960
741.7014, 2689.803
742.1835, 2708.153
742.6656, 2712.780
743.1478, 2716.430
743.6299, 2721.500
744.1120, 2730.013
744.5941, 2749.666
745.0762, 2776.065
745.5583, 2796.199
746.0405, 2794.549
746.5226, 2793.086
747.0047, 2806.478
747.4868, 2831.914
747.9689, 2851.523
748.4510, 2859.891
748.9332, 2866.149
749.4153, 2872.256
749.8974, 2878.377
750.3795, 2888.646
750.8616, 2904.255
751.3438, 2914.627
751.8259, 2907.514
752.3080, 2891.354
752.7901, 2886.475
753.2722, 2893.010
753.7543, 2903.019
754.2365, 2915.219
754.7186, 2925.935
755.2007, 2931.556
755.6828, 2930.966
756.1649, 2929.867
756.6470, 2922.016
757.1292, 2920.322
757.6113, 2935.883
758.0934, 2976.211
758.5755, 2999.518
759.0576, 3004.318
759.5397, 2997.628
760.0219, 2980.620
760.5040, 2957.879
760.9861, 2945.087
761.4682, 2945.721
761.9503, 2951.215
762.4324, 2958.097
762.9146, 2964.635
763.3967, 2969.249
763.8788, 2976.512
764.3609, 2973.628
764.8430, 2948.900
765.3251, 2918.427
765.8073, 2900.702
766.2894, 2899.264
766.7715, 2895.982
767.2536, 2886.495
767.7357, 2877.818
768.2178, 2887.716
768.7000, 2910.291
769.1821, 2919.632
769.6642, 2900.042
770.1463, 2876.351
770.6284, 2869.329
771.1105, 2873.711
771.5927, 2879.318
772.0748, 2890.311
772.5569, 2893.626
773.0390, 2885.165
773.5211, 2867.346
774.0032, 2843.248
774.4854, 2808.617
774.9675, 2784.478
775.4496, 2780.635
775.9317, 2788.224
776.4138, 2784.283
776.8959, 2770.937
777.3781, 2759.517
777.8602, 2759.640
778.3423, 2761.261
778.8244, 2754.466
779.3065, 2741.348
779.7886, 2731.146
780.2708, 2726.095
780.7529, 2725.342
781.2350, 2730.859
781.7171, 2741.308
782.1992, 2743.320
782.6813, 2735.198
783.1635, 2725.261
783.6456, 2716.276
784.1277, 2708.974
784.6098, 2706.138
785.0919, 2707.497
785.5740, 2710.118
786.0562, 2714.341
786.5383, 2717.410
787.0204, 2715.713
787.5025, 2709.125
787.9846, 2704.989
788.4667, 2705.779
788.9489, 2708.788
789.4310, 2712.847
789.9131, 2717.838
790.3952, 2726.844
790.8773, 2741.262
791.3594, 2752.844
791.8416, 2751.492
792.3237, 2742.962
792.8058, 2744.571
793.2879, 2756.972
793.7700, 2767.139
794.2521, 2755.252
794.7343, 2744.563
795.2164, 2758.800
795.6985, 2809.721
796.1806, 2844.093
796.6627, 2850.437
797.1448, 2846.260
797.6270, 2840.707
798.1091, 2833.159
798.5912, 2828.488
799.0733, 2826.226
799.5554, 2829.427
800.0375, 2843.527
800.5197, 2864.410
801.0018, 2884.078
801.4839, 2901.003
801.9660, 2919.772
802.4481, 2946.901
802.9302, 2974.779
803.4124, 2996.995
803.8945, 3011.124
804.3766, 3022.225
804.8587, 3028.509
805.3408, 3034.113
805.8229, 3042.156
806.3051, 3052.646
806.7872, 3068.808
807.2693, 3092.390
807.7514, 3112.850
808.2335, 3108.077
808.7156, 3097.221
809.1978, 3112.330
809.6799, 3167.946
810.1620, 3222.983
810.6441, 3266.602
811.1262, 3297.968
811.6083, 3314.603
812.0905, 3305.492
812.5726, 3308.295
813.0547, 3325.295
813.5368, 3351.133
814.0189, 3384.265
814.5010, 3422.245
814.9832, 3449.939
815.4653, 3463.705
815.9474, 3472.044
816.4295, 3476.347
816.9116, 3482.710
817.3937, 3499.997
817.8759, 3539.018
818.3580, 3571.661
818.8401, 3589.267
819.3222, 3599.585
819.8043, 3608.466
820.2864, 3614.627
820.7686, 3625.211
821.2507, 3640.699
821.7328, 3660.896
822.2149, 3688.085
822.6970, 3719.319
823.1791, 3749.262
823.6613, 3779.055
824.1434, 3798.469
824.6255, 3786.620
825.1076, 3766.824
825.5897, 3765.196
826.0718, 3814.783
826.5540, 3840.130
827.0361, 3828.498
827.5182, 3807.422
828.0003, 3811.719
828.4824, 3841.019
828.9645, 3867.787
829.4467, 3888.861
829.9288, 3902.450
830.4109, 3899.999
830.8930, 3890.785
831.3751, 3890.839
831.8572, 3912.374
832.3394, 3924.803
832.8215, 3902.961
833.3036, 3874.692
833.7857, 3872.070
834.2678, 3907.217
834.7499, 3934.294
835.2321, 3952.783
835.7142, 3957.201
836.1963, 3928.335
836.6784, 3877.912
837.1605, 3852.487
837.6426, 3865.122
838.1248, 3885.111
838.6069, 3889.772
839.0890, 3888.245
839.5711, 3891.186
840.0532, 3909.799
840.5353, 3915.524
841.0175, 3901.001
841.4996, 3879.361
841.9817, 3863.927
842.4638, 3854.897
842.9459, 3844.263
843.4280, 3830.467
843.9102, 3819.239
844.3923, 3820.250
844.8744, 3826.944
845.3565, 3829.837
845.8386, 3828.254
846.3207, 3818.308
846.8029, 3785.202
847.2850, 3751.637
847.7671, 3739.267
848.2492, 3762.896
848.7313, 3765.746
849.2134, 3741.605
849.6956, 3712.459
850.1777, 3705.460
850.6598, 3712.002
851.1419, 3697.274
851.6240, 3654.622
852.1061, 3616.519
852.5883, 3611.967
853.0704, 3620.495
853.5525, 3624.651
854.0346, 3623.164
854.5167, 3611.009
854.9988, 3577.979
855.4810, 3547.569
855.9631, 3541.490
856.4452, 3560.350
856.9273, 3556.500
857.4094, 3527.483
857.8915, 3494.814
858.3737, 3476.995
858.8558, 3467.207
859.3379, 3456.639
859.8200, 3444.076
860.3021, 3435.133
860.7842, 3442.567
861.2664, 3444.754
861.7485, 3426.545
862.2306, 3384.185
862.7127, 3359.608
863.1948, 3355.323
863.6769, 3356.921
864.1591, 3357.904
864.6412, 3356.218
865.1233, 3346.006
865.6054, 3327.450
866.0875, 3306.374
866.5696, 3280.050
867.0518, 3257.244
867.5339, 3246.827
868.0160, 3249.902
868.4981, 3241.411
868.9802, 3213.911
869.4623, 3190.517
869.9445, 3185.060
870.4266, 3192.552
870.9087, 3190.936
871.3908, 3180.449
871.8729, 3164.284
872.3550, 3134.486
872.8372, 3107.698
873.3193, 3101.943
873.8014, 3113.510
874.2835, 3120.186
874.7656, 3112.302
875.2477, 3104.583
875.7299, 3101.878
876.2120, 3101.839
876.6941, 3094.478
877.1762, 3079.857
877.6583, 3063.470
878.1404, 3043.310
878.6226, 3027.437
879.1047, 3029.080
879.5869, 3043.685
880.0690, 3059.520
880.5511, 3082.983
881.0332, 3094.319
881.5153, 3078.454
881.9974, 3049.796
882.4796, 3038.667
882.9617, 3049.026
883.4438, 3053.397
883.9259, 3042.473
884.4080, 3028.454
884.8901, 3030.497
885.3723, 3044.660
885.8544, 3062.552
886.3365, 3086.901
886.8186, 3104.944
887.3007, 3105.736
887.7828, 3098.813
888.2650, 3097.591
888.7471, 3104.180
889.2292, 3110.876
889.7113, 3116.004
890.1934, 3123.537
890.6755, 3143.511
891.1577, 3170.310
891.6398, 3184.827
892.1219, 3180.865
892.6040, 3177.551
893.0861, 3186.717
893.5682, 3203.612
894.0504, 3224.937
894.5325, 3254.628
895.0146, 3276.826
895.4967, 3289.426
895.9788, 3298.381
896.4609, 3305.189
896.9431, 3311.589
897.4252, 3331.787
897.9073, 3366.718
898.3894, 3399.212
898.8715, 3410.303
899.3536, 3418.195
899.8358, 3442.697
900.3179, 3487.679
900.8000, 3516.928
901.2821, 3516.121
901.7642, 3514.982
902.2463, 3525.977
902.7285, 3548.142
903.2106, 3575.594
903.6927, 3608.354
904.1748, 3648.655
904.6569, 3708.899
905.1390, 3769.624
905.6212, 3809.338
906.1033, 3831.318
906.5854, 3853.870
907.0675, 3880.814
907.5496, 3909.975
908.0317, 3940.776
908.5139, 3973.263
908.9960, 4007.435
909.4781, 4043.162
909.9602, 4084.991
910.4423, 4137.041
910.9244, 4191.027
911.4066, 4229.506
911.8887, 4263.626
912.3708, 4314.651
912.8529, 4421.707
913.3350, 4503.954
913.8171, 4529.352
914.2993, 4535.888
914.7814, 4572.424
915.2635, 4640.379
915.7456, 4721.960
916.2277, 4816.970
916.7098, 4915.426
917.1920, 5008.132
917.6741, 5094.808
918.1562, 5172.269
918.6383, 5234.306
919.1204, 5304.811
919.6025, 5395.583
920.0847, 5493.694
920.5668, 5589.319
921.0489, 5680.697
921.5310, 5785.962
922.0131, 5905.314
922.4952, 6032.908
922.9774, 6156.660
923.4595, 6288.867
923.9416, 6455.982
924.4237, 6656.179
924.9058, 6850.100
925.3879, 7010.998
925.8701, 7175.483
926.3522, 7359.674
926.8343, 7562.824
927.3164, 7764.927
927.7985, 7962.601
928.2806, 8199.646
928.7628, 8509.069
929.2449, 8853.648
929.7270, 9177.127
930.2091, 9488.903
930.6912, 9823.944
931.1733, 10179.33
931.6555, 10576.07
932.1376, 11023.99
932.6197, 11513.24
933.1018, 12017.56
933.5839, 12530.38
934.0660, 13143.33
934.5482, 13887.42
935.0303, 14709.22
935.5124, 15545.59
935.9945, 16425.30
936.4766, 17383.89
936.9587, 18438.95
937.4409, 19587.61
937.9230, 20853.03
938.4051, 22213.24
938.8872, 23634.75
939.3693, 25111.06
939.8514, 26784.98
940.3336, 28656.01
940.8157, 30617.07
941.2978, 32607.65
941.7799, 34634.13
942.2620, 36708.07
942.7441, 38823.90
943.2263, 41033.50
943.7084, 43387.80
944.1905, 45753.59
944.6726, 48071.05
945.1547, 50348.44
945.6368, 52681.96
946.1190, 55106.40
946.6011, 57325.53
947.0832, 59302.04
947.5653, 60904.49
948.0474, 62014.34
948.5295, 62634.30
949.0117, 62770.75
949.4938, 62430.08
949.9759, 61570.33
950.4580, 60179.71
950.9401, 58310.54
951.4222, 56005.86
951.9044, 53253.34
952.3865, 50301.09
952.8686, 47165.47
953.3507, 43948.82
953.8328, 40611.90
954.3149, 37329.33
954.7971, 34296.96
955.2792, 31620.59
955.7613, 29167.25
956.2434, 26934.24
956.7255, 24882.93
957.2076, 23000.71
957.6898, 21280.13
958.1719, 19705.80
958.6540, 18265.09
959.1361, 16949.35
959.6182, 15737.50
960.1003, 14640.93
960.5825, 13663.80
961.0646, 12801.33
961.5467, 12027.12
962.0288, 11363.77
962.5109, 10752.88
962.9930, 10198.49
963.4752, 9689.127
963.9573, 9207.314
964.4394, 8757.382
964.9215, 8340.898
965.4036, 7957.682
965.8857, 7608.286
966.3679, 7294.186
966.8500, 7013.463
967.3321, 6761.492
967.8142, 6551.893
968.2963, 6347.826
968.7784, 6149.132
969.2606, 5959.280
969.7427, 5784.519
970.2248, 5623.634
970.7069, 5474.816
971.1890, 5338.342
971.6711, 5203.104
972.1533, 5049.838
972.6354, 4907.143
973.1175, 4798.459
973.5996, 4723.917
974.0817, 4658.855
974.5638, 4606.532
975.0460, 4552.216
975.5281, 4487.797
976.0102, 4418.566
976.4923, 4349.340
976.9744, 4284.004
977.4565, 4233.971
977.9387, 4214.367
978.4208, 4199.031
978.9029, 4176.866
979.3850, 4154.970
979.8671, 4145.208
980.3492, 4151.457
980.8314, 4146.114
981.3135, 4124.531
981.7956, 4098.336
982.2777, 4077.829
982.7598, 4061.728
983.2419, 4044.883
983.7241, 4024.331
984.2062, 4022.439
984.6883, 4067.848
985.1704, 4111.336
985.6525, 4130.258
986.1346, 4127.007
986.6168, 4126.009
987.0989, 4127.210
987.5810, 4128.913
988.0631, 4137.831
988.5452, 4140.326
989.0273, 4116.606
989.5095, 4076.476
989.9916, 4045.419
990.4737, 4038.052
990.9558, 4024.376
991.4379, 3999.238
991.9200, 3969.069
992.4022, 3947.659
992.8843, 3930.897
993.3664, 3897.381
993.8485, 3841.018
994.3306, 3783.609
994.8127, 3739.180
995.2949, 3700.979
995.7770, 3665.172
996.2591, 3632.591
996.7412, 3592.236
997.2233, 3541.475
997.7054, 3493.889
998.1876, 3462.691
998.6697, 3438.652
999.1518, 3396.382
999.6339, 3341.180
1000.116, 3293.727
1000.598, 3268.590
1001.080, 3246.094
1001.562, 3213.799
1002.044, 3182.108
1002.527, 3175.382
1003.009, 3196.618
1003.491, 3198.964
1003.973, 3171.991
1004.455, 3132.753
1004.937, 3088.655
1005.419, 3049.370
1005.901, 3031.950
1006.384, 3048.160
1006.866, 3047.426
1007.348, 3014.503
1007.830, 2978.584
1008.312, 2952.969
1008.794, 2938.131
1009.276, 2942.148
1009.758, 2962.538
1010.240, 2978.714
1010.723, 2977.267
1011.205, 2969.194
1011.687, 2958.484
1012.169, 2946.678
1012.651, 2937.701
1013.133, 2933.016
1013.615, 2925.426
1014.097, 2911.276
1014.580, 2900.765
1015.062, 2914.048
1015.544, 2939.542
1016.026, 2954.855
1016.508, 2954.554
1016.990, 2951.203
1017.472, 2950.155
1017.954, 2946.854
1018.436, 2936.420
1018.919, 2919.720
1019.401, 2916.349
1019.883, 2926.340
1020.365, 2936.904
1020.847, 2936.572
1021.329, 2936.701
1021.811, 2951.856
1022.293, 2976.119
1022.776, 2995.187
1023.258, 3004.174
1023.740, 3010.298
1024.222, 3010.910
1024.704, 3014.547
1025.186, 3035.841
1025.668, 3070.120
1026.150, 3098.873
1026.632, 3118.805
1027.115, 3145.104
1027.597, 3193.162
1028.079, 3245.537
1028.561, 3291.768
1029.043, 3331.817
1029.525, 3364.240
1030.007, 3385.835
1030.489, 3422.044
1030.972, 3489.376
1031.454, 3572.237
1031.936, 3653.361
1032.418, 3733.825
1032.900, 3814.625
1033.382, 3895.100
1033.864, 3978.193
1034.346, 4058.994
1034.828, 4148.708
1035.311, 4256.609
1035.793, 4383.669
1036.275, 4532.246
1036.757, 4703.813
1037.239, 4885.617
1037.721, 5073.025
1038.203, 5264.225
1038.685, 5445.364
1039.167, 5621.571
1039.650, 5848.231
1040.132, 6130.972
1040.614, 6433.263
1041.096, 6737.042
1041.578, 7052.545
1042.060, 7382.806
1042.542, 7731.571
1043.024, 8111.800
1043.507, 8530.664
1043.989, 8968.526
1044.471, 9433.540
1044.953, 9908.635
1045.435, 10384.82
1045.917, 10861.47
1046.399, 11367.73
1046.881, 11900.30
1047.364, 12422.78
1047.846, 12928.45
1048.328, 13399.08
1048.810, 13833.60
1049.292, 14219.82
1049.774, 14532.43
1050.256, 14772.20
1050.738, 14938.06
1051.220, 15032.89
1051.703, 15045.18
1052.185, 14961.98
1052.667, 14782.18
1053.149, 14501.54
1053.631, 14116.13
1054.113, 13642.58
1054.595, 13055.36
1055.077, 12410.70
1055.559, 11709.96
1056.042, 10973.72
1056.524, 10304.95
1057.006, 9699.630
1057.488, 9125.015
1057.970, 8549.452
1058.452, 8013.323
1058.934, 7548.149
1059.416, 7132.484
1059.899, 6724.925
1060.381, 6309.812
1060.863, 5947.814
1061.345, 5647.122
1061.827, 5382.103
1062.309, 5127.688
1062.791, 4885.646
1063.273, 4658.796
1063.755, 4445.894
1064.238, 4261.410
1064.720, 4120.659
1065.202, 3992.690
1065.684, 3873.747
1066.166, 3759.563
1066.648, 3634.136
1067.130, 3503.616
1067.612, 3387.438
1068.094, 3295.546
1068.577, 3210.585
1069.059, 3116.384
1069.541, 3027.323
1070.023, 2956.113
1070.505, 2904.456
1070.987, 2860.213
1071.469, 2823.564
1071.951, 2787.290
1072.434, 2745.206
1072.916, 2701.125
1073.398, 2657.573
1073.880, 2615.149
1074.362, 2576.035
1074.844, 2538.910
1075.326, 2507.674
1075.808, 2485.044
1076.291, 2463.923
1076.773, 2430.375
1077.255, 2390.333
1077.737, 2365.545
1078.219, 2360.512
1078.701, 2346.503
1079.183, 2292.569
1079.665, 2243.270
1080.147, 2223.475
1080.630, 2227.264
1081.112, 2218.148
1081.594, 2196.575
1082.076, 2175.947
1082.558, 2160.125
1083.040, 2149.416
1083.522, 2148.782
1084.004, 2151.337
1084.486, 2147.694
1084.969, 2135.802
1085.451, 2119.139
1085.933, 2094.972
1086.415, 2076.837
1086.897, 2083.031
1087.379, 2098.255
1087.861, 2095.113
1088.343, 2076.300
1088.826, 2055.709
1089.308, 2031.555
1089.790, 2016.167
1090.272, 2014.401
1090.754, 2018.760
1091.236, 2017.938
1091.718, 2012.920
1092.200, 2008.998
1092.682, 2007.293
1093.165, 2002.208
1093.647, 1988.187
1094.129, 1971.349
1094.611, 1952.250
1095.093, 1932.789
1095.575, 1929.555
1096.057, 1943.317
1096.539, 1954.165
1097.022, 1953.941
1097.504, 1949.081
1097.986, 1944.869
1098.468, 1940.630
1098.950, 1935.450
1099.432, 1928.832
1099.914, 1921.837
1100.396, 1914.151
1100.879, 1907.499
1101.361, 1903.244
1101.843, 1900.885
1102.325, 1900.167
1102.807, 1900.532
1103.289, 1899.982
1103.771, 1900.826
1104.253, 1895.692
1104.735, 1880.110
1105.218, 1862.479
1105.700, 1855.591
1106.182, 1857.267
1106.664, 1858.163
1107.146, 1857.266
1107.628, 1853.887
1108.110, 1845.449
1108.592, 1836.498
1109.074, 1829.141
1109.557, 1823.419
1110.039, 1820.711
1110.521, 1821.058
1111.003, 1819.323
1111.485, 1814.021
1111.967, 1806.258
1112.449, 1792.056
1112.931, 1779.007
1113.414, 1776.542
1113.896, 1787.912
1114.378, 1798.021
1114.860, 1807.444
1115.342, 1813.074
1115.824, 1812.754
1116.306, 1807.926
1116.788, 1797.092
1117.271, 1784.030
1117.753, 1777.045
1118.235, 1788.252
1118.717, 1790.948
1119.199, 1780.546
1119.681, 1767.045
1120.163, 1760.184
1120.645, 1758.208
1121.127, 1757.043
1121.609, 1756.141
1122.092, 1753.097
1122.574, 1744.783
1123.056, 1736.265
1123.538, 1727.358
1124.020, 1720.614
1124.502, 1721.728
1124.984, 1730.094
1125.466, 1742.534
1125.949, 1759.343
1126.431, 1770.892
1126.913, 1767.763
1127.395, 1758.931
1127.877, 1747.185
1128.359, 1734.356
1128.841, 1739.298
1129.323, 1763.656
1129.806, 1774.889
1130.288, 1755.614
1130.770, 1730.568
1131.252, 1720.703
1131.734, 1722.210
1132.216, 1732.159
1132.698, 1754.690
1133.180, 1768.590
1133.662, 1773.668
1134.145, 1770.381
1134.627, 1748.894
1135.109, 1725.924
1135.591, 1733.485
1136.073, 1760.883
1136.555, 1780.832
1137.037, 1786.449
1137.519, 1779.842
1138.001, 1754.084
1138.484, 1731.275
1138.966, 1740.356
1139.448, 1768.786
1139.930, 1788.900
1140.412, 1798.994
1140.894, 1798.878
1141.376, 1780.045
1141.858, 1760.702
1142.341, 1740.028
1142.823, 1727.185
1143.305, 1750.997
1143.787, 1799.420
1144.269, 1813.177
1144.751, 1779.016
1145.233, 1748.323
1145.715, 1753.103
1146.198, 1767.205
1146.680, 1777.356
1147.162, 1783.944
1147.644, 1789.493
1148.126, 1793.717
1148.608, 1791.839
1149.090, 1779.583
1149.572, 1768.264
1150.054, 1768.270
1150.536, 1771.985
1151.019, 1771.454
1151.501, 1765.867
1151.983, 1765.721
1152.465, 1771.239
1152.947, 1776.555
1153.429, 1778.478
1153.911, 1778.811
1154.393, 1779.749
1154.876, 1780.103
1155.358, 1777.168
1155.840, 1768.319
1156.322, 1764.876
1156.804, 1768.029
1157.286, 1771.175
1157.768, 1766.672
1158.250, 1760.734
1158.733, 1762.030
1159.215, 1768.911
1159.697, 1774.634
1160.179, 1780.276
1160.661, 1779.287
1161.143, 1768.857
1161.625, 1757.453
1162.107, 1754.455
1162.589, 1757.243
1163.072, 1763.760
1163.554, 1773.180
1164.036, 1776.836
1164.518, 1767.846
1165.000, 1760.762
1165.482, 1758.747
1165.964, 1760.735
1166.446, 1770.399
1166.928, 1781.311
1167.411, 1775.900
1167.893, 1747.767
1168.375, 1726.858
1168.857, 1724.947
1169.339, 1730.209
1169.821, 1741.537
1170.303, 1754.735
1170.785, 1754.706
1171.268, 1745.882
1171.750, 1743.251
1172.232, 1753.726
1172.714, 1765.179
1173.196, 1776.676
1173.678, 1783.594
1174.160, 1782.267
1174.642, 1773.607
1175.125, 1760.557
1175.607, 1744.696
1176.089, 1735.524
1176.571, 1746.330
1177.053, 1752.934
1177.535, 1737.394
1178.017, 1718.220
1178.499, 1713.574
1178.981, 1723.210
1179.464, 1728.290
1179.946, 1728.788
1180.428, 1728.384
1180.910, 1728.693
1181.392, 1729.493
1181.874, 1729.820
1182.356, 1731.059
1182.838, 1736.759
1183.320, 1747.320
1183.803, 1750.629
1184.285, 1745.587
1184.767, 1738.515
1185.249, 1734.757
1185.731, 1730.026
1186.213, 1719.540
1186.695, 1706.024
1187.177, 1695.964
1187.660, 1689.066
1188.142, 1693.333
1188.624, 1712.014
1189.106, 1725.895
1189.588, 1709.158
1190.070, 1687.879
1190.552, 1686.144
1191.034, 1701.274
1191.516, 1706.242
1191.999, 1699.753
1192.481, 1695.576
1192.963, 1697.300
1193.445, 1701.881
1193.927, 1710.078
1194.409, 1717.016
1194.891, 1717.016
1195.373, 1709.643
1195.855, 1700.960
1196.338, 1690.414
1196.820, 1683.261
1197.302, 1682.897
1197.784, 1684.082
1198.266, 1680.037
1198.748, 1674.712
1199.230, 1673.990
1199.712, 1679.851
1200.195, 1680.531
1200.677, 1675.450
1201.159, 1669.117
1201.641, 1662.862
1202.123, 1657.981
1202.605, 1654.591
1203.087, 1654.151
1203.569, 1659.868
1204.052, 1675.808
1204.534, 1685.767
1205.016, 1689.250
1205.498, 1690.172
1205.980, 1690.175
1206.462, 1689.998
1206.944, 1692.731
1207.426, 1695.592
1207.908, 1690.635
1208.391, 1669.620
1208.873, 1665.075
1209.355, 1681.120
1209.837, 1698.527
1210.319, 1699.656
1210.801, 1694.183
1211.283, 1692.729
1211.765, 1694.134
1212.247, 1692.608
1212.730, 1685.391
1213.212, 1683.882
1213.694, 1690.772
1214.176, 1696.132
1214.658, 1685.246
1215.140, 1671.223
1215.622, 1671.326
1216.104, 1683.344
1216.587, 1688.205
1217.069, 1680.830
1217.551, 1681.317
1218.033, 1694.927
1218.515, 1708.375
1218.997, 1707.208
1219.479, 1697.477
1219.961, 1680.943
1220.443, 1659.888
1220.926, 1656.568
1221.408, 1677.271
1221.890, 1693.133
1222.372, 1697.454
1222.854, 1694.790
1223.336, 1686.353
1223.818, 1676.686
1224.300, 1671.893
1224.782, 1672.842
1225.265, 1669.714
1225.747, 1661.332
1226.229, 1654.112
1226.711, 1649.759
1227.193, 1648.064
1227.675, 1650.092
1228.157, 1653.869
1228.639, 1657.505
1229.122, 1660.912
1229.604, 1661.152
1230.086, 1657.358
1230.568, 1656.572
1231.050, 1663.157
1231.532, 1670.419
1232.014, 1672.469
1232.496, 1669.658
1232.979, 1659.844
1233.461, 1641.147
1233.943, 1635.727
1234.425, 1644.657
1234.907, 1656.943
1235.389, 1670.352
1235.871, 1680.157
1236.353, 1679.663
1236.835, 1674.121
1237.318, 1670.776
1237.800, 1670.818
1238.282, 1666.378
1238.764, 1657.307
1239.246, 1647.289
1239.728, 1634.226
1240.210, 1626.531
1240.692, 1635.051
1241.175, 1651.667
1241.657, 1666.562
1242.139, 1681.178
1242.621, 1680.131
1243.103, 1663.245
1243.585, 1649.015
1244.067, 1645.491
1244.549, 1651.792
1245.031, 1681.493
1245.514, 1712.428
1245.996, 1712.066
1246.478, 1676.689
1246.960, 1655.306
1247.442, 1648.284
1247.924, 1646.436
1248.406, 1647.577
1248.888, 1648.261
1249.370, 1644.128
1249.853, 1639.951
1250.335, 1642.000
1250.817, 1650.096
1251.299, 1663.333
1251.781, 1680.736
1252.263, 1689.950
1252.745, 1674.887
1253.227, 1659.931
1253.710, 1658.662
1254.192, 1661.151
1254.674, 1651.682
1255.156, 1633.419
1255.638, 1631.627
1256.120, 1646.444
1256.602, 1660.909
1257.084, 1665.742
1257.567, 1668.615
1258.049, 1673.005
1258.531, 1675.852
1259.013, 1671.045
1259.495, 1661.067
1259.977, 1654.161
1260.459, 1651.089
1260.941, 1652.131
1261.423, 1663.001
1261.906, 1670.149
1262.388, 1669.293
1262.870, 1665.679
1263.352, 1668.040
1263.834, 1673.132
1264.316, 1672.664
1264.798, 1666.389
1265.280, 1661.109
1265.762, 1659.558
1266.245, 1657.766
1266.727, 1654.298
1267.209, 1652.033
1267.691, 1656.085
1268.173, 1663.482
1268.655, 1670.398
1269.137, 1676.286
1269.619, 1677.727
1270.102, 1672.267
1270.584, 1669.276
1271.066, 1671.423
1271.548, 1674.188
1272.030, 1671.490
1272.512, 1666.438
1272.994, 1662.228
1273.476, 1659.286
1273.958, 1656.513
1274.441, 1652.275
1274.923, 1658.564
1275.405, 1681.349
1275.887, 1699.762
1276.369, 1684.093
1276.851, 1659.770
1277.333, 1652.252
1277.815, 1659.587
1278.297, 1661.207
1278.780, 1656.882
1279.262, 1650.932
1279.744, 1643.864
1280.226, 1638.596
1280.708, 1636.282
1281.190, 1637.982
1281.672, 1647.632
1282.154, 1661.214
1282.637, 1661.818
1283.119, 1651.276
1283.601, 1648.453
1284.083, 1658.776
1284.565, 1666.184
1285.047, 1655.783
1285.529, 1645.865
1286.011, 1646.417
1286.494, 1653.046
1286.976, 1653.105
1287.458, 1648.590
1287.940, 1646.354
1288.422, 1648.073
1288.904, 1649.753
1289.386, 1649.807
1289.868, 1649.957
1290.350, 1651.722
1290.833, 1652.505
1291.315, 1643.011
1291.797, 1629.937
1292.279, 1627.621
1292.761, 1640.004
1293.243, 1651.394
1293.725, 1660.964
1294.207, 1666.477
1294.689, 1666.852
1295.172, 1663.826
1295.654, 1656.990
1296.136, 1649.955
1296.618, 1649.394
1297.100, 1657.067
1297.582, 1653.063
1298.064, 1633.951
1298.546, 1626.015
1299.029, 1640.244
##END=



