##NAMES=Vivianite
##RRUFFID=R070331
##IDEAL CHEMISTRY=Fe^2+^_3_(PO_4_)_2_&#183;8H_2_O
##LOCALITY=Big Fish River, Yukon Territory, Canada
##OWNER=RRUFF
##SOURCE=Mark Mauthner
##DESCRIPTION=Platy, indigo-blue massive, associated with maricite
##STATUS=The identification of this mineral is confirmed by single-crystal X-ray diffraction and chemical analysis.
##URL=rruff.info/R070331
##MEASURED CHEMISTRY=(Fe^2+^_1.77_Mg_1.21_Mn_0.02_)_Σ=3_(P_1.00_O_4_)_2_·8H_2_O;  (dark phase, H_2_O is estimated by difference) : Na_1.00_Fe^2+^_1.00_P_1.00_O_4_ (light phase = maricite, with trace amounts of Mn)
164.4099, 2816.972
164.8920, 2853.917
165.3741, 2871.855
165.8563, 2882.779
166.3384, 2891.625
166.8205, 2899.092
167.3026, 2906.076
167.7847, 2910.617
168.2668, 2915.665
168.7490, 2929.602
169.2311, 2957.910
169.7132, 2982.657
170.1953, 2993.752
170.6774, 2995.631
171.1595, 2994.217
171.6417, 2990.282
172.1238, 2985.579
172.6059, 2986.501
173.0880, 2999.781
173.5701, 3004.524
174.0522, 2980.268
174.5344, 2944.615
175.0165, 2925.058
175.4986, 2941.921
175.9807, 2979.128
176.4628, 2990.342
176.9449, 2960.859
177.4271, 2931.581
177.9092, 2914.950
178.3913, 2908.743
178.8734, 2911.414
179.3555, 2924.735
179.8376, 2944.142
180.3197, 2955.155
180.8019, 2950.463
181.2840, 2950.426
181.7661, 2965.608
182.2482, 2987.157
182.7303, 3002.552
183.2124, 3003.489
183.6946, 2998.051
184.1767, 3011.453
184.6588, 3058.168
185.1409, 3098.551
185.6230, 3118.307
186.1051, 3128.190
186.5873, 3140.248
187.0694, 3160.008
187.5515, 3185.270
188.0336, 3211.753
188.5157, 3244.097
188.9978, 3268.530
189.4800, 3272.169
189.9621, 3271.632
190.4442, 3285.430
190.9263, 3322.316
191.4084, 3373.613
191.8905, 3418.242
192.3727, 3451.913
192.8548, 3486.554
193.3369, 3523.149
193.8190, 3562.090
194.3011, 3606.774
194.7832, 3658.781
195.2654, 3710.118
195.7475, 3740.729
196.2296, 3732.999
196.7117, 3738.022
197.1938, 3770.813
197.6759, 3812.374
198.1581, 3847.258
198.6402, 3870.221
199.1223, 3884.587
199.6044, 3897.681
200.0865, 3916.764
200.5686, 3918.360
201.0508, 3887.550
201.5329, 3849.873
202.0150, 3826.695
202.4971, 3823.271
202.9792, 3827.413
203.4613, 3819.294
203.9435, 3793.421
204.4256, 3767.114
204.9077, 3741.660
205.3898, 3715.813
205.8719, 3687.928
206.3540, 3658.017
206.8362, 3628.343
207.3183, 3602.299
207.8004, 3582.559
208.2825, 3560.083
208.7646, 3537.233
209.2467, 3510.244
209.7289, 3473.979
210.2110, 3429.632
210.6931, 3384.762
211.1752, 3348.020
211.6573, 3320.827
212.1395, 3297.680
212.6216, 3282.882
213.1037, 3268.286
213.5858, 3248.271
214.0679, 3224.021
214.5500, 3201.663
215.0322, 3187.999
215.5143, 3184.774
215.9964, 3178.925
216.4785, 3169.647
216.9606, 3158.521
217.4427, 3146.343
217.9249, 3132.803
218.4070, 3116.622
218.8891, 3096.026
219.3712, 3070.797
219.8533, 3049.186
220.3354, 3034.744
220.8176, 3020.660
221.2997, 3005.663
221.7818, 2989.614
222.2639, 2972.739
222.7460, 2955.440
223.2281, 2937.439
223.7103, 2917.228
224.1924, 2888.531
224.6745, 2864.580
225.1566, 2850.711
225.6387, 2842.719
226.1208, 2834.190
226.6030, 2821.345
227.0851, 2805.513
227.5672, 2792.129
228.0493, 2780.376
228.5314, 2772.688
229.0135, 2770.292
229.4957, 2771.566
229.9778, 2775.688
230.4599, 2782.456
230.9420, 2789.722
231.4241, 2791.899
231.9062, 2785.630
232.3884, 2779.737
232.8705, 2773.253
233.3526, 2768.684
233.8347, 2769.367
234.3168, 2776.198
234.7989, 2785.112
235.2811, 2788.492
235.7632, 2782.635
236.2453, 2780.089
236.7274, 2776.554
237.2095, 2779.731
237.6916, 2800.575
238.1738, 2838.685
238.6559, 2877.289
239.1380, 2892.865
239.6201, 2876.759
240.1022, 2869.766
240.5843, 2874.990
241.0665, 2888.195
241.5486, 2913.711
242.0307, 2948.088
242.5128, 2978.439
242.9949, 2989.667
243.4770, 2979.546
243.9592, 2977.338
244.4413, 2991.393
244.9234, 3005.967
245.4055, 3016.702
245.8876, 3023.285
246.3697, 3025.958
246.8519, 3023.343
247.3340, 3016.465
247.8161, 3014.583
248.2982, 3018.357
248.7803, 3027.003
249.2624, 3045.967
249.7446, 3068.206
250.2267, 3082.037
250.7088, 3079.975
251.1909, 3066.928
251.6730, 3055.058
252.1551, 3038.737
252.6373, 3035.982
253.1194, 3065.865
253.6015, 3105.220
254.0836, 3127.817
254.5657, 3122.491
255.0478, 3103.749
255.5300, 3096.215
256.0121, 3104.954
256.4942, 3105.615
256.9763, 3076.508
257.4584, 3045.133
257.9406, 3032.759
258.4227, 3044.216
258.9048, 3065.198
259.3869, 3083.317
259.8690, 3098.665
260.3511, 3109.423
260.8333, 3114.610
261.3154, 3115.172
261.7975, 3109.220
262.2796, 3097.536
262.7617, 3089.073
263.2438, 3092.201
263.7260, 3104.907
264.2081, 3115.441
264.6902, 3122.233
265.1723, 3127.172
265.6544, 3132.425
266.1365, 3137.395
266.6187, 3139.774
267.1008, 3134.217
267.5829, 3126.097
268.0650, 3127.302
268.5471, 3139.561
269.0292, 3156.344
269.5114, 3175.081
269.9935, 3195.107
270.4756, 3216.044
270.9577, 3242.921
271.4398, 3266.456
271.9219, 3272.268
272.4041, 3259.758
272.8862, 3250.480
273.3683, 3256.348
273.8504, 3271.960
274.3325, 3286.715
274.8146, 3302.522
275.2968, 3313.129
275.7789, 3310.094
276.2610, 3297.057
276.7431, 3288.809
277.2252, 3290.424
277.7073, 3299.598
278.1895, 3314.472
278.6716, 3337.371
279.1537, 3354.582
279.6358, 3358.462
280.1179, 3353.997
280.6000, 3349.770
281.0822, 3347.832
281.5643, 3345.121
282.0464, 3336.672
282.5285, 3321.771
283.0106, 3310.878
283.4927, 3310.462
283.9749, 3311.198
284.4570, 3303.049
284.9391, 3285.842
285.4212, 3268.279
285.9033, 3256.954
286.3854, 3252.155
286.8676, 3250.552
287.3497, 3258.335
287.8318, 3263.052
288.3139, 3259.624
288.7960, 3248.317
289.2781, 3228.610
289.7603, 3198.465
290.2424, 3162.589
290.7245, 3141.822
291.2066, 3151.018
291.6887, 3155.818
292.1708, 3150.710
292.6530, 3138.574
293.1351, 3121.698
293.6172, 3101.027
294.0993, 3079.040
294.5814, 3060.157
295.0635, 3044.901
295.5457, 3032.211
296.0278, 3022.666
296.5099, 3015.114
296.9920, 3011.874
297.4741, 3011.332
297.9562, 3005.855
298.4384, 2985.201
298.9205, 2944.809
299.4026, 2921.243
299.8847, 2929.069
300.3668, 2938.609
300.8489, 2942.296
301.3310, 2939.669
301.8131, 2931.410
302.2953, 2917.035
302.7774, 2898.403
303.2595, 2885.160
303.7416, 2880.173
304.2237, 2876.808
304.7058, 2875.704
305.1880, 2874.452
305.6701, 2870.904
306.1522, 2864.305
306.6343, 2854.382
307.1164, 2837.728
307.5985, 2809.459
308.0807, 2793.020
308.5628, 2805.323
309.0449, 2822.099
309.5270, 2830.204
310.0091, 2828.149
310.4912, 2820.831
310.9734, 2811.770
311.4555, 2800.937
311.9376, 2787.745
312.4197, 2770.167
312.9018, 2753.164
313.3839, 2741.318
313.8661, 2732.501
314.3482, 2721.088
314.8303, 2699.717
315.3124, 2676.303
315.7945, 2668.868
316.2766, 2681.290
316.7588, 2686.695
317.2409, 2663.641
317.7230, 2626.497
318.2051, 2599.241
318.6872, 2587.663
319.1693, 2581.285
319.6515, 2575.463
320.1336, 2569.281
320.6157, 2557.539
321.0978, 2536.461
321.5799, 2512.355
322.0620, 2494.768
322.5442, 2483.678
323.0263, 2476.233
323.5084, 2472.570
323.9905, 2471.678
324.4726, 2473.451
324.9547, 2477.839
325.4369, 2481.138
325.9190, 2479.485
326.4011, 2472.273
326.8832, 2465.937
327.3653, 2463.763
327.8474, 2459.424
328.3296, 2444.848
328.8117, 2424.428
329.2938, 2411.987
329.7759, 2416.506
330.2580, 2433.569
330.7401, 2443.007
331.2223, 2439.702
331.7044, 2435.074
332.1865, 2428.580
332.6686, 2422.094
333.1507, 2419.016
333.6328, 2419.931
334.1150, 2420.044
334.5971, 2410.381
335.0792, 2381.945
335.5613, 2368.815
336.0434, 2382.448
336.5255, 2399.321
337.0077, 2408.844
337.4898, 2410.802
337.9719, 2409.598
338.4540, 2408.767
338.9361, 2407.884
339.4182, 2402.470
339.9004, 2386.634
340.3825, 2375.215
340.8646, 2374.495
341.3467, 2379.372
341.8288, 2384.659
342.3109, 2389.190
342.7931, 2389.848
343.2752, 2380.252
343.7573, 2358.768
344.2394, 2338.231
344.7215, 2318.084
345.2036, 2303.198
345.6858, 2300.953
346.1679, 2311.069
346.6500, 2317.060
347.1321, 2304.466
347.6142, 2279.892
348.0963, 2261.731
348.5785, 2252.784
349.0606, 2247.035
349.5427, 2240.347
350.0248, 2233.145
350.5069, 2226.794
350.9890, 2222.978
351.4712, 2218.921
351.9533, 2211.661
352.4354, 2201.815
352.9175, 2192.816
353.3996, 2186.642
353.8817, 2181.893
354.3639, 2174.896
354.8460, 2165.989
355.3281, 2154.954
355.8102, 2139.225
356.2923, 2122.475
356.7744, 2108.404
357.2566, 2097.941
357.7387, 2092.208
358.2208, 2093.569
358.7029, 2104.652
359.1850, 2107.709
359.6671, 2096.790
360.1493, 2085.040
360.6314, 2079.677
361.1135, 2078.062
361.5956, 2073.454
362.0777, 2061.647
362.5598, 2044.599
363.0420, 2028.654
363.5241, 2007.945
364.0062, 1998.762
364.4883, 2011.497
364.9704, 2029.814
365.4525, 2039.420
365.9347, 2037.588
366.4168, 2032.806
366.8989, 2035.343
367.3810, 2045.871
367.8631, 2052.827
368.3452, 2055.221
368.8274, 2054.322
369.3095, 2049.368
369.7916, 2041.914
370.2737, 2035.762
370.7558, 2034.120
371.2379, 2033.614
371.7201, 2024.730
372.2022, 2005.409
372.6843, 1998.745
373.1664, 2026.560
373.6485, 2065.288
374.1306, 2077.797
374.6128, 2056.455
375.0949, 2032.486
375.5770, 2022.357
376.0591, 2021.031
376.5412, 2018.425
377.0233, 2012.298
377.5055, 2006.258
377.9876, 2003.074
378.4697, 2003.000
378.9518, 2009.262
379.4339, 2032.494
379.9160, 2052.546
380.3982, 2056.055
380.8803, 2046.155
381.3624, 2030.922
381.8445, 2013.550
382.3266, 1997.990
382.8087, 1996.440
383.2909, 2029.810
383.7730, 2049.930
384.2551, 2045.659
384.7372, 2034.506
385.2193, 2030.743
385.7014, 2036.502
386.1836, 2044.828
386.6657, 2048.416
387.1478, 2046.949
387.6299, 2046.514
388.1120, 2047.526
388.5941, 2049.193
389.0763, 2056.839
389.5584, 2063.673
390.0405, 2055.688
390.5226, 2022.103
391.0047, 1985.318
391.4868, 1987.083
391.9690, 2032.698
392.4511, 2065.568
392.9332, 2061.742
393.4153, 2047.318
393.8974, 2049.124
394.3795, 2067.294
394.8617, 2081.581
395.3438, 2078.676
395.8259, 2066.748
396.3080, 2060.292
396.7901, 2060.941
397.2722, 2059.037
397.7544, 2043.547
398.2365, 2019.979
398.7186, 2015.227
399.2007, 2045.409
399.6828, 2075.877
400.1649, 2095.184
400.6471, 2105.515
401.1292, 2109.267
401.6113, 2107.197
402.0934, 2102.647
402.5755, 2100.385
403.0576, 2100.748
403.5398, 2102.702
404.0219, 2104.521
404.5040, 2109.277
404.9861, 2119.751
405.4682, 2134.541
405.9503, 2150.964
406.4325, 2168.113
406.9146, 2183.886
407.3967, 2189.395
407.8788, 2177.830
408.3609, 2169.948
408.8430, 2166.828
409.3252, 2170.453
409.8073, 2186.206
410.2894, 2213.750
410.7715, 2240.223
411.2536, 2252.980
411.7357, 2254.654
412.2179, 2257.831
412.7000, 2262.735
413.1821, 2270.512
413.6642, 2285.326
414.1463, 2303.397
414.6284, 2316.640
415.1106, 2322.219
415.5927, 2324.322
416.0748, 2321.521
416.5569, 2317.189
417.0390, 2323.685
417.5211, 2346.853
418.0033, 2376.229
418.4854, 2396.107
418.9675, 2403.042
419.4496, 2411.516
419.9317, 2425.148
420.4138, 2437.763
420.8960, 2442.477
421.3781, 2442.022
421.8602, 2446.553
422.3423, 2463.601
422.8244, 2488.709
423.3065, 2502.158
423.7887, 2493.910
424.2708, 2489.397
424.7529, 2491.563
425.2350, 2497.920
425.7171, 2508.983
426.1992, 2523.523
426.6814, 2535.257
427.1635, 2538.272
427.6456, 2532.951
428.1277, 2522.276
428.6098, 2501.417
429.0919, 2484.598
429.5741, 2480.749
430.0562, 2484.954
430.5383, 2491.497
431.0204, 2501.622
431.5025, 2508.225
431.9846, 2501.683
432.4668, 2486.086
432.9489, 2477.510
433.4310, 2481.822
433.9131, 2487.992
434.3952, 2480.983
434.8773, 2458.792
435.3595, 2446.075
435.8416, 2451.458
436.3237, 2460.124
436.8058, 2461.851
437.2879, 2459.317
437.7701, 2461.551
438.2522, 2473.567
438.7343, 2490.537
439.2164, 2499.813
439.6985, 2494.944
440.1806, 2493.725
440.6628, 2497.461
441.1449, 2503.693
441.6270, 2513.597
442.1091, 2525.109
442.5912, 2531.813
443.0733, 2525.923
443.5555, 2512.573
444.0376, 2513.927
444.5197, 2536.795
445.0018, 2555.209
445.4839, 2548.450
445.9660, 2538.145
446.4482, 2548.321
446.9303, 2584.319
447.4124, 2621.184
447.8945, 2643.717
448.3766, 2656.309
448.8587, 2667.456
449.3409, 2678.295
449.8230, 2687.676
450.3051, 2693.455
450.7872, 2696.602
451.2693, 2705.768
451.7514, 2728.068
452.2336, 2747.627
452.7157, 2753.563
453.1978, 2755.640
453.6799, 2769.068
454.1620, 2797.690
454.6441, 2831.444
455.1263, 2858.260
455.6084, 2878.331
456.0905, 2890.218
456.5726, 2882.437
457.0547, 2877.938
457.5368, 2889.098
458.0190, 2906.833
458.5011, 2915.146
458.9832, 2906.122
459.4653, 2891.136
459.9474, 2886.089
460.4295, 2891.114
460.9117, 2898.706
461.3938, 2909.548
461.8759, 2919.715
462.3580, 2925.112
462.8401, 2926.586
463.3222, 2928.478
463.8044, 2935.196
464.2865, 2940.302
464.7686, 2934.773
465.2507, 2921.772
465.7328, 2915.615
466.2149, 2924.016
466.6971, 2937.115
467.1792, 2935.225
467.6613, 2908.066
468.1434, 2886.948
468.6255, 2875.322
469.1076, 2866.571
469.5898, 2858.201
470.0719, 2849.226
470.5540, 2838.976
471.0361, 2827.180
471.5182, 2813.273
472.0003, 2794.071
472.4825, 2766.130
472.9646, 2742.647
473.4467, 2729.218
473.9288, 2719.388
474.4109, 2712.056
474.8930, 2705.941
475.3752, 2694.046
475.8573, 2666.378
476.3394, 2632.786
476.8215, 2610.282
477.3036, 2599.374
477.7857, 2592.538
478.2679, 2587.212
478.7500, 2582.662
479.2321, 2577.290
479.7142, 2572.041
480.1963, 2564.076
480.6784, 2548.384
481.1606, 2532.745
481.6427, 2526.457
482.1248, 2528.368
482.6069, 2528.582
483.0890, 2519.206
483.5711, 2502.440
484.0533, 2490.431
484.5354, 2486.200
485.0175, 2481.919
485.4996, 2476.722
485.9817, 2470.850
486.4638, 2463.029
486.9460, 2453.877
487.4281, 2447.879
487.9102, 2452.599
488.3923, 2462.979
488.8744, 2461.543
489.3565, 2445.815
489.8387, 2431.998
490.3208, 2429.086
490.8029, 2432.954
491.2850, 2433.996
491.7671, 2430.120
492.2492, 2429.448
492.7314, 2439.015
493.2135, 2450.808
493.6956, 2453.896
494.1777, 2448.408
494.6598, 2444.835
495.1419, 2452.191
495.6241, 2467.615
496.1062, 2472.431
496.5883, 2456.319
497.0704, 2443.720
497.5525, 2432.655
498.0346, 2428.786
498.5168, 2442.744
498.9989, 2471.977
499.4810, 2496.507
499.9631, 2496.158
500.4452, 2478.084
500.9273, 2469.772
501.4095, 2473.190
501.8916, 2477.896
502.3737, 2477.307
502.8558, 2476.848
503.3379, 2486.094
503.8200, 2508.247
504.3022, 2527.045
504.7843, 2533.749
505.2664, 2535.381
505.7485, 2539.155
506.2306, 2545.835
506.7127, 2553.864
507.1949, 2562.165
507.6770, 2571.118
508.1591, 2582.266
508.6412, 2596.476
509.1233, 2611.894
509.6054, 2630.281
510.0876, 2648.347
510.5697, 2666.318
511.0518, 2682.265
511.5339, 2689.702
512.0161, 2679.501
512.4982, 2660.304
512.9803, 2656.599
513.4624, 2670.390
513.9445, 2688.122
514.4266, 2707.444
514.9088, 2726.531
515.3909, 2744.964
515.8730, 2763.462
516.3551, 2773.336
516.8372, 2762.866
517.3193, 2749.382
517.8015, 2748.639
518.2836, 2759.854
518.7657, 2776.659
519.2478, 2796.438
519.7299, 2816.165
520.2120, 2827.874
520.6942, 2823.098
521.1763, 2826.671
521.6584, 2844.275
522.1405, 2863.842
522.6226, 2881.528
523.1047, 2895.803
523.5869, 2903.876
524.0690, 2902.888
524.5511, 2898.276
525.0332, 2897.039
525.5153, 2899.205
525.9974, 2911.060
526.4796, 2940.723
526.9617, 2969.757
527.4438, 2973.492
527.9259, 2955.478
528.4080, 2945.888
528.8901, 2952.531
529.3723, 2965.142
529.8544, 2978.845
530.3365, 2993.911
530.8186, 3014.903
531.3007, 3042.927
531.7828, 3064.740
532.2650, 3058.854
532.7471, 3017.995
533.2292, 2994.774
533.7113, 3003.740
534.1934, 3014.308
534.6755, 3015.414
535.1577, 3013.255
535.6398, 3017.898
536.1219, 3032.958
536.6040, 3048.079
537.0861, 3052.881
537.5682, 3049.958
538.0504, 3048.512
538.5325, 3050.275
539.0146, 3048.043
539.4967, 3034.571
539.9788, 3013.001
540.4609, 2999.316
540.9431, 2998.562
541.4252, 2997.641
541.9073, 2997.319
542.3894, 2993.483
542.8715, 2979.182
543.3536, 2955.969
543.8358, 2934.776
544.3179, 2925.664
544.8000, 2924.232
545.2821, 2909.623
545.7642, 2875.726
546.2463, 2845.421
546.7285, 2824.616
547.2106, 2809.777
547.6926, 2799.016
548.1747, 2792.046
548.6569, 2787.280
549.1390, 2793.433
549.6211, 2794.882
550.1032, 2767.678
550.5853, 2718.455
551.0674, 2676.680
551.5496, 2653.680
552.0317, 2643.918
552.5138, 2639.195
552.9959, 2641.860
553.4780, 2641.568
553.9601, 2641.503
554.4423, 2635.579
554.9244, 2617.478
555.4065, 2593.103
555.8886, 2571.430
556.3707, 2555.681
556.8528, 2542.702
557.3350, 2529.198
557.8171, 2515.191
558.2992, 2499.383
558.7813, 2479.178
559.2634, 2465.576
559.7455, 2472.485
560.2277, 2490.712
560.7098, 2490.384
561.1919, 2457.536
561.6740, 2430.239
562.1561, 2422.462
562.6382, 2424.845
563.1204, 2428.834
563.6025, 2432.868
564.0846, 2437.855
564.5667, 2444.563
565.0488, 2452.687
565.5309, 2461.563
566.0131, 2472.737
566.4952, 2480.744
566.9773, 2484.683
567.4594, 2484.953
567.9415, 2479.219
568.4236, 2469.213
568.9058, 2462.236
569.3879, 2460.486
569.8700, 2463.869
570.3521, 2474.320
570.8342, 2490.047
571.3163, 2504.572
571.7985, 2515.723
572.2806, 2527.634
572.7627, 2547.055
573.2448, 2576.540
573.7269, 2589.517
574.2090, 2568.468
574.6912, 2552.837
575.1733, 2562.080
575.6554, 2576.795
576.1375, 2570.351
576.6196, 2538.879
577.1017, 2509.440
577.5839, 2512.653
578.0660, 2537.453
578.5481, 2545.520
579.0302, 2534.799
579.5123, 2520.781
579.9944, 2510.167
580.4766, 2500.631
580.9587, 2486.306
581.4408, 2464.226
581.9229, 2449.893
582.4050, 2454.403
582.8871, 2459.304
583.3693, 2451.946
583.8514, 2435.279
584.3335, 2416.380
584.8156, 2398.525
585.2977, 2383.185
585.7798, 2372.673
586.2620, 2367.164
586.7441, 2365.647
587.2262, 2372.349
587.7083, 2375.927
588.1904, 2367.808
588.6725, 2352.899
589.1547, 2338.281
589.6368, 2323.671
590.1189, 2312.489
590.6010, 2309.156
591.0831, 2308.648
591.5652, 2304.885
592.0474, 2297.391
592.5295, 2287.853
593.0116, 2277.044
593.4937, 2266.053
593.9758, 2258.613
594.4579, 2257.603
594.9401, 2253.374
595.4222, 2242.472
595.9043, 2230.589
596.3864, 2219.690
596.8685, 2210.106
597.3506, 2202.152
597.8328, 2195.724
598.3149, 2191.473
598.7970, 2194.015
599.2791, 2198.844
599.7612, 2190.374
600.2433, 2165.505
600.7255, 2146.054
601.2076, 2153.850
601.6897, 2183.332
602.1718, 2188.833
602.6539, 2145.192
603.1360, 2111.341
603.6182, 2095.568
604.1003, 2087.899
604.5824, 2082.489
605.0645, 2078.226
605.5466, 2075.391
606.0287, 2075.331
606.5109, 2075.138
606.9930, 2068.786
607.4751, 2057.338
607.9572, 2050.153
608.4393, 2050.478
608.9214, 2051.710
609.4036, 2046.552
609.8857, 2034.968
610.3678, 2027.920
610.8499, 2028.899
611.3320, 2029.553
611.8141, 2027.680
612.2963, 2024.738
612.7784, 2022.853
613.2605, 2021.819
613.7426, 2019.136
614.2247, 2012.970
614.7068, 2003.771
615.1890, 1991.454
615.6711, 1975.768
616.1532, 1962.979
616.6353, 1956.000
617.1174, 1950.617
617.5995, 1941.075
618.0817, 1927.252
618.5638, 1918.881
619.0459, 1915.909
619.5280, 1918.926
620.0101, 1935.159
620.4922, 1954.058
620.9744, 1962.937
621.4565, 1959.392
621.9386, 1948.277
622.4207, 1930.589
622.9028, 1910.240
623.3849, 1905.682
623.8671, 1920.542
624.3492, 1930.030
624.8313, 1926.136
625.3134, 1914.342
625.7955, 1896.389
626.2776, 1872.740
626.7598, 1861.917
627.2419, 1875.862
627.7240, 1893.086
628.2061, 1907.598
628.6882, 1916.571
629.1703, 1914.090
629.6525, 1900.172
630.1346, 1884.071
630.6167, 1874.797
631.0988, 1871.151
631.5809, 1865.880
632.0630, 1857.904
632.5452, 1852.637
633.0273, 1853.415
633.5094, 1855.961
633.9915, 1853.846
634.4736, 1847.503
634.9557, 1847.138
635.4379, 1864.012
635.9200, 1877.650
636.4021, 1873.468
636.8842, 1859.650
637.3663, 1849.589
637.8484, 1846.242
638.3306, 1842.593
638.8127, 1829.906
639.2948, 1811.153
639.7769, 1806.370
640.2590, 1819.779
640.7411, 1832.364
641.2233, 1840.533
641.7054, 1843.798
642.1875, 1840.628
642.6696, 1831.533
643.1517, 1822.656
643.6339, 1813.830
644.1160, 1807.053
644.5981, 1803.752
645.0802, 1803.072
645.5623, 1805.041
646.0444, 1808.943
646.5266, 1811.192
647.0087, 1808.449
647.4908, 1801.292
647.9729, 1791.046
648.4550, 1775.715
648.9371, 1765.469
649.4193, 1762.388
649.9014, 1765.983
650.3835, 1780.390
650.8656, 1803.129
651.3477, 1816.169
651.8298, 1809.290
652.3120, 1800.343
652.7941, 1795.448
653.2762, 1794.565
653.7583, 1801.681
654.2404, 1814.601
654.7225, 1819.242
655.2047, 1801.370
655.6868, 1770.427
656.1689, 1760.839
656.6510, 1777.377
657.1331, 1784.987
657.6152, 1771.109
658.0974, 1753.943
658.5795, 1750.214
659.0616, 1757.374
659.5437, 1764.779
660.0258, 1775.424
660.5079, 1781.288
660.9901, 1777.587
661.4722, 1769.070
661.9543, 1759.393
662.4364, 1749.805
662.9185, 1740.711
663.4006, 1731.574
663.8828, 1725.495
664.3649, 1732.057
664.8470, 1751.857
665.3291, 1764.355
665.8112, 1765.223
666.2933, 1761.064
666.7755, 1754.408
667.2576, 1746.682
667.7397, 1743.844
668.2218, 1749.690
668.7039, 1754.207
669.1860, 1756.233
669.6682, 1755.609
670.1503, 1750.204
670.6324, 1742.090
671.1145, 1736.437
671.5966, 1735.866
672.0787, 1738.085
672.5609, 1740.435
673.0430, 1742.842
673.5251, 1744.746
674.0072, 1746.087
674.4893, 1747.114
674.9714, 1748.349
675.4536, 1749.091
675.9357, 1747.473
676.4178, 1742.818
676.8999, 1737.180
677.3820, 1730.085
677.8641, 1722.535
678.3463, 1712.988
678.8284, 1704.084
679.3105, 1700.738
679.7926, 1704.512
680.2747, 1709.737
680.7568, 1709.446
681.2390, 1707.050
681.7211, 1712.811
682.2032, 1726.474
682.6853, 1736.673
683.1674, 1738.846
683.6495, 1733.870
684.1317, 1721.569
684.6138, 1698.812
685.0959, 1685.578
685.5780, 1690.458
686.0601, 1694.504
686.5422, 1689.722
687.0244, 1684.012
687.5065, 1687.661
687.9886, 1700.958
688.4707, 1711.868
688.9528, 1712.191
689.4349, 1707.709
689.9171, 1701.809
690.3992, 1696.610
690.8813, 1701.621
691.3634, 1718.970
691.8455, 1731.861
692.3276, 1721.476
692.8098, 1691.497
693.2919, 1674.843
693.7740, 1675.623
694.2561, 1680.744
694.7382, 1691.472
695.2203, 1702.633
695.7025, 1712.953
696.1846, 1721.074
696.6667, 1721.827
697.1488, 1706.475
697.6309, 1694.722
698.1130, 1702.402
698.5952, 1716.594
699.0773, 1720.185
699.5594, 1713.174
700.0415, 1706.040
700.5236, 1705.097
701.0057, 1708.515
701.4879, 1712.372
701.9700, 1716.550
702.4521, 1725.317
702.9342, 1743.230
703.4163, 1754.805
703.8984, 1748.102
704.3806, 1729.834
704.8627, 1715.895
705.3448, 1706.822
705.8269, 1700.094
706.3090, 1697.997
706.7911, 1695.485
707.2733, 1685.894
707.7554, 1675.005
708.2375, 1673.817
708.7196, 1685.270
709.2017, 1699.498
709.6838, 1709.691
710.1660, 1714.956
710.6481, 1709.271
711.1302, 1693.591
711.6123, 1686.016
712.0944, 1694.105
712.5765, 1707.886
713.0587, 1715.277
713.5408, 1715.994
714.0229, 1716.337
714.5050, 1715.314
714.9871, 1715.301
715.4692, 1718.483
715.9514, 1721.376
716.4335, 1720.021
716.9156, 1715.426
717.3977, 1713.150
717.8798, 1717.969
718.3619, 1722.181
718.8441, 1720.020
719.3262, 1712.950
719.8083, 1699.651
720.2904, 1682.372
720.7725, 1674.129
721.2546, 1684.967
721.7368, 1705.177
722.2189, 1710.341
722.7010, 1697.944
723.1831, 1687.189
723.6652, 1677.249
724.1473, 1673.641
724.6295, 1684.836
725.1116, 1702.414
725.5937, 1708.424
726.0758, 1698.795
726.5579, 1691.545
727.0400, 1690.729
727.5222, 1692.342
728.0043, 1698.775
728.4864, 1704.211
728.9685, 1696.390
729.4506, 1673.672
729.9327, 1653.633
730.4149, 1654.781
730.8970, 1668.921
731.3791, 1678.608
731.8612, 1684.072
732.3433, 1688.224
732.8254, 1692.422
733.3076, 1691.629
733.7897, 1678.725
734.2718, 1655.365
734.7539, 1643.154
735.2360, 1648.306
735.7181, 1654.299
736.2003, 1662.026
736.6824, 1667.481
737.1645, 1667.209
737.6466, 1662.710
738.1287, 1657.982
738.6108, 1653.358
739.0930, 1650.427
739.5751, 1651.275
740.0572, 1653.490
740.5393, 1653.664
741.0214, 1652.513
741.5035, 1653.304
741.9857, 1657.568
742.4678, 1663.676
742.9499, 1669.777
743.4320, 1675.799
743.9141, 1680.489
744.3962, 1683.358
744.8784, 1688.323
745.3605, 1699.795
745.8426, 1709.697
746.3247, 1705.296
746.8068, 1684.242
747.2889, 1670.831
747.7711, 1670.744
748.2532, 1670.340
748.7353, 1659.477
749.2174, 1652.088
749.6995, 1668.944
750.1816, 1702.925
750.6638, 1720.478
751.1459, 1698.781
751.6280, 1668.434
752.1101, 1658.407
752.5922, 1659.516
753.0743, 1653.628
753.5565, 1639.791
754.0386, 1628.097
754.5207, 1624.344
755.0028, 1627.102
755.4849, 1636.648
755.9670, 1655.058
756.4492, 1658.354
756.9313, 1638.741
757.4134, 1622.697
757.8955, 1623.032
758.3776, 1632.133
758.8597, 1638.479
759.3419, 1641.540
759.8240, 1647.386
760.3061, 1664.459
760.7882, 1674.877
761.2703, 1666.974
761.7524, 1652.306
762.2346, 1642.273
762.7167, 1638.255
763.1988, 1636.419
763.6809, 1635.299
764.1630, 1634.154
764.6451, 1631.495
765.1273, 1628.249
765.6094, 1626.104
766.0915, 1625.530
766.5736, 1629.152
767.0557, 1639.483
767.5378, 1650.851
768.0200, 1648.402
768.5021, 1627.886
768.9842, 1620.430
769.4663, 1632.763
769.9484, 1644.774
770.4305, 1647.872
770.9127, 1645.844
771.3948, 1643.408
771.8769, 1640.372
772.3590, 1639.336
772.8411, 1645.753
773.3232, 1648.049
773.8054, 1636.917
774.2875, 1622.629
774.7696, 1616.187
775.2517, 1617.935
775.7338, 1621.660
776.2159, 1624.481
776.6981, 1626.777
777.1802, 1630.272
777.6623, 1633.252
778.1444, 1631.518
778.6265, 1624.820
779.1086, 1614.655
779.5908, 1601.443
780.0729, 1588.526
780.5550, 1582.634
781.0371, 1584.498
781.5192, 1585.737
782.0013, 1584.384
782.4835, 1588.238
782.9656, 1605.626
783.4477, 1624.539
783.9298, 1626.559
784.4119, 1611.128
784.8940, 1605.316
785.3762, 1620.769
785.8583, 1632.344
786.3404, 1628.269
786.8225, 1621.532
787.3046, 1625.870
787.7867, 1638.108
788.2689, 1644.533
788.7510, 1638.943
789.2331, 1627.638
789.7152, 1609.288
790.1973, 1592.032
790.6794, 1592.939
791.1616, 1608.355
791.6437, 1617.500
792.1258, 1611.457
792.6079, 1601.713
793.0900, 1605.804
793.5721, 1621.377
794.0543, 1622.652
794.5364, 1606.585
795.0185, 1596.034
795.5006, 1599.654
795.9827, 1606.099
796.4648, 1602.744
796.9470, 1591.253
797.4291, 1589.624
797.9112, 1611.943
798.3933, 1623.881
798.8754, 1614.086
799.3575, 1603.322
799.8397, 1607.302
800.3218, 1617.808
800.8039, 1617.224
801.2860, 1600.003
801.7681, 1582.851
802.2502, 1568.222
802.7324, 1562.578
803.2145, 1581.354
803.6966, 1610.533
804.1787, 1621.551
804.6608, 1609.034
805.1429, 1593.072
805.6251, 1590.806
806.1072, 1595.959
806.5893, 1594.926
807.0714, 1588.568
807.5535, 1583.229
808.0356, 1579.958
808.5178, 1577.972
808.9999, 1576.660
809.4820, 1576.444
809.9641, 1578.959
810.4462, 1586.156
810.9283, 1588.717
811.4105, 1583.595
811.8926, 1578.769
812.3747, 1575.852
812.8568, 1575.774
813.3389, 1582.488
813.8210, 1595.855
814.3032, 1600.156
814.7853, 1584.303
815.2674, 1570.221
815.7495, 1566.111
816.2316, 1566.438
816.7137, 1565.853
817.1959, 1564.923
817.6780, 1567.800
818.1601, 1577.089
818.6422, 1586.397
819.1243, 1588.562
819.6064, 1588.310
820.0886, 1595.181
820.5707, 1606.647
821.0528, 1611.405
821.5349, 1605.660
822.0170, 1596.693
822.4991, 1592.894
822.9813, 1592.349
823.4634, 1585.169
823.9455, 1570.707
824.4276, 1563.524
824.9097, 1568.838
825.3918, 1572.420
825.8740, 1561.400
826.3561, 1542.065
826.8382, 1536.399
827.3203, 1553.213
827.8024, 1563.221
828.2845, 1556.807
828.7667, 1555.443
829.2488, 1574.535
829.7309, 1598.182
830.2130, 1607.833
830.6951, 1602.353
831.1772, 1590.607
831.6594, 1565.573
832.1415, 1545.841
832.6236, 1539.584
833.1057, 1542.353
833.5878, 1552.404
834.0699, 1567.040
834.5521, 1581.750
835.0342, 1595.476
835.5163, 1603.474
835.9984, 1598.730
836.4805, 1586.829
836.9626, 1573.442
837.4448, 1561.205
837.9269, 1558.794
838.4090, 1568.608
838.8911, 1580.521
839.3732, 1583.916
839.8553, 1580.815
840.3375, 1578.252
840.8196, 1576.221
841.3017, 1574.529
841.7838, 1572.693
842.2659, 1573.727
842.7480, 1580.503
843.2302, 1590.512
843.7123, 1597.557
844.1944, 1601.263
844.6765, 1603.357
845.1586, 1605.475
845.6407, 1603.549
846.1229, 1594.605
846.6050, 1582.022
847.0871, 1565.345
847.5692, 1545.882
848.0513, 1538.027
848.5334, 1553.387
849.0156, 1567.452
849.4977, 1573.183
849.9798, 1575.536
850.4619, 1578.242
850.9440, 1580.768
851.4261, 1580.576
851.9083, 1576.676
852.3904, 1573.401
852.8725, 1576.370
853.3546, 1579.022
853.8367, 1570.829
854.3188, 1557.996
854.8010, 1553.652
855.2831, 1559.919
855.7652, 1571.044
856.2473, 1584.638
856.7294, 1595.300
857.2115, 1590.622
857.6937, 1574.282
858.1758, 1561.774
858.6579, 1554.686
859.1400, 1551.446
859.6221, 1551.036
860.1042, 1556.534
860.5864, 1575.569
861.0685, 1606.877
861.5506, 1615.508
862.0327, 1594.269
862.5148, 1579.363
862.9969, 1583.125
863.4791, 1585.744
863.9612, 1568.003
864.4433, 1537.676
864.9254, 1523.270
865.4075, 1531.041
865.8896, 1541.751
866.3718, 1559.279
866.8539, 1575.070
867.3360, 1589.779
867.8181, 1598.932
868.3002, 1592.475
868.7823, 1571.923
869.2645, 1562.576
869.7466, 1584.053
870.2287, 1600.768
870.7108, 1595.948
871.1929, 1583.213
871.6750, 1571.032
872.1572, 1561.925
872.6393, 1558.996
873.1214, 1563.493
873.6035, 1568.920
874.0856, 1571.673
874.5677, 1572.021
875.0499, 1569.003
875.5320, 1564.207
876.0141, 1559.974
876.4962, 1557.288
876.9783, 1558.834
877.4604, 1567.773
877.9426, 1576.339
878.4247, 1568.165
878.9068, 1548.911
879.3889, 1540.213
879.8710, 1542.998
880.3531, 1548.725
880.8353, 1554.003
881.3174, 1560.730
881.7995, 1573.142
882.2816, 1588.243
882.7637, 1582.954
883.2458, 1552.792
883.7280, 1537.616
884.2101, 1548.158
884.6922, 1560.185
885.1743, 1557.288
885.6564, 1546.764
886.1385, 1545.653
886.6207, 1558.586
887.1028, 1559.218
887.5849, 1533.710
888.0670, 1518.441
888.5491, 1533.359
889.0313, 1553.068
889.5134, 1552.454
889.9955, 1537.028
890.4776, 1532.588
890.9597, 1550.913
891.4418, 1561.991
891.9240, 1555.466
892.4061, 1547.622
892.8882, 1546.995
893.3703, 1550.332
893.8524, 1553.533
894.3345, 1555.763
894.8167, 1555.767
895.2988, 1550.539
895.7809, 1546.000
896.2630, 1546.491
896.7451, 1548.337
897.2272, 1547.845
897.7094, 1545.287
898.1915, 1541.336
898.6736, 1536.181
899.1557, 1535.007
899.6378, 1546.367
900.1199, 1560.509
900.6021, 1565.465
901.0842, 1563.780
901.5663, 1560.484
902.0484, 1556.939
902.5305, 1553.844
903.0126, 1551.854
903.4948, 1549.225
903.9769, 1541.554
904.4590, 1531.429
904.9411, 1527.535
905.4232, 1529.670
905.9053, 1533.376
906.3875, 1537.181
906.8696, 1542.523
907.3517, 1551.582
907.8338, 1561.894
908.3159, 1564.861
908.7980, 1560.437
909.2802, 1555.305
909.7623, 1549.704
910.2444, 1546.419
910.7265, 1546.308
911.2086, 1551.119
911.6907, 1565.593
912.1729, 1589.408
912.6550, 1597.309
913.1371, 1583.637
913.6192, 1571.464
914.1013, 1562.219
914.5834, 1560.367
915.0656, 1573.470
915.5477, 1593.029
916.0298, 1598.123
916.5119, 1581.854
916.9940, 1577.170
917.4761, 1593.045
917.9583, 1607.804
918.4404, 1620.107
918.9225, 1626.360
919.4046, 1618.882
919.8867, 1602.592
920.3688, 1595.717
920.8510, 1603.131
921.3331, 1612.089
921.8152, 1623.261
922.2973, 1632.744
922.7794, 1635.892
923.2615, 1638.278
923.7437, 1649.315
924.2258, 1667.410
924.7079, 1676.650
925.1900, 1664.994
925.6721, 1655.838
926.1542, 1656.969
926.6364, 1665.946
927.1185, 1688.120
927.6006, 1713.755
928.0827, 1724.324
928.5648, 1717.318
929.0469, 1714.313
929.5291, 1725.401
930.0112, 1747.058
930.4933, 1790.823
930.9754, 1834.149
931.4575, 1840.202
931.9396, 1820.775
932.4218, 1817.521
932.9039, 1845.320
933.3860, 1877.325
933.8681, 1886.695
934.3502, 1890.240
934.8323, 1910.182
935.3145, 1940.701
935.7966, 1970.142
936.2787, 1996.698
936.7608, 2022.697
937.2429, 2049.133
937.7250, 2077.651
938.2072, 2111.799
938.6893, 2149.071
939.1714, 2181.886
939.6535, 2212.500
940.1356, 2250.467
940.6177, 2297.770
941.0999, 2348.599
941.5820, 2398.499
942.0641, 2451.768
942.5462, 2521.095
943.0283, 2601.457
943.5104, 2662.800
943.9926, 2705.650
944.4747, 2758.112
944.9568, 2829.043
945.4389, 2901.973
945.9210, 2961.687
946.4031, 3012.664
946.8853, 3065.808
947.3674, 3121.264
947.8495, 3189.372
948.3316, 3272.621
948.8137, 3347.220
949.2958, 3403.951
949.7780, 3448.358
950.2601, 3485.554
950.7422, 3516.018
951.2243, 3544.836
951.7064, 3575.251
952.1885, 3579.660
952.6707, 3548.553
953.1528, 3517.904
953.6349, 3506.401
954.1170, 3499.767
954.5991, 3480.174
955.0812, 3447.548
955.5634, 3397.080
956.0455, 3324.286
956.5276, 3246.702
957.0097, 3160.035
957.4918, 3081.618
957.9739, 3027.139
958.4561, 2979.195
958.9382, 2907.933
959.4203, 2810.938
959.9024, 2720.723
960.3845, 2633.521
960.8666, 2561.142
961.3488, 2512.566
961.8309, 2469.334
962.3130, 2420.954
962.7951, 2370.381
963.2772, 2323.790
963.7593, 2282.960
964.2415, 2236.430
964.7236, 2170.305
965.2057, 2118.683
965.6878, 2097.344
966.1699, 2082.199
966.6520, 2055.899
967.1342, 2024.766
967.6163, 2003.980
968.0984, 1996.410
968.5805, 1989.038
969.0626, 1988.095
969.5447, 1978.024
970.0269, 1943.140
970.5090, 1908.421
970.9911, 1894.361
971.4732, 1895.352
971.9553, 1896.182
972.4374, 1896.725
972.9196, 1892.504
973.4017, 1875.584
973.8838, 1863.105
974.3659, 1865.029
974.8480, 1870.652
975.3301, 1871.516
975.8123, 1867.889
976.2944, 1861.937
976.7765, 1852.324
977.2586, 1846.043
977.7407, 1845.726
978.2228, 1847.783
978.7050, 1850.537
979.1871, 1855.017
979.6692, 1867.641
980.1513, 1883.058
980.6334, 1880.797
981.1155, 1846.321
981.5977, 1826.086
982.0798, 1842.538
982.5619, 1866.423
983.0440, 1889.423
983.5261, 1907.308
984.0082, 1915.857
984.4904, 1915.805
984.9725, 1909.415
985.4546, 1891.604
985.9367, 1884.536
986.4188, 1907.807
986.9009, 1930.935
987.3831, 1935.139
987.8652, 1929.944
988.3473, 1924.583
988.8294, 1921.240
989.3115, 1922.071
989.7936, 1928.964
990.2758, 1936.367
990.7579, 1938.530
991.2400, 1944.255
991.7221, 1964.910
992.2042, 1988.599
992.6863, 1998.281
993.1685, 1996.127
993.6506, 2000.679
994.1327, 2022.094
994.6148, 2038.777
995.0969, 2036.882
995.5790, 2031.571
996.0612, 2028.506
996.5433, 2031.123
997.0254, 2046.683
997.5075, 2071.981
997.9896, 2091.151
998.4717, 2096.100
998.9539, 2102.543
999.4360, 2123.876
999.9181, 2142.749
1000.400, 2139.132
1000.882, 2130.825
1001.364, 2139.319
1001.847, 2166.000
1002.329, 2204.418
1002.811, 2259.202
1003.293, 2304.024
1003.775, 2318.449
1004.257, 2327.729
1004.739, 2346.020
1005.221, 2371.296
1005.703, 2402.796
1006.186, 2437.601
1006.668, 2467.173
1007.150, 2486.276
1007.632, 2507.395
1008.114, 2539.807
1008.596, 2572.095
1009.078, 2590.771
1009.560, 2609.180
1010.043, 2650.560
1010.525, 2707.929
1011.007, 2748.549
1011.489, 2760.095
1011.971, 2763.589
1012.453, 2757.719
1012.935, 2758.446
1013.417, 2785.427
1013.899, 2817.024
1014.382, 2825.601
1014.864, 2815.872
1015.346, 2813.777
1015.828, 2829.517
1016.310, 2839.424
1016.792, 2838.223
1017.274, 2824.288
1017.756, 2781.966
1018.239, 2738.115
1018.721, 2725.591
1019.203, 2735.335
1019.685, 2734.618
1020.167, 2715.978
1020.649, 2686.378
1021.131, 2633.701
1021.613, 2588.234
1022.095, 2574.378
1022.578, 2564.990
1023.060, 2530.342
1023.542, 2479.985
1024.024, 2444.348
1024.506, 2432.468
1024.988, 2412.958
1025.470, 2371.098
1025.952, 2329.065
1026.435, 2294.572
1026.917, 2263.888
1027.399, 2230.856
1027.881, 2200.285
1028.363, 2186.048
1028.845, 2193.301
1029.327, 2187.422
1029.809, 2146.014
1030.292, 2113.149
1030.774, 2106.826
1031.256, 2106.446
1031.738, 2100.077
1032.220, 2088.927
1032.702, 2074.492
1033.184, 2056.206
1033.666, 2044.924
1034.148, 2051.305
1034.630, 2050.819
1035.113, 2034.064
1035.595, 2015.381
1036.077, 2003.373
1036.559, 1993.987
1037.041, 1978.348
1037.523, 1955.789
1038.005, 1947.438
1038.487, 1965.121
1038.970, 1978.032
1039.452, 1981.647
1039.934, 1983.865
1040.416, 1987.485
1040.898, 1991.892
1041.380, 1995.529
1041.862, 1998.837
1042.344, 2007.812
1042.826, 2032.754
1043.309, 2039.295
1043.791, 2013.063
1044.273, 1993.034
1044.755, 1994.367
1045.237, 2006.649
1045.719, 2021.769
1046.201, 2038.219
1046.683, 2048.420
1047.166, 2049.129
1047.648, 2055.737
1048.130, 2071.836
1048.612, 2082.489
1049.094, 2080.010
1049.576, 2079.317
1050.058, 2094.247
1050.540, 2118.583
1051.022, 2136.024
1051.505, 2146.382
1051.987, 2150.251
1052.469, 2146.015
1052.951, 2145.748
1053.433, 2152.883
1053.915, 2161.885
1054.397, 2170.308
1054.879, 2174.412
1055.361, 2166.959
1055.844, 2148.544
1056.326, 2119.966
1056.808, 2081.205
1057.290, 2077.021
1057.772, 2115.494
1058.254, 2145.268
1058.736, 2139.088
1059.218, 2115.858
1059.701, 2100.896
1060.183, 2088.592
1060.665, 2056.497
1061.147, 2008.783
1061.629, 1965.087
1062.111, 1929.269
1062.593, 1914.763
1063.075, 1925.660
1063.557, 1935.165
1064.040, 1915.077
1064.522, 1882.583
1065.004, 1870.154
1065.486, 1869.804
1065.968, 1861.434
1066.450, 1846.582
1066.932, 1837.663
1067.414, 1836.848
1067.896, 1832.641
1068.379, 1815.168
1068.861, 1799.002
1069.343, 1807.937
1069.825, 1822.824
1070.307, 1813.341
1070.789, 1790.221
1071.271, 1775.619
1071.753, 1772.794
1072.236, 1775.322
1072.718, 1781.140
1073.200, 1785.915
1073.682, 1786.770
1074.164, 1785.015
1074.646, 1779.501
1075.128, 1773.668
1075.610, 1772.260
1076.093, 1774.080
1076.575, 1773.966
1077.057, 1770.376
1077.539, 1770.790
1078.021, 1787.616
1078.503, 1797.022
1078.985, 1781.082
1079.467, 1760.645
1079.949, 1750.179
1080.432, 1747.261
1080.914, 1747.559
1081.396, 1750.190
1081.878, 1750.097
1082.360, 1746.335
1082.842, 1739.832
1083.324, 1728.270
1083.806, 1716.949
1084.288, 1706.374
1084.771, 1698.678
1085.253, 1698.074
1085.735, 1702.723
1086.217, 1703.740
1086.699, 1700.418
1087.181, 1694.990
1087.663, 1684.387
1088.145, 1679.064
1088.628, 1688.759
1089.110, 1690.525
1089.592, 1663.043
1090.074, 1621.625
1090.556, 1601.044
1091.038, 1602.504
1091.520, 1587.600
1092.002, 1551.098
1092.484, 1535.185
1092.967, 1549.792
1093.449, 1564.652
1093.931, 1564.952
1094.413, 1555.294
1094.895, 1539.897
1095.377, 1521.398
1095.859, 1507.941
1096.341, 1500.118
1096.823, 1508.649
1097.306, 1531.153
1097.788, 1536.682
1098.270, 1516.197
1098.752, 1491.244
1099.234, 1478.431
1099.716, 1472.685
1100.198, 1467.606
1100.680, 1463.193
1101.163, 1459.324
1101.645, 1456.155
1102.127, 1454.604
1102.609, 1454.291
1103.091, 1453.249
1103.573, 1450.599
1104.055, 1446.502
1104.537, 1441.517
1105.020, 1434.724
1105.502, 1419.771
1105.984, 1406.725
1106.466, 1411.168
1106.948, 1426.638
1107.430, 1440.080
1107.912, 1447.686
1108.394, 1441.634
1108.876, 1403.216
1109.359, 1374.107
1109.841, 1375.561
1110.323, 1384.614
1110.805, 1391.021
1111.287, 1394.548
1111.769, 1394.083
1112.251, 1391.019
1112.733, 1392.449
1113.215, 1403.221
1113.698, 1407.810
1114.180, 1400.375
1114.662, 1395.570
1115.144, 1400.639
1115.626, 1403.443
1116.108, 1395.209
1116.590, 1379.698
1117.072, 1361.061
1117.555, 1339.190
1118.037, 1343.608
1118.519, 1381.917
1119.001, 1402.105
1119.483, 1395.689
1119.965, 1386.785
1120.447, 1385.265
1120.929, 1386.716
1121.411, 1386.852
1121.894, 1386.001
1122.376, 1383.418
1122.858, 1380.478
1123.340, 1387.456
1123.822, 1401.770
1124.304, 1405.975
1124.786, 1397.604
1125.268, 1391.780
1125.750, 1397.442
1126.233, 1403.180
1126.715, 1390.935
1127.197, 1375.641
1127.679, 1382.086
1128.161, 1397.329
1128.643, 1399.928
1129.125, 1392.417
1129.607, 1388.933
1130.090, 1392.450
1130.572, 1391.432
1131.054, 1373.619
1131.536, 1361.448
1132.018, 1377.159
1132.500, 1390.733
1132.982, 1372.947
1133.464, 1347.578
1133.947, 1347.072
1134.429, 1366.290
1134.911, 1374.248
1135.393, 1361.156
1135.875, 1357.747
1136.357, 1381.520
1136.839, 1392.039
1137.321, 1371.981
1137.803, 1352.648
1138.286, 1352.873
1138.768, 1362.742
1139.250, 1368.412
1139.732, 1370.078
1140.214, 1369.192
1140.696, 1365.171
1141.178, 1362.918
1141.660, 1362.715
1142.142, 1364.763
1142.625, 1369.178
1143.107, 1375.688
1143.589, 1384.969
1144.071, 1391.587
1144.553, 1382.405
1145.035, 1364.130
1145.517, 1356.957
1145.999, 1358.547
1146.482, 1362.872
1146.964, 1367.759
1147.446, 1369.858
1147.928, 1367.941
1148.410, 1363.393
1148.892, 1354.062
1149.374, 1347.963
1149.856, 1354.843
1150.339, 1365.980
1150.821, 1376.949
1151.303, 1383.655
1151.785, 1377.047
1152.267, 1360.980
1152.749, 1354.850
1153.231, 1366.971
1153.713, 1374.588
1154.195, 1365.817
1154.677, 1361.219
1155.160, 1370.617
1155.642, 1382.114
1156.124, 1391.585
1156.606, 1396.034
1157.088, 1388.943
1157.570, 1371.811
1158.052, 1362.272
1158.534, 1360.864
1159.017, 1366.719
1159.499, 1382.568
1159.981, 1387.500
1160.463, 1373.895
1160.945, 1359.780
1161.427, 1358.394
1161.909, 1362.948
1162.391, 1360.655
1162.874, 1355.330
1163.356, 1365.615
1163.838, 1383.022
1164.320, 1374.474
1164.802, 1344.526
1165.284, 1326.273
1165.766, 1329.547
1166.248, 1337.955
1166.730, 1341.875
1167.213, 1343.967
1167.695, 1346.850
1168.177, 1348.441
1168.659, 1346.074
1169.141, 1341.869
1169.623, 1338.007
1170.105, 1334.841
1170.587, 1331.790
1171.069, 1328.260
1171.552, 1329.103
1172.034, 1345.716
1172.516, 1350.151
1172.998, 1326.086
1173.480, 1306.724
1173.962, 1307.900
1174.444, 1317.632
1174.926, 1324.691
1175.409, 1329.227
1175.891, 1330.694
1176.373, 1328.500
1176.855, 1334.325
1177.337, 1348.609
1177.819, 1347.860
1178.301, 1328.314
1178.783, 1318.938
1179.266, 1333.884
1179.748, 1351.945
1180.230, 1351.094
1180.712, 1339.066
1181.194, 1322.710
1181.676, 1307.633
1182.158, 1305.333
1182.640, 1311.620
1183.122, 1318.257
1183.604, 1323.040
1184.087, 1325.297
1184.569, 1324.670
1185.051, 1322.292
1185.533, 1318.166
1186.015, 1313.108
1186.497, 1303.765
1186.979, 1297.523
1187.461, 1299.517
1187.944, 1307.857
1188.426, 1326.099
1188.908, 1349.225
1189.390, 1343.816
1189.872, 1295.123
1190.354, 1270.150
1190.836, 1271.236
1191.318, 1290.331
1191.801, 1330.429
1192.283, 1352.857
1192.765, 1333.540
1193.247, 1302.422
1193.729, 1297.149
1194.211, 1307.463
1194.693, 1310.044
1195.175, 1307.087
1195.657, 1303.695
1196.140, 1300.289
1196.622, 1295.343
1197.104, 1289.849
1197.586, 1290.260
1198.068, 1300.298
1198.550, 1307.141
1199.032, 1298.056
1199.514, 1289.583
1199.996, 1290.997
1200.479, 1296.880
1200.961, 1309.765
1201.443, 1320.091
1201.925, 1308.936
1202.407, 1280.341
1202.889, 1270.287
1203.371, 1287.111
1203.853, 1295.871
1204.336, 1293.829
1204.818, 1292.562
1205.300, 1294.491
1205.782, 1296.714
1206.264, 1297.517
1206.746, 1299.592
1207.228, 1308.232
1207.710, 1316.318
1208.193, 1300.162
1208.675, 1270.792
1209.157, 1260.859
1209.639, 1266.456
1210.121, 1275.060
1210.603, 1281.752
1211.085, 1278.086
1211.567, 1260.410
1212.049, 1247.602
1212.531, 1255.227
1213.014, 1265.383
1213.496, 1273.779
1213.978, 1275.672
1214.460, 1257.979
1214.942, 1239.043
1215.424, 1246.029
1215.906, 1271.128
1216.388, 1282.345
1216.871, 1276.347
1217.353, 1277.819
1217.835, 1290.028
1218.317, 1294.485
1218.799, 1286.977
1219.281, 1285.647
1219.763, 1299.039
1220.245, 1306.243
1220.728, 1286.280
1221.210, 1256.648
1221.692, 1247.570
1222.174, 1251.779
1222.656, 1256.503
1223.138, 1261.579
1223.620, 1271.773
1224.102, 1282.158
1224.584, 1274.612
1225.067, 1246.922
1225.549, 1230.266
1226.031, 1245.018
1226.513, 1258.889
1226.995, 1264.368
1227.477, 1262.528
1227.959, 1245.142
1228.441, 1229.871
1228.923, 1231.574
1229.406, 1242.019
1229.888, 1247.919
1230.370, 1249.277
1230.852, 1243.548
1231.334, 1230.027
1231.816, 1229.795
1232.298, 1243.301
1232.780, 1249.356
1233.263, 1243.604
1233.745, 1244.129
1234.227, 1261.585
1234.709, 1278.137
1235.191, 1276.133
1235.673, 1262.623
1236.155, 1234.725
1236.637, 1209.179
1237.120, 1209.038
1237.602, 1222.356
1238.084, 1229.751
1238.566, 1230.465
1239.048, 1233.852
1239.530, 1244.243
1240.012, 1244.393
1240.494, 1223.022
1240.976, 1213.179
1241.458, 1223.685
1241.941, 1233.423
1242.423, 1233.932
1242.905, 1229.817
##END=



