##NAMES=Vivianite
##RRUFFID=R060025
##IDEAL CHEMISTRY=Fe^2+^_3_(PO_4_)_2_&#183;8H_2_O
##LOCALITY=Gypsy mine, Minas Gerais, Brazil
##OWNER=RRUFF
##SOURCE=Eric Van Valkenburg
##DESCRIPTION=Blue-green fragment
##STATUS=The identification of this mineral has been confirmed by X-ray diffraction.
##URL=rruff.info/R060025
105.5408, 130.1792
106.0229, 130.8268
106.5051, 131.7114
106.9872, 132.2860
107.4693, 132.0497
107.9514, 131.6038
108.4335, 131.3543
108.9156, 131.4459
109.3978, 131.7469
109.8799, 131.9422
110.3620, 131.8249
110.8441, 131.9155
111.3262, 132.3793
111.8083, 133.0569
112.2905, 133.7549
112.7726, 134.3552
113.2547, 134.8652
113.7368, 135.3987
114.2189, 136.0804
114.7010, 136.6589
115.1832, 136.9478
115.6653, 137.0324
116.1474, 137.1764
116.6295, 137.6088
117.1116, 138.3784
117.5937, 139.1985
118.0759, 140.1683
118.5580, 141.1273
119.0401, 141.8590
119.5222, 142.3148
120.0043, 142.8178
120.4864, 143.8147
120.9686, 145.2411
121.4507, 146.7065
121.9328, 148.0738
122.4149, 149.3985
122.8970, 150.7510
123.3791, 151.9277
123.8613, 153.4969
124.3434, 155.9376
124.8255, 159.2055
125.3076, 162.7039
125.7897, 165.9607
126.2718, 168.9418
126.7540, 172.1209
127.2361, 176.8499
127.7182, 180.9566
128.2003, 183.2392
128.6824, 183.4689
129.1645, 182.1782
129.6467, 180.0908
130.1288, 177.0555
130.6109, 173.4060
131.0930, 168.4875
131.5751, 163.4509
132.0572, 159.1999
132.5394, 156.1191
133.0215, 154.0213
133.5036, 152.3093
133.9857, 150.9073
134.4678, 150.0265
134.9499, 149.9428
135.4321, 150.3669
135.9142, 150.8373
136.3963, 151.0713
136.8784, 151.1547
137.3605, 151.6519
137.8426, 152.5670
138.3248, 153.7832
138.8069, 155.3881
139.2890, 157.3239
139.7711, 159.2552
140.2532, 160.9046
140.7353, 162.3829
141.2175, 164.0998
141.6996, 166.2329
142.1817, 168.5360
142.6638, 170.7868
143.1459, 172.9662
143.6280, 175.1219
144.1102, 177.3197
144.5923, 179.5166
145.0744, 181.6412
145.5565, 183.7642
146.0386, 185.7912
146.5207, 187.4880
147.0029, 188.9765
147.4850, 189.8563
147.9671, 189.8280
148.4492, 189.1383
148.9313, 188.3215
149.4134, 187.8638
149.8955, 187.7913
150.3777, 187.1430
150.8598, 185.2534
151.3419, 183.2974
151.8240, 181.4887
152.3061, 179.9192
152.7882, 178.6810
153.2704, 177.8730
153.7525, 177.5547
154.2346, 177.5169
154.7167, 177.6873
155.1988, 178.1164
155.6809, 178.7967
156.1631, 179.7463
156.6452, 181.0130
157.1273, 182.6259
157.6094, 184.4151
158.0915, 187.1733
158.5736, 191.6868
159.0558, 196.7560
159.5379, 201.1857
160.0200, 204.6066
160.5021, 207.5919
160.9842, 211.1573
161.4663, 215.5228
161.9485, 219.6389
162.4306, 223.6284
162.9127, 227.1917
163.3948, 229.8600
163.8769, 231.5436
164.3590, 232.0545
164.8412, 231.1543
165.3233, 228.7864
165.8054, 225.7902
166.2875, 222.5741
166.7696, 219.1150
167.2517, 215.2986
167.7339, 210.7814
168.2160, 206.1175
168.6981, 201.8355
169.1802, 197.9705
169.6623, 194.5715
170.1444, 191.7688
170.6266, 189.6142
171.1087, 187.7542
171.5908, 186.2856
172.0729, 184.9836
172.5550, 183.6255
173.0371, 182.1365
173.5193, 180.8052
174.0014, 180.1313
174.4835, 180.3764
174.9656, 180.7721
175.4477, 181.2447
175.9298, 181.7495
176.4120, 182.2294
176.8941, 182.6602
177.3762, 183.0968
177.8583, 183.6764
178.3404, 184.3309
178.8225, 185.2679
179.3047, 186.6728
179.7868, 188.3030
180.2689, 189.8855
180.7510, 191.2672
181.2331, 192.5238
181.7152, 193.9685
182.1974, 195.4815
182.6795, 197.3219
183.1616, 199.5989
183.6437, 202.2354
184.1258, 205.1299
184.6079, 208.2380
185.0900, 211.5428
185.5722, 214.8710
186.0543, 218.0573
186.5364, 221.4192
187.0185, 225.0328
187.5006, 228.8900
187.9827, 233.0564
188.4649, 237.5711
188.9470, 242.4431
189.4291, 247.4879
189.9112, 252.3633
190.3933, 257.7067
190.8754, 263.9832
191.3576, 271.1751
191.8397, 278.7022
192.3218, 286.4015
192.8039, 294.1924
193.2860, 301.9614
193.7681, 309.8242
194.2503, 317.5637
194.7324, 325.1938
195.2145, 332.8705
195.6966, 339.6054
196.1787, 345.1713
196.6608, 349.3521
197.1430, 351.5572
197.6251, 351.4995
198.1072, 349.4922
198.5893, 345.9887
199.0714, 340.8838
199.5535, 334.3735
200.0357, 326.1727
200.5178, 316.8969
200.9999, 307.0656
201.4820, 296.7430
201.9641, 286.1029
202.4462, 275.5826
202.9284, 264.7633
203.4105, 254.7970
203.8926, 245.8869
204.3747, 237.8540
204.8568, 230.4637
205.3389, 223.6235
205.8211, 217.3412
206.3032, 211.8052
206.7853, 207.2937
207.2674, 203.2839
207.7495, 199.6740
208.2316, 196.4580
208.7138, 193.6655
209.1959, 191.3401
209.6780, 189.4181
210.1601, 187.5101
210.6422, 184.9958
211.1243, 183.1762
211.6065, 182.5840
212.0886, 182.8140
212.5707, 183.2071
213.0528, 183.3378
213.5349, 183.2618
214.0170, 183.5406
214.4992, 184.3368
214.9813, 185.2659
215.4634, 186.1091
215.9455, 187.0050
216.4276, 188.2861
216.9097, 190.1869
217.3919, 192.6439
217.8740, 195.0427
218.3561, 197.2790
218.8382, 199.5670
219.3203, 201.7510
219.8024, 204.0014
220.2845, 206.8505
220.7667, 210.7759
221.2488, 215.5420
221.7309, 219.7176
222.2130, 222.7743
222.6951, 225.8157
223.1772, 229.6218
223.6594, 233.9995
224.1415, 238.0057
224.6236, 241.0906
225.1057, 243.3857
225.5878, 245.6008
226.0699, 247.7682
226.5521, 249.8363
227.0342, 252.2731
227.5163, 254.9330
227.9984, 256.2086
228.4805, 254.8765
228.9626, 251.6917
229.4448, 248.3407
229.9269, 244.7094
230.4090, 241.2622
230.8911, 238.3938
231.3732, 236.1170
231.8553, 234.1054
232.3375, 232.2725
232.8196, 230.6392
233.3017, 229.2190
233.7838, 227.9966
234.2659, 227.0389
234.7480, 226.5768
235.2302, 226.6841
235.7123, 226.5787
236.1944, 225.8847
236.6765, 224.8861
237.1586, 223.8430
237.6407, 222.8355
238.1229, 221.6133
238.6050, 219.8843
239.0871, 217.6335
239.5692, 214.9994
240.0513, 211.9173
240.5334, 208.4912
241.0156, 204.5893
241.4977, 200.2003
241.9798, 195.7361
242.4619, 191.7816
242.9440, 188.4322
243.4261, 185.1904
243.9083, 182.0565
244.3904, 178.9530
244.8725, 175.7481
245.3546, 172.4358
245.8367, 169.2645
246.3188, 166.6239
246.8010, 164.6710
247.2831, 162.7791
247.7652, 160.7300
248.2473, 158.8338
248.7294, 157.3777
249.2115, 156.3634
249.6937, 155.5132
250.1758, 154.4854
250.6579, 153.2413
251.1400, 151.8923
251.6221, 150.0655
252.1042, 148.4224
252.5864, 147.4273
253.0685, 147.0751
253.5506, 147.0036
254.0327, 146.7889
254.5148, 146.3955
254.9969, 145.9644
255.4790, 145.4427
255.9612, 144.9307
256.4433, 144.5365
256.9254, 144.2329
257.4075, 143.8608
257.8896, 143.2119
258.3718, 142.1430
258.8539, 141.4594
259.3360, 141.2724
259.8181, 141.2815
260.3002, 141.4360
260.7823, 141.6721
261.2645, 141.8693
261.7466, 141.9197
262.2287, 141.8194
262.7108, 141.5770
263.1929, 140.9391
263.6750, 140.4235
264.1572, 140.3945
264.6393, 140.7406
265.1214, 141.0081
265.6035, 140.7904
266.0856, 140.0618
266.5677, 139.7990
267.0499, 140.5166
267.5320, 141.0864
268.0141, 140.8405
268.4962, 140.0063
268.9783, 139.3336
269.4604, 139.3760
269.9426, 140.0515
270.4247, 140.2936
270.9068, 139.6901
271.3889, 139.1872
271.8710, 139.2200
272.3531, 139.6340
272.8352, 140.0361
273.3174, 140.2110
273.7995, 140.1956
274.2816, 140.1645
274.7637, 140.1348
275.2458, 140.0752
275.7279, 140.0280
276.2101, 139.9436
276.6922, 139.6925
277.1743, 139.1855
277.6564, 138.5327
278.1385, 138.0445
278.6206, 137.7838
279.1028, 137.5307
279.5849, 137.2241
280.0670, 136.8865
280.5491, 136.5491
281.0312, 136.2178
281.5133, 135.9061
281.9955, 135.6654
282.4776, 135.5453
282.9597, 135.3195
283.4418, 134.7854
283.9239, 134.1455
284.4060, 133.7427
284.8882, 133.6854
285.3703, 133.7725
285.8524, 133.7292
286.3345, 133.5470
286.8166, 133.3775
287.2987, 133.2297
287.7809, 133.1207
288.2630, 133.0891
288.7451, 133.1476
289.2272, 133.2279
289.7093, 133.2401
290.1914, 133.1916
290.6736, 133.2174
291.1557, 133.4247
291.6378, 133.6705
292.1199, 133.7754
292.6020, 133.7179
293.0841, 133.6635
293.5663, 133.7456
294.0484, 133.9494
294.5305, 134.1733
295.0126, 134.4109
295.4947, 134.6620
295.9768, 134.9003
296.4590, 135.1281
296.9411, 135.4380
297.4232, 135.9176
297.9053, 136.5200
298.3874, 137.0835
298.8695, 137.5726
299.3517, 138.0552
299.8338, 138.6693
300.3159, 139.3689
300.7980, 139.7866
301.2801, 139.5811
301.7622, 139.1212
302.2444, 139.1942
302.7265, 140.0313
303.2086, 140.8363
303.6907, 141.0834
304.1728, 140.9113
304.6549, 140.8559
305.1371, 141.1935
305.6192, 141.5621
306.1013, 141.3699
306.5834, 140.5615
307.0655, 139.8142
307.5476, 139.5193
308.0298, 139.4909
308.5119, 139.2951
308.9940, 138.8240
309.4761, 138.2156
309.9582, 137.5262
310.4403, 136.7709
310.9225, 136.2187
311.4046, 136.1551
311.8867, 136.2766
312.3688, 136.0495
312.8509, 135.3571
313.3330, 134.6608
313.8152, 134.4520
314.2973, 134.5803
314.7794, 134.5658
315.2615, 134.1333
315.7436, 133.6203
316.2257, 133.4322
316.7079, 133.5865
317.1900, 133.7564
317.6721, 133.7284
318.1542, 133.5773
318.6363, 133.5001
319.1184, 133.5872
319.6006, 133.6574
320.0827, 133.4658
320.5648, 133.0695
321.0469, 132.9103
321.5290, 133.2327
322.0111, 133.8695
322.4933, 134.5160
322.9754, 135.2427
323.4575, 135.7752
323.9396, 135.8454
324.4217, 135.5889
324.9038, 135.4045
325.3860, 135.3812
325.8681, 135.5068
326.3502, 135.7894
326.8323, 136.2233
327.3144, 136.6998
327.7965, 137.3277
328.2787, 137.9370
328.7608, 138.1300
329.2429, 137.7616
329.7250, 137.4005
330.2071, 137.6972
330.6892, 138.5388
331.1714, 139.3106
331.6535, 139.8904
332.1356, 140.3566
332.6177, 140.7732
333.0998, 141.1446
333.5819, 141.4766
334.0641, 141.7295
334.5462, 141.9514
335.0283, 142.3160
335.5104, 142.9842
335.9925, 143.6434
336.4746, 144.0319
336.9568, 144.2117
337.4389, 144.4564
337.9210, 144.8920
338.4031, 145.4742
338.8852, 146.1102
339.3673, 146.8604
339.8495, 147.5150
340.3316, 147.9364
340.8137, 148.2046
341.2958, 148.5204
341.7779, 148.9763
342.2600, 149.3676
342.7421, 149.3313
343.2242, 148.8321
343.7064, 148.3629
344.1885, 148.0815
344.6706, 147.8422
345.1527, 147.5046
345.6348, 147.0460
346.1169, 146.4685
346.5991, 145.7819
347.0812, 144.9652
347.5633, 143.9858
348.0454, 142.6607
348.5275, 141.3141
349.0096, 140.0939
349.4918, 139.0235
349.9739, 138.2107
350.4560, 137.7867
350.9381, 137.6366
351.4202, 137.1808
351.9023, 136.1724
352.3845, 135.2014
352.8666, 134.4243
353.3487, 133.8057
353.8308, 133.3167
354.3129, 132.9584
354.7950, 132.6508
355.2772, 132.2347
355.7593, 131.6812
356.2414, 131.0844
356.7235, 130.2578
357.2056, 129.4976
357.6877, 129.1674
358.1699, 129.3075
358.6520, 129.6069
359.1341, 129.7515
359.6162, 129.7314
360.0983, 129.5356
360.5804, 128.9756
361.0626, 128.4303
361.5447, 128.0826
362.0268, 127.9281
362.5089, 127.9106
362.9910, 128.0165
363.4731, 128.2141
363.9553, 128.2022
364.4374, 127.8058
364.9195, 127.4192
365.4016, 127.0495
365.8837, 126.7584
366.3658, 126.6767
366.8480, 126.8569
367.3301, 127.1361
367.8122, 127.1528
368.2943, 126.6021
368.7764, 126.2575
369.2585, 126.2444
369.7407, 126.3335
370.2228, 126.3363
370.7049, 126.2371
371.1870, 126.1682
371.6691, 126.2966
372.1512, 126.6772
372.6334, 126.9175
373.1155, 126.9466
373.5976, 126.9139
374.0797, 126.8140
374.5618, 126.6952
375.0439, 126.6582
375.5261, 126.7889
376.0082, 127.0249
376.4903, 127.0374
376.9724, 126.5800
377.4545, 126.2435
377.9366, 126.0785
378.4188, 126.0900
378.9009, 126.3591
379.3830, 126.8997
379.8651, 127.4809
380.3472, 127.6963
380.8293, 127.4181
381.3115, 127.1988
381.7936, 127.1157
382.2757, 127.0783
382.7578, 127.0648
383.2399, 127.0608
383.7220, 127.0331
384.2042, 126.9161
384.6863, 126.7247
385.1684, 126.7038
385.6505, 127.0518
386.1326, 127.2850
386.6147, 127.1215
387.0969, 126.7481
387.5790, 126.4654
388.0611, 126.4135
388.5432, 126.4948
389.0253, 126.5472
389.5074, 126.5736
389.9896, 126.5569
390.4717, 126.4020
390.9538, 126.2550
391.4359, 126.2515
391.9180, 126.4139
392.4001, 126.6287
392.8823, 126.8225
393.3644, 126.9943
393.8465, 127.1265
394.3286, 127.1632
394.8107, 127.2479
395.2928, 127.6139
395.7750, 128.1571
396.2571, 128.4761
396.7392, 128.2529
397.2213, 127.7948
397.7034, 127.5334
398.1855, 127.4875
398.6677, 127.5137
399.1498, 127.5717
399.6319, 127.6337
400.1140, 127.6354
400.5961, 127.5377
401.0782, 127.4424
401.5604, 127.3961
402.0425, 127.3975
402.5246, 127.4615
403.0067, 127.6158
403.4888, 127.7711
403.9709, 127.7364
404.4531, 127.4646
404.9352, 127.3981
405.4173, 127.8540
405.8994, 128.4072
406.3815, 128.5352
406.8636, 128.2369
407.3458, 128.0487
407.8279, 128.4812
408.3100, 129.4658
408.7921, 129.8512
409.2742, 129.0751
409.7563, 128.4048
410.2385, 128.3544
410.7206, 128.7207
411.2027, 129.1561
411.6848, 129.5184
412.1669, 129.8061
412.6490, 130.0142
413.1311, 130.1264
413.6133, 130.1705
414.0954, 129.9960
414.5775, 129.8640
415.0596, 130.0686
415.5417, 130.5638
416.0238, 130.9734
416.5060, 130.8991
416.9881, 130.3194
417.4702, 130.1102
417.9523, 130.6777
418.4344, 131.1885
418.9165, 131.3891
419.3987, 131.4305
419.8808, 131.5877
420.3629, 131.9910
420.8450, 132.4484
421.3271, 132.4861
421.8092, 131.8187
422.2914, 131.4573
422.7735, 131.6337
423.2556, 132.0359
423.7377, 132.5970
424.2198, 133.2464
424.7019, 133.7865
425.1841, 133.9321
425.6662, 133.7456
426.1483, 133.9551
426.6304, 134.8846
427.1125, 135.6795
427.5946, 135.8131
428.0768, 135.6186
428.5589, 135.5905
429.0410, 135.9337
429.5231, 136.4334
430.0052, 136.7877
430.4873, 136.9905
430.9695, 137.3496
431.4516, 138.0900
431.9337, 138.8960
432.4158, 139.3484
432.8979, 139.4429
433.3800, 139.6836
433.8622, 140.3982
434.3443, 141.3896
434.8264, 142.3608
435.3085, 143.2921
435.7906, 144.0843
436.2727, 144.5971
436.7549, 144.8971
437.2370, 145.3232
437.7191, 145.9517
438.2012, 146.6389
438.6833, 147.2554
439.1654, 147.8721
439.6476, 148.7003
440.1297, 149.8423
440.6118, 151.1226
441.0939, 152.2369
441.5760, 153.1016
442.0581, 154.0309
442.5403, 155.0862
443.0224, 156.1792
443.5045, 157.1749
443.9866, 158.1147
444.4687, 159.2119
444.9508, 160.6593
445.4330, 162.4108
445.9151, 164.0148
446.3972, 165.3993
446.8793, 166.7101
447.3614, 167.7954
447.8435, 168.8949
448.3257, 170.2991
448.8078, 172.0876
449.2899, 174.0950
449.7720, 176.1320
450.2541, 178.2739
450.7362, 180.1613
451.2184, 181.7579
451.7005, 183.1226
452.1826, 184.2579
452.6647, 185.1745
453.1468, 185.9050
453.6289, 186.4558
454.1111, 186.8468
454.5932, 187.1803
455.0753, 187.5715
455.5574, 187.5623
456.0395, 186.7745
456.5216, 185.6371
457.0038, 184.4584
457.4859, 183.2734
457.9680, 181.9826
458.4501, 180.5340
458.9322, 178.9151
459.4143, 177.0884
459.8965, 175.0257
460.3786, 172.8313
460.8607, 170.4824
461.3428, 168.0602
461.8249, 165.7788
462.3070, 163.6719
462.7892, 161.7220
463.2713, 160.0329
463.7534, 158.5220
464.2355, 156.8817
464.7176, 154.9705
465.1997, 152.9277
465.6819, 150.9191
466.1640, 148.8562
466.6461, 147.1962
467.1282, 146.2589
467.6103, 145.5520
468.0924, 144.6450
468.5746, 143.5524
469.0567, 142.5682
469.5388, 141.9330
470.0209, 141.5833
470.5030, 141.0586
470.9851, 140.1228
471.4673, 139.3015
471.9494, 138.7353
472.4315, 138.2684
472.9136, 137.7068
473.3957, 137.0222
473.8778, 136.3900
474.3600, 136.0801
474.8421, 136.1726
475.3242, 135.9880
475.8063, 135.2487
476.2884, 134.5094
476.7705, 133.8835
477.2527, 133.3939
477.7348, 133.0763
478.2169, 132.9662
478.6990, 132.9679
479.1811, 132.9318
479.6632, 132.8537
480.1454, 132.7717
480.6275, 132.7008
481.1096, 132.6214
481.5917, 132.4818
482.0738, 132.2980
482.5559, 132.2051
483.0380, 132.3649
483.5201, 132.6159
484.0023, 132.7261
484.4844, 132.6879
484.9665, 132.4501
485.4486, 131.8193
485.9307, 131.0620
486.4128, 130.9029
486.8950, 131.6687
487.3771, 132.2999
487.8592, 132.3260
488.3413, 132.0484
488.8234, 131.8570
489.3055, 131.8287
489.7877, 131.8505
490.2698, 131.7954
490.7519, 131.6497
491.2340, 131.7034
491.7161, 132.1376
492.1982, 132.5285
492.6804, 132.7254
493.1625, 132.8044
493.6446, 132.8706
494.1267, 132.9658
494.6088, 133.0915
495.0909, 133.2601
495.5731, 133.5003
496.0552, 133.6912
496.5373, 133.7648
497.0194, 133.8522
497.5015, 134.0988
497.9836, 134.3960
498.4658, 134.4560
498.9479, 134.0150
499.4300, 133.4562
499.9121, 133.6684
500.3942, 134.8194
500.8763, 135.6895
501.3585, 135.7641
501.8406, 135.5599
502.3227, 135.5292
502.8048, 135.6815
503.2869, 135.9009
503.7690, 136.0809
504.2512, 136.3159
504.7333, 136.8737
505.2154, 137.7698
505.6975, 138.3868
506.1796, 138.2099
506.6617, 137.5775
507.1439, 137.6091
507.6260, 138.7637
508.1081, 139.6272
508.5902, 139.4883
509.0723, 139.0326
509.5544, 139.0569
510.0366, 139.6814
510.5187, 140.5584
511.0008, 141.4242
511.4829, 142.2778
511.9650, 142.6803
512.4471, 142.0009
512.9293, 141.6201
513.4114, 142.0357
513.8935, 142.7778
514.3756, 143.2507
514.8577, 143.3011
515.3398, 143.3123
515.8220, 143.8262
516.3041, 144.9010
516.7862, 145.8390
517.2683, 146.6493
517.7504, 147.2808
518.2325, 147.6190
518.7147, 147.8021
519.1968, 148.0697
519.6789, 148.5337
520.1610, 149.0320
520.6431, 149.3367
521.1252, 149.4818
521.6074, 149.7536
522.0895, 150.2446
522.5716, 150.8265
523.0537, 151.4343
523.5358, 152.0527
524.0179, 152.4774
524.5001, 152.3806
524.9822, 152.3408
525.4643, 152.9017
525.9464, 153.8774
526.4285, 154.6716
526.9106, 155.0174
527.3928, 155.1398
527.8749, 155.4522
528.3570, 156.0164
528.8391, 156.6543
529.3212, 157.5919
529.8033, 158.3893
530.2855, 158.6079
530.7676, 158.4831
531.2497, 158.6577
531.7318, 159.5530
532.2139, 160.8083
532.6960, 161.4360
533.1782, 161.1990
533.6603, 161.0084
534.1424, 161.1120
534.6245, 161.2223
535.1066, 161.0784
535.5887, 160.7541
536.0709, 160.6216
536.5530, 161.0697
537.0351, 161.7627
537.5172, 161.9936
537.9993, 161.7323
538.4814, 161.6709
538.9636, 162.2717
539.4457, 163.0582
539.9278, 163.2350
540.4099, 162.7407
540.8920, 162.1312
541.3741, 161.3630
541.8563, 160.6780
542.3384, 160.3969
542.8205, 160.4716
543.3026, 160.5495
543.7847, 160.4087
544.2668, 160.1050
544.7490, 159.8470
545.2311, 159.8526
545.7132, 159.5877
546.1953, 158.7224
546.6774, 157.8320
547.1595, 157.4680
547.6417, 157.5387
548.1238, 157.4646
548.6059, 156.7641
549.0880, 155.6060
549.5701, 154.6607
550.0522, 154.0361
550.5344, 153.3603
551.0165, 152.2558
551.4986, 151.2343
551.9807, 150.8096
552.4628, 150.9910
552.9449, 151.1581
553.4271, 150.9681
553.9092, 150.5233
554.3913, 149.9541
554.8734, 149.2677
555.3555, 148.5865
555.8376, 147.9751
556.3198, 147.4144
556.8019, 146.8350
557.2840, 146.1767
557.7661, 145.6564
558.2482, 145.4090
558.7303, 145.2535
559.2125, 145.0586
559.6946, 144.7983
560.1767, 144.4376
560.6588, 143.9195
561.1409, 143.3394
561.6230, 143.1224
562.1052, 143.5295
562.5873, 143.8578
563.0694, 143.9744
563.5515, 144.0468
564.0336, 144.1690
564.5157, 144.3569
564.9979, 144.5979
565.4800, 144.8663
565.9621, 145.1912
566.4442, 145.6878
566.9263, 146.3898
567.4084, 147.0296
567.8906, 147.5045
568.3727, 147.8656
568.8548, 148.1490
569.3369, 148.3434
569.8190, 148.6436
570.3011, 149.4899
570.7833, 150.2149
571.2654, 149.9398
571.7475, 148.8227
572.2296, 147.8572
572.7117, 147.6145
573.1938, 147.6703
573.6760, 146.9723
574.1581, 144.9589
574.6402, 143.1999
575.1223, 141.5530
575.6044, 140.2623
576.0865, 139.7052
576.5687, 139.6178
577.0508, 139.3182
577.5329, 138.3756
578.0150, 137.1713
578.4971, 136.6501
578.9792, 137.0023
579.4614, 136.9476
579.9435, 135.9057
580.4256, 134.7742
580.9077, 134.2514
581.3898, 134.2135
581.8719, 134.1483
582.3541, 133.8717
582.8362, 133.4968
583.3183, 133.1317
583.8004, 132.7628
584.2825, 132.3098
584.7646, 131.7205
585.2468, 131.1651
585.7289, 130.8669
586.2110, 130.8739
586.6931, 130.9026
587.1752, 131.0233
587.6573, 131.0898
588.1394, 131.0829
588.6215, 130.9707
589.1036, 130.6733
589.5858, 130.1735
590.0679, 129.6152
590.5500, 129.1193
591.0321, 128.6524
591.5142, 128.6497
591.9963, 129.5460
592.4785, 130.2595
592.9606, 130.1610
593.4427, 129.6760
593.9248, 129.4360
594.4069, 129.6468
594.8890, 129.7970
595.3712, 129.3156
595.8533, 128.5226
596.3354, 128.2224
596.8175, 128.5367
597.2996, 128.9319
597.7817, 128.9781
598.2639, 128.7899
598.7460, 129.0004
599.2281, 130.1128
599.7102, 130.8849
600.1923, 130.9476
600.6744, 130.7224
601.1566, 130.5579
601.6387, 130.4898
602.1208, 130.3648
602.6029, 130.0358
603.0850, 129.6017
603.5671, 129.4624
604.0493, 129.6865
604.5314, 130.0246
605.0135, 130.6778
605.4956, 131.2267
605.9777, 131.2814
606.4598, 130.9127
606.9420, 130.6196
607.4241, 130.7528
607.9062, 131.0054
608.3883, 130.9783
608.8704, 130.7218
609.3525, 130.5106
609.8347, 130.4397
610.3168, 130.4630
610.7989, 130.5536
611.2810, 130.7678
611.7631, 130.7287
612.2452, 130.0680
612.7274, 129.5644
613.2095, 129.6967
613.6916, 130.1494
614.1737, 130.4302
614.6558, 130.3744
615.1379, 130.1822
615.6201, 130.0781
616.1022, 130.0621
616.5843, 130.1713
617.0664, 130.5368
617.5485, 130.7892
618.0306, 130.5991
618.5128, 130.2693
618.9949, 130.2151
619.4770, 130.5574
619.9591, 130.8183
620.4412, 130.6342
620.9233, 130.2422
621.4055, 130.0117
621.8876, 129.9619
622.3697, 129.9157
622.8518, 129.7708
623.3339, 129.5455
623.8160, 129.2881
624.2982, 128.8794
624.7803, 128.6431
625.2624, 128.5655
625.7445, 128.6664
626.2266, 129.1957
626.7087, 129.9000
627.1909, 130.1641
627.6730, 129.6093
628.1551, 128.7318
628.6372, 128.4417
629.1193, 128.7606
629.6014, 128.8266
630.0836, 128.3289
630.5657, 127.8681
631.0478, 128.1565
631.5299, 128.8542
632.0120, 129.0768
632.4941, 128.3902
632.9763, 127.6563
633.4584, 127.2376
633.9405, 127.0665
634.4226, 127.1117
634.9047, 127.3379
635.3868, 127.5930
635.8690, 127.7665
636.3511, 127.8452
636.8332, 127.7265
637.3153, 127.2775
637.7974, 126.8445
638.2795, 126.3553
638.7617, 125.9862
639.2438, 125.9346
639.7259, 126.1399
640.2080, 126.3273
640.6901, 126.3498
641.1722, 126.2605
641.6544, 126.1187
642.1365, 125.9297
642.6186, 125.7277
643.1007, 125.4927
643.5828, 125.3360
644.0649, 125.4017
644.5471, 125.7062
645.0292, 125.9752
645.5113, 126.3684
645.9934, 126.5416
646.4755, 126.2277
646.9576, 125.6930
647.4398, 125.2309
647.9219, 124.9228
648.4040, 124.7548
648.8861, 124.7465
649.3682, 124.8625
649.8503, 124.8694
650.3325, 124.7263
650.8146, 124.5821
651.2967, 124.4094
651.7788, 124.3130
652.2609, 124.4846
652.7430, 124.8958
653.2252, 125.0840
653.7073, 124.5895
654.1894, 124.0373
654.6715, 124.0904
655.1536, 124.5640
655.6357, 124.8758
656.1179, 124.8248
656.6000, 124.6433
657.0821, 124.6432
657.5642, 124.8627
658.0463, 124.8751
658.5284, 124.3080
659.0106, 123.9766
659.4927, 124.3726
659.9748, 124.8855
660.4569, 124.7874
660.9390, 124.0129
661.4211, 123.2421
661.9033, 122.9905
662.3854, 123.1105
662.8675, 123.3721
663.3496, 123.7738
663.8317, 123.9891
664.3138, 123.8195
664.7960, 123.5474
665.2781, 123.6283
665.7602, 124.1737
666.2423, 124.4246
666.7244, 124.0741
667.2065, 123.7407
667.6887, 123.7152
668.1708, 123.8752
668.6529, 124.0452
669.1350, 124.1669
669.6171, 124.2534
670.0992, 124.3273
670.5814, 124.3816
671.0635, 124.3415
671.5456, 124.1744
672.0277, 124.0147
672.5098, 123.8903
672.9919, 123.8156
673.4741, 123.8008
673.9562, 123.8464
674.4383, 123.9459
674.9204, 124.2490
675.4025, 124.4702
675.8846, 124.2605
676.3668, 123.8139
676.8489, 123.6053
677.3310, 123.7899
677.8131, 124.0852
678.2952, 124.1409
678.7773, 123.9501
679.2595, 123.6897
679.7416, 123.1706
680.2237, 122.8968
680.7058, 123.2534
681.1879, 123.7394
681.6700, 123.8247
682.1522, 123.4890
682.6343, 123.2413
683.1164, 123.5109
683.5985, 123.9047
684.0806, 123.9166
684.5627, 123.6185
685.0449, 123.2827
685.5270, 122.9824
686.0091, 122.8847
686.4912, 123.2662
686.9733, 124.2003
687.4554, 124.7645
687.9376, 124.8014
688.4197, 124.6533
688.9018, 124.2537
689.3839, 123.7794
689.8660, 123.3434
690.3481, 122.9874
690.8303, 122.7949
691.3124, 122.8485
691.7945, 123.0859
692.2766, 123.5281
692.7587, 124.1296
693.2408, 124.3467
693.7230, 123.9360
694.2051, 123.3288
694.6872, 123.0180
695.1693, 123.0216
695.6514, 122.9401
696.1335, 122.5000
696.6157, 122.3236
697.0978, 122.8583
697.5799, 123.5453
698.0620, 123.7923
698.5441, 123.5695
699.0262, 123.2747
699.5084, 123.1905
699.9905, 123.2364
700.4726, 123.2235
700.9547, 123.1493
701.4368, 123.1562
701.9189, 123.3425
702.4011, 123.4790
702.8832, 123.2964
703.3653, 122.8282
703.8474, 122.5082
704.3295, 122.3213
704.8116, 122.3124
705.2938, 122.7605
705.7759, 123.2196
706.2580, 123.1460
706.7401, 122.5930
707.2222, 122.0399
707.7043, 121.7795
708.1865, 121.7958
708.6686, 122.1854
709.1507, 123.0092
709.6328, 123.3791
710.1149, 122.9188
710.5970, 122.4167
711.0792, 122.5993
711.5613, 123.2059
712.0434, 123.4459
712.5255, 123.0505
713.0076, 122.6779
713.4897, 122.5283
713.9719, 122.5037
714.4540, 122.5977
714.9361, 122.7338
715.4182, 122.6934
715.9003, 122.3439
716.3824, 121.8728
716.8646, 121.6246
717.3467, 121.6047
717.8288, 121.7750
718.3109, 122.2944
718.7930, 122.7042
719.2751, 122.5827
719.7573, 122.2424
720.2394, 122.2394
720.7215, 122.7267
721.2036, 123.0886
721.6857, 123.0443
722.1678, 122.8492
722.6500, 122.6355
723.1321, 122.4671
723.6142, 122.4935
724.0963, 122.7713
724.5784, 123.0945
725.0605, 123.1427
725.5427, 122.9057
726.0248, 122.8168
726.5069, 122.9933
726.9890, 123.0485
727.4711, 122.6556
727.9532, 122.1791
728.4354, 122.0485
728.9175, 122.2843
729.3995, 122.5731
729.8817, 122.9618
730.3638, 123.2385
730.8459, 123.1378
731.3280, 122.8525
731.8101, 122.7698
732.2922, 122.9756
732.7744, 123.2136
733.2565, 123.2050
733.7386, 123.0137
734.2207, 123.0821
734.7028, 123.5360
735.1849, 123.8439
735.6671, 123.8721
736.1492, 123.7194
736.6313, 123.3671
737.1134, 122.8899
737.5955, 122.6305
738.0776, 122.8322
738.5598, 123.0448
739.0419, 122.9322
739.5240, 122.7710
740.0061, 123.0125
740.4882, 123.6106
740.9703, 124.0868
741.4525, 124.1123
741.9346, 123.8450
742.4167, 123.6583
742.8988, 123.5667
743.3809, 123.4254
743.8630, 123.1249
744.3452, 122.9345
744.8273, 123.1519
745.3094, 123.5586
745.7915, 123.7208
746.2736, 123.5050
746.7557, 123.3791
747.2379, 123.6975
747.7200, 123.9910
748.2021, 123.7129
748.6842, 123.1026
749.1663, 122.8004
749.6484, 123.0560
750.1306, 123.5122
750.6127, 123.6901
751.0948, 123.6155
751.5769, 123.6951
752.0590, 123.9915
752.5411, 124.2264
753.0233, 124.3654
753.5054, 124.3273
753.9875, 123.8467
754.4696, 122.9273
754.9517, 122.4367
755.4338, 122.7508
755.9160, 123.2072
756.3981, 123.7421
756.8802, 124.1318
757.3623, 124.0274
757.8444, 123.4558
758.3265, 122.7885
758.8087, 122.2331
759.2908, 121.8964
759.7729, 122.1178
760.2550, 122.8977
760.7371, 123.6461
761.2192, 124.3532
761.7014, 124.7145
762.1835, 124.3575
762.6656, 123.4672
763.1477, 122.8471
763.6298, 122.4660
764.1119, 122.3768
764.5941, 122.9586
765.0762, 123.4889
765.5583, 123.4056
766.0404, 122.9191
766.5225, 122.4777
767.0046, 122.2505
767.4868, 122.2039
767.9689, 122.4519
768.4510, 122.8376
768.9331, 122.8318
769.4152, 122.4113
769.8973, 121.9362
770.3795, 121.5184
770.8616, 121.2092
771.3437, 121.0754
771.8258, 121.1196
772.3079, 121.3318
772.7900, 122.0441
773.2722, 122.4913
773.7543, 122.2842
774.2364, 121.9045
774.7185, 121.8179
775.2006, 122.0175
775.6827, 122.1791
776.1649, 122.1259
776.6470, 121.9747
777.1291, 121.7955
777.6112, 121.6286
778.0933, 121.6064
778.5754, 121.7441
779.0576, 121.9212
779.5397, 122.0798
780.0218, 122.1543
780.5039, 121.8907
780.9860, 121.0048
781.4681, 120.5366
781.9503, 120.7642
782.4324, 121.1283
782.9145, 121.5232
783.3966, 121.8543
783.8787, 121.9753
784.3608, 121.8475
784.8430, 121.6723
785.3251, 121.5013
785.8072, 121.3588
786.2893, 121.2562
786.7714, 121.2018
787.2535, 121.2281
787.7357, 121.3378
788.2178, 121.4585
788.6999, 121.5092
789.1820, 121.5103
789.6641, 121.6034
790.1462, 121.8430
790.6284, 121.8914
791.1105, 121.4757
791.5926, 121.1421
792.0747, 121.5131
792.5568, 122.3812
793.0389, 122.9053
793.5211, 122.8338
794.0032, 122.7623
794.4853, 122.8760
794.9674, 123.0088
795.4495, 122.9987
795.9316, 122.9015
796.4138, 122.8644
796.8959, 122.9481
797.3780, 123.1097
797.8601, 123.3817
798.3422, 123.6883
798.8243, 123.7358
799.3065, 123.5127
799.7886, 123.2302
800.2707, 122.9213
800.7528, 122.7432
801.2349, 122.9415
801.7170, 123.5508
802.1992, 123.9791
802.6813, 124.0922
803.1634, 124.1971
803.6455, 124.3040
804.1276, 124.4428
804.6097, 124.6854
805.0919, 124.9842
805.5740, 125.1705
806.0561, 125.1195
806.5382, 125.0864
807.0203, 125.2656
807.5024, 125.6024
807.9846, 126.0794
808.4667, 126.6448
808.9488, 127.1020
809.4309, 127.3449
809.9130, 127.4631
810.3951, 127.6211
810.8773, 127.8328
811.3594, 127.8428
811.8415, 127.5023
812.3236, 127.3240
812.8057, 127.5371
813.2878, 127.9588
813.7700, 128.4481
814.2521, 128.9924
814.7342, 129.3676
815.2163, 129.4616
815.6984, 129.4840
816.1805, 129.4927
816.6627, 129.4831
817.1448, 129.4115
817.6269, 129.3125
818.1090, 129.2953
818.5911, 129.4216
819.0732, 129.6392
819.5554, 129.8716
820.0375, 130.1355
820.5196, 130.5488
821.0017, 131.1210
821.4838, 131.5739
821.9659, 131.7690
822.4481, 131.7659
822.9302, 131.6326
823.4123, 131.3247
823.8944, 131.1850
824.3765, 131.2749
824.8586, 131.4525
825.3408, 131.7246
825.8229, 132.0387
826.3050, 132.4129
826.7871, 132.8048
827.2692, 133.0314
827.7513, 132.9200
828.2335, 132.8054
828.7156, 132.9029
829.1977, 133.1141
829.6798, 133.3387
830.1619, 133.5526
830.6440, 133.7786
831.1262, 134.0332
831.6083, 134.1536
832.0904, 133.6870
832.5725, 132.7242
833.0546, 132.6449
833.5367, 133.6449
834.0189, 134.4436
834.5010, 134.5683
834.9831, 134.2493
835.4652, 133.6187
835.9473, 132.6511
836.4294, 132.2742
836.9116, 132.9331
837.3937, 133.5193
837.8758, 133.9085
838.3579, 134.1199
838.8400, 134.1203
839.3221, 133.9586
839.8043, 133.7265
840.2864, 133.4356
840.7685, 133.1818
841.2506, 133.0802
841.7327, 133.0380
842.2148, 132.9283
842.6970, 132.7525
843.1791, 132.5496
843.6612, 132.3340
844.1433, 132.1177
844.6254, 131.9232
845.1075, 131.7411
845.5897, 131.4970
846.0718, 131.1754
846.5539, 130.8618
847.0360, 130.5708
847.5181, 130.2947
848.0002, 129.9729
848.4824, 129.6570
848.9645, 129.5915
849.4466, 130.0377
849.9287, 130.2405
850.4108, 130.0219
850.8929, 129.6408
851.3751, 129.0396
851.8572, 128.4596
852.3393, 128.3465
852.8214, 128.7697
853.3035, 129.1052
853.7856, 128.7199
854.2678, 128.1592
854.7499, 128.2120
855.2320, 128.6436
855.7141, 128.8324
856.1962, 128.6509
856.6783, 128.2840
857.1605, 127.8462
857.6426, 127.4033
858.1247, 127.1575
858.6068, 127.1450
859.0889, 127.0105
859.5710, 126.6357
860.0532, 126.3935
860.5353, 126.5986
861.0174, 126.9461
861.4995, 126.8664
861.9816, 126.2748
862.4637, 125.8966
862.9459, 125.9265
863.4280, 125.9652
863.9101, 125.8876
864.3922, 125.7673
864.8743, 125.6595
865.3564, 125.5774
865.8386, 125.5387
866.3207, 125.5756
866.8028, 125.5852
867.2849, 125.4858
867.7670, 125.2996
868.2491, 124.9866
868.7313, 124.6074
869.2134, 124.4579
869.6955, 124.6506
870.1776, 124.7518
870.6597, 124.0965
871.1418, 122.8669
871.6239, 122.4373
872.1060, 122.9299
872.5881, 123.3941
873.0703, 123.6720
873.5524, 123.7074
874.0345, 123.3388
874.5166, 122.7026
874.9987, 122.3988
875.4808, 122.7372
875.9630, 122.8684
876.4451, 122.5559
876.9272, 122.2962
877.4093, 122.3228
877.8914, 122.5249
878.3735, 122.8556
878.8557, 123.2723
879.3378, 123.3811
879.8199, 122.5849
880.3020, 121.8341
880.7841, 122.1568
881.2662, 122.8658
881.7484, 122.7525
882.2305, 121.8730
882.7126, 121.2711
883.1947, 121.5653
883.6768, 122.2309
884.1589, 122.5077
884.6411, 122.4488
885.1232, 122.3112
885.6053, 122.1014
886.0874, 121.9826
886.5695, 122.0196
887.0516, 122.1668
887.5338, 122.4019
888.0159, 122.7114
888.4980, 122.8380
888.9801, 122.6993
889.4622, 122.5420
889.9443, 122.3625
890.4265, 122.2047
890.9086, 121.9866
891.3907, 121.8380
891.8728, 122.0602
892.3549, 122.7821
892.8370, 123.3504
893.3192, 123.6156
893.8013, 123.6424
894.2834, 123.2730
894.7655, 122.7985
895.2476, 122.5733
895.7297, 122.6325
896.2119, 122.8092
896.6940, 123.0441
897.1761, 123.2595
897.6582, 123.3472
898.1403, 123.3541
898.6224, 123.3710
899.1046, 123.4103
899.5867, 123.4639
900.0688, 123.5277
900.5509, 123.6527
901.0330, 123.9195
901.5151, 124.3106
901.9973, 124.7060
902.4794, 125.1379
902.9615, 125.3482
903.4436, 125.1845
903.9257, 125.0126
904.4078, 125.1135
904.8900, 125.4236
905.3721, 125.7417
905.8542, 126.1016
906.3363, 126.3858
906.8184, 126.5608
907.3005, 126.7019
907.7827, 126.7655
908.2648, 126.8531
908.7469, 127.0994
909.2290, 127.4938
909.7111, 127.8635
910.1932, 128.1411
910.6754, 128.3994
911.1575, 128.6529
911.6396, 128.9254
912.1217, 129.1794
912.6038, 129.4815
913.0859, 130.0347
913.5681, 130.9065
914.0502, 131.7797
914.5323, 132.3368
915.0144, 132.6822
915.4965, 132.9349
915.9786, 133.1517
916.4608, 133.5773
916.9429, 134.2608
917.4250, 135.1073
917.9071, 136.0574
918.3892, 137.0736
918.8713, 138.1347
919.3535, 139.2708
919.8356, 140.0170
920.3177, 140.2376
920.7998, 140.4529
921.2819, 140.7821
921.7640, 141.3191
922.2462, 142.1883
922.7283, 143.3860
923.2104, 144.8032
923.6925, 146.6302
924.1746, 148.3979
924.6567, 149.9984
925.1389, 151.6225
925.6210, 153.3745
926.1031, 155.2215
926.5852, 157.0913
927.0673, 158.9674
927.5494, 160.9428
928.0316, 163.0789
928.5137, 165.2936
928.9958, 167.3100
929.4779, 169.5167
929.9600, 172.3916
930.4421, 175.9073
930.9243, 179.6971
931.4064, 183.5802
931.8885, 187.6552
932.3706, 192.0297
932.8527, 196.6055
933.3348, 201.1163
933.8170, 205.6723
934.2991, 210.6209
934.7812, 216.0849
935.2633, 221.9352
935.7454, 228.1088
936.2275, 234.5067
936.7097, 240.8394
937.1918, 247.1423
937.6739, 253.9704
938.1560, 261.4156
938.6381, 269.2017
939.1202, 277.1922
939.6024, 285.5501
940.0845, 294.5282
940.5666, 304.0970
941.0487, 314.1566
941.5308, 324.5157
942.0129, 335.6842
942.4951, 347.8410
942.9772, 360.6145
943.4593, 373.6417
943.9414, 387.1007
944.4235, 401.6544
944.9056, 417.5388
945.3878, 433.3965
945.8699, 449.1156
946.3520, 464.7151
946.8341, 481.0538
947.3162, 496.6360
947.7983, 510.5689
948.2805, 522.4393
948.7626, 531.5384
949.2447, 538.0323
949.7268, 540.7354
950.2089, 538.9852
950.6910, 533.0833
951.1732, 522.9208
951.6553, 508.9567
952.1374, 491.7420
952.6195, 471.6391
953.1016, 449.4293
953.5837, 424.9898
954.0659, 399.9216
954.5480, 376.1183
955.0301, 353.6490
955.5122, 332.6576
955.9943, 313.2005
956.4764, 295.2800
956.9586, 278.9589
957.4407, 264.0408
957.9228, 250.3279
958.4049, 237.8326
958.8870, 226.2126
959.3691, 215.4685
959.8513, 206.0268
960.3334, 197.9842
960.8155, 190.8569
961.2976, 184.3476
961.7797, 178.4000
962.2618, 172.8025
962.7440, 167.5355
963.2261, 162.9742
963.7082, 159.3316
964.1903, 155.8543
964.6724, 152.3269
965.1545, 148.9891
965.6367, 145.9955
966.1188, 143.3358
966.6009, 141.0454
967.0830, 139.2656
967.5651, 137.4581
968.0472, 135.5233
968.5294, 133.6741
969.0115, 132.0168
969.4936, 130.4585
969.9757, 128.8680
970.4578, 127.2907
970.9399, 125.9508
971.4221, 124.9497
971.9042, 124.0781
972.3863, 123.3633
972.8684, 122.6392
973.3505, 121.6609
973.8326, 120.6521
974.3148, 120.0099
974.7969, 119.7439
975.2790, 119.4565
975.7611, 118.9173
976.2432, 118.3145
976.7253, 117.8425
977.2075, 117.3817
977.6896, 116.6837
978.1717, 115.8588
978.6538, 115.2469
979.1359, 114.9502
979.6180, 114.8366
980.1002, 114.8811
980.5823, 114.9118
981.0644, 114.5326
981.5465, 113.8990
982.0286, 113.5303
982.5107, 113.4491
982.9929, 113.2804
983.4750, 112.8455
983.9571, 112.4157
984.4392, 112.3492
984.9213, 112.5731
985.4034, 112.8251
985.8856, 113.1045
986.3677, 113.0712
986.8498, 112.6350
987.3319, 112.1795
987.8140, 111.9253
988.2961, 111.8152
988.7783, 111.7536
989.2604, 111.7391
989.7425, 111.8658
990.2246, 112.2964
990.7067, 112.2399
991.1888, 111.3039
991.6710, 110.3169
992.1531, 109.8861
992.6352, 109.8120
993.1173, 109.6101
993.5994, 109.2436
994.0815, 108.8994
994.5637, 108.5610
995.0458, 108.2724
995.5279, 108.0533
996.0100, 107.8820
996.4921, 107.8104
996.9742, 107.7701
997.4564, 107.5423
997.9385, 107.0116
998.4206, 106.6048
998.9027, 106.4935
999.3848, 106.3624
999.8669, 106.0922
1000.349, 105.7492
1000.831, 105.3630
1001.313, 104.9650
1001.795, 104.6407
1002.278, 104.4219
1002.760, 104.2392
1003.242, 104.0207
1003.724, 103.8782
1004.206, 103.9607
1004.688, 104.1114
1005.170, 104.1279
1005.652, 104.0060
1006.134, 103.8742
1006.617, 103.7984
1007.099, 103.6826
1007.581, 103.3546
1008.063, 103.0532
1008.545, 103.1495
1009.027, 103.3931
1009.509, 103.2510
1009.991, 102.7085
1010.474, 102.2844
1010.956, 102.3184
1011.438, 102.4686
1011.920, 102.3863
1012.402, 102.1907
1012.884, 101.9952
1013.366, 101.8609
1013.848, 101.9837
1014.330, 102.3635
1014.813, 102.6436
1015.295, 102.5176
1015.777, 102.2826
1016.259, 102.4804
1016.741, 102.9054
1017.223, 102.9804
1017.705, 102.7364
1018.187, 102.5391
1018.669, 102.5011
1019.152, 102.4649
1019.634, 102.2812
1020.116, 102.0434
1020.598, 101.9742
1021.080, 102.0443
1021.562, 102.0861
1022.044, 102.0871
1022.526, 102.0310
1023.008, 101.9095
1023.491, 101.8060
1023.973, 101.8199
1024.455, 101.8806
1024.937, 101.7114
1025.419, 101.3097
1025.901, 101.1183
1026.383, 101.1755
1026.865, 101.3701
1027.348, 101.6834
1027.830, 102.0061
1028.312, 102.2265
1028.794, 102.3546
1029.276, 102.3911
1029.758, 102.2738
1030.240, 102.5246
1030.722, 103.3435
1031.204, 103.8631
1031.687, 103.6512
1032.169, 103.2195
1032.651, 103.1033
1033.133, 103.2712
1033.615, 103.5661
1034.097, 104.0552
1034.579, 104.4373
1035.061, 104.6015
1035.544, 104.8942
1036.026, 105.5511
1036.508, 106.2530
1036.990, 106.6010
1037.472, 106.6700
1037.954, 107.0126
1038.436, 107.8938
1038.918, 108.4716
1039.401, 108.4778
1039.883, 108.5766
1040.365, 109.0741
1040.847, 109.7170
1041.329, 110.1669
1041.811, 110.4890
1042.293, 111.1733
1042.775, 112.7026
1043.257, 113.7462
1043.740, 113.7659
1044.222, 113.9737
1044.704, 114.8836
1045.186, 116.0854
1045.668, 117.1924
1046.150, 118.2283
1046.632, 119.3918
1047.114, 120.9116
1047.596, 122.1195
1048.079, 122.6306
1048.561, 123.2415
1049.043, 124.4251
1049.525, 125.7191
1050.007, 126.6932
1050.489, 127.3635
1050.971, 127.8967
1051.453, 128.4318
1051.936, 128.5342
1052.418, 127.8707
1052.900, 127.0807
1053.382, 126.6370
1053.864, 126.0340
1054.346, 124.5219
1054.828, 122.4061
1055.310, 120.8787
1055.792, 120.4768
1056.275, 119.6321
1056.757, 117.3500
1057.239, 115.2980
1057.721, 114.4056
1058.203, 113.9372
1058.685, 113.2428
1059.167, 112.3133
1059.649, 111.3326
1060.131, 110.3407
1060.614, 109.2894
1061.096, 107.9648
1061.578, 106.8221
1062.060, 106.0806
1062.542, 105.6117
1063.024, 105.4470
1063.506, 105.4159
1063.988, 105.1293
1064.471, 104.4742
1064.953, 103.7972
1065.435, 103.1155
1065.917, 102.5820
1066.399, 102.3833
1066.881, 102.2756
1067.363, 101.9714
1067.845, 101.5911
1068.328, 101.5318
1068.810, 101.8992
1069.292, 101.9442
1069.774, 100.9783
1070.256, 100.1151
1070.738, 100.0058
1071.220, 100.1453
1071.702, 100.0461
1072.184, 99.85486
1072.667, 100.0240
1073.149, 100.6148
1073.631, 100.9497
1074.113, 100.5841
1074.595, 100.1056
1075.077, 99.70049
1075.559, 99.39008
1076.041, 99.27823
1076.523, 99.23342
1077.006, 98.98845
1077.488, 98.53831
1077.970, 98.25089
1078.452, 98.38094
1078.934, 98.51968
1079.416, 98.42098
1079.898, 98.30827
1080.380, 98.31681
1080.863, 98.44724
1081.345, 98.78513
1081.827, 99.25703
1082.309, 99.46697
1082.791, 99.15241
1083.273, 98.84924
1083.755, 98.91518
1084.237, 98.95900
1084.719, 98.56880
1085.202, 98.08455
1085.684, 98.02757
1086.166, 98.31162
1086.648, 98.37883
1087.130, 97.98182
1087.612, 97.65588
1088.094, 97.72660
1088.576, 97.83288
1089.058, 97.74317
1089.541, 97.58585
1090.023, 97.48969
1090.505, 97.45955
1090.987, 97.47043
1091.469, 97.52481
1091.951, 97.55025
1092.433, 97.48254
1092.915, 97.42538
1093.397, 97.40225
1093.880, 97.43787
1094.362, 97.64344
1094.844, 97.89384
1095.326, 97.90711
1095.808, 97.63040
1096.290, 97.40702
1096.772, 97.26563
1097.254, 97.31482
1097.737, 97.91203
1098.219, 98.39678
1098.701, 98.16814
1099.183, 97.55629
1099.665, 97.00539
1100.147, 96.60319
1100.629, 96.50560
1101.111, 97.09358
1101.594, 97.42871
1102.076, 97.04823
1102.558, 96.57247
1103.040, 96.27013
1103.522, 96.12260
1104.004, 96.14477
1104.486, 96.28971
1104.968, 96.35190
1105.450, 96.21853
1105.932, 96.19725
1106.415, 96.50613
1106.897, 96.74043
1107.379, 96.66142
1107.861, 96.50236
1108.343, 96.48824
1108.825, 96.56694
1109.307, 96.54923
1109.789, 96.37541
1110.272, 96.29470
1110.754, 96.53712
1111.236, 96.59486
1111.718, 96.08022
1112.200, 95.61172
1112.682, 95.71428
1113.164, 96.09380
1113.646, 96.19151
1114.129, 95.96181
1114.611, 95.86932
1115.093, 96.15884
1115.575, 96.22806
1116.057, 95.77703
1116.539, 95.41308
1117.021, 95.44661
1117.503, 95.67025
1117.985, 95.90645
1118.468, 96.13021
1118.950, 96.10568
1119.432, 95.51448
1119.914, 95.37629
1120.396, 96.10194
1120.878, 96.52152
1121.360, 96.03075
1121.842, 95.44945
1122.324, 95.55777
1122.807, 96.08614
1123.289, 96.20123
1123.771, 95.77284
1124.253, 95.67750
1124.735, 96.12426
1125.217, 96.25842
1125.699, 95.75425
1126.181, 95.30898
1126.664, 95.41710
1127.146, 95.72366
1127.628, 95.60023
1128.110, 95.07825
1128.592, 94.78195
1129.074, 94.70845
1129.556, 94.94551
1130.038, 95.59801
1130.521, 95.99171
1131.003, 95.78201
1131.485, 95.43974
1131.967, 95.49707
1132.449, 95.81087
1132.931, 95.88407
1133.413, 95.71885
1133.895, 95.48938
1134.377, 95.20026
1134.859, 95.22495
1135.342, 95.68206
1135.824, 95.98196
1136.306, 95.66290
1136.788, 95.12598
1137.270, 95.18063
1137.752, 95.64677
1138.234, 95.52909
1138.716, 94.96584
1139.199, 94.86464
1139.681, 95.31467
1140.163, 95.66906
1140.645, 95.62454
1141.127, 95.49358
1141.609, 95.66035
1142.091, 95.89790
1142.573, 95.58158
1143.056, 95.04182
1143.538, 95.20482
1144.020, 95.93102
1144.502, 96.50550
1144.984, 96.70822
1145.466, 96.59910
1145.948, 96.15205
1146.430, 95.68551
1146.912, 95.62362
1147.395, 95.70139
1147.877, 95.54479
1148.359, 95.25844
1148.841, 95.05295
1149.323, 94.94975
1149.805, 94.86405
1150.287, 94.76073
1150.769, 94.75449
1151.251, 95.07723
1151.734, 95.34962
1152.216, 95.18069
1152.698, 94.90144
1153.180, 94.87038
1153.662, 95.00732
1154.144, 95.15580
1154.626, 95.25772
1155.108, 95.14371
1155.591, 94.55721
1156.073, 94.12422
1156.555, 94.11073
1157.037, 94.29575
1157.519, 94.81596
1158.001, 95.26073
1158.483, 95.05508
1158.965, 94.39407
1159.448, 94.01587
1159.930, 94.07382
1160.412, 94.17805
1160.894, 94.27547
1161.376, 94.41435
1161.858, 94.62068
1162.340, 94.85758
1162.822, 95.24557
1163.304, 95.55995
1163.786, 95.36429
1164.269, 94.68647
1164.751, 94.45653
1165.233, 94.94897
1165.715, 95.21045
1166.197, 95.10536
1166.679, 94.98840
1167.161, 94.96668
1167.643, 95.01836
1168.126, 95.17320
1168.608, 95.31956
1169.090, 95.12093
1169.572, 94.55176
1170.054, 94.24376
1170.536, 94.21438
1171.018, 94.29899
1171.500, 94.48487
1171.983, 94.57182
1172.465, 94.45011
1172.947, 94.24672
1173.429, 94.10345
1173.911, 94.01756
1174.393, 93.99378
1174.875, 94.02239
1175.357, 94.03078
1175.839, 94.03610
1176.322, 94.22752
1176.804, 94.61507
1177.286, 94.82342
1177.768, 94.59371
1178.250, 94.22976
1178.732, 93.99376
1179.214, 93.95106
1179.696, 94.42776
1180.178, 95.06557
1180.661, 95.13850
1181.143, 94.73118
1181.625, 94.34406
1182.107, 94.14543
1182.589, 94.06021
1183.071, 94.04434
1183.553, 94.12116
1184.035, 94.43003
1184.518, 94.71425
1185.000, 94.80326
1185.482, 94.68932
1185.964, 94.19196
1186.446, 93.49905
1186.928, 93.31620
1187.410, 93.93945
1187.892, 94.37476
1188.375, 94.17239
1188.857, 93.98772
1189.339, 94.06506
1189.821, 94.19885
1190.303, 94.31067
1190.785, 94.35934
1191.267, 94.25384
1191.749, 94.01102
1192.231, 93.84884
1192.714, 93.79420
1193.196, 93.75365
1193.678, 93.67889
1194.160, 93.74358
1194.642, 94.07783
1195.124, 94.38754
1195.606, 94.46777
1196.088, 94.34139
1196.570, 93.99573
1197.053, 93.46523
1197.535, 93.39492
1198.017, 93.80186
1198.499, 93.80740
1198.981, 93.31075
1199.463, 92.94480
1199.945, 92.95528
1200.427, 92.98401
1200.910, 92.67698
1201.392, 92.35374
1201.874, 92.73921
1202.356, 93.48647
1202.838, 93.68530
1203.320, 93.47443
1203.802, 93.24792
1204.284, 93.10342
1204.766, 93.09583
1205.249, 93.24109
1205.731, 93.42490
1206.213, 93.64035
1206.695, 93.73965
1207.177, 93.51000
1207.659, 93.18027
1208.141, 92.88602
1208.623, 92.71231
1209.105, 92.83588
1209.588, 93.18396
1210.070, 93.41726
1210.552, 93.44295
1211.034, 93.38094
1211.516, 93.19695
1211.998, 93.02878
1212.480, 92.90009
1212.962, 92.82740
1213.445, 92.91524
1213.927, 93.00220
1214.409, 92.72813
1214.891, 92.18777
1215.373, 92.28809
1215.855, 93.54278
1216.337, 93.89330
1216.819, 92.97006
1217.302, 92.25253
1217.784, 92.10526
1218.266, 92.31428
1218.748, 92.81406
1219.230, 93.32552
1219.712, 93.40324
1220.194, 93.12572
1220.676, 92.78185
1221.158, 92.39711
1221.641, 92.19118
1222.123, 92.15551
1222.605, 92.07829
1223.087, 91.91508
1223.569, 91.86075
1224.051, 92.05229
1224.533, 92.28540
1225.015, 92.30421
1225.497, 92.24539
1225.979, 92.29612
1226.462, 92.38728
1226.944, 92.39372
1227.426, 92.35104
1227.908, 92.37137
1228.390, 92.47135
1228.872, 92.57236
1229.354, 92.64194
1229.836, 92.70682
1230.319, 92.81628
1230.801, 92.87215
1231.283, 92.76189
1231.765, 92.63335
1232.247, 92.64609
1232.729, 92.72530
1233.211, 92.68491
1233.693, 92.52032
1234.176, 92.44097
1234.658, 92.50831
1235.140, 92.50442
1235.622, 92.39960
1236.104, 92.26445
1236.586, 92.08617
1237.068, 92.02876
1237.550, 92.25093
1238.032, 92.56583
1238.515, 92.63303
1238.997, 92.48483
1239.479, 92.20440
1239.961, 91.85331
1240.443, 91.84886
1240.925, 92.17612
1241.407, 92.59293
1241.889, 92.97700
1242.371, 93.00520
1242.854, 92.38579
1243.336, 91.83618
1243.818, 92.32391
1244.300, 93.04933
1244.782, 93.22942
1245.264, 93.03977
1245.746, 92.55688
1246.228, 91.98579
1246.711, 91.65688
1247.193, 91.62379
1247.675, 91.77173
1248.157, 92.25134
1248.639, 92.51228
1249.121, 92.17477
1249.603, 91.93701
1250.085, 92.15182
1250.568, 92.44904
1251.050, 92.67213
1251.532, 92.73607
1252.014, 92.43884
1252.496, 91.83095
1252.978, 91.49059
1253.460, 91.43554
1253.942, 91.56979
1254.424, 91.90887
1254.906, 92.17827
1255.389, 92.30611
1255.871, 92.33939
1256.353, 92.30515
1256.835, 92.22995
1257.317, 92.11254
1257.799, 92.02174
1258.281, 92.13597
1258.763, 92.35973
1259.246, 92.63083
1259.728, 92.80260
1260.210, 92.39927
1260.692, 91.53704
1261.174, 91.08022
1261.656, 91.41652
1262.138, 91.79121
1262.620, 91.76565
1263.103, 91.73958
1263.585, 91.95982
1264.067, 92.18497
1264.549, 92.23755
1265.031, 92.19842
1265.513, 92.16330
1265.995, 92.14072
1266.477, 92.16323
1266.959, 92.27387
1267.442, 92.18118
1267.924, 91.74290
1268.406, 91.67593
1268.888, 92.17102
1269.370, 92.63504
1269.852, 92.81735
1270.334, 92.79540
1270.816, 92.62536
1271.298, 92.37379
1271.781, 92.14132
1272.263, 91.94936
1272.745, 91.88026
1273.227, 91.89657
1273.709, 91.90228
1274.191, 91.89272
1274.673, 91.90506
1275.155, 91.94946
1275.638, 92.01381
1276.120, 92.12083
1276.602, 92.16718
1277.084, 91.95482
1277.566, 91.83652
1278.048, 92.10416
1278.530, 92.48490
1279.012, 92.91265
1279.495, 93.19248
1279.977, 92.75102
1280.459, 91.69376
1280.941, 91.56062
1281.423, 92.93701
1281.905, 93.33173
##END=



