##NAMES=Vladimirite
##RRUFFID=R100075
##IDEAL CHEMISTRY=Ca_4_(As^5+^O_4_)_2_(As^5+^O_3_OH)&#183;4H_2_O
##LOCALITY=Ait Ahmane vein No. 53, Bou Azzer district, Morroco
##OWNER=RRUFF
##SOURCE=Bob Jenkins
##DESCRIPTION=Sprays of elongated bladed colorless crystals
##STATUS=The identification of this mineral is confirmed by single-crystal X-ray diffraction and chemical analysis.
##URL=rruff.info/R100075
##MEASURED CHEMISTRY=Ca_4.03_(As_0.99_O_3_OH)(AsO_4_)_2_Â·4H_2_O
91.53320, 211.0370
92.01532, 214.2297
92.49744, 214.7737
92.97955, 214.1062
93.46167, 211.6360
93.94379, 209.2421
94.42590, 209.0924
94.90802, 209.4826
95.39014, 208.0350
95.87225, 204.5394
96.35437, 200.4662
96.83649, 196.4569
97.31860, 192.4719
97.80072, 188.3820
98.28284, 183.8212
98.76495, 178.8015
99.24707, 174.3735
99.72919, 171.2604
100.2113, 167.9539
100.6934, 163.5798
101.1755, 158.6318
101.6577, 154.2024
102.1398, 151.2376
102.6219, 149.9866
103.1040, 148.8671
103.5861, 147.3199
104.0682, 146.2368
104.5504, 146.2951
105.0325, 147.5081
105.5146, 149.1936
105.9967, 150.4239
106.4788, 151.0858
106.9609, 151.4783
107.4431, 151.4520
107.9252, 151.2037
108.4073, 150.9295
108.8894, 150.6211
109.3715, 150.4771
109.8536, 150.7909
110.3358, 151.4953
110.8179, 152.6340
111.3000, 154.2734
111.7821, 156.3958
112.2642, 158.9150
112.7463, 162.6522
113.2285, 166.2206
113.7106, 168.2863
114.1927, 168.5336
114.6748, 167.4610
115.1569, 165.4946
115.6390, 162.1337
116.1212, 159.1157
116.6033, 157.1165
117.0854, 155.5824
117.5675, 154.0330
118.0496, 152.2548
118.5317, 150.2312
119.0139, 147.8950
119.4960, 144.5790
119.9781, 141.6642
120.4602, 139.1221
120.9423, 137.1492
121.4244, 136.0878
121.9066, 136.2650
122.3887, 137.7803
122.8708, 139.2077
123.3529, 140.6261
123.8350, 141.9230
124.3171, 143.0117
124.7993, 143.9046
125.2814, 144.7059
125.7635, 145.5626
126.2456, 146.5213
126.7277, 147.0847
127.2098, 147.4792
127.6920, 147.3687
128.1741, 146.3300
128.6562, 144.2312
129.1383, 141.4556
129.6204, 137.9922
130.1025, 133.8996
130.5847, 130.5574
131.0668, 128.8920
131.5489, 128.4973
132.0310, 127.9840
132.5131, 127.0877
132.9952, 125.9314
133.4774, 124.8624
133.9595, 123.8725
134.4416, 122.3343
134.9237, 119.2948
135.4058, 114.4087
135.8879, 110.3483
136.3701, 108.1612
136.8522, 106.6316
137.3343, 105.1424
137.8164, 103.5274
138.2985, 102.0291
138.7806, 101.0994
139.2628, 101.1795
139.7449, 101.0453
140.2270, 100.1692
140.7091, 99.24351
141.1912, 98.92422
141.6733, 99.50679
142.1555, 100.7657
142.6376, 101.9273
143.1197, 103.0506
143.6018, 103.9946
144.0839, 104.5236
144.5660, 104.8838
145.0482, 105.4491
145.5303, 106.4363
146.0124, 107.8149
146.4945, 109.3809
146.9766, 111.5222
147.4587, 113.4293
147.9409, 114.8327
148.4230, 115.7303
148.9051, 116.1525
149.3872, 116.0557
149.8693, 115.4277
150.3514, 114.6124
150.8336, 113.2886
151.3157, 111.9794
151.7978, 111.1439
152.2799, 110.8120
152.7620, 110.7821
153.2441, 110.9998
153.7263, 111.4127
154.2084, 111.9849
154.6905, 112.4988
155.1726, 113.1886
155.6547, 114.6639
156.1368, 117.2444
156.6190, 120.0706
157.1011, 123.0228
157.5832, 125.8606
158.0653, 128.1282
158.5474, 129.5142
159.0295, 130.0426
159.5117, 130.0031
159.9938, 128.7255
160.4759, 127.4997
160.9580, 126.8113
161.4401, 126.5737
161.9222, 126.4733
162.4044, 126.2082
162.8865, 125.7070
163.3686, 125.4647
163.8507, 125.4300
164.3328, 125.6660
164.8149, 126.3755
165.2971, 127.4720
165.7792, 128.6088
166.2613, 129.4224
166.7434, 129.9452
167.2255, 129.9064
167.7076, 129.0480
168.1898, 127.8978
168.6719, 126.9005
169.1540, 126.1187
169.6361, 125.1924
170.1182, 123.5252
170.6003, 120.5608
171.0825, 118.3067
171.5646, 117.0665
172.0467, 116.5028
172.5288, 116.2820
173.0109, 116.3246
173.4930, 116.6093
173.9752, 117.0931
174.4573, 117.6813
174.9394, 118.7223
175.4215, 120.7403
175.9036, 123.2878
176.3857, 125.3184
176.8679, 126.4463
177.3500, 127.0978
177.8321, 127.8747
178.3142, 128.7970
178.7963, 129.6597
179.2784, 130.5382
179.7606, 131.3682
180.2427, 131.5136
180.7248, 130.3262
181.2069, 128.7678
181.6890, 127.7190
182.1711, 127.2536
182.6533, 126.9288
183.1354, 126.3108
183.6175, 125.3591
184.0996, 124.4372
184.5817, 123.6087
185.0638, 122.8480
185.5460, 122.0430
186.0281, 121.1855
186.5102, 120.5699
186.9923, 120.6350
187.4744, 121.5395
187.9565, 122.7533
188.4387, 124.4459
188.9208, 126.2362
189.4029, 128.0565
189.8850, 129.8454
190.3671, 131.2239
190.8492, 131.4232
191.3314, 129.6471
191.8135, 127.8703
192.2956, 126.1085
192.7777, 124.4593
193.2598, 122.9246
193.7419, 121.5212
194.2241, 120.3900
194.7062, 119.8730
195.1883, 120.9193
195.6704, 121.5114
196.1525, 121.0348
196.6346, 120.2658
197.1168, 120.1712
197.5989, 121.1869
198.0810, 122.9378
198.5631, 124.3544
199.0452, 125.2663
199.5273, 126.1019
200.0095, 126.7416
200.4916, 127.3694
200.9737, 128.4308
201.4558, 130.2634
201.9379, 132.3784
202.4200, 133.2932
202.9022, 132.4500
203.3843, 131.6731
203.8664, 131.4506
204.3485, 131.7649
204.8306, 132.6065
205.3127, 134.0556
205.7949, 135.9738
206.2770, 138.1034
206.7591, 140.8506
207.2412, 142.9911
207.7233, 143.6099
208.2054, 142.8904
208.6876, 141.9651
209.1697, 141.3963
209.6518, 140.7197
210.1339, 139.2858
210.6160, 136.9074
211.0981, 134.2584
211.5803, 131.9878
212.0624, 130.1030
212.5445, 127.7924
213.0266, 124.3139
213.5087, 120.5753
213.9908, 117.4058
214.4730, 114.9710
214.9551, 112.9516
215.4372, 111.0291
215.9193, 109.1601
216.4014, 107.6170
216.8836, 106.8358
217.3657, 106.2135
217.8478, 105.3277
218.3299, 104.0782
218.8120, 102.7005
219.2941, 101.4265
219.7763, 100.1311
220.2584, 99.38512
220.7405, 99.79316
221.2226, 100.4354
221.7047, 100.6457
222.1868, 100.2532
222.6690, 99.62781
223.1511, 99.42604
223.6332, 100.0399
224.1153, 100.1560
224.5974, 99.24385
225.0795, 98.13037
225.5617, 97.39953
226.0438, 97.21734
226.5259, 97.36401
227.0080, 97.43015
227.4901, 97.12539
227.9722, 97.31963
228.4544, 98.42306
228.9365, 99.72597
229.4186, 100.5701
229.9007, 100.8082
230.3828, 100.8951
230.8649, 101.6186
231.3471, 103.3476
231.8292, 105.2118
232.3113, 107.4147
232.7934, 109.6187
233.2755, 111.6954
233.7576, 113.5593
234.2398, 115.0008
234.7219, 115.6161
235.2040, 114.7179
235.6861, 114.1623
236.1682, 114.5769
236.6503, 114.9921
237.1325, 114.4916
237.6146, 112.8466
238.0967, 110.4939
238.5788, 107.9892
239.0609, 105.0220
239.5430, 102.7464
240.0252, 101.5145
240.5073, 100.8516
240.9894, 100.3443
241.4715, 99.88999
241.9536, 99.54765
242.4357, 99.43200
242.9179, 99.61520
243.4000, 99.70767
243.8821, 99.52760
244.3642, 99.30727
244.8463, 99.24923
245.3284, 99.38755
245.8106, 99.78956
246.2927, 100.6462
246.7748, 101.9787
247.2569, 103.1866
247.7390, 104.3288
248.2211, 105.2425
248.7033, 105.6499
249.1854, 105.4685
249.6675, 105.1068
250.1496, 105.0461
250.6317, 105.2156
251.1138, 105.0656
251.5960, 104.3152
252.0781, 103.2545
252.5602, 102.1449
253.0423, 100.9647
253.5244, 100.0248
254.0065, 99.90979
254.4887, 100.3106
254.9708, 100.3513
255.4529, 99.41536
255.9350, 98.15835
256.4171, 97.47021
256.8992, 97.41199
257.3813, 97.75926
257.8635, 98.61546
258.3456, 99.75664
258.8277, 100.8471
259.3098, 101.8937
259.7919, 102.7699
260.2740, 103.1650
260.7562, 102.9383
261.2383, 102.8361
261.7204, 103.7181
262.2025, 104.8747
262.6846, 105.3338
263.1667, 104.4641
263.6489, 103.2097
264.1310, 103.0061
264.6131, 104.0942
265.0952, 105.1846
265.5773, 105.7225
266.0594, 105.9584
266.5416, 106.1068
267.0237, 106.2444
267.5058, 106.2599
267.9879, 105.9002
268.4700, 105.0404
268.9521, 104.3948
269.4343, 104.5784
269.9164, 104.8833
270.3985, 104.7052
270.8806, 103.8695
271.3627, 102.8473
271.8448, 102.2782
272.3270, 102.2788
272.8091, 102.1086
273.2912, 101.4900
273.7733, 100.7005
274.2554, 99.92310
274.7375, 99.17849
275.2197, 98.31547
275.7018, 97.01578
276.1839, 95.15314
276.6660, 93.70712
277.1481, 93.30499
277.6302, 93.01792
278.1124, 92.31133
278.5945, 91.19490
279.0766, 90.14369
279.5587, 89.69418
280.0408, 89.92376
280.5229, 90.04205
281.0051, 89.84807
281.4872, 89.68349
281.9693, 89.66637
282.4514, 89.80324
282.9335, 90.05820
283.4156, 90.36238
283.8978, 90.71010
284.3799, 91.37930
284.8620, 92.74012
285.3441, 94.06831
285.8262, 94.85625
286.3083, 95.40569
286.7905, 96.40349
287.2726, 98.42919
287.7547, 101.3602
288.2368, 103.9944
288.7189, 106.2699
289.2010, 108.2760
289.6832, 109.7760
290.1653, 111.0755
290.6474, 112.6538
291.1295, 114.8102
291.6116, 117.3853
292.0938, 119.6902
292.5759, 121.2905
293.0580, 123.2514
293.5401, 125.8270
294.0222, 128.8166
294.5043, 132.1023
294.9865, 135.6544
295.4686, 139.2076
295.9507, 142.0345
296.4328, 143.4600
296.9149, 145.3608
297.3970, 148.3587
297.8792, 151.6330
298.3613, 154.5245
298.8434, 156.8267
299.3255, 158.6636
299.8076, 160.1525
300.2897, 160.9745
300.7719, 162.1877
301.2540, 164.6670
301.7361, 166.9028
302.2182, 167.7079
302.7003, 167.0193
303.1824, 165.8865
303.6646, 165.5803
304.1467, 166.3493
304.6288, 167.0656
305.1109, 168.5029
305.5930, 169.2346
306.0751, 168.1994
306.5573, 165.6942
307.0394, 162.9366
307.5215, 161.0955
308.0036, 160.2644
308.4857, 158.8078
308.9678, 156.0994
309.4500, 153.3464
309.9321, 150.8762
310.4142, 148.6155
310.8963, 146.3097
311.3784, 143.7218
311.8605, 140.9509
312.3427, 138.8319
312.8248, 138.0060
313.3069, 137.1101
313.7890, 135.7728
314.2711, 134.2563
314.7532, 132.8748
315.2354, 131.7864
315.7175, 130.9708
316.1996, 130.4337
316.6817, 130.6237
317.1638, 130.3533
317.6459, 129.1223
318.1281, 127.6295
318.6102, 126.3825
319.0923, 125.5725
319.5744, 125.2641
320.0565, 125.6269
320.5386, 126.9444
321.0208, 128.3065
321.5029, 129.6196
321.9850, 130.9968
322.4671, 132.5766
322.9492, 134.3410
323.4313, 136.0879
323.9135, 137.5417
324.3956, 138.5540
324.8777, 140.0328
325.3598, 142.1697
325.8419, 144.5989
326.3240, 147.4012
326.8062, 150.4205
327.2883, 153.2953
327.7704, 155.6409
328.2525, 157.5285
328.7346, 160.3209
329.2167, 164.9973
329.6989, 169.5462
330.1810, 173.3455
330.6631, 176.7434
331.1452, 180.1818
331.6273, 183.8625
332.1094, 187.8733
332.5916, 192.6341
333.0737, 199.1764
333.5558, 204.6467
334.0379, 207.7086
334.5200, 210.0988
335.0021, 213.4848
335.4843, 218.4038
335.9664, 223.9774
336.4485, 228.7970
336.9306, 232.7065
337.4127, 236.3382
337.8948, 240.1523
338.3770, 243.4314
338.8591, 245.8611
339.3412, 247.3556
339.8233, 247.8284
340.3055, 246.9749
340.7876, 244.6658
341.2697, 242.3723
341.7518, 240.2986
342.2339, 238.0384
342.7160, 234.9548
343.1982, 231.5263
343.6803, 228.8543
344.1624, 227.8006
344.6445, 228.0836
345.1266, 228.3065
345.6087, 228.3990
346.0909, 228.5513
346.5730, 228.3663
347.0551, 228.4109
347.5372, 229.4743
348.0193, 231.9768
348.5014, 235.3258
348.9836, 238.5790
349.4657, 241.7815
349.9478, 244.6825
350.4299, 246.7716
350.9120, 248.8127
351.3941, 251.3505
351.8763, 254.4820
352.3584, 257.9688
352.8405, 261.7760
353.3226, 265.9438
353.8047, 269.4745
354.2868, 271.9227
354.7690, 273.9802
355.2511, 276.1071
355.7332, 278.2677
356.2153, 280.2067
356.6974, 281.9465
357.1795, 283.3654
357.6617, 283.9587
358.1438, 283.6067
358.6259, 282.6246
359.1080, 281.3217
359.5901, 279.5479
360.0722, 276.9566
360.5544, 273.2953
361.0365, 268.9195
361.5186, 264.0425
362.0007, 258.5815
362.4828, 253.4726
362.9649, 249.4535
363.4471, 245.7714
363.9292, 241.4469
364.4113, 236.2183
364.8934, 231.0529
365.3755, 226.5558
365.8576, 222.7156
366.3398, 219.5095
366.8219, 217.0264
367.3040, 215.0483
367.7861, 213.3172
368.2682, 211.8228
368.7503, 210.6253
369.2325, 209.8122
369.7146, 209.2880
370.1967, 209.0046
370.6788, 209.0227
371.1609, 208.8552
371.6430, 207.9181
372.1252, 206.4720
372.6073, 205.4163
373.0894, 205.2205
373.5715, 205.1746
374.0536, 204.5772
374.5357, 203.5543
375.0179, 202.8371
375.5000, 202.7596
375.9821, 203.2543
376.4642, 204.1338
376.9463, 205.4323
377.4284, 206.9495
377.9106, 208.6566
378.3927, 210.5215
378.8748, 212.5437
379.3569, 214.7444
379.8390, 216.9439
380.3211, 218.9849
380.8033, 220.9055
381.2854, 222.3233
381.7675, 222.5400
382.2496, 222.7133
382.7317, 224.0732
383.2138, 226.5005
383.6960, 228.5979
384.1781, 229.2446
384.6602, 228.5549
385.1423, 228.3467
385.6244, 229.2562
386.1065, 229.8425
386.5887, 229.4937
387.0708, 228.5269
387.5529, 227.5781
388.0350, 226.9412
388.5171, 226.2469
388.9992, 224.6999
389.4814, 222.3356
389.9635, 218.8873
390.4456, 213.6329
390.9277, 207.7926
391.4098, 202.2799
391.8919, 197.2643
392.3741, 192.3553
392.8562, 187.1031
393.3383, 181.3482
393.8204, 176.3487
394.3025, 172.2866
394.7846, 168.7220
395.2668, 165.7847
395.7489, 163.1984
396.2310, 160.4890
396.7131, 157.3564
397.1952, 153.9747
397.6773, 150.9092
398.1595, 148.0565
398.6416, 145.7367
399.1237, 144.2288
399.6058, 143.0468
400.0879, 141.8022
400.5700, 140.3958
401.0522, 138.9478
401.5343, 137.6614
402.0164, 136.6305
402.4985, 135.2107
402.9806, 132.6358
403.4627, 130.3824
403.9449, 129.2281
404.4270, 128.9261
404.9091, 128.7811
405.3912, 128.4234
405.8733, 127.8804
406.3554, 127.1541
406.8376, 126.0155
407.3197, 125.2607
407.8018, 125.5505
408.2839, 126.2182
408.7660, 126.6044
409.2481, 126.5378
409.7303, 126.2879
410.2124, 125.8596
410.6945, 125.3130
411.1766, 125.5940
411.6587, 127.1316
412.1408, 129.3139
412.6230, 131.6846
413.1051, 134.2022
413.5872, 136.5382
414.0693, 138.3573
414.5514, 139.9864
415.0335, 141.9359
415.5157, 144.2494
415.9978, 146.6927
416.4799, 148.9745
416.9620, 151.3242
417.4441, 154.3733
417.9262, 158.7291
418.4084, 163.0158
418.8905, 166.3309
419.3726, 168.9601
419.8547, 171.6279
420.3368, 174.5952
420.8189, 177.6610
421.3011, 180.5747
421.7832, 183.4715
422.2653, 185.6598
422.7474, 186.9565
423.2295, 187.5859
423.7116, 187.5344
424.1938, 186.9129
424.6759, 186.2306
425.1580, 185.9173
425.6401, 185.9324
426.1222, 185.4921
426.6043, 184.6859
427.0865, 183.4012
427.5686, 181.4017
428.0507, 178.9634
428.5328, 176.3186
429.0149, 173.5686
429.4970, 170.9958
429.9792, 169.1475
430.4613, 168.5843
430.9434, 167.4978
431.4255, 165.3388
431.9076, 163.2275
432.3897, 162.0894
432.8719, 161.6390
433.3540, 160.7927
433.8361, 158.6578
434.3182, 155.4072
434.8003, 152.2494
435.2824, 149.4047
435.7646, 146.3210
436.2467, 142.5764
436.7288, 138.6997
437.2109, 135.3893
437.6930, 132.8694
438.1751, 130.4716
438.6573, 127.1103
439.1394, 122.6645
439.6215, 119.0208
440.1036, 116.9711
440.5857, 115.1962
441.0678, 112.5784
441.5500, 109.4078
442.0321, 106.8254
442.5142, 105.7873
442.9963, 105.5407
443.4784, 104.6030
443.9605, 102.8586
444.4427, 101.3075
444.9248, 100.3565
445.4069, 99.99122
445.8890, 100.2075
446.3711, 101.2485
446.8532, 102.1916
447.3354, 102.2905
447.8175, 101.9501
448.2996, 102.2145
448.7817, 103.4163
449.2638, 104.5691
449.7459, 104.4289
450.2281, 102.8940
450.7102, 102.0573
451.1923, 102.6876
451.6744, 103.4204
452.1565, 103.4770
452.6386, 102.9187
453.1208, 102.0833
453.6029, 101.1501
454.0850, 99.72937
454.5671, 98.50674
455.0492, 96.23024
455.5313, 93.95829
456.0135, 91.61320
456.4956, 89.33282
456.9777, 87.17831
457.4598, 85.18157
457.9419, 83.34874
458.4240, 81.66626
458.9062, 80.13664
459.3883, 78.86362
459.8704, 77.78989
460.3525, 77.07162
460.8346, 77.03701
461.3167, 77.26750
461.7989, 77.23797
462.2810, 76.74583
462.7631, 76.01051
463.2452, 75.35759
463.7273, 74.80445
464.2094, 74.22305
464.6916, 73.48701
465.1737, 72.82910
465.6558, 72.41684
466.1379, 72.20638
466.6200, 72.01820
467.1021, 71.75424
467.5843, 71.44917
468.0664, 71.26923
468.5485, 71.27803
469.0306, 70.93526
469.5127, 69.90176
469.9948, 68.40278
470.4770, 66.69694
470.9591, 64.58514
471.4412, 63.05709
471.9233, 63.23201
472.4054, 64.17336
472.8875, 64.04504
473.3697, 62.47779
473.8518, 60.56131
474.3339, 59.25106
474.8160, 58.55708
475.2981, 57.73708
475.7802, 56.58332
476.2624, 55.52794
476.7445, 54.89826
477.2266, 54.47826
477.7087, 53.76811
478.1908, 52.55530
478.6729, 51.26586
479.1551, 50.71751
479.6372, 51.45778
480.1193, 51.64957
480.6014, 50.77255
481.0835, 49.88969
481.5656, 49.85662
482.0478, 50.35369
482.5299, 50.30342
483.0120, 48.86401
483.4941, 46.60424
483.9762, 45.86308
484.4583, 47.68189
484.9405, 48.89398
485.4226, 48.32835
485.9047, 47.34689
486.3868, 47.10685
486.8689, 47.70435
487.3510, 48.22395
487.8332, 47.70435
488.3153, 46.39974
488.7974, 45.53549
489.2795, 45.20521
489.7616, 45.19855
490.2437, 45.67966
490.7259, 46.33767
491.2080, 46.68780
491.6901, 46.57906
492.1722, 46.27369
492.6543, 45.91593
493.1364, 45.50908
493.6186, 44.97468
494.1007, 44.21410
494.5828, 43.66659
495.0649, 44.03192
495.5470, 45.44463
496.0291, 46.03309
496.5113, 45.01257
496.9934, 43.82959
497.4755, 43.23060
497.9576, 43.15168
498.4397, 43.43962
498.9218, 44.05248
499.4040, 44.67707
499.8861, 44.55415
500.3682, 42.92144
500.8503, 41.95058
501.3324, 41.97952
501.8145, 42.29504
502.2967, 42.66791
502.7788, 42.95034
503.2609, 42.87368
503.7430, 42.15690
504.2251, 41.04778
504.7072, 40.55472
505.1894, 40.93405
505.6715, 41.34406
506.1536, 41.65978
506.6357, 41.86280
507.1178, 41.90426
507.5999, 41.78584
508.0821, 41.61266
508.5642, 41.62273
509.0463, 41.63610
509.5284, 40.90366
510.0105, 39.13763
510.4926, 37.74012
510.9748, 37.83468
511.4569, 38.86613
511.9390, 39.48943
512.4211, 39.52047
512.9032, 39.34392
513.3853, 39.05161
513.8674, 38.70132
514.3495, 38.39154
514.8317, 38.14164
515.3138, 37.93829
515.7959, 37.78786
516.2780, 37.70126
516.7601, 37.46724
517.2422, 37.00151
517.7244, 36.50702
518.2065, 35.93059
518.6886, 35.40804
519.1707, 35.10653
519.6528, 35.08836
520.1349, 35.33448
520.6171, 35.99532
521.0992, 37.42623
521.5813, 37.81586
522.0634, 35.87642
522.5455, 34.14228
523.0276, 33.61054
523.5098, 33.93399
523.9919, 34.43175
524.4740, 34.86686
524.9561, 35.17141
525.4382, 35.20990
525.9203, 34.97753
526.4025, 34.69304
526.8846, 34.25415
527.3667, 33.98927
527.8488, 34.39315
528.3309, 35.33601
528.8130, 35.96486
529.2952, 35.76918
529.7773, 35.35402
530.2594, 35.33694
530.7415, 35.62345
531.2236, 35.68542
531.7057, 35.23948
532.1879, 34.59303
532.6700, 34.34724
533.1521, 34.72403
533.6342, 35.01598
534.1163, 35.19518
534.5984, 35.29926
535.0806, 35.30186
535.5627, 35.24731
536.0448, 35.20403
536.5269, 35.19588
537.0090, 35.30364
537.4911, 35.86233
537.9733, 37.36047
538.4554, 38.22878
538.9375, 37.79537
539.4196, 37.11378
539.9017, 36.68545
540.3839, 36.58379
540.8660, 36.79807
541.3481, 37.47060
541.8302, 38.37133
542.3123, 38.97963
542.7944, 39.27111
543.2766, 39.49551
543.7587, 39.84449
544.2408, 40.08160
544.7229, 39.74525
545.2050, 38.72521
545.6871, 38.11808
546.1693, 38.70279
546.6514, 39.63879
547.1335, 39.87901
547.6156, 39.47805
548.0977, 39.34292
548.5798, 40.10070
549.0620, 41.40134
549.5441, 42.05883
550.0262, 41.70197
550.5083, 41.14286
550.9904, 39.91475
551.4725, 38.83906
551.9547, 38.75755
552.4368, 39.48519
552.9189, 40.09296
553.4010, 39.85535
553.8831, 38.99926
554.3652, 38.43337
554.8474, 38.23724
555.3295, 38.13801
555.8116, 38.31623
556.2937, 38.39281
556.7758, 37.98478
557.2579, 37.11449
557.7401, 36.29435
558.2222, 35.81416
558.7043, 35.58189
559.1864, 35.55891
559.6685, 35.74493
560.1506, 35.61980
560.6328, 34.80912
561.1149, 33.65159
561.5970, 32.87770
562.0791, 32.54557
562.5612, 32.31850
563.0433, 32.16430
563.5255, 32.06948
564.0076, 32.04219
564.4897, 32.06741
564.9718, 32.12487
565.4539, 32.21887
565.9360, 32.27916
566.4182, 32.04609
566.9003, 31.27265
567.3824, 30.66837
567.8645, 30.32826
568.3466, 30.11004
568.8287, 30.02783
569.3109, 30.00310
569.7930, 29.81011
570.2751, 29.19951
570.7572, 28.44500
571.2393, 28.19711
571.7214, 28.50454
572.2036, 28.73314
572.6857, 28.68091
573.1678, 28.46496
573.6499, 28.10990
574.1320, 27.62038
574.6141, 27.47590
575.0963, 28.25941
575.5784, 29.08197
576.0605, 29.00782
576.5426, 28.27337
577.0247, 27.80165
577.5068, 28.03772
577.9890, 28.58044
578.4711, 28.64421
578.9532, 27.84976
579.4353, 27.55289
579.9174, 28.29596
580.3995, 28.93157
580.8817, 28.80203
581.3638, 28.17161
581.8459, 27.60402
582.3280, 27.36579
582.8101, 27.28863
583.2922, 27.01781
583.7744, 26.51440
584.2565, 26.45809
584.7386, 27.28399
585.2207, 28.08168
585.7029, 28.15069
586.1850, 27.70156
586.6671, 27.24112
587.1492, 26.81330
587.6313, 26.50978
588.1135, 26.35635
588.5956, 26.38090
589.0777, 26.79541
589.5598, 27.66944
590.0419, 28.38680
590.5240, 28.20681
591.0062, 27.07082
591.4883, 26.42576
591.9704, 26.42030
592.4525, 26.65858
592.9346, 27.27703
593.4167, 27.96935
593.8989, 28.37984
594.3810, 28.44238
594.8631, 28.38968
595.3452, 28.42555
595.8273, 28.55246
596.3094, 28.85411
596.7916, 29.52168
597.2737, 29.93033
597.7558, 29.47745
598.2379, 28.79197
598.7200, 28.57535
599.2021, 28.94572
599.6843, 29.34294
600.1664, 29.40067
600.6485, 29.35570
601.1306, 29.68178
601.6127, 30.34105
602.0948, 30.67789
602.5770, 30.25986
603.0591, 29.35693
603.5412, 28.70109
604.0233, 28.22079
604.5054, 28.15205
604.9875, 28.96294
605.4697, 29.76839
605.9518, 29.89528
606.4339, 29.53553
606.9160, 29.32347
607.3981, 29.64094
607.8802, 30.16555
608.3624, 30.12552
608.8445, 29.38302
609.3266, 29.22516
609.8087, 30.28011
610.2908, 31.41056
610.7729, 31.90904
611.2551, 31.82929
611.7372, 31.25364
612.2193, 29.56010
612.7014, 28.18029
613.1835, 28.51976
613.6656, 29.87484
614.1478, 30.69020
614.6299, 30.58055
615.1120, 30.14548
615.5941, 29.96957
616.0762, 30.05392
616.5583, 30.09799
617.0405, 30.15515
617.5226, 30.10414
618.0047, 29.69843
618.4868, 29.31314
618.9689, 29.41754
619.4510, 30.01073
619.9332, 30.57812
620.4153, 30.60344
620.8974, 30.27641
621.3795, 30.35591
621.8616, 30.95566
622.3438, 31.34252
622.8259, 31.11057
623.3080, 30.64945
623.7901, 30.50619
624.2722, 30.69869
624.7543, 30.82545
625.2365, 30.83645
625.7186, 30.69299
626.2007, 30.15983
626.6828, 29.44116
627.1649, 29.18748
627.6470, 29.68326
628.1292, 30.36526
628.6113, 30.24234
629.0934, 28.96676
629.5755, 28.34043
630.0576, 29.08799
630.5397, 29.73208
631.0219, 29.71573
631.5040, 29.38820
631.9861, 29.24373
632.4682, 29.42643
632.9503, 29.74410
633.4324, 30.10466
633.9146, 30.45946
634.3967, 30.67375
634.8788, 30.74578
635.3609, 30.54761
635.8430, 29.82477
636.3251, 28.87833
636.8073, 28.65585
637.2894, 29.52003
637.7715, 30.11942
638.2536, 30.23998
638.7357, 30.03416
639.2178, 29.33288
639.7000, 28.40110
640.1821, 27.91326
640.6642, 28.25551
641.1463, 29.05544
641.6284, 29.50314
642.1105, 29.45718
642.5927, 29.85721
643.0748, 31.36949
643.5569, 32.57499
644.0390, 32.48489
644.5211, 31.59323
645.0032, 30.87080
645.4854, 30.51846
645.9675, 30.43499
646.4496, 30.74149
646.9317, 31.21367
647.4138, 31.34980
647.8959, 31.10656
648.3781, 31.00507
648.8602, 31.50136
649.3423, 32.39170
649.8244, 32.67806
650.3065, 31.47933
650.7886, 31.00803
651.2708, 31.97560
651.7529, 33.11109
652.2350, 33.61683
652.7171, 33.54753
653.1992, 33.32258
653.6813, 33.16477
654.1635, 32.95225
654.6456, 32.28105
655.1277, 31.23414
655.6098, 31.01126
656.0919, 32.12891
656.5740, 33.26509
657.0562, 33.12317
657.5383, 31.91897
658.0204, 31.36905
658.5025, 31.84317
658.9846, 32.51356
659.4667, 33.39217
659.9489, 34.19720
660.4310, 34.57801
660.9131, 34.54425
661.3952, 34.40805
661.8773, 34.41685
662.3594, 34.45984
662.8416, 34.07405
663.3237, 33.02603
663.8058, 32.41631
664.2879, 32.71031
664.7700, 33.22710
665.2521, 33.59989
665.7343, 33.79674
666.2164, 33.70384
666.6985, 32.97470
667.1806, 32.36564
667.6627, 32.56317
668.1448, 33.21970
668.6270, 33.69061
669.1091, 33.84348
669.5912, 33.86518
670.0733, 33.91444
670.5554, 33.97604
671.0375, 33.92846
671.5197, 33.59031
672.0018, 33.44666
672.4839, 33.48843
672.9660, 33.76932
673.4481, 34.70869
673.9302, 35.96177
674.4124, 36.41037
674.8945, 35.10114
675.3766, 33.36010
675.8587, 32.96831
676.3408, 33.64392
676.8229, 34.05558
677.3051, 33.88232
677.7872, 33.65472
678.2693, 33.89738
678.7514, 34.54300
679.2335, 34.80424
679.7156, 34.52016
680.1978, 34.11202
680.6799, 33.33417
681.1620, 32.68180
681.6441, 32.63567
682.1262, 33.12997
682.6083, 33.79317
683.0905, 34.46682
683.5726, 35.00961
684.0547, 34.96442
684.5368, 34.33327
685.0189, 34.37452
685.5010, 35.67873
685.9832, 36.87806
686.4653, 36.50116
686.9474, 34.96363
687.4295, 34.44382
687.9116, 36.00660
688.3937, 37.20125
688.8759, 36.95712
689.3580, 36.24905
689.8401, 35.98300
690.3222, 36.24324
690.8043, 36.79699
691.2864, 37.56090
691.7686, 38.26723
692.2507, 38.08220
692.7328, 36.76926
693.2149, 36.09782
693.6970, 36.54474
694.1791, 37.32959
694.6613, 37.99372
695.1434, 38.58118
695.6255, 39.20717
696.1076, 39.95047
696.5897, 40.60149
697.0718, 41.15367
697.5540, 41.51233
698.0361, 41.45457
698.5182, 41.05082
699.0003, 40.63840
699.4824, 40.40868
699.9645, 40.38805
700.4467, 40.70460
700.9288, 41.50415
701.4109, 42.07909
701.8930, 42.12177
702.3751, 42.26775
702.8572, 42.95376
703.3394, 43.90174
703.8215, 44.66320
704.3036, 45.15365
704.7857, 45.41449
705.2678, 45.32603
705.7499, 45.09505
706.2321, 44.89348
706.7142, 44.79476
707.1963, 45.10375
707.6784, 46.03182
708.1605, 47.13723
708.6426, 47.43174
709.1248, 46.44054
709.6069, 46.34955
710.0890, 48.06457
710.5711, 49.62955
711.0532, 50.28545
711.5353, 50.45277
712.0175, 50.67782
712.4996, 51.07306
712.9817, 51.43505
713.4638, 51.55283
713.9459, 51.61438
714.4280, 52.02205
714.9102, 52.66776
715.3923, 52.87495
715.8744, 52.31311
716.3565, 51.57481
716.8386, 51.57324
717.3207, 52.44894
717.8029, 53.03728
718.2850, 53.06800
718.7671, 53.13366
719.2492, 53.39513
719.7313, 53.73518
720.2134, 54.00214
720.6956, 54.19585
721.1777, 54.50386
721.6598, 55.14594
722.1419, 55.88821
722.6240, 56.39259
723.1061, 56.72200
723.5883, 57.10999
724.0704, 57.62252
724.5525, 58.28080
725.0346, 59.16198
725.5167, 60.25205
725.9988, 61.04139
726.4810, 61.33879
726.9631, 61.60281
727.4452, 61.91763
727.9273, 62.20122
728.4094, 62.18662
728.8915, 62.05287
729.3737, 62.46729
729.8558, 64.00253
730.3379, 65.76028
730.8200, 66.70577
731.3021, 67.11674
731.7842, 67.81042
732.2664, 68.92315
732.7485, 69.98148
733.2306, 70.60612
733.7127, 70.91414
734.1948, 71.35053
734.6769, 71.78382
735.1591, 72.59986
735.6412, 74.24497
736.1233, 75.80934
736.6054, 76.69661
737.0875, 77.20004
737.5696, 77.92964
738.0518, 79.11743
738.5339, 80.30644
739.0160, 81.12939
739.4981, 81.71233
739.9802, 82.13696
740.4623, 82.47940
740.9445, 83.23406
741.4266, 84.67509
741.9087, 86.53572
742.3908, 88.40979
742.8729, 90.46648
743.3550, 91.82003
743.8372, 91.44669
744.3193, 91.59985
744.8014, 93.48724
745.2835, 95.84939
745.7656, 97.14248
746.2477, 97.21978
746.7299, 97.48392
747.2120, 98.93302
747.6941, 100.8047
748.1762, 102.3026
748.6583, 103.4707
749.1404, 104.3883
749.6226, 105.0847
750.1047, 105.8473
750.5868, 107.0088
751.0689, 108.5093
751.5510, 109.7323
752.0331, 110.5573
752.5153, 111.3259
752.9974, 112.1244
753.4795, 112.8588
753.9616, 113.3768
754.4437, 113.7748
754.9258, 114.3643
755.4080, 115.3350
755.8901, 116.3386
756.3722, 117.2029
756.8543, 117.9164
757.3364, 118.3736
757.8185, 118.6232
758.3007, 118.9766
758.7828, 119.6349
759.2649, 120.4167
759.7470, 120.9593
760.2291, 121.2746
760.7112, 121.2897
761.1934, 120.8242
761.6755, 120.3367
762.1576, 120.1668
762.6397, 120.0377
763.1218, 119.6005
763.6039, 118.8119
764.0861, 117.8430
764.5682, 116.5713
765.0503, 115.3082
765.5324, 114.1566
766.0145, 113.2410
766.4966, 112.9493
766.9788, 113.3033
767.4609, 113.5497
767.9430, 112.8903
768.4251, 111.4841
768.9072, 110.0885
769.3893, 108.6872
769.8715, 107.3824
770.3536, 106.0728
770.8357, 105.0507
771.3178, 104.8809
771.7999, 105.3261
772.2820, 105.1368
772.7642, 103.6408
773.2463, 102.3152
773.7284, 101.7285
774.2105, 101.3449
774.6926, 100.5493
775.1747, 99.52283
775.6569, 98.94443
776.1390, 99.16985
776.6211, 99.79668
777.1032, 100.3019
777.5853, 100.7206
778.0674, 101.2378
778.5496, 101.8565
779.0317, 102.6738
779.5138, 103.7714
779.9959, 105.0441
780.4780, 106.2455
780.9601, 107.1990
781.4423, 108.8645
781.9244, 111.7871
782.4065, 114.7183
782.8886, 117.2705
783.3707, 119.6221
783.8528, 121.7497
784.3350, 123.8106
784.8171, 126.5439
785.2992, 130.6583
785.7813, 135.4099
786.2634, 139.9722
786.7455, 144.3632
787.2277, 148.5270
787.7098, 152.4559
788.1919, 156.6316
788.6740, 161.3811
789.1561, 166.6512
789.6382, 172.2024
790.1204, 177.8236
790.6025, 184.1762
791.0846, 192.3455
791.5667, 200.0628
792.0488, 206.1669
792.5309, 211.2731
793.0131, 216.1458
793.4952, 220.7591
793.9773, 226.3804
794.4594, 234.1307
794.9415, 242.6967
795.4236, 251.5396
795.9058, 260.0775
796.3879, 267.0953
796.8700, 272.2863
797.3521, 276.6131
797.8342, 281.0636
798.3163, 285.5457
798.7985, 289.6455
799.2806, 293.4326
799.7627, 296.4627
800.2448, 298.5625
800.7269, 300.0152
801.2090, 301.0271
801.6912, 301.5790
802.1733, 301.7142
802.6554, 301.3413
803.1375, 300.6931
803.6196, 299.8830
804.1017, 298.7489
804.5839, 296.6713
805.0660, 294.2862
805.5481, 292.9832
806.0302, 293.2762
806.5123, 294.0389
806.9944, 293.9578
807.4766, 293.5550
807.9587, 293.9507
808.4408, 295.2019
808.9229, 297.4931
809.4050, 300.9209
809.8871, 305.1622
810.3693, 309.8612
810.8514, 315.0243
811.3335, 320.8146
811.8156, 327.4615
812.2977, 334.3930
812.7798, 341.3871
813.2620, 348.7674
813.7441, 356.8546
814.2262, 365.4683
814.7083, 374.1983
815.1904, 383.1030
815.6725, 391.6927
816.1547, 400.3506
816.6368, 408.1483
817.1189, 413.7015
817.6010, 417.4244
818.0831, 420.7877
818.5652, 424.4180
819.0474, 427.6905
819.5295, 430.0151
820.0116, 431.3085
820.4937, 430.5000
820.9758, 427.2370
821.4579, 423.8773
821.9401, 420.8355
822.4222, 418.5513
822.9043, 417.6794
823.3864, 418.1723
823.8685, 418.4090
824.3506, 416.3396
824.8328, 416.8805
825.3149, 421.8836
825.7970, 428.7509
826.2791, 435.3116
826.7612, 442.2593
827.2433, 451.7499
827.7255, 464.7699
828.2076, 479.1294
828.6897, 493.7412
829.1718, 508.1188
829.6539, 521.6144
830.1360, 534.1146
830.6182, 545.4352
831.1003, 555.4651
831.5824, 564.5074
832.0645, 572.8435
832.5466, 580.5108
833.0287, 587.1469
833.5109, 591.9014
833.9930, 598.1495
834.4751, 607.1560
834.9572, 617.1137
835.4393, 625.9052
835.9214, 634.3811
836.4036, 645.3152
836.8857, 659.4916
837.3678, 674.8694
837.8499, 690.6394
838.3320, 707.6777
838.8141, 726.0657
839.2963, 746.2523
839.7784, 769.6176
840.2605, 796.4030
840.7426, 823.8392
841.2247, 851.7112
841.7068, 877.6684
842.1890, 898.3408
842.6711, 913.2694
843.1532, 919.6469
843.6353, 916.8263
844.1174, 904.1647
844.5995, 880.7460
845.0817, 847.4880
845.5638, 808.4807
846.0459, 760.3525
846.5280, 715.9221
847.0101, 676.0966
847.4922, 640.4454
847.9744, 608.5426
848.4565, 580.6123
848.9386, 556.9487
849.4207, 537.5987
849.9028, 522.5663
850.3849, 512.4229
850.8671, 506.1048
851.3492, 503.5266
851.8313, 504.1074
852.3134, 507.3869
852.7955, 513.1131
853.2776, 520.9782
853.7598, 531.0809
854.2419, 542.5557
854.7240, 555.1058
855.2061, 568.0707
855.6882, 579.7342
856.1703, 589.7346
856.6525, 593.4982
857.1346, 588.5189
857.6167, 575.5390
858.0988, 555.6703
858.5809, 528.3604
859.0630, 497.4441
859.5452, 460.1475
860.0273, 424.2144
860.5094, 391.2794
860.9915, 361.4366
861.4736, 334.7458
861.9557, 311.2614
862.4379, 290.9754
862.9200, 275.2680
863.4021, 260.9190
863.8842, 246.4959
864.3663, 233.3376
864.8484, 222.7459
865.3306, 214.3922
865.8127, 207.0237
866.2948, 200.2159
866.7769, 194.6428
867.2590, 191.2658
867.7411, 189.5544
868.2233, 188.6104
868.7054, 188.3662
869.1875, 188.6543
869.6696, 189.4288
870.1517, 190.5354
870.6339, 191.8805
871.1160, 193.3708
871.5981, 194.5520
872.0802, 195.3088
872.5623, 196.2942
873.0444, 198.2784
873.5266, 199.3291
874.0087, 198.4644
874.4908, 195.8910
874.9729, 192.0644
875.4550, 186.9287
875.9371, 180.8465
876.4193, 173.4446
876.9014, 165.6292
877.3835, 157.6009
877.8656, 149.5460
878.3477, 141.2332
878.8298, 132.9897
879.3120, 125.8397
879.7941, 120.4769
880.2762, 115.9912
880.7583, 111.5637
881.2404, 107.4213
881.7225, 104.0350
882.2047, 101.3464
882.6868, 99.12146
883.1689, 97.24803
883.6510, 95.18143
884.1331, 91.97216
884.6152, 90.14174
885.0974, 88.11105
885.5795, 85.25858
886.0616, 84.11607
886.5437, 81.11217
887.0258, 77.95825
887.5079, 76.04631
887.9901, 75.11204
888.4722, 74.09272
888.9543, 72.99252
889.4364, 71.78942
889.9185, 70.37876
890.4006, 68.99722
890.8828, 67.59847
891.3649, 66.35699
891.8470, 65.67503
892.3291, 65.51248
892.8112, 64.86398
893.2933, 62.85688
893.7755, 60.77740
894.2576, 59.43373
894.7397, 58.47471
895.2218, 57.46405
895.7039, 56.39804
896.1860, 55.51197
896.6682, 54.91369
897.1503, 54.45655
897.6324, 54.06583
898.1145, 53.64915
898.5966, 52.86805
899.0787, 51.75274
899.5609, 50.63645
900.0430, 49.61913
900.5251, 48.67619
901.0072, 47.81553
901.4893, 46.97506
901.9714, 45.78660
902.4536, 44.00285
902.9357, 42.81049
903.4178, 42.56450
903.8999, 42.47620
904.3820, 42.27002
904.8641, 41.89439
905.3463, 41.16433
905.8284, 40.00231
906.3105, 39.17116
906.7926, 39.11198
907.2747, 38.89696
907.7568, 37.99950
908.2390, 37.02549
908.7211, 36.53830
909.2032, 36.45229
909.6853, 36.34911
910.1674, 36.08871
910.6495, 35.76555
911.1317, 35.56480
911.6138, 35.23783
912.0959, 34.30724
912.5780, 33.05529
913.0601, 32.13536
913.5422, 31.72546
914.0244, 31.63362
914.5065, 31.77345
914.9886, 31.98510
915.4707, 31.82413
915.9528, 31.38700
916.4349, 31.44919
916.9171, 32.12580
917.3992, 32.33718
917.8813, 31.40547
918.3634, 30.05129
918.8455, 29.55071
919.3276, 29.98458
919.8098, 29.74716
920.2919, 28.42169
920.7740, 27.51356
921.2561, 27.66662
921.7382, 27.96518
922.2203, 27.56361
922.7025, 26.68341
923.1846, 26.20282
923.6667, 26.29557
924.1488, 26.40167
924.6309, 26.63570
925.1130, 26.68404
925.5952, 26.09261
926.0773, 25.42413
926.5594, 25.52786
927.0415, 26.36137
927.5236, 26.86681
928.0057, 26.41864
928.4879, 25.78702
928.9700, 25.49353
929.4521, 25.27779
929.9342, 24.65021
930.4163, 23.83732
930.8984, 23.57518
931.3806, 24.12119
931.8627, 24.85437
932.3448, 25.24146
932.8269, 25.33248
933.3090, 25.11790
933.7911, 24.68462
934.2733, 24.50764
934.7554, 24.65015
935.2375, 24.46250
935.7196, 23.44888
936.2017, 22.12482
936.6838, 21.66284
937.1660, 22.11542
937.6481, 22.27829
938.1302, 22.03437
938.6123, 22.08407
939.0944, 22.92411
939.5765, 23.55108
940.0587, 22.72470
940.5408, 20.74326
941.0229, 19.83172
941.5050, 20.65784
941.9871, 21.32992
942.4692, 21.93856
942.9514, 22.21696
943.4335, 21.76397
943.9156, 21.08370
944.3977, 20.89450
944.8798, 21.22462
945.3619, 21.29288
945.8441, 20.55408
946.3262, 20.02744
946.8083, 20.22742
947.2904, 20.65389
947.7725, 20.99343
948.2546, 21.18325
948.7368, 21.17333
949.2189, 20.94573
949.7010, 20.67009
950.1831, 20.41755
950.6652, 20.20408
951.1473, 20.10535
951.6295, 20.03161
952.1116, 19.67730
952.5937, 19.13334
953.0758, 19.05071
953.5579, 19.85013
954.0400, 20.83301
954.5222, 20.98256
955.0043, 20.56616
955.4864, 20.44412
955.9685, 20.56890
956.4506, 20.25199
956.9327, 19.29017
957.4149, 18.39883
957.8970, 18.21280
958.3791, 18.57212
958.8612, 19.07361
959.3433, 19.74618
959.8254, 20.11098
960.3076, 20.11659
960.7897, 19.85507
961.2718, 19.23254
961.7539, 18.64261
962.2360, 18.62994
962.7181, 19.16395
963.2003, 19.53660
963.6824, 19.75099
964.1645, 19.78771
964.6466, 19.42077
965.1287, 19.15454
965.6108, 19.39517
966.0930, 19.83966
966.5751, 20.08413
967.0572, 20.12673
967.5393, 19.89036
968.0214, 18.72550
968.5035, 18.13949
968.9857, 19.08074
969.4678, 20.25725
969.9499, 20.82182
970.4320, 20.80045
970.9141, 20.31400
971.3962, 19.30300
971.8784, 18.64588
972.3605, 18.96622
972.8426, 19.54365
973.3247, 20.03591
973.8068, 20.39263
974.2889, 20.57785
974.7711, 20.59266
975.2532, 20.37411
975.7353, 19.81981
976.2174, 19.54351
976.6995, 20.36621
977.1816, 21.61802
977.6638, 22.67762
978.1459, 23.30999
978.6280, 22.65853
979.1101, 20.82296
979.5922, 19.58902
980.0743, 20.32312
980.5565, 21.81011
981.0386, 21.96267
981.5207, 21.20563
982.0028, 21.09473
982.4849, 21.65006
982.9670, 22.31812
983.4492, 22.91521
983.9313, 23.01220
984.4134, 22.09041
984.8955, 20.56373
985.3776, 19.77735
985.8597, 19.75210
986.3419, 19.82096
986.8240, 19.95488
987.3061, 20.04469
987.7882, 20.05239
988.2703, 19.96258
988.7524, 19.73022
989.2346, 19.37832
989.7167, 19.19666
990.1988, 19.33436
990.6809, 19.14507
991.1630, 18.28508
991.6451, 17.64042
992.1273, 17.79388
992.6094, 18.28999
993.0915, 18.45185
993.5736, 18.26016
994.0557, 18.10244
994.5378, 18.27549
995.0200, 18.04050
995.5021, 16.60337
995.9842, 15.51145
996.4663, 16.01694
996.9484, 17.23018
997.4305, 17.64939
997.9127, 17.10714
998.3948, 16.53623
998.8769, 15.74992
999.3590, 15.40474
999.8411, 16.22782
1000.323, 17.08156
1000.805, 16.88710
1001.287, 16.09813
1001.770, 15.79286
1002.252, 16.23019
1002.734, 16.60040
1003.216, 16.31538
1003.698, 16.16190
1004.180, 17.09671
1004.662, 18.03571
1005.144, 17.34796
1005.627, 15.64276
1006.109, 14.98574
1006.591, 16.14210
1007.073, 17.33804
1007.555, 17.25247
1008.037, 16.72242
1008.519, 16.39424
1009.001, 16.25295
1009.483, 16.39199
1009.966, 16.67023
1010.448, 16.51325
1010.930, 15.61942
1011.412, 14.93264
1011.894, 15.86613
1012.376, 17.29258
1012.858, 17.29765
1013.340, 16.37621
1013.823, 15.76895
1014.305, 15.72074
1014.787, 16.08956
1015.269, 16.81602
1015.751, 17.59250
1016.233, 18.13817
1016.715, 18.36263
1017.197, 17.73224
1017.679, 16.49010
1018.162, 15.85025
1018.644, 16.04966
1019.126, 16.49975
1019.608, 16.83431
1020.090, 17.00950
1020.572, 16.87940
1021.054, 16.49875
1021.536, 16.32690
1022.018, 16.35031
1022.501, 15.97071
1022.983, 15.00587
1023.465, 14.28788
1023.947, 14.44481
1024.429, 15.15561
1024.911, 15.85646
1025.393, 16.55783
1025.875, 16.63351
1026.358, 15.98111
1026.840, 15.59085
1027.322, 15.78164
1027.804, 15.99198
1028.286, 15.76461
1028.768, 15.28978
1029.250, 15.03797
1029.732, 15.02592
1030.214, 15.14650
1030.697, 15.48184
1031.179, 15.64581
1031.661, 15.46730
1032.143, 15.27247
1032.625, 15.39753
1033.107, 15.62404
1033.589, 15.23346
1034.071, 13.87733
1034.553, 13.54681
1035.036, 14.85443
1035.518, 15.84740
1036.000, 15.90799
1036.482, 15.68083
1036.964, 15.60880
1037.446, 15.66321
1037.928, 15.81095
1038.410, 16.24870
1038.893, 16.05587
1039.375, 14.33168
1039.857, 13.42636
1040.339, 14.54281
1040.821, 15.98456
1041.303, 16.60659
1041.785, 16.54536
1042.267, 16.05019
1042.750, 14.74976
1043.232, 14.25322
1043.714, 15.40238
1044.196, 16.24009
1044.678, 16.09147
1045.160, 15.69953
1045.642, 15.43142
1046.124, 15.37181
1046.606, 15.80566
1047.089, 17.00239
1047.571, 17.59155
1048.053, 16.89863
1048.535, 16.29824
1049.017, 16.24610
1049.499, 16.34098
1049.981, 16.32866
1050.463, 16.21094
1050.945, 15.99839
1051.428, 15.65994
1051.910, 15.44187
1052.392, 15.48789
1052.874, 15.53139
1053.356, 15.40654
1053.838, 15.32316
1054.320, 15.60412
1054.802, 15.99765
1055.285, 15.94122
1055.767, 15.31280
1056.249, 14.75385
1056.731, 14.19442
1057.213, 14.04850
1057.695, 14.86272
1058.177, 15.77179
1058.659, 16.05306
1059.141, 15.95790
1059.624, 16.07980
1060.106, 16.51996
1060.588, 16.75549
1061.070, 16.65078
1061.552, 16.27002
1062.034, 15.21503
1062.516, 14.29963
1062.998, 14.29544
1063.480, 14.82574
1063.963, 15.24300
1064.445, 15.42941
1064.927, 15.49996
1065.409, 15.34997
1065.891, 15.29054
1066.373, 15.69571
1066.855, 15.99656
1067.337, 15.49746
1067.820, 14.72334
1068.302, 14.59637
1068.784, 15.17845
1069.266, 14.21186
1069.748, 15.96725
1070.230, 16.94781
1070.712, 17.19516
1071.194, 14.51327
1071.677, 15.61386
1072.159, 15.19861
1072.641, 14.72122
1073.123, 16.35420
1073.605, 14.09836
1074.087, 15.69788
1074.569, 15.75841
1075.051, 16.52330
1075.533, 15.76297
1076.016, 15.47370
1076.498, 16.71017
1076.980, 17.10184
1077.462, 16.16593
1077.944, 16.97559
1078.426, 14.66647
1078.908, 15.09413
1079.390, 16.70257
1079.873, 15.84332
1080.355, 16.68087
1080.837, 16.87219
1081.319, 14.12671
1081.801, 16.48863
1082.283, 16.64177
1082.765, 14.52696
1083.247, 16.71388
1083.729, 14.91173
1084.212, 14.53341
1084.694, 15.22666
1085.176, 14.80286
1085.658, 16.14022
1086.140, 15.78093
1086.622, 15.27005
1087.104, 15.42071
1087.586, 13.69678
1088.068, 15.45059
1088.551, 14.82878
1089.033, 15.38785
1089.515, 16.21458
1089.997, 14.99188
1090.479, 15.93886
1090.961, 13.52117
1091.443, 13.91883
1091.925, 14.01332
1092.408, 15.90730
1092.890, 13.50601
1093.372, 13.82545
1093.854, 15.30333
1094.336, 15.16028
1094.818, 15.69495
1095.300, 14.22328
1095.782, 14.63642
1096.265, 14.53000
1096.747, 16.21885
1097.229, 16.49044
1097.711, 15.05282
1098.193, 13.62244
1098.675, 15.44049
1099.157, 14.17965
1099.639, 14.57983
1100.121, 13.26452
1100.604, 13.43038
1101.086, 13.57278
1101.568, 14.47449
1102.050, 14.26476
1102.532, 13.93666
1103.014, 13.74624
1103.496, 13.75608
1103.978, 14.10898
1104.460, 14.68639
1104.943, 15.26711
1105.425, 15.90152
1105.907, 16.04548
1106.389, 15.00347
1106.871, 14.28201
1107.353, 14.61866
1107.835, 15.11414
1108.317, 15.16840
1108.800, 14.94636
1109.282, 14.75706
1109.764, 14.62360
1110.246, 14.47368
1110.728, 13.96864
1111.210, 13.94619
1111.692, 15.19256
1112.174, 16.16516
1112.656, 15.88278
1113.139, 15.08628
1113.621, 14.56699
1114.103, 14.34457
1114.585, 14.47914
1115.067, 15.44114
1115.549, 15.90685
1116.031, 15.57417
1116.513, 15.16865
1116.995, 14.84761
1117.478, 14.61286
1117.960, 14.49524
1118.442, 14.45851
1118.924, 14.38882
1119.406, 14.29213
1119.888, 14.12914
1120.370, 13.80863
1120.852, 13.61517
1121.335, 13.63909
1121.817, 13.75732
1122.299, 13.93507
1122.781, 14.10298
1123.263, 14.09424
1123.745, 13.89992
1124.227, 14.05760
1124.709, 14.76257
1125.192, 15.11728
1125.674, 14.97106
1126.156, 14.51226
1126.638, 13.62174
1127.120, 13.02189
1127.602, 13.77337
1128.084, 15.41431
1128.566, 15.46739
1129.048, 13.66296
1129.531, 12.75350
1130.013, 12.95795
1130.495, 13.42713
1130.977, 13.98210
1131.459, 14.07492
1131.941, 13.12161
1132.423, 11.85129
1132.905, 12.12121
1133.387, 13.77068
1133.870, 14.06620
1134.352, 13.06931
1134.834, 12.49100
1135.316, 12.65973
1135.798, 13.08247
1136.280, 13.50826
1136.762, 13.79336
1137.244, 13.69176
1137.727, 13.36350
1138.209, 13.34351
1138.691, 13.53344
1139.173, 13.53534
1139.655, 13.31083
1140.137, 12.76767
1140.619, 11.93482
1141.101, 11.58029
1141.583, 12.46118
1142.066, 13.71954
1142.548, 13.99749
1143.030, 13.70956
1143.512, 13.81203
1143.994, 14.06251
1144.476, 13.40516
1144.958, 11.94251
1145.440, 11.19533
1145.922, 11.96895
1146.405, 13.01408
1146.887, 13.11799
1147.369, 12.91572
1147.851, 13.10845
1148.333, 13.48570
1148.815, 13.80492
1149.297, 13.99013
1149.779, 13.94620
1150.262, 13.66046
1150.744, 13.26931
1151.226, 12.57164
1151.708, 12.25925
1152.190, 13.27140
1152.672, 14.36511
1153.154, 14.51495
1153.636, 14.03831
1154.119, 13.19655
1154.601, 12.25965
1155.083, 12.04801
1155.565, 13.01538
1156.047, 13.89480
1156.529, 14.41926
1157.011, 14.58048
1157.493, 14.01755
1157.975, 13.42094
1158.458, 13.46382
1158.940, 13.87195
1159.422, 14.02685
1159.904, 13.86250
1160.386, 13.66183
1160.868, 13.32104
1161.350, 13.14239
1161.832, 13.28956
1162.314, 13.43444
1162.797, 13.48957
1163.279, 13.42723
1163.761, 13.13163
1164.243, 12.69928
1164.725, 12.60885
1165.207, 12.99073
1165.689, 13.28365
1166.171, 13.56243
1166.654, 13.47341
1167.136, 12.77702
1167.618, 12.16132
1168.100, 12.07531
1168.582, 12.36610
1169.064, 12.85085
1169.546, 13.46751
1170.028, 13.53342
1170.510, 13.02855
1170.993, 12.86304
1171.475, 13.13710
1171.957, 13.52593
1172.439, 13.91573
1172.921, 14.22299
1173.403, 14.40287
1173.885, 14.34253
1174.367, 13.56244
1174.849, 12.40526
1175.332, 12.07868
1175.814, 12.46788
1176.296, 13.15733
1176.778, 13.94857
1177.260, 14.33035
1177.742, 14.05937
1178.224, 13.57286
1178.706, 13.21995
1179.189, 12.96327
1179.671, 12.81143
1180.153, 12.68567
1180.635, 12.30589
1181.117, 11.90907
1181.599, 12.15287
1182.081, 13.03839
1182.563, 13.77304
1183.046, 13.97245
1183.528, 13.99725
1184.010, 14.11194
1184.492, 14.06100
1184.974, 13.35999
1185.456, 12.66130
1185.938, 12.81060
1186.420, 13.48226
1186.902, 13.78489
1187.385, 13.55935
1187.867, 13.30833
1188.349, 12.97644
1188.831, 12.85743
1189.313, 13.27343
1189.795, 13.59269
1190.277, 13.48078
1190.759, 13.14835
1191.241, 12.71159
1191.724, 12.23929
1192.206, 11.99798
1192.688, 12.00210
1193.170, 12.20149
1193.652, 12.70634
1194.134, 13.08408
1194.616, 13.28831
1195.098, 13.18092
1195.581, 12.59539
1196.063, 11.92513
1196.545, 11.68165
1197.027, 11.84316
1197.509, 12.50763
1197.991, 13.60623
1198.473, 13.83396
1198.955, 13.19280
1199.438, 12.83304
1199.920, 13.05253
1200.402, 13.23428
1200.884, 12.93725
1201.366, 12.76177
1201.848, 13.95261
1202.330, 15.51885
1202.812, 15.40413
1203.294, 14.28857
1203.776, 13.33496
1204.259, 12.75644
1204.741, 12.72070
1205.223, 13.18809
1205.705, 13.55280
1206.187, 13.43945
1206.669, 13.21266
1207.151, 13.07020
1207.633, 12.97350
1208.116, 12.88939
1208.598, 12.83627
1209.080, 12.81461
1209.562, 12.84823
1210.044, 13.06606
1210.526, 13.52785
1211.008, 13.63680
1211.490, 12.68026
1211.973, 12.27033
1212.455, 13.33441
1212.937, 14.21320
1213.419, 14.07682
1213.901, 13.53778
1214.383, 13.04691
1214.865, 12.70815
1215.347, 12.96247
1215.829, 13.98984
1216.312, 14.28476
1216.794, 13.63401
1217.276, 13.37215
1217.758, 13.80664
1218.240, 14.13353
1218.722, 13.95163
1219.204, 13.56103
1219.686, 13.28463
1220.168, 13.07734
1220.651, 12.74114
1221.133, 12.78791
1221.615, 12.47890
1222.097, 12.94536
1222.579, 13.33966
1223.061, 13.55182
1223.543, 13.53079
1224.025, 13.25460
1224.508, 12.97540
1224.990, 12.95942
1225.472, 12.98993
1225.954, 12.91344
1226.436, 12.70875
1226.918, 12.05662
1227.400, 11.42011
1227.882, 11.68919
1228.365, 12.76689
1228.847, 13.70373
1229.329, 14.28196
1229.811, 14.50878
1230.293, 13.99125
1230.775, 13.67846
1231.257, 14.30932
1231.739, 14.77347
1232.221, 14.18446
1232.703, 13.14116
1233.186, 12.31330
1233.668, 11.71756
1234.150, 11.45903
1234.632, 11.52278
1235.114, 12.07889
1235.596, 13.31734
1236.078, 14.11810
1236.560, 14.18830
1237.043, 14.01441
1237.525, 13.85938
1238.007, 13.70867
1238.489, 13.53118
1238.971, 13.35903
1239.453, 13.33649
1239.935, 13.38209
1240.417, 13.18280
1240.900, 12.79559
1241.382, 12.44261
1241.864, 12.19582
1242.346, 12.14470
1242.828, 12.34041
1243.310, 12.52819
1243.792, 12.30667
1244.274, 12.23264
1244.756, 12.97240
1245.239, 13.86364
1245.721, 14.31462
1246.203, 14.44654
1246.685, 14.47192
1247.167, 14.43575
1247.649, 14.37563
1248.131, 14.28309
1248.613, 14.21604
1249.095, 14.12616
1249.578, 14.16419
1250.060, 14.61416
1250.542, 14.75422
1251.024, 14.00575
1251.506, 13.12255
1251.988, 13.06692
1252.470, 13.57685
1252.952, 13.58698
1253.435, 13.07899
1253.917, 12.84006
1254.399, 12.87452
1254.881, 13.00598
1255.363, 13.19563
1255.845, 13.40915
1256.327, 13.63025
1256.809, 13.87325
1257.292, 14.20193
1257.774, 14.43636
1258.256, 14.25664
1258.738, 13.88263
1259.220, 13.52829
1259.702, 13.26838
1260.184, 13.19449
1260.666, 13.29809
1261.148, 13.59921
1261.630, 14.10687
1262.113, 14.29735
1262.595, 13.46963
1263.077, 13.06619
1263.559, 14.01398
1264.041, 14.83699
1264.523, 14.65155
1265.005, 14.17901
1265.487, 13.99753
1265.970, 14.04012
1266.452, 14.21138
1266.934, 14.52017
1267.416, 14.34906
1267.898, 13.61146
1268.380, 13.00018
1268.862, 12.56778
1269.344, 12.59736
1269.827, 13.18583
1270.309, 13.72559
1270.791, 13.75911
1271.273, 13.66785
1271.755, 14.12318
1272.237, 14.72605
1272.719, 14.66873
1273.201, 14.26025
1273.683, 14.03116
1274.166, 13.94022
1274.648, 13.67955
1275.130, 13.27517
1275.612, 13.21226
1276.094, 13.78444
1276.576, 14.20678
1277.058, 14.03389
1277.540, 13.83793
1278.022, 13.88629
1278.505, 13.92998
1278.987, 13.82736
1279.469, 13.60244
1279.951, 13.19144
1280.433, 12.70576
1280.915, 12.61850
1281.397, 12.97116
1281.879, 13.56346
1282.362, 14.48635
1282.844, 14.37157
1283.326, 12.97707
1283.808, 12.24116
1284.290, 12.96727
1284.772, 13.95018
1285.254, 14.21858
1285.736, 13.77630
##END=



