##NAMES=Vlasovite
##RRUFFID=R060913
##IDEAL CHEMISTRY=Na_2_Zr^4+^Si_4_O_11_
##LOCALITY=Kipawa complex, Quebec, Canada
##OWNER=RRUFF
##SOURCE=Royal Ontario Museum
##DESCRIPTION=Honey yellow single crystal fragment
##STATUS=The identification of this mineral has been made only by X-ray diffraction.
##URL=rruff.info/R060913
154.3069, 7685.528
154.7890, 7685.245
155.2712, 7691.099
155.7533, 7707.054
156.2354, 7732.264
156.7175, 7757.329
157.1996, 7781.267
157.6817, 7804.140
158.1639, 7825.984
158.6460, 7847.856
159.1281, 7867.078
159.6102, 7880.530
160.0923, 7887.507
160.5744, 7896.715
161.0566, 7906.015
161.5387, 7919.879
162.0208, 7943.441
162.5029, 7997.264
162.9850, 8046.160
163.4671, 8066.382
163.9493, 8049.830
164.4314, 8039.562
164.9135, 8073.068
165.3956, 8124.912
165.8777, 8153.271
166.3598, 8111.295
166.8420, 8056.850
167.3241, 8034.863
167.8062, 8060.083
168.2883, 8092.073
168.7704, 8107.127
169.2525, 8109.315
169.7346, 8108.343
170.2168, 8102.256
170.6989, 8098.992
171.1810, 8108.251
171.6631, 8137.242
172.1452, 8169.469
172.6273, 8189.964
173.1095, 8200.955
173.5916, 8212.600
174.0737, 8231.684
174.5558, 8255.470
175.0379, 8278.631
175.5201, 8294.946
176.0022, 8315.770
176.4843, 8361.582
176.9664, 8429.106
177.4485, 8491.716
177.9306, 8523.036
178.4128, 8533.903
178.8949, 8548.570
179.3770, 8578.093
179.8591, 8613.635
180.3412, 8638.771
180.8233, 8653.590
181.3055, 8670.354
181.7876, 8701.154
182.2697, 8743.498
182.7518, 8790.388
183.2339, 8843.538
183.7160, 8898.476
184.1982, 8943.909
184.6803, 8979.634
185.1624, 9006.584
185.6445, 9025.416
186.1266, 9036.134
186.6087, 9040.203
187.0908, 9028.256
187.5730, 9008.016
188.0551, 9014.231
188.5372, 9052.316
189.0193, 9099.539
189.5014, 9127.233
189.9835, 9136.150
190.4657, 9136.032
190.9478, 9124.010
191.4299, 9103.497
191.9120, 9100.800
192.3941, 9119.508
192.8762, 9151.123
193.3584, 9184.605
193.8405, 9220.173
194.3226, 9251.677
194.8047, 9275.283
195.2868, 9291.221
195.7689, 9301.964
196.2511, 9306.254
196.7332, 9307.726
197.2153, 9315.531
197.6974, 9330.772
198.1795, 9345.735
198.6616, 9356.945
199.1438, 9364.719
199.6259, 9365.288
200.1080, 9356.799
200.5901, 9341.822
201.0722, 9322.778
201.5543, 9294.438
202.0364, 9281.771
202.5186, 9316.735
203.0007, 9409.654
203.4828, 9463.389
203.9649, 9456.687
204.4470, 9401.622
204.9291, 9350.956
205.4113, 9304.301
205.8934, 9261.196
206.3755, 9220.263
206.8576, 9180.232
207.3397, 9148.530
207.8218, 9129.021
208.3040, 9119.619
208.7861, 9104.403
209.2682, 9081.960
209.7503, 9057.628
210.2324, 9037.101
210.7145, 9022.908
211.1967, 9005.168
211.6788, 8979.759
212.1609, 8947.841
212.6430, 8926.229
213.1251, 8916.572
213.6072, 8915.561
214.0894, 8923.158
214.5715, 8946.406
215.0536, 8957.434
215.5357, 8943.748
216.0178, 8904.398
216.4999, 8888.476
216.9820, 8907.729
217.4642, 8935.365
217.9463, 8938.725
218.4284, 8903.754
218.9105, 8877.636
219.3926, 8875.430
219.8747, 8899.856
220.3569, 8911.052
220.8390, 8900.628
221.3211, 8885.343
221.8032, 8887.707
222.2853, 8918.601
222.7674, 8944.652
223.2496, 8954.248
223.7317, 8943.718
224.2138, 8946.378
224.6959, 8973.176
225.1780, 9004.507
225.6601, 9011.086
226.1423, 8975.862
226.6244, 8948.115
227.1065, 8943.777
227.5886, 8967.804
228.0707, 8991.405
228.5528, 9016.855
229.0350, 9040.237
229.5171, 9053.979
229.9992, 9049.895
230.4813, 9050.396
230.9634, 9064.174
231.4455, 9096.764
231.9276, 9121.171
232.4098, 9134.060
232.8919, 9140.815
233.3740, 9149.454
233.8561, 9158.100
234.3382, 9172.042
234.8203, 9195.563
235.3025, 9234.689
235.7846, 9261.600
236.2667, 9267.996
236.7488, 9266.598
237.2309, 9281.642
237.7130, 9322.183
238.1952, 9364.736
238.6773, 9401.722
239.1594, 9432.225
239.6415, 9459.539
240.1236, 9479.682
240.6057, 9498.791
241.0879, 9530.038
241.5700, 9580.302
242.0521, 9631.347
242.5342, 9673.521
243.0163, 9695.245
243.4984, 9743.198
243.9806, 9832.590
244.4627, 9941.406
244.9448, 10023.00
245.4269, 10059.22
245.9090, 10095.32
246.3911, 10148.05
246.8732, 10221.58
247.3554, 10299.64
247.8375, 10387.26
248.3196, 10476.76
248.8017, 10549.65
249.2838, 10588.04
249.7659, 10637.67
250.2481, 10719.64
250.7302, 10850.40
251.2123, 10966.55
251.6944, 11061.74
252.1765, 11146.00
252.6586, 11241.78
253.1408, 11354.15
253.6229, 11470.95
254.1050, 11586.76
254.5871, 11693.51
255.0692, 11823.70
255.5513, 11986.64
256.0334, 12168.26
256.5156, 12342.98
256.9977, 12507.24
257.4798, 12672.43
257.9619, 12841.61
258.4440, 13015.12
258.9261, 13196.70
259.4083, 13392.68
259.8904, 13594.08
260.3725, 13779.04
260.8546, 13943.58
261.3367, 14102.66
261.8188, 14265.43
262.3010, 14441.66
262.7831, 14587.96
263.2652, 14705.02
263.7473, 14792.15
264.2294, 14849.96
264.7115, 14876.13
265.1937, 14876.78
265.6758, 14852.96
266.1579, 14804.23
266.6400, 14734.08
267.1221, 14636.21
267.6042, 14524.04
268.0864, 14427.38
268.5685, 14355.13
269.0506, 14270.80
269.5327, 14151.55
270.0148, 13987.94
270.4969, 13860.79
270.9791, 13779.73
271.4612, 13723.54
271.9433, 13657.35
272.4254, 13577.03
272.9075, 13503.83
273.3896, 13443.27
273.8718, 13395.11
274.3539, 13373.75
274.8360, 13385.84
275.3181, 13413.81
275.8002, 13422.87
276.2823, 13404.11
276.7645, 13414.00
277.2466, 13484.87
277.7287, 13617.74
278.2108, 13723.53
278.6929, 13792.58
279.1750, 13856.46
279.6572, 13958.24
280.1393, 14099.67
280.6214, 14259.93
281.1035, 14428.43
281.5856, 14606.78
282.0677, 14817.77
282.5499, 15063.45
283.0320, 15335.19
283.5141, 15612.52
283.9962, 15894.29
284.4783, 16228.42
284.9604, 16641.33
285.4425, 17125.42
285.9247, 17616.09
286.4068, 18106.39
286.8889, 18626.30
287.3710, 19202.86
287.8531, 19835.98
288.3352, 20524.59
288.8174, 21275.54
289.2995, 22080.86
289.7816, 22916.68
290.2637, 23766.93
290.7458, 24655.99
291.2279, 25594.69
291.7101, 26584.44
292.1922, 27640.95
292.6743, 28764.40
293.1564, 29948.78
293.6385, 31192.53
294.1206, 32492.14
294.6028, 33789.94
295.0849, 35074.57
295.5670, 36331.84
296.0491, 37527.63
296.5312, 38698.78
297.0133, 39751.74
297.4955, 40562.08
297.9776, 41113.59
298.4597, 41345.98
298.9418, 41198.81
299.4239, 40691.98
299.9060, 39841.25
300.3882, 38583.81
300.8703, 37073.13
301.3524, 35461.82
301.8345, 33762.96
302.3166, 32082.28
302.7987, 30424.42
303.2809, 28838.70
303.7630, 27370.78
304.2451, 26053.16
304.7272, 24844.54
305.2093, 23725.53
305.6914, 22685.98
306.1736, 21757.46
306.6557, 20951.44
307.1378, 20247.65
307.6199, 19626.27
308.1020, 19089.47
308.5841, 18606.30
309.0663, 18155.43
309.5484, 17734.47
310.0305, 17356.50
310.5126, 17014.54
310.9947, 16720.09
311.4768, 16497.18
311.9590, 16365.29
312.4411, 16249.99
312.9232, 16096.87
313.4053, 15929.69
313.8874, 15796.92
314.3695, 15733.08
314.8517, 15696.79
315.3337, 15659.13
315.8159, 15612.53
316.2980, 15589.84
316.7801, 15610.74
317.2622, 15662.90
317.7443, 15729.17
318.2264, 15819.37
318.7086, 15908.79
319.1907, 15978.31
319.6728, 16022.19
320.1549, 16092.30
320.6370, 16210.52
321.1191, 16359.94
321.6013, 16523.77
322.0834, 16699.85
322.5655, 16885.74
323.0476, 17095.74
323.5297, 17330.60
324.0118, 17523.49
324.4940, 17635.02
324.9761, 17715.72
325.4582, 17804.28
325.9403, 17947.81
326.4224, 18051.82
326.9045, 18099.62
327.3867, 18092.91
327.8688, 18060.80
328.3509, 17999.10
328.8330, 17915.48
329.3151, 17814.51
329.7972, 17723.22
330.2794, 17576.23
330.7615, 17349.02
331.2436, 17058.50
331.7257, 16782.11
332.2078, 16525.30
332.6899, 16274.05
333.1721, 16018.96
333.6542, 15749.28
334.1363, 15503.19
334.6184, 15277.78
335.1005, 15076.83
335.5826, 14908.09
336.0648, 14785.77
336.5469, 14666.43
337.0290, 14526.48
337.5111, 14355.04
337.9932, 14212.73
338.4753, 14101.70
338.9575, 14016.64
339.4396, 13947.87
339.9217, 13893.56
340.4038, 13862.59
340.8859, 13864.87
341.3680, 13898.77
341.8502, 13919.45
342.3323, 13922.71
342.8144, 13924.50
343.2965, 13933.92
343.7786, 13951.01
344.2607, 14007.06
344.7429, 14122.62
345.2250, 14282.95
345.7071, 14430.06
346.1892, 14563.64
346.6713, 14708.64
347.1534, 14899.15
347.6355, 15126.74
348.1176, 15350.67
348.5998, 15559.20
349.0819, 15764.28
349.5640, 15986.00
350.0461, 16226.59
350.5282, 16480.14
351.0103, 16759.45
351.4925, 17047.64
351.9746, 17318.21
352.4567, 17567.21
352.9388, 17788.83
353.4209, 17978.52
353.9030, 18135.90
354.3852, 18259.85
354.8673, 18360.52
355.3494, 18423.18
355.8315, 18432.21
356.3136, 18386.39
356.7957, 18289.03
357.2779, 18133.98
357.7600, 17929.87
358.2421, 17694.74
358.7242, 17431.85
359.2063, 17142.03
359.6884, 16814.44
360.1706, 16446.58
360.6527, 16086.66
361.1348, 15749.96
361.6169, 15434.07
362.0990, 15140.53
362.5811, 14878.91
363.0633, 14626.73
363.5454, 14370.56
364.0275, 14112.39
364.5096, 13877.43
364.9917, 13679.56
365.4738, 13502.39
365.9560, 13334.62
366.4381, 13178.93
366.9202, 13030.34
367.4023, 12885.06
367.8844, 12745.38
368.3665, 12619.59
368.8487, 12506.53
369.3308, 12408.85
369.8129, 12330.03
370.2950, 12281.62
370.7771, 12229.38
371.2592, 12172.98
371.7414, 12112.95
372.2235, 12047.44
372.7056, 11966.21
373.1877, 11895.67
373.6698, 11845.41
374.1519, 11817.15
374.6341, 11794.07
375.1162, 11780.74
375.5983, 11766.00
376.0804, 11732.81
376.5625, 11674.45
377.0446, 11628.04
377.5267, 11605.90
378.0089, 11603.65
378.4910, 11596.20
378.9731, 11583.36
379.4552, 11567.45
379.9373, 11550.95
380.4194, 11533.86
380.9016, 11513.25
381.3837, 11486.61
381.8658, 11459.44
382.3479, 11443.73
382.8300, 11439.17
383.3121, 11437.37
383.7943, 11421.01
384.2764, 11403.63
384.7585, 11429.75
385.2406, 11511.85
385.7227, 11600.26
386.2048, 11628.15
386.6870, 11612.86
387.1691, 11602.19
387.6512, 11616.21
388.1333, 11647.71
388.6154, 11695.22
389.0975, 11758.54
389.5797, 11817.39
390.0618, 11851.56
390.5439, 11873.77
391.0260, 11899.33
391.5081, 11928.83
391.9902, 11967.86
392.4724, 12024.90
392.9545, 12097.10
393.4366, 12168.60
393.9187, 12221.00
394.4008, 12277.91
394.8829, 12356.42
395.3651, 12461.34
395.8472, 12585.12
396.3293, 12740.91
396.8114, 12913.97
397.2935, 13072.49
397.7756, 13183.99
398.2578, 13303.78
398.7399, 13451.04
399.2220, 13629.97
399.7041, 13824.94
400.1862, 14037.35
400.6683, 14264.35
401.1505, 14501.40
401.6326, 14735.18
402.1147, 15001.44
402.5968, 15315.87
403.0789, 15676.09
403.5610, 16030.16
404.0432, 16367.21
404.5253, 16716.35
405.0074, 17109.88
405.4895, 17567.89
405.9716, 17987.65
406.4537, 18354.38
406.9359, 18679.37
407.4180, 18981.59
407.9001, 19260.41
408.3822, 19528.38
408.8643, 19778.04
409.3464, 20016.44
409.8285, 20312.79
410.3106, 20676.56
410.7928, 21063.77
411.2749, 21407.29
411.7570, 21723.99
412.2391, 22085.76
412.7212, 22533.93
413.2033, 23043.46
413.6855, 23583.18
414.1676, 24148.38
414.6497, 24701.90
415.1318, 25220.33
415.6139, 25702.27
416.0960, 26140.14
416.5782, 26554.80
417.0603, 26895.11
417.5424, 27142.75
418.0245, 27284.80
418.5066, 27284.65
418.9887, 27128.14
419.4709, 26822.29
419.9530, 26353.00
420.4351, 25701.62
420.9172, 24973.66
421.3993, 24168.53
421.8814, 23324.58
422.3636, 22490.85
422.8457, 21647.00
423.3278, 20846.36
423.8099, 20112.87
424.2920, 19441.25
424.7741, 18813.98
425.2563, 18229.24
425.7384, 17684.83
426.2205, 17189.50
426.7026, 16734.94
427.1847, 16339.84
427.6668, 16020.13
428.1490, 15759.12
428.6311, 15510.45
429.1132, 15264.05
429.5953, 15045.12
430.0774, 14870.99
430.5595, 14744.79
431.0417, 14617.22
431.5238, 14481.89
432.0059, 14360.86
432.4880, 14290.02
432.9701, 14269.62
433.4522, 14251.38
433.9344, 14223.32
434.4165, 14186.54
434.8986, 14129.23
435.3807, 14051.89
435.8628, 14002.33
436.3449, 14040.23
436.8271, 14132.92
437.3092, 14199.80
437.7913, 14215.52
438.2734, 14231.03
438.7555, 14304.48
439.2376, 14420.70
439.7197, 14540.17
440.2018, 14631.22
440.6840, 14724.30
441.1661, 14844.14
441.6482, 14991.67
442.1303, 15158.14
442.6124, 15334.93
443.0945, 15530.51
443.5767, 15751.15
444.0588, 16019.41
444.5409, 16293.05
445.0230, 16546.06
445.5051, 16790.32
445.9872, 17077.98
446.4694, 17442.62
446.9515, 17831.11
447.4336, 18220.04
447.9157, 18600.23
448.3978, 19001.30
448.8799, 19426.49
449.3621, 19869.53
449.8442, 20318.23
450.3263, 20784.78
450.8084, 21229.21
451.2905, 21655.96
451.7726, 22056.70
452.2548, 22369.31
452.7369, 22595.40
453.2190, 22728.49
453.7011, 22766.51
454.1832, 22708.62
454.6653, 22552.22
455.1475, 22292.65
455.6296, 21940.07
456.1117, 21472.95
456.5938, 20906.40
457.0759, 20336.46
457.5580, 19820.59
458.0402, 19340.29
458.5223, 18856.86
459.0044, 18363.73
459.4865, 17895.79
459.9686, 17475.51
460.4507, 17097.54
460.9329, 16743.01
461.4150, 16406.08
461.8971, 16101.98
462.3792, 15846.34
462.8613, 15633.83
463.3434, 15435.19
463.8256, 15243.35
464.3077, 15060.74
464.7898, 14884.77
465.2719, 14710.82
465.7540, 14558.70
466.2361, 14445.88
466.7183, 14350.82
467.2004, 14247.96
467.6825, 14106.25
468.1646, 13990.84
468.6467, 13918.88
469.1288, 13887.85
469.6110, 13849.90
470.0930, 13802.08
470.5752, 13750.96
471.0573, 13697.25
471.5394, 13637.21
472.0215, 13593.12
472.5036, 13571.02
472.9857, 13558.22
473.4679, 13530.02
473.9500, 13485.92
474.4321, 13445.48
474.9142, 13418.12
475.3963, 13400.57
475.8784, 13378.03
476.3606, 13350.39
476.8427, 13334.10
477.3248, 13360.98
477.8069, 13408.18
478.2890, 13424.49
478.7711, 13385.04
479.2533, 13341.81
479.7354, 13348.38
480.2175, 13389.79
480.6996, 13428.97
481.1817, 13430.28
481.6638, 13435.69
482.1460, 13475.54
482.6281, 13553.56
483.1102, 13636.18
483.5923, 13719.06
484.0744, 13796.62
484.5565, 13864.32
485.0387, 13905.12
485.5208, 13952.62
486.0029, 14012.01
486.4850, 14080.85
486.9671, 14153.57
487.4492, 14236.01
487.9314, 14313.47
488.4135, 14379.88
488.8956, 14433.35
489.3777, 14488.71
489.8598, 14548.36
490.3419, 14608.02
490.8241, 14667.27
491.3062, 14727.82
491.7883, 14770.56
492.2704, 14784.69
492.7525, 14786.27
493.2346, 14825.64
493.7168, 14898.91
494.1989, 14952.13
494.6810, 14941.56
495.1631, 14888.72
495.6452, 14837.67
496.1273, 14793.46
496.6095, 14735.07
497.0916, 14634.49
497.5737, 14511.15
498.0558, 14393.28
498.5379, 14297.61
499.0201, 14205.40
499.5022, 14107.35
499.9843, 14004.57
500.4664, 13904.15
500.9485, 13808.12
501.4306, 13716.78
501.9127, 13630.70
502.3948, 13548.54
502.8770, 13476.46
503.3591, 13421.70
503.8412, 13374.48
504.3233, 13323.48
504.8054, 13263.25
505.2875, 13207.84
505.7697, 13155.80
506.2518, 13109.24
506.7339, 13087.68
507.2160, 13101.17
507.6981, 13106.23
508.1802, 13064.71
508.6624, 12979.84
509.1445, 12937.01
509.6266, 12943.66
510.1087, 12973.78
510.5908, 13000.48
511.0729, 13024.91
511.5551, 13051.80
512.0372, 13088.45
512.5193, 13122.91
513.0014, 13125.65
513.4835, 13107.18
513.9656, 13113.06
514.4478, 13190.42
514.9299, 13291.05
515.4120, 13374.11
515.8941, 13430.63
516.3762, 13487.25
516.8583, 13552.71
517.3405, 13623.88
517.8226, 13697.16
518.3047, 13765.11
518.7868, 13842.26
519.2689, 13928.58
519.7510, 14025.36
520.2332, 14140.92
520.7153, 14278.50
521.1974, 14426.36
521.6795, 14576.99
522.1616, 14727.11
522.6437, 14903.00
523.1259, 15107.15
523.6080, 15328.69
524.0901, 15553.33
524.5722, 15783.05
525.0543, 16025.98
525.5364, 16286.05
526.0186, 16563.27
526.5007, 16858.20
526.9828, 17168.63
527.4649, 17497.68
527.9470, 17837.41
528.4291, 18198.79
528.9113, 18612.72
529.3934, 19078.34
529.8755, 19570.26
530.3576, 20071.54
530.8397, 20587.66
531.3218, 21134.01
531.8040, 21723.98
532.2861, 22328.47
532.7682, 22925.70
533.2503, 23526.71
533.7324, 24135.72
534.2145, 24825.34
534.6967, 25458.11
535.1788, 26014.85
535.6609, 26497.07
536.1430, 26860.01
536.6251, 27117.33
537.1072, 27228.27
537.5894, 27149.48
538.0715, 26872.61
538.5536, 26458.06
539.0357, 25895.05
539.5178, 25229.57
539.9999, 24508.71
540.4821, 23744.13
540.9642, 22984.06
541.4463, 22222.76
541.9284, 21484.07
542.4105, 20808.00
542.8926, 20195.83
543.3748, 19629.99
543.8569, 19112.19
544.3390, 18635.82
544.8211, 18187.52
545.3032, 17758.78
545.7853, 17363.29
546.2675, 17013.42
546.7495, 16698.96
547.2316, 16405.31
547.7137, 16130.58
548.1959, 15875.97
548.6780, 15633.14
549.1601, 15405.49
549.6422, 15214.09
550.1243, 15077.12
550.6064, 14953.54
551.0886, 14825.35
551.5707, 14691.46
552.0528, 14556.44
552.5349, 14418.51
553.0170, 14286.04
553.4991, 14168.28
553.9813, 14065.17
554.4634, 13978.63
554.9455, 13914.48
555.4276, 13859.14
555.9097, 13787.75
556.3918, 13703.75
556.8740, 13621.32
557.3561, 13542.63
557.8382, 13473.36
558.3203, 13424.56
558.8024, 13396.80
559.2845, 13367.38
559.7667, 13317.52
560.2488, 13263.56
560.7309, 13219.45
561.2130, 13194.69
561.6951, 13169.66
562.1772, 13133.85
562.6594, 13096.24
563.1415, 13075.32
563.6236, 13093.13
564.1057, 13094.29
564.5878, 13058.41
565.0699, 12990.85
565.5521, 12945.45
566.0342, 12925.87
566.5163, 12917.04
566.9984, 12909.75
567.4805, 12904.24
567.9626, 12904.27
568.4448, 12910.94
568.9269, 12919.12
569.4090, 12929.72
569.8911, 12937.49
570.3732, 12927.35
570.8553, 12885.51
571.3375, 12835.43
571.8196, 12792.50
572.3017, 12758.61
572.7838, 12741.35
573.2659, 12764.90
573.7480, 12788.27
574.2302, 12783.77
574.7123, 12745.18
575.1944, 12722.21
575.6765, 12736.27
576.1586, 12759.96
576.6407, 12775.26
577.1229, 12776.53
577.6050, 12782.53
578.0871, 12798.74
578.5692, 12815.95
579.0513, 12815.75
579.5334, 12795.79
580.0156, 12773.94
580.4977, 12745.40
580.9798, 12724.31
581.4619, 12762.32
581.9440, 12855.66
582.4261, 12954.24
582.9083, 13033.87
583.3904, 13092.13
583.8725, 13118.81
584.3546, 13109.90
584.8367, 13103.66
585.3188, 13123.37
585.8010, 13160.25
586.2831, 13204.88
586.7652, 13259.24
587.2473, 13315.16
587.7294, 13365.51
588.2115, 13416.32
588.6937, 13482.64
589.1758, 13570.20
589.6579, 13666.12
590.1400, 13769.68
590.6221, 13880.35
591.1042, 13987.49
591.5864, 14088.51
592.0685, 14190.80
592.5506, 14295.79
593.0327, 14404.44
593.5148, 14528.72
593.9969, 14670.38
594.4791, 14825.86
594.9612, 14995.59
595.4433, 15176.33
595.9254, 15358.93
596.4075, 15540.43
596.8896, 15723.95
597.3718, 15911.45
597.8539, 16101.90
598.3360, 16290.90
598.8181, 16492.42
599.3002, 16678.56
599.7823, 16838.68
600.2645, 16973.01
600.7466, 17080.54
601.2287, 17178.88
601.7108, 17233.50
602.1929, 17223.73
602.6750, 17139.82
603.1572, 17016.64
603.6393, 16844.84
604.1214, 16647.82
604.6035, 16449.20
605.0856, 16248.15
605.5677, 16050.42
606.0499, 15857.50
606.5320, 15664.28
607.0141, 15455.25
607.4962, 15236.19
607.9783, 15025.01
608.4604, 14830.99
608.9425, 14651.76
609.4246, 14487.87
609.9067, 14337.96
610.3889, 14204.07
610.8710, 14097.88
611.3531, 14000.14
611.8352, 13897.34
612.3173, 13777.00
612.7994, 13674.37
613.2816, 13592.57
613.7637, 13527.00
614.2458, 13475.75
614.7279, 13447.97
615.2100, 13405.58
615.6921, 13337.48
616.1743, 13256.78
616.6564, 13198.66
617.1385, 13162.89
617.6206, 13129.64
618.1027, 13087.23
618.5848, 13041.63
619.0670, 13003.60
619.5491, 12972.62
620.0312, 12944.36
620.5133, 12914.04
620.9954, 12885.50
621.4775, 12863.21
621.9597, 12849.24
622.4418, 12833.93
622.9239, 12814.27
623.4060, 12791.21
623.8881, 12765.26
624.3702, 12729.84
624.8524, 12700.65
625.3345, 12677.44
625.8166, 12661.38
626.2987, 12657.89
626.7808, 12670.98
627.2629, 12679.45
627.7451, 12674.25
628.2272, 12660.12
628.7093, 12659.79
629.1914, 12672.43
629.6735, 12670.89
630.1556, 12620.75
630.6378, 12551.61
631.1199, 12509.58
631.6020, 12499.30
632.0841, 12492.64
632.5662, 12468.67
633.0483, 12441.34
633.5305, 12423.74
634.0126, 12421.58
634.4947, 12425.44
634.9768, 12434.12
635.4589, 12447.89
635.9410, 12469.05
636.4232, 12512.79
636.9053, 12532.38
637.3874, 12509.50
637.8695, 12459.57
638.3516, 12437.47
638.8337, 12444.87
639.3159, 12458.23
639.7980, 12473.59
640.2801, 12485.08
640.7622, 12468.53
641.2443, 12425.32
641.7264, 12387.02
642.2086, 12376.79
642.6907, 12384.44
643.1728, 12403.62
643.6549, 12438.66
644.1370, 12463.14
644.6191, 12459.27
645.1013, 12443.12
645.5834, 12431.39
646.0655, 12424.86
646.5476, 12424.68
647.0297, 12429.65
647.5118, 12441.26
647.9940, 12466.93
648.4761, 12513.88
648.9582, 12543.84
649.4403, 12539.60
649.9224, 12512.19
650.4045, 12496.19
650.8867, 12490.84
651.3688, 12489.61
651.8509, 12485.96
652.3330, 12484.99
652.8151, 12499.37
653.2972, 12529.24
653.7794, 12550.54
654.2615, 12547.27
654.7436, 12530.98
655.2257, 12508.23
655.7078, 12467.71
656.1899, 12448.52
656.6721, 12478.88
657.1542, 12520.40
657.6363, 12532.36
658.1184, 12505.42
658.6005, 12473.05
659.0826, 12433.82
659.5648, 12397.60
660.0469, 12390.07
660.5290, 12410.28
661.0111, 12432.52
661.4932, 12448.35
661.9753, 12458.48
662.4575, 12463.65
662.9396, 12464.21
663.4217, 12460.82
663.9038, 12451.79
664.3859, 12441.07
664.8680, 12428.26
665.3502, 12412.65
665.8323, 12410.34
666.3144, 12432.60
666.7965, 12464.10
667.2786, 12496.14
667.7607, 12533.02
668.2429, 12557.17
668.7250, 12564.29
669.2071, 12563.24
669.6892, 12562.72
670.1713, 12562.26
670.6534, 12566.83
671.1355, 12580.88
671.6176, 12591.62
672.0997, 12573.62
672.5818, 12536.27
673.0640, 12504.87
673.5461, 12501.17
674.0282, 12499.13
674.5103, 12478.84
674.9924, 12445.34
675.4745, 12415.56
675.9567, 12387.98
676.4388, 12373.20
676.9209, 12380.50
677.4030, 12410.10
677.8851, 12435.62
678.3672, 12459.48
678.8494, 12474.35
679.3315, 12472.35
679.8136, 12453.05
680.2957, 12432.55
680.7778, 12408.91
681.2599, 12397.27
681.7421, 12425.59
682.2242, 12475.71
682.7063, 12508.33
683.1884, 12512.71
683.6705, 12506.55
684.1526, 12494.61
684.6348, 12482.62
685.1169, 12478.37
685.5990, 12485.86
686.0811, 12499.72
686.5632, 12527.81
687.0453, 12560.96
687.5275, 12578.56
688.0096, 12576.52
688.4917, 12568.59
688.9738, 12555.95
689.4559, 12541.29
689.9380, 12535.82
690.4202, 12539.44
690.9023, 12546.40
691.3844, 12553.60
691.8665, 12561.32
692.3486, 12574.53
692.8307, 12592.27
693.3129, 12598.01
693.7950, 12563.59
694.2771, 12524.74
694.7592, 12510.23
695.2413, 12529.58
695.7234, 12552.41
696.2056, 12585.37
696.6877, 12611.60
697.1698, 12616.55
697.6519, 12593.86
698.1340, 12569.94
698.6161, 12543.40
699.0983, 12522.87
699.5804, 12526.52
700.0625, 12550.52
700.5446, 12567.02
701.0267, 12564.21
701.5089, 12559.14
701.9910, 12576.37
702.4731, 12606.82
702.9552, 12629.64
703.4373, 12628.61
703.9194, 12624.82
704.4016, 12632.20
704.8837, 12646.62
705.3658, 12644.00
705.8479, 12602.06
706.3300, 12570.13
706.8121, 12568.11
707.2943, 12593.52
707.7764, 12598.44
708.2585, 12578.13
708.7406, 12564.63
709.2227, 12593.46
709.7048, 12646.13
710.1870, 12662.68
710.6691, 12639.80
711.1512, 12611.99
711.6333, 12604.82
712.1154, 12606.73
712.5975, 12605.12
713.0797, 12595.29
713.5618, 12590.10
714.0439, 12597.12
714.5260, 12608.37
715.0081, 12615.99
715.4902, 12617.93
715.9724, 12618.73
716.4545, 12615.43
716.9366, 12614.90
717.4187, 12630.21
717.9008, 12660.82
718.3829, 12693.11
718.8651, 12728.30
719.3472, 12755.76
719.8293, 12755.65
720.3114, 12736.44
720.7935, 12719.78
721.2756, 12715.10
721.7578, 12716.44
722.2399, 12718.57
722.7220, 12723.54
723.2041, 12740.64
723.6862, 12792.39
724.1683, 12830.62
724.6505, 12834.68
725.1326, 12808.74
725.6147, 12809.15
726.0968, 12842.52
726.5789, 12869.97
727.0610, 12854.47
727.5432, 12814.60
728.0253, 12818.48
728.5074, 12865.89
728.9895, 12908.66
729.4716, 12900.10
729.9537, 12874.79
730.4359, 12867.36
730.9180, 12885.34
731.4001, 12906.22
731.8822, 12928.88
732.3643, 12948.77
732.8464, 12961.37
733.3285, 12958.35
733.8106, 12969.26
734.2927, 12999.27
734.7748, 13034.46
735.2570, 13058.29
735.7391, 13071.53
736.2212, 13080.96
736.7033, 13086.15
737.1854, 13093.01
737.6675, 13110.49
738.1497, 13134.32
738.6318, 13157.13
739.1139, 13178.83
739.5960, 13196.62
740.0781, 13216.02
740.5602, 13230.81
741.0424, 13224.46
741.5245, 13179.50
742.0066, 13142.03
742.4887, 13122.43
742.9708, 13116.30
743.4529, 13110.90
743.9351, 13106.01
744.4172, 13098.36
744.8993, 13083.98
745.3814, 13066.38
745.8635, 13050.52
746.3456, 13036.52
746.8278, 13026.67
747.3099, 13028.08
747.7920, 13028.94
748.2741, 13024.34
748.7562, 13013.86
749.2383, 12991.48
749.7205, 12950.40
750.2026, 12905.52
750.6847, 12861.95
751.1668, 12819.47
751.6489, 12787.70
752.1310, 12767.47
752.6132, 12755.28
753.0953, 12748.88
753.5774, 12748.40
754.0595, 12751.31
754.5416, 12756.71
755.0237, 12776.65
755.5059, 12846.45
755.9880, 12919.32
756.4701, 12947.27
756.9522, 12900.65
757.4343, 12864.37
757.9164, 12861.03
758.3986, 12866.96
758.8807, 12863.04
759.3628, 12845.59
759.8449, 12834.43
760.3270, 12833.00
760.8091, 12834.47
761.2913, 12828.01
761.7734, 12816.98
762.2555, 12813.36
762.7376, 12823.06
763.2197, 12833.98
763.7018, 12837.65
764.1840, 12835.18
764.6661, 12827.95
765.1482, 12809.05
765.6303, 12794.01
766.1124, 12784.31
766.5945, 12780.05
767.0767, 12783.54
767.5588, 12797.83
768.0409, 12805.28
768.5230, 12795.10
769.0051, 12783.70
769.4872, 12818.33
769.9694, 12888.33
770.4515, 12937.33
770.9336, 12926.64
771.4157, 12898.11
771.8978, 12889.11
772.3799, 12893.72
772.8621, 12894.83
773.3442, 12873.57
773.8263, 12862.96
774.3084, 12883.69
774.7905, 12926.15
775.2726, 12940.96
775.7548, 12918.74
776.2369, 12899.94
776.7190, 12904.36
777.2011, 12924.32
777.6832, 12932.32
778.1653, 12929.69
778.6475, 12926.42
779.1296, 12925.20
779.6117, 12928.57
780.0938, 12947.19
780.5759, 12977.87
781.0580, 12987.93
781.5402, 12936.38
782.0223, 12890.69
782.5044, 12886.59
782.9865, 12925.93
783.4686, 12936.82
783.9507, 12909.25
784.4329, 12884.06
784.9150, 12890.63
785.3971, 12921.78
785.8792, 12950.17
786.3613, 12975.46
786.8434, 12995.05
787.3256, 13003.32
787.8077, 13007.40
788.2898, 13015.65
788.7719, 13030.44
789.2540, 13037.32
789.7361, 13020.21
790.2183, 13004.38
790.7004, 13005.20
791.1825, 13026.53
791.6646, 13043.53
792.1467, 13054.61
792.6288, 13065.59
793.1110, 13086.97
793.5930, 13112.12
794.0751, 13119.33
794.5573, 13104.71
795.0394, 13087.96
795.5215, 13079.42
796.0036, 13079.41
796.4857, 13091.06
796.9678, 13125.27
797.4500, 13144.52
797.9321, 13135.43
798.4142, 13119.55
798.8963, 13115.42
799.3784, 13125.62
799.8605, 13132.59
800.3427, 13135.58
800.8248, 13134.69
801.3069, 13125.63
801.7890, 13113.22
802.2711, 13109.57
802.7532, 13119.12
803.2354, 13129.08
803.7175, 13126.20
804.1996, 13122.13
804.6817, 13129.42
805.1638, 13169.88
805.6459, 13191.79
806.1281, 13188.58
806.6102, 13173.48
807.0923, 13157.29
807.5744, 13139.80
808.0565, 13143.85
808.5386, 13176.30
809.0208, 13217.16
809.5029, 13240.58
809.9850, 13255.12
810.4671, 13276.73
810.9492, 13314.05
811.4313, 13350.10
811.9135, 13377.42
812.3956, 13399.44
812.8777, 13420.68
813.3598, 13441.28
813.8419, 13461.73
814.3240, 13484.47
814.8062, 13503.46
815.2883, 13501.33
815.7704, 13483.36
816.2525, 13487.53
816.7346, 13524.97
817.2167, 13580.25
817.6989, 13648.11
818.1810, 13720.59
818.6631, 13785.38
819.1452, 13830.08
819.6273, 13879.48
820.1094, 13942.97
820.5916, 14011.92
821.0737, 14072.74
821.5558, 14118.64
822.0379, 14185.32
822.5200, 14283.38
823.0021, 14391.36
823.4843, 14489.26
823.9664, 14570.77
824.4485, 14616.52
824.9306, 14606.03
825.4127, 14585.66
825.8948, 14600.20
826.3770, 14621.24
826.8591, 14607.02
827.3412, 14531.91
827.8233, 14440.18
828.3054, 14326.86
828.7875, 14205.57
829.2697, 14100.32
829.7518, 14010.23
830.2339, 13925.56
830.7160, 13842.10
831.1981, 13765.50
831.6802, 13709.17
832.1624, 13663.46
832.6445, 13610.14
833.1266, 13524.75
833.6087, 13458.35
834.0908, 13438.17
834.5729, 13445.38
835.0551, 13451.38
835.5372, 13459.13
836.0193, 13457.84
836.5014, 13445.70
836.9835, 13424.96
837.4656, 13394.38
837.9478, 13357.51
838.4299, 13329.02
838.9120, 13313.34
839.3941, 13304.71
839.8762, 13302.21
840.3583, 13302.28
840.8405, 13300.03
841.3226, 13296.85
841.8047, 13286.73
842.2868, 13260.59
842.7689, 13234.67
843.2510, 13234.87
843.7332, 13263.58
844.2153, 13283.66
844.6974, 13287.01
845.1795, 13286.75
845.6616, 13305.08
846.1437, 13330.70
846.6259, 13340.24
847.1080, 13314.30
847.5901, 13300.05
848.0722, 13344.11
848.5543, 13397.37
849.0364, 13397.61
849.5186, 13312.53
850.0007, 13257.70
850.4828, 13247.82
850.9649, 13252.86
851.4470, 13224.78
851.9291, 13176.70
852.4113, 13167.72
852.8934, 13215.67
853.3755, 13268.34
853.8576, 13288.06
854.3397, 13287.28
854.8218, 13278.19
855.3040, 13251.37
855.7860, 13240.90
856.2681, 13256.69
856.7502, 13280.18
857.2324, 13292.44
857.7145, 13292.60
858.1966, 13303.68
858.6787, 13328.45
859.1608, 13356.56
859.6429, 13377.62
860.1251, 13395.14
860.6072, 13418.86
861.0893, 13455.23
861.5714, 13472.33
862.0535, 13429.55
862.5356, 13384.65
863.0178, 13383.77
863.4999, 13443.18
863.9820, 13476.04
864.4641, 13475.45
864.9462, 13471.06
865.4283, 13495.12
865.9105, 13534.69
866.3926, 13556.92
866.8747, 13559.09
867.3568, 13551.93
867.8389, 13527.93
868.3210, 13508.64
868.8032, 13513.01
869.2853, 13549.67
869.7674, 13575.04
870.2495, 13584.32
870.7316, 13591.54
871.2137, 13605.38
871.6959, 13625.01
872.1780, 13644.16
872.6601, 13662.72
873.1422, 13677.04
873.6243, 13677.91
874.1064, 13677.84
874.5886, 13694.19
875.0707, 13725.95
875.5528, 13741.39
876.0349, 13701.46
876.5170, 13679.18
876.9991, 13704.54
877.4813, 13771.18
877.9634, 13826.37
878.4455, 13869.92
878.9276, 13905.76
879.4097, 13942.86
879.8918, 13969.40
880.3740, 13956.22
880.8561, 13914.82
881.3382, 13888.88
881.8203, 13909.28
882.3024, 13935.54
882.7845, 13950.96
883.2667, 13960.28
883.7488, 13982.39
884.2309, 14020.93
884.7130, 14054.53
885.1951, 14076.24
885.6772, 14089.10
886.1594, 14091.70
886.6415, 14090.17
887.1236, 14102.08
887.6057, 14143.03
888.0878, 14191.01
888.5699, 14248.94
889.0521, 14303.94
889.5342, 14327.76
890.0163, 14298.22
890.4984, 14291.20
890.9805, 14319.90
891.4626, 14370.28
891.9448, 14426.34
892.4269, 14484.58
892.9090, 14535.13
893.3911, 14576.85
893.8732, 14605.07
894.3553, 14593.41
894.8375, 14576.15
895.3196, 14594.55
895.8017, 14694.74
896.2838, 14766.04
896.7659, 14803.68
897.2480, 14820.41
897.7302, 14825.65
898.2123, 14821.06
898.6944, 14816.38
899.1765, 14812.33
899.6586, 14816.22
900.1407, 14843.99
900.6229, 14877.92
901.1050, 14895.75
901.5871, 14887.24
902.0692, 14902.64
902.5513, 14963.35
903.0334, 15027.84
903.5156, 15071.09
903.9977, 15093.74
904.4798, 15119.31
904.9619, 15147.66
905.4440, 15173.62
905.9261, 15186.69
906.4083, 15199.50
906.8904, 15225.81
907.3725, 15265.54
907.8546, 15311.20
908.3367, 15372.95
908.8188, 15425.94
909.3010, 15455.23
909.7831, 15468.22
910.2652, 15505.55
910.7473, 15567.83
911.2294, 15637.08
911.7115, 15716.51
912.1937, 15788.44
912.6758, 15812.73
913.1579, 15809.86
913.6400, 15833.53
914.1221, 15926.53
914.6042, 16020.58
915.0864, 16100.40
915.5685, 16170.03
916.0506, 16236.60
916.5327, 16300.52
917.0148, 16362.29
917.4969, 16423.80
917.9790, 16480.71
918.4611, 16510.99
918.9432, 16537.08
919.4254, 16598.91
919.9075, 16715.88
920.3896, 16852.90
920.8717, 17019.12
921.3538, 17186.35
921.8359, 17323.81
922.3181, 17424.31
922.8002, 17537.52
923.2823, 17667.02
923.7644, 17797.92
924.2465, 17898.92
924.7286, 17994.35
925.2108, 18127.72
925.6929, 18305.57
926.1750, 18482.01
926.6571, 18632.27
927.1392, 18782.08
927.6213, 18949.14
928.1035, 19130.89
928.5856, 19305.06
929.0677, 19471.46
929.5498, 19637.25
930.0319, 19799.31
930.5140, 19969.17
930.9962, 20178.12
931.4783, 20420.20
931.9604, 20658.39
932.4425, 20857.72
932.9246, 21076.33
933.4067, 21343.35
933.8889, 21645.72
934.3710, 21960.63
934.8531, 22283.87
935.3352, 22630.51
935.8173, 22998.51
936.2994, 23388.73
936.7816, 23787.74
937.2637, 24205.87
937.7458, 24655.72
938.2279, 25135.54
938.7100, 25656.56
939.1921, 26233.94
939.6743, 26841.38
940.1564, 27461.61
940.6385, 28084.92
941.1206, 28755.45
941.6027, 29482.49
942.0848, 30253.95
942.5670, 31060.08
943.0491, 31898.83
943.5312, 32791.11
944.0133, 33735.02
944.4954, 34729.35
944.9775, 35770.26
945.4597, 36867.98
945.9418, 38006.98
946.4239, 39193.04
946.9060, 40473.54
947.3881, 41857.64
947.8702, 43296.61
948.3524, 44785.80
948.8345, 46299.23
949.3166, 47808.55
949.7987, 49317.65
950.2808, 50797.00
950.7629, 52286.18
951.2451, 53662.36
951.7272, 54949.38
952.2093, 56084.18
952.6914, 56951.02
953.1735, 57554.24
953.6556, 57799.02
954.1378, 57664.55
954.6199, 57146.31
955.1020, 56174.32
955.5841, 54834.89
956.0662, 53240.32
956.5483, 51331.25
957.0305, 49351.29
957.5126, 47272.82
957.9947, 45201.83
958.4768, 43214.26
958.9589, 41302.00
959.4410, 39461.84
959.9232, 37683.69
960.4053, 36043.30
960.8874, 34583.94
961.3695, 33276.15
961.8516, 32120.54
962.3337, 31117.06
962.8159, 30185.51
963.2980, 29293.28
963.7801, 28493.76
964.2622, 27814.46
964.7443, 27230.76
965.2264, 26645.06
965.7086, 26064.41
966.1907, 25552.79
966.6728, 25146.51
967.1549, 24802.23
967.6370, 24488.20
968.1191, 24211.86
968.6013, 23995.72
969.0834, 23852.66
969.5655, 23755.13
970.0476, 23714.86
970.5297, 23694.11
971.0118, 23637.96
971.4940, 23557.01
971.9761, 23488.12
972.4582, 23432.27
972.9403, 23423.20
973.4224, 23494.32
973.9045, 23614.35
974.3867, 23761.73
974.8688, 23937.23
975.3509, 24128.89
975.8330, 24333.71
976.3151, 24561.19
976.7972, 24814.53
977.2794, 25091.03
977.7615, 25391.32
978.2436, 25716.77
978.7257, 26078.88
979.2078, 26485.44
979.6899, 26925.08
980.1720, 27402.99
980.6541, 27910.76
981.1362, 28440.82
981.6183, 28989.18
982.1005, 29587.76
982.5826, 30252.10
983.0647, 30935.78
983.5468, 31591.48
984.0289, 32210.24
984.5110, 32768.00
984.9932, 33263.38
985.4753, 33701.11
985.9574, 34098.64
986.4395, 34422.02
986.9216, 34673.07
987.4037, 34858.37
987.8859, 34795.71
988.3680, 34483.36
988.8501, 34010.75
989.3322, 33404.12
989.8143, 32695.49
990.2964, 31893.99
990.7786, 31017.51
991.2607, 30109.88
991.7428, 29140.60
992.2249, 28212.37
992.7070, 27341.02
993.1891, 26525.64
993.6713, 25785.37
994.1534, 25111.14
994.6355, 24469.02
995.1176, 23840.95
995.5997, 23260.88
996.0818, 22763.61
996.5640, 22321.46
997.0461, 21907.35
997.5282, 21517.74
998.0103, 21165.34
998.4924, 20853.77
998.9745, 20565.42
999.4567, 20278.54
999.9388, 20004.02
1000.421, 19790.69
1000.903, 19630.77
1001.385, 19461.62
1001.867, 19220.37
1002.349, 18995.83
1002.831, 18846.16
1003.314, 18744.56
1003.796, 18608.15
1004.278, 18431.11
1004.760, 18264.69
1005.242, 18120.43
1005.724, 17995.89
1006.206, 17883.72
1006.688, 17788.80
1007.171, 17719.23
1007.653, 17698.31
1008.135, 17655.72
1008.617, 17574.83
1009.099, 17481.24
1009.581, 17388.64
1010.063, 17297.49
1010.545, 17240.40
1011.027, 17215.54
1011.510, 17172.48
1011.992, 17043.38
1012.474, 16911.14
1012.956, 16845.78
1013.438, 16837.32
1013.920, 16803.67
1014.402, 16721.50
1014.884, 16674.39
1015.367, 16696.22
1015.849, 16739.58
1016.331, 16721.39
1016.813, 16656.40
1017.295, 16574.51
1017.777, 16469.03
1018.259, 16390.37
1018.741, 16387.15
1019.223, 16398.41
1019.706, 16374.95
1020.188, 16311.47
1020.670, 16254.02
1021.152, 16202.26
1021.634, 16161.40
1022.116, 16145.01
1022.598, 16135.00
1023.080, 16106.28
1023.563, 16063.48
1024.045, 16035.52
1024.527, 16040.67
1025.009, 16042.37
1025.491, 16035.11
1025.973, 16018.36
1026.455, 15992.01
1026.937, 15955.43
1027.419, 15901.14
1027.901, 15819.64
1028.384, 15752.40
1028.866, 15736.26
1029.348, 15741.38
1029.830, 15744.08
1030.312, 15745.00
1030.794, 15734.70
1031.276, 15712.91
1031.758, 15683.83
1032.241, 15646.23
1032.723, 15606.21
1033.205, 15570.81
1033.687, 15540.96
1034.169, 15518.06
1034.651, 15495.03
1035.133, 15491.32
1035.615, 15521.07
1036.098, 15560.60
1036.580, 15565.64
1037.062, 15540.36
1037.544, 15522.14
1038.026, 15516.83
1038.508, 15519.46
1038.990, 15545.67
1039.472, 15563.78
1039.954, 15533.93
1040.437, 15445.18
1040.919, 15405.17
1041.401, 15423.12
1041.883, 15458.88
1042.365, 15505.64
1042.847, 15548.05
1043.329, 15551.37
1043.811, 15525.07
1044.293, 15494.08
1044.776, 15442.16
1045.258, 15422.63
1045.740, 15461.32
1046.222, 15523.71
1046.704, 15575.40
1047.186, 15616.10
1047.668, 15639.54
1048.150, 15644.64
1048.633, 15645.58
1049.115, 15642.87
1049.597, 15649.17
1050.079, 15680.99
1050.561, 15738.11
1051.043, 15779.14
1051.525, 15792.26
1052.007, 15823.32
1052.490, 15894.49
1052.972, 15981.46
1053.454, 16043.02
1053.936, 16084.32
1054.418, 16114.86
1054.900, 16122.19
1055.382, 16148.40
1055.864, 16208.89
1056.346, 16287.64
1056.828, 16383.26
1057.311, 16495.10
1057.793, 16554.71
1058.275, 16563.48
1058.757, 16595.17
1059.239, 16733.44
1059.721, 16884.61
1060.203, 16969.72
1060.685, 17007.25
1061.168, 17078.41
1061.650, 17192.77
1062.132, 17319.47
1062.614, 17454.42
1063.096, 17592.86
1063.578, 17720.57
1064.060, 17848.52
1064.542, 17999.72
1065.025, 18180.72
1065.507, 18371.15
1065.989, 18556.73
1066.471, 18755.40
1066.953, 18977.39
1067.435, 19220.30
1067.917, 19452.17
1068.399, 19680.44
1068.881, 19946.22
1069.364, 20294.92
1069.846, 20662.33
1070.328, 21009.28
1070.810, 21349.80
1071.292, 21703.37
1071.774, 22084.27
1072.256, 22423.86
1072.738, 22706.31
1073.220, 22993.82
1073.703, 23371.63
1074.185, 23768.09
1074.667, 24093.35
1075.149, 24342.05
1075.631, 24500.83
1076.113, 24516.67
1076.595, 24518.87
1077.077, 24553.64
1077.559, 24577.06
1078.042, 24485.28
1078.524, 24299.33
1079.006, 24088.01
1079.488, 23872.61
1079.970, 23629.03
1080.452, 23326.39
1080.934, 23000.62
1081.416, 22676.41
1081.899, 22355.31
1082.381, 22019.76
1082.863, 21669.47
1083.345, 21339.08
1083.827, 21060.88
1084.309, 20802.47
1084.791, 20521.07
1085.273, 20231.22
1085.755, 19965.60
1086.238, 19729.85
1086.720, 19512.33
1087.202, 19313.01
1087.684, 19130.46
1088.166, 18964.67
1088.648, 18812.83
1089.130, 18667.31
1089.612, 18527.20
1090.094, 18383.61
1090.577, 18204.48
1091.059, 18058.51
1091.541, 17978.49
1092.023, 17940.97
1092.505, 17880.38
1092.987, 17799.61
1093.469, 17711.52
1093.951, 17615.11
1094.434, 17526.25
1094.916, 17465.82
1095.398, 17410.40
1095.880, 17335.48
1096.362, 17236.37
1096.844, 17157.64
1097.326, 17100.95
1097.808, 17042.34
1098.291, 16954.77
1098.773, 16867.89
1099.255, 16836.69
1099.737, 16832.91
1100.219, 16793.56
1100.701, 16679.27
1101.183, 16574.45
1101.665, 16482.81
1102.147, 16403.02
1102.630, 16336.41
1103.112, 16280.67
1103.594, 16231.39
1104.076, 16188.03
1104.558, 16144.88
1105.040, 16101.94
1105.522, 16055.13
1106.004, 15999.50
1106.486, 15941.96
1106.969, 15912.54
1107.451, 15903.12
1107.933, 15853.88
1108.415, 15740.92
1108.897, 15630.05
1109.379, 15566.47
1109.861, 15527.48
1110.343, 15498.30
1110.826, 15478.42
1111.308, 15449.86
1111.790, 15412.09
1112.272, 15378.93
1112.754, 15361.11
1113.236, 15346.16
1113.718, 15319.98
1114.200, 15286.74
1114.682, 15253.87
1115.165, 15225.25
1115.647, 15186.90
1116.129, 15130.95
1116.611, 15087.65
1117.093, 15103.17
1117.575, 15141.25
1118.057, 15127.65
1118.539, 15068.80
1119.021, 15017.59
1119.504, 14996.31
1119.986, 14982.13
1120.468, 14975.48
1120.950, 14967.77
1121.432, 14939.66
1121.914, 14897.88
1122.396, 14865.92
1122.878, 14847.90
1123.361, 14836.85
1123.843, 14839.37
1124.325, 14837.06
1124.807, 14814.59
1125.289, 14779.53
1125.771, 14771.15
1126.253, 14787.80
1126.735, 14802.88
1127.218, 14803.75
1127.700, 14807.17
1128.182, 14835.06
1128.664, 14867.19
1129.146, 14878.40
1129.628, 14862.69
1130.110, 14859.55
1130.592, 14870.03
1131.074, 14881.09
1131.557, 14888.91
1132.039, 14889.31
1132.521, 14871.99
1133.003, 14844.48
1133.485, 14823.72
1133.967, 14816.63
1134.449, 14809.58
1134.931, 14802.10
1135.413, 14795.91
1135.896, 14793.52
1136.378, 14793.89
1136.860, 14799.00
1137.342, 14807.00
1137.824, 14802.72
1138.306, 14766.16
1138.788, 14735.72
1139.270, 14717.85
1139.752, 14710.19
1140.235, 14709.71
1140.717, 14715.33
1141.199, 14727.92
1141.681, 14748.84
1142.163, 14759.41
1142.645, 14744.14
1143.127, 14721.26
1143.609, 14694.88
1144.092, 14669.99
1144.574, 14680.60
1145.056, 14719.38
1145.538, 14730.13
1146.020, 14684.22
1146.502, 14630.99
1146.984, 14599.12
1147.466, 14578.72
1147.948, 14556.83
1148.431, 14532.05
1148.913, 14542.37
1149.395, 14588.11
1149.877, 14626.54
1150.359, 14628.07
1150.841, 14615.07
1151.323, 14595.88
1151.805, 14576.86
1152.287, 14569.50
1152.770, 14574.66
1153.252, 14587.93
1153.734, 14610.45
1154.216, 14631.09
1154.698, 14645.83
1155.180, 14649.30
1155.662, 14621.72
1156.144, 14574.13
1156.627, 14563.90
1157.109, 14618.54
1157.591, 14647.37
1158.073, 14631.11
1158.555, 14602.51
1159.037, 14604.22
1159.519, 14619.08
1160.001, 14616.44
1160.484, 14592.77
1160.966, 14585.98
1161.448, 14614.26
1161.930, 14638.33
1162.412, 14648.06
1162.894, 14645.50
1163.376, 14631.35
1163.858, 14608.80
1164.340, 14584.95
1164.823, 14561.14
1165.305, 14537.55
1165.787, 14513.15
1166.269, 14490.78
1166.751, 14469.45
1167.233, 14453.19
1167.715, 14464.10
1168.197, 14493.44
1168.679, 14507.39
1169.162, 14477.55
1169.644, 14459.41
1170.126, 14484.28
1170.608, 14515.62
1171.090, 14526.64
1171.572, 14519.05
1172.054, 14512.02
1172.536, 14506.91
1173.019, 14515.30
1173.501, 14564.08
1173.983, 14603.34
1174.465, 14600.34
1174.947, 14582.26
1175.429, 14578.16
1175.911, 14588.10
1176.393, 14613.62
1176.875, 14654.01
1177.358, 14683.21
1177.840, 14681.19
1178.322, 14664.07
1178.804, 14630.25
1179.286, 14591.71
1179.768, 14576.30
1180.250, 14584.93
1180.732, 14592.04
1181.214, 14593.84
1181.697, 14594.36
1182.179, 14585.55
1182.661, 14586.15
1183.143, 14625.08
1183.625, 14689.93
1184.107, 14712.83
1184.589, 14690.71
1185.071, 14658.18
1185.554, 14620.60
1186.036, 14588.46
1186.518, 14570.78
1187.000, 14565.58
1187.482, 14575.15
1187.964, 14599.47
1188.446, 14618.64
1188.928, 14634.45
1189.411, 14632.46
1189.893, 14598.37
1190.375, 14562.04
1190.857, 14566.37
1191.339, 14585.76
1191.821, 14584.23
1192.303, 14550.05
1192.785, 14533.70
1193.267, 14536.94
1193.750, 14547.89
1194.232, 14565.38
1194.714, 14580.93
1195.196, 14582.40
1195.678, 14574.81
1196.160, 14567.04
1196.642, 14559.25
1197.124, 14551.17
1197.606, 14539.30
1198.089, 14541.95
1198.571, 14592.98
1199.053, 14652.54
1199.535, 14661.78
1200.017, 14635.67
1200.499, 14617.43
1200.981, 14613.59
1201.463, 14623.03
1201.945, 14651.36
1202.428, 14670.96
1202.910, 14640.05
1203.392, 14593.38
1203.874, 14583.75
1204.356, 14605.60
1204.838, 14614.88
1205.320, 14594.64
1205.802, 14585.51
1206.285, 14594.47
1206.767, 14611.08
1207.249, 14631.22
1207.731, 14646.20
1208.213, 14633.79
1208.695, 14595.31
1209.177, 14585.97
1209.659, 14630.31
1210.141, 14655.51
1210.624, 14636.59
1211.106, 14612.74
1211.588, 14647.63
1212.070, 14710.51
1212.552, 14757.42
1213.034, 14780.86
1213.516, 14794.46
1213.998, 14805.11
1214.480, 14791.97
1214.963, 14736.28
1215.445, 14676.12
1215.927, 14691.29
1216.409, 14739.24
1216.891, 14745.20
1217.373, 14683.12
1217.855, 14647.67
1218.337, 14651.86
1218.820, 14666.69
1219.302, 14681.58
1219.784, 14697.61
1220.266, 14725.55
1220.748, 14752.93
1221.230, 14752.96
1221.712, 14699.72
1222.194, 14683.07
1222.677, 14718.58
1223.159, 14755.68
1223.641, 14762.86
1224.123, 14757.42
1224.605, 14773.52
1225.087, 14799.32
1225.569, 14810.98
1226.051, 14785.93
1226.533, 14780.25
1227.016, 14800.34
1227.498, 14822.60
1227.980, 14829.26
1228.462, 14828.45
1228.944, 14835.05
1229.426, 14844.68
1229.908, 14846.38
1230.390, 14824.17
1230.872, 14822.25
1231.355, 14846.33
1231.837, 14874.61
1232.319, 14888.92
1232.801, 14896.34
1233.283, 14911.42
1233.765, 14928.10
1234.247, 14924.40
1234.729, 14878.07
1235.212, 14859.52
1235.694, 14876.76
1236.176, 14907.95
1236.658, 14943.57
1237.140, 14972.81
1237.622, 14975.14
1238.104, 14957.33
1238.586, 14952.74
1239.068, 14971.81
1239.551, 14977.28
1240.033, 14962.70
1240.515, 14946.47
1240.997, 14949.42
1241.479, 14959.39
1241.961, 14961.88
1242.443, 14958.85
1242.925, 14962.27
1243.407, 14970.59
1243.890, 14999.66
1244.372, 15057.42
1244.854, 15104.75
1245.336, 15088.51
1245.818, 15049.58
1246.300, 15021.35
1246.782, 15006.76
1247.264, 15007.09
1247.747, 15025.15
1248.229, 15031.64
1248.711, 15017.54
1249.193, 15005.50
1249.675, 15029.83
1250.157, 15056.35
1250.639, 15049.26
1251.121, 15014.52
1251.604, 14992.11
1252.086, 14983.06
1252.568, 14979.82
1253.050, 14982.07
1253.532, 14984.14
1254.014, 14979.38
1254.496, 14973.90
1254.978, 14968.51
1255.460, 14965.70
1255.943, 14984.77
1256.425, 15024.45
1256.907, 15065.33
1257.389, 15104.96
1257.871, 15132.72
1258.353, 15142.27
1258.835, 15133.70
1259.317, 15100.81
1259.799, 15051.58
1260.281, 15034.88
1260.764, 15045.74
1261.246, 15051.89
1261.728, 15043.05
1262.210, 15030.48
1262.692, 15024.28
1263.174, 15012.30
1263.656, 14982.61
1264.138, 14943.94
1264.621, 14937.49
1265.103, 14956.10
1265.585, 14968.88
1266.067, 14957.26
1266.549, 14962.39
1267.031, 15012.04
1267.513, 15066.99
1267.995, 15113.14
1268.478, 15145.57
1268.960, 15137.88
1269.442, 15104.49
1269.924, 15088.10
1270.406, 15109.18
1270.888, 15129.33
1271.370, 15137.79
1271.852, 15151.00
1272.334, 15181.45
1272.817, 15220.77
1273.299, 15260.15
1273.781, 15292.12
1274.263, 15299.24
1274.745, 15252.25
1275.227, 15238.17
1275.709, 15273.46
1276.191, 15301.38
1276.673, 15278.21
1277.156, 15235.37
1277.638, 15219.77
1278.120, 15221.62
1278.602, 15222.01
1279.084, 15218.96
1279.566, 15209.48
1280.048, 15190.96
1280.530, 15182.62
1281.013, 15205.71
1281.495, 15236.08
1281.977, 15244.19
1282.459, 15243.83
1282.941, 15258.41
1283.423, 15292.32
1283.905, 15326.61
1284.387, 15361.85
1284.870, 15376.20
1285.352, 15326.48
##END=



