##NAMES=Volborthite
##RRUFFID=R070710
##IDEAL CHEMISTRY=Cu^2+^_3_V^5+^_2_O_7_(OH)_2_&#183;2H_2_O
##LOCALITY=Newmont Gold mine, Carlin District, Elko County, Nevada,  USA
##OWNER=RRUFF
##SOURCE=Michael Scott
##DESCRIPTION=Clusters of olive to yellowish green pseudohexagonal crystals
##STATUS=The identification of this mineral has been confirmed by single-crystal X-ray diffraction.
##URL=rruff.info/R070710
92.96582, 197.8998
93.44794, 199.0909
93.93005, 199.7601
94.41217, 196.7499
94.89429, 193.4963
95.37640, 190.9407
95.85852, 189.0613
96.34064, 187.6361
96.82275, 186.7260
97.30487, 186.0311
97.78699, 184.8318
98.26910, 183.3766
98.75122, 181.4831
99.23334, 178.5605
99.71545, 174.5476
100.1976, 170.9568
100.6797, 169.6392
101.1618, 169.7818
101.6439, 170.1341
102.1260, 170.6284
102.6081, 171.0308
103.0903, 170.8747
103.5724, 170.0788
104.0545, 168.7870
104.5366, 166.5575
105.0187, 163.9370
105.5008, 162.0132
105.9830, 161.8234
106.4651, 163.5027
106.9472, 164.5059
107.4293, 164.6745
107.9114, 164.2274
108.3935, 162.9973
108.8757, 161.0993
109.3578, 158.8957
109.8399, 156.7554
110.3220, 154.2944
110.8041, 152.8880
111.2862, 153.4076
111.7684, 154.3249
112.2505, 154.3860
112.7326, 153.1941
113.2147, 151.2773
113.6968, 149.7099
114.1789, 148.5414
114.6611, 147.5877
115.1432, 147.2084
115.6253, 147.0296
116.1074, 146.2317
116.5895, 144.3299
117.0716, 141.6806
117.5538, 139.3234
118.0359, 137.5660
118.5180, 135.5920
119.0001, 132.3235
119.4822, 127.6997
119.9643, 123.9973
120.4465, 123.1222
120.9286, 123.6319
121.4107, 124.2341
121.8928, 124.9335
122.3749, 125.1853
122.8570, 123.6912
123.3392, 119.3354
123.8213, 115.2690
124.3034, 112.2754
124.7855, 110.2566
125.2676, 109.1120
125.7497, 108.9070
126.2319, 109.5793
126.7140, 110.2275
127.1961, 111.6860
127.6782, 112.3038
128.1603, 111.3506
128.6424, 109.1345
129.1246, 106.4123
129.6067, 103.7705
130.0888, 101.0809
130.5709, 99.34621
131.0530, 99.37109
131.5351, 99.49191
132.0173, 98.59111
132.4994, 96.58350
132.9815, 94.34843
133.4636, 93.03084
133.9457, 93.02715
134.4278, 92.65511
134.9100, 91.43628
135.3921, 89.94820
135.8742, 88.99034
136.3563, 88.87733
136.8384, 88.95577
137.3205, 88.01957
137.8027, 85.98477
138.2848, 84.35047
138.7669, 83.86979
139.2490, 84.34061
139.7311, 85.05898
140.2132, 86.27895
140.6954, 87.18510
141.1775, 86.86724
141.6596, 85.18342
142.1417, 83.22652
142.6238, 81.97115
143.1059, 81.47581
143.5881, 81.26738
144.0702, 81.62924
144.5523, 82.00968
145.0344, 82.11885
145.5165, 81.87545
145.9986, 81.21036
146.4807, 79.82145
146.9629, 76.78401
147.4450, 74.78889
147.9271, 74.49726
148.4092, 75.12688
148.8913, 76.06087
149.3734, 77.02033
149.8556, 77.89933
150.3377, 78.27067
150.8198, 77.06198
151.3019, 76.46545
151.7840, 77.01413
152.2661, 78.31332
152.7483, 79.84106
153.2304, 81.34792
153.7125, 82.77962
154.1946, 83.14637
154.6767, 81.99494
155.1588, 80.52795
155.6410, 78.77707
156.1231, 76.97295
156.6052, 75.86573
157.0873, 76.20296
157.5694, 77.91846
158.0515, 79.03329
158.5337, 79.02330
159.0158, 78.78564
159.4979, 79.21207
159.9800, 80.38608
160.4621, 81.28631
160.9442, 80.83462
161.4264, 79.39767
161.9085, 78.01643
162.3906, 76.34245
162.8727, 75.01950
163.3548, 75.54433
163.8369, 78.91897
164.3191, 81.87196
164.8012, 81.50089
165.2833, 79.00990
165.7654, 76.94117
166.2475, 76.93470
166.7296, 78.62046
167.2118, 79.93723
167.6939, 80.80022
168.1760, 81.30866
168.6581, 81.44698
169.1402, 81.29044
169.6223, 81.01060
170.1045, 80.71229
170.5866, 80.38651
171.0687, 80.14619
171.5508, 80.41699
172.0329, 80.40909
172.5150, 79.77003
172.9972, 78.53728
173.4793, 76.94380
173.9614, 75.04594
174.4435, 72.28809
174.9256, 71.30529
175.4077, 73.31906
175.8899, 75.76550
176.3720, 77.13552
176.8541, 77.27238
177.3362, 77.06011
177.8183, 77.70286
178.3004, 79.93045
178.7826, 81.26762
179.2647, 81.29736
179.7468, 80.75962
180.2289, 80.01473
180.7110, 79.18998
181.1931, 78.66903
181.6752, 79.17086
182.1574, 81.14359
182.6395, 82.81623
183.1216, 84.29742
183.6037, 85.29399
184.0858, 85.08540
184.5679, 83.23656
185.0501, 80.97605
185.5322, 80.62785
186.0143, 82.34679
186.4964, 83.67188
186.9785, 82.73409
187.4606, 80.70950
187.9428, 80.95609
188.4249, 85.56181
188.9070, 91.06978
189.3891, 93.33363
189.8712, 92.33910
190.3533, 89.82576
190.8355, 85.25200
191.3176, 79.16574
191.7997, 76.64651
192.2818, 81.91489
192.7639, 88.68291
193.2460, 91.32178
193.7282, 89.45390
194.2103, 86.78726
194.6924, 86.87676
195.1745, 90.03897
195.6566, 92.89369
196.1387, 94.95161
196.6209, 96.34103
197.1030, 96.77004
197.5851, 96.26799
198.0672, 95.62434
198.5493, 95.97050
199.0314, 97.76635
199.5136, 99.06771
199.9957, 98.89446
200.4778, 98.71449
200.9599, 99.77391
201.4420, 102.2627
201.9241, 105.0250
202.4063, 106.1305
202.8884, 104.4293
203.3705, 103.2506
203.8526, 102.8880
204.3347, 102.9016
204.8168, 102.8976
205.2990, 102.7789
205.7811, 102.8017
206.2632, 103.4933
206.7453, 105.8686
207.2274, 107.4418
207.7095, 107.8344
208.1917, 107.6788
208.6738, 107.3752
209.1559, 107.0863
209.6380, 107.0223
210.1201, 107.6356
210.6022, 109.6590
211.0844, 111.3020
211.5665, 112.5644
212.0486, 113.3835
212.5307, 113.2643
213.0128, 111.9491
213.4949, 110.5856
213.9771, 111.9120
214.4592, 117.6377
214.9413, 122.0289
215.4234, 122.9820
215.9055, 122.2035
216.3876, 122.3877
216.8698, 124.5550
217.3519, 127.7702
217.8340, 130.3217
218.3161, 132.1205
218.7982, 133.8707
219.2803, 136.0866
219.7625, 138.4182
220.2446, 139.8631
220.7267, 139.6888
221.2088, 139.2685
221.6909, 140.7599
222.1730, 144.2971
222.6552, 148.0148
223.1373, 151.1338
223.6194, 153.7184
224.1015, 155.9935
224.5836, 157.8280
225.0657, 159.6000
225.5479, 162.0908
226.0300, 165.3620
226.5121, 167.7187
226.9942, 167.2027
227.4763, 164.3569
227.9584, 163.0270
228.4406, 164.6072
228.9227, 167.4512
229.4048, 170.5893
229.8869, 173.9140
230.3690, 176.4942
230.8511, 177.1731
231.3333, 176.0051
231.8154, 175.4295
232.2975, 176.2315
232.7796, 177.3023
233.2617, 178.2078
233.7438, 178.8523
234.2260, 179.0189
234.7081, 178.2811
235.1902, 176.5525
235.6723, 175.2263
236.1544, 174.6992
236.6365, 174.3533
237.1187, 174.1311
237.6008, 173.9099
238.0829, 173.3705
238.5650, 171.9438
239.0471, 169.3823
239.5292, 167.7780
240.0114, 168.7863
240.4935, 169.3788
240.9756, 168.2539
241.4577, 165.5654
241.9398, 162.2878
242.4219, 159.2547
242.9041, 156.5067
243.3862, 153.7973
243.8683, 150.9232
244.3504, 148.2809
244.8325, 146.2953
245.3146, 144.7530
245.7968, 143.0226
246.2789, 140.4983
246.7610, 137.0524
247.2431, 133.8858
247.7252, 130.8300
248.2073, 128.1723
248.6895, 126.3822
249.1716, 125.1514
249.6537, 123.6913
250.1358, 121.2496
250.6179, 117.7049
251.1000, 115.0776
251.5822, 114.1160
252.0643, 113.1782
252.5464, 111.7523
253.0285, 109.8518
253.5106, 107.6250
253.9927, 105.0909
254.4748, 102.2636
254.9570, 100.2169
255.4391, 99.31660
255.9212, 98.64709
256.4033, 97.95316
256.8854, 97.23364
257.3676, 96.54237
257.8497, 95.90672
258.3318, 95.33351
258.8139, 94.90294
259.2960, 94.85072
259.7781, 94.66055
260.2603, 94.39254
260.7424, 93.86815
261.2245, 92.62493
261.7066, 90.31446
262.1887, 87.16129
262.6708, 84.36541
263.1530, 80.84060
263.6351, 78.71703
264.1172, 79.80518
264.5993, 82.78428
265.0814, 84.71394
265.5635, 84.01662
266.0457, 81.56468
266.5278, 80.18493
267.0099, 80.29272
267.4920, 80.51213
267.9741, 80.48493
268.4562, 80.26405
268.9384, 79.85041
269.4204, 79.13171
269.9026, 78.46149
270.3847, 78.88622
270.8668, 81.03673
271.3489, 82.29214
271.8310, 81.10340
272.3131, 78.53064
272.7953, 76.62806
273.2774, 76.11655
273.7595, 76.24505
274.2416, 75.68891
274.7237, 74.30859
275.2058, 73.44229
275.6880, 74.23608
276.1701, 75.65755
276.6522, 75.61447
277.1343, 73.29550
277.6164, 70.56203
278.0985, 69.92441
278.5807, 71.13205
279.0628, 72.60576
279.5449, 74.69637
280.0270, 76.54802
280.5091, 76.55200
280.9912, 74.17876
281.4734, 71.23492
281.9555, 69.18668
282.4376, 67.93389
282.9197, 67.53846
283.4018, 68.57574
283.8839, 70.24342
284.3661, 71.65060
284.8482, 72.79574
285.3303, 73.32543
285.8124, 72.71072
286.2945, 71.24158
286.7766, 69.54613
287.2588, 67.01093
287.7409, 64.73296
288.2230, 64.29659
288.7051, 65.86339
289.1872, 67.55659
289.6693, 68.43002
290.1515, 68.63490
290.6336, 68.35658
291.1157, 67.23464
291.5978, 66.11631
292.0799, 65.92014
292.5620, 66.65191
293.0442, 67.47981
293.5263, 68.26448
294.0084, 68.78960
294.4905, 68.78600
294.9726, 68.17216
295.4547, 67.19473
295.9369, 65.76277
296.4190, 63.94651
296.9011, 62.67528
297.3832, 62.19030
297.8653, 62.51867
298.3474, 63.95619
298.8296, 66.68911
299.3117, 68.75462
299.7938, 68.17775
300.2759, 65.52114
300.7580, 63.89180
301.2401, 64.41628
301.7223, 65.49683
302.2044, 65.55242
302.6865, 64.69923
303.1686, 63.91548
303.6507, 63.64503
304.1328, 63.84605
304.6150, 64.49098
305.0971, 65.84212
305.5792, 67.11179
306.0613, 67.67924
306.5434, 67.70902
307.0255, 67.57915
307.5077, 67.39517
307.9898, 67.17181
308.4719, 66.95433
308.9540, 66.76878
309.4361, 66.51004
309.9182, 65.68602
310.4004, 64.81360
310.8825, 64.81425
311.3646, 66.45735
311.8467, 68.62170
312.3288, 69.59352
312.8109, 69.17378
313.2931, 68.90749
313.7752, 69.79277
314.2573, 71.10175
314.7394, 72.03771
315.2215, 72.44291
315.7036, 72.50072
316.1858, 72.28865
316.6679, 71.80937
317.1500, 71.33151
317.6321, 70.71738
318.1142, 70.34925
318.5963, 70.70937
319.0785, 71.87865
319.5606, 73.04510
320.0427, 73.35430
320.5248, 73.03237
321.0069, 73.49588
321.4890, 75.37058
321.9712, 77.62023
322.4533, 79.60207
322.9354, 81.27489
323.4175, 82.18526
323.8996, 81.34743
324.3817, 79.59425
324.8639, 79.16665
325.3460, 80.38786
325.8281, 82.57809
326.3102, 86.39341
326.7923, 90.80802
327.2744, 93.37866
327.7566, 92.04546
328.2387, 88.99588
328.7208, 87.63794
329.2029, 88.28239
329.6850, 88.83375
330.1671, 87.42369
330.6493, 85.42874
331.1314, 84.93612
331.6135, 86.72118
332.0956, 89.42667
332.5777, 92.11620
333.0598, 94.76476
333.5420, 96.83656
334.0241, 98.37904
334.5062, 98.90738
334.9883, 97.59855
335.4704, 93.98872
335.9525, 90.88543
336.4347, 90.53204
336.9168, 92.27413
337.3989, 93.64241
337.8810, 94.09682
338.3631, 94.00626
338.8452, 93.65977
339.3274, 93.08745
339.8094, 92.57093
340.2916, 92.28757
340.7737, 92.11626
341.2558, 91.80381
341.7379, 91.28025
342.2200, 90.82406
342.7021, 91.00060
343.1843, 91.47732
343.6664, 91.14921
344.1485, 89.40190
344.6306, 87.02014
345.1127, 84.44582
345.5948, 81.70848
346.0770, 79.69123
346.5591, 79.19054
347.0412, 79.68201
347.5233, 79.57039
348.0054, 78.29929
348.4875, 77.29492
348.9697, 77.88588
349.4518, 79.53012
349.9339, 80.35459
350.4160, 79.56236
350.8981, 77.83979
351.3802, 76.23981
351.8624, 74.72665
352.3445, 73.44932
352.8266, 72.96495
353.3087, 72.59132
353.7908, 70.95074
354.2729, 67.63791
354.7551, 64.31425
355.2372, 62.91244
355.7193, 63.49097
356.2014, 63.83949
356.6835, 63.04119
357.1656, 62.45178
357.6478, 64.08450
358.1299, 67.61253
358.6120, 69.58776
359.0941, 67.08666
359.5762, 60.91520
360.0583, 56.95338
360.5405, 56.40933
361.0226, 56.49004
361.5047, 56.38098
361.9868, 56.03294
362.4689, 55.16906
362.9510, 53.53020
363.4332, 51.78865
363.9153, 51.72651
364.3974, 54.50668
364.8795, 56.57148
365.3616, 57.15289
365.8438, 56.94767
366.3259, 56.69232
366.8080, 56.55230
367.2901, 56.21930
367.7722, 55.22704
368.2543, 53.25262
368.7365, 52.09184
369.2186, 52.27239
369.7007, 52.74477
370.1828, 53.03640
370.6649, 53.08380
371.1470, 52.93830
371.6292, 52.64674
372.1113, 52.19661
372.5934, 51.40968
373.0755, 49.60925
373.5576, 48.27747
374.0397, 47.94455
374.5219, 48.22168
375.0040, 48.67811
375.4861, 49.12894
375.9682, 49.41548
376.4503, 49.11390
376.9324, 47.03990
377.4146, 46.33369
377.8967, 48.40121
378.3788, 50.73634
378.8609, 51.28208
379.3430, 49.91741
379.8251, 48.18760
380.3073, 47.88445
380.7894, 49.34959
381.2715, 49.79901
381.7536, 48.03289
382.2357, 46.44280
382.7178, 45.71049
383.2000, 45.76658
383.6821, 46.42736
384.1642, 47.68943
384.6463, 49.27311
385.1284, 50.03703
385.6105, 49.50778
386.0927, 48.89203
386.5748, 48.20722
387.0569, 47.66555
387.5390, 47.60346
388.0211, 48.09597
388.5032, 48.63766
388.9854, 48.23615
389.4675, 46.49286
389.9496, 46.03170
390.4317, 49.15727
390.9138, 51.94839
391.3959, 52.02082
391.8781, 49.81848
392.3602, 47.54011
392.8423, 46.80960
393.3244, 47.33276
393.8065, 47.70428
394.2886, 47.90686
394.7708, 47.97941
395.2529, 47.96666
395.7350, 47.84136
396.2171, 47.47536
396.6992, 46.65791
397.1813, 45.94904
397.6635, 46.22753
398.1456, 47.54466
398.6277, 48.65071
399.1098, 49.21376
399.5919, 49.30857
400.0740, 48.93706
400.5562, 48.07390
401.0383, 47.30901
401.5204, 46.73625
402.0025, 46.52015
402.4846, 47.35312
402.9667, 49.67411
403.4489, 51.84459
403.9310, 52.22339
404.4131, 51.20972
404.8952, 50.09018
405.3773, 48.61350
405.8594, 47.47424
406.3416, 47.55338
406.8237, 48.68761
407.3058, 49.70184
407.7879, 49.94841
408.2700, 49.75129
408.7521, 49.97670
409.2343, 50.83782
409.7164, 51.58680
410.1985, 51.88261
410.6806, 51.96317
411.1627, 52.16094
411.6448, 52.55721
412.1269, 53.05434
412.6090, 53.55256
413.0912, 54.06124
413.5733, 54.49298
414.0554, 54.66278
414.5375, 54.92300
415.0196, 55.66776
415.5017, 56.71333
415.9839, 57.51462
416.4660, 57.73600
416.9481, 57.43193
417.4302, 56.85499
417.9123, 55.03859
418.3944, 54.15622
418.8766, 55.07188
419.3587, 56.66853
419.8408, 57.93970
420.3229, 58.56731
420.8050, 58.67511
421.2871, 58.29828
421.7693, 57.10086
422.2514, 56.68644
422.7335, 57.88832
423.2156, 59.01998
423.6977, 59.33833
424.1798, 59.01998
424.6620, 58.59253
425.1441, 58.37619
425.6262, 58.33743
426.1083, 58.37312
426.5904, 58.59028
427.0725, 58.67091
427.5547, 58.05107
428.0368, 57.55734
428.5189, 58.09781
429.0010, 59.84719
429.4831, 61.89545
429.9652, 63.38658
430.4474, 64.32198
430.9295, 64.71046
431.4116, 64.38013
431.8937, 63.68576
432.3758, 62.59089
432.8579, 61.32585
433.3401, 60.55291
433.8222, 60.79443
434.3043, 61.54626
434.7864, 62.05602
435.2685, 62.32019
435.7506, 62.42021
436.2328, 62.38778
436.7149, 62.19799
437.1970, 61.73899
437.6791, 60.83055
438.1612, 60.27364
438.6433, 60.87771
439.1255, 62.07873
439.6076, 62.64895
440.0897, 62.29827
440.5718, 61.60575
441.0539, 61.23524
441.5360, 61.17075
442.0182, 60.46928
442.5003, 57.96886
442.9824, 55.80360
443.4645, 55.80322
443.9466, 57.37937
444.4287, 58.57368
444.9109, 58.36022
445.3930, 57.23576
445.8751, 56.52942
446.3572, 56.62439
446.8393, 56.56927
447.3214, 56.14143
447.8036, 55.65770
448.2857, 55.42574
448.7678, 55.46418
449.2499, 55.53831
449.7320, 55.39539
450.2141, 55.01434
450.6963, 54.85083
451.1784, 55.82598
451.6605, 55.99781
452.1426, 54.11494
452.6247, 51.38695
453.1068, 49.47182
453.5890, 49.07358
454.0711, 49.62349
454.5532, 50.14185
455.0353, 50.58760
455.5174, 51.15123
455.9995, 52.07255
456.4817, 52.94059
456.9638, 53.44034
457.4459, 53.65635
457.9280, 53.97560
458.4101, 54.87767
458.8922, 56.03888
459.3744, 56.29862
459.8565, 55.33975
460.3386, 54.51043
460.8207, 54.91681
461.3028, 55.60083
461.7849, 55.24543
462.2671, 53.34353
462.7492, 51.62152
463.2313, 51.73666
463.7134, 53.05859
464.1955, 53.55529
464.6776, 52.67769
465.1598, 51.35825
465.6419, 50.34272
466.1240, 49.65063
466.6061, 49.50382
467.0882, 50.43159
467.5703, 51.48647
468.0525, 51.96354
468.5346, 51.99029
469.0167, 52.04430
469.4988, 52.34007
469.9809, 52.83681
470.4630, 53.46079
470.9452, 54.38143
471.4273, 55.11950
471.9094, 55.86155
472.3915, 56.27400
472.8736, 55.99082
473.3557, 55.05933
473.8379, 53.83782
474.3200, 52.59105
474.8021, 51.32764
475.2842, 50.24144
475.7663, 48.82677
476.2484, 48.29272
476.7306, 49.61985
477.2127, 51.51685
477.6948, 52.67984
478.1769, 52.70947
478.6590, 52.01335
479.1411, 50.95080
479.6233, 49.46911
480.1054, 48.18802
480.5875, 47.16226
481.0696, 46.33122
481.5517, 45.40613
482.0338, 44.64697
482.5159, 44.71848
482.9980, 46.43499
483.4802, 48.36812
483.9623, 48.09518
484.4444, 45.60855
484.9265, 43.85613
485.4086, 44.09296
485.8907, 45.16735
486.3729, 45.71572
486.8550, 45.75763
487.3371, 45.30475
487.8192, 43.80648
488.3013, 42.11979
488.7834, 41.34222
489.2656, 41.50327
489.7477, 41.86825
490.2298, 42.00274
490.7119, 41.94725
491.1940, 41.88911
491.6761, 41.43819
492.1583, 41.49028
492.6404, 42.80447
493.1225, 44.40499
493.6046, 45.20193
494.0867, 44.98945
494.5688, 44.20634
495.0510, 43.19207
495.5331, 41.86293
496.0152, 41.45536
496.4973, 42.95570
496.9794, 44.31800
497.4615, 45.23412
497.9437, 45.66692
498.4258, 45.48388
498.9079, 44.63919
499.3900, 43.57253
499.8721, 42.93150
500.3542, 42.76432
500.8364, 42.67518
501.3185, 42.68858
501.8006, 42.71067
502.2827, 42.85585
502.7648, 42.97596
503.2469, 42.66789
503.7291, 41.52349
504.2112, 40.10425
504.6933, 39.10340
505.1754, 38.52031
505.6575, 38.38978
506.1396, 38.97012
506.6218, 39.72336
507.1039, 39.85254
507.5860, 39.35000
508.0681, 38.68008
508.5502, 37.45543
509.0323, 36.44984
509.5145, 36.90998
509.9966, 38.58712
510.4787, 39.67104
510.9608, 38.96963
511.4429, 36.88357
511.9250, 35.03058
512.4072, 32.65430
512.8893, 31.54320
513.3714, 32.71304
513.8535, 34.60020
514.3356, 36.04792
514.8177, 36.81109
515.2999, 37.04476
515.7820, 36.76742
516.2641, 36.05255
516.7462, 35.96009
517.2283, 37.24896
517.7104, 38.00867
518.1926, 37.39884
518.6747, 36.30973
519.1568, 35.60611
519.6389, 35.49862
520.1210, 35.65544
520.6031, 36.05426
521.0853, 36.55195
521.5674, 35.91811
522.0495, 33.34844
522.5316, 31.33809
523.0137, 32.51010
523.4958, 35.33894
523.9780, 36.85691
524.4601, 36.16444
524.9422, 34.81823
525.4243, 33.41039
525.9064, 32.14555
526.3885, 31.63772
526.8707, 32.08492
527.3528, 32.83577
527.8349, 33.11112
528.3170, 32.81062
528.7991, 33.05431
529.2813, 34.80408
529.7634, 36.02792
530.2455, 35.26677
530.7276, 33.55836
531.2097, 32.73089
531.6918, 33.48711
532.1740, 34.97334
532.6561, 35.90011
533.1382, 36.28698
533.6203, 36.02023
534.1024, 33.93142
534.5845, 32.32091
535.0667, 32.54506
535.5488, 33.80467
536.0309, 34.42594
536.5130, 33.50214
536.9951, 32.04921
537.4772, 31.73316
537.9594, 32.58716
538.4415, 32.97799
538.9236, 32.24437
539.4057, 31.35966
539.8878, 31.33861
540.3699, 32.02160
540.8521, 32.53193
541.3342, 32.49640
541.8163, 32.29472
542.2984, 32.14313
542.7805, 32.08905
543.2626, 32.40781
543.7448, 33.31329
544.2269, 34.22518
544.7090, 34.05405
545.1911, 32.03798
545.6732, 30.96798
546.1553, 31.48120
546.6375, 32.32791
547.1196, 32.87629
547.6017, 33.17417
548.0838, 33.54006
548.5659, 34.16643
549.0480, 34.80173
549.5302, 34.77122
550.0123, 33.70211
550.4944, 33.08009
550.9765, 33.44405
551.4586, 33.97766
551.9407, 34.41499
552.4229, 34.69343
552.9050, 34.75388
553.3871, 34.69360
553.8692, 34.25661
554.3513, 32.47581
554.8334, 29.40558
555.3156, 27.88501
555.7977, 29.31288
556.2798, 31.99498
556.7619, 33.79980
557.2440, 34.78101
557.7261, 35.39895
558.2083, 35.97728
558.6904, 36.02962
559.1725, 34.80664
559.6546, 32.70753
560.1367, 30.84039
560.6188, 29.72262
561.1010, 29.24135
561.5831, 29.20917
562.0652, 29.76406
562.5473, 30.48618
563.0294, 31.49031
563.5115, 32.52290
563.9937, 33.84760
564.4758, 35.06366
564.9579, 35.32912
565.4400, 34.12798
565.9221, 32.09896
566.4042, 30.17751
566.8864, 28.27924
567.3685, 27.30542
567.8506, 28.05308
568.3327, 29.03002
568.8148, 28.82753
569.2969, 27.82184
569.7791, 27.44380
570.2612, 28.72360
570.7433, 30.31379
571.2254, 31.04081
571.7075, 31.05704
572.1896, 30.94101
572.6718, 30.91422
573.1539, 30.61749
573.6360, 29.35488
574.1181, 26.61006
574.6002, 25.62040
575.0823, 27.73615
575.5645, 30.05509
576.0466, 31.68155
576.5287, 32.56655
577.0108, 32.62885
577.4929, 31.86763
577.9750, 30.78079
578.4572, 29.93432
578.9393, 29.22108
579.4214, 29.60606
579.9035, 32.58441
580.3856, 34.72786
580.8677, 33.48306
581.3499, 30.78058
581.8320, 29.97814
582.3141, 32.58567
582.7962, 35.41476
583.2783, 35.39057
583.7604, 33.28225
584.2426, 31.43355
584.7247, 30.23981
585.2068, 29.35940
585.6889, 28.38647
586.1710, 27.45773
586.6531, 27.55403
587.1352, 29.88160
587.6173, 31.68893
588.0994, 31.85610
588.5815, 31.27469
589.0637, 30.80535
589.5458, 30.69501
590.0279, 31.03588
590.5100, 32.06932
590.9921, 33.66001
591.4742, 34.09370
591.9564, 32.39129
592.4385, 31.18481
592.9206, 31.79390
593.4027, 32.63488
593.8848, 32.13118
594.3669, 30.18745
594.8491, 28.26800
595.3312, 27.29242
595.8133, 27.05203
596.2954, 27.28174
596.7775, 27.98969
597.2596, 28.53638
597.7418, 28.62551
598.2239, 28.37539
598.7060, 27.87975
599.1881, 26.91442
599.6702, 26.58279
600.1523, 27.54257
600.6345, 28.77819
601.1166, 29.84445
601.5987, 30.53950
602.0808, 30.38933
602.5629, 29.09596
603.0450, 27.36559
603.5272, 26.72717
604.0093, 27.51392
604.4914, 28.38887
604.9735, 30.01660
605.4556, 31.00685
605.9377, 30.11759
606.4199, 28.22392
606.9020, 27.12284
607.3841, 27.61477
607.8662, 28.79313
608.3483, 29.92976
608.8304, 30.96304
609.3126, 31.66461
609.7947, 32.02390
610.2768, 31.83381
610.7589, 30.48728
611.2410, 28.23803
611.7231, 27.65877
612.2053, 30.41412
612.6874, 32.70680
613.1695, 33.06069
613.6516, 32.56231
614.1337, 32.76189
614.6158, 33.71355
615.0980, 33.82650
615.5801, 31.30753
616.0622, 26.78596
616.5443, 24.94383
617.0264, 27.24802
617.5085, 29.19563
617.9907, 29.40802
618.4728, 29.05905
618.9549, 28.93007
619.4370, 29.08814
619.9191, 29.34170
620.4012, 29.50237
620.8834, 29.75216
621.3655, 30.68091
621.8476, 32.10932
622.3297, 32.52091
622.8118, 31.08896
623.2939, 29.10571
623.7761, 28.57900
624.2582, 30.00101
624.7403, 30.86663
625.2224, 30.70057
625.7045, 30.50959
626.1866, 30.87438
626.6688, 31.47057
627.1509, 31.75278
627.6330, 31.54060
628.1151, 31.09761
628.5972, 30.69521
629.0793, 30.33304
629.5615, 30.19639
630.0436, 30.42700
630.5257, 30.59989
631.0078, 30.44208
631.4899, 30.13603
631.9720, 29.90936
632.4542, 29.81391
632.9363, 29.64559
633.4184, 29.22036
633.9005, 28.71394
634.3826, 28.11622
634.8647, 27.56028
635.3469, 27.92212
635.8290, 29.90291
636.3111, 32.47955
636.7932, 32.96987
637.2753, 29.59350
637.7574, 27.79582
638.2396, 28.59689
638.7217, 29.75636
639.2038, 30.38403
639.6859, 30.49926
640.1680, 30.32693
640.6501, 29.95944
641.1323, 29.35592
641.6144, 27.99584
642.0965, 26.13429
642.5786, 25.99474
643.0607, 28.31032
643.5428, 30.81894
644.0250, 31.99508
644.5071, 32.07287
644.9892, 32.05302
645.4713, 31.66017
645.9534, 31.65506
646.4355, 32.96626
646.9177, 34.29486
647.3998, 34.12708
647.8819, 32.60909
648.3640, 31.04415
648.8461, 30.31137
649.3282, 30.08448
649.8104, 29.26554
650.2925, 27.31671
650.7746, 26.50443
651.2567, 28.05646
651.7388, 29.86488
652.2209, 30.68860
652.7031, 30.85020
653.1852, 31.28313
653.6673, 32.45739
654.1494, 33.66510
654.6315, 34.32970
655.1136, 34.57192
655.5958, 34.70490
656.0779, 34.78606
656.5600, 34.55511
657.0421, 33.68684
657.5242, 32.33461
658.0063, 31.60436
658.4885, 32.53928
658.9706, 32.70134
659.4527, 31.11618
659.9348, 29.39495
660.4169, 28.55465
660.8990, 28.67091
661.3812, 29.60336
661.8633, 31.58890
662.3454, 33.66008
662.8275, 33.87719
663.3096, 32.31875
663.7917, 31.03076
664.2739, 30.39893
664.7560, 30.23136
665.2381, 30.55124
665.7202, 31.26043
666.2023, 31.63173
666.6844, 31.46399
667.1666, 31.18104
667.6487, 30.83715
668.1308, 30.49346
668.6129, 30.09056
669.0950, 29.71385
669.5771, 29.73262
670.0593, 30.49042
670.5414, 31.72570
671.0235, 32.58865
671.5056, 33.01520
671.9877, 33.27758
672.4698, 32.86667
672.9520, 32.92280
673.4341, 35.11010
673.9162, 38.49223
674.3983, 39.89232
674.8804, 37.53623
675.3625, 34.29225
675.8447, 31.02153
676.3268, 28.50821
676.8089, 28.82072
677.2910, 32.07361
677.7731, 35.47633
678.2552, 36.73879
678.7374, 36.18026
679.2195, 35.53722
679.7016, 34.76019
680.1837, 33.98685
680.6658, 32.89808
681.1479, 32.10786
681.6301, 32.02160
682.1122, 32.56171
682.5943, 33.51546
683.0764, 35.08607
683.5585, 36.43194
684.0406, 36.43790
684.5228, 35.44702
685.0049, 34.45766
685.4870, 33.62880
685.9691, 33.37397
686.4512, 34.28149
686.9333, 36.00289
687.4155, 36.42432
687.8976, 33.78087
688.3797, 32.27287
688.8618, 32.69714
689.3439, 33.80210
689.8260, 35.19958
690.3082, 36.50406
690.7903, 36.94239
691.2724, 35.95230
691.7545, 34.54796
692.2366, 34.21062
692.7188, 34.83114
693.2009, 35.54968
693.6830, 36.28322
694.1651, 36.93692
694.6472, 37.49957
695.1293, 37.91620
695.6115, 37.94013
696.0936, 37.14027
696.5757, 36.74737
697.0578, 37.44734
697.5399, 38.21873
698.0220, 38.50403
698.5042, 38.15276
698.9863, 36.74764
699.4684, 33.97705
699.9505, 31.21645
700.4326, 31.07797
700.9147, 33.53846
701.3969, 35.29883
701.8790, 36.09028
702.3611, 36.13499
702.8432, 34.85340
703.3253, 33.16221
703.8074, 33.22419
704.2896, 35.81165
704.7717, 37.90133
705.2538, 38.06678
705.7359, 37.93835
706.2180, 39.19384
706.7001, 41.28623
707.1823, 42.45207
707.6644, 41.91472
708.1465, 40.76201
708.6286, 40.89133
709.1107, 42.43277
709.5928, 42.56184
710.0750, 40.50739
710.5571, 38.62154
711.0392, 37.78889
711.5213, 37.83556
712.0034, 38.85063
712.4855, 41.01721
712.9677, 42.47857
713.4498, 42.05353
713.9319, 41.20777
714.4140, 41.00929
714.8961, 41.35715
715.3782, 42.01627
715.8604, 42.86492
716.3425, 43.47046
716.8246, 43.07797
717.3067, 41.73289
717.7888, 41.89757
718.2709, 44.48880
718.7531, 46.59013
719.2352, 46.75882
719.7173, 46.42393
720.1994, 46.78334
720.6815, 47.85747
721.1636, 49.20183
721.6458, 51.61629
722.1279, 53.32873
722.6100, 52.17810
723.0921, 49.62228
723.5742, 48.59031
724.0563, 49.66339
724.5385, 51.04861
725.0206, 50.98253
725.5027, 49.87060
725.9848, 50.43614
726.4669, 53.88102
726.9490, 55.80779
727.4312, 53.40916
727.9132, 51.18958
728.3953, 52.80512
728.8774, 57.14478
729.3596, 60.44494
729.8417, 61.46881
730.3238, 61.66973
730.8059, 61.49441
731.2880, 61.26023
731.7701, 61.56933
732.2523, 62.38026
732.7344, 63.00929
733.2165, 62.97615
733.6986, 62.57869
734.1807, 62.59861
734.6628, 63.14210
735.1450, 63.69109
735.6271, 64.18132
736.1092, 64.71935
736.5913, 65.46413
737.0734, 66.24910
737.5555, 66.72167
738.0377, 66.69220
738.5198, 66.97984
739.0019, 68.68343
739.4840, 70.37397
739.9661, 70.23613
740.4482, 68.69833
740.9304, 67.35998
741.4125, 66.90751
741.8946, 66.95231
742.3767, 66.99968
742.8588, 67.05738
743.3409, 66.90044
743.8231, 66.32977
744.3052, 65.94558
744.7873, 66.07040
745.2694, 66.40572
745.7515, 66.68504
746.2336, 66.90079
746.7158, 67.14266
747.1979, 67.81653
747.6800, 68.14617
748.1621, 67.29964
748.6442, 65.85414
749.1263, 64.77820
749.6085, 64.27039
750.0906, 63.92521
750.5727, 63.39406
751.0548, 62.74639
751.5369, 62.21433
752.0190, 61.75373
752.5012, 61.66724
752.9833, 62.55323
753.4654, 63.10554
753.9475, 61.94464
754.4296, 59.70554
754.9117, 57.99262
755.3939, 57.12566
755.8760, 56.54958
756.3581, 56.05923
756.8402, 55.76977
757.3223, 55.98895
757.8044, 56.51563
758.2866, 56.73973
758.7687, 56.35547
759.2508, 55.68975
759.7329, 55.24585
760.2150, 55.01622
760.6971, 54.53349
761.1793, 53.51281
761.6614, 53.23371
762.1435, 54.83509
762.6256, 57.06690
763.1077, 57.71282
763.5898, 56.59602
764.0720, 55.94295
764.5541, 56.32966
765.0362, 56.89702
765.5183, 57.60082
766.0004, 58.05650
766.4825, 57.44580
766.9647, 55.86924
767.4468, 54.72747
767.9289, 55.37274
768.4110, 56.97892
768.8931, 57.60481
769.3752, 57.28049
769.8574, 56.97685
770.3395, 56.85789
770.8216, 56.97807
771.3037, 57.47503
771.7858, 58.25658
772.2679, 58.76853
772.7501, 58.88865
773.2322, 58.93723
773.7143, 59.16076
774.1964, 59.10608
774.6785, 58.00978
775.1606, 56.51262
775.6428, 55.99513
776.1249, 57.01077
776.6070, 58.40910
777.0891, 59.13144
777.5712, 59.42334
778.0533, 59.70019
778.5355, 60.02289
779.0176, 60.76116
779.4997, 62.07999
779.9818, 63.89771
780.4639, 66.31867
780.9460, 69.59023
781.4282, 71.00735
781.9103, 68.53193
782.3924, 67.01946
782.8745, 68.26142
783.3566, 70.16149
783.8387, 70.85432
784.3209, 70.45583
784.8030, 70.32935
785.2851, 71.17960
785.7672, 72.28757
786.2493, 72.99602
786.7314, 73.59438
787.2136, 74.65063
787.6957, 76.19124
788.1778, 77.72698
788.6599, 78.90653
789.1420, 80.04648
789.6241, 82.04753
790.1063, 85.19819
790.5884, 87.54472
791.0705, 88.59062
791.5526, 89.57156
792.0347, 91.38518
792.5168, 93.33864
792.9990, 94.33788
793.4811, 94.20322
793.9632, 94.26355
794.4453, 94.42577
794.9274, 95.30861
795.4095, 97.58688
795.8917, 100.7096
796.3738, 104.2947
796.8559, 107.9725
797.3380, 110.6207
797.8201, 111.1025
798.3022, 110.1842
798.7844, 109.3200
799.2665, 108.5406
799.7486, 109.1008
800.2307, 111.4457
800.7128, 114.4796
801.1949, 117.8141
801.6771, 121.0412
802.1592, 122.5212
802.6413, 120.5537
803.1234, 119.7434
803.6055, 121.1027
804.0876, 122.5832
804.5698, 123.1415
805.0519, 123.1566
805.5340, 123.5574
806.0161, 124.5437
806.4982, 124.6570
806.9803, 122.0632
807.4625, 118.5119
807.9446, 116.2050
808.4267, 115.1084
808.9088, 115.3436
809.3909, 116.8929
809.8730, 117.8045
810.3552, 115.8817
810.8373, 111.8294
811.3194, 110.3273
811.8015, 112.8404
812.2836, 113.6195
812.7657, 110.7335
813.2479, 107.2691
813.7300, 105.5533
814.2121, 104.6432
814.6942, 102.3445
815.1763, 97.60571
815.6584, 93.83857
816.1406, 92.71474
816.6227, 92.49399
817.1048, 92.21816
817.5869, 91.68831
818.0690, 90.56264
818.5511, 88.82457
819.0333, 87.36155
819.5154, 87.55503
819.9975, 88.48454
820.4796, 86.81831
820.9617, 82.63614
821.4438, 79.85281
821.9260, 79.68315
822.4081, 80.30025
822.8902, 80.17822
823.3723, 79.39894
823.8544, 78.48692
824.3365, 77.40089
824.8187, 76.23846
825.3008, 74.57676
825.7829, 73.27894
826.2650, 73.28102
826.7471, 73.77868
827.2292, 73.13912
827.7114, 70.85922
828.1935, 69.26147
828.6756, 70.88707
829.1577, 72.92290
829.6398, 71.76580
830.1219, 68.58253
830.6041, 66.42516
831.0862, 66.17191
831.5683, 67.06262
832.0504, 68.56799
832.5325, 70.42831
833.0146, 71.72493
833.4968, 72.48560
833.9789, 72.32650
834.4610, 70.85780
834.9431, 69.16078
835.4252, 67.72027
835.9073, 66.67944
836.3895, 66.56040
836.8716, 67.75526
837.3537, 68.74602
837.8358, 69.77910
838.3179, 70.17885
838.8000, 69.06902
839.2822, 67.40090
839.7643, 66.30749
840.2464, 66.04376
840.7285, 66.41495
841.2106, 68.18573
841.6927, 69.66909
842.1749, 67.96125
842.6570, 64.38757
843.1391, 62.50115
843.6212, 62.89560
844.1033, 64.39314
844.5854, 66.32792
845.0676, 68.14649
845.5497, 68.02827
846.0318, 65.34256
846.5139, 64.65636
846.9960, 67.01944
847.4781, 69.48846
847.9603, 70.64642
848.4424, 71.23223
848.9245, 72.50747
849.4066, 74.56192
849.8887, 75.68834
850.3708, 74.45806
850.8530, 73.79660
851.3351, 75.48583
851.8172, 77.71785
852.2993, 78.33585
852.7814, 77.70861
853.2635, 78.07019
853.7457, 80.79246
854.2278, 83.79562
854.7099, 84.57713
855.1920, 84.15440
855.6741, 84.75980
856.1563, 86.45237
856.6384, 88.31618
857.1205, 89.97079
857.6026, 91.40181
858.0847, 92.49870
858.5668, 93.28867
859.0490, 94.70200
859.5311, 96.88454
860.0132, 99.25695
860.4953, 101.5808
860.9774, 104.1777
861.4595, 107.6448
861.9417, 111.6477
862.4238, 114.7994
862.9059, 116.0853
863.3880, 118.3660
863.8701, 122.9106
864.3522, 127.8536
864.8344, 131.6376
865.3165, 135.1267
865.7986, 140.1271
866.2807, 146.9643
866.7628, 153.7695
867.2449, 158.6289
867.7271, 163.0735
868.2092, 169.3226
868.6913, 176.8748
869.1733, 184.4681
869.6555, 191.8356
870.1376, 198.9738
870.6197, 205.7749
871.1018, 212.6573
871.5839, 220.7408
872.0660, 230.1993
872.5482, 239.6083
873.0303, 249.1015
873.5124, 257.9830
873.9945, 265.7946
874.4766, 273.0081
874.9587, 280.3804
875.4409, 288.0501
875.9230, 294.2646
876.4051, 297.4210
876.8872, 301.2201
877.3693, 307.0566
877.8514, 313.3284
878.3336, 318.9896
878.8157, 323.9416
879.2978, 328.4449
879.7799, 332.7617
880.2620, 335.6805
880.7441, 335.5006
881.2263, 334.0456
881.7084, 333.5911
882.1905, 333.7711
882.6726, 333.3265
883.1547, 331.8470
883.6368, 329.6400
884.1190, 327.2762
884.6011, 324.0368
885.0832, 317.2993
885.5653, 307.1151
886.0474, 296.9680
886.5295, 287.3543
887.0117, 278.1648
887.4938, 269.5856
887.9759, 261.0227
888.4580, 250.8373
888.9401, 238.1894
889.4222, 227.3587
889.9044, 219.6806
890.3865, 212.1966
890.8686, 204.4853
891.3507, 196.4029
891.8328, 187.3373
892.3149, 177.6314
892.7971, 168.9185
893.2792, 161.7717
893.7613, 155.4021
894.2434, 149.6501
894.7255, 144.3469
895.2076, 139.6595
895.6898, 135.2026
896.1719, 130.1164
896.6540, 124.1367
897.1361, 118.2591
897.6182, 113.2329
898.1003, 109.0260
898.5825, 105.7193
899.0646, 103.2149
899.5467, 101.5061
900.0288, 100.5245
900.5109, 99.08298
900.9930, 96.23828
901.4752, 92.69722
901.9573, 90.41897
902.4394, 89.73228
902.9215, 87.62497
903.4036, 83.43031
903.8857, 79.53716
904.3679, 76.90065
904.8500, 74.99433
905.3321, 73.09558
905.8142, 71.21961
906.2963, 70.30354
906.7784, 71.85432
907.2606, 72.17171
907.7427, 69.45792
908.2248, 66.69674
908.7069, 65.97256
909.1890, 66.49914
909.6711, 66.63469
910.1533, 65.99648
910.6354, 65.27558
911.1175, 65.18177
911.5996, 64.77286
912.0817, 62.79592
912.5638, 60.21015
913.0460, 58.62704
913.5281, 58.15033
914.0102, 57.75758
914.4923, 56.79886
914.9744, 56.40266
915.4565, 55.23615
915.9387, 55.14407
916.4208, 54.68548
916.9029, 53.84673
917.3850, 53.04171
917.8671, 52.42900
918.3492, 51.93584
918.8314, 51.49306
919.3135, 51.08237
919.7956, 50.53016
920.2777, 49.78741
920.7598, 49.11688
921.2419, 48.53207
921.7241, 48.08106
922.2062, 47.88382
922.6883, 47.78249
923.1704, 47.38390
923.6525, 46.49218
924.1346, 46.05920
924.6168, 46.85012
925.0989, 47.10807
925.5810, 45.89102
926.0631, 44.33990
926.5452, 43.40752
927.0273, 43.02920
927.5095, 42.64667
927.9916, 41.96260
928.4737, 41.68720
928.9558, 42.83074
929.4379, 43.92576
929.9200, 43.71563
930.4022, 42.49517
930.8843, 40.34211
931.3664, 37.66406
931.8485, 36.49187
932.3306, 39.21865
932.8127, 42.58840
933.2949, 41.13263
933.7770, 36.87664
934.2591, 35.28560
934.7412, 36.62337
935.2233, 37.92389
935.7054, 37.78788
936.1876, 36.95221
936.6697, 36.20936
937.1518, 35.66986
937.6339, 36.70561
938.1160, 39.70182
938.5981, 39.85831
939.0803, 35.24822
939.5624, 31.12408
940.0445, 31.57187
940.5266, 34.84846
941.0087, 36.28769
941.4908, 35.18534
941.9730, 34.75710
942.4551, 35.60487
942.9372, 36.22163
943.4193, 36.54485
943.9014, 36.14640
944.3835, 33.82766
944.8657, 30.27145
945.3478, 28.75012
945.8299, 30.87071
946.3120, 32.76128
946.7941, 33.53695
947.2762, 33.92977
947.7584, 34.36414
948.2405, 34.70164
948.7226, 34.67690
949.2047, 34.26997
949.6868, 33.69897
950.1689, 32.78165
950.6511, 32.14003
951.1332, 32.65053
951.6153, 33.44927
952.0974, 33.21546
952.5795, 32.24891
953.0616, 31.84868
953.5438, 32.47868
954.0259, 33.19617
954.5080, 33.04445
954.9901, 32.35586
955.4722, 31.50454
955.9543, 30.68111
956.4365, 30.89802
956.9186, 32.20095
957.4007, 32.99762
957.8828, 32.26831
958.3649, 30.90461
958.8470, 30.53872
959.3292, 31.11609
959.8113, 31.17132
960.2934, 30.60516
960.7755, 30.41287
961.2576, 30.93159
961.7397, 31.69111
962.2219, 32.42886
962.7040, 32.98461
963.1861, 32.64769
963.6682, 30.66974
964.1503, 30.15322
964.6324, 32.39315
965.1146, 33.87152
965.5967, 32.93018
966.0788, 31.04208
966.5609, 29.51626
967.0430, 28.36669
967.5251, 27.73184
968.0073, 28.03890
968.4894, 28.21866
968.9715, 27.47561
969.4536, 27.33668
969.9357, 29.87075
970.4178, 32.77670
970.9000, 32.36537
971.3821, 28.57428
971.8642, 25.85030
972.3463, 26.27281
972.8284, 27.39335
973.3105, 28.53726
973.7927, 29.42281
974.2748, 29.66850
974.7569, 29.46950
975.2390, 29.27470
975.7211, 29.20777
976.2032, 29.03946
976.6854, 28.62391
977.1675, 28.00949
977.6496, 27.05545
978.1317, 26.02575
978.6138, 25.30552
979.0959, 24.97353
979.5781, 25.24840
980.0602, 26.21726
980.5423, 27.00725
981.0244, 26.44738
981.5065, 25.03142
981.9886, 23.61500
982.4708, 22.38441
982.9529, 22.48364
983.4350, 24.01743
983.9171, 25.41612
984.3992, 25.74272
984.8813, 25.10169
985.3635, 23.19582
985.8456, 20.21899
986.3277, 19.21842
986.8098, 20.31894
987.2919, 21.80636
987.7740, 23.39286
988.2562, 24.48095
988.7383, 24.51265
989.2204, 23.84304
989.7025, 23.41431
990.1846, 23.20471
990.6667, 23.37330
991.1489, 24.05933
991.6310, 24.76620
992.1131, 25.37496
992.5952, 25.91477
993.0773, 26.58117
993.5594, 27.18724
994.0416, 26.79782
994.5237, 24.21569
995.0058, 23.16684
995.4879, 25.18085
995.9700, 26.78900
996.4521, 26.60540
996.9343, 25.78089
997.4164, 25.33728
997.8985, 25.25017
998.3806, 25.18571
998.8627, 24.94461
999.3448, 25.03493
999.8270, 26.10906
1000.309, 26.89473
1000.791, 26.29872
1001.273, 25.32171
1001.755, 25.46527
1002.238, 26.60303
1002.720, 26.94871
1003.202, 25.35366
1003.684, 23.98491
1004.166, 23.69765
1004.648, 24.09313
1005.130, 25.52802
1005.612, 27.11114
1006.094, 27.44617
1006.577, 26.38888
1007.059, 24.96974
1007.541, 23.42538
1008.023, 22.24460
1008.505, 21.70148
1008.987, 21.79946
1009.469, 23.12821
1009.951, 24.94335
1010.433, 25.62890
1010.916, 24.82513
1011.398, 23.42223
1011.880, 21.53827
1012.362, 20.33330
1012.844, 22.30790
1013.326, 25.45378
1013.808, 25.67813
1014.290, 23.46008
1014.773, 21.47632
1015.255, 20.72984
1015.737, 21.13468
1016.219, 23.07044
1016.701, 25.33015
1017.183, 25.39887
1017.665, 23.90292
1018.147, 22.60710
1018.629, 21.78693
1019.112, 21.97064
1019.594, 23.34469
1020.076, 24.77007
1020.558, 25.01398
1021.040, 24.44155
1021.522, 24.06092
1022.004, 23.85641
1022.486, 23.69296
1022.969, 23.55472
1023.451, 23.28591
1023.933, 22.77315
1024.415, 22.61560
1024.897, 23.69151
1025.379, 25.58204
1025.861, 26.40523
1026.343, 26.17380
1026.825, 24.02351
1027.308, 19.33490
1027.790, 16.72157
1028.272, 18.71293
1028.754, 22.46593
1029.236, 24.56108
1029.718, 25.06374
1030.200, 24.20632
1030.682, 21.39823
1031.165, 20.29578
1031.647, 21.98501
1032.129, 22.94322
1032.611, 20.91331
1033.093, 18.54886
1033.575, 19.69757
1034.057, 23.97632
1034.539, 25.81244
1035.021, 24.25926
1035.504, 22.83086
1035.986, 21.66909
1036.468, 20.91628
1036.950, 20.61373
1037.432, 20.78686
1037.914, 21.56554
1038.396, 22.91809
1038.878, 24.21058
1039.360, 25.97994
1039.843, 26.61093
1040.325, 25.15375
1040.807, 23.74320
1041.289, 23.28862
1041.771, 23.37010
1042.253, 23.68044
1042.735, 24.18090
1043.217, 24.10858
1043.700, 22.55730
1044.182, 21.85967
1044.664, 22.80651
1045.146, 23.75835
1045.628, 24.60095
1046.110, 24.72797
1046.592, 22.66183
1047.074, 18.82538
1047.557, 17.23034
1048.039, 20.31996
1048.521, 22.13333
1049.003, 20.75056
1049.485, 19.55795
1049.967, 20.55647
1050.449, 22.17383
1050.931, 22.48609
1051.413, 21.66407
1051.896, 21.37621
1052.378, 22.28332
1052.860, 22.90327
1053.342, 22.83620
1053.824, 22.57121
1054.306, 22.02327
1054.788, 21.62533
1055.270, 22.10699
1055.752, 23.20053
1056.235, 23.54249
1056.717, 22.36323
1057.199, 21.71822
1057.681, 22.72393
1058.163, 23.70719
1058.645, 24.21128
1059.127, 23.98923
1059.609, 22.18894
1060.092, 19.47036
1060.574, 18.04417
1061.056, 18.58890
1061.538, 19.76589
1062.020, 22.39301
1062.502, 24.03337
1062.984, 22.63832
1063.466, 20.27535
1063.948, 18.53633
1064.431, 17.77674
1064.913, 18.55074
1065.395, 21.34311
1065.877, 23.37667
1066.359, 23.30117
1066.841, 22.52160
1067.323, 20.85901
1067.805, 19.60236
1068.287, 20.56515
1068.770, 22.82689
1069.252, 23.91111
1069.734, 23.16940
1070.216, 22.31359
1070.698, 22.25109
1071.180, 21.99598
1071.662, 20.50262
1072.144, 19.04825
1072.627, 18.86794
1073.109, 19.64091
1073.591, 20.67014
1074.073, 21.78062
1074.555, 22.56616
1075.037, 23.16176
1075.519, 22.99789
1076.001, 20.77875
1076.484, 18.61608
1076.966, 18.56330
1077.448, 19.79193
1077.930, 20.87509
1078.412, 21.47851
1078.894, 21.47027
1079.376, 20.13387
1079.858, 19.23905
1080.340, 20.08769
1080.823, 21.25888
1081.305, 21.72700
1081.787, 21.71778
1082.269, 21.76194
1082.751, 21.85276
1083.233, 21.39049
1083.715, 19.68535
1084.197, 18.51341
1084.679, 18.91323
1085.161, 19.91369
1085.644, 21.45336
1086.126, 22.78122
1086.608, 22.90492
1087.090, 21.95724
1087.572, 20.80967
1088.054, 19.57316
1088.536, 18.78996
1089.018, 18.76301
1089.501, 19.16971
1089.983, 20.37132
1090.465, 21.48182
1090.947, 21.55668
1091.429, 20.72342
1091.911, 19.40926
1092.393, 17.59663
1092.875, 16.39112
1093.358, 16.25808
1093.840, 16.77126
1094.322, 18.63012
1094.804, 20.23842
1095.286, 19.81203
1095.768, 18.18291
1096.250, 16.93911
1096.732, 16.37088
1097.214, 16.89484
1097.697, 20.37052
1098.179, 22.58739
1098.661, 20.44650
1099.143, 18.14510
1099.625, 19.45516
1100.107, 22.13535
1100.589, 22.10678
1101.071, 19.34644
1101.553, 18.20234
1102.036, 21.32751
1102.518, 23.46168
1103.000, 22.73846
1103.482, 21.22556
1103.964, 19.23454
1104.446, 17.61341
1104.928, 17.49511
1105.410, 18.59532
1105.893, 19.41702
1106.375, 19.75832
1106.857, 19.72355
1107.339, 18.43413
1107.821, 17.92775
1108.303, 20.29146
1108.785, 22.56354
1109.267, 21.56166
1109.750, 18.60265
1110.232, 17.32678
1110.714, 18.40170
1111.196, 19.08380
1111.678, 19.09112
1112.160, 18.69608
1112.642, 17.52097
1113.124, 16.41725
1113.606, 15.78582
1114.089, 15.60900
1114.571, 15.85372
1115.053, 16.52420
1115.535, 17.53496
1116.017, 19.22645
1116.499, 20.72197
1116.981, 22.62175
1117.463, 23.42839
1117.945, 21.99828
1118.428, 19.66440
1118.910, 17.43387
1119.392, 15.53476
1119.874, 15.38749
1120.356, 18.09324
1120.838, 19.72753
1121.320, 19.99031
1121.802, 19.69484
1122.285, 18.59269
1122.767, 17.82356
1123.249, 18.60541
1123.731, 20.06589
1124.213, 19.87085
1124.695, 17.67291
1125.177, 17.16532
1125.659, 18.96907
1126.141, 20.48104
1126.624, 21.34671
1127.106, 21.53232
1127.588, 20.85334
1128.070, 19.81951
1128.552, 19.05807
1129.034, 18.63573
1129.516, 19.46129
1129.998, 21.88622
1130.480, 22.46850
1130.963, 20.68458
1131.445, 18.57576
1131.927, 16.79261
1132.409, 15.61989
1132.891, 15.32405
1133.373, 15.86614
1133.855, 17.61993
1134.337, 20.42385
1134.820, 20.99157
1135.302, 19.31063
1135.784, 18.32851
1136.266, 18.72830
1136.748, 19.06592
1137.230, 18.41663
1137.712, 17.42020
1138.194, 16.87291
1138.677, 16.83864
1139.159, 17.90970
1139.641, 19.72828
1140.123, 20.47000
1140.605, 20.10065
1141.087, 20.07383
1141.569, 20.94717
1142.051, 22.06425
1142.533, 23.05877
1143.016, 23.40255
1143.498, 21.46887
1143.980, 18.60888
1144.462, 17.93487
1144.944, 18.91403
1145.426, 19.65914
1145.908, 19.66663
1146.390, 18.98833
1146.872, 17.54010
1147.355, 16.32447
1147.837, 16.49582
1148.319, 17.26571
1148.801, 18.02257
1149.283, 18.55154
1149.765, 18.58463
1150.247, 18.12013
1150.729, 16.74089
1151.212, 14.45903
1151.694, 13.99505
1152.176, 19.19182
1152.658, 23.64118
1153.140, 22.19252
1153.622, 19.17517
1154.104, 18.16989
1154.586, 18.46148
1155.068, 18.81676
1155.551, 18.90754
1156.033, 18.27614
1156.515, 16.28531
1156.997, 15.03649
1157.479, 16.22119
1157.961, 17.03752
1158.443, 14.94827
1158.925, 13.03697
1159.407, 14.80540
1159.890, 18.67239
1160.372, 20.62734
1160.854, 20.10087
1161.336, 20.02497
1161.818, 21.20864
1162.300, 21.99609
1162.782, 22.36084
1163.264, 22.06452
1163.747, 20.43726
1164.229, 18.63432
1164.711, 18.04660
1165.193, 18.45197
1165.675, 18.64932
1166.157, 18.60961
1166.639, 18.41119
1167.121, 17.88969
1167.604, 17.73358
1168.086, 18.22029
1168.568, 18.88267
1169.050, 19.56632
1169.532, 19.78524
1170.014, 18.29705
1170.496, 19.37096
1170.978, 15.98415
1171.460, 19.87239
1171.943, 22.00574
1172.425, 21.78296
1172.907, 21.00724
1173.389, 20.36318
1173.871, 19.78963
1174.353, 19.22889
1174.835, 18.71534
1175.317, 18.31028
1175.799, 18.02246
1176.282, 17.70911
1176.764, 17.54100
1177.246, 18.73829
1177.728, 21.02126
1178.210, 21.53507
1178.692, 18.94208
1179.174, 16.01621
1179.656, 15.36710
1180.139, 16.00119
1180.621, 17.47993
1181.103, 18.86225
1181.585, 18.34267
1182.067, 16.71866
1182.549, 15.78479
1183.031, 15.95658
1183.513, 17.03208
1183.995, 19.29266
1184.478, 21.10562
1184.960, 21.12985
1185.442, 20.84622
1185.924, 21.70495
1186.406, 22.36449
1186.888, 20.58683
1187.370, 17.72765
1187.852, 17.22569
1188.334, 19.66920
1188.817, 21.54031
1189.299, 22.21034
1189.781, 22.13287
1190.263, 20.65174
1190.745, 19.32700
1191.227, 18.93977
1191.709, 18.97168
1192.191, 19.03042
1192.674, 19.08455
1193.156, 18.99051
1193.638, 18.64668
1194.120, 18.76880
1194.602, 19.79675
1195.084, 19.71447
1195.566, 17.72034
1196.048, 16.19784
1196.531, 16.53705
1197.013, 17.48281
1197.495, 17.38429
1197.977, 16.66211
1198.459, 17.04717
1198.941, 18.44162
1199.423, 19.54974
1199.905, 20.28579
1200.387, 20.47763
1200.870, 20.11720
1201.352, 19.59734
1201.834, 19.13608
1202.316, 19.06038
1202.798, 20.07194
1203.280, 21.49231
1203.762, 22.22356
1204.244, 22.37856
1204.726, 21.84862
1205.209, 21.01134
1205.691, 20.93024
1206.173, 21.71026
1206.655, 22.28021
1207.137, 22.17772
1207.619, 21.40069
1208.101, 18.93428
1208.583, 16.94878
1209.066, 17.67747
1209.548, 19.19809
1210.030, 19.33382
1210.512, 18.56193
1210.994, 18.32533
1211.476, 18.84512
1211.958, 19.52695
1212.440, 20.67375
1212.922, 21.31734
1213.405, 20.85128
1213.887, 20.47668
1214.369, 20.75296
1214.851, 21.18216
1215.333, 21.52081
1215.815, 21.57826
1216.297, 20.79433
1216.779, 19.08501
1217.261, 17.63673
1217.744, 16.36625
1218.226, 15.76796
1218.708, 15.87931
1219.190, 17.14837
1219.672, 19.95247
1220.154, 22.19465
1220.636, 21.68844
1221.118, 22.70796
1221.600, 19.91422
1222.083, 21.15616
1222.565, 20.03202
1223.047, 17.32124
1223.529, 16.25271
1224.011, 17.04674
1224.493, 18.07433
1224.975, 18.65845
1225.457, 19.02209
1225.940, 19.33186
1226.422, 19.50809
1226.904, 19.34756
1227.386, 19.13383
1227.868, 19.43688
1228.350, 19.70778
1228.832, 18.64537
1229.314, 16.82669
1229.797, 16.47120
1230.279, 18.24595
1230.761, 20.00830
1231.243, 21.46523
1231.725, 22.38238
1232.207, 23.01401
1232.689, 22.72390
1233.171, 20.04527
1233.653, 17.26171
1234.135, 16.69147
1234.618, 17.89349
1235.100, 19.50490
1235.582, 21.75790
1236.064, 22.66669
1236.546, 21.87189
1237.028, 21.78945
1237.510, 23.00168
1237.992, 23.36819
1238.475, 21.82483
1238.957, 19.85601
1239.439, 18.90969
1239.921, 18.84410
1240.403, 19.60513
1240.885, 20.92968
1241.367, 22.37261
1241.849, 23.58660
1242.332, 23.46549
1242.814, 22.07823
1243.296, 20.21770
1243.778, 18.26076
1244.260, 16.92073
1244.742, 16.70252
1245.224, 17.26484
1245.706, 19.30773
1246.188, 21.00736
1246.671, 20.10999
1247.153, 18.52985
1247.635, 19.07997
1248.117, 21.03303
1248.599, 21.57698
1249.081, 20.12213
1249.563, 19.03805
1250.045, 18.87662
1250.527, 18.61901
1251.010, 17.93349
1251.492, 17.58969
1251.974, 18.01040
1252.456, 18.63520
1252.938, 18.98807
1253.420, 19.19015
1253.902, 19.67278
1254.384, 20.33601
1254.867, 19.13461
1255.349, 16.25131
1255.831, 15.66592
1256.313, 17.56619
1256.795, 18.73565
1257.277, 18.16786
1257.759, 17.84676
1258.241, 19.34045
1258.724, 20.71810
1259.206, 18.69341
1259.688, 20.09728
1260.170, 17.31054
1260.652, 19.90148
1261.134, 20.44952
1261.616, 19.50040
1262.098, 18.79182
1262.580, 18.74237
1263.063, 19.47443
1263.545, 21.65549
1264.027, 22.98809
1264.509, 22.59937
1264.991, 21.64617
1265.473, 19.83670
1265.955, 18.35344
1266.437, 18.03817
1266.919, 18.32494
1267.402, 18.41277
1267.884, 18.39743
1268.366, 18.94904
1268.848, 20.16373
1269.330, 21.05942
1269.812, 21.61768
1270.294, 21.69173
1270.776, 21.26328
1271.259, 20.94298
1271.741, 21.03807
1272.223, 21.18292
1272.705, 21.01378
1273.187, 20.65822
1273.669, 20.08427
1274.151, 19.62163
1274.633, 20.34942
1275.115, 21.26806
1275.598, 19.98355
1276.080, 17.24276
1276.562, 16.30475
1277.044, 18.00967
1277.526, 18.90379
1278.008, 16.34202
1278.490, 14.92425
1278.972, 16.85898
1279.454, 18.84780
1279.937, 18.98595
1280.419, 19.08342
1280.901, 20.81634
1281.383, 23.14191
1281.865, 24.05232
1282.347, 23.61136
1282.829, 22.65237
1283.311, 21.12466
1283.794, 19.96875
1284.276, 19.24882
1284.758, 18.68422
1285.240, 18.20975
1285.722, 17.98944
1286.204, 18.11844
##END=



