##NAMES=Vonsenite
##RRUFFID=R050477
##IDEAL CHEMISTRY=Fe^2+^_2_Fe^3+^O_2_(BO_3_)
##LOCALITY=North Hill, Riverside, California, USA
##OWNER=RRUFF
##SOURCE=California Institute of Technology
##DESCRIPTION=Aggregate of black granules
##STATUS=The identification of this mineral has been confirmed by X-ray diffraction and chemical analysis
##URL=rruff.info/R050477
##MEASURED CHEMISTRY=(Fe^2+^_0.63_Mg_0.37_)_2_Fe^3+^_1.00_BO_5_
91.00781, 11.13960
91.48993, 11.40435
91.97205, 11.51056
92.45416, 11.30704
92.93628, 10.95159
93.41840, 10.84032
93.90051, 11.13938
94.38263, 11.52698
94.86475, 11.36713
95.34686, 10.66586
95.82898, 9.999710
96.31110, 9.902017
96.79321, 10.31897
97.27533, 10.70142
97.75745, 10.94178
98.23956, 11.05115
98.72168, 11.03932
99.20380, 10.88538
99.68591, 10.67647
100.1680, 10.47149
100.6501, 10.24809
101.1323, 10.15194
101.6144, 10.27640
102.0965, 10.65076
102.5786, 10.87777
103.0607, 10.90770
103.5428, 10.83610
104.0250, 10.82232
104.5071, 10.89686
104.9892, 10.97786
105.4713, 11.02182
105.9534, 10.95519
106.4355, 11.00999
106.9177, 11.18254
107.3998, 11.47525
107.8819, 11.90901
108.3640, 12.60995
108.8461, 13.34570
109.3282, 14.01851
109.8104, 14.60737
110.2925, 15.14318
110.7746, 15.55235
111.2567, 15.86298
111.7388, 16.31399
112.2209, 16.98755
112.7031, 17.77314
113.1852, 18.60289
113.6673, 19.59331
114.1494, 20.49690
114.6315, 21.24419
115.1136, 21.83718
115.5958, 22.35448
116.0779, 22.62285
116.5600, 22.88832
117.0421, 23.42421
117.5242, 24.76628
118.0063, 26.08097
118.4885, 26.82590
118.9706, 26.83309
119.4527, 26.93871
119.9348, 27.63741
120.4169, 28.74895
120.8990, 29.95776
121.3812, 30.93741
121.8633, 32.01848
122.3454, 33.62465
122.8275, 36.06962
123.3096, 38.43499
123.7917, 39.85801
124.2739, 40.49562
124.7560, 40.92408
125.2381, 41.38597
125.7202, 41.90435
126.2023, 42.51777
126.6844, 43.26575
127.1666, 44.07896
127.6487, 44.85587
128.1308, 45.60351
128.6129, 46.37226
129.0950, 47.31627
129.5771, 48.35089
130.0593, 49.17948
130.5414, 49.72392
131.0235, 49.99690
131.5056, 49.87661
131.9877, 49.15423
132.4698, 48.16425
132.9520, 47.47500
133.4341, 47.07547
133.9162, 46.86137
134.3983, 46.77731
134.8804, 46.83329
135.3625, 47.15791
135.8447, 47.77129
136.3268, 48.58929
136.8089, 49.50540
137.2910, 50.51385
137.7731, 51.66706
138.2552, 53.11274
138.7374, 54.92922
139.2195, 56.34978
139.7016, 57.38927
140.1837, 58.05573
140.6658, 58.29377
141.1479, 57.97408
141.6301, 57.53907
142.1122, 57.09431
142.5943, 56.39482
143.0764, 56.38588
143.5585, 57.39183
144.0406, 59.06156
144.5228, 60.16879
145.0049, 60.37938
145.4870, 60.44097
145.9691, 60.79907
146.4512, 62.00243
146.9333, 62.60823
147.4155, 62.35089
147.8976, 61.32526
148.3797, 60.43340
148.8618, 59.82487
149.3439, 59.23337
149.8260, 58.48830
150.3082, 57.19704
150.7903, 56.17941
151.2724, 55.60275
151.7545, 55.48260
152.2366, 55.22277
152.7188, 54.58971
153.2009, 53.91019
153.6830, 53.45353
154.1651, 53.61757
154.6472, 53.63802
155.1293, 53.27983
155.6115, 52.48397
156.0936, 51.75668
156.5757, 51.20700
157.0578, 50.75806
157.5399, 50.33411
158.0220, 49.83063
158.5042, 49.42264
158.9863, 49.19693
159.4684, 49.18483
159.9505, 49.22248
160.4326, 49.30055
160.9147, 49.39250
161.3969, 49.45842
161.8790, 49.44549
162.3611, 49.43183
162.8432, 49.48358
163.3253, 49.65524
163.8074, 49.74603
164.2896, 49.61068
164.7717, 49.32839
165.2538, 49.05759
165.7359, 48.86863
166.2180, 48.71676
166.7001, 48.54769
167.1823, 48.30056
167.6644, 48.15255
168.1465, 48.22594
168.6286, 48.48889
169.1107, 48.85364
169.5928, 49.39198
170.0750, 49.95678
170.5571, 50.42039
171.0392, 50.79206
171.5213, 50.98651
172.0034, 50.76336
172.4855, 50.22763
172.9677, 49.84773
173.4498, 50.05985
173.9319, 50.57664
174.4140, 50.98980
174.8961, 51.16679
175.3782, 51.22845
175.8604, 51.33167
176.3425, 51.46315
176.8246, 51.50937
177.3067, 51.26923
177.7888, 50.88681
178.2709, 50.66361
178.7531, 50.73748
179.2352, 50.97331
179.7173, 51.24843
180.1994, 51.55831
180.6815, 51.73493
181.1636, 51.49461
181.6458, 50.97600
182.1279, 50.60423
182.6100, 50.58178
183.0921, 50.76195
183.5742, 50.88194
184.0563, 50.94176
184.5385, 50.90462
185.0206, 50.58494
185.5027, 50.07251
185.9848, 49.82954
186.4669, 50.23866
186.9490, 51.01046
187.4312, 51.22930
187.9133, 50.83863
188.3954, 50.25018
188.8775, 49.91722
189.3596, 49.81931
189.8417, 49.75484
190.3239, 49.66839
190.8060, 49.55735
191.2881, 49.38520
191.7702, 49.13247
192.2523, 48.90272
192.7344, 48.90413
193.2166, 49.13646
193.6987, 49.23271
194.1808, 48.98730
194.6629, 48.43362
195.1450, 47.93383
195.6271, 47.47332
196.1093, 47.10259
196.5914, 46.89360
197.0735, 46.84813
197.5556, 46.93524
198.0377, 47.26985
198.5198, 47.85882
199.0020, 48.00372
199.4841, 47.59560
199.9662, 46.93439
200.4483, 46.44349
200.9304, 46.11441
201.4125, 46.00182
201.8947, 46.28461
202.3768, 47.03031
202.8589, 47.24659
203.3410, 46.76272
203.8231, 45.96625
204.3052, 45.58624
204.7874, 45.68212
205.2695, 45.92799
205.7516, 46.21240
206.2337, 46.54868
206.7158, 46.84085
207.1979, 47.10197
207.6801, 47.30630
208.1622, 47.36800
208.6443, 47.23385
209.1264, 47.12332
209.6085, 47.15377
210.0906, 47.36607
210.5728, 47.54441
211.0549, 47.71404
211.5370, 47.82690
212.0191, 47.71362
212.5012, 47.23738
212.9833, 46.87028
213.4655, 46.90629
213.9476, 47.52431
214.4297, 47.84286
214.9118, 47.67193
215.3939, 47.28220
215.8760, 47.40944
216.3581, 48.30715
216.8403, 49.19719
217.3224, 49.66965
217.8045, 49.56518
218.2866, 49.53996
218.7687, 49.60899
219.2508, 49.76276
219.7330, 49.98068
220.2151, 50.27865
220.6972, 50.60722
221.1793, 50.95253
221.6614, 51.35544
222.1435, 51.65349
222.6257, 51.76430
223.1078, 51.79287
223.5899, 52.06635
224.0720, 52.75942
224.5541, 53.41981
225.0362, 53.80629
225.5184, 53.69461
226.0005, 53.88113
226.4826, 54.53256
226.9647, 55.45201
227.4468, 56.10787
227.9289, 56.42717
228.4111, 56.59011
228.8932, 56.64632
229.3753, 56.48199
229.8574, 56.48297
230.3395, 56.67275
230.8216, 57.02607
231.3038, 57.52796
231.7859, 58.40538
232.2680, 59.09078
232.7501, 59.27277
233.2322, 58.60455
233.7143, 58.22044
234.1965, 58.21683
234.6786, 58.47925
235.1607, 58.72200
235.6428, 59.08235
236.1249, 59.22146
236.6070, 58.94963
237.0892, 58.01750
237.5713, 57.22298
238.0534, 56.60148
238.5355, 56.10772
239.0176, 55.64378
239.4997, 55.27733
239.9819, 54.83267
240.4640, 54.23126
240.9461, 53.40945
241.4282, 52.56023
241.9103, 51.59694
242.3924, 50.63412
242.8746, 49.97867
243.3567, 49.85000
243.8388, 49.69640
244.3209, 49.28319
244.8030, 48.50608
245.2851, 47.75746
245.7673, 47.02769
246.2494, 46.33089
246.7315, 45.68473
247.2136, 45.03076
247.6957, 44.52041
248.1778, 44.22550
248.6600, 44.20521
249.1421, 44.26100
249.6242, 44.56223
250.1063, 44.85123
250.5884, 44.55375
251.0705, 43.24925
251.5527, 42.07143
252.0348, 41.47460
252.5169, 41.62647
252.9990, 41.74279
253.4811, 41.84918
253.9632, 41.90398
254.4454, 41.81622
254.9275, 41.50341
255.4096, 41.20414
255.8917, 41.00085
256.3738, 40.91541
256.8560, 40.83818
257.3381, 40.79243
257.8202, 40.73515
258.3023, 40.57167
258.7844, 40.20700
259.2665, 39.95226
259.7487, 39.96626
260.2308, 40.32489
260.7129, 40.39027
261.1950, 40.02080
261.6771, 39.51307
262.1592, 39.28782
262.6414, 39.45349
263.1235, 39.63550
263.6056, 39.75048
264.0877, 39.80257
264.5698, 39.70150
265.0519, 39.33822
265.5341, 38.97105
266.0162, 38.94204
266.4983, 39.37622
266.9804, 39.76763
267.4625, 40.00535
267.9446, 40.08868
268.4268, 40.05321
268.9089, 39.85175
269.3910, 39.61641
269.8731, 39.48137
270.3552, 39.46394
270.8373, 39.48047
271.3195, 39.51180
271.8016, 39.55994
272.2837, 39.68403
272.7658, 39.95184
273.2479, 40.14473
273.7300, 39.97998
274.2122, 39.36822
274.6943, 38.97083
275.1764, 38.97412
275.6585, 39.29753
276.1406, 39.51671
276.6227, 39.61056
277.1049, 39.67141
277.5870, 39.78868
278.0691, 39.97287
278.5512, 40.09401
279.0333, 40.12822
279.5154, 40.08718
279.9976, 39.98017
280.4797, 39.78614
280.9618, 39.63314
281.4439, 39.65169
281.9260, 39.84404
282.4081, 39.93343
282.8903, 39.85418
283.3724, 39.68563
283.8545, 39.64464
284.3366, 39.74702
284.8187, 39.80848
285.3008, 39.63551
285.7830, 39.25957
286.2651, 39.10015
286.7472, 39.24855
287.2293, 39.52179
287.7114, 39.57308
288.1935, 39.40399
288.6757, 39.21380
289.1578, 39.06331
289.6399, 38.97101
290.1220, 39.07452
290.6041, 39.41906
291.0862, 39.83546
291.5684, 40.11860
292.0505, 40.26984
292.5326, 40.29753
293.0147, 40.13643
293.4968, 39.85368
293.9789, 39.66048
294.4611, 39.57661
294.9432, 39.50736
295.4253, 39.29667
295.9074, 38.98824
296.3895, 38.77472
296.8716, 38.81115
297.3538, 38.97885
297.8359, 39.02543
298.3180, 38.94699
298.8001, 38.84663
299.2822, 38.89320
299.7643, 39.00050
300.2465, 38.93391
300.7286, 38.45075
301.2107, 37.85708
301.6928, 37.60516
302.1749, 37.67849
302.6570, 37.79015
303.1392, 37.68351
303.6213, 37.46546
304.1034, 37.32826
304.5855, 37.37692
305.0676, 37.46732
305.5497, 37.45639
306.0319, 37.35624
306.5140, 37.22890
306.9961, 37.03987
307.4782, 36.87502
307.9603, 36.85717
308.4424, 37.09127
308.9246, 37.33333
309.4067, 37.37403
309.8888, 37.26522
310.3709, 37.15549
310.8530, 37.21125
311.3351, 37.25330
311.8173, 37.08288
312.2994, 36.57515
312.7815, 36.13980
313.2636, 36.14737
313.7457, 36.38917
314.2278, 36.49014
314.7100, 36.04851
315.1921, 35.59321
315.6742, 35.50380
316.1563, 35.88625
316.6384, 36.20313
317.1205, 36.17106
317.6027, 35.95252
318.0848, 35.75259
318.5669, 35.63161
319.0490, 35.54441
319.5311, 35.51648
320.0132, 35.55364
320.4954, 35.47409
320.9775, 35.01051
321.4596, 34.51203
321.9417, 34.28288
322.4238, 34.69745
322.9059, 35.06159
323.3881, 35.19810
323.8702, 35.12035
324.3523, 35.04216
324.8344, 35.05039
325.3165, 35.03010
325.7986, 34.91377
326.2808, 34.47061
326.7629, 34.19756
327.2450, 34.24421
327.7271, 34.51592
328.2092, 34.63745
328.6913, 34.43567
329.1735, 34.23375
329.6556, 34.17074
330.1377, 34.40846
330.6198, 34.46893
331.1019, 34.19939
331.5840, 33.79790
332.0662, 33.64888
332.5483, 33.93743
333.0304, 34.21185
333.5125, 34.30373
333.9946, 34.15787
334.4767, 34.14429
334.9589, 34.36864
335.4410, 34.62194
335.9231, 34.60455
336.4052, 34.18264
336.8873, 33.84436
337.3694, 33.72377
337.8516, 33.80918
338.3336, 33.90781
338.8158, 34.04284
339.2979, 34.14366
339.7800, 34.13286
340.2621, 33.99436
340.7442, 33.86031
341.2263, 33.75740
341.7085, 33.67479
342.1906, 33.55842
342.6727, 33.39165
343.1548, 33.28935
343.6369, 33.36771
344.1190, 33.61260
344.6012, 33.79975
345.0833, 33.88903
345.5654, 33.93948
346.0475, 34.07219
346.5296, 34.27974
347.0117, 34.45810
347.4939, 34.54272
347.9760, 34.55174
348.4581, 34.51249
348.9402, 34.40828
349.4223, 34.35727
349.9044, 34.58384
350.3866, 34.99645
350.8687, 35.28325
351.3508, 35.21719
351.8329, 34.99556
352.3150, 34.96645
352.7971, 35.12233
353.2793, 35.21591
353.7614, 34.93893
354.2435, 34.49347
354.7256, 34.21144
355.2077, 34.25288
355.6898, 34.41053
356.1720, 34.53580
356.6541, 34.63105
357.1362, 34.70691
357.6183, 34.74675
358.1004, 34.78300
358.5826, 34.84915
359.0647, 34.96433
359.5468, 35.07629
360.0289, 35.15253
360.5110, 35.20601
360.9931, 35.26167
361.4753, 35.35527
361.9574, 35.43210
362.4395, 35.44571
362.9216, 35.37555
363.4037, 35.35054
363.8858, 35.43303
364.3680, 35.57085
364.8501, 35.70973
365.3322, 35.74491
365.8143, 35.87450
366.2964, 36.25483
366.7785, 36.87608
367.2607, 37.23898
367.7428, 37.09969
368.2249, 36.82423
368.7070, 36.63189
369.1891, 36.60476
369.6712, 36.55476
370.1534, 36.40034
370.6355, 36.21566
371.1176, 36.24719
371.5997, 36.66327
372.0818, 37.07829
372.5639, 37.34465
373.0461, 37.43442
373.5282, 37.44869
374.0103, 37.32713
374.4924, 37.18502
374.9745, 37.20188
375.4566, 37.40639
375.9388, 37.68780
376.4209, 38.06567
376.9030, 38.52666
377.3851, 38.75144
377.8672, 38.70042
378.3493, 38.55427
378.8315, 38.50179
379.3136, 38.54639
379.7957, 38.46714
380.2778, 38.12290
380.7599, 37.73027
381.2420, 37.91387
381.7242, 38.67000
382.2063, 39.43237
382.6884, 39.79802
383.1705, 39.86069
383.6526, 39.92223
384.1347, 40.00864
384.6169, 40.10210
385.0990, 40.14142
385.5811, 40.15850
386.0632, 40.25744
386.5453, 40.58195
387.0274, 40.97326
387.5096, 41.19352
387.9917, 41.24092
388.4738, 41.27728
388.9559, 41.42204
389.4380, 41.63130
389.9201, 41.84150
390.4023, 41.94163
390.8844, 42.14193
391.3665, 42.75896
391.8486, 43.64841
392.3307, 44.25643
392.8128, 44.00740
393.2950, 43.59000
393.7771, 43.50002
394.2592, 43.95832
394.7413, 44.35910
395.2234, 44.41584
395.7055, 44.30977
396.1877, 44.32140
396.6698, 44.66555
397.1519, 44.98980
397.6340, 45.17267
398.1161, 45.19160
398.5982, 45.23777
399.0804, 45.38966
399.5625, 45.53420
400.0446, 45.58221
400.5267, 45.35762
401.0088, 45.30315
401.4909, 45.54636
401.9731, 45.99648
402.4552, 46.27460
402.9373, 46.30765
403.4194, 46.28939
403.9015, 46.33569
404.3836, 46.51057
404.8658, 46.45335
405.3479, 46.04632
405.8300, 45.56630
406.3121, 45.50354
406.7942, 45.93976
407.2763, 46.20975
407.7585, 46.04761
408.2406, 45.53352
408.7227, 45.13504
409.2048, 44.86758
409.6869, 44.59610
410.1690, 44.14856
410.6512, 43.57749
411.1333, 43.15049
411.6154, 42.98735
412.0975, 42.86075
412.5796, 42.35835
413.0617, 41.55011
413.5439, 40.77697
414.0260, 40.15386
414.5081, 39.70635
414.9902, 39.57269
415.4723, 39.79636
415.9544, 39.94710
416.4366, 39.59457
416.9187, 38.96099
417.4008, 38.38131
417.8829, 38.04005
418.3650, 37.73418
418.8471, 37.33265
419.3293, 36.85396
419.8114, 36.38897
420.2935, 35.83538
420.7756, 35.40203
421.2577, 35.28937
421.7398, 35.81575
422.2220, 36.09661
422.7041, 35.75438
423.1862, 35.07337
423.6683, 34.56597
424.1504, 34.42971
424.6325, 34.33123
425.1147, 34.17841
425.5968, 33.95644
426.0789, 33.79182
426.5610, 33.69458
427.0431, 33.64532
427.5252, 33.64120
428.0074, 33.72898
428.4895, 33.74577
428.9716, 33.63984
429.4537, 33.46225
429.9358, 33.38491
430.4179, 33.43158
430.9001, 33.49348
431.3822, 33.52666
431.8643, 33.53133
432.3464, 33.48454
432.8285, 33.37651
433.3106, 33.24902
433.7928, 33.13785
434.2749, 33.04642
434.7570, 33.00578
435.2391, 33.03716
435.7212, 33.11598
436.2033, 33.24784
436.6855, 33.41721
437.1676, 33.47705
437.6497, 33.15031
438.1318, 32.69719
438.6139, 32.56902
439.0960, 32.91943
439.5782, 33.29627
440.0603, 33.30229
440.5424, 33.07186
441.0245, 32.85744
441.5066, 32.74144
441.9887, 32.69197
442.4709, 32.71869
442.9530, 32.81675
443.4351, 32.89016
443.9172, 32.88308
444.3993, 32.84800
444.8814, 32.82085
445.3636, 32.76674
445.8457, 32.77510
446.3278, 32.94459
446.8099, 33.18517
447.2920, 33.27443
447.7741, 33.03532
448.2563, 32.83997
448.7384, 32.83654
449.2205, 33.07097
449.7026, 33.12004
450.1847, 32.89367
450.6668, 32.59606
451.1490, 32.41594
451.6311, 32.37874
452.1132, 32.36668
452.5953, 32.37979
453.0774, 32.39482
453.5595, 32.32936
454.0417, 32.17214
454.5238, 32.03620
455.0059, 32.00956
455.4880, 32.06470
455.9701, 32.03974
456.4522, 31.91803
456.9344, 31.79551
457.4165, 31.76819
457.8986, 31.82226
458.3807, 31.93218
458.8628, 32.16902
459.3449, 32.36917
459.8271, 32.22446
460.3092, 31.83512
460.7913, 31.62784
461.2734, 32.06623
461.7555, 32.66503
462.2376, 33.01797
462.7198, 33.03742
463.2019, 32.94278
463.6840, 32.74940
464.1661, 32.52631
464.6482, 32.35705
465.1303, 32.26101
465.6125, 32.22272
466.0946, 32.24575
466.5767, 32.32705
467.0588, 32.44260
467.5409, 32.71861
468.0230, 32.91566
468.5052, 32.90859
468.9873, 32.57067
469.4694, 32.33916
469.9515, 32.20800
470.4336, 32.18838
470.9157, 32.35723
471.3979, 32.82920
471.8800, 33.07931
472.3621, 32.90057
472.8442, 32.40178
473.3263, 32.06362
473.8084, 31.88414
474.2906, 31.87854
474.7727, 32.21059
475.2548, 32.77055
475.7369, 32.98455
476.2190, 32.74343
476.7011, 32.35624
477.1833, 32.16999
477.6654, 32.13588
478.1475, 32.11974
478.6296, 32.02859
479.1117, 31.95447
479.5938, 32.02190
480.0760, 32.21045
480.5581, 32.37976
481.0402, 32.50505
481.5223, 32.54642
482.0044, 32.43766
482.4865, 32.07867
482.9687, 31.81404
483.4508, 31.92991
483.9329, 32.16577
484.4150, 32.14962
484.8971, 31.39736
485.3792, 30.82792
485.8614, 30.74927
486.3435, 31.11846
486.8256, 31.32317
487.3077, 31.28249
487.7898, 31.17060
488.2719, 31.06428
488.7541, 30.94359
489.2362, 30.91567
489.7183, 31.03433
490.2004, 31.17518
490.6825, 31.12064
491.1646, 30.84611
491.6468, 30.62695
492.1289, 30.57220
492.6110, 30.61396
493.0931, 30.50633
493.5752, 30.25193
494.0573, 30.07284
494.5395, 30.26927
495.0216, 30.63136
495.5037, 30.68070
495.9858, 30.31769
496.4679, 29.88769
496.9500, 29.66835
497.4322, 29.60272
497.9143, 29.60070
498.3964, 29.63197
498.8785, 29.71182
499.3606, 29.93203
499.8427, 30.24050
500.3249, 30.38150
500.8070, 30.06243
501.2891, 29.71579
501.7712, 29.58287
502.2533, 29.77434
502.7354, 29.93205
503.2176, 30.07440
503.6997, 30.14591
504.1818, 30.07488
504.6639, 29.74630
505.1460, 29.48555
505.6281, 29.33493
506.1103, 29.28551
506.5924, 29.33696
507.0745, 29.52940
507.5566, 29.67981
508.0387, 29.65352
508.5208, 29.46401
509.0030, 29.41140
509.4851, 29.51813
509.9672, 29.63638
510.4493, 29.58432
510.9314, 29.40916
511.4135, 29.28590
511.8957, 29.31290
512.3778, 29.31836
512.8599, 29.01372
513.3420, 28.50799
513.8242, 28.12080
514.3063, 28.06889
514.7884, 28.15970
515.2705, 28.27180
515.7526, 28.39630
516.2347, 28.50060
516.7169, 28.57928
517.1990, 28.62762
517.6811, 28.64323
518.1632, 28.66249
518.6453, 28.59781
519.1274, 28.35538
519.6096, 28.03760
520.0917, 27.83571
520.5738, 27.79540
521.0559, 27.79957
521.5380, 27.85150
522.0201, 27.94210
522.5023, 27.88526
522.9844, 27.63063
523.4665, 27.37108
523.9486, 27.23175
524.4307, 27.21012
524.9128, 27.32305
525.3950, 27.61936
525.8771, 27.87773
526.3592, 27.71030
526.8413, 27.23231
527.3234, 26.86391
527.8055, 26.85144
528.2877, 26.93823
528.7698, 26.74425
529.2519, 26.35828
529.7340, 26.15081
530.2161, 26.59264
530.6982, 27.11593
531.1804, 27.26500
531.6625, 26.92314
532.1446, 26.57269
532.6267, 26.30428
533.1088, 26.13437
533.5909, 26.08214
534.0731, 26.27416
534.5552, 26.43232
535.0373, 26.57016
535.5194, 26.65707
536.0015, 26.60550
536.4836, 26.34777
536.9658, 26.08704
537.4479, 25.87595
537.9300, 25.71662
538.4121, 25.67900
538.8942, 25.78891
539.3763, 25.91195
539.8585, 25.94550
540.3406, 25.89536
540.8227, 25.77871
541.3048, 25.57870
541.7869, 25.37809
542.2690, 25.24698
542.7512, 25.19404
543.2333, 25.24254
543.7154, 25.49495
544.1975, 25.77514
544.6796, 25.98179
545.1617, 26.10666
545.6439, 26.10333
546.1260, 25.87917
546.6081, 25.57608
547.0902, 25.23123
547.5723, 24.79700
548.0544, 24.55991
548.5366, 24.69320
549.0187, 24.96505
549.5008, 25.17978
549.9829, 25.36868
550.4650, 25.43600
550.9471, 25.32584
551.4293, 25.11562
551.9114, 24.98406
552.3935, 24.94232
552.8756, 24.92733
553.3577, 24.92810
553.8398, 24.93624
554.3220, 24.88711
554.8041, 24.77715
555.2862, 24.71540
555.7683, 24.81019
556.2504, 25.00901
556.7325, 25.22396
557.2147, 25.45308
557.6968, 25.64358
558.1789, 25.74613
558.6610, 25.78278
559.1431, 25.78530
559.6252, 25.65674
560.1074, 25.60690
560.5895, 25.82736
561.0716, 26.21306
561.5537, 26.40960
562.0358, 26.01817
562.5179, 25.74883
563.0001, 25.95090
563.4822, 26.70170
563.9643, 27.04991
564.4464, 26.77669
564.9285, 26.40899
565.4106, 26.34868
565.8928, 26.64432
566.3749, 26.93871
566.8570, 27.21527
567.3391, 27.46688
567.8212, 27.69809
568.3033, 27.90469
568.7855, 28.03127
569.2676, 28.00561
569.7497, 27.94616
570.2318, 28.02883
570.7139, 28.23489
571.1960, 28.48956
571.6782, 28.80689
572.1603, 29.11339
572.6424, 29.33882
573.1245, 29.47587
573.6066, 29.59044
574.0887, 29.76306
574.5709, 29.89180
575.0530, 29.89557
575.5351, 29.58268
576.0172, 29.40907
576.4993, 29.44989
576.9814, 29.60489
577.4636, 29.70427
577.9457, 29.70173
578.4278, 29.77780
578.9099, 30.02523
579.3920, 30.36551
579.8741, 30.45107
580.3563, 30.26029
580.8384, 30.10049
581.3205, 30.25924
581.8026, 30.58597
582.2847, 30.58441
582.7668, 30.23462
583.2490, 29.87963
583.7311, 29.78946
584.2132, 29.87237
584.6953, 30.03552
585.1774, 30.32331
585.6595, 30.52883
586.1416, 30.44417
586.6237, 30.23372
587.1058, 30.14519
587.5880, 30.46829
588.0701, 30.66482
588.5522, 30.44448
589.0343, 29.94949
589.5164, 29.87778
589.9985, 30.49204
590.4807, 31.08810
590.9628, 31.36816
591.4449, 31.32549
591.9270, 31.31230
592.4091, 31.33899
592.8912, 31.34929
593.3734, 31.24594
593.8555, 31.06899
594.3376, 31.03321
594.8197, 31.19632
595.3018, 31.38630
595.7839, 31.36181
596.2661, 31.23338
596.7482, 31.21650
597.2303, 31.55408
597.7124, 31.86349
598.1945, 31.78439
598.6766, 31.48244
599.1588, 31.44127
599.6409, 32.15135
600.1230, 32.82034
600.6051, 33.09138
601.0872, 32.92806
601.5693, 32.91275
602.0515, 33.15448
602.5336, 33.39538
603.0157, 33.45971
603.4978, 33.30762
603.9799, 33.20454
604.4620, 33.13871
604.9442, 33.17117
605.4263, 33.49135
605.9084, 34.02732
606.3905, 34.30182
606.8726, 34.10175
607.3547, 33.80300
607.8369, 33.92497
608.3190, 34.32373
608.8011, 34.63576
609.2832, 34.62585
609.7653, 34.52345
610.2474, 34.45740
610.7296, 34.42488
611.2117, 34.37753
611.6938, 34.29708
612.1759, 34.20147
612.6580, 34.09694
613.1401, 33.98000
613.6223, 33.88068
614.1044, 33.87520
614.5865, 33.78769
615.0686, 33.37302
615.5507, 32.55736
616.0328, 32.11512
616.5150, 32.19940
616.9971, 32.49792
617.4792, 32.55664
617.9613, 32.41900
618.4434, 32.28326
618.9255, 32.21817
619.4077, 32.18533
619.8898, 32.14946
620.3719, 32.11020
620.8540, 32.06534
621.3361, 32.02080
621.8182, 31.96515
622.3004, 31.88899
622.7825, 31.79255
623.2646, 31.69313
623.7467, 31.54986
624.2288, 31.44307
624.7109, 31.42535
625.1931, 31.54416
625.6752, 31.57290
626.1573, 31.45641
626.6394, 31.34050
627.1215, 31.42763
627.6036, 31.72262
628.0858, 31.84365
628.5679, 31.68786
629.0500, 31.45104
629.5321, 31.44965
630.0142, 31.61893
630.4963, 31.75325
630.9785, 31.76036
631.4606, 31.71068
631.9427, 31.63983
632.4248, 31.55882
632.9069, 31.50205
633.3890, 31.51261
633.8712, 31.52572
634.3533, 31.46865
634.8354, 31.32497
635.3175, 31.37869
635.7996, 31.85541
636.2817, 32.28101
636.7639, 32.36049
637.2460, 31.98762
637.7281, 31.82254
638.2102, 31.91474
638.6923, 32.06905
639.1744, 32.01725
639.6566, 31.81280
640.1387, 31.80092
640.6208, 32.08900
641.1029, 32.44896
641.5850, 32.67909
642.0671, 32.77970
642.5493, 32.75632
643.0314, 32.40099
643.5135, 32.12691
643.9956, 32.26618
644.4777, 32.67447
644.9598, 32.90025
645.4420, 32.67137
645.9241, 32.41977
646.4062, 32.24229
646.8883, 32.14151
647.3704, 32.21405
647.8525, 32.58034
648.3347, 32.85397
648.8168, 32.70631
649.2989, 32.15665
649.7810, 31.99704
650.2631, 32.28115
650.7452, 32.53092
651.2274, 32.13927
651.7095, 31.39826
652.1916, 30.92237
652.6737, 30.87952
653.1558, 30.92766
653.6379, 30.85633
654.1201, 30.71217
654.6022, 30.55677
655.0843, 30.35968
655.5664, 30.20915
656.0485, 30.20426
656.5306, 30.25178
657.0128, 30.12861
657.4949, 29.70629
657.9770, 29.36050
658.4591, 29.21314
658.9412, 29.21010
659.4233, 29.09482
659.9055, 28.85381
660.3876, 28.64652
660.8697, 28.68307
661.3518, 28.79401
661.8339, 28.49917
662.3160, 27.81892
662.7982, 27.09846
663.2803, 26.43229
663.7624, 25.93183
664.2445, 25.78544
664.7266, 26.08519
665.2087, 26.28639
665.6909, 26.17322
666.1730, 25.90530
666.6551, 25.60214
667.1372, 25.12144
667.6193, 24.88497
668.1014, 25.02421
668.5836, 25.27604
669.0657, 25.25643
669.5478, 24.93956
670.0299, 24.64767
670.5120, 24.42856
670.9941, 24.29782
671.4763, 24.37879
671.9584, 24.59731
672.4405, 24.66758
672.9226, 24.36130
673.4047, 23.93550
673.8868, 23.55846
674.3690, 23.24134
674.8511, 23.01058
675.3332, 22.87472
675.8153, 22.83035
676.2974, 22.92806
676.7795, 23.17534
677.2617, 23.27804
677.7438, 23.18619
678.2259, 23.02546
678.7080, 22.81479
679.1901, 22.53905
679.6722, 22.52858
680.1544, 22.83612
680.6365, 23.09797
681.1186, 22.88573
681.6007, 22.37384
682.0828, 21.99950
682.5649, 21.83591
683.0471, 21.76505
683.5292, 21.67867
684.0113, 21.63643
684.4934, 21.72791
684.9755, 22.18955
685.4576, 22.45918
685.9398, 22.22152
686.4219, 21.75875
686.9040, 21.54469
687.3861, 21.72254
687.8682, 21.86607
688.3503, 21.91174
688.8325, 21.88013
689.3146, 21.81889
689.7967, 21.72870
690.2788, 21.60283
690.7609, 21.40788
691.2430, 21.20038
691.7252, 21.08193
692.2073, 21.04082
692.6894, 21.02922
693.1715, 21.07166
693.6536, 21.09166
694.1357, 21.01342
694.6179, 20.83880
695.1000, 20.69269
695.5821, 20.56056
696.0642, 20.50735
696.5463, 20.58322
697.0284, 20.81851
697.5106, 20.98430
697.9927, 21.08073
698.4748, 21.10789
698.9569, 21.01672
699.4390, 20.83218
699.9211, 20.79409
700.4033, 20.93735
700.8854, 21.08641
701.3675, 21.06311
701.8496, 20.92924
702.3317, 20.76064
702.8138, 20.52879
703.2960, 20.39368
703.7781, 20.49027
704.2602, 20.70829
704.7423, 20.91269
705.2244, 21.13191
705.7065, 21.26452
706.1887, 21.26980
706.6708, 21.20323
707.1529, 21.18005
707.6350, 21.21881
708.1171, 21.17132
708.5992, 20.94633
709.0814, 20.67741
709.5635, 20.69952
710.0456, 20.94949
710.5277, 21.12622
711.0098, 21.01793
711.4919, 20.82141
711.9741, 20.69689
712.4562, 20.63054
712.9383, 20.55822
713.4204, 20.42731
713.9025, 20.31388
714.3846, 20.23836
714.8668, 20.20093
715.3489, 20.25164
715.8310, 20.44413
716.3131, 20.61872
716.7952, 20.69410
717.2773, 20.67481
717.7595, 20.61423
718.2416, 20.50887
718.7237, 20.42827
719.2058, 20.40990
719.6879, 20.45946
720.1700, 20.63665
720.6522, 20.96022
721.1343, 21.18232
721.6164, 21.11299
722.0985, 20.91242
722.5806, 20.68686
723.0627, 20.36220
723.5449, 20.24122
724.0270, 20.47089
724.5091, 20.77580
724.9912, 20.90197
725.4733, 20.82516
725.9554, 20.69267
726.4376, 20.48864
726.9197, 20.31724
727.4018, 20.39364
727.8839, 20.62838
728.3660, 20.71747
728.8481, 20.51604
729.3303, 20.30935
729.8124, 20.41033
730.2945, 20.64848
730.7766, 20.76270
731.2587, 20.50635
731.7408, 20.31745
732.2230, 20.37086
732.7051, 20.53563
733.1872, 20.55155
733.6693, 20.33304
734.1514, 20.22282
734.6335, 20.34354
735.1157, 20.58271
735.5978, 20.59498
736.0799, 20.41850
736.5620, 20.37940
737.0441, 20.79859
737.5262, 21.29647
738.0084, 21.43731
738.4905, 21.28779
738.9726, 21.07468
739.4547, 20.79250
739.9368, 20.56697
740.4189, 20.45769
740.9011, 20.46572
741.3832, 20.53244
741.8653, 20.72308
742.3474, 20.85188
742.8295, 20.81341
743.3116, 20.63568
743.7938, 20.55054
744.2759, 20.55985
744.7580, 20.59695
745.2401, 20.63175
745.7222, 20.65793
746.2043, 20.67093
746.6865, 20.66975
747.1686, 20.63998
747.6507, 20.53591
748.1328, 20.42981
748.6149, 20.36861
749.0970, 20.36434
749.5792, 20.38955
750.0613, 20.51820
750.5434, 20.58146
751.0255, 20.39773
751.5076, 19.91984
751.9897, 19.83593
752.4719, 20.21683
752.9540, 20.62813
753.4361, 20.60823
753.9182, 20.33794
754.4003, 20.19895
754.8824, 20.26073
755.3646, 20.30754
755.8467, 20.11682
756.3288, 19.88838
756.8109, 19.82260
757.2930, 20.05775
757.7751, 20.23222
758.2573, 20.29160
758.7394, 20.31664
759.2215, 20.39694
759.7036, 20.55147
760.1857, 20.60978
760.6678, 20.52816
761.1500, 20.44532
761.6321, 20.61365
762.1142, 20.91483
762.5963, 21.03516
763.0784, 20.83351
763.5605, 20.62081
764.0427, 20.62026
764.5248, 20.73566
765.0069, 20.84649
765.4890, 21.02343
765.9711, 21.05316
766.4532, 20.80752
766.9354, 20.49054
767.4175, 20.43832
767.8996, 20.71501
768.3817, 20.83898
768.8638, 20.70116
769.3459, 20.44089
769.8281, 20.22599
770.3102, 20.06931
770.7923, 20.00997
771.2744, 20.07257
771.7565, 20.21936
772.2386, 20.54174
772.7208, 20.90709
773.2029, 21.08457
773.6850, 20.84106
774.1671, 20.62655
774.6492, 20.49548
775.1313, 20.43392
775.6135, 20.42264
776.0956, 20.46834
776.5777, 20.52603
777.0598, 20.61263
777.5419, 20.66031
778.0240, 20.47065
778.5062, 20.12936
778.9883, 19.90377
779.4704, 19.99201
779.9525, 20.15651
780.4346, 20.29939
780.9167, 20.40722
781.3989, 20.45052
781.8810, 20.35475
782.3631, 20.27230
782.8452, 20.20408
783.3273, 20.17604
783.8094, 20.28889
784.2916, 20.55813
784.7737, 20.82894
785.2558, 21.09696
785.7379, 21.28400
786.2200, 21.17788
786.7021, 20.85108
787.1843, 20.55526
787.6664, 20.37815
788.1485, 20.29197
788.6306, 20.34713
789.1127, 20.49346
789.5948, 20.53911
790.0770, 20.34916
790.5591, 20.23420
791.0412, 20.29956
791.5233, 20.48147
792.0054, 20.51102
792.4875, 20.38229
792.9697, 20.36795
793.4518, 20.65564
793.9339, 21.06836
794.4160, 21.36522
794.8981, 21.55014
795.3802, 21.63658
795.8624, 21.65593
796.3445, 21.55379
796.8266, 21.18801
797.3087, 20.64612
797.7908, 20.36716
798.2729, 20.53878
798.7551, 20.62206
799.2372, 20.39615
799.7193, 19.99355
800.2014, 19.94817
800.6835, 20.23307
801.1656, 20.47050
801.6478, 20.43769
802.1299, 20.27825
802.6120, 20.10201
803.0941, 19.93392
803.5762, 19.85158
804.0583, 19.91276
804.5405, 20.03996
805.0226, 20.25754
805.5047, 20.52518
805.9868, 20.68788
806.4689, 20.73065
806.9510, 20.70507
807.4332, 20.60682
807.9153, 20.46722
808.3974, 20.36828
808.8795, 20.30926
809.3616, 20.28548
809.8438, 20.29285
810.3259, 20.33650
810.8080, 20.46938
811.2901, 20.64854
811.7722, 20.73804
812.2543, 20.61634
812.7365, 20.49850
813.2186, 20.43960
813.7007, 20.42361
814.1828, 20.38884
814.6649, 20.32949
815.1470, 20.30020
815.6292, 20.35297
816.1113, 20.41339
816.5934, 20.28513
817.0755, 20.03406
817.5576, 19.88102
818.0397, 20.02626
818.5219, 20.20262
819.0040, 20.26475
819.4861, 20.24837
819.9682, 20.27881
820.4503, 20.42881
820.9324, 20.50766
821.4146, 20.44266
821.8967, 20.30620
822.3788, 20.29541
822.8609, 20.40279
823.3430, 20.51583
823.8251, 20.61987
824.3073, 20.67218
824.7894, 20.56365
825.2715, 20.37027
825.7536, 20.25238
826.2357, 20.40638
826.7178, 20.48886
827.2000, 20.27658
827.6821, 19.96083
828.1642, 19.94481
828.6463, 20.36835
829.1284, 20.55594
829.6105, 20.27489
830.0927, 19.85762
830.5748, 20.00663
831.0569, 20.55021
831.5390, 20.88345
832.0211, 20.68015
832.5032, 20.41004
832.9854, 20.42426
833.4675, 20.58280
833.9496, 20.67389
834.4317, 20.60543
834.9138, 20.53110
835.3959, 20.44445
835.8781, 20.37142
836.3602, 20.34938
836.8423, 20.37864
837.3244, 20.47197
837.8065, 20.66610
838.2886, 20.80712
838.7708, 20.62129
839.2529, 20.28433
839.7350, 20.09333
840.2171, 20.21019
840.6992, 20.31528
841.1813, 20.25458
841.6635, 20.15975
842.1456, 20.18340
842.6277, 20.40133
843.1098, 20.48853
843.5919, 20.39563
844.0740, 20.25717
844.5562, 20.25940
845.0383, 20.34751
845.5204, 20.33750
846.0025, 20.18412
846.4846, 20.05788
846.9667, 20.14644
847.4489, 20.28246
847.9310, 20.30118
848.4131, 20.12369
848.8952, 19.97488
849.3773, 19.86071
849.8594, 19.77615
850.3416, 19.71225
850.8237, 19.66971
851.3058, 19.70076
851.7879, 19.81347
852.2700, 19.90605
852.7521, 19.88936
853.2343, 19.80865
853.7164, 19.67546
854.1985, 19.48795
854.6806, 19.42565
855.1627, 19.67784
855.6448, 19.95369
856.1270, 20.11450
856.6091, 20.15976
857.0912, 20.14303
857.5733, 20.05285
858.0554, 19.96509
858.5375, 19.88721
859.0197, 19.85883
859.5018, 20.05127
859.9839, 20.41297
860.4660, 20.63489
860.9481, 20.40647
861.4302, 20.12162
861.9124, 19.99517
862.3945, 20.02435
862.8766, 20.02911
863.3587, 20.01852
863.8408, 19.95817
864.3229, 19.81337
864.8051, 19.62627
865.2872, 19.56326
865.7693, 19.59471
866.2514, 19.54729
866.7335, 19.19486
867.2156, 18.86993
867.6978, 18.88843
868.1799, 19.12845
868.6620, 19.31244
869.1441, 19.40947
869.6262, 19.39084
870.1083, 19.20090
870.5905, 18.93159
871.0726, 18.74549
871.5547, 18.64068
872.0368, 18.66593
872.5189, 18.87379
873.0010, 19.10273
873.4832, 19.16576
873.9653, 19.12408
874.4474, 19.07451
874.9295, 19.02086
875.4116, 19.00254
875.8937, 19.11107
876.3759, 19.20340
876.8580, 19.11228
877.3401, 18.78120
877.8222, 18.59599
878.3043, 18.59983
878.7864, 18.67490
879.2686, 18.73361
879.7507, 18.76235
880.2328, 18.72831
880.7149, 18.62240
881.1970, 18.50126
881.6791, 18.33505
882.1613, 18.20993
882.6434, 18.21713
883.1255, 18.39194
883.6076, 18.39679
884.0897, 18.17152
884.5718, 17.97134
885.0540, 18.03082
885.5361, 18.24548
886.0182, 18.23546
886.5003, 18.03163
886.9824, 17.89980
887.4645, 18.14529
887.9467, 18.38449
888.4288, 18.35839
888.9109, 18.07765
889.3930, 17.79471
889.8751, 17.41978
890.3572, 17.27494
890.8394, 17.55540
891.3215, 18.06429
891.8036, 18.25791
892.2857, 18.16785
892.7678, 17.96299
893.2499, 17.56243
893.7321, 17.26547
894.2142, 17.42011
894.6963, 17.81348
895.1784, 18.03389
895.6605, 17.83700
896.1426, 17.72039
896.6248, 17.77504
897.1069, 17.86884
897.5890, 17.76997
898.0711, 17.50254
898.5532, 17.31626
899.0353, 17.26261
899.5175, 17.25788
899.9996, 17.24354
900.4817, 17.22122
900.9638, 17.19752
901.4459, 17.18758
901.9280, 17.12699
902.4102, 16.93091
902.8923, 16.77629
903.3744, 16.82652
903.8565, 17.08847
904.3386, 17.17888
904.8207, 17.09063
905.3029, 16.97714
905.7850, 16.99156
906.2671, 17.02394
906.7492, 16.90652
907.2313, 16.65108
907.7134, 16.51260
908.1956, 16.69514
908.6777, 16.86757
909.1598, 16.93479
909.6419, 16.90403
910.1240, 16.77594
910.6061, 16.54848
911.0883, 16.38471
911.5704, 16.40025
912.0525, 16.46314
912.5346, 16.37570
913.0167, 16.20630
913.4988, 16.10330
913.9810, 16.22252
914.4631, 16.27923
914.9452, 16.15923
915.4273, 15.98611
915.9094, 15.93778
916.3915, 16.02165
916.8737, 16.16360
917.3558, 16.38014
917.8379, 16.52912
918.3200, 16.32585
918.8021, 16.00011
919.2842, 15.93000
919.7664, 16.26307
920.2485, 16.49264
920.7306, 16.32695
921.2127, 16.12737
921.6948, 16.13373
922.1769, 16.36834
922.6591, 16.44105
923.1412, 16.33722
923.6233, 16.21695
924.1054, 16.21035
924.5875, 16.24481
925.0696, 16.20547
925.5518, 16.10544
926.0339, 16.03152
926.5160, 16.05556
926.9981, 16.06977
927.4802, 16.03046
927.9623, 15.95758
928.4445, 15.91933
928.9266, 15.92054
929.4087, 15.89051
929.8908, 15.79560
930.3729, 15.68492
930.8550, 15.56711
931.3372, 15.49425
931.8193, 15.58004
932.3014, 16.09697
932.7835, 16.37293
933.2656, 15.99593
933.7477, 15.50992
934.2299, 15.44865
934.7120, 15.87916
935.1941, 16.06718
935.6762, 15.95414
936.1583, 15.79246
936.6404, 15.85735
937.1226, 15.99340
937.6047, 15.97146
938.0868, 15.77120
938.5689, 15.61463
939.0510, 15.60223
939.5331, 15.61588
940.0153, 15.58931
940.4974, 15.54446
940.9795, 15.68881
941.4616, 16.02806
941.9437, 16.24046
942.4258, 16.10450
942.9080, 15.84879
943.3901, 15.72586
943.8722, 15.69645
944.3543, 15.67627
944.8364, 15.61307
945.3185, 15.59543
945.8007, 15.64997
946.2828, 15.73977
946.7649, 15.81910
947.2470, 15.88832
947.7291, 15.96111
948.2112, 16.04176
948.6934, 16.10796
949.1755, 16.22014
949.6576, 16.25925
950.1397, 16.01668
950.6218, 15.37593
951.1039, 15.05246
951.5861, 15.36268
952.0682, 15.66116
952.5503, 15.57187
953.0324, 15.18363
953.5145, 15.18456
953.9966, 15.53737
954.4788, 15.78696
954.9609, 15.52230
955.4430, 15.18935
955.9251, 15.16173
956.4072, 15.34657
956.8893, 15.49274
957.3715, 15.57419
957.8536, 15.58781
958.3357, 15.51405
958.8178, 15.40014
959.2999, 15.31413
959.7820, 15.25254
960.2642, 15.20346
960.7463, 15.16547
961.2284, 15.13107
961.7105, 15.10176
962.1926, 15.06836
962.6747, 14.99898
963.1569, 14.85503
963.6390, 14.90503
964.1211, 15.24717
964.6032, 15.51651
965.0853, 15.42594
965.5674, 15.10625
966.0496, 14.90888
966.5317, 14.82485
967.0138, 14.80222
967.4959, 14.90401
967.9780, 14.96697
968.4601, 14.84784
968.9423, 14.64572
969.4244, 14.60923
969.9065, 14.80272
970.3886, 14.86389
970.8707, 14.68943
971.3528, 14.48949
971.8350, 14.63589
972.3171, 14.93182
972.7992, 14.98899
973.2813, 14.67177
973.7634, 14.41028
974.2455, 14.37966
974.7277, 14.44538
975.2098, 14.53940
975.6919, 14.66228
976.1740, 14.75244
976.6561, 14.80670
977.1382, 14.89658
977.6204, 15.18456
978.1025, 15.44902
978.5846, 15.32319
979.0667, 14.94562
979.5488, 14.72673
980.0309, 15.01396
980.5131, 15.17881
980.9952, 15.09502
981.4773, 14.87315
981.9594, 14.65091
982.4415, 14.44096
982.9236, 14.36116
983.4058, 14.44755
983.8879, 14.57697
984.3700, 14.69234
984.8521, 14.77115
985.3342, 14.76304
985.8163, 14.62053
986.2985, 14.65572
986.7806, 14.98838
987.2627, 15.22538
987.7448, 15.11014
988.2269, 14.76728
988.7090, 14.52634
989.1912, 14.39201
989.6733, 14.38380
990.1554, 14.66493
990.6375, 14.90800
991.1196, 14.93793
991.6017, 14.83155
992.0839, 14.70286
992.5660, 14.51811
993.0481, 14.48857
993.5302, 14.67282
994.0123, 14.87429
994.4944, 14.81101
994.9766, 14.64344
995.4587, 14.64533
995.9408, 14.86422
996.4229, 15.01891
996.9050, 14.96399
997.3871, 14.87503
997.8693, 14.80710
998.3514, 14.76652
998.8335, 14.82492
999.3156, 14.97405
999.7977, 15.07095
1000.280, 15.04306
1000.762, 14.94793
1001.244, 14.76596
1001.726, 14.57388
1002.208, 14.50327
1002.690, 14.68491
1003.173, 14.81135
1003.655, 14.87981
1004.137, 14.88017
1004.619, 14.72899
1005.101, 14.50023
1005.583, 14.50954
1006.065, 14.76248
1006.547, 14.95688
1007.029, 14.87647
1007.512, 14.72035
1007.994, 14.56359
1008.476, 14.42360
1008.958, 14.37899
1009.440, 14.43853
1009.922, 14.54494
1010.404, 14.69758
1010.886, 14.85277
1011.369, 14.98778
1011.851, 15.07247
1012.333, 15.03806
1012.815, 14.76774
1013.297, 14.63083
1013.779, 14.85822
1014.261, 15.03254
1014.743, 14.74992
1015.225, 14.05417
1015.708, 13.94806
1016.190, 14.39643
1016.672, 14.82020
1017.154, 14.78908
1017.636, 14.63781
1018.118, 14.54387
1018.600, 14.52536
1019.082, 14.62735
1019.565, 14.92939
1020.047, 15.13271
1020.529, 15.17707
1021.011, 15.13879
1021.493, 15.10399
1021.975, 15.07124
1022.457, 15.03798
1022.939, 15.00376
1023.421, 14.96858
1023.904, 14.91254
1024.386, 14.87883
1024.868, 14.91722
1025.350, 15.00703
1025.832, 14.91059
1026.314, 14.63098
1026.796, 14.42579
1027.278, 14.44073
1027.760, 14.54942
1028.243, 14.68302
1028.725, 14.80572
1029.207, 14.85484
1029.689, 14.77520
1030.171, 14.68355
1030.653, 14.55702
1031.135, 14.47053
1031.617, 14.51964
1032.100, 14.66474
1032.582, 14.81643
1033.064, 14.96394
1033.546, 15.04877
1034.028, 15.02194
1034.510, 14.94269
1034.992, 14.78071
1035.474, 14.59804
1035.957, 14.60711
1036.439, 14.82177
1036.921, 14.98417
1037.403, 15.03117
1037.885, 15.01818
1038.367, 14.99901
1038.849, 14.96039
1039.331, 14.88076
1039.813, 14.74167
1040.296, 14.61345
1040.778, 14.47534
1041.260, 14.39934
1041.742, 14.45034
1042.224, 14.58588
1042.706, 14.68525
1043.188, 14.74232
1043.670, 14.73802
1044.152, 14.58224
1044.635, 14.45590
1045.117, 14.43867
1045.599, 14.49178
1046.081, 14.61040
1046.563, 14.83467
1047.045, 14.72223
1047.527, 14.20979
1048.009, 13.77296
1048.492, 13.96620
1048.974, 14.36758
1049.456, 14.57181
1049.938, 14.55817
1050.420, 14.41173
1050.902, 13.99917
1051.384, 13.76375
1051.866, 13.85165
1052.349, 14.11482
1052.831, 14.33653
1053.313, 14.49661
1053.795, 14.50812
1054.277, 14.29730
1054.759, 14.15605
1055.241, 14.31690
1055.723, 14.50707
1056.205, 14.54636
1056.688, 14.43862
1057.170, 14.31917
1057.652, 14.18778
1058.134, 14.13018
1058.616, 14.26578
1059.098, 14.41253
1059.580, 14.41511
1060.062, 14.30409
1060.544, 14.12631
1061.027, 13.79243
1061.509, 13.58878
1061.991, 13.52812
1062.473, 13.59183
1062.955, 13.87862
1063.437, 14.23979
1063.919, 14.30363
1064.401, 14.08596
1064.884, 13.90348
1065.366, 13.90062
1065.848, 13.95803
1066.330, 14.07757
1066.812, 14.19941
1067.294, 14.13687
1067.776, 13.91920
1068.258, 13.87699
1068.740, 14.10857
1069.223, 14.35319
1069.705, 14.41356
1070.187, 14.39041
1070.669, 14.37265
1071.151, 14.36869
1071.633, 14.30195
1072.115, 14.16574
1072.597, 13.98716
1073.079, 13.72733
1073.562, 13.49943
1074.044, 13.54771
1074.526, 13.73635
1075.008, 13.80945
1075.490, 13.58746
1075.972, 13.43079
1076.454, 13.36583
1076.936, 13.37449
1077.419, 13.48946
1077.901, 13.67025
1078.383, 13.74064
1078.865, 13.70086
1079.347, 13.56832
1079.829, 13.18455
1080.311, 12.89561
1080.793, 12.93091
1081.275, 13.12940
1081.758, 13.25084
1082.240, 13.29110
1082.722, 13.36286
1083.204, 13.48900
1083.686, 13.55838
1084.168, 13.37885
1084.650, 13.16835
1085.132, 13.17778
1085.615, 13.40689
1086.097, 13.44524
1086.579, 13.20603
1087.061, 13.01664
1087.543, 12.97674
1088.025, 13.02112
1088.507, 13.08725
1088.989, 13.15195
1089.471, 13.15062
1089.953, 13.01809
1090.436, 13.02559
1090.918, 13.41531
1091.400, 13.70219
1091.882, 13.57474
1092.364, 13.15114
1092.846, 12.97077
1093.328, 12.99615
1093.810, 13.04383
1094.293, 13.05458
1094.775, 13.03518
1095.257, 12.96429
1095.739, 12.88006
1096.221, 12.82675
1096.703, 12.80996
1097.185, 12.75405
1097.667, 12.65469
1098.150, 12.61200
1098.632, 12.78810
1099.114, 12.97630
1099.596, 12.98903
1100.078, 12.86535
1100.560, 12.72337
1101.042, 12.47368
1101.524, 12.55369
1102.006, 13.12138
1102.489, 13.68183
1102.971, 13.54237
1103.453, 13.09935
1103.935, 13.01818
1104.417, 13.34496
1104.899, 13.49410
1105.381, 13.11074
1105.863, 12.86342
1106.345, 12.97335
1106.828, 13.26145
1107.310, 13.37703
1107.792, 13.34727
1108.274, 13.23345
1108.756, 13.02704
1109.238, 12.84215
1109.720, 12.73784
1110.202, 12.67196
1110.685, 12.63236
1111.167, 12.61152
1111.649, 12.52146
1112.131, 12.37789
1112.613, 12.34926
1113.095, 12.59189
1113.577, 12.82539
1114.059, 12.85966
1114.542, 12.76320
1115.024, 12.59023
1115.506, 12.28599
1115.988, 12.24489
1116.470, 12.49541
1116.952, 12.72151
1117.434, 12.63905
1117.916, 12.47948
1118.398, 12.55006
1118.880, 12.73728
1119.363, 12.74776
1119.845, 12.40248
1120.327, 12.18274
1120.809, 12.12979
1121.291, 12.17614
1121.773, 12.33436
1122.255, 12.50909
1122.737, 12.51014
1123.220, 12.35148
1123.702, 12.19207
1124.184, 12.03436
1124.666, 11.96158
1125.148, 12.01714
1125.630, 12.12237
1126.112, 12.16246
1126.594, 12.14693
1127.077, 12.08747
1127.559, 11.98293
1128.041, 11.91639
1128.523, 11.87935
1129.005, 11.95731
1129.487, 12.24727
1129.969, 12.63985
1130.451, 12.78416
1130.933, 12.70671
1131.416, 12.59895
1131.898, 12.49697
1132.380, 12.42957
1132.862, 12.49494
1133.344, 12.53435
1133.826, 12.37943
1134.308, 12.04895
1134.790, 11.90386
1135.272, 11.94693
1135.755, 12.06925
1136.237, 12.29151
1136.719, 12.45883
1137.201, 12.35654
1137.683, 12.14687
1138.165, 12.04555
1138.647, 12.09649
1139.129, 12.12134
1139.612, 12.11704
1140.094, 12.10794
1140.576, 12.12560
1141.058, 12.13358
1141.540, 12.04748
1142.022, 11.92293
1142.504, 11.88124
1142.986, 12.02256
1143.469, 12.08963
1143.951, 12.05341
1144.433, 12.01452
1144.915, 12.09992
1145.397, 12.22271
1145.879, 12.19916
1146.361, 12.06240
1146.843, 11.96611
1147.325, 12.04593
1147.807, 12.02984
1148.290, 11.83893
1148.772, 11.62767
1149.254, 11.61311
1149.736, 11.72111
1150.218, 11.76447
1150.700, 11.73135
1151.182, 11.66720
1151.664, 11.46299
1152.147, 11.40980
1152.629, 11.64148
1153.111, 11.99863
1153.593, 12.23725
1154.075, 12.34361
1154.557, 12.21984
1155.039, 11.83748
1155.521, 11.49204
1156.004, 11.27844
1156.486, 11.23221
1156.968, 11.43945
1157.450, 11.77136
1157.932, 11.77840
1158.414, 11.51368
1158.896, 11.36719
1159.378, 11.45476
1159.860, 11.57209
1160.343, 11.60825
1160.825, 11.60182
1161.307, 11.58599
1161.789, 11.55726
1162.271, 11.43996
1162.753, 11.24262
1163.235, 11.18341
1163.717, 11.40590
1164.199, 11.62393
1164.682, 11.56987
1165.164, 11.41684
1165.646, 11.32655
1166.128, 11.30421
1166.610, 11.34907
1167.092, 11.46567
1167.574, 11.50671
1168.056, 11.32862
1168.539, 11.14948
1169.021, 11.22147
1169.503, 11.38892
1169.985, 11.41730
1170.467, 11.24176
1170.949, 11.18916
1171.431, 11.27077
1171.913, 11.37858
1172.396, 11.45227
1172.878, 11.50887
1173.360, 11.58126
1173.842, 11.64622
1174.324, 11.65082
1174.806, 11.54788
1175.288, 11.50653
1175.770, 11.53080
1176.252, 11.61552
1176.734, 11.83016
1177.217, 12.04802
1177.699, 12.13795
1178.181, 12.09785
1178.663, 11.89455
1179.145, 11.29842
1179.627, 11.15474
1180.109, 11.61749
1180.591, 12.15668
1181.074, 12.27711
1181.556, 12.14742
1182.038, 11.91043
1182.520, 11.62070
1183.002, 11.49087
1183.484, 11.66173
1183.966, 11.73742
1184.448, 11.64137
1184.931, 11.52883
1185.413, 11.58801
1185.895, 11.74289
1186.377, 11.91266
1186.859, 12.07554
1187.341, 12.10377
1187.823, 11.85439
1188.305, 11.72984
1188.787, 11.84976
1189.270, 12.01152
1189.752, 11.84257
1190.234, 11.56191
1190.716, 11.59581
1191.198, 11.97558
1191.680, 12.25460
1192.162, 12.35096
1192.644, 12.30156
1193.126, 12.05522
1193.609, 11.78390
1194.091, 11.81929
1194.573, 12.01291
1195.055, 12.08479
1195.537, 11.98776
1196.019, 11.90137
1196.501, 11.81623
1196.983, 11.84534
1197.466, 12.07397
1197.948, 12.35148
1198.430, 12.38818
1198.912, 12.27295
1199.394, 12.18499
1199.876, 12.16636
1200.358, 12.10512
1200.840, 11.90776
1201.323, 11.79879
1201.805, 11.89262
1202.287, 12.07645
1202.769, 12.11803
1203.251, 12.07003
1203.733, 12.04133
1204.215, 12.05806
1204.697, 12.08606
1205.179, 12.11940
1205.661, 12.16473
1206.144, 12.24008
1206.626, 12.31211
1207.108, 12.26590
1207.590, 12.16395
1208.072, 12.15668
1208.554, 12.33641
1209.036, 12.42527
1209.518, 12.33461
1210.001, 12.24786
1210.483, 12.25697
1210.965, 12.33186
1211.447, 12.41538
1211.929, 12.50405
1212.411, 12.59196
1212.893, 12.66844
1213.375, 12.77499
1213.858, 12.96400
1214.340, 13.07963
1214.822, 13.00173
1215.304, 12.81532
1215.786, 12.70199
1216.268, 12.64741
1216.750, 12.62319
1217.232, 12.61567
1217.714, 12.66673
1218.197, 12.83298
1218.679, 12.93201
1219.161, 12.78717
1219.643, 12.53897
1220.125, 12.47612
1220.607, 12.55199
1221.089, 12.65892
1221.571, 12.78646
1222.053, 12.90741
1222.536, 13.02911
1223.018, 13.12345
1223.500, 13.18385
1223.982, 13.19793
1224.464, 13.11018
1224.946, 12.95987
1225.428, 12.83537
1225.910, 12.72278
1226.393, 12.72493
1226.875, 12.87552
1227.357, 13.03932
1227.839, 13.14501
1228.321, 13.18260
1228.803, 13.10490
1229.285, 12.95202
1229.767, 12.81427
1230.250, 12.69406
1230.732, 12.63092
1231.214, 12.62989
1231.696, 12.66810
1232.178, 12.76508
1232.660, 12.86329
1233.142, 12.86626
1233.624, 12.81011
1234.106, 12.78424
1234.589, 12.84483
1235.071, 12.80234
1235.553, 12.62592
1236.035, 12.49027
1236.517, 12.54265
1236.999, 12.69947
1237.481, 12.97612
1237.963, 13.25925
1238.445, 13.26308
1238.928, 12.84014
1239.410, 12.62793
1239.892, 12.65841
1240.374, 12.78724
1240.856, 13.00568
1241.338, 13.17736
1241.820, 13.12116
1242.302, 12.94253
1242.785, 12.86693
1243.267, 12.92068
1243.749, 12.99272
1244.231, 13.08264
1244.713, 13.10335
1245.195, 12.90497
1245.677, 12.70118
1246.159, 12.67073
1246.641, 12.74162
1247.124, 12.77345
1247.606, 12.76137
1248.088, 12.77848
1248.570, 12.82635
1249.052, 12.83473
1249.534, 12.65555
1250.016, 12.53224
1250.498, 12.65484
1250.980, 12.89815
1251.463, 13.13613
1251.945, 13.36567
1252.427, 13.39886
1252.909, 13.24562
1253.391, 13.09499
1253.873, 13.04607
1254.355, 13.04701
1254.837, 13.08670
1255.320, 13.15605
1255.802, 13.28535
1256.284, 13.44687
1256.766, 13.40812
1257.248, 13.19561
1257.730, 13.06081
1258.212, 13.26502
1258.694, 13.38399
1259.177, 13.29691
1259.659, 13.10703
1260.141, 12.81691
1260.623, 12.52540
1261.105, 12.70013
1261.587, 13.23116
1262.069, 13.54254
1262.551, 13.19063
1263.033, 12.88206
1263.516, 12.68301
1263.998, 12.60076
1264.480, 12.70171
1264.962, 12.89760
1265.444, 12.99371
1265.926, 13.01767
1266.408, 13.09531
1266.890, 13.43699
1267.372, 13.45887
1267.855, 13.03575
1268.337, 12.61215
1268.819, 12.64103
1269.301, 12.85188
1269.783, 12.87510
1270.265, 12.76779
1270.747, 12.70675
1271.229, 12.70212
1271.712, 12.79842
1272.194, 13.02287
1272.676, 13.15578
1273.158, 12.88617
1273.640, 12.57778
1274.122, 12.60430
1274.604, 12.82862
1275.086, 12.98068
1275.568, 13.05685
1276.051, 13.04000
1276.533, 12.92888
1277.015, 12.76463
1277.497, 12.45961
1277.979, 12.23467
1278.461, 12.26051
1278.943, 12.42610
1279.425, 12.61207
1279.907, 12.81857
1280.390, 13.03138
1280.872, 13.22061
1281.354, 13.15107
1281.836, 12.18863
1282.318, 11.61947
1282.800, 12.22255
1283.282, 13.04041
1283.764, 13.22435
1284.247, 12.91922
1284.729, 12.79844
1285.211, 12.83305
1285.693, 12.90178
1286.175, 12.95857
1286.657, 13.05528
1287.139, 13.25166
1287.621, 13.37378
1288.104, 13.19878
1288.586, 12.90611
1289.068, 12.91365
1289.550, 13.10344
1290.032, 13.20015
1290.514, 13.04529
1290.996, 12.95917
1291.478, 12.94785
1291.960, 12.98289
1292.443, 13.09443
1292.925, 13.19184
1293.407, 13.08981
1293.889, 12.92630
1294.371, 12.97188
1294.853, 13.31507
1295.335, 13.34286
1295.817, 13.04448
1296.299, 12.85318
1296.782, 13.05840
1297.264, 13.34156
1297.746, 13.55999
1298.228, 13.65222
1298.710, 13.51630
1299.192, 13.18156
1299.674, 13.22075
1300.156, 13.55718
1300.639, 13.67181
1301.121, 13.20693
1301.603, 12.83346
1302.085, 12.94470
1302.567, 13.16031
1303.049, 13.31342
1303.531, 13.40064
##END=



