##NAMES=Vonsenite
##RRUFFID=R050221
##IDEAL CHEMISTRY=Fe^2+^_2_Fe^3+^O_2_(BO_3_)
##LOCALITY=Monchi mine, Burguillos del Cerro, Badajoz, Extremadura, Spain
##OWNER=RRUFF
##SOURCE=Marcus Origlieri
##DESCRIPTION=Mass of thin bladed black crystals
##STATUS=The identification of this mineral has been confirmed by X-ray diffraction and chemical analysis
##URL=rruff.info/R050221
##MEASURED CHEMISTRY=(Fe^2+^_1.96_Mg_0.03_Mn_0.01_)_Σ=2_(Fe^3+^_0.98_Al_0.02_)_Σ=1_BO_5_
92.29974, 0.0000000E+00
92.78186, 0.0000000E+00
93.26398, 0.0000000E+00
93.74609, 5.116133
94.22821, 5.006984
94.71033, 5.098090
95.19244, 5.338486
95.67456, 5.522173
96.15668, 5.506968
96.63879, 5.352343
97.12091, 5.257382
97.60303, 5.216944
98.08514, 5.263868
98.56726, 5.491611
99.04938, 5.908738
99.53149, 6.325162
100.0136, 6.595491
100.4957, 6.712495
100.9778, 6.966045
101.4600, 7.411827
101.9421, 7.979800
102.4242, 8.437546
102.9063, 8.740122
103.3884, 9.056384
103.8705, 9.525568
104.3527, 10.24798
104.8348, 10.81956
105.3169, 11.08111
105.7990, 11.09081
106.2811, 11.58653
106.7632, 12.94964
107.2454, 14.42385
107.7275, 15.34767
108.2096, 15.44157
108.6917, 15.37670
109.1738, 15.17652
109.6559, 14.78325
110.1381, 14.62403
110.6202, 14.85190
111.1023, 15.25784
111.5844, 15.62152
112.0665, 15.71040
112.5486, 15.97328
113.0308, 16.52534
113.5129, 17.41874
113.9950, 18.46375
114.4771, 19.80816
114.9592, 21.25703
115.4413, 22.53305
115.9235, 23.49570
116.4056, 24.31808
116.8877, 25.09961
117.3698, 25.98969
117.8519, 26.58660
118.3340, 26.58368
118.8162, 26.16470
119.2983, 25.78239
119.7804, 25.50727
120.2625, 25.40163
120.7446, 25.51020
121.2267, 25.83151
121.7089, 26.38294
122.1910, 27.37427
122.6731, 28.69013
123.1552, 29.81479
123.6373, 30.49407
124.1194, 30.78476
124.6016, 30.74206
125.0837, 30.17410
125.5658, 29.44932
126.0479, 28.85001
126.5300, 28.38340
127.0121, 28.17084
127.4943, 28.37332
127.9764, 28.90924
128.4585, 29.60126
128.9406, 30.45837
129.4227, 31.40101
129.9048, 32.32170
130.3869, 33.22953
130.8691, 34.02503
131.3512, 34.65532
131.8333, 35.10355
132.3154, 35.26958
132.7975, 34.90131
133.2796, 34.15442
133.7618, 33.74897
134.2439, 33.65349
134.7260, 33.63172
135.2081, 33.56132
135.6902, 33.51760
136.1723, 33.58216
136.6545, 33.81371
137.1366, 34.20874
137.6187, 34.64589
138.1008, 35.13332
138.5829, 35.64764
139.0650, 36.30933
139.5472, 37.29784
140.0293, 37.76957
140.5114, 37.04983
140.9935, 34.78850
141.4756, 33.08749
141.9577, 32.15193
142.4399, 31.80383
142.9220, 31.41946
143.4041, 30.91179
143.8862, 30.51301
144.3683, 30.38721
144.8504, 30.66225
145.3326, 30.90577
145.8147, 31.08103
146.2968, 31.19205
146.7789, 30.13124
147.2610, 31.43711
147.7431, 32.13718
148.2253, 32.26398
148.7074, 30.10062
149.1895, 30.89455
149.6716, 30.50334
150.1537, 30.06352
150.6358, 31.27369
151.1180, 29.44341
151.6001, 30.62741
152.0822, 30.60817
152.5643, 31.13962
153.0464, 30.47860
153.5285, 30.18590
154.0107, 31.08603
154.4928, 31.32569
154.9749, 30.52740
155.4570, 31.09385
155.9391, 29.22194
156.4212, 29.48973
156.9034, 30.68069
157.3855, 29.94235
157.8676, 30.53061
158.3497, 30.61363
158.8318, 28.40055
159.3139, 30.18062
159.7961, 30.23376
160.2782, 28.51377
160.7603, 30.15701
161.2424, 28.68147
161.7245, 28.31914
162.2066, 28.79458
162.6888, 28.39666
163.1709, 29.37569
163.6530, 29.02822
164.1351, 28.56223
164.6172, 28.61346
165.0993, 27.19907
165.5815, 28.50367
166.0636, 27.95098
166.5457, 28.32152
167.0278, 27.75413
167.5099, 27.52825
167.9920, 27.45560
168.4742, 27.46522
168.9563, 27.50599
169.4384, 27.57511
169.9205, 27.66059
170.4026, 27.78995
170.8847, 27.93652
171.3669, 28.02503
171.8490, 28.02073
172.3311, 27.93527
172.8132, 27.76209
173.2953, 27.44730
173.7774, 27.14048
174.2596, 26.99234
174.7417, 26.97162
175.2238, 26.96482
175.7059, 26.83559
176.1880, 26.69064
176.6701, 26.69395
177.1523, 26.93082
177.6344, 27.25931
178.1165, 27.57129
178.5986, 27.85748
179.0807, 28.04354
179.5628, 28.01026
180.0450, 27.84561
180.5271, 27.73281
181.0092, 27.74412
181.4913, 27.79445
181.9734, 27.72504
182.4555, 27.54753
182.9377, 27.41003
183.4198, 27.47236
183.9019, 27.67371
184.3840, 27.83130
184.8661, 27.88696
185.3482, 27.88412
185.8304, 27.89477
186.3125, 27.91891
186.7946, 27.96556
187.2767, 28.07456
187.7588, 28.22503
188.2409, 28.31167
188.7231, 28.28237
189.2052, 28.18372
189.6873, 28.14474
190.1694, 28.16992
190.6515, 28.19173
191.1336, 28.10900
191.6158, 27.93982
192.0979, 27.85731
192.5800, 27.95804
193.0621, 28.17013
193.5442, 28.22973
194.0263, 28.12370
194.5085, 27.94801
194.9906, 27.73485
195.4727, 27.48984
195.9548, 27.44277
196.4369, 27.78739
196.9190, 28.39220
197.4012, 28.51709
197.8833, 28.07237
198.3654, 27.51398
198.8475, 27.37607
199.3296, 27.67656
199.8117, 27.98857
200.2939, 28.18594
200.7760, 28.28829
201.2581, 28.44831
201.7402, 28.66766
202.2223, 28.93803
202.7044, 29.31029
203.1866, 29.81669
203.6687, 30.13603
204.1508, 30.05819
204.6329, 29.63299
205.1150, 29.70289
205.5971, 30.41793
206.0793, 31.30191
206.5614, 31.76822
207.0435, 31.72328
207.5256, 31.71206
208.0077, 31.91824
208.4898, 32.33439
208.9720, 32.54613
209.4541, 32.45310
209.9362, 32.32852
210.4183, 32.54116
210.9004, 33.19875
211.3825, 33.79736
211.8647, 34.19079
212.3468, 34.37530
212.8289, 34.58886
213.3110, 34.80853
213.7931, 35.09198
214.2752, 35.50290
214.7574, 36.05333
215.2395, 36.71216
215.7216, 37.51972
216.2037, 38.47823
216.6858, 39.30505
217.1679, 39.92287
217.6500, 40.51070
218.1322, 41.29200
218.6143, 42.36128
219.0964, 43.40575
219.5785, 44.34342
220.0606, 45.18391
220.5427, 45.91876
221.0249, 46.55752
221.5070, 47.07104
221.9891, 47.44115
222.4712, 47.74352
222.9533, 47.73510
223.4354, 47.34095
223.9176, 46.54598
224.3997, 45.54528
224.8818, 44.27061
225.3639, 42.85696
225.8460, 41.38696
226.3281, 39.74743
226.8103, 38.31773
227.2924, 37.25753
227.7745, 36.57348
228.2566, 35.82918
228.7387, 34.97964
229.2208, 34.11730
229.7030, 33.34092
230.1851, 32.60960
230.6672, 32.03389
231.1493, 31.67401
231.6314, 31.53905
232.1135, 31.35607
232.5957, 31.10686
233.0778, 30.82874
233.5599, 30.54556
234.0420, 30.19422
234.5241, 29.96927
235.0062, 29.96827
235.4884, 30.19275
235.9705, 30.23930
236.4526, 29.99242
236.9347, 29.68818
237.4168, 29.55606
237.8989, 29.71185
238.3811, 29.81012
238.8632, 29.75957
239.3453, 29.56247
239.8274, 29.48294
240.3095, 29.59403
240.7916, 29.73961
241.2738, 29.79041
241.7559, 29.72303
242.2380, 29.60443
242.7201, 29.41590
243.2022, 29.16496
243.6843, 29.01080
244.1665, 29.05643
244.6486, 29.07778
245.1307, 28.87759
245.6128, 28.29468
246.0949, 27.82474
246.5770, 27.57349
247.0592, 27.51192
247.5413, 27.34925
248.0234, 27.01779
248.5055, 26.67237
248.9876, 26.41706
249.4697, 26.24599
249.9519, 26.18086
250.4340, 26.28014
250.9161, 26.50121
251.3982, 26.58051
251.8803, 26.46062
252.3624, 26.27717
252.8446, 26.09994
253.3267, 25.88522
253.8088, 25.78575
254.2909, 25.86557
254.7730, 26.07008
255.2551, 26.15830
255.7373, 26.06302
256.2194, 25.96140
256.7015, 25.96696
257.1836, 26.15147
257.6657, 26.23561
258.1478, 26.12105
258.6299, 25.91882
259.1121, 26.01179
259.5942, 26.59719
260.0763, 27.12679
260.5584, 27.30008
261.0405, 26.94281
261.5226, 26.78015
262.0048, 26.90341
262.4869, 27.18926
262.9690, 27.33862
263.4511, 27.29421
263.9332, 27.23427
264.4153, 27.23917
264.8975, 27.33076
265.3796, 27.39150
265.8617, 27.38889
266.3438, 27.38366
266.8259, 27.51223
267.3080, 27.83282
267.7902, 28.12884
268.2723, 28.30739
268.7544, 28.35767
269.2365, 28.35925
269.7186, 28.24081
270.2007, 28.16434
270.6829, 28.45604
271.1650, 29.25687
271.6471, 29.91510
272.1292, 30.17237
272.6113, 30.02250
273.0934, 29.80700
273.5756, 29.44367
274.0577, 29.16525
274.5398, 29.34415
275.0219, 30.09392
275.5040, 30.72927
275.9861, 31.00801
276.4683, 30.96547
276.9504, 31.08891
277.4325, 31.42706
277.9146, 31.80390
278.3967, 32.00837
278.8788, 32.01662
279.3610, 32.06461
279.8431, 32.17091
280.3252, 32.36175
280.8073, 32.86007
281.2894, 33.74326
281.7715, 34.61430
282.2537, 35.05825
282.7358, 35.06468
283.2179, 35.14634
283.7000, 35.40060
284.1821, 35.79780
284.6642, 36.29661
285.1464, 36.92070
285.6285, 37.45931
286.1106, 37.68190
286.5927, 37.61657
287.0748, 37.68470
287.5569, 37.99968
288.0391, 38.40936
288.5212, 38.59750
289.0033, 38.56541
289.4854, 38.37981
289.9675, 37.99809
290.4496, 37.46438
290.9318, 37.07990
291.4139, 36.91503
291.8960, 36.79700
292.3781, 36.41155
292.8602, 35.77942
293.3423, 35.16330
293.8245, 34.71212
294.3066, 34.38460
294.7887, 34.05259
295.2708, 33.71289
295.7529, 33.36596
296.2350, 33.01644
296.7172, 32.66311
297.1993, 32.29547
297.6814, 31.91865
298.1635, 31.51844
298.6456, 31.05042
299.1277, 30.50634
299.6099, 29.96721
300.0920, 29.50625
300.5741, 29.11886
301.0562, 28.81733
301.5383, 28.68685
302.0204, 28.59521
302.5026, 28.34252
302.9847, 27.93119
303.4668, 27.46710
303.9489, 26.91601
304.4310, 26.38705
304.9131, 26.07337
305.3953, 26.19144
305.8774, 26.37897
306.3595, 26.22079
306.8416, 25.76993
307.3237, 25.29567
307.8058, 24.99525
308.2880, 24.77045
308.7701, 24.48934
309.2522, 24.07146
309.7343, 23.68569
310.2164, 23.48158
310.6985, 23.41882
311.1807, 23.38902
311.6628, 23.41382
312.1449, 23.40132
312.6270, 23.21502
313.1091, 22.74799
313.5912, 22.41377
314.0734, 22.63592
314.5555, 23.14166
315.0376, 23.43778
315.5197, 23.09015
316.0018, 22.63318
316.4839, 22.41938
316.9661, 22.50853
317.4482, 22.57782
317.9303, 22.41871
318.4124, 22.18619
318.8945, 22.05999
319.3766, 22.25124
319.8588, 22.42258
320.3409, 22.39208
320.8230, 22.16094
321.3051, 22.01773
321.7872, 22.16339
322.2693, 22.36893
322.7515, 22.45408
323.2336, 22.26632
323.7157, 22.08016
324.1978, 21.92908
324.6799, 21.81937
325.1620, 21.77455
325.6442, 21.91041
326.1263, 22.03137
326.6084, 22.03318
327.0905, 21.76529
327.5726, 21.57252
328.0547, 21.50287
328.5369, 21.52461
329.0190, 21.55273
329.5011, 21.61863
329.9832, 21.65935
330.4653, 21.64400
330.9474, 21.52863
331.4296, 21.47305
331.9117, 21.51867
332.3938, 21.60638
332.8759, 21.40733
333.3580, 21.68196
333.8401, 21.82451
334.3223, 21.84211
334.8044, 21.35788
335.2865, 21.52372
335.7686, 21.43029
336.2507, 21.32708
336.7328, 21.58696
337.2150, 21.18032
337.6971, 21.43623
338.1792, 21.42892
338.6613, 21.54339
339.1434, 21.39699
339.6255, 21.33233
340.1076, 21.53041
340.5898, 21.58439
341.0719, 21.41143
341.5540, 21.53894
342.0361, 21.13209
342.5182, 21.19582
343.0003, 21.46310
343.4825, 21.30776
343.9646, 21.44452
344.4467, 21.47127
344.9288, 20.99489
345.4109, 21.39595
345.8930, 21.41883
346.3752, 21.05336
346.8573, 21.42706
347.3394, 21.11705
347.8215, 21.05229
348.3036, 21.17233
348.7857, 21.10155
349.2679, 21.33391
349.7500, 21.27599
350.2321, 21.19294
350.7142, 21.22433
351.1963, 20.93488
351.6784, 21.24319
352.1606, 21.14468
352.6427, 21.24973
353.1248, 21.40161
353.6069, 21.20265
354.0890, 21.37695
354.5711, 20.97469
355.0533, 21.05651
355.5354, 21.08718
356.0175, 21.42759
356.4996, 21.03172
356.9817, 21.10368
357.4638, 21.37535
357.9460, 21.36972
358.4281, 21.48130
358.9102, 21.24944
359.3923, 21.34195
359.8744, 21.34619
360.3565, 21.65943
360.8387, 21.73033
361.3208, 21.50878
361.8029, 21.28936
362.2850, 21.62835
362.7671, 21.43981
363.2492, 21.53724
363.7314, 21.34116
364.2135, 21.40016
364.6956, 21.45603
365.1777, 21.64311
365.6598, 21.43594
366.1419, 21.74222
366.6241, 21.75315
367.1062, 21.85224
367.5883, 21.94251
368.0704, 21.63614
368.5525, 21.65655
369.0346, 22.14416
369.5168, 21.92152
369.9989, 21.84331
370.4810, 21.86802
370.9631, 22.37517
371.4452, 22.43562
371.9273, 21.96196
372.4095, 22.45058
372.8916, 22.34862
373.3737, 22.42332
373.8558, 22.42118
374.3379, 22.51117
374.8200, 22.57405
375.3022, 22.65143
375.7843, 22.78400
376.2664, 22.99397
376.7485, 23.19024
377.2306, 23.36264
377.7127, 23.51283
378.1949, 23.63210
378.6770, 23.70625
379.1591, 23.80293
379.6412, 23.98426
380.1233, 24.25281
380.6054, 24.42674
381.0876, 24.46734
381.5697, 24.49026
382.0518, 24.74361
382.5339, 25.20351
383.0160, 25.50005
383.4981, 25.33820
383.9803, 24.92277
384.4624, 24.91198
384.9445, 25.31684
385.4266, 25.78695
385.9087, 25.98912
386.3908, 26.01401
386.8730, 26.10180
387.3551, 26.33948
387.8372, 26.62790
388.3193, 26.82886
388.8014, 26.96794
389.2835, 27.14975
389.7657, 27.51469
390.2478, 27.92021
390.7299, 28.18438
391.2120, 28.25293
391.6941, 28.31994
392.1762, 28.48986
392.6584, 28.74906
393.1405, 29.07850
393.6226, 29.55914
394.1047, 30.03281
394.5868, 30.41762
395.0689, 30.71137
395.5511, 30.95132
396.0332, 31.13367
396.5153, 31.27697
396.9974, 31.39438
397.4795, 31.37163
397.9616, 31.45945
398.4438, 31.81907
398.9259, 32.34056
399.4080, 32.67955
399.8901, 32.59910
400.3722, 32.50912
400.8543, 32.58464
401.3365, 32.94513
401.8186, 33.12064
402.3007, 33.02488
402.7828, 32.79658
403.2649, 32.59732
403.7470, 32.41651
404.2292, 32.28836
404.7113, 32.24930
405.1934, 32.28512
405.6755, 32.24047
406.1576, 32.12783
406.6397, 31.90966
407.1219, 31.49940
407.6040, 30.85519
408.0861, 30.39914
408.5682, 30.22788
409.0503, 30.18212
409.5324, 29.91622
410.0146, 29.42430
410.4967, 28.95564
410.9788, 28.66801
411.4609, 28.51201
411.9430, 28.27995
412.4251, 27.97010
412.9073, 27.57111
413.3894, 26.96878
413.8715, 26.24726
414.3536, 25.67064
414.8357, 25.34899
415.3178, 25.15889
415.8000, 24.96179
416.2821, 24.76249
416.7642, 24.59322
417.2463, 24.59268
417.7284, 24.57390
418.2105, 24.28164
418.6927, 23.59350
419.1748, 22.98232
419.6569, 22.83169
420.1390, 22.92125
420.6211, 22.91529
421.1032, 22.57842
421.5854, 22.22403
422.0675, 21.99131
422.5496, 21.87890
423.0317, 21.78688
423.5138, 21.69520
423.9959, 21.60982
424.4781, 21.53370
424.9602, 21.50065
425.4423, 21.43543
425.9244, 21.26072
426.4065, 21.05433
426.8886, 20.99850
427.3708, 21.28020
427.8529, 21.47698
428.3350, 21.41196
428.8171, 21.02040
429.2992, 20.84092
429.7813, 20.97425
430.2635, 21.18623
430.7456, 21.22822
431.2277, 21.04494
431.7098, 20.92971
432.1919, 20.96015
432.6740, 21.07571
433.1562, 21.07009
433.6383, 20.92938
434.1204, 20.78413
434.6025, 20.70789
435.0846, 20.69418
435.5667, 20.72995
436.0489, 20.83210
436.5310, 20.89904
437.0131, 20.73833
437.4952, 20.42355
437.9773, 20.20817
438.4594, 20.20804
438.9415, 20.33839
439.4236, 20.55002
439.9058, 20.82308
440.3879, 21.01238
440.8700, 20.93603
441.3521, 20.77012
441.8342, 20.71141
442.3163, 20.82756
442.7985, 20.95513
443.2806, 21.04263
443.7627, 21.07165
444.2448, 21.01428
444.7269, 20.78001
445.2090, 20.53228
445.6912, 20.29742
446.1733, 20.07836
446.6554, 19.98914
447.1375, 20.22103
447.6196, 20.47918
448.1017, 20.57812
448.5839, 20.33081
449.0660, 20.15558
449.5481, 20.06098
450.0302, 20.03753
450.5123, 20.07640
450.9944, 20.22581
451.4766, 20.35126
451.9587, 20.40961
452.4408, 20.39874
452.9229, 20.35863
453.4050, 20.27003
453.8871, 20.19588
454.3693, 20.22532
454.8514, 20.36738
455.3335, 20.39989
455.8156, 20.24785
456.2977, 20.02788
456.7798, 20.01382
457.2620, 20.18800
457.7441, 20.31638
458.2262, 20.22352
458.7083, 20.00527
459.1904, 19.86738
459.6725, 19.81874
460.1547, 19.80646
460.6368, 19.79584
461.1189, 19.78820
461.6010, 19.78859
462.0831, 19.81644
462.5652, 19.82744
463.0474, 19.76609
463.5295, 19.65826
464.0116, 19.57809
464.4937, 19.57845
464.9758, 19.60168
465.4579, 19.61666
465.9401, 19.61816
466.4222, 19.62290
466.9043, 19.65796
467.3864, 19.68713
467.8685, 19.67629
468.3506, 19.46571
468.8328, 19.40617
469.3149, 19.64233
469.7970, 20.06779
470.2791, 20.27711
470.7612, 20.18160
471.2433, 19.99861
471.7255, 19.78238
472.2076, 19.50237
472.6897, 19.40306
473.1718, 19.53539
473.6539, 19.74494
474.1360, 19.84235
474.6182, 19.82104
475.1003, 19.84667
475.5824, 19.98548
476.0645, 20.16274
476.5466, 20.17075
477.0287, 20.02341
477.5109, 19.89901
477.9930, 19.92171
478.4751, 20.04053
478.9572, 20.17253
479.4393, 20.31541
479.9214, 20.43278
480.4036, 20.50400
480.8857, 20.52574
481.3678, 20.48729
481.8499, 20.31512
482.3320, 20.16273
482.8141, 20.14471
483.2963, 20.22655
483.7784, 20.30163
484.2605, 20.32594
484.7426, 20.33617
485.2247, 20.33138
485.7068, 20.28708
486.1890, 20.33626
486.6711, 20.68179
487.1532, 21.03090
487.6353, 21.10157
488.1174, 20.61448
488.5995, 20.29133
489.0817, 20.24089
489.5638, 20.39868
490.0459, 20.56778
490.5280, 20.77411
491.0101, 20.92602
491.4922, 20.96852
491.9744, 20.89916
492.4565, 20.84598
492.9386, 20.80460
493.4207, 20.79181
493.9028, 20.87775
494.3849, 21.03265
494.8671, 21.03725
495.3492, 20.78141
495.8313, 20.46506
496.3134, 20.44129
496.7955, 20.63546
497.2776, 20.76553
497.7598, 20.60905
498.2419, 20.34766
498.7240, 20.19029
499.2061, 20.14533
499.6882, 20.05732
500.1703, 19.73834
500.6525, 19.38109
501.1346, 19.16901
501.6167, 19.20399
502.0988, 19.29464
502.5809, 19.49253
503.0630, 19.70293
503.5452, 19.72469
504.0273, 19.24847
504.5094, 18.87238
504.9915, 18.78951
505.4736, 19.01239
505.9557, 19.14026
506.4379, 19.15745
506.9200, 19.09816
507.4021, 18.95627
507.8842, 18.68637
508.3663, 18.55754
508.8484, 18.63205
509.3306, 18.77577
509.8127, 18.73965
510.2948, 18.52889
510.7769, 18.35859
511.2590, 18.34735
511.7411, 18.41239
512.2233, 18.35928
512.7054, 18.19409
513.1875, 17.97903
513.6696, 17.65122
514.1517, 17.34044
514.6339, 17.27816
515.1160, 17.55122
515.5981, 17.80080
516.0802, 17.72257
516.5623, 17.48965
517.0444, 17.33359
517.5266, 17.40419
518.0087, 17.49017
518.4908, 17.52228
518.9729, 17.50805
519.4550, 17.48663
519.9371, 17.50676
520.4193, 17.48081
520.9014, 17.35242
521.3835, 17.07018
521.8656, 16.90872
522.3477, 16.91431
522.8298, 16.98953
523.3120, 17.05028
523.7941, 17.09959
524.2762, 17.11338
524.7583, 17.07909
525.2404, 17.01766
525.7225, 16.97962
526.2047, 16.96464
526.6868, 16.94533
527.1689, 16.88067
527.6510, 16.80680
528.1331, 16.57960
528.6152, 16.86925
529.0974, 17.02736
529.5795, 17.06106
530.0616, 16.59348
530.5437, 16.77649
531.0258, 16.70077
531.5079, 16.61582
531.9901, 16.89450
532.4722, 16.50719
532.9543, 16.78298
533.4364, 16.79608
533.9185, 16.93150
534.4006, 16.80659
534.8828, 16.76396
535.3649, 16.98461
535.8470, 17.06170
536.3291, 16.91238
536.8112, 17.06408
537.2933, 16.68195
537.7755, 16.77095
538.2576, 17.06403
538.7397, 16.93504
539.2218, 17.09868
539.7039, 17.15285
540.1860, 16.70442
540.6682, 17.13398
541.1503, 17.18589
541.6324, 16.85000
542.1145, 17.25382
542.5966, 16.97446
543.0787, 16.94089
543.5609, 17.09267
544.0430, 17.05416
544.5251, 17.31933
545.0072, 17.29475
545.4893, 17.24560
545.9714, 17.31140
546.4536, 17.05693
546.9357, 17.40074
547.4178, 17.33827
547.8999, 17.47991
548.3820, 17.66890
548.8641, 17.50760
549.3463, 17.72012
549.8284, 17.35660
550.3105, 17.47768
550.7926, 17.54818
551.2747, 17.92894
551.7568, 17.57396
552.2390, 17.68736
552.7211, 18.00101
553.2032, 18.03789
553.6853, 18.19252
554.1674, 18.00425
554.6495, 17.98429
555.1317, 17.97964
555.6138, 18.08612
556.0959, 18.23382
556.5780, 18.44196
557.0601, 18.60815
557.5422, 18.48761
558.0244, 18.19505
558.5065, 18.06440
558.9886, 18.45687
559.4707, 18.92946
559.9528, 19.08994
560.4349, 18.97714
560.9171, 18.84085
561.3992, 18.69003
561.8813, 18.62709
562.3634, 18.75573
562.8455, 19.18579
563.3276, 19.48518
563.8098, 19.53653
564.2919, 19.47079
564.7740, 19.39636
565.2561, 19.29916
565.7382, 19.21839
566.2203, 19.15022
566.7025, 19.10433
567.1846, 19.13381
567.6667, 19.25995
568.1488, 19.30467
568.6309, 19.12123
569.1130, 18.81461
569.5952, 18.81719
570.0773, 19.12530
570.5594, 19.44261
571.0415, 19.56997
571.5236, 19.55934
572.0057, 19.45193
572.4879, 19.22697
572.9700, 19.08021
573.4521, 19.22966
573.9342, 19.50978
574.4163, 19.71952
574.8984, 19.80142
575.3806, 19.80062
575.8627, 19.59864
576.3448, 19.31554
576.8269, 19.28720
577.3090, 19.86213
577.7911, 20.31544
578.2733, 20.41025
578.7554, 20.15481
579.2375, 20.07764
579.7196, 20.25338
580.2017, 20.42853
580.6838, 20.39300
581.1660, 20.15148
581.6481, 20.03552
582.1302, 20.07998
582.6123, 20.17392
583.0944, 20.17976
583.5765, 20.12764
584.0587, 20.10495
584.5408, 20.14554
585.0229, 20.20892
585.5050, 20.24781
585.9871, 20.27801
586.4692, 20.33677
586.9513, 20.44829
587.4334, 20.58624
587.9155, 20.75320
588.3976, 20.94530
588.8798, 21.10609
589.3619, 21.25069
589.8440, 21.33734
590.3261, 21.32677
590.8082, 21.15798
591.2903, 21.10842
591.7725, 21.22709
592.2546, 21.39798
592.7367, 21.51425
593.2188, 21.57773
593.7009, 21.54672
594.1830, 21.37609
594.6652, 21.17845
595.1473, 21.13817
595.6294, 21.24084
596.1115, 21.41477
596.5936, 21.71091
597.0757, 22.00513
597.5579, 22.12946
598.0400, 22.10472
598.5221, 22.04685
599.0042, 21.93949
599.4863, 21.87879
599.9684, 21.97136
600.4506, 22.26645
600.9327, 22.45461
601.4148, 22.36451
601.8969, 22.20539
602.3790, 22.14103
602.8611, 22.23864
603.3433, 22.30042
603.8254, 22.28858
604.3075, 22.26860
604.7896, 22.37317
605.2717, 22.62926
605.7538, 22.80771
606.2360, 22.83843
606.7181, 22.76042
607.2002, 22.63253
607.6823, 22.46259
608.1644, 22.31405
608.6465, 22.23107
609.1287, 22.18778
609.6108, 22.18929
610.0929, 22.22702
610.5750, 22.18043
611.0571, 21.85631
611.5392, 21.49861
612.0214, 21.31267
612.5035, 21.16770
612.9856, 21.46140
613.4677, 21.62211
613.9498, 21.65698
614.4319, 21.18914
614.9141, 21.37045
615.3962, 21.29161
615.8783, 21.20211
616.3604, 21.47479
616.8425, 21.08006
617.3246, 21.34700
617.8068, 21.34981
618.2889, 21.47351
618.7710, 21.33545
619.2531, 21.27823
619.7352, 21.48286
620.2173, 21.54251
620.6995, 21.37431
621.1816, 21.50569
621.6637, 21.10182
622.1458, 21.16764
622.6279, 21.43611
623.1100, 21.28108
623.5922, 21.41724
624.0743, 21.44250
624.5564, 20.96374
625.0385, 21.36153
625.5206, 21.38023
626.0027, 21.28469
626.4849, 21.35475
626.9670, 21.27276
627.4491, 21.27615
627.9312, 21.45167
628.4133, 21.68682
628.8954, 21.66437
629.3776, 21.38348
629.8597, 21.16308
630.3418, 21.14084
630.8239, 21.25993
631.3060, 21.48192
631.7881, 21.77867
632.2703, 21.96903
632.7524, 21.87263
633.2345, 21.65988
633.7166, 21.44996
634.1987, 21.25238
634.6808, 21.12586
635.1630, 21.08485
635.6451, 21.12682
636.1272, 21.26484
636.6093, 21.63844
637.0914, 21.83740
637.5735, 21.77392
638.0557, 21.61287
638.5378, 21.57504
639.0199, 21.69302
639.5020, 21.73636
639.9841, 21.64526
640.4662, 21.48619
640.9484, 21.35946
641.4305, 21.27150
641.9126, 21.25993
642.3947, 21.28248
642.8768, 21.44228
643.3589, 21.51268
643.8411, 21.49850
644.3232, 21.14644
644.8053, 21.23070
645.2874, 21.14009
645.7695, 21.04233
646.2516, 21.18799
646.7338, 20.88506
647.2159, 21.02688
647.6980, 20.99116
648.1801, 21.03669
648.6622, 20.90628
649.1443, 20.83022
649.6265, 20.93013
650.1086, 20.48575
650.5907, 20.58106
651.0728, 21.01458
651.5549, 21.19702
652.0370, 20.97874
652.5192, 20.59202
653.0013, 20.27251
653.4834, 20.03835
653.9655, 19.93596
654.4476, 20.14677
654.9297, 20.33636
655.4119, 20.24265
655.8940, 19.95178
656.3761, 19.72571
656.8582, 19.65103
657.3403, 19.64728
657.8224, 19.73809
658.3046, 19.91158
658.7867, 19.93999
659.2688, 19.76288
659.7509, 19.55570
660.2330, 19.41448
660.7151, 19.33924
661.1973, 19.22930
661.6794, 19.08039
662.1615, 18.92797
662.6436, 18.78237
663.1257, 18.66087
663.6078, 18.62355
664.0900, 18.69959
664.5721, 18.75508
665.0542, 18.64824
665.5363, 18.47610
666.0184, 18.35847
666.5005, 18.39797
666.9827, 18.40328
667.4648, 18.30339
667.9469, 18.14481
668.4290, 18.01839
668.9111, 17.93371
669.3932, 17.86158
669.8754, 17.80044
670.3575, 17.74633
670.8396, 17.69806
671.3217, 17.65814
671.8038, 17.57880
672.2859, 17.39193
672.7681, 17.17029
673.2502, 17.08781
673.7323, 17.12762
674.2144, 17.16540
674.6965, 17.08973
675.1786, 16.99726
675.6608, 16.97653
676.1429, 17.03950
676.6250, 17.10640
677.1071, 17.18518
677.5892, 17.23624
678.0714, 17.22773
678.5535, 17.13359
679.0356, 17.05577
679.5177, 17.00605
679.9998, 16.95649
680.4819, 16.88737
680.9641, 16.79843
681.4462, 16.64621
681.9283, 16.39992
682.4104, 16.16359
682.8925, 16.11202
683.3746, 16.18869
683.8568, 16.24341
684.3389, 16.21096
684.8210, 16.16538
685.3031, 16.17142
685.7852, 16.20353
686.2673, 16.20715
686.7495, 16.16393
687.2316, 16.09228
687.7137, 15.97681
688.1958, 15.83340
688.6779, 15.72236
689.1600, 15.63628
689.6422, 15.59911
690.1243, 15.63815
690.6064, 15.73771
691.0885, 15.78376
691.5706, 15.77491
692.0527, 15.75296
692.5349, 15.73940
693.0170, 15.73422
693.4991, 15.74021
693.9812, 15.75715
694.4633, 15.77324
694.9454, 15.76291
695.4276, 15.75983
695.9097, 15.80503
696.3918, 15.94472
696.8739, 16.00804
697.3560, 15.92166
697.8381, 15.78806
698.3203, 15.67768
698.8024, 15.57972
699.2845, 15.54932
699.7666, 15.60780
700.2487, 15.69793
700.7308, 15.74239
701.2130, 15.74678
701.6951, 15.74453
702.1772, 15.74231
702.6593, 15.74016
703.1414, 15.77275
703.6235, 15.80164
704.1057, 15.75211
704.5878, 15.48050
705.0699, 15.24426
705.5520, 15.15267
706.0341, 15.17771
706.5162, 15.23679
706.9984, 15.38165
707.4805, 15.47288
707.9626, 15.47082
708.4447, 15.38873
708.9268, 15.26225
709.4089, 15.07420
709.8911, 14.98855
710.3732, 15.17301
710.8553, 15.50439
711.3374, 15.64630
711.8195, 15.61323
712.3016, 15.53591
712.7838, 15.47958
713.2659, 15.43113
713.7480, 15.38975
714.2301, 15.35667
714.7122, 15.28422
715.1943, 15.04123
715.6765, 14.85197
716.1586, 14.88639
716.6407, 15.26922
717.1228, 15.35418
717.6049, 15.02011
718.0870, 14.64025
718.5692, 14.60853
719.0513, 14.88454
719.5334, 15.05358
720.0155, 15.06816
720.4976, 15.01970
720.9797, 14.97249
721.4619, 14.93630
721.9440, 14.93163
722.4261, 14.98413
722.9082, 15.02111
723.3903, 15.00475
723.8724, 14.95510
724.3546, 14.89773
724.8367, 14.83820
725.3188, 14.76615
725.8009, 14.66670
726.2830, 14.56306
726.7651, 14.49148
727.2473, 14.44860
727.7294, 14.47021
728.2115, 14.58972
728.6936, 14.74213
729.1757, 14.80114
729.6578, 14.78757
730.1400, 14.77350
730.6221, 14.78277
731.1042, 14.81268
731.5863, 14.91606
732.0684, 15.04723
732.5505, 15.05627
733.0327, 14.77310
733.5148, 14.50061
733.9969, 14.30230
734.4790, 14.18515
734.9611, 14.20897
735.4432, 14.41552
735.9254, 14.62111
736.4075, 14.75318
736.8896, 14.81337
737.3717, 14.77999
737.8538, 14.66045
738.3359, 14.55121
738.8181, 14.51460
739.3002, 14.52392
739.7823, 14.56218
740.2644, 14.62710
740.7465, 14.68847
741.2286, 14.80547
741.7108, 14.85732
742.1929, 14.73483
742.6750, 14.38437
743.1571, 14.17813
743.6392, 14.13585
744.1213, 14.19506
744.6035, 14.35611
745.0856, 14.60597
745.5677, 14.73650
746.0498, 14.72985
746.5319, 14.66873
747.0140, 14.56525
747.4962, 14.48001
747.9783, 14.53796
748.4604, 14.80417
748.9425, 14.99670
749.4246, 14.92533
749.9067, 14.74794
750.3889, 14.60513
750.8710, 14.51043
751.3531, 14.44975
751.8352, 14.42116
752.3173, 14.42858
752.7994, 14.49898
753.2816, 14.63547
753.7637, 14.70221
754.2458, 14.67019
754.7279, 14.60260
755.2100, 14.54346
755.6921, 14.51226
756.1743, 14.55931
756.6564, 14.76554
757.1385, 14.92884
757.6206, 14.92708
758.1027, 14.82132
758.5848, 14.69895
759.0670, 14.51867
759.5491, 14.39584
760.0312, 14.33338
760.5133, 14.33736
760.9954, 14.44702
761.4775, 14.67236
761.9597, 14.85031
762.4418, 14.94675
762.9239, 14.96236
763.4060, 14.83484
763.8881, 14.62309
764.3702, 14.48174
764.8524, 14.58491
765.3345, 14.67463
765.8166, 14.55064
766.2987, 14.30854
766.7808, 14.19234
767.2629, 14.29679
767.7451, 14.46718
768.2272, 14.73218
768.7093, 15.02822
769.1914, 15.15731
769.6735, 15.11032
770.1556, 14.98767
770.6378, 14.75534
771.1199, 14.53851
771.6020, 14.67237
772.0841, 15.05202
772.5662, 15.29551
773.0483, 15.11728
773.5305, 14.82384
774.0126, 14.51728
774.4947, 14.22981
774.9768, 14.10390
775.4589, 14.27892
775.9410, 14.46244
776.4232, 14.56761
776.9053, 14.61373
777.3874, 14.74756
777.8695, 14.98728
778.3516, 15.09832
778.8337, 14.83908
779.3159, 14.42496
779.7980, 14.29334
780.2801, 14.40642
780.7622, 14.56102
781.2443, 14.69793
781.7264, 14.79229
782.2086, 14.80977
782.6907, 14.75418
783.1728, 14.71928
783.6548, 14.70000
784.1370, 14.72033
784.6191, 14.80002
785.1012, 14.93114
785.5833, 15.08869
786.0654, 15.28351
786.5475, 15.32826
787.0297, 14.91439
787.5118, 14.34739
787.9939, 14.19850
788.4760, 14.43442
788.9581, 14.74097
789.4402, 15.06261
789.9224, 15.30183
790.4045, 15.37383
790.8866, 15.26500
791.3687, 15.15774
791.8508, 15.01868
792.3329, 14.94940
792.8151, 15.02620
793.2972, 15.23310
793.7793, 15.36974
794.2614, 15.43666
794.7435, 15.46494
795.2256, 15.45466
795.7078, 15.43078
796.1899, 15.43897
796.6720, 15.47653
797.1541, 15.48115
797.6362, 15.40512
798.1183, 15.30382
798.6005, 15.18078
799.0826, 15.02863
799.5647, 15.01322
800.0468, 15.19891
800.5289, 15.37640
801.0110, 15.40198
801.4932, 15.30505
801.9753, 15.33771
802.4574, 15.49425
802.9395, 15.58128
803.4216, 15.31416
803.9037, 14.99740
804.3859, 15.00448
804.8680, 15.35068
805.3501, 15.61409
805.8322, 15.59133
806.3143, 15.51286
806.7964, 15.50450
807.2786, 15.57274
807.7607, 15.53324
808.2428, 15.34497
808.7249, 15.20191
809.2070, 15.28798
809.6891, 15.51654
810.1713, 15.57875
810.6534, 15.48332
811.1355, 15.39569
811.6176, 15.48094
812.0997, 15.57598
812.5818, 15.52380
813.0640, 15.31076
813.5461, 15.18147
814.0282, 15.25515
814.5103, 15.32388
814.9924, 15.27933
815.4745, 15.12797
815.9567, 15.12216
816.4388, 15.27511
816.9209, 15.42016
817.4030, 15.40723
817.8851, 15.32816
818.3672, 15.39104
818.8494, 15.57308
819.3315, 15.66410
819.8136, 15.43993
820.2957, 15.19014
820.7778, 15.09948
821.2599, 15.18172
821.7421, 15.19576
822.2242, 15.11809
822.7063, 15.01563
823.1884, 14.87111
823.6705, 14.72590
824.1526, 14.85440
824.6348, 15.24132
825.1169, 15.59595
825.5990, 15.72087
826.0811, 15.73393
826.5632, 15.75003
827.0453, 15.76732
827.5275, 15.75076
828.0096, 15.64913
828.4917, 15.55336
828.9738, 15.51312
829.4559, 15.51360
829.9380, 15.43075
830.4202, 15.24665
830.9023, 15.06897
831.3844, 14.90637
831.8665, 14.80632
832.3486, 14.95731
832.8307, 15.29421
833.3129, 15.52746
833.7950, 15.37791
834.2771, 15.19475
834.7592, 15.19682
835.2413, 15.34775
835.7234, 15.45926
836.2056, 15.55652
836.6877, 15.54060
837.1698, 15.33104
837.6519, 15.01848
838.1340, 14.88417
838.6161, 14.92099
839.0983, 15.03100
839.5804, 15.23264
840.0625, 15.41893
840.5446, 15.44883
841.0267, 15.36366
841.5089, 15.26454
841.9910, 15.12963
842.4731, 15.05431
842.9552, 15.12883
843.4373, 15.26328
843.9194, 15.25036
844.4016, 15.04081
844.8837, 14.91439
845.3658, 14.95891
845.8479, 15.08014
846.3300, 15.14468
846.8121, 15.15179
847.2943, 15.09421
847.7764, 14.92878
848.2585, 14.76165
848.7406, 14.63181
849.2227, 14.54762
849.7048, 14.53109
850.1870, 14.68182
850.6691, 14.71282
851.1512, 14.53875
851.6333, 14.31798
852.1154, 14.30757
852.5975, 14.48690
853.0797, 14.65418
853.5618, 14.77536
854.0439, 14.85899
854.5260, 14.90796
855.0081, 14.92672
855.4902, 14.91824
855.9724, 14.86274
856.4545, 14.82379
856.9366, 14.84901
857.4187, 14.86696
857.9008, 14.78938
858.3829, 14.58198
858.8651, 14.53809
859.3472, 14.70117
859.8293, 14.89142
860.3114, 14.92622
860.7935, 14.85627
861.2756, 14.75397
861.7578, 14.62203
862.2399, 14.53098
862.7220, 14.54920
863.2041, 14.59661
863.6862, 14.62533
864.1683, 14.64328
864.6505, 14.57430
865.1326, 14.38077
865.6147, 14.20323
866.0968, 14.14058
866.5789, 14.17775
867.0610, 14.28508
867.5432, 14.45723
868.0253, 14.59670
868.5074, 14.60846
868.9895, 14.58787
869.4716, 14.61721
869.9537, 14.69927
870.4359, 14.72414
870.9180, 14.64311
871.4001, 14.56825
871.8822, 14.54745
872.3643, 14.56636
872.8464, 14.56667
873.3286, 14.54606
873.8107, 14.46286
874.2928, 14.19346
874.7749, 13.92448
875.2570, 13.90576
875.7391, 14.06007
876.2213, 14.15863
876.7034, 14.05604
877.1855, 13.97290
877.6676, 13.96367
878.1497, 14.00782
878.6318, 14.09153
879.1140, 14.23359
879.5961, 14.19113
880.0782, 13.82238
880.5603, 13.39821
881.0424, 13.34117
881.5245, 13.52098
882.0067, 13.67169
882.4888, 13.66840
882.9709, 13.67410
883.4530, 13.80720
883.9351, 13.94710
884.4172, 13.93243
884.8994, 13.70192
885.3815, 13.52191
885.8636, 13.41116
886.3457, 13.36519
886.8278, 13.43943
887.3099, 13.56685
887.7921, 13.56846
888.2742, 13.39661
888.7563, 13.22290
889.2384, 13.10665
889.7205, 13.06381
890.2026, 13.13393
890.6848, 13.36440
891.1669, 13.49112
891.6490, 13.46971
892.1311, 13.44818
892.6132, 13.58974
893.0953, 13.82582
893.5775, 13.83372
894.0596, 13.61904
894.5417, 13.39751
895.0238, 13.31864
895.5059, 13.27601
895.9880, 13.17528
896.4702, 13.01970
896.9523, 12.95038
897.4344, 13.00486
897.9165, 13.09361
898.3986, 13.21488
898.8807, 13.33372
899.3629, 13.28723
899.8450, 13.09769
900.3271, 12.93718
900.8092, 12.87246
901.2913, 12.88165
901.7734, 13.02299
902.2556, 13.21415
902.7377, 13.28302
903.2198, 13.05489
903.7019, 12.87998
904.1840, 12.81448
904.6661, 12.79825
905.1483, 12.69749
905.6304, 12.52318
906.1125, 12.51113
906.5946, 12.74065
907.0767, 12.99237
907.5588, 13.03385
908.0410, 12.96667
908.5231, 12.92297
909.0052, 12.97053
909.4873, 12.92635
909.9694, 12.66090
910.4515, 12.41642
910.9337, 12.40047
911.4158, 12.62666
911.8979, 12.72832
912.3800, 12.69527
912.8621, 12.63073
913.3442, 12.62782
913.8264, 12.63382
914.3085, 12.54666
914.7906, 12.37451
915.2727, 12.32365
915.7548, 12.65953
916.2369, 12.90089
916.7191, 12.82516
917.2012, 12.51007
917.6833, 12.41370
918.1654, 12.54213
918.6475, 12.64667
919.1296, 12.61454
919.6118, 12.50272
920.0939, 12.31887
920.5760, 12.11723
921.0581, 12.02618
921.5402, 12.24300
922.0223, 12.37720
922.5045, 12.30657
922.9866, 12.14833
923.4687, 12.06056
923.9508, 12.04299
924.4329, 12.11445
924.9150, 12.29158
925.3972, 12.48993
925.8793, 12.68136
926.3614, 12.80516
926.8435, 12.73837
927.3256, 12.39688
927.8077, 12.12300
928.2899, 12.05135
928.7720, 12.05033
929.2541, 12.04647
929.7362, 12.03702
930.2183, 12.09235
930.7004, 12.21728
931.1826, 12.33953
931.6647, 12.41373
932.1468, 12.44986
932.6289, 12.44048
933.1110, 12.39756
933.5931, 12.38379
934.0753, 12.50316
934.5574, 12.55520
935.0395, 12.44511
935.5216, 12.23622
936.0037, 12.13026
936.4858, 12.12645
936.9680, 12.21036
937.4501, 12.41836
937.9322, 12.62590
938.4143, 12.64773
938.8964, 12.56563
939.3785, 12.51639
939.8607, 12.55947
940.3428, 12.60823
940.8249, 12.64470
941.3070, 12.68444
941.7891, 12.76877
942.2712, 12.90324
942.7534, 12.88618
943.2355, 12.69380
943.7176, 12.47710
944.1997, 12.32838
944.6818, 12.25208
945.1639, 12.29390
945.6461, 12.45836
946.1282, 12.53344
946.6103, 12.39216
947.0924, 12.23940
947.5745, 12.11883
948.0566, 12.04677
948.5388, 12.14983
949.0209, 12.41737
949.5030, 12.65851
949.9851, 12.82806
950.4672, 12.88100
950.9493, 12.71759
951.4315, 12.41294
951.9136, 12.11715
952.3957, 11.71625
952.8778, 11.56885
953.3599, 11.83629
953.8420, 12.20405
954.3242, 12.18496
954.8063, 11.84111
955.2884, 11.65923
955.7705, 11.71464
956.2526, 11.86827
956.7347, 12.11714
957.2169, 12.33342
957.6990, 12.37378
958.1811, 12.17829
958.6632, 12.04369
959.1453, 11.98556
959.6274, 11.97996
960.1096, 12.04820
960.5917, 12.15476
961.0738, 12.10448
961.5559, 11.92921
962.0380, 11.82235
962.5201, 12.00035
963.0023, 12.16761
963.4844, 12.11294
963.9665, 11.91506
964.4486, 11.79067
964.9307, 11.78033
965.4128, 11.76093
965.8950, 11.71527
966.3771, 11.65418
966.8592, 11.55997
967.3413, 11.46564
967.8234, 11.48161
968.3055, 11.65803
968.7877, 11.78279
969.2698, 11.67193
969.7519, 11.51318
970.2340, 11.43985
970.7161, 11.45408
971.1982, 11.57900
971.6804, 11.85617
972.1625, 12.03567
972.6446, 11.86761
973.1267, 11.54249
973.6088, 11.39688
974.0909, 11.40745
974.5731, 11.48566
975.0552, 11.73475
975.5373, 11.87692
976.0194, 11.73584
976.5015, 11.47964
976.9836, 11.46951
977.4658, 11.72744
977.9479, 11.78981
978.4300, 11.52119
978.9121, 11.22897
979.3942, 11.31738
979.8763, 11.56131
980.3585, 11.65132
980.8406, 11.48127
981.3226, 11.36304
981.8047, 11.36985
982.2869, 11.40343
982.7690, 11.42598
983.2511, 11.43197
983.7332, 11.32201
984.2153, 11.11023
984.6974, 10.99149
985.1796, 11.17311
985.6617, 11.40856
986.1438, 11.50140
986.6259, 11.49406
987.1080, 11.52299
987.5901, 11.61584
988.0723, 11.72316
988.5544, 11.85957
989.0365, 11.96607
989.5186, 11.92230
990.0007, 11.77291
990.4828, 11.65332
990.9650, 11.58670
991.4471, 11.55639
991.9292, 11.57567
992.4113, 11.60998
992.8934, 11.63306
993.3755, 11.64334
993.8577, 11.66059
994.3398, 11.68551
994.8219, 11.71356
995.3040, 11.76088
995.7861, 11.79713
996.2682, 11.73650
996.7504, 11.61940
997.2325, 11.56234
997.7146, 11.65487
998.1967, 11.75914
998.6788, 11.85894
999.1609, 11.94199
999.6431, 11.97534
1000.125, 11.95935
1000.607, 12.00882
1001.089, 12.15097
1001.572, 12.25518
1002.054, 12.17188
1002.536, 12.00699
1003.018, 11.83174
1003.500, 11.64666
1003.982, 11.61556
1004.464, 11.79911
1004.946, 12.03317
1005.428, 12.30199
1005.911, 12.53802
1006.393, 12.45886
1006.875, 12.13210
1007.357, 11.85108
1007.839, 11.76491
1008.321, 11.72370
1008.803, 11.62223
1009.285, 11.53633
1009.768, 11.58198
1010.250, 11.81517
1010.732, 11.96626
1011.214, 12.01054
1011.696, 12.01616
1012.178, 12.03106
1012.660, 12.05865
1013.142, 12.12092
1013.624, 12.21536
1014.107, 12.26796
1014.589, 12.18868
1015.071, 12.13708
1015.553, 12.16284
1016.035, 12.25381
1016.517, 12.40850
1016.999, 12.61247
1017.481, 12.69938
1017.964, 12.55639
1018.446, 12.40797
1018.928, 12.49633
1019.410, 12.66887
1019.892, 12.73256
1020.374, 12.61565
1020.856, 12.49700
1021.338, 12.35844
1021.820, 12.26615
1022.303, 12.28979
1022.785, 12.39436
1023.267, 12.51835
1023.749, 12.64932
1024.231, 12.72853
1024.713, 12.64323
1025.195, 12.59400
1025.677, 12.67135
1026.160, 12.83286
1026.642, 13.04172
1027.124, 13.31031
1027.606, 13.36546
1028.088, 13.11456
1028.570, 12.82073
1029.052, 12.75160
1029.534, 12.79832
1030.016, 12.83281
1030.499, 12.82480
1030.981, 12.88547
1031.463, 12.89344
1031.945, 13.08684
1032.427, 13.19086
1032.909, 13.21030
1033.391, 12.89184
1033.873, 13.00971
1034.355, 12.95272
1034.838, 12.88854
1035.320, 13.06782
1035.802, 12.79851
1036.284, 12.97392
1036.766, 12.97181
1037.248, 13.05095
1037.730, 12.95416
1038.212, 12.91170
1038.695, 13.04522
1039.177, 13.08131
1039.659, 12.96425
1040.141, 13.04856
1040.623, 12.77310
1041.105, 12.81334
1041.587, 12.98979
1042.069, 12.88159
1042.552, 12.76138
1043.034, 12.72075
1043.516, 12.88352
1043.998, 13.18088
1044.480, 13.30667
1044.962, 13.12755
1045.444, 12.93400
1045.926, 12.86223
1046.408, 12.88075
1046.891, 12.98609
1047.373, 13.19923
1047.855, 13.28265
1048.337, 13.22738
1048.819, 13.12604
1049.301, 13.00516
1049.783, 12.71703
1050.265, 12.91522
1050.747, 13.02402
1051.230, 13.04824
1051.712, 12.73457
1052.194, 12.85722
1052.676, 12.80502
1053.158, 12.74565
1053.640, 12.92971
1054.122, 12.66519
1054.604, 12.84539
1055.087, 12.84806
1055.569, 12.93199
1056.051, 12.83997
1056.533, 12.80231
1057.015, 12.94063
1057.497, 12.98151
1057.979, 12.86924
1058.461, 12.95833
1058.943, 12.68766
1059.426, 12.73268
1059.908, 12.91391
1060.390, 12.81049
1060.872, 12.90280
1061.354, 12.92057
1061.836, 12.59956
1062.318, 12.86771
1062.800, 12.88107
1063.282, 12.63282
1063.765, 12.88077
1064.247, 12.66858
1064.729, 12.58564
1065.211, 12.50832
1065.693, 12.47410
1066.175, 12.52096
1066.657, 12.56015
1067.139, 12.59112
1067.622, 12.57743
1068.104, 12.41375
1068.586, 12.09127
1069.068, 12.02138
1069.550, 12.26355
1070.032, 12.51423
1070.514, 12.47811
1070.996, 12.35743
1071.479, 12.32599
1071.961, 12.39072
1072.443, 12.43632
1072.925, 12.47136
1073.407, 12.29263
1073.889, 12.49185
1074.371, 12.60169
1074.853, 12.62694
1075.335, 12.31431
1075.818, 12.43798
1076.300, 12.38681
1076.782, 12.32847
1077.264, 12.51357
1077.746, 12.25008
1078.228, 12.43131
1078.710, 12.43502
1079.192, 12.51998
1079.674, 12.42900
1080.156, 12.39236
1080.639, 12.53171
1081.121, 12.57362
1081.603, 12.46238
1082.085, 12.55251
1082.567, 12.28287
1083.049, 12.32893
1083.531, 12.51120
1084.013, 12.40881
1084.496, 12.50214
1084.978, 12.52094
1085.460, 12.20096
1085.942, 12.47015
1086.424, 12.48454
1086.906, 12.23732
1087.388, 12.48631
1087.870, 12.27515
1088.353, 12.22823
1088.835, 12.30493
1089.317, 12.25277
1089.799, 12.40377
1090.281, 12.35905
1090.763, 12.29684
1091.245, 12.31095
1091.727, 12.10882
1092.209, 12.30785
1092.692, 12.23284
1093.174, 12.29406
1093.656, 12.11623
1094.138, 12.04059
1094.620, 12.05575
1095.102, 12.27019
1095.584, 12.23926
1096.066, 12.42895
1096.548, 12.52926
1097.031, 12.54496
1097.513, 12.22280
1097.995, 12.33696
1098.477, 12.27626
1098.959, 12.20839
1099.441, 12.38396
1099.923, 12.11095
1100.405, 12.28266
1100.888, 12.27681
1101.370, 12.35224
1101.852, 12.25173
1102.334, 12.20557
1102.816, 12.33540
1103.298, 12.36779
1103.780, 12.24702
1104.262, 12.32762
1104.745, 12.04843
1105.227, 12.08496
1105.709, 12.25770
1106.191, 12.14579
1106.673, 12.22960
1107.155, 12.23887
1107.637, 11.88039
1108.119, 11.79948
1108.601, 11.81023
1109.083, 11.93237
1109.566, 12.21409
1110.048, 12.37584
1110.530, 12.07260
1111.012, 11.70436
1111.494, 11.58835
1111.976, 11.71007
1112.458, 11.82655
1112.940, 11.94188
1113.423, 11.97423
1113.905, 11.85416
1114.387, 11.69588
1114.869, 11.60837
1115.351, 11.56581
1115.833, 11.52901
1116.315, 11.45570
1116.797, 11.52359
1117.280, 11.78785
1117.762, 11.99495
1118.244, 11.93369
1118.726, 11.71748
1119.208, 11.48396
1119.690, 11.25595
1120.172, 11.09425
1120.654, 11.01126
1121.136, 11.02280
1121.619, 11.16387
1122.101, 11.33698
1122.583, 11.43566
1123.065, 11.47658
1123.547, 11.52314
1124.029, 11.57395
1124.511, 11.56598
1124.993, 11.35780
1125.475, 11.21844
1125.958, 11.25733
1126.440, 11.40697
1126.922, 11.57801
1127.404, 11.75427
1127.886, 11.77061
1128.368, 11.58136
1128.850, 11.38962
1129.332, 11.32973
1129.815, 11.33235
1130.297, 11.37925
1130.779, 11.44968
1131.261, 11.40388
1131.743, 11.23511
1132.225, 11.11838
1132.707, 11.12294
1133.189, 11.16539
1133.672, 11.19919
1134.154, 11.20368
1134.636, 11.12260
1135.118, 10.90939
1135.600, 10.92065
1136.082, 11.21517
1136.564, 11.45545
1137.046, 11.44262
1137.528, 11.30392
1138.010, 11.16503
1138.493, 11.05341
1138.975, 11.02139
1139.457, 11.12052
1139.939, 11.25858
1140.421, 11.47397
1140.903, 11.63572
1141.385, 11.60235
1141.867, 11.45809
1142.350, 11.38002
1142.832, 11.36078
1143.314, 11.35752
1143.796, 11.34177
1144.278, 11.36612
1144.760, 11.46915
1145.242, 11.56722
1145.724, 11.54250
1146.207, 11.42770
1146.689, 11.33160
1147.171, 11.26290
1147.653, 11.20986
1148.135, 11.11938
1148.617, 11.11057
1149.099, 11.27994
1149.581, 11.50784
1150.063, 11.53658
1150.546, 11.39585
1151.028, 11.29002
1151.510, 11.25325
1151.992, 11.25251
1152.474, 11.27045
1152.956, 11.31432
1153.438, 11.39331
1153.920, 11.50043
1154.402, 11.63399
1154.885, 11.79111
1155.367, 11.84990
1155.849, 11.74237
1156.331, 11.64702
1156.813, 11.75076
1157.295, 11.91270
1157.777, 12.01107
1158.259, 12.04413
1158.742, 11.99848
1159.224, 11.87081
1159.706, 11.70966
1160.188, 11.50091
1160.670, 11.33000
1161.152, 11.26966
1161.634, 11.31062
1162.116, 11.47550
1162.599, 11.84427
1163.081, 11.96843
1163.563, 11.80130
1164.045, 11.65247
1164.527, 11.77659
1165.009, 11.96485
1165.491, 11.88988
1165.973, 11.68297
1166.455, 11.61061
1166.938, 11.82947
1167.420, 11.97654
1167.902, 12.04316
1168.384, 12.05899
1168.866, 12.04062
1169.348, 11.99167
1169.830, 11.87367
1170.312, 11.72720
1170.794, 11.68539
1171.277, 11.94141
1171.759, 12.03304
1172.241, 11.85856
1172.723, 11.66164
1173.205, 11.76399
1173.687, 12.00799
1174.169, 12.04523
1174.651, 11.89398
1175.134, 11.82669
1175.616, 11.99283
1176.098, 12.19056
1176.580, 12.43224
1177.062, 12.61516
1177.544, 12.53212
1178.026, 12.28777
1178.508, 12.13720
1178.990, 12.10845
1179.473, 12.08529
1179.955, 11.97168
1180.437, 11.92863
1180.919, 12.02164
1181.401, 12.18529
1181.883, 12.33165
1182.365, 12.43935
1182.847, 12.39385
1183.329, 12.14922
1183.812, 12.02000
1184.294, 12.31087
1184.776, 12.55513
1185.258, 12.52908
1185.740, 12.35307
1186.222, 12.39147
1186.704, 12.59822
1187.186, 12.81071
1187.669, 13.00887
1188.151, 13.12367
1188.633, 13.04330
1189.115, 12.95013
1189.597, 12.96569
1190.079, 13.04270
1190.561, 12.91682
1191.043, 12.64006
1191.526, 12.48129
1192.008, 12.57407
1192.490, 12.70808
1192.972, 12.81469
1193.454, 12.89274
1193.936, 12.92239
1194.418, 12.91694
1194.900, 13.06132
1195.382, 13.31512
1195.865, 13.41952
1196.347, 13.13574
1196.829, 12.87595
1197.311, 12.86581
1197.793, 12.94965
1198.275, 13.00898
1198.757, 13.04387
1199.239, 13.02921
1199.721, 12.97428
1200.204, 12.96335
1200.686, 13.14081
1201.168, 13.25751
1201.650, 13.07840
1202.132, 12.85561
1202.614, 12.89388
1203.096, 13.19041
1203.578, 13.29689
1204.061, 13.22015
1204.543, 13.17541
1205.025, 13.36874
1205.507, 13.54608
1205.989, 13.52494
1206.471, 13.43581
1206.953, 13.45111
1207.435, 13.56872
1207.917, 13.70740
1208.400, 13.85684
1208.882, 13.91167
1209.364, 13.69368
1209.846, 13.47468
1210.328, 13.38782
1210.810, 13.41138
1211.292, 13.56543
1211.774, 13.84401
1212.256, 13.99580
1212.739, 14.00158
1213.221, 13.94193
1213.703, 13.80447
1214.185, 13.68868
1214.667, 13.64491
1215.149, 13.66299
1215.631, 13.77273
1216.113, 13.96131
1216.596, 13.98288
1217.078, 13.80127
1217.560, 13.62950
1218.042, 13.57100
1218.524, 13.60679
1219.006, 13.74786
1219.488, 13.96101
1219.970, 14.22618
1220.453, 14.52764
1220.935, 14.68347
1221.417, 14.65981
1221.899, 14.55153
1222.381, 14.27860
1222.863, 14.09292
1223.345, 14.19615
1223.827, 14.45513
1224.309, 14.49107
1224.792, 14.33543
1225.274, 14.23567
1225.756, 14.23906
1226.238, 14.29956
1226.720, 14.42406
1227.202, 14.56275
1227.684, 14.69680
1228.166, 14.82001
1228.648, 14.91746
1229.131, 14.98674
1229.613, 15.00447
1230.095, 14.95726
1230.577, 14.90909
1231.059, 14.82049
1231.541, 14.83735
1232.023, 15.10852
1232.505, 15.49132
1232.988, 15.40946
1233.470, 15.00429
1233.952, 14.91667
1234.434, 15.40592
1234.916, 15.77297
1235.398, 15.55402
1235.880, 15.25889
1236.362, 15.09204
1236.844, 15.04522
1237.327, 15.14309
1237.809, 15.33922
1238.291, 15.46270
1238.773, 15.42479
1239.255, 15.46910
1239.737, 15.79887
1240.219, 16.09164
1240.701, 16.20317
1241.183, 16.17936
1241.666, 16.11813
1242.148, 16.03941
1242.630, 16.00657
1243.112, 16.06075
1243.594, 16.08262
1244.076, 16.00848
1244.558, 15.95899
1245.040, 15.99757
1245.523, 16.09644
1246.005, 16.20201
1246.487, 16.30962
1246.969, 16.40545
1247.451, 16.46132
1247.933, 16.59894
1248.415, 16.92723
1248.897, 17.11577
1249.380, 16.90872
1249.862, 16.53208
1250.344, 16.43563
1250.826, 16.53779
1251.308, 16.70218
1251.790, 16.95943
1252.272, 17.08212
1252.754, 17.01834
1253.236, 16.96487
1253.719, 17.06374
1254.201, 17.19990
1254.683, 17.13213
1255.165, 16.99214
1255.647, 17.00713
1256.129, 17.27382
1256.611, 17.57663
1257.093, 17.94155
1257.575, 18.21415
1258.058, 18.26954
1258.540, 18.23118
1259.022, 18.20870
1259.504, 18.20709
1259.986, 18.23798
1260.468, 18.30466
1260.950, 18.38860
1261.432, 18.49244
1261.915, 18.57146
1262.397, 18.59277
1262.879, 18.58885
1263.361, 18.56984
1263.843, 18.55426
1264.325, 18.55790
1264.807, 18.57392
1265.289, 18.71082
1265.771, 18.96478
1266.254, 19.12796
1266.736, 18.99614
1267.218, 18.86025
1267.700, 18.91392
1268.182, 19.06226
1268.664, 19.19382
1269.146, 19.30910
1269.628, 19.51304
1270.110, 19.78984
1270.593, 20.00406
1271.075, 20.06031
1271.557, 20.08479
1272.039, 20.14525
1272.521, 20.18126
1273.003, 20.09965
1273.485, 19.94527
1273.967, 20.07273
1274.450, 20.40814
1274.932, 20.62886
1275.414, 20.49161
1275.896, 20.39595
1276.378, 20.43822
1276.860, 20.52383
1277.342, 20.59144
1277.824, 20.64843
1278.306, 20.70399
1278.789, 20.77032
1279.271, 20.88202
1279.753, 21.05990
1280.235, 21.28145
1280.717, 21.57569
1281.199, 21.82422
1281.681, 21.92687
1282.163, 21.94742
1282.646, 21.94419
1283.128, 21.96163
1283.610, 22.10507
1284.092, 22.51837
1284.574, 22.71861
1285.056, 22.64923
1285.538, 22.67775
1286.020, 23.24014
1286.502, 23.80009
1286.984, 23.61389
1287.467, 23.09431
1287.949, 22.88761
1288.431, 23.06464
1288.913, 23.35047
1289.395, 23.74955
1289.877, 24.03473
1290.359, 23.99857
1290.841, 23.91138
1291.324, 23.94811
1291.806, 24.04643
1292.288, 24.13166
1292.770, 24.20422
1293.252, 24.33004
1293.734, 24.49748
1294.216, 24.62658
1294.698, 24.66695
1295.181, 24.68203
1295.663, 24.63521
1296.145, 24.63956
1296.627, 24.81088
1297.109, 25.09431
1297.591, 25.22025
1298.073, 25.22973
1298.555, 25.24180
1299.037, 25.22868
1299.520, 25.39028
1300.002, 25.83496
1300.484, 26.27111
1300.966, 26.53934
1301.448, 26.66192
1301.930, 26.64678
1302.412, 26.54184
1302.894, 26.43894
1303.376, 26.34946
1303.859, 26.31232
1304.341, 26.35896
1304.823, 26.30547
1305.305, 26.06571
1305.787, 25.64569
##END=



