##NAMES=Vonsenite
##RRUFFID=R050477
##IDEAL CHEMISTRY=Fe^2+^_2_Fe^3+^O_2_(BO_3_)
##LOCALITY=North Hill, Riverside, California, USA
##OWNER=RRUFF
##SOURCE=California Institute of Technology
##DESCRIPTION=Aggregate of black granules
##STATUS=The identification of this mineral has been confirmed by X-ray diffraction and chemical analysis
##URL=rruff.info/R050477
##MEASURED CHEMISTRY=(Fe^2+^_0.63_Mg_0.37_)_2_Fe^3+^_1.00_BO_5_
93.78320, 108.1462
94.26532, 108.3180
94.74744, 108.7700
95.22955, 109.2304
95.71167, 109.7378
96.19379, 109.7400
96.67590, 109.4325
97.15802, 108.9073
97.64014, 107.8875
98.12225, 106.6929
98.60437, 105.9535
99.08649, 106.0459
99.56860, 106.5078
100.0507, 106.6618
100.5328, 106.3887
101.0150, 105.7287
101.4971, 104.5470
101.9792, 102.8122
102.4613, 101.3134
102.9434, 100.3011
103.4255, 99.64908
103.9077, 99.36986
104.3898, 99.50954
104.8719, 99.88432
105.3540, 100.1527
105.8361, 100.3634
106.3182, 100.3420
106.8004, 99.97536
107.2825, 99.41574
107.7646, 98.82033
108.2467, 98.27600
108.7288, 97.77815
109.2109, 97.30826
109.6931, 96.89217
110.1752, 96.46777
110.6573, 95.93717
111.1394, 95.36416
111.6215, 94.91273
112.1036, 94.73962
112.5858, 94.89013
113.0679, 95.03257
113.5500, 95.21402
114.0321, 95.35580
114.5142, 95.39233
114.9964, 95.31310
115.4785, 95.17030
115.9606, 95.00323
116.4427, 94.81273
116.9248, 94.63747
117.4069, 94.44467
117.8891, 94.27543
118.3712, 94.24399
118.8533, 94.46261
119.3354, 94.67884
119.8175, 94.64431
120.2996, 94.37853
120.7818, 94.06715
121.2639, 93.78799
121.7460, 93.53567
122.2281, 93.45824
122.7102, 93.81490
123.1923, 94.20715
123.6745, 94.49124
124.1566, 94.62513
124.6387, 94.55698
125.1208, 94.14651
125.6029, 93.09792
126.0850, 92.33984
126.5672, 92.07628
127.0493, 91.99976
127.5314, 91.87498
128.0135, 91.60591
128.4956, 91.24716
128.9777, 90.94539
129.4599, 90.83073
129.9420, 90.63257
130.4241, 90.23085
130.9062, 89.74885
131.3883, 89.40121
131.8705, 89.33271
132.3526, 89.45518
132.8347, 89.26113
133.3168, 88.45554
133.7989, 87.70348
134.2810, 87.34460
134.7632, 87.31676
135.2453, 87.27561
135.7274, 86.97873
136.2095, 86.49269
136.6916, 86.09360
137.1737, 85.79003
137.6559, 85.58010
138.1380, 85.48923
138.6201, 85.54174
139.1022, 85.59744
139.5843, 85.61758
140.0664, 85.57705
140.5486, 85.41196
141.0307, 85.04134
141.5128, 84.53470
141.9949, 84.11325
142.4770, 83.86042
142.9591, 83.56441
143.4413, 83.11778
143.9234, 82.57228
144.4055, 82.01674
144.8876, 81.50588
145.3697, 81.04040
145.8518, 80.63564
146.3340, 80.35983
146.8161, 80.09017
147.2982, 79.79111
147.7803, 79.46486
148.2624, 79.12723
148.7445, 78.77901
149.2267, 78.38752
149.7088, 78.14957
150.1909, 78.15806
150.6730, 78.20825
151.1551, 78.20619
151.6372, 78.13042
152.1194, 77.99421
152.6015, 77.80985
153.0836, 77.56067
153.5657, 77.29551
154.0478, 76.96225
154.5299, 76.63686
155.0121, 76.41599
155.4942, 76.32982
155.9763, 76.28722
156.4584, 76.13884
156.9405, 75.87588
157.4227, 75.63718
157.9048, 75.47264
158.3869, 75.35758
158.8690, 75.24464
159.3511, 75.12872
159.8332, 74.99673
160.3154, 74.86013
160.7975, 74.72556
161.2796, 74.50606
161.7617, 74.06773
162.2438, 73.43350
162.7259, 72.93416
163.2081, 72.63493
163.6902, 72.52837
164.1723, 72.68578
164.6544, 73.11000
165.1365, 73.53175
165.6186, 73.66621
166.1008, 73.47524
166.5829, 73.15942
167.0650, 72.56689
167.5471, 71.98226
168.0292, 71.62904
168.5113, 71.55273
168.9935, 71.57631
169.4756, 71.36217
169.9577, 70.59737
170.4398, 70.21800
170.9219, 70.56985
171.4040, 71.11860
171.8862, 71.41917
172.3683, 71.30762
172.8504, 70.93932
173.3325, 70.68002
173.8146, 70.62338
174.2967, 70.58120
174.7789, 70.55262
175.2610, 70.53391
175.7431, 70.51196
176.2252, 70.47844
176.7073, 70.45457
177.1894, 70.51712
177.6716, 70.95000
178.1537, 71.12142
178.6358, 70.73256
179.1179, 70.00621
179.6000, 69.36023
180.0821, 69.00192
180.5643, 68.86235
181.0464, 68.71580
181.5285, 68.54594
182.0106, 68.39117
182.4927, 68.30544
182.9749, 68.26470
183.4570, 68.14558
183.9391, 67.82766
184.4212, 67.43385
184.9033, 67.22814
185.3854, 67.29991
185.8676, 67.41871
186.3497, 67.40026
186.8318, 67.24163
187.3139, 67.04859
187.7960, 66.82574
188.2781, 66.61243
188.7603, 66.46059
189.2424, 66.39381
189.7245, 66.35889
190.2066, 66.30269
190.6887, 66.23746
191.1708, 66.10072
191.6530, 65.68985
192.1351, 65.28053
192.6172, 65.18491
193.0993, 65.56099
193.5814, 66.10960
194.0635, 66.17553
194.5457, 65.41528
195.0278, 64.85416
195.5099, 64.84457
195.9920, 65.04778
196.4741, 65.14029
196.9562, 64.97651
197.4384, 64.63377
197.9205, 64.32780
198.4026, 64.05325
198.8847, 63.83446
199.3668, 63.67954
199.8489, 63.57510
200.3311, 63.53861
200.8132, 63.58361
201.2953, 63.65297
201.7774, 63.52007
202.2595, 62.87607
202.7416, 62.36278
203.2238, 61.99844
203.7059, 61.81068
204.1880, 61.89007
204.6701, 62.31026
205.1522, 62.94251
205.6344, 63.19426
206.1165, 62.68943
206.5986, 62.28174
207.0807, 62.19453
207.5628, 62.32676
208.0449, 62.50026
208.5271, 62.63560
209.0092, 62.72577
209.4913, 62.73673
209.9734, 62.63544
210.4555, 62.51497
210.9376, 62.40305
211.4198, 62.29692
211.9019, 62.17331
212.3840, 61.99146
212.8661, 61.81787
213.3482, 61.83846
213.8303, 62.21383
214.3125, 62.51564
214.7946, 62.41429
215.2767, 61.98662
215.7588, 61.67102
216.2409, 61.75439
216.7230, 61.99416
217.2052, 61.90886
217.6873, 61.32865
218.1694, 60.77719
218.6515, 60.72931
219.1336, 61.16415
219.6157, 61.53057
220.0979, 61.58213
220.5800, 61.48222
221.0621, 61.41099
221.5442, 61.39173
222.0263, 61.38245
222.5084, 61.35673
222.9906, 61.31781
223.4727, 61.22271
223.9548, 60.97765
224.4369, 60.71849
224.9190, 60.52151
225.4011, 60.39708
225.8833, 60.38353
226.3654, 60.59917
226.8475, 61.12963
227.3296, 61.46821
227.8117, 61.41426
228.2938, 61.19231
228.7760, 60.87944
229.2581, 60.50127
229.7402, 60.12840
230.2223, 59.87569
230.7044, 59.80480
231.1866, 59.65317
231.6687, 59.24398
232.1508, 58.85617
232.6329, 58.70054
233.1150, 58.79972
233.5971, 58.98342
234.0793, 58.99694
234.5614, 58.72371
235.0435, 58.57129
235.5256, 58.69986
236.0077, 58.82473
236.4898, 58.73252
236.9720, 58.40664
237.4541, 58.01530
237.9362, 57.78561
238.4183, 57.77392
238.9004, 57.80497
239.3825, 57.93822
239.8647, 58.06205
240.3468, 58.10036
240.8289, 58.04565
241.3110, 57.94901
241.7931, 57.88415
242.2752, 57.91881
242.7574, 57.76229
243.2395, 57.26395
243.7216, 56.71771
244.2037, 56.26484
244.6858, 55.94427
245.1679, 55.76953
245.6501, 55.77354
246.1322, 56.02075
246.6143, 56.19652
247.0964, 56.36017
247.5785, 56.41909
248.0606, 56.27282
248.5428, 55.93292
249.0249, 55.52130
249.5070, 55.13561
249.9891, 54.77055
250.4712, 54.54723
250.9533, 54.60292
251.4355, 54.68469
251.9176, 54.60144
252.3997, 54.35570
252.8818, 54.10420
253.3639, 53.99384
253.8460, 54.02488
254.3282, 53.94518
254.8103, 53.68599
255.2924, 53.37424
255.7745, 53.06799
256.2566, 52.77718
256.7387, 52.53489
257.2209, 52.34565
257.7030, 52.23680
258.1851, 52.26877
258.6672, 52.61670
259.1493, 52.96288
259.6314, 53.09934
260.1136, 53.03373
260.5957, 52.83964
261.0778, 52.45503
261.5599, 52.01019
262.0420, 51.87132
262.5241, 52.31432
263.0063, 52.74049
263.4884, 52.65820
263.9705, 52.12417
264.4526, 51.63093
264.9347, 51.39860
265.4168, 51.36486
265.8990, 51.40285
266.3811, 51.59603
266.8632, 51.67643
267.3453, 51.30433
267.8275, 50.55871
268.3096, 50.07222
268.7917, 50.16786
269.2738, 50.56804
269.7559, 50.91648
270.2380, 51.22757
270.7202, 51.38222
271.2023, 51.18590
271.6844, 50.70268
272.1665, 50.37948
272.6486, 50.41300
273.1307, 50.56308
273.6129, 50.57400
274.0950, 50.44640
274.5771, 50.31930
275.0592, 50.31123
275.5413, 50.39432
276.0234, 50.40073
276.5056, 50.26508
276.9877, 50.09755
277.4698, 49.99281
277.9519, 49.93839
278.4340, 49.87065
278.9161, 49.69805
279.3983, 49.46566
279.8804, 49.38000
280.3625, 49.49409
280.8446, 49.70308
281.3267, 50.09761
281.8088, 50.53838
282.2910, 50.68202
282.7731, 50.16767
283.2552, 49.22075
283.7373, 48.59850
284.2194, 48.41588
284.7015, 48.36042
285.1837, 48.30186
285.6658, 48.25196
286.1479, 48.23326
286.6300, 48.26855
287.1121, 48.32888
287.5942, 48.33637
288.0764, 48.24908
288.5585, 48.21016
289.0406, 48.30890
289.5227, 48.46341
290.0048, 48.61046
290.4869, 48.74462
290.9691, 48.80796
291.4512, 48.65515
291.9333, 48.18258
292.4154, 47.82822
292.8975, 47.83791
293.3796, 47.93196
293.8618, 47.87655
294.3439, 47.61262
294.8260, 47.31417
295.3081, 47.23900
295.7902, 47.45374
296.2723, 47.57472
296.7545, 47.40676
297.2366, 47.21992
297.7187, 47.17894
298.2008, 47.29195
298.6829, 47.44197
299.1650, 47.52719
299.6472, 47.54934
300.1293, 47.48853
300.6114, 47.24652
301.0935, 47.00254
301.5756, 46.82079
302.0577, 46.70486
302.5399, 46.63927
303.0220, 46.62970
303.5041, 46.67237
303.9862, 46.68097
304.4683, 46.66329
304.9504, 46.59579
305.4326, 46.42468
305.9147, 46.20489
306.3968, 46.02333
306.8789, 45.91372
307.3610, 45.89406
307.8431, 46.07967
308.3253, 46.72643
308.8074, 47.16611
309.2895, 47.18276
309.7716, 46.93422
310.2537, 46.56347
310.7358, 46.11074
311.2180, 45.67004
311.7001, 45.47165
312.1822, 45.62431
312.6643, 45.78241
313.1464, 45.93219
313.6285, 46.02901
314.1107, 46.02264
314.5928, 45.90160
315.0749, 45.71958
315.5570, 45.54329
316.0392, 45.36554
316.5213, 45.22051
317.0034, 45.04504
317.4855, 44.95306
317.9676, 45.10201
318.4497, 45.45368
318.9319, 45.75144
319.4140, 45.67072
319.8961, 45.15356
320.3782, 44.83771
320.8603, 44.93736
321.3424, 45.05200
321.8246, 45.05068
322.3067, 44.94078
322.7888, 44.75443
323.2709, 44.45472
323.7530, 44.08985
324.2351, 44.05994
324.7173, 44.71695
325.1994, 45.21909
325.6815, 45.26141
326.1636, 45.01984
326.6457, 44.72667
327.1278, 44.48115
327.6100, 44.28639
328.0921, 44.13771
328.5742, 43.99499
329.0563, 43.99656
329.5384, 44.39604
330.0205, 44.81491
330.5027, 44.86489
330.9848, 44.43739
331.4669, 43.86234
331.9490, 43.63466
332.4311, 43.86151
332.9132, 43.96471
333.3954, 43.64806
333.8775, 43.34171
334.3596, 43.33058
334.8417, 43.60368
335.3238, 43.90175
335.8059, 43.95026
336.2881, 43.74446
336.7702, 43.65921
337.2523, 43.84771
337.7344, 43.99463
338.2165, 43.91676
338.6986, 43.68681
339.1808, 43.48307
339.6629, 43.42790
340.1450, 43.47881
340.6271, 43.47612
341.1092, 43.40340
341.5913, 43.30571
342.0735, 43.14540
342.5556, 42.99136
343.0377, 42.95536
343.5198, 43.11058
344.0019, 43.30307
344.4840, 43.24965
344.9662, 42.87922
345.4483, 42.57492
345.9304, 42.40759
346.4125, 42.38271
346.8946, 42.60295
347.3767, 43.08050
347.8589, 43.51238
348.3410, 43.55652
348.8231, 43.22418
349.3052, 42.95610
349.7873, 42.80095
350.2694, 42.74513
350.7516, 42.80074
351.2337, 42.94599
351.7158, 43.09337
352.1979, 43.24247
352.6800, 43.35752
353.1621, 43.28640
353.6443, 42.93635
354.1264, 42.60692
354.6085, 42.48243
355.0906, 42.49007
355.5727, 42.53159
356.0548, 42.58244
356.5370, 42.64437
357.0191, 42.75001
357.5012, 42.91122
357.9833, 42.97652
358.4654, 42.78548
358.9475, 42.52193
359.4297, 42.42229
359.9118, 42.53761
360.3939, 42.66872
360.8760, 42.65052
361.3581, 42.51381
361.8402, 42.41380
362.3224, 42.38498
362.8045, 42.40636
363.2866, 42.48107
363.7687, 42.60078
364.2508, 42.67326
364.7329, 42.62618
365.2151, 42.52005
365.6972, 42.47059
366.1793, 42.50007
366.6614, 42.50122
367.1436, 42.29555
367.6257, 41.99580
368.1078, 41.95545
368.5899, 42.53135
369.0720, 43.12416
369.5541, 43.16709
370.0363, 42.73867
370.5184, 42.36192
371.0005, 42.30033
371.4826, 42.42363
371.9647, 42.42777
372.4468, 42.27539
372.9290, 42.11581
373.4111, 41.97552
373.8932, 41.87238
374.3753, 41.87036
374.8574, 42.00079
375.3395, 42.13826
375.8217, 42.08541
376.3038, 41.80490
376.7859, 41.68127
377.2680, 41.95329
377.7501, 42.25837
378.2322, 42.22352
378.7144, 41.86459
379.1965, 41.52861
379.6786, 41.47804
380.1607, 41.69001
380.6428, 41.85541
381.1249, 42.12383
381.6071, 42.19271
382.0892, 41.76600
382.5713, 41.08567
383.0534, 40.61516
383.5355, 40.55716
384.0176, 40.76758
384.4998, 40.94099
384.9819, 41.07954
385.4640, 41.17124
385.9461, 41.19876
386.4282, 41.18962
386.9103, 41.16020
387.3925, 41.11653
387.8746, 41.06835
388.3567, 41.03492
388.8388, 41.03228
389.3209, 40.92175
389.8030, 40.54810
390.2852, 40.24139
390.7673, 40.14901
391.2494, 40.21869
391.7315, 40.34751
392.2136, 40.48240
392.6957, 40.60166
393.1779, 40.61537
393.6600, 40.42058
394.1421, 40.26088
394.6242, 40.16034
395.1063, 40.09971
395.5884, 40.09147
396.0706, 40.12616
396.5527, 40.13350
397.0348, 39.99445
397.5169, 39.64696
397.9990, 39.40340
398.4811, 39.32289
398.9633, 39.29844
399.4454, 39.33714
399.9275, 39.40106
400.4096, 39.41179
400.8917, 39.30532
401.3738, 39.10922
401.8560, 38.93208
402.3381, 38.74270
402.8202, 38.63834
403.3023, 38.68829
403.7844, 38.80725
404.2665, 38.92342
404.7487, 39.01884
405.2308, 39.07309
405.7129, 39.04468
406.1950, 38.92837
406.6771, 38.82508
407.1592, 38.74199
407.6414, 38.69080
408.1235, 38.74297
408.6056, 38.86026
409.0877, 38.84517
409.5698, 38.41412
410.0519, 37.79523
410.5341, 37.57731
411.0162, 37.86810
411.4983, 38.19958
411.9804, 38.29842
412.4625, 38.24664
412.9446, 38.16402
413.4268, 38.04694
413.9089, 37.94006
414.3910, 37.91096
414.8731, 37.93479
415.3553, 37.87066
415.8374, 37.62756
416.3195, 37.35554
416.8016, 37.29541
417.2837, 37.44854
417.7658, 37.61375
418.2480, 37.77506
418.7301, 37.90132
419.2122, 37.95359
419.6943, 37.92884
420.1764, 37.85534
420.6585, 37.75194
421.1407, 37.61668
421.6228, 37.45329
422.1049, 37.14619
422.5870, 36.93616
423.0691, 37.04125
423.5512, 37.28895
424.0334, 37.35069
424.5155, 37.09114
424.9976, 36.64939
425.4797, 36.27099
425.9618, 35.88237
426.4439, 35.74099
426.9261, 36.08739
427.4082, 36.48590
427.8903, 36.60758
428.3724, 36.46501
428.8545, 36.29247
429.3366, 36.28916
429.8188, 36.44414
430.3009, 36.51025
430.7830, 36.41789
431.2651, 36.30686
431.7472, 36.16060
432.2293, 36.02194
432.7115, 35.93763
433.1936, 35.92497
433.6757, 35.97367
434.1578, 36.08924
434.6399, 36.31399
435.1220, 36.45304
435.6042, 36.50880
436.0863, 36.45508
436.5684, 36.17463
437.0505, 35.75004
437.5326, 35.43542
438.0147, 35.47500
438.4969, 35.73856
438.9790, 35.72565
439.4611, 35.29695
439.9432, 34.94444
440.4253, 34.88791
440.9074, 35.00437
441.3896, 35.23440
441.8717, 35.60320
442.3538, 35.87355
442.8359, 35.72395
443.3180, 35.24186
443.8001, 34.98618
444.2823, 35.15657
444.7644, 35.40405
445.2465, 35.32357
445.7286, 34.99873
446.2107, 34.81567
446.6928, 35.01463
447.1750, 35.31179
447.6571, 35.39632
448.1392, 35.28476
448.6213, 35.21046
449.1034, 35.33181
449.5855, 35.53932
450.0677, 35.50981
450.5498, 35.14331
451.0319, 34.80147
451.5140, 34.51745
451.9961, 34.33385
452.4782, 34.35250
452.9604, 34.57687
453.4425, 34.83955
453.9246, 34.97691
454.4067, 34.98290
454.8888, 34.91223
455.3709, 34.65889
455.8531, 34.45799
456.3352, 34.45393
456.8173, 34.54833
457.2994, 34.56281
457.7815, 34.41430
458.2636, 34.18237
458.7458, 34.03073
459.2279, 33.97748
459.7100, 33.97277
460.1921, 34.12453
460.6742, 34.22646
461.1563, 34.09970
461.6385, 33.79419
462.1206, 33.52016
462.6027, 33.43823
463.0848, 33.52154
463.5669, 33.64412
464.0491, 33.84363
464.5312, 34.00236
465.0133, 34.08402
465.4954, 34.10593
465.9775, 34.06170
466.4597, 33.94348
466.9418, 33.83934
467.4239, 33.87913
467.9060, 34.02818
468.3881, 34.04255
468.8702, 33.84951
469.3524, 33.58941
469.8345, 33.32612
470.3166, 33.08232
470.7987, 32.94847
471.2808, 33.02475
471.7629, 33.15987
472.2451, 33.27731
472.7272, 33.35582
473.2093, 33.25121
473.6914, 32.84553
474.1735, 32.33001
474.6556, 32.07246
475.1378, 32.08545
475.6199, 32.25179
476.1020, 32.78428
476.5841, 33.30721
477.0662, 33.44148
477.5483, 33.19831
478.0305, 32.88162
478.5126, 32.72501
478.9947, 32.70089
479.4768, 32.57300
479.9589, 32.03763
480.4410, 31.77133
480.9232, 32.11099
481.4053, 32.63154
481.8874, 32.88699
482.3695, 32.77615
482.8516, 32.51506
483.3337, 32.36139
483.8159, 32.33203
484.2980, 32.26596
484.7801, 32.12944
485.2622, 31.99292
485.7443, 31.87231
486.2264, 31.77020
486.7086, 31.68112
487.1907, 31.59508
487.6728, 31.54928
488.1549, 31.64376
488.6370, 31.89421
489.1191, 32.00880
489.6013, 31.81454
490.0834, 31.58688
490.5655, 31.64706
491.0476, 31.93689
491.5297, 32.05112
492.0118, 31.64900
492.4940, 31.08363
492.9761, 30.84950
493.4582, 30.93775
493.9403, 30.96069
494.4224, 30.66097
494.9045, 30.22437
495.3867, 30.17121
495.8688, 30.69937
496.3509, 31.04568
496.8330, 30.87955
497.3151, 30.53320
497.7972, 30.35489
498.2794, 30.38254
498.7615, 30.46361
499.2436, 30.46719
499.7257, 30.40011
500.2078, 30.39080
500.6899, 30.52719
501.1721, 30.61454
501.6542, 30.57963
502.1363, 30.50105
502.6184, 30.46333
503.1005, 30.48875
503.5826, 30.54433
504.0648, 30.61441
504.5469, 30.71335
505.0290, 30.67352
505.5111, 30.32740
505.9932, 30.05106
506.4753, 30.03365
506.9575, 30.16655
507.4396, 30.28270
507.9217, 30.32696
508.4038, 30.31636
508.8859, 30.22297
509.3680, 30.05745
509.8502, 30.03966
510.3323, 30.30797
510.8144, 30.59152
511.2965, 30.59264
511.7786, 30.35990
512.2607, 30.13571
512.7429, 29.95939
513.2250, 29.83171
513.7071, 29.76160
514.1892, 29.74237
514.6713, 29.75645
515.1534, 29.80685
515.6356, 29.85435
516.1177, 29.81204
516.5998, 29.59302
517.0819, 29.48284
517.5640, 29.58938
518.0461, 29.72491
518.5283, 29.77972
519.0104, 29.74755
519.4925, 29.64247
519.9746, 29.46191
520.4567, 29.24896
520.9388, 29.18103
521.4210, 29.40294
521.9031, 29.49616
522.3852, 29.29961
522.8673, 29.05939
523.3494, 28.96177
523.8315, 29.00480
524.3137, 29.05314
524.7958, 28.97901
525.2779, 28.83175
525.7600, 28.80859
526.2421, 28.95422
526.7242, 29.05416
527.2064, 28.96536
527.6885, 28.80457
528.1706, 28.73480
528.6527, 28.79074
529.1348, 28.80641
529.6169, 28.59487
530.0991, 28.32475
530.5812, 28.34494
531.0633, 28.69129
531.5454, 28.97062
532.0275, 28.86816
532.5096, 28.44905
532.9918, 28.16879
533.4739, 28.08538
533.9560, 28.04266
534.4381, 28.04298
534.9202, 28.05015
535.4023, 28.01061
535.8845, 27.92308
536.3666, 27.84849
536.8487, 27.85427
537.3308, 27.94003
537.8129, 27.99444
538.2951, 27.98020
538.7772, 27.98318
539.2593, 28.02591
539.7415, 28.09291
540.2236, 28.19430
540.7057, 28.32789
541.1878, 28.40400
541.6699, 28.24760
542.1520, 27.91553
542.6342, 27.83745
543.1163, 28.12919
543.5984, 28.46574
544.0805, 28.67540
544.5626, 28.77623
545.0447, 28.77286
545.5269, 28.57829
546.0090, 28.44650
546.4911, 28.66818
546.9732, 29.02420
547.4553, 29.02528
547.9374, 28.56395
548.4196, 28.04778
548.9017, 27.88528
549.3838, 28.08643
549.8659, 28.13846
550.3480, 27.93514
550.8301, 27.73792
551.3123, 27.62613
551.7944, 27.55700
552.2765, 27.47112
552.7586, 27.35448
553.2407, 27.23949
553.7228, 27.15897
554.2050, 27.11164
554.6871, 27.12605
555.1692, 27.24822
555.6513, 27.36835
556.1334, 27.45349
556.6155, 27.51080
557.0977, 27.56551
557.5798, 27.63274
558.0619, 27.63124
558.5440, 27.41208
559.0261, 27.05353
559.5082, 26.86276
559.9904, 26.90749
560.4725, 27.00680
560.9546, 27.04156
561.4367, 27.01495
561.9188, 26.96311
562.4009, 26.75394
562.8831, 26.68619
563.3652, 27.08728
563.8473, 27.60786
564.3294, 27.69115
564.8115, 27.25375
565.2936, 26.73362
565.7758, 26.58398
566.2579, 26.80609
566.7400, 26.85925
567.2221, 26.48037
567.7042, 26.24912
568.1863, 26.36544
568.6685, 26.61722
569.1506, 26.77994
569.6327, 26.80933
570.1148, 26.83587
570.5969, 27.05371
571.0790, 27.40542
571.5612, 27.47679
572.0433, 27.14733
572.5254, 26.87569
573.0075, 27.02339
573.4896, 27.31473
573.9717, 27.29825
574.4539, 26.83371
574.9360, 26.44683
575.4181, 26.49713
575.9002, 26.72210
576.3823, 26.72701
576.8644, 26.48409
577.3466, 26.24618
577.8287, 26.19757
578.3108, 26.29700
578.7929, 26.34128
579.2750, 26.24511
579.7571, 26.20581
580.2393, 26.23601
580.7214, 26.32415
581.2035, 26.54290
581.6856, 26.83164
582.1677, 26.97216
582.6498, 26.76333
583.1320, 26.31916
583.6141, 26.02460
584.0962, 25.88686
584.5783, 25.87577
585.0604, 26.12271
585.5425, 26.38500
586.0247, 26.45615
586.5068, 26.33932
586.9889, 26.16335
587.4710, 25.92014
587.9531, 25.68918
588.4352, 25.53173
588.9174, 25.46076
589.3995, 25.57934
589.8816, 25.98358
590.3637, 26.44534
590.8458, 26.55365
591.3279, 26.13223
591.8101, 25.84223
592.2922, 25.76321
592.7743, 25.73361
593.2564, 25.63846
593.7385, 25.53387
594.2206, 25.58630
594.7028, 25.87415
595.1849, 26.18175
595.6670, 26.07184
596.1491, 25.45355
596.6312, 25.10914
597.1133, 25.27520
597.5955, 25.48000
598.0776, 25.42741
598.5597, 25.23746
599.0418, 25.14411
599.5239, 25.23649
600.0060, 25.37469
600.4882, 25.47567
600.9703, 25.53516
601.4524, 25.52137
601.9345, 25.42429
602.4166, 25.34605
602.8987, 25.39371
603.3809, 25.55259
603.8630, 25.60157
604.3451, 25.44180
604.8272, 25.31488
605.3093, 25.26894
605.7914, 25.27391
606.2736, 25.33364
606.7557, 25.42497
607.2378, 25.45616
607.7199, 25.31656
608.2020, 25.06587
608.6841, 25.03257
609.1663, 25.32149
609.6484, 25.52437
610.1305, 25.43544
610.6126, 25.26995
611.0947, 25.20359
611.5768, 25.24222
612.0590, 25.31376
612.5411, 25.41798
613.0232, 25.51915
613.5053, 25.60691
613.9874, 25.66381
614.4695, 25.58530
614.9517, 25.30160
615.4338, 24.97475
615.9159, 24.87343
616.3980, 25.07038
616.8801, 25.25573
617.3622, 25.57577
617.8444, 25.73302
618.3265, 25.42631
618.8086, 24.92859
619.2907, 24.69321
619.7728, 24.88078
620.2549, 25.20739
620.7371, 25.28680
621.2192, 25.13257
621.7013, 25.11727
622.1834, 25.32979
622.6655, 25.52017
623.1476, 25.54493
623.6298, 25.45205
624.1119, 25.29648
624.5940, 25.04486
625.0761, 24.84821
625.5582, 24.80733
626.0403, 24.84336
626.5225, 24.85684
627.0046, 24.84314
627.4867, 24.85933
627.9688, 24.94995
628.4509, 25.07933
628.9330, 25.12713
629.4152, 25.01783
629.8973, 24.96453
630.3794, 25.01089
630.8615, 25.07270
631.3436, 25.10687
631.8257, 25.11702
632.3079, 25.12868
632.7900, 25.16300
633.2721, 25.17988
633.7542, 25.08866
634.2363, 24.90803
634.7184, 24.82513
635.2006, 24.90103
635.6827, 25.00561
636.1648, 25.03292
636.6469, 24.98709
637.1291, 24.92754
637.6112, 24.82242
638.0933, 24.74294
638.5754, 24.73771
639.0576, 24.75654
639.5397, 24.71447
640.0218, 24.61893
640.5039, 24.59546
640.9860, 24.77842
641.4681, 25.08808
641.9503, 25.08943
642.4324, 24.57886
642.9145, 24.27114
643.3966, 24.54230
643.8787, 24.88993
644.3608, 24.97909
644.8430, 24.83390
645.3251, 24.65881
645.8072, 24.43725
646.2893, 24.31494
646.7714, 24.57824
647.2535, 25.07725
647.7357, 25.28954
648.2178, 25.05151
648.6999, 24.65180
649.1820, 24.40350
649.6641, 24.31265
650.1462, 24.23408
650.6284, 24.12299
651.1105, 24.07923
651.5926, 24.17296
652.0747, 24.31357
652.5568, 24.43091
653.0389, 24.50393
653.5211, 24.51531
654.0032, 24.41805
654.4853, 24.26364
654.9674, 24.22094
655.4495, 24.30515
655.9316, 24.32120
656.4138, 24.16602
656.8959, 23.96102
657.3780, 23.84153
657.8601, 23.80126
658.3422, 23.87774
658.8243, 24.23649
659.3065, 24.54819
659.7886, 24.65877
660.2707, 24.59203
660.7528, 24.33677
661.2349, 23.91632
661.7170, 23.51576
662.1992, 23.35599
662.6813, 23.42715
663.1634, 23.49133
663.6455, 23.52890
664.1276, 23.59964
664.6097, 23.84607
665.0919, 24.05350
665.5740, 23.94163
666.0561, 23.51494
666.5382, 23.24705
667.0203, 23.54495
667.5024, 23.96128
667.9846, 23.97700
668.4667, 23.68822
668.9488, 23.46113
669.4309, 23.42927
669.9130, 23.50903
670.3951, 23.60205
670.8773, 23.71811
671.3594, 23.76858
671.8415, 23.70255
672.3236, 23.62912
672.8057, 23.58288
673.2878, 23.53385
673.7700, 23.42579
674.2521, 23.26138
674.7342, 23.14064
675.2163, 23.20462
675.6984, 23.34138
676.1805, 23.28697
676.6627, 23.04924
677.1448, 22.85324
677.6269, 22.76424
678.1090, 22.79935
678.5911, 23.03015
679.0732, 23.53109
679.5554, 23.77896
680.0375, 23.64145
680.5196, 23.41201
681.0017, 23.13362
681.4838, 22.85871
681.9659, 22.62464
682.4481, 22.45062
682.9302, 22.37679
683.4123, 22.47676
683.8944, 22.70090
684.3765, 22.84662
684.8586, 22.89971
685.3408, 22.95649
685.8229, 23.06292
686.3050, 23.17199
686.7871, 23.22689
687.2692, 23.23019
687.7513, 23.19771
688.2335, 23.11472
688.7156, 23.01465
689.1977, 22.90719
689.6798, 22.79790
690.1619, 22.68006
690.6440, 22.55878
691.1262, 22.47593
691.6083, 22.48456
692.0904, 22.56789
692.5725, 22.61047
693.0546, 22.61672
693.5367, 22.56277
694.0189, 22.31066
694.5010, 22.11235
694.9831, 22.26348
695.4652, 22.71328
695.9473, 23.04332
696.4294, 23.10285
696.9116, 23.03373
697.3937, 22.85561
697.8758, 22.63979
698.3579, 22.51748
698.8400, 22.51624
699.3221, 22.57922
699.8043, 22.66826
700.2864, 22.76754
700.7685, 22.73767
701.2506, 22.46272
701.7327, 22.30494
702.2148, 22.42721
702.6970, 22.61379
703.1791, 22.77828
703.6612, 22.89471
704.1433, 22.89519
704.6254, 22.66105
705.1075, 22.42647
705.5897, 22.42250
706.0718, 22.55058
706.5539, 22.58878
707.0360, 22.50165
707.5181, 22.43367
708.0002, 22.50787
708.4824, 22.69422
708.9645, 22.84670
709.4466, 22.99550
709.9287, 23.05168
710.4108, 22.91367
710.8929, 22.77305
711.3751, 22.79044
711.8572, 22.88844
712.3393, 22.84830
712.8214, 22.54162
713.3035, 22.20860
713.7856, 22.04712
714.2678, 22.01430
714.7499, 22.02238
715.2320, 22.05899
715.7141, 22.14396
716.1962, 22.29836
716.6783, 22.49383
717.1605, 22.64818
717.6426, 22.77193
718.1247, 22.83041
718.6068, 22.79082
719.0889, 22.72409
719.5710, 22.67183
720.0532, 22.61103
720.5353, 22.46263
721.0174, 22.18196
721.4995, 21.99958
721.9816, 22.22202
722.4637, 22.63162
722.9459, 22.78765
723.4280, 22.67432
723.9101, 22.48166
724.3922, 22.27701
724.8743, 22.13255
725.3564, 22.20568
725.8386, 22.60269
726.3207, 22.83406
726.8028, 22.83791
727.2849, 22.75417
727.7670, 22.56428
728.2491, 22.34086
728.7313, 22.14148
729.2134, 21.98260
729.6955, 21.92239
730.1776, 22.08309
730.6597, 22.32270
731.1418, 22.41516
731.6240, 22.37567
732.1061, 22.30975
732.5882, 22.25276
733.0703, 22.18522
733.5524, 22.06918
734.0345, 21.89777
734.5167, 21.84547
734.9988, 22.04955
735.4809, 22.19566
735.9631, 22.20774
736.4452, 22.16595
736.9273, 22.12359
737.4094, 22.09018
737.8915, 22.05711
738.3737, 21.95832
738.8558, 21.94159
739.3379, 22.31729
739.8200, 22.91081
740.3021, 23.15223
740.7842, 22.92889
741.2664, 22.57263
741.7485, 22.31246
742.2306, 22.16910
742.7127, 22.27183
743.1948, 22.96218
743.6769, 23.26982
744.1591, 22.82718
744.6412, 22.32409
745.1233, 22.05936
745.6054, 22.01485
746.0875, 22.14227
746.5696, 22.47511
747.0518, 22.76217
747.5339, 22.79991
748.0160, 22.66712
748.4981, 22.41514
748.9802, 22.09085
749.4623, 21.94608
749.9445, 22.12409
750.4266, 22.46099
750.9087, 22.66889
751.3908, 22.75061
751.8729, 22.68531
752.3550, 22.35184
752.8372, 22.02778
753.3193, 21.70163
753.8014, 21.48601
754.2835, 21.57875
754.7656, 21.98928
755.2477, 22.31188
755.7299, 22.26226
756.2120, 22.12013
756.6941, 22.21430
757.1762, 22.42125
757.6583, 22.37775
758.1404, 22.00164
758.6226, 21.61853
759.1047, 21.56189
759.5868, 21.77795
760.0689, 21.89526
760.5510, 21.87994
761.0331, 21.85070
761.5153, 21.76621
761.9974, 21.74063
762.4795, 21.93477
762.9616, 22.25654
763.4437, 22.39612
763.9258, 22.15932
764.4080, 21.96605
764.8901, 22.10083
765.3722, 22.33322
765.8543, 22.40529
766.3364, 22.31356
766.8185, 22.14719
767.3007, 21.94691
767.7828, 21.79554
768.2649, 21.87929
768.7470, 22.20963
769.2291, 22.45247
769.7112, 22.60113
770.1934, 22.64295
770.6755, 22.51702
771.1576, 22.31485
771.6397, 22.19337
772.1218, 22.16128
772.6039, 22.13119
773.0861, 22.04659
773.5682, 22.00664
774.0503, 22.12433
774.5324, 22.29175
775.0145, 22.34129
775.4966, 22.25051
775.9788, 22.14187
776.4609, 22.10184
776.9430, 22.12928
777.4251, 22.28615
777.9072, 22.56449
778.3893, 22.61224
778.8715, 22.29638
779.3536, 21.92200
779.8357, 21.72284
780.3178, 21.69484
780.7999, 21.81225
781.2820, 22.27178
781.7642, 22.59022
782.2463, 22.67338
782.7284, 22.67645
783.2105, 22.69018
783.6926, 22.69982
784.1747, 22.62887
784.6569, 22.43444
785.1390, 22.30133
785.6211, 22.50937
786.1032, 22.84892
786.5853, 22.85413
787.0674, 22.55037
787.5496, 22.33102
788.0317, 22.37491
788.5138, 22.50336
788.9959, 22.43817
789.4780, 22.14989
789.9601, 22.10572
790.4423, 22.53183
790.9244, 22.83809
791.4065, 22.76554
791.8886, 22.61822
792.3707, 22.68932
792.8528, 22.93208
793.3350, 23.01375
793.8171, 22.68325
794.2992, 22.35596
794.7813, 22.35225
795.2634, 22.47502
795.7455, 22.41806
796.2277, 22.18723
796.7098, 22.01968
797.1919, 22.06382
797.6740, 22.21554
798.1561, 22.28647
798.6382, 22.27573
799.1204, 22.18369
799.6025, 21.95894
800.0846, 21.79888
800.5667, 21.80023
801.0488, 21.92356
801.5309, 22.15240
802.0131, 22.54024
802.4952, 22.70469
802.9773, 22.44840
803.4594, 22.15158
803.9415, 21.90507
804.4236, 21.74898
804.9058, 21.74636
805.3879, 21.88742
805.8700, 22.08225
806.3521, 22.31002
806.8342, 22.50246
807.3163, 22.52496
807.7985, 22.41481
808.2806, 22.31887
808.7627, 22.26351
809.2448, 22.24954
809.7269, 22.28639
810.2090, 22.35118
810.6912, 22.37261
811.1733, 22.33604
811.6554, 22.29099
812.1375, 22.20842
812.6196, 22.15156
813.1017, 22.15386
813.5839, 22.19051
814.0660, 22.24716
814.5481, 22.32402
815.0302, 22.33859
815.5123, 22.16495
815.9944, 22.00153
816.4766, 22.04070
816.9587, 22.19391
817.4408, 22.28895
817.9229, 22.29322
818.4050, 22.30181
818.8871, 22.40676
819.3693, 22.54796
819.8514, 22.53396
820.3335, 22.35470
820.8156, 22.27107
821.2977, 22.34289
821.7798, 22.46289
822.2620, 22.61679
822.7441, 22.74042
823.2262, 22.61772
823.7083, 22.01658
824.1904, 21.70965
824.6725, 21.96516
825.1547, 22.24359
825.6368, 22.24527
826.1189, 22.15108
826.6010, 22.25450
827.0831, 22.59057
827.5652, 22.87096
828.0474, 22.89148
828.5295, 22.77195
829.0116, 22.61695
829.4937, 22.44283
829.9758, 22.28979
830.4579, 22.16657
830.9401, 22.05751
831.4222, 21.94618
831.9043, 21.84963
832.3864, 21.82620
832.8685, 21.89167
833.3506, 21.96006
833.8328, 22.06297
834.3149, 22.09228
834.7971, 21.87317
835.2792, 21.59904
835.7613, 21.66818
836.2434, 22.17850
836.7255, 22.47678
837.2076, 22.29119
837.6898, 22.05950
838.1719, 21.98658
838.6540, 21.99121
839.1361, 21.95364
839.6182, 21.86670
840.1003, 21.81989
840.5825, 21.89062
841.0646, 21.99459
841.5467, 21.99888
842.0288, 21.94071
842.5109, 21.96437
842.9930, 22.08278
843.4752, 22.14441
843.9573, 22.05390
844.4394, 21.86147
844.9215, 21.65994
845.4036, 21.42679
845.8857, 21.29647
846.3679, 21.28562
846.8500, 21.34949
847.3321, 21.58246
847.8142, 21.80396
848.2963, 21.79637
848.7784, 21.56923
849.2606, 21.36794
849.7427, 21.11521
850.2248, 21.04881
850.7069, 21.42017
851.1890, 21.90887
851.6711, 22.23208
852.1533, 22.36604
852.6354, 22.36491
853.1175, 22.24034
853.5996, 22.09594
854.0817, 22.04914
854.5638, 22.07426
855.0460, 22.14946
855.5281, 22.25494
856.0102, 22.19186
856.4923, 21.86240
856.9744, 21.50232
857.4565, 21.43316
857.9387, 21.64018
858.4208, 21.70284
858.9029, 21.53157
859.3850, 21.43556
859.8671, 21.55382
860.3492, 21.67620
860.8314, 21.58900
861.3135, 21.38859
861.7956, 21.35943
862.2777, 21.65735
862.7598, 21.82336
863.2419, 21.60634
863.7241, 21.35041
864.2062, 21.35716
864.6883, 21.46323
865.1704, 21.31629
865.6525, 20.85596
866.1346, 20.45549
866.6168, 20.43939
867.0989, 20.63117
867.5810, 20.77290
868.0631, 20.88386
868.5452, 21.08040
869.0273, 21.37246
869.5095, 21.48370
869.9916, 21.17831
870.4737, 20.66459
870.9558, 20.52236
871.4379, 20.84619
871.9200, 20.99200
872.4022, 20.87519
872.8843, 20.71804
873.3664, 20.59533
873.8485, 20.50096
874.3306, 20.43570
874.8127, 20.40055
875.2949, 20.35437
875.7770, 20.25160
876.2591, 20.19349
876.7412, 20.23851
877.2233, 20.31711
877.7054, 20.37311
878.1876, 20.40761
878.6697, 20.45295
879.1518, 20.53199
879.6339, 20.57534
880.1160, 20.53306
880.5981, 20.41870
881.0803, 20.18365
881.5624, 19.89105
882.0445, 19.77520
882.5266, 19.90257
883.0087, 20.01602
883.4908, 19.81334
883.9730, 19.40488
884.4551, 19.22608
884.9372, 19.28385
885.4193, 19.49652
885.9014, 19.90873
886.3835, 20.26733
886.8657, 20.40951
887.3478, 20.35894
887.8299, 20.15958
888.3120, 19.68282
888.7941, 19.40481
889.2762, 19.52448
889.7584, 19.59862
890.2405, 19.42113
890.7226, 19.18574
891.2047, 19.12367
891.6868, 19.22272
892.1689, 19.24161
892.6511, 19.01241
893.1332, 18.80728
893.6153, 18.75956
894.0974, 18.80807
894.5795, 18.97016
895.0616, 19.16235
895.5438, 19.16107
896.0259, 18.87467
896.5080, 18.55344
896.9901, 18.46308
897.4722, 18.53760
897.9543, 18.68370
898.4365, 18.86874
898.9186, 18.89474
899.4007, 18.70500
899.8828, 18.51103
900.3649, 18.50381
900.8470, 18.62831
901.3292, 18.68645
901.8113, 18.66701
902.2934, 18.63589
902.7755, 18.60261
903.2576, 18.54679
903.7397, 18.45110
904.2219, 18.33232
904.7040, 18.19685
905.1861, 18.02865
905.6682, 17.97842
906.1503, 18.22738
906.6324, 18.35896
907.1146, 18.13420
907.5967, 17.87108
908.0788, 17.86535
908.5609, 18.04282
909.0430, 18.13743
909.5251, 18.05642
910.0073, 17.92871
910.4894, 17.78373
910.9715, 17.66500
911.4536, 17.65210
911.9357, 17.68949
912.4178, 17.63182
912.9000, 17.46212
913.3821, 17.35344
913.8642, 17.48303
914.3463, 17.69890
914.8284, 17.68216
915.3105, 17.49257
915.7927, 17.40868
916.2748, 17.46637
916.7569, 17.55172
917.2390, 17.60511
917.7211, 17.64088
918.2032, 17.68920
918.6854, 17.75236
919.1675, 17.75623
919.6496, 17.68505
920.1317, 17.59954
920.6138, 17.49145
921.0959, 17.40790
921.5781, 17.39033
922.0602, 17.43180
922.5423, 17.50630
923.0244, 17.73124
923.5065, 17.77052
923.9886, 17.44144
924.4708, 17.11663
924.9529, 16.91469
925.4350, 16.83624
925.9171, 16.94447
926.3992, 17.21304
926.8813, 17.34566
927.3635, 17.05792
927.8456, 16.80466
928.3277, 16.92603
928.8098, 17.16183
929.2919, 17.24263
929.7740, 17.16795
930.2562, 17.01001
930.7383, 16.79919
931.2204, 16.64241
931.7025, 16.67912
932.1846, 16.82324
932.6667, 16.92073
933.1489, 16.98248
933.6310, 17.06721
934.1132, 17.18406
934.5953, 17.27502
935.0774, 17.30025
935.5595, 17.25712
936.0416, 17.10988
936.5237, 16.85671
937.0059, 16.70051
937.4880, 16.66208
937.9701, 16.65795
938.4522, 16.66893
938.9343, 16.66568
939.4164, 16.59877
939.8986, 16.47652
940.3807, 16.44521
940.8628, 16.52231
941.3449, 16.65961
941.8270, 16.94811
942.3091, 17.18427
942.7913, 17.28547
943.2734, 17.25724
943.7555, 17.04350
944.2376, 16.59468
944.7197, 16.37307
945.2018, 16.71176
945.6840, 16.96737
946.1661, 16.74928
946.6482, 16.46179
947.1303, 16.56898
947.6124, 16.93785
948.0945, 17.04699
948.5767, 16.66027
949.0588, 16.31047
949.5409, 16.34668
950.0230, 16.56063
950.5051, 16.89530
950.9872, 17.19551
951.4694, 17.11926
951.9515, 16.66879
952.4336, 16.27456
952.9157, 16.24778
953.3978, 16.37919
953.8799, 16.39334
954.3621, 16.31963
954.8442, 16.20647
955.3263, 16.07452
955.8084, 16.01784
956.2905, 16.07385
956.7726, 16.18404
957.2548, 16.29358
957.7369, 16.39293
958.2190, 16.45900
958.7011, 16.49587
959.1832, 16.37000
959.6653, 16.01125
960.1475, 15.74587
960.6296, 15.77906
961.1117, 15.98908
961.5938, 16.17317
962.0759, 16.34479
962.5580, 16.34887
963.0402, 16.07015
963.5223, 15.86558
964.0044, 15.82095
964.4865, 15.86147
964.9686, 15.98336
965.4507, 16.14198
965.9329, 16.19833
966.4150, 16.12926
966.8971, 16.02093
967.3792, 15.75812
967.8613, 15.60461
968.3434, 15.74055
968.8256, 15.96866
969.3077, 16.10457
969.7898, 16.14547
970.2719, 16.17068
970.7540, 16.23067
971.2361, 16.21491
971.7183, 15.95202
972.2004, 15.71679
972.6825, 15.76715
973.1646, 15.97641
973.6467, 16.17375
974.1288, 16.29752
974.6110, 16.25906
975.0931, 15.91238
975.5752, 15.54114
976.0573, 15.37281
976.5394, 15.36835
977.0215, 15.58622
977.5037, 15.90901
977.9858, 15.95280
978.4679, 15.60245
978.9500, 15.26799
979.4321, 15.40386
979.9142, 15.77088
980.3964, 15.87839
980.8785, 15.79982
981.3606, 15.80875
981.8427, 15.93671
982.3248, 16.05365
982.8069, 16.09046
983.2891, 16.07775
983.7712, 16.05801
984.2533, 16.02929
984.7354, 15.97612
985.2175, 15.89821
985.6996, 15.80124
986.1818, 15.68214
986.6639, 15.56355
987.1460, 15.45076
987.6281, 15.37410
988.1102, 15.41880
988.5923, 15.61184
989.0745, 15.71013
989.5566, 15.65075
990.0387, 15.69973
990.5208, 16.01342
991.0029, 16.31222
991.4850, 16.34473
991.9672, 16.16435
992.4493, 15.97417
992.9314, 15.77777
993.4135, 15.56108
993.8956, 15.18539
994.3777, 14.97842
994.8599, 15.21327
995.3420, 15.52909
995.8241, 15.56306
996.3062, 15.36389
996.7883, 15.24817
997.2704, 15.30405
997.7526, 15.33076
998.2347, 15.25628
998.7168, 15.19747
999.1989, 15.23020
999.6810, 15.30032
1000.163, 15.31811
1000.645, 15.29171
1001.127, 15.35103
1001.609, 15.67158
1002.092, 15.86292
1002.574, 15.63401
1003.056, 15.34555
1003.538, 15.29021
1004.020, 15.37364
1004.502, 15.40177
1004.984, 15.34247
1005.466, 15.31128
1005.949, 15.42832
1006.431, 15.50926
1006.913, 15.37998
1007.395, 15.16867
1007.877, 14.94905
1008.359, 14.79508
1008.841, 14.89400
1009.323, 15.27281
1009.805, 15.60127
1010.288, 15.57869
1010.770, 15.42469
1011.252, 15.39493
1011.734, 15.42980
1012.216, 15.41731
1012.698, 15.35973
1013.180, 15.32576
1013.662, 15.34217
1014.145, 15.35568
1014.627, 15.28783
1015.109, 15.20122
1015.591, 15.25838
1016.073, 15.40232
1016.555, 15.42441
1017.037, 15.31636
1017.519, 15.25590
1018.001, 15.33395
1018.484, 15.41214
1018.966, 15.26387
1019.448, 14.98803
1019.930, 15.02725
1020.412, 15.32436
1020.894, 15.28079
1021.376, 14.80082
1021.858, 14.42399
1022.341, 14.46912
1022.823, 14.71979
1023.305, 14.84233
1023.787, 14.85057
1024.269, 14.89001
1024.751, 14.96455
1025.233, 14.98204
1025.715, 14.91080
1026.198, 14.89542
1026.680, 15.05207
1027.162, 15.24617
1027.644, 15.20167
1028.126, 14.91091
1028.608, 14.73722
1029.090, 14.69733
1029.572, 14.70003
1030.054, 14.73117
1030.536, 14.79521
1031.019, 14.92048
1031.501, 15.04487
1031.983, 15.01918
1032.465, 14.81090
1032.947, 14.71652
1033.429, 14.79391
1033.911, 14.83383
1034.393, 14.79085
1034.876, 14.69328
1035.358, 14.50620
1035.840, 14.31699
1036.322, 14.35303
1036.804, 14.68156
1037.286, 14.92009
1037.768, 15.12797
1038.250, 15.12627
1038.733, 14.65026
1039.215, 14.22831
1039.697, 14.30639
1040.179, 14.70069
1040.661, 14.97440
1041.143, 15.17079
1041.625, 15.08913
1042.107, 14.25093
1042.589, 13.79459
1043.072, 14.28786
1043.554, 14.90168
1044.036, 15.05055
1044.518, 14.88697
1045.000, 14.79529
1045.482, 14.82600
1045.964, 14.77705
1046.446, 14.49145
1046.928, 14.31904
1047.411, 14.44308
1047.893, 14.62256
1048.375, 14.67562
1048.857, 14.64731
1049.339, 14.65925
1049.821, 14.72905
1050.303, 14.80719
1050.785, 14.99268
1051.268, 15.04461
1051.750, 14.75309
1052.232, 14.42016
1052.714, 14.24928
1053.196, 14.23259
1053.678, 14.36375
1054.160, 14.68542
1054.642, 14.84494
1055.125, 14.56864
1055.607, 14.36731
1056.089, 14.56093
1056.571, 14.78596
1057.053, 14.70132
1057.535, 14.42429
1058.017, 14.22042
1058.499, 14.13088
1058.981, 14.18801
1059.464, 14.59945
1059.946, 14.90243
1060.428, 14.81303
1060.910, 14.62434
1061.392, 14.57765
1061.874, 14.63029
1062.356, 14.66676
1062.838, 14.66610
1063.320, 14.59780
1063.803, 14.35012
1064.285, 14.16307
1064.767, 14.24821
1065.249, 14.34446
1065.731, 14.13729
1066.213, 13.80199
1066.695, 13.75283
1067.177, 14.06419
1067.660, 14.26415
1068.142, 14.03643
1068.624, 13.82413
1069.106, 13.87578
1069.588, 13.99015
1070.070, 13.97008
1070.552, 13.89719
1071.034, 13.97948
1071.516, 14.23931
1071.999, 14.40116
1072.481, 14.23395
1072.963, 14.09778
1073.445, 14.25322
1073.927, 14.41788
1074.409, 14.34100
1074.891, 14.11654
1075.373, 13.88870
1075.855, 13.69750
1076.338, 13.59867
1076.820, 13.63241
1077.302, 13.73273
1077.784, 13.94995
1078.266, 14.13951
1078.748, 14.19196
1079.230, 14.13880
1079.712, 13.96616
1080.195, 13.72428
1080.677, 13.68133
1081.159, 14.08166
1081.641, 14.38632
1082.123, 14.24983
1082.605, 14.01942
1083.087, 13.90855
1083.569, 13.88472
1084.052, 13.90999
1084.534, 13.95940
1085.016, 13.97085
1085.498, 13.92188
1085.980, 13.83777
1086.462, 13.66544
1086.944, 13.53227
1087.426, 13.57175
1087.908, 13.66199
1088.391, 13.64452
1088.873, 13.53703
1089.355, 13.45341
1089.837, 13.41390
1090.319, 13.45453
1090.801, 13.66044
1091.283, 13.86628
1091.765, 14.01688
1092.248, 14.09206
1092.730, 14.01376
1093.212, 13.85741
1093.694, 13.84585
1094.176, 14.06301
1094.658, 14.15279
1095.140, 13.81972
1095.622, 13.54827
1096.104, 13.62350
1096.587, 13.79353
1097.069, 13.84849
1097.551, 13.81990
1098.033, 13.82000
1098.515, 13.87085
1098.997, 13.86512
1099.479, 13.68175
1099.961, 13.56085
1100.443, 13.68175
1100.926, 13.79337
1101.408, 13.64571
1101.890, 13.40433
1102.372, 13.37057
1102.854, 13.56464
1103.336, 13.69202
1103.818, 13.69262
1104.300, 13.61370
1104.783, 13.36107
1105.265, 13.14934
1105.747, 13.14292
1106.229, 13.21121
1106.711, 13.16010
1107.193, 13.00829
1107.675, 12.98034
1108.157, 13.23460
1108.640, 13.36053
1109.122, 13.17794
1109.604, 13.01830
1110.086, 12.99899
1110.568, 13.07085
1111.050, 13.26076
1111.532, 13.50269
1112.014, 13.54481
1112.496, 13.26909
1112.979, 13.08827
1113.461, 13.06686
1113.943, 13.07606
1114.425, 13.07225
1114.907, 13.10315
1115.389, 13.28168
1115.871, 13.49262
1116.353, 13.44029
1116.835, 13.04743
1117.318, 12.85488
1117.800, 12.99139
1118.282, 13.09151
1118.764, 13.08927
1119.246, 13.05609
1119.728, 12.99351
1120.210, 12.96101
1120.692, 13.07498
1121.175, 13.33062
1121.657, 13.45994
1122.139, 13.44435
1122.621, 13.33895
1123.103, 13.07417
1123.585, 12.90447
1124.067, 12.96177
1124.549, 13.11860
1125.031, 13.26117
1125.514, 13.36787
1125.996, 13.31074
1126.478, 13.03508
1126.960, 12.89777
1127.442, 12.92837
1127.924, 13.02162
1128.406, 13.17084
1128.888, 13.27106
1129.370, 13.23026
1129.853, 13.10218
1130.335, 12.99673
1130.817, 12.91381
1131.299, 12.94995
1131.781, 13.11582
1132.263, 13.15129
1132.745, 12.99557
1133.227, 12.85729
1133.710, 12.85571
1134.192, 12.94429
1134.674, 13.08425
1135.156, 13.24000
1135.638, 13.24538
1136.120, 13.11946
1136.602, 12.99544
1137.084, 12.89336
1137.567, 12.83866
1138.049, 12.84118
1138.531, 12.90096
1139.013, 13.05134
1139.495, 13.17606
1139.977, 12.91908
1140.459, 12.48610
1140.941, 12.53070
1141.423, 12.95956
1141.906, 13.29641
1142.388, 13.41543
1142.870, 13.40527
1143.352, 13.31050
1143.834, 13.18751
1144.316, 13.07006
1144.798, 12.99123
1145.280, 13.07582
1145.762, 13.20573
1146.245, 13.09650
1146.727, 12.79123
1147.209, 12.57381
1147.691, 12.55415
1148.173, 12.62126
1148.655, 12.79313
1149.137, 12.90131
1149.619, 12.71991
1150.102, 12.45640
1150.584, 12.31902
1151.066, 12.30589
1151.548, 12.37257
1152.030, 12.50347
1152.512, 12.67926
1152.994, 12.92968
1153.476, 13.14299
1153.958, 13.31690
1154.441, 13.37635
1154.923, 13.15666
1155.405, 12.87517
1155.887, 12.81346
1156.369, 12.93165
1156.851, 12.98710
1157.333, 12.91475
1157.815, 12.85533
1158.297, 12.86459
1158.780, 12.85657
1159.262, 12.73402
1159.744, 12.65468
1160.226, 12.71806
1160.708, 12.90847
1161.190, 13.26956
1161.672, 13.82833
1162.154, 14.04158
1162.637, 13.68687
1163.119, 13.40213
1163.601, 13.24470
1164.083, 13.13957
1164.565, 13.06309
1165.047, 13.01426
1165.529, 12.98541
1166.011, 12.98631
1166.494, 13.06919
1166.976, 13.26481
1167.458, 13.39567
1167.940, 13.46769
1168.422, 13.42874
1168.904, 13.24645
1169.386, 13.05439
1169.868, 12.93722
1170.350, 12.88270
1170.833, 12.88746
1171.315, 12.93302
1171.797, 12.88245
1172.279, 12.75245
1172.761, 12.74507
1173.243, 12.87546
1173.725, 13.04847
1174.207, 13.22194
1174.689, 13.23583
1175.172, 12.89090
1175.654, 12.46579
1176.136, 12.49446
1176.618, 12.78363
1177.100, 12.90057
1177.582, 12.88377
1178.064, 12.89566
1178.546, 12.97412
1179.029, 13.13212
1179.511, 13.38719
1179.993, 13.53866
1180.475, 13.28176
1180.957, 12.97890
1181.439, 13.04795
1181.921, 13.23745
1182.403, 13.21034
1182.885, 13.03824
1183.368, 12.93242
1183.850, 12.94062
1184.332, 13.00732
1184.814, 13.18225
1185.296, 13.27832
1185.778, 13.17420
1186.260, 13.01956
1186.742, 12.82072
1187.225, 12.68431
1187.707, 12.77710
1188.189, 13.02704
1188.671, 13.16396
1189.153, 13.13549
1189.635, 13.10097
1190.117, 13.03753
1190.599, 13.01900
1191.082, 13.08394
1191.564, 13.15810
1192.046, 13.20827
1192.528, 13.24120
1193.010, 13.28107
1193.492, 13.31372
1193.974, 13.18944
1194.456, 12.84121
1194.938, 12.71117
1195.421, 12.85840
1195.903, 13.00426
1196.385, 13.06816
1196.867, 13.08584
1197.349, 13.07416
1197.831, 13.07752
1198.313, 13.23340
1198.795, 13.46663
1199.277, 13.30435
1199.760, 12.86271
1200.242, 12.82619
1200.724, 13.20133
1201.206, 13.42240
1201.688, 13.28641
1202.170, 13.10395
1202.652, 13.12733
1203.134, 13.23891
1203.617, 13.33330
1204.099, 13.38899
1204.581, 13.39007
1205.063, 13.32076
1205.545, 13.09553
1206.027, 12.77353
1206.509, 12.56472
1206.991, 12.54480
1207.474, 12.64741
1207.956, 12.97055
1208.438, 13.23255
1208.920, 13.24208
1209.402, 13.17860
1209.884, 13.18343
1210.366, 13.21195
1210.848, 13.17548
1211.330, 13.07508
1211.813, 12.98973
1212.295, 12.90304
1212.777, 12.88315
1213.259, 12.96449
1213.741, 13.05812
1214.223, 13.14936
1214.705, 13.23725
1215.187, 13.33344
1215.669, 13.41189
1216.152, 13.43270
1216.634, 13.39272
1217.116, 13.17796
1217.598, 12.75299
1218.080, 12.65463
1218.562, 12.95361
1219.044, 13.18621
1219.526, 13.19055
1220.009, 13.11597
1220.491, 13.08819
1220.973, 13.03143
1221.455, 12.73595
1221.937, 12.34505
1222.419, 12.21966
1222.901, 12.31418
1223.383, 12.58709
1223.865, 12.94020
1224.348, 13.05310
1224.830, 12.84044
1225.312, 12.69241
1225.794, 12.94063
1226.276, 13.21625
1226.758, 13.26431
1227.240, 13.18768
1227.722, 12.95030
1228.204, 12.73208
1228.687, 12.82704
1229.169, 13.14247
1229.651, 13.30167
1230.133, 13.21151
1230.615, 13.10285
1231.097, 12.96834
1231.579, 12.89032
1232.061, 12.93634
1232.544, 12.97880
1233.026, 12.98726
1233.508, 12.92806
1233.990, 12.72416
1234.472, 12.43749
1234.954, 12.34504
1235.436, 12.48231
1235.918, 12.55707
1236.401, 12.55664
1236.883, 12.65007
1237.365, 12.87732
1237.847, 13.04883
1238.329, 13.06090
1238.811, 13.03759
1239.293, 13.14066
1239.775, 13.27078
1240.257, 13.16709
1240.740, 12.95359
1241.222, 12.93215
1241.704, 13.05621
1242.186, 13.17320
1242.668, 13.23890
1243.150, 13.22913
1243.632, 13.12786
1244.114, 13.02808
1244.596, 13.01823
1245.079, 12.99589
1245.561, 12.85753
1246.043, 12.71729
1246.525, 12.67767
1247.007, 12.69800
1247.489, 12.71417
1247.971, 12.72158
1248.453, 12.73702
1248.936, 12.77560
1249.418, 12.78266
1249.900, 12.67349
1250.382, 12.70975
1250.864, 13.03195
1251.346, 13.32372
1251.828, 13.42246
1252.310, 13.35631
1252.792, 13.12486
1253.275, 12.80059
1253.757, 12.72455
1254.239, 12.86735
1254.721, 12.81643
1255.203, 12.58954
1255.685, 12.50283
1256.167, 12.61612
1256.649, 12.80339
1257.131, 13.00105
1257.614, 13.11671
1258.096, 13.02228
1258.578, 12.84575
1259.060, 12.67680
1259.542, 12.56320
1260.024, 12.65285
1260.506, 12.79703
1260.988, 12.66363
1261.471, 12.31581
1261.953, 12.21976
1262.435, 12.57418
1262.917, 12.81984
1263.399, 12.67711
1263.881, 12.61051
1264.363, 12.82314
1264.845, 13.05418
1265.328, 13.30913
1265.810, 13.34072
1266.292, 12.70480
1266.774, 11.69359
1267.256, 11.57845
1267.738, 12.48621
1268.220, 12.94174
1268.702, 12.93033
1269.184, 12.86605
1269.667, 12.82761
1270.149, 12.89307
1270.631, 13.09628
1271.113, 13.22675
1271.595, 13.05501
1272.077, 12.77356
1272.559, 12.63737
1273.041, 12.60264
1273.523, 12.64301
1274.006, 12.71396
1274.488, 12.73952
1274.970, 12.72993
1275.452, 12.75124
1275.934, 12.82126
1276.416, 12.88588
1276.898, 12.95479
1277.380, 12.97015
1277.863, 12.75721
1278.345, 12.68503
1278.827, 13.19731
1279.309, 13.64653
1279.791, 13.39806
1280.273, 12.79190
1280.755, 12.59178
1281.237, 12.79256
1281.719, 12.97212
1282.202, 13.13899
1282.684, 13.10542
1283.166, 12.85551
1283.648, 12.74721
1284.130, 12.88805
1284.612, 13.04776
1285.094, 13.07269
1285.576, 13.00047
1286.059, 12.74598
1286.541, 12.54244
##END=



