##NAMES=Vonsenite
##RRUFFID=R050221
##IDEAL CHEMISTRY=Fe^2+^_2_Fe^3+^O_2_(BO_3_)
##LOCALITY=Monchi mine, Burguillos del Cerro, Badajoz, Extremadura, Spain
##OWNER=RRUFF
##SOURCE=Marcus Origlieri
##DESCRIPTION=Mass of thin bladed black crystals
##STATUS=The identification of this mineral has been confirmed by X-ray diffraction and chemical analysis
##URL=rruff.info/R050221
##MEASURED CHEMISTRY=(Fe^2+^_1.96_Mg_0.03_Mn_0.01_)_Σ=2_(Fe^3+^_0.98_Al_0.02_)_Σ=1_BO_5_
92.35352, 211.9039
92.83563, 213.4122
93.31775, 214.1193
93.79987, 215.5768
94.28198, 214.5292
94.76410, 212.1146
95.24622, 208.7771
95.72833, 205.3363
96.21045, 202.5672
96.69257, 200.6945
97.17468, 198.4729
97.65680, 195.7218
98.13892, 192.6802
98.62103, 189.3768
99.10315, 185.5390
99.58527, 181.3013
100.0674, 177.9503
100.5495, 176.4812
101.0316, 174.7077
101.5137, 171.7675
101.9958, 168.3102
102.4780, 165.3873
102.9601, 163.8043
103.4422, 163.6182
103.9243, 163.0479
104.4064, 161.8584
104.8885, 160.5857
105.3707, 159.4096
105.8528, 158.3543
106.3349, 157.4217
106.8170, 156.6552
107.2991, 156.0862
107.7813, 155.1986
108.2634, 153.6514
108.7455, 151.8668
109.2276, 150.2998
109.7097, 148.9778
110.1918, 148.0571
110.6740, 147.8649
111.1561, 148.3125
111.6382, 148.7489
112.1203, 148.8586
112.6024, 148.6609
113.0845, 148.2947
113.5666, 147.6236
114.0488, 146.9171
114.5309, 146.3484
115.0130, 145.9348
115.4951, 145.6112
115.9772, 145.2958
116.4593, 144.9701
116.9415, 144.7090
117.4236, 144.7667
117.9057, 144.7511
118.3878, 144.2829
118.8699, 143.2318
119.3520, 141.8610
119.8342, 140.8870
120.3163, 140.5969
120.7984, 140.4246
121.2805, 140.3771
121.7626, 140.4090
122.2447, 140.4962
122.7269, 140.6377
123.2090, 140.8067
123.6911, 140.7545
124.1732, 140.6144
124.6553, 140.1950
125.1374, 139.2043
125.6196, 137.7807
126.1017, 136.4756
126.5838, 135.6852
127.0659, 135.4184
127.5480, 135.2661
128.0302, 135.3414
128.5123, 135.4646
128.9944, 135.5704
129.4765, 135.7165
129.9586, 135.5188
130.4407, 134.3245
130.9229, 132.5479
131.4050, 130.9593
131.8871, 129.9975
132.3692, 129.4729
132.8513, 128.7489
133.3334, 127.5385
133.8155, 126.5189
134.2977, 126.1054
134.7798, 126.1540
135.2619, 126.2806
135.7440, 126.2105
136.2261, 125.9333
136.7082, 125.5566
137.1904, 124.8581
137.6725, 124.2378
138.1546, 123.9898
138.6367, 124.0466
139.1188, 124.0570
139.6009, 123.5402
140.0831, 122.1211
140.5652, 121.0893
141.0473, 120.6107
141.5294, 120.3327
142.0115, 120.0632
142.4936, 119.7394
142.9758, 119.3611
143.4579, 118.9227
143.9400, 118.3262
144.4221, 117.8460
144.9042, 117.5947
145.3863, 117.4423
145.8685, 117.2050
146.3506, 116.8007
146.8327, 116.3324
147.3148, 116.0316
147.7969, 115.9048
148.2790, 115.8580
148.7612, 115.9734
149.2433, 116.1722
149.7254, 116.1385
150.2075, 115.5743
150.6896, 114.8468
151.1717, 114.5836
151.6539, 114.9531
152.1360, 115.3903
152.6181, 115.3698
153.1002, 114.8498
153.5823, 114.3281
154.0644, 114.0894
154.5466, 113.9028
155.0287, 113.5610
155.5108, 112.9812
155.9929, 112.3047
156.4750, 111.7561
156.9571, 111.3183
157.4393, 111.0712
157.9214, 111.1938
158.4035, 111.4189
158.8856, 111.4322
159.3677, 111.0544
159.8498, 110.4549
160.3320, 110.2800
160.8141, 111.1567
161.2962, 111.7247
161.7783, 111.7389
162.2604, 111.3272
162.7425, 110.6154
163.2247, 109.6455
163.7068, 108.4662
164.1889, 107.7735
164.6710, 107.9588
165.1531, 108.1801
165.6352, 108.2000
166.1174, 108.0704
166.5995, 107.9645
167.0816, 108.0184
167.5637, 108.2294
168.0458, 108.3465
168.5279, 108.4246
169.0101, 108.3826
169.4922, 108.0957
169.9743, 107.5944
170.4564, 107.1112
170.9385, 106.8157
171.4206, 106.7223
171.9028, 106.7409
172.3849, 107.0712
172.8670, 107.4008
173.3491, 107.4020
173.8312, 107.0304
174.3133, 106.5196
174.7955, 105.9234
175.2776, 105.3163
175.7597, 104.9085
176.2418, 104.8019
176.7239, 104.9308
177.2060, 105.2388
177.6882, 105.8787
178.1703, 106.3631
178.6524, 106.3083
179.1345, 105.8879
179.6166, 105.4429
180.0987, 105.1791
180.5809, 105.0564
181.0630, 104.8141
181.5451, 104.1762
182.0272, 103.7717
182.5093, 104.0815
182.9914, 104.8348
183.4736, 105.4166
183.9557, 105.2584
184.4378, 104.3261
184.9199, 103.6992
185.4020, 103.7269
185.8841, 103.7776
186.3663, 103.6005
186.8484, 103.2610
187.3305, 103.0052
187.8126, 103.0941
188.2947, 103.6246
188.7768, 103.9226
189.2590, 103.9074
189.7411, 103.7702
190.2232, 103.5183
190.7053, 103.1991
191.1874, 102.9244
191.6695, 102.8262
192.1517, 102.9790
192.6338, 103.0012
193.1159, 102.7610
193.5980, 102.5094
194.0801, 102.3449
194.5622, 102.3025
195.0444, 102.4642
195.5265, 102.9943
196.0086, 104.0826
196.4907, 104.6684
196.9728, 104.3531
197.4549, 103.7625
197.9371, 103.4500
198.4192, 103.5145
198.9013, 103.7406
199.3834, 103.9206
199.8655, 104.0568
200.3476, 104.1399
200.8298, 103.9806
201.3119, 103.8319
201.7940, 104.0947
202.2761, 104.8953
202.7582, 105.8588
203.2403, 106.7146
203.7225, 107.4588
204.2046, 107.8612
204.6867, 107.6991
205.1688, 107.1477
205.6509, 106.5458
206.1330, 105.7909
206.6152, 105.2725
207.0973, 105.4850
207.5794, 106.2173
208.0615, 106.7626
208.5436, 106.5665
209.0257, 105.8032
209.5079, 105.3413
209.9900, 105.4711
210.4721, 105.5893
210.9542, 105.2387
211.4363, 104.5717
211.9184, 104.0351
212.4006, 104.0909
212.8827, 104.6974
213.3648, 104.9224
213.8469, 104.3869
214.3290, 103.8289
214.8111, 103.5605
215.2933, 103.5212
215.7754, 103.5124
216.2575, 103.3926
216.7396, 103.1616
217.2217, 102.8199
217.7038, 102.2144
218.1859, 101.6286
218.6681, 101.1595
219.1502, 100.7861
219.6323, 100.4207
220.1144, 99.97649
220.5965, 99.43716
221.0786, 99.00809
221.5608, 98.75269
222.0429, 98.53664
222.5250, 98.34378
223.0071, 98.15314
223.4892, 97.94113
223.9713, 97.69713
224.4535, 97.43334
224.9356, 96.99243
225.4177, 96.07491
225.8998, 95.28855
226.3819, 94.93193
226.8640, 94.95683
227.3462, 95.15194
227.8283, 95.36819
228.3104, 95.61723
228.7925, 95.65363
229.2746, 95.27077
229.7567, 94.90151
230.2389, 94.87910
230.7210, 95.12024
231.2031, 95.20105
231.6852, 94.73363
232.1673, 93.72057
232.6494, 93.01145
233.1316, 92.68543
233.6137, 92.56571
234.0958, 92.66730
234.5779, 92.93771
235.0600, 93.12667
235.5421, 93.04233
236.0243, 92.69473
236.5064, 92.35755
236.9885, 91.88689
237.4706, 91.54302
237.9527, 91.67049
238.4348, 92.21369
238.9170, 92.51389
239.3991, 91.97053
239.8812, 90.87401
240.3633, 90.31420
240.8454, 90.72092
241.3275, 91.31719
241.8097, 91.46069
242.2918, 91.16688
242.7739, 90.87807
243.2560, 90.84051
243.7381, 90.96569
244.2202, 91.09089
244.7024, 91.28480
245.1845, 91.35986
245.6666, 91.04243
246.1487, 90.32167
246.6308, 89.71519
247.1129, 89.49194
247.5951, 89.50832
248.0772, 89.60993
248.5593, 89.81026
249.0414, 90.00893
249.5235, 90.12254
250.0056, 90.15236
250.4878, 90.07648
250.9699, 89.70860
251.4520, 89.33916
251.9341, 89.29990
252.4162, 89.68601
252.8983, 90.08419
253.3805, 89.93172
253.8626, 89.13562
254.3447, 88.63866
254.8268, 89.00208
255.3089, 89.55363
255.7910, 89.86671
256.2732, 89.87702
256.7553, 89.76452
257.2374, 89.70600
257.7195, 89.70916
258.2016, 89.71113
258.6837, 89.75342
259.1659, 89.75225
259.6480, 89.59229
260.1301, 89.29375
260.6122, 89.05633
261.0943, 89.17955
261.5764, 89.75959
262.0586, 90.04733
262.5407, 89.61488
263.0228, 89.17316
263.5049, 89.07902
263.9870, 89.29823
264.4691, 89.54055
264.9513, 89.50277
265.4334, 89.13340
265.9155, 88.88673
266.3976, 88.79831
266.8797, 88.81310
267.3618, 89.02326
267.8440, 89.34364
268.3261, 89.56490
268.8082, 89.48267
269.2903, 89.08303
269.7724, 88.75851
270.2545, 88.57454
270.7367, 88.40908
271.2188, 88.23985
271.7009, 88.06325
272.1830, 87.86739
272.6651, 87.62447
273.1472, 87.34720
273.6294, 87.25911
274.1115, 87.78358
274.5936, 88.06824
275.0757, 87.72430
275.5578, 87.04507
276.0399, 86.53235
276.5221, 86.51128
277.0042, 86.87724
277.4863, 87.00588
277.9684, 86.70165
278.4505, 86.34513
278.9326, 85.90405
279.4148, 85.45457
279.8969, 85.10208
280.3790, 84.90005
280.8611, 84.79423
281.3432, 84.60746
281.8253, 84.28164
282.3075, 83.93290
282.7896, 83.42160
283.2717, 82.95066
283.7538, 82.83408
284.2359, 83.17714
284.7180, 83.67818
285.2002, 83.68255
285.6823, 82.51502
286.1644, 81.77488
286.6465, 81.74802
287.1286, 81.97066
287.6107, 82.09358
288.0929, 82.00533
288.5750, 81.71812
289.0571, 81.21064
289.5392, 80.20397
290.0213, 79.64951
290.5034, 79.98348
290.9856, 80.43657
291.4677, 80.39632
291.9498, 79.81248
292.4319, 79.08974
292.9140, 78.70012
293.3961, 78.75688
293.8783, 78.66794
294.3604, 78.34446
294.8425, 77.97084
295.3246, 77.62639
295.8067, 77.32822
296.2888, 77.09023
296.7710, 76.93871
297.2531, 76.88261
297.7352, 76.71939
298.2173, 76.29784
298.6994, 75.93798
299.1815, 75.81976
299.6637, 75.88467
300.1458, 75.96821
300.6279, 75.97472
301.1100, 75.90158
301.5921, 75.71455
302.0742, 75.29575
302.5564, 74.91871
303.0385, 74.64925
303.5206, 74.47475
304.0027, 74.37170
304.4848, 74.33295
304.9669, 74.34621
305.4491, 74.37902
305.9312, 74.55395
306.4133, 74.58430
306.8954, 74.36043
307.3775, 73.99495
307.8596, 73.58741
308.3418, 73.17036
308.8239, 72.82031
309.3060, 72.69485
309.7881, 72.97246
310.2702, 73.10216
310.7523, 72.97851
311.2345, 72.74490
311.7166, 72.52119
312.1987, 72.33509
312.6808, 72.16103
313.1629, 71.95898
313.6451, 71.70265
314.1272, 71.56187
314.6093, 71.64362
315.0914, 71.75389
315.5735, 71.75434
316.0556, 71.64574
316.5378, 71.52926
317.0199, 71.50526
317.5020, 71.57541
317.9841, 71.46316
318.4662, 70.96906
318.9483, 70.51878
319.4305, 70.27864
319.9126, 70.23597
320.3947, 70.36401
320.8768, 70.68958
321.3589, 71.13008
321.8410, 71.22926
322.3232, 70.68230
322.8053, 70.21876
323.2874, 70.05145
323.7695, 70.06777
324.2516, 70.09826
324.7337, 70.07453
325.2159, 70.02276
325.6980, 70.00803
326.1801, 70.14134
326.6622, 70.11254
327.1443, 69.76588
327.6264, 69.31273
328.1086, 68.95329
328.5907, 68.74001
329.0728, 68.63116
329.5549, 68.59074
330.0370, 68.67410
330.5191, 68.62840
331.0013, 68.32756
331.4834, 68.00012
331.9655, 67.79373
332.4476, 67.71769
332.9297, 67.70580
333.4118, 67.69886
333.8940, 67.69449
334.3761, 67.77888
334.8582, 68.14680
335.3403, 68.38979
335.8224, 68.26153
336.3045, 67.87643
336.7867, 67.49065
337.2688, 67.24593
337.7509, 67.14027
338.2330, 67.17785
338.7151, 67.63755
339.1972, 67.89637
339.6793, 67.74801
340.1614, 67.38682
340.6436, 67.03149
341.1257, 66.76260
341.6078, 66.58804
342.0899, 66.52876
342.5720, 66.72929
343.0541, 66.79479
343.5363, 66.68221
344.0184, 66.47064
344.5005, 66.15099
344.9826, 65.75839
345.4647, 65.44894
345.9468, 65.42405
346.4290, 65.78846
346.9111, 65.92878
347.3932, 65.67054
347.8753, 65.40002
348.3574, 65.33433
348.8395, 65.41573
349.3217, 65.42690
349.8038, 65.18639
350.2859, 64.40189
350.7680, 64.75462
351.2501, 64.92547
351.7322, 64.92418
352.2144, 64.23521
352.6965, 64.43423
353.1786, 64.27740
353.6607, 64.10597
354.1428, 64.42998
354.6249, 63.84104
355.1071, 64.15717
355.5892, 64.11203
356.0713, 64.23224
356.5534, 63.99439
357.0355, 63.86713
357.5176, 64.09805
357.9998, 64.13063
358.4819, 63.85156
358.9640, 63.98228
359.4461, 63.38084
359.9282, 63.42188
360.4103, 63.74012
360.8925, 63.47905
361.3746, 63.61631
361.8567, 63.60188
362.3388, 62.89799
362.8209, 63.39312
363.3030, 63.36971
363.7852, 62.81388
364.2673, 63.26792
364.7494, 62.78550
365.2315, 62.63733
365.7136, 62.74072
366.1957, 62.58187
366.6779, 62.83647
367.1600, 62.69276
367.6421, 62.51348
368.1242, 62.48949
368.6063, 62.02543
369.0884, 62.37779
369.5706, 62.17246
370.0527, 62.24435
370.5348, 62.37907
371.0169, 62.03268
371.4990, 62.19564
371.9811, 61.56871
372.4633, 61.60270
372.9454, 61.56552
373.4275, 61.95080
373.9096, 61.32772
374.3917, 61.34336
374.8738, 61.63095
375.3560, 61.53800
375.8381, 61.60416
376.3202, 61.19932
376.8023, 61.23695
377.2844, 61.15262
377.7665, 61.48973
378.2487, 61.49413
378.7308, 61.09728
379.2129, 60.70213
379.6950, 61.06958
380.1771, 60.71423
380.6592, 60.74882
381.1414, 61.13798
381.6235, 61.57955
382.1056, 61.69809
382.5877, 61.49688
383.0698, 61.26713
383.5519, 61.21415
384.0341, 61.27027
384.5162, 61.20424
384.9983, 60.94421
385.4804, 60.69529
385.9625, 60.34964
386.4446, 60.70552
386.9268, 60.87949
387.4089, 60.88135
387.8910, 60.19555
388.3731, 60.39771
388.8552, 60.24402
389.3373, 60.07574
389.8195, 60.40287
390.3016, 59.81708
390.7837, 60.13638
391.2658, 60.09438
391.7479, 60.21773
392.2300, 59.98302
392.7122, 59.85890
393.1943, 60.09296
393.6764, 60.12870
394.1585, 59.85278
394.6406, 59.98664
395.1227, 59.38835
395.6049, 59.43252
396.0870, 59.75391
396.5691, 59.49599
397.0512, 59.63640
397.5333, 59.62511
398.0154, 58.92437
398.4976, 59.42263
398.9797, 59.40237
399.4618, 58.84969
399.9439, 59.30687
400.4260, 58.82759
400.9081, 58.68258
401.3903, 58.78910
401.8724, 58.63340
402.3545, 58.89115
402.8366, 58.75059
403.3187, 58.57445
403.8008, 58.55360
404.2830, 58.09268
404.7651, 58.44819
405.2472, 58.24601
405.7293, 58.32104
406.2114, 58.45892
406.6935, 58.11567
407.1757, 58.28176
407.6578, 57.65797
408.1399, 57.69512
408.6220, 57.66109
409.1041, 58.04951
409.5862, 57.42958
410.0684, 57.44835
410.5505, 57.73908
411.0326, 57.64929
411.5147, 57.71860
411.9968, 57.31690
412.4789, 57.35768
412.9611, 57.27648
413.4432, 57.61674
413.9253, 57.62429
414.4074, 57.23058
414.8895, 56.83858
415.3716, 57.20917
415.8538, 56.85696
416.3359, 56.89469
416.8180, 56.52970
417.3001, 56.51244
417.7822, 56.48965
418.2643, 56.64513
418.7465, 56.26008
419.2286, 56.57617
419.7107, 56.48703
420.1928, 56.51725
420.6749, 56.53419
421.1570, 56.00736
421.6392, 55.92628
422.1213, 56.48307
422.6034, 56.06710
423.0855, 55.84747
423.5676, 55.76740
424.0497, 55.91636
424.5319, 55.83483
425.0140, 55.77747
425.4961, 55.68452
425.9782, 55.53752
426.4603, 55.40596
426.9424, 55.35446
427.4246, 55.35266
427.9067, 55.34556
428.3888, 55.34226
428.8709, 55.30751
429.3530, 55.15271
429.8351, 54.92097
430.3173, 54.84722
430.7994, 55.08080
431.2815, 55.39885
431.7636, 55.36965
432.2457, 54.94516
432.7278, 54.62979
433.2100, 54.56739
433.6921, 54.65261
434.1742, 54.82843
434.6563, 55.07091
435.1384, 55.26607
435.6205, 55.32125
436.1027, 55.24131
436.5848, 55.12103
437.0669, 54.93608
437.5490, 54.74686
438.0311, 54.57050
438.5132, 54.40276
438.9954, 54.20463
439.4775, 53.96393
439.9596, 53.77654
440.4417, 53.83821
440.9238, 54.38655
441.4059, 54.62077
441.8881, 54.37697
442.3702, 54.01099
442.8523, 53.62127
443.3344, 53.28164
443.8165, 53.12208
444.2986, 53.27148
444.7808, 53.66002
445.2629, 53.84538
445.7450, 53.68044
446.2271, 53.52308
446.7092, 53.48102
447.1913, 53.45708
447.6735, 53.33552
448.1556, 53.09092
448.6377, 52.83618
449.1198, 52.73008
449.6019, 52.78600
450.0840, 52.75513
450.5662, 52.54551
451.0483, 52.33396
451.5304, 52.21302
452.0125, 52.16521
452.4946, 52.14841
452.9767, 52.17498
453.4589, 52.19352
453.9410, 52.07218
454.4231, 51.79247
454.9052, 51.64899
455.3873, 51.85968
455.8694, 52.18858
456.3516, 52.31325
456.8337, 52.21204
457.3158, 52.02399
457.7979, 51.73764
458.2800, 51.42981
458.7621, 51.23498
459.2443, 51.17495
459.7264, 51.20456
460.2085, 51.34033
460.6906, 51.55180
461.1727, 51.57185
461.6548, 51.12023
462.1370, 50.77265
462.6191, 50.96650
463.1012, 51.42756
463.5833, 51.55966
464.0654, 51.12909
464.5475, 50.48805
465.0297, 50.23963
465.5118, 50.61610
465.9939, 50.81925
466.4760, 50.73615
466.9581, 50.59160
467.4402, 50.50674
467.9224, 50.47926
468.4045, 50.46141
468.8866, 50.42383
469.3687, 50.36379
469.8508, 50.26133
470.3329, 50.04493
470.8151, 49.90503
471.2972, 49.93513
471.7793, 49.99840
472.2614, 49.95967
472.7435, 49.80707
473.2256, 49.66064
473.7078, 49.69900
474.1899, 49.91347
474.6720, 49.89234
475.1541, 49.43391
475.6362, 49.05611
476.1183, 49.08794
476.6005, 49.32771
477.0826, 49.46396
477.5647, 49.37378
478.0468, 49.20765
478.5289, 49.10781
479.0110, 49.07245
479.4932, 49.10719
479.9753, 49.28605
480.4574, 49.41980
480.9395, 49.19962
481.4216, 48.66773
481.9037, 48.29733
482.3859, 48.27400
482.8680, 48.42427
483.3501, 48.67356
483.8322, 48.97917
484.3143, 49.14978
484.7964, 49.08001
485.2786, 48.80526
485.7607, 48.40250
486.2428, 47.62097
486.7249, 47.15561
487.2070, 47.32678
487.6891, 47.70465
488.1713, 47.88969
488.6534, 47.83572
489.1355, 47.72365
489.6176, 47.72013
490.0997, 47.82078
490.5818, 47.85406
491.0640, 47.82880
491.5461, 47.71491
492.0282, 47.42300
492.5103, 47.07770
492.9924, 46.78848
493.4745, 46.59589
493.9567, 46.53299
494.4388, 46.72789
494.9209, 47.22634
495.4030, 47.44751
495.8851, 47.20412
496.3672, 46.87032
496.8494, 46.58285
497.3315, 46.35386
497.8136, 46.19802
498.2957, 46.11882
498.7778, 46.12147
499.2599, 46.29581
499.7421, 46.62398
500.2242, 46.73648
500.7063, 46.44578
501.1884, 46.01035
501.6705, 45.72554
502.1526, 45.58006
502.6348, 45.52059
503.1169, 45.60274
503.5990, 45.71444
504.0811, 45.76723
504.5632, 45.75382
505.0453, 45.66791
505.5274, 45.49535
506.0096, 45.26449
506.4917, 45.05545
506.9738, 44.77758
507.4559, 44.67176
507.9380, 44.86265
508.4201, 45.15400
508.9023, 45.47091
509.3844, 45.74762
509.8665, 45.81670
510.3486, 45.49409
510.8307, 44.85418
511.3128, 44.57887
511.7950, 45.03234
512.2771, 45.31765
512.7592, 45.20846
513.2413, 44.92266
513.7234, 44.61686
514.2056, 44.33768
514.6877, 44.12999
515.1698, 44.05995
515.6519, 44.11285
516.1340, 44.16264
516.6161, 44.22266
517.0983, 44.24426
517.5804, 44.16518
518.0625, 44.04036
518.5446, 43.94776
519.0267, 43.91138
519.5089, 43.88871
519.9910, 43.84211
520.4731, 43.78504
520.9552, 43.76496
521.4373, 43.79969
521.9194, 43.82526
522.4016, 43.75911
522.8837, 43.59850
523.3658, 43.53444
523.8479, 43.68098
524.3300, 43.80256
524.8121, 43.77224
525.2943, 43.64766
525.7764, 43.52773
526.2585, 43.44985
526.7406, 43.39825
527.2227, 43.34764
527.7048, 43.28650
528.1870, 43.26869
528.6691, 43.44344
529.1512, 43.50623
529.6333, 43.18190
530.1154, 42.68959
530.5975, 42.44738
531.0797, 42.67174
531.5618, 43.10287
532.0439, 43.30637
532.5260, 43.25692
533.0081, 43.17023
533.4902, 43.05689
533.9724, 42.94060
534.4545, 42.83206
534.9366, 42.73337
535.4187, 42.65176
535.9008, 42.58556
536.3829, 42.54073
536.8651, 42.56353
537.3472, 42.63323
537.8293, 42.56916
538.3114, 42.23677
538.7935, 41.88985
539.2756, 42.00711
539.7578, 42.73529
540.2399, 43.15440
540.7220, 42.95400
541.2041, 42.61530
541.6862, 42.43705
542.1683, 42.40013
542.6505, 42.37650
543.1326, 42.29660
543.6147, 42.19506
544.0968, 42.17253
544.5789, 42.35728
545.0610, 42.35331
545.5432, 41.98118
546.0253, 41.59263
546.5074, 41.33493
546.9895, 41.22848
547.4716, 41.28712
547.9537, 41.56996
548.4359, 41.94098
548.9180, 42.09503
549.4001, 42.00793
549.8822, 41.86960
550.3643, 41.68410
550.8464, 41.51207
551.3286, 41.39125
551.8107, 41.32479
552.2928, 41.34768
552.7749, 41.57209
553.2570, 41.82634
553.7391, 41.93353
554.2213, 41.89775
554.7034, 41.75252
555.1855, 41.47805
555.6676, 41.18586
556.1497, 41.11155
556.6318, 41.39607
557.1140, 41.57705
557.5961, 41.60032
558.0782, 41.55972
558.5603, 41.49727
559.0424, 41.42315
559.5245, 41.33764
560.0067, 41.23824
560.4888, 41.14279
560.9709, 41.11872
561.4530, 41.24177
561.9351, 41.22223
562.4172, 40.84221
562.8994, 40.46802
563.3815, 40.29201
563.8636, 40.28656
564.3457, 40.33399
564.8278, 40.40466
565.3099, 40.46392
565.7921, 40.40934
566.2742, 40.25145
566.7563, 40.25887
567.2384, 40.60057
567.7205, 41.00367
568.2026, 41.06593
568.6848, 40.79708
569.1669, 40.59766
569.6490, 40.59710
570.1311, 40.62127
570.6132, 40.55743
571.0953, 40.42273
571.5775, 40.24728
572.0596, 40.04177
572.5417, 39.87841
573.0238, 39.89847
573.5059, 40.18592
573.9880, 40.40042
574.4702, 40.57442
574.9523, 40.64659
575.4344, 40.46089
575.9165, 40.18441
576.3986, 40.14779
576.8807, 40.52096
577.3629, 40.96701
577.8450, 40.97505
578.3271, 40.55046
578.8092, 40.13717
579.2913, 39.75169
579.7734, 39.46511
580.2556, 39.35779
580.7377, 39.39052
581.2198, 39.48750
581.7019, 39.70560
582.1840, 39.89288
582.6661, 39.97437
583.1483, 39.95427
583.6304, 39.79523
584.1125, 39.48990
584.5946, 39.20662
585.0767, 39.12105
585.5588, 39.23927
586.0409, 39.39454
586.5230, 39.72856
587.0051, 39.92765
587.4872, 39.86247
587.9694, 39.66000
588.4515, 39.42681
588.9336, 39.20143
589.4157, 39.01931
589.8978, 38.90230
590.3799, 38.85561
590.8621, 38.96193
591.3442, 39.33455
591.8263, 39.58197
592.3084, 39.34889
592.7905, 38.99266
593.2726, 38.96266
593.7548, 39.34853
594.2369, 39.66073
594.7190, 39.59472
595.2011, 39.33813
595.6832, 39.12267
596.1653, 38.97121
596.6475, 38.88237
597.1296, 38.87734
597.6117, 38.90086
598.0938, 38.78975
598.5759, 38.33864
599.0580, 38.08480
599.5402, 38.12383
600.0223, 38.27840
600.5044, 38.50337
600.9865, 38.74284
601.4686, 38.89299
601.9507, 38.88100
602.4329, 38.78918
602.9150, 38.82153
603.3971, 39.01622
603.8792, 39.08150
604.3613, 38.90364
604.8434, 38.65792
605.3256, 38.44129
605.8077, 38.26214
606.2898, 38.14727
606.7719, 38.10087
607.2540, 38.12360
607.7361, 38.28294
608.2183, 38.50841
608.7004, 38.58826
609.1825, 38.46166
609.6646, 38.31612
610.1467, 38.37209
610.6288, 38.64465
611.1110, 38.76099
611.5931, 38.61998
612.0752, 38.46133
612.5573, 38.27931
613.0394, 38.13868
613.5215, 38.14260
614.0037, 38.28870
614.4858, 38.42963
614.9679, 38.43670
615.4500, 38.32063
615.9321, 38.10076
616.4142, 37.69561
616.8964, 37.46245
617.3785, 37.63735
617.8606, 37.99366
618.3427, 38.29226
618.8248, 38.53107
619.3069, 38.65088
619.7891, 38.60533
620.2712, 38.44963
620.7533, 38.13542
621.2354, 37.73977
621.7175, 37.57595
622.1996, 37.81044
622.6818, 38.20282
623.1639, 38.28495
623.6460, 37.88138
624.1281, 37.67712
624.6102, 37.86678
625.0923, 38.02843
625.5745, 37.95820
626.0566, 37.75971
626.5387, 37.60407
627.0208, 37.55301
627.5029, 37.56372
627.9850, 37.61653
628.4672, 37.69840
628.9493, 37.71277
629.4314, 37.63832
629.9135, 37.54203
630.3956, 37.46328
630.8777, 37.39246
631.3599, 37.29053
631.8420, 37.08932
632.3241, 37.00896
632.8062, 37.26223
633.2883, 37.57379
633.7704, 37.62477
634.2526, 37.44123
634.7347, 37.28885
635.2168, 37.34512
635.6989, 37.51508
636.1810, 37.51104
636.6631, 37.24311
637.1453, 37.03090
637.6274, 36.89899
638.1095, 36.83078
638.5916, 36.83619
639.0737, 36.89919
639.5558, 36.98959
640.0380, 37.10764
640.5201, 37.22279
641.0022, 37.30782
641.4843, 37.36485
641.9664, 37.41130
642.4485, 37.45524
642.9307, 37.44498
643.4128, 37.32408
643.8949, 37.10633
644.3770, 36.91618
644.8591, 36.74834
645.3412, 36.61045
645.8234, 36.48420
646.3055, 36.40258
646.7876, 36.40138
647.2697, 36.47596
647.7518, 36.60683
648.2339, 36.80185
648.7161, 37.00291
649.1982, 37.01350
649.6803, 36.78102
650.1624, 36.71747
650.6445, 37.08406
651.1266, 37.42893
651.6088, 37.26919
652.0909, 36.73834
652.5730, 36.37148
653.0551, 36.42975
653.5372, 36.52089
654.0193, 36.35152
654.5015, 36.07394
654.9836, 35.97440
655.4657, 36.10332
655.9478, 36.27160
656.4299, 36.29039
656.9120, 36.18739
657.3942, 36.25864
657.8763, 36.77486
658.3584, 37.00521
658.8405, 36.56269
659.3226, 36.05219
659.8047, 36.00975
660.2869, 36.35561
660.7690, 36.54564
661.2511, 36.15440
661.7332, 35.59976
662.2153, 35.49371
662.6974, 35.75525
663.1796, 35.90892
663.6617, 35.81141
664.1438, 35.64540
664.6259, 35.59834
665.1080, 35.67198
665.5901, 35.73309
666.0723, 35.77547
666.5544, 35.81476
667.0365, 35.88078
667.5186, 35.92924
668.0007, 35.90814
668.4828, 35.81830
668.9650, 35.70274
669.4471, 35.58488
669.9292, 35.47535
670.4113, 35.39257
670.8934, 35.32937
671.3755, 35.36544
671.8577, 35.58748
672.3398, 35.82873
672.8219, 35.88107
673.3040, 35.78432
673.7861, 35.76091
674.2682, 35.96309
674.7504, 36.11347
675.2325, 36.00224
675.7146, 35.78452
676.1967, 35.71681
676.6788, 35.82787
677.1609, 35.90611
677.6431, 35.73426
678.1252, 35.38676
678.6073, 35.32421
679.0894, 35.73495
679.5715, 35.96492
680.0536, 35.67839
680.5358, 35.33570
681.0179, 35.27058
681.5000, 35.43207
681.9821, 35.54895
682.4642, 35.53524
682.9464, 35.43052
683.4285, 35.16283
683.9106, 34.84498
684.3927, 34.76737
684.8748, 34.98684
685.3569, 35.26677
685.8391, 35.40660
686.3212, 35.41497
686.8033, 35.36350
687.2854, 35.21912
687.7675, 35.06506
688.2496, 34.86329
688.7318, 34.69440
689.2139, 34.60406
689.6960, 34.59574
690.1781, 34.67358
690.6602, 34.88345
691.1423, 35.09733
691.6245, 35.19301
692.1066, 35.16630
692.5887, 34.91507
693.0708, 34.38441
693.5529, 34.02868
694.0350, 34.30399
694.5172, 35.06249
694.9993, 35.38317
695.4814, 34.76392
695.9635, 34.40842
696.4456, 34.56691
696.9277, 34.85765
697.4099, 35.05580
697.8920, 35.14737
698.3741, 35.18926
698.8562, 35.20970
699.3383, 35.19564
699.8204, 35.11402
700.3026, 34.97414
700.7847, 34.83027
701.2668, 34.67266
701.7489, 34.59776
702.2310, 34.72590
702.7131, 34.97577
703.1953, 35.04110
703.6774, 34.81771
704.1595, 34.63733
704.6416, 34.53497
705.1237, 34.49749
705.6058, 34.53704
706.0880, 34.63116
706.5701, 34.76073
707.0522, 34.92010
707.5343, 35.02554
708.0164, 34.88591
708.4985, 34.52869
708.9807, 34.39208
709.4628, 34.55774
709.9449, 34.76393
710.4270, 34.90553
710.9091, 34.97429
711.3912, 34.94731
711.8734, 34.79924
712.3555, 34.66087
712.8376, 34.52682
713.3197, 34.43823
713.8018, 34.47752
714.2839, 34.57190
714.7661, 34.54092
715.2482, 34.32903
715.7303, 34.14262
716.2124, 34.33177
716.6945, 34.84993
717.1766, 34.93526
717.6588, 34.44415
718.1409, 33.98536
718.6230, 33.77194
719.1051, 33.73582
719.5872, 33.82309
720.0693, 34.03973
720.5515, 34.17767
721.0336, 34.11027
721.5157, 34.03939
721.9978, 34.08164
722.4799, 34.20212
722.9620, 34.36702
723.4442, 34.55303
723.9263, 34.68441
724.4084, 34.67131
724.8905, 34.55125
725.3726, 34.54466
725.8547, 34.70861
726.3369, 34.74027
726.8190, 34.45201
727.3011, 34.13195
727.7832, 34.08104
728.2653, 34.24197
728.7474, 34.34949
729.2296, 34.33844
729.7117, 34.29205
730.1938, 34.20155
730.6759, 34.12288
731.1580, 34.15850
731.6401, 34.29110
732.1223, 34.37579
732.6044, 34.30364
733.0865, 34.15057
733.5686, 34.13235
734.0507, 34.28556
734.5328, 34.29011
735.0150, 33.95990
735.4971, 33.72005
735.9792, 34.02548
736.4613, 34.58548
736.9434, 34.79678
737.4255, 34.47130
737.9077, 34.16453
738.3898, 34.04577
738.8719, 34.03595
739.3540, 34.09513
739.8361, 34.19902
740.3182, 34.32771
740.8004, 34.47199
741.2825, 34.57143
741.7646, 34.48993
742.2467, 34.22577
742.7288, 34.15413
743.2109, 34.35340
743.6931, 34.52266
744.1752, 34.51225
744.6573, 34.42351
745.1394, 34.42676
745.6215, 34.53504
746.1036, 34.52347
746.5858, 34.21539
747.0679, 33.91763
747.5500, 33.78893
748.0321, 33.78872
748.5142, 33.85028
748.9963, 33.95649
749.4785, 34.13456
749.9606, 34.45386
750.4427, 34.82255
750.9248, 34.87927
751.4069, 34.58032
751.8890, 34.36903
752.3712, 34.36901
752.8533, 34.44166
753.3354, 34.46770
753.8175, 34.46049
754.2996, 34.49770
754.7817, 34.67403
755.2639, 34.76389
755.7460, 34.66484
756.2281, 34.49612
756.7102, 34.30289
757.1923, 34.13363
757.6744, 34.09272
758.1566, 34.24010
758.6387, 34.45179
759.1208, 34.56907
759.6029, 34.59455
760.0850, 34.51150
760.5671, 34.28927
761.0493, 34.13676
761.5314, 34.19024
762.0135, 34.34730
762.4956, 34.41010
762.9777, 34.35168
763.4598, 34.29095
763.9420, 34.20813
764.4241, 34.14846
764.9062, 34.08781
765.3883, 34.08407
765.8704, 34.29618
766.3525, 34.70163
766.8347, 34.95341
767.3168, 34.65487
767.7989, 34.12010
768.2810, 33.97031
768.7631, 34.15829
769.2452, 34.32617
769.7274, 34.39107
770.2095, 34.36191
770.6916, 34.21803
771.1737, 33.98522
771.6558, 33.88606
772.1379, 34.08017
772.6201, 34.17088
773.1022, 34.02747
773.5843, 33.88026
774.0664, 33.87782
774.5485, 33.98010
775.0306, 34.08545
775.5128, 34.16602
775.9949, 34.20785
776.4770, 34.13469
776.9591, 34.04310
777.4412, 34.18675
777.9233, 34.52177
778.4055, 34.61869
778.8876, 34.25376
779.3697, 33.79987
779.8518, 33.89784
780.3339, 34.64811
780.8160, 34.99931
781.2982, 34.67029
781.7803, 34.39729
782.2624, 34.42471
782.7445, 34.57252
783.2266, 34.70286
783.7087, 34.80813
784.1909, 34.91597
784.6730, 35.15619
785.1551, 35.27251
785.6372, 34.93580
786.1193, 34.44559
786.6014, 34.27372
787.0836, 34.45183
787.5657, 34.71451
788.0478, 34.89717
788.5299, 34.97192
789.0120, 34.80853
789.4941, 34.36940
789.9763, 34.16959
790.4584, 34.34728
790.9405, 34.54852
791.4226, 34.57065
791.9047, 34.48560
792.3868, 34.44718
792.8690, 34.47401
793.3511, 34.46781
793.8332, 34.33516
794.3153, 34.25026
794.7974, 34.35189
795.2795, 34.53989
795.7617, 34.68529
796.2438, 34.75108
796.7259, 34.73915
797.2080, 34.59843
797.6901, 34.42619
798.1722, 34.47966
798.6544, 34.72099
799.1365, 34.76987
799.6186, 34.50216
800.1007, 34.30611
800.5828, 34.56134
801.0649, 35.13754
801.5471, 35.38916
802.0292, 35.08863
802.5113, 34.84440
802.9934, 34.66475
803.4755, 34.54533
803.9576, 34.51294
804.4398, 34.52988
804.9219, 34.54478
805.4040, 34.54716
805.8861, 34.52415
806.3682, 34.41230
806.8503, 34.31163
807.3325, 34.41148
807.8146, 34.62220
808.2967, 34.62825
808.7788, 34.34603
809.2609, 34.08086
809.7430, 34.18300
810.2252, 34.56671
810.7073, 34.64883
811.1894, 34.29803
811.6715, 34.19432
812.1536, 34.65622
812.6357, 35.13493
813.1179, 35.16949
813.6000, 34.88034
814.0821, 34.61832
814.5642, 34.36311
815.0463, 34.21093
815.5284, 34.20601
816.0106, 34.29252
816.4927, 34.51600
816.9748, 34.77744
817.4569, 34.89055
817.9390, 34.79906
818.4211, 34.64250
818.9033, 34.51287
819.3854, 34.43092
819.8675, 34.45919
820.3496, 34.59117
820.8317, 34.79448
821.3138, 35.08314
821.7960, 35.26678
822.2781, 35.13957
822.7602, 34.73370
823.2423, 34.31237
823.7244, 33.67992
824.2065, 33.39841
824.6887, 33.73528
825.1708, 34.21123
825.6529, 34.72929
826.1350, 35.17013
826.6171, 35.27723
827.0992, 34.91856
827.5814, 34.63585
828.0635, 34.82661
828.5456, 35.09992
829.0277, 35.05190
829.5098, 34.79462
829.9919, 34.60496
830.4741, 34.57332
830.9562, 34.66088
831.4383, 34.87363
831.9204, 35.14030
832.4025, 35.18940
832.8846, 35.00759
833.3668, 34.83052
833.8489, 34.70290
834.3310, 34.59255
834.8131, 34.44817
835.2952, 34.30748
835.7773, 34.32914
836.2595, 34.71708
836.7416, 34.90614
837.2237, 34.72899
837.7058, 34.52853
838.1879, 34.48920
838.6700, 34.51627
839.1522, 34.44283
839.6343, 34.24215
840.1164, 34.08479
840.5985, 34.13874
841.0806, 34.22963
841.5627, 34.13914
842.0449, 33.94909
842.5270, 33.85044
843.0091, 33.87860
843.4912, 33.95284
843.9733, 34.01627
844.4554, 34.06761
844.9376, 34.08167
845.4197, 34.04422
845.9018, 34.14358
846.3839, 34.46511
846.8660, 34.73109
847.3481, 34.78624
847.8303, 34.70044
848.3124, 34.59919
848.7945, 34.49367
849.2766, 34.31525
849.7587, 33.82955
850.2408, 33.55555
850.7230, 33.88041
851.2051, 34.35118
851.6872, 34.49157
852.1693, 34.31571
852.6514, 34.17759
853.1335, 34.30805
853.6157, 34.40264
854.0978, 34.04989
854.5799, 33.50979
855.0620, 33.29444
855.5441, 33.39863
856.0262, 33.48392
856.5084, 33.38485
856.9905, 33.22245
857.4726, 33.17477
857.9547, 33.23960
858.4368, 33.35199
858.9189, 33.53704
859.4011, 33.66853
859.8832, 33.70340
860.3653, 33.68093
860.8474, 33.63889
861.3295, 33.57389
861.8116, 33.46158
862.2938, 33.20250
862.7759, 33.04218
863.2580, 32.99294
863.7401, 33.06661
864.2222, 33.44791
864.7043, 33.89960
865.1865, 33.98427
865.6686, 33.58634
866.1507, 33.09118
866.6328, 32.60205
867.1149, 32.27308
867.5970, 32.45897
868.0792, 32.92743
868.5613, 33.02894
869.0434, 32.66578
869.5255, 32.37517
870.0076, 32.61104
870.4897, 33.14301
870.9719, 33.37687
871.4540, 33.30262
871.9361, 33.14051
872.4182, 32.87473
872.9003, 32.65673
873.3824, 32.58768
873.8646, 32.58522
874.3467, 32.49413
874.8288, 32.27774
875.3109, 32.17641
875.7930, 32.34218
876.2751, 32.41582
876.7573, 32.20259
877.2394, 31.95889
877.7215, 31.95271
878.2036, 32.11290
878.6857, 32.13759
879.1678, 31.87125
879.6500, 31.60009
880.1321, 31.50014
880.6142, 31.48538
881.0963, 31.46613
881.5784, 31.44564
882.0605, 31.45836
882.5427, 31.51499
883.0248, 31.59384
883.5069, 31.68583
883.9890, 31.77438
884.4711, 31.81286
884.9532, 31.80128
885.4354, 31.71524
885.9175, 31.53238
886.3996, 31.43265
886.8817, 31.59322
887.3638, 31.86957
887.8459, 31.83194
888.3281, 31.34361
888.8102, 30.95645
889.2923, 30.64564
889.7744, 30.47272
890.2565, 30.49189
890.7386, 30.63347
891.2208, 30.92469
891.7029, 31.33018
892.1850, 31.48342
892.6671, 31.09169
893.1492, 30.71915
893.6313, 30.63177
894.1135, 30.60034
894.5956, 30.34315
895.0777, 29.97343
895.5598, 29.83989
896.0419, 30.07610
896.5240, 30.33973
897.0062, 30.26055
897.4883, 30.04897
897.9704, 30.07063
898.4525, 30.26873
898.9346, 30.44888
899.4167, 30.55244
899.8989, 30.52747
900.3810, 30.30666
900.8631, 29.99152
901.3452, 29.88235
901.8273, 29.99859
902.3094, 30.08850
902.7916, 30.14886
903.2737, 30.11152
903.7558, 29.87786
904.2379, 29.61621
904.7200, 29.61797
905.2021, 29.93145
905.6843, 30.03296
906.1664, 29.72254
906.6485, 29.47762
907.1306, 29.36704
907.6127, 29.34375
908.0948, 29.39290
908.5770, 29.50039
909.0591, 29.67560
909.5412, 29.97700
910.0233, 30.09594
910.5054, 29.68833
910.9875, 29.24923
911.4697, 29.19354
911.9518, 29.36539
912.4339, 29.54027
912.9160, 29.63606
913.3981, 29.55170
913.8802, 29.13526
914.3624, 28.69462
914.8445, 28.77437
915.3265, 29.16603
915.8087, 29.24520
916.2908, 28.98397
916.7729, 28.76205
917.2550, 28.75635
917.7371, 28.83970
918.2192, 28.84246
918.7014, 28.77114
919.1835, 28.68645
919.6656, 28.56560
920.1477, 28.56711
920.6298, 28.78249
921.1119, 28.99470
921.5941, 29.04762
922.0762, 28.97239
922.5583, 28.84594
923.0404, 28.56083
923.5225, 28.49762
924.0046, 28.88075
924.4868, 29.19632
924.9689, 29.24911
925.4510, 29.19218
925.9331, 29.19729
926.4152, 29.24878
926.8973, 29.18056
927.3795, 28.85802
927.8616, 28.56292
928.3437, 28.40594
928.8258, 28.33950
929.3079, 28.36543
929.7900, 28.43641
930.2722, 28.46173
930.7543, 28.42078
931.2364, 28.40377
931.7185, 28.53160
932.2006, 28.67485
932.6827, 28.60339
933.1649, 28.41885
933.6470, 28.38440
934.1291, 28.52095
934.6112, 28.67423
935.0933, 28.75720
935.5754, 28.80027
936.0576, 28.89268
936.5397, 29.01035
937.0218, 28.82856
937.5039, 28.31663
937.9860, 28.04562
938.4681, 28.22335
938.9503, 28.49582
939.4324, 28.54347
939.9145, 28.43451
940.3966, 28.46160
940.8787, 28.76188
941.3608, 28.81079
941.8430, 28.42611
942.3251, 28.06324
942.8072, 27.86251
943.2893, 27.80275
943.7714, 27.95013
944.2535, 28.28055
944.7357, 28.33406
945.2178, 27.74060
945.6999, 27.33938
946.1820, 27.41179
946.6641, 27.61671
947.1462, 27.78867
947.6284, 27.90948
948.1105, 27.96048
948.5926, 27.93905
949.0747, 27.95199
949.5568, 28.10622
950.0389, 28.25524
950.5211, 28.29233
951.0032, 28.25892
951.4853, 28.19944
951.9674, 28.12714
952.4495, 28.06367
952.9316, 28.02243
953.4138, 27.93549
953.8959, 27.64582
954.3780, 27.30385
954.8601, 27.20596
955.3422, 27.31789
955.8243, 27.53148
956.3065, 27.80124
956.7886, 27.97022
957.2707, 27.91095
957.7528, 27.71618
958.2349, 27.53760
958.7170, 27.38384
959.1992, 27.49365
959.6813, 27.91749
960.1634, 28.12039
960.6455, 27.86499
961.1276, 27.47635
961.6097, 27.30126
962.0919, 27.30897
962.5740, 27.29922
963.0561, 27.25417
963.5382, 27.24117
964.0203, 27.23797
964.5024, 27.32145
964.9846, 27.62721
965.4667, 27.96511
965.9488, 28.00200
966.4309, 27.70375
966.9130, 27.64506
967.3951, 28.16279
967.8773, 28.44090
968.3594, 28.17795
968.8415, 27.82813
969.3236, 27.65548
969.8057, 27.59793
970.2878, 27.50906
970.7700, 27.36203
971.2521, 27.26379
971.7342, 27.27899
972.2163, 27.31550
972.6984, 27.28531
973.1805, 27.28358
973.6627, 27.51185
974.1448, 27.84928
974.6269, 27.90453
975.1090, 27.50953
975.5911, 27.13131
976.0732, 27.21303
976.5554, 27.39003
977.0375, 27.21357
977.5196, 26.85791
978.0017, 26.63119
978.4838, 26.60143
978.9659, 26.77409
979.4481, 27.18356
979.9302, 27.57502
980.4123, 27.55269
980.8944, 27.28905
981.3765, 27.20752
981.8586, 27.28698
982.3408, 27.35040
982.8229, 27.34772
983.3050, 27.30317
983.7871, 27.22769
984.2692, 27.15467
984.7513, 27.18769
985.2335, 27.31426
985.7156, 27.32129
986.1977, 27.18709
986.6798, 27.16283
987.1619, 27.37007
987.6440, 27.54207
988.1262, 27.36169
988.6083, 26.94196
989.0904, 26.85904
989.5725, 27.20300
990.0546, 27.48830
990.5367, 27.71382
991.0189, 27.78997
991.5010, 27.62708
991.9831, 27.36119
992.4652, 27.12185
992.9473, 26.91661
993.4294, 26.94503
993.9116, 27.43091
994.3937, 27.74344
994.8758, 27.77246
995.3579, 27.69875
995.8400, 27.60991
996.3221, 27.46727
996.8043, 27.15648
997.2864, 26.66765
997.7685, 26.39043
998.2506, 26.41703
998.7327, 26.57330
999.2148, 27.00795
999.6970, 27.37631
1000.179, 27.42962
1000.661, 27.27817
1001.143, 27.09534
1001.625, 26.90844
1002.108, 26.76993
1002.590, 26.71504
1003.072, 26.69007
1003.554, 26.70870
1004.036, 26.71485
1004.518, 26.58336
1005.000, 26.41828
1005.482, 26.48539
1005.964, 26.85583
1006.447, 27.16986
1006.929, 27.20944
1007.411, 27.12091
1007.893, 26.93974
1008.375, 26.75088
1008.857, 26.68722
1009.339, 26.71762
1009.821, 26.70862
1010.304, 26.60935
1010.786, 26.49713
1011.268, 26.38649
1011.750, 26.34199
1012.232, 26.50380
1012.714, 26.77208
1013.196, 26.96856
1013.678, 27.06284
1014.160, 27.07227
1014.643, 27.00501
1015.125, 26.89212
1015.607, 26.74497
1016.089, 26.58886
1016.571, 26.43790
1017.053, 26.32724
1017.535, 26.43292
1018.017, 26.75168
1018.500, 27.02574
1018.982, 27.10986
1019.464, 27.07110
1019.946, 26.97762
1020.428, 26.84699
1020.910, 26.75123
1021.392, 26.69106
1021.874, 26.68234
1022.356, 26.72782
1022.839, 26.80085
1023.321, 26.88834
1023.803, 26.97261
1024.285, 27.02185
1024.767, 27.03825
1025.249, 27.07442
1025.731, 27.14011
1026.213, 27.01535
1026.696, 26.61489
1027.178, 26.28716
1027.660, 26.27833
1028.142, 26.45347
1028.624, 26.55082
1029.106, 26.56817
1029.588, 26.55866
1030.070, 26.51591
1030.552, 26.47089
1031.035, 26.42100
1031.517, 26.39769
1031.999, 26.42263
1032.481, 26.49033
1032.963, 26.59976
1033.445, 26.76669
1033.927, 26.83301
1034.409, 26.72593
1034.891, 26.72496
1035.374, 26.99642
1035.856, 27.18926
1036.338, 27.00103
1036.820, 26.61179
1037.302, 26.43406
1037.784, 26.51373
1038.266, 26.54376
1038.748, 26.45249
1039.231, 26.44064
1039.713, 26.53078
1040.195, 26.73619
1040.677, 27.25818
1041.159, 27.82469
1041.641, 27.76248
1042.123, 26.84186
1042.605, 26.37786
1043.088, 26.84535
1043.570, 27.09335
1044.052, 26.71706
1044.534, 26.29502
1045.016, 26.19687
1045.498, 26.30156
1045.980, 26.37042
1046.462, 26.38726
1046.944, 26.42484
1047.427, 26.50211
1047.909, 26.58140
1048.391, 26.71783
1048.873, 26.79123
1049.355, 26.66491
1049.837, 26.44311
1050.319, 26.31572
1050.801, 26.30426
1051.283, 26.31894
1051.766, 26.43589
1052.248, 26.45224
1052.730, 26.17892
1053.212, 25.92634
1053.694, 25.96819
1054.176, 26.14554
1054.658, 26.13598
1055.140, 25.89935
1055.623, 25.79421
1056.105, 25.93114
1056.587, 26.17157
1057.069, 26.65819
1057.551, 27.04857
1058.033, 27.04409
1058.515, 26.81403
1058.997, 26.59189
1059.479, 26.42212
1059.962, 26.40096
1060.444, 26.78276
1060.926, 27.00262
1061.408, 26.74568
1061.890, 26.38599
1062.372, 26.10238
1062.854, 25.93319
1063.336, 25.94113
1063.818, 26.11176
1064.301, 26.27011
1064.783, 26.37970
1065.265, 26.43267
1065.747, 26.41824
1066.229, 26.35540
1066.711, 26.20222
1067.193, 26.04181
1067.675, 25.96793
1068.158, 25.99745
1068.640, 26.15350
1069.122, 26.15040
1069.604, 26.55900
1070.086, 26.78570
1070.568, 26.84028
1071.050, 26.20719
1071.532, 26.46208
1072.015, 26.36109
1072.497, 26.24553
1072.979, 26.62539
1073.461, 26.09232
1073.943, 26.46433
1074.425, 26.47505
1074.907, 26.65112
1075.389, 26.46914
1075.871, 26.39774
1076.354, 26.68451
1076.836, 26.77296
1077.318, 26.54976
1077.800, 26.73634
1078.282, 26.19077
1078.764, 26.28767
1079.246, 26.66177
1079.728, 26.07613
1080.210, 25.59800
1080.693, 25.47285
1081.175, 25.64405
1081.657, 25.88338
1082.139, 26.14988
1082.621, 26.22912
1083.103, 25.79518
1083.585, 25.43294
1084.067, 25.57377
1084.549, 25.83958
1085.032, 25.86294
1085.514, 25.71838
1085.996, 25.60984
1086.478, 25.58349
1086.960, 25.64262
1087.442, 25.93642
1087.924, 26.12301
1088.406, 25.89582
1088.889, 25.63165
1089.371, 25.69972
1089.853, 25.92300
1090.335, 25.95338
1090.817, 25.75579
1091.299, 25.59697
1091.781, 25.55907
1092.263, 25.59895
1092.745, 25.79659
1093.228, 25.96307
1093.710, 25.95698
1094.192, 25.84405
1094.674, 25.66693
1095.156, 25.46903
1095.638, 25.40812
1096.120, 25.60332
1096.602, 25.74833
1097.084, 25.73097
1097.567, 25.63833
1098.049, 25.41112
1098.531, 25.21732
1099.013, 25.32320
1099.495, 25.61576
1099.977, 25.65204
1100.459, 25.24568
1100.941, 25.00255
1101.424, 25.22853
1101.906, 25.47351
1102.388, 25.55755
1102.870, 25.57576
1103.352, 25.62709
1103.834, 25.67615
1104.316, 25.61386
1104.798, 25.41139
1105.281, 25.26697
1105.763, 25.22741
1106.245, 25.24219
1106.727, 25.40064
1107.209, 25.50189
1107.691, 25.32224
1108.173, 25.05288
1108.655, 24.98698
1109.137, 25.14186
1109.620, 25.34223
1110.102, 25.68834
1110.584, 25.88954
1111.066, 25.79122
1111.548, 25.67988
1112.030, 25.71379
1112.512, 25.77917
1112.994, 25.72631
1113.476, 25.58033
1113.959, 25.51289
1114.441, 25.58394
1114.923, 25.61829
1115.405, 25.62567
1115.887, 25.57672
1116.369, 25.37944
1116.851, 25.20869
1117.333, 25.24111
1117.816, 25.39159
1118.298, 25.42311
1118.780, 25.28933
1119.262, 25.27195
1119.744, 25.51312
1120.226, 25.58253
1120.708, 25.24313
1121.190, 24.98981
1121.672, 25.19645
1122.155, 25.56942
1122.637, 25.63095
1123.119, 25.38791
1123.601, 25.21865
1124.083, 25.13765
1124.565, 25.08497
1125.047, 25.04130
1125.529, 25.07645
1126.011, 25.26721
1126.494, 25.43579
1126.976, 25.35230
1127.458, 25.11378
1127.940, 25.16797
1128.422, 25.58371
1128.904, 25.85817
1129.386, 25.98495
1129.868, 25.89417
1130.351, 25.49813
1130.833, 25.23196
1131.315, 25.46233
1131.797, 25.90513
1132.279, 25.96377
1132.761, 25.66755
1133.243, 25.47939
1133.725, 25.39973
1134.208, 25.47650
1134.690, 25.72340
1135.172, 25.89415
1135.654, 25.86072
1136.136, 25.73536
1136.618, 25.64530
1137.100, 25.58472
1137.582, 25.52129
1138.064, 25.46890
1138.547, 25.53050
1139.029, 25.69584
1139.511, 25.83629
1139.993, 25.90690
1140.475, 25.89298
1140.957, 25.77123
1141.439, 25.61282
1141.921, 25.53566
1142.403, 25.50629
1142.886, 25.43551
1143.368, 25.34344
1143.850, 25.29049
1144.332, 25.29165
1144.814, 25.36071
1145.296, 25.50570
1145.778, 25.64895
1146.260, 25.67792
1146.743, 25.69402
1147.225, 25.88097
1147.707, 26.11364
1148.189, 26.19568
1148.671, 26.14077
1149.153, 26.03517
1149.635, 25.90906
1150.117, 25.77594
1150.599, 25.63997
1151.082, 25.50720
1151.564, 25.33357
1152.046, 25.21295
1152.528, 25.28154
1153.010, 25.43295
1153.492, 25.52750
1153.974, 25.54537
1154.456, 25.48703
1154.938, 25.31470
1155.421, 25.26971
1155.903, 25.64475
1156.385, 25.92603
1156.867, 25.72961
1157.349, 25.45868
1157.831, 25.48738
1158.313, 25.68672
1158.795, 25.74847
1159.278, 25.63724
1159.760, 25.62908
1160.242, 25.91182
1160.724, 26.07743
1161.206, 26.01284
1161.688, 25.88551
1162.170, 25.69316
1162.652, 25.53428
1163.135, 25.53996
1163.617, 25.66309
1164.099, 25.71043
1164.581, 25.65332
1165.063, 25.61704
1165.545, 25.59752
1166.027, 25.60897
1166.509, 25.65777
1166.991, 25.73634
1167.474, 25.86172
1167.956, 25.97334
1168.438, 25.94930
1168.920, 25.81534
1169.402, 25.89732
1169.884, 26.23848
1170.366, 26.37166
1170.848, 26.23861
1171.330, 26.06797
1171.813, 25.93708
1172.295, 25.85194
1172.777, 25.82587
1173.259, 25.81987
1173.741, 25.71986
1174.223, 25.56375
1174.705, 25.55944
1175.187, 25.68552
1175.670, 25.80341
1176.152, 25.88835
1176.634, 25.97722
1177.116, 26.08781
1177.598, 26.17682
1178.080, 26.17453
1178.562, 26.16148
1179.044, 26.36176
1179.526, 26.58142
1180.009, 26.35036
1180.491, 25.86703
1180.973, 25.75431
1181.455, 26.06340
1181.937, 26.22949
1182.419, 25.92237
1182.901, 25.59960
1183.383, 25.59397
1183.865, 25.70532
1184.348, 25.88189
1184.830, 25.99972
1185.312, 25.82271
1185.794, 25.50686
1186.276, 25.45758
1186.758, 25.75166
1187.240, 25.98315
1187.722, 25.85823
1188.205, 25.91038
1188.687, 26.59861
1189.169, 27.12318
1189.651, 26.88374
1190.133, 26.40554
1190.615, 26.28602
1191.097, 26.44740
1191.579, 26.47418
1192.062, 26.33171
1192.544, 26.17645
1193.026, 25.95737
1193.508, 25.84305
1193.990, 25.90364
1194.472, 25.98707
1194.954, 26.01587
1195.436, 26.01018
1195.918, 25.98512
1196.401, 25.95670
1196.883, 26.03122
1197.365, 26.21511
1197.847, 26.32976
1198.329, 26.36445
1198.811, 26.38239
1199.293, 26.40123
1199.775, 26.38252
1200.257, 26.29718
1200.740, 26.18753
1201.222, 26.09130
1201.704, 26.03277
1202.186, 26.10532
1202.668, 26.25860
1203.150, 26.38184
1203.632, 26.44629
1204.114, 26.38799
1204.597, 26.20788
1205.079, 26.04926
1205.561, 25.99300
1206.043, 26.02801
1206.525, 26.25003
1207.007, 26.45229
1207.489, 26.36735
1207.971, 26.18012
1208.453, 26.15638
1208.936, 26.25925
1209.418, 26.31666
1209.900, 26.28834
1210.382, 26.21839
1210.864, 26.04221
1211.346, 25.94366
1211.828, 26.01997
1212.310, 26.13095
1212.792, 26.21108
1213.275, 26.27896
1213.757, 26.37657
1214.239, 26.48078
1214.721, 26.50892
1215.203, 26.45547
1215.685, 26.33303
1216.167, 26.06391
1216.649, 25.97639
1217.132, 26.20069
1217.614, 26.37066
1218.096, 26.30290
1218.578, 26.08885
1219.060, 25.79785
1219.542, 25.50668
1220.024, 25.49546
1220.506, 25.73062
1220.989, 25.90923
1221.471, 26.02572
1221.953, 26.15076
1222.435, 26.28712
1222.917, 26.31635
1223.399, 26.17675
1223.881, 26.00216
1224.363, 25.89609
1224.845, 25.87911
1225.328, 26.07934
1225.810, 26.31467
1226.292, 26.25570
1226.774, 26.03840
1227.256, 25.92887
1227.738, 25.98945
1228.220, 26.25618
1228.702, 26.81335
1229.184, 27.17905
1229.667, 26.99828
1230.149, 26.76436
1230.631, 26.70654
1231.113, 26.67652
1231.595, 26.54152
1232.077, 26.37019
1232.559, 26.23527
1233.041, 26.15643
1233.524, 26.27759
1234.006, 26.79590
1234.488, 26.98886
1234.970, 26.69501
1235.452, 26.50937
1235.934, 26.62947
1236.416, 26.68509
1236.898, 26.41783
1237.380, 26.07990
1237.863, 26.03675
1238.345, 26.23057
1238.827, 26.48287
1239.309, 26.76740
1239.791, 26.88060
1240.273, 26.83105
1240.755, 26.73157
1241.237, 26.62591
1241.719, 26.60189
1242.202, 26.71128
1242.684, 26.82388
1243.166, 26.79833
1243.648, 26.71528
1244.130, 26.63381
1244.612, 26.57579
1245.094, 26.56124
1245.576, 26.59512
1246.059, 26.70944
1246.541, 26.88195
1247.023, 27.00837
1247.505, 27.07268
1247.987, 27.03323
1248.469, 26.74862
1248.951, 26.54056
1249.433, 26.55477
1249.916, 26.62939
1250.398, 26.62001
1250.880, 26.65965
1251.362, 26.99803
1251.844, 27.52920
1252.326, 27.64918
1252.808, 27.27836
1253.290, 26.88786
1253.772, 26.45120
1254.255, 26.21244
1254.737, 26.22502
1255.219, 26.42197
1255.701, 26.78088
1256.183, 27.04227
1256.665, 26.85116
1257.147, 26.51399
1257.629, 26.72932
1258.111, 27.20343
1258.594, 27.29351
1259.076, 27.09737
1259.558, 26.87242
1260.040, 26.69904
1260.522, 26.66894
1261.004, 26.81224
1261.486, 26.88604
1261.968, 26.62267
1262.451, 26.43455
1262.933, 26.60030
1263.415, 26.82242
1263.897, 26.95364
1264.379, 26.99808
1264.861, 26.94317
1265.343, 26.81959
1265.825, 26.70883
1266.307, 26.60303
1266.790, 26.59822
1267.272, 26.74866
1267.754, 26.83597
1268.236, 26.83194
1268.718, 26.78101
1269.200, 26.68994
1269.682, 26.62503
1270.164, 26.65639
1270.646, 26.68141
1271.129, 26.43248
1271.611, 26.05914
1272.093, 26.05830
1272.575, 26.34510
1273.057, 26.78184
1273.539, 27.25225
1274.021, 27.46436
1274.503, 27.37542
1274.986, 27.23295
1275.468, 27.14780
1275.950, 27.11975
1276.432, 27.25718
1276.914, 27.31569
1277.396, 27.04570
1277.878, 26.73022
1278.360, 26.56912
1278.843, 26.54859
1279.325, 26.65985
1279.807, 26.88479
1280.289, 27.08837
1280.771, 27.30727
1281.253, 27.35550
1281.735, 27.15094
1282.217, 27.06728
1282.699, 27.20563
1283.182, 27.29596
1283.664, 27.19607
1284.146, 27.08343
1284.628, 27.15965
1285.110, 27.30095
1285.592, 27.28579
1286.074, 27.11744
##END=



