##NAMES=Vuagnatite
##RRUFFID=R050397
##IDEAL CHEMISTRY=CaAlSiO_4_(OH)
##LOCALITY=Red Mountain, Mendocino County, California, USA
##OWNER=RRUFF
##SOURCE=Marcus Origlieri
##DESCRIPTION=Colorless prismatic crystals
##STATUS=The identification of this mineral has been confirmed by X-ray diffraction and chemical analysis
##URL=rruff.info/R050397
##MEASURED CHEMISTRY=Ca_1.00_Al_1.00_(Si_1.00_O_4_)(OH)
91.87140, 0.0000000E+00
92.35352, 5.449059
92.83563, 5.350699
93.31775, 5.308945
93.79987, 5.346837
94.28198, 5.444403
94.76410, 5.540991
95.24622, 5.613062
95.72833, 5.689476
96.21045, 5.829420
96.69257, 6.034675
97.17468, 6.282113
97.65680, 6.548238
98.13892, 6.834294
98.62103, 7.155355
99.10315, 7.502931
99.58527, 7.883430
100.0674, 8.328203
100.5495, 8.838208
101.0316, 9.402198
101.5137, 10.00695
101.9958, 10.66833
102.4780, 11.32386
102.9601, 11.89831
103.4422, 12.33549
103.9243, 13.08369
104.4064, 14.27619
104.8885, 15.69836
105.3707, 16.97680
105.8528, 17.94921
106.3349, 18.99079
106.8170, 20.25449
107.2991, 21.94327
107.7813, 23.46570
108.2634, 24.69897
108.7455, 25.75486
109.2276, 26.96190
109.7097, 28.53065
110.1918, 30.10966
110.6740, 31.55569
111.1561, 32.71291
111.6382, 33.90808
112.1203, 35.12583
112.6024, 36.39000
113.0845, 37.77742
113.5667, 39.25243
114.0488, 40.87440
114.5309, 42.70186
115.0130, 44.72583
115.4951, 46.96218
115.9772, 49.39520
116.4594, 52.04773
116.9415, 54.98457
117.4236, 58.36532
117.9057, 62.00210
118.3878, 65.67780
118.8699, 69.53220
119.3521, 73.28507
119.8342, 76.84635
120.3163, 80.21241
120.7984, 83.35017
121.2805, 86.15628
121.7626, 88.72556
122.2448, 91.22005
122.7269, 93.79815
123.2090, 96.29831
123.6911, 98.50288
124.1732, 100.3271
124.6553, 102.1147
125.1375, 104.3307
125.6196, 106.8142
126.1017, 109.0562
126.5838, 110.5260
127.0659, 111.5873
127.5480, 112.8853
128.0302, 114.5213
128.5123, 116.4216
128.9944, 118.4821
129.4765, 120.7088
129.9586, 123.1552
130.4407, 125.8754
130.9229, 128.8523
131.4050, 132.0008
131.8871, 135.1233
132.3692, 138.4865
132.8513, 142.5618
133.3334, 147.1081
133.8156, 151.7716
134.2977, 156.5391
134.7798, 161.9325
135.2619, 168.5570
135.7440, 176.4937
136.2261, 185.6513
136.7083, 197.2296
137.1904, 212.1734
137.6725, 226.7183
138.1546, 238.9576
138.6367, 250.2790
139.1188, 252.3798
139.6010, 240.8843
140.0831, 215.8549
140.5652, 194.5032
141.0473, 176.4841
141.5294, 162.0244
142.0115, 151.9147
142.4937, 146.9188
142.9758, 144.0649
143.4579, 142.6755
143.9400, 142.9627
144.4221, 143.6552
144.9042, 144.8214
145.3864, 146.3365
145.8685, 147.9759
146.3506, 149.8172
146.8327, 151.6878
147.3148, 153.5620
147.7969, 155.4608
148.2791, 157.2859
148.7612, 158.9402
149.2433, 160.5238
149.7254, 162.3004
150.2075, 164.3125
150.6896, 166.4705
151.1718, 168.7292
151.6539, 171.1450
152.1360, 173.5860
152.6181, 176.0287
153.1002, 178.4933
153.5823, 181.0276
154.0645, 183.8928
154.5466, 186.6693
155.0287, 189.1470
155.5108, 190.8121
155.9929, 192.8142
156.4750, 195.0427
156.9572, 197.6375
157.4393, 201.1602
157.9214, 206.1598
158.4035, 211.8862
158.8856, 217.8813
159.3677, 223.8654
159.8499, 230.3105
160.3320, 237.0858
160.8141, 244.2617
161.2962, 252.4048
161.7783, 261.6425
162.2604, 271.8983
162.7426, 283.1085
163.2247, 297.0995
163.7068, 310.4323
164.1889, 323.1134
164.6710, 334.7449
165.1531, 341.4809
165.6353, 341.0984
166.1174, 334.9646
166.5995, 324.5473
167.0816, 307.6081
167.5637, 288.6198
168.0458, 269.2931
168.5280, 249.8617
169.0101, 232.4044
169.4922, 218.5665
169.9743, 207.6248
170.4564, 198.6813
170.9385, 192.0129
171.4207, 186.7875
171.9028, 182.2421
172.3849, 178.3584
172.8670, 175.5016
173.3491, 174.0490
173.8312, 173.7907
174.3134, 174.3318
174.7955, 175.6498
175.2776, 177.5908
175.7597, 179.9596
176.2418, 182.7615
176.7239, 186.0565
177.2061, 190.8647
177.6882, 196.4394
178.1703, 200.6656
178.6524, 203.0537
179.1345, 203.3686
179.6166, 200.6585
180.0988, 194.4885
180.5809, 187.2352
181.0630, 181.0401
181.5451, 175.8497
182.0272, 171.7214
182.5093, 169.0783
182.9915, 167.4486
183.4736, 165.8218
183.9557, 164.1559
184.4378, 162.3287
184.9199, 160.0961
185.4020, 157.5232
185.8842, 154.7734
186.3663, 151.7261
186.8484, 148.5394
187.3305, 145.9232
187.8126, 143.9422
188.2947, 142.4354
188.7769, 141.1553
189.2590, 140.1039
189.7411, 139.3320
190.2232, 138.8701
190.7053, 138.7133
191.1874, 138.8579
191.6696, 139.3765
192.1517, 140.0613
192.6338, 140.6033
193.1159, 141.0075
193.5980, 141.1660
194.0801, 140.7936
194.5623, 139.9560
195.0444, 139.6018
195.5265, 139.8491
196.0086, 140.5723
196.4907, 141.4845
196.9728, 142.5618
197.4550, 144.0106
197.9371, 146.3197
198.4192, 149.5178
198.9013, 151.7201
199.3834, 152.6332
199.8655, 152.5988
200.3477, 152.3720
200.8298, 151.9358
201.3119, 151.3814
201.7940, 150.6237
202.2761, 149.6041
202.7582, 149.0808
203.2404, 149.2191
203.7225, 149.8213
204.2046, 150.3261
204.6867, 150.6787
205.1688, 151.1284
205.6509, 151.8220
206.1331, 152.7761
206.6152, 153.9081
207.0973, 155.2864
207.5794, 156.8003
208.0615, 157.9885
208.5436, 158.6149
209.0258, 159.5433
209.5079, 161.4029
209.9900, 164.3905
210.4721, 167.3194
210.9542, 170.0418
211.4363, 172.6573
211.9185, 175.4248
212.4006, 178.1922
212.8827, 181.4680
213.3648, 185.4355
213.8469, 190.0840
214.3290, 195.5683
214.8112, 201.9068
215.2933, 209.0633
215.7754, 217.3195
216.2575, 227.1876
216.7396, 237.2207
217.2217, 247.0216
217.7039, 257.6722
218.1860, 264.9208
218.6681, 269.0949
219.1502, 269.5683
219.6323, 263.1677
220.1144, 247.4736
220.5966, 229.1660
221.0787, 211.6846
221.5608, 194.5181
222.0429, 179.6418
222.5250, 167.2678
223.0071, 157.2845
223.4893, 149.9275
223.9714, 145.9187
224.4535, 143.2847
224.9356, 140.9745
225.4177, 138.9447
225.8998, 137.4095
226.3820, 136.5336
226.8641, 136.1356
227.3462, 135.6366
227.8283, 135.0464
228.3104, 134.3404
228.7925, 133.4733
229.2747, 132.2454
229.7568, 131.2779
230.2389, 130.5978
230.7210, 130.1801
231.2031, 130.0017
231.6852, 130.2243
232.1674, 130.4454
232.6495, 130.4395
233.1316, 130.0130
233.6137, 129.7986
234.0958, 129.8736
234.5779, 130.1586
235.0601, 130.4507
235.5422, 130.8347
236.0243, 131.1091
236.5064, 131.1327
236.9885, 130.6183
237.4706, 130.5086
237.9528, 130.9663
238.4349, 131.7871
238.9170, 132.4721
239.3991, 133.0144
239.8812, 133.4309
240.3633, 133.7173
240.8455, 133.8306
241.3276, 133.8956
241.8097, 133.7614
242.2918, 133.6342
242.7739, 134.0118
243.2560, 135.1986
243.7382, 136.4192
244.2203, 137.3518
244.7024, 137.8182
245.1845, 138.5189
245.6666, 139.6063
246.1487, 140.8538
246.6309, 141.8332
247.1130, 142.4035
247.5951, 142.9427
248.0772, 143.6453
248.5593, 144.6981
249.0414, 145.2160
249.5236, 144.9678
250.0057, 144.3284
250.4878, 143.8539
250.9699, 143.3880
251.4520, 143.3749
251.9341, 144.0826
252.4163, 145.7355
252.8984, 147.0121
253.3805, 147.8610
253.8626, 148.3759
254.3447, 148.6502
254.8268, 148.5870
255.3090, 148.4892
255.7911, 148.4341
256.2732, 148.4234
256.7553, 148.4224
257.2374, 148.3569
257.7195, 148.3758
258.2017, 148.6385
258.6838, 149.1107
259.1659, 149.9210
259.6480, 151.2009
260.1301, 152.9622
260.6122, 154.5653
261.0944, 155.9504
261.5765, 157.2599
262.0586, 158.5957
262.5407, 159.8370
263.0228, 161.4331
263.5049, 163.5042
263.9871, 166.0555
264.4692, 168.6303
264.9513, 170.9842
265.4334, 173.7862
265.9155, 177.7527
266.3976, 182.9674
266.8798, 188.8357
267.3619, 195.2961
267.8440, 202.3498
268.3261, 209.6693
268.8082, 217.5017
269.2903, 225.0515
269.7725, 232.6054
270.2546, 241.2837
270.7367, 244.2736
271.2188, 239.5797
271.7009, 228.6590
272.1830, 216.6956
272.6652, 202.9533
273.1473, 190.4328
273.6294, 181.1821
274.1115, 175.5554
274.5936, 171.3242
275.0757, 168.3686
275.5579, 166.5399
276.0400, 165.5908
276.5221, 165.6001
277.0042, 166.1632
277.4863, 167.1338
277.9684, 168.5336
278.4506, 170.0135
278.9327, 171.5133
279.4148, 173.1277
279.8969, 175.2734
280.3790, 178.0905
280.8611, 180.4650
281.3433, 181.8112
281.8254, 182.1357
282.3075, 181.8305
282.7896, 180.7487
283.2717, 179.4030
283.7538, 178.7276
284.2360, 178.7566
284.7181, 178.5930
285.2002, 177.9316
285.6823, 176.7686
286.1644, 174.9626
286.6465, 172.4480
287.1287, 169.5915
287.6108, 166.7153
288.0929, 163.8346
288.5750, 161.2560
289.0571, 159.0885
289.5392, 157.3051
290.0214, 155.8524
290.5035, 154.7378
290.9856, 153.9212
291.4677, 153.3468
291.9498, 153.0283
292.4319, 153.0718
292.9141, 153.6047
293.3962, 154.4660
293.8783, 155.2536
294.3604, 155.9627
294.8425, 156.8101
295.3246, 157.9440
295.8068, 159.3743
296.2889, 161.1335
296.7710, 163.3588
297.2531, 165.7931
297.7352, 168.0396
298.2173, 170.0926
298.6995, 171.9893
299.1816, 174.3217
299.6637, 176.4578
300.1458, 176.8215
300.6279, 174.7266
301.1100, 171.6791
301.5922, 169.2352
302.0743, 167.3723
302.5564, 166.0101
303.0385, 164.9213
303.5206, 164.3472
304.0027, 164.6708
304.4849, 166.0002
304.9670, 167.9698
305.4491, 170.2942
305.9312, 172.9840
306.4133, 176.0664
306.8954, 179.8704
307.3776, 183.9133
307.8597, 187.8399
308.3418, 191.7109
308.8239, 194.9085
309.3060, 196.6734
309.7881, 197.5420
310.2703, 198.3055
310.7524, 199.1630
311.2345, 200.1421
311.7166, 201.3427
312.1987, 202.7520
312.6808, 204.0450
313.1630, 204.5369
313.6451, 205.0133
314.1272, 206.3295
314.6093, 209.4057
315.0914, 212.7555
315.5735, 215.4187
316.0557, 217.5972
316.5378, 220.3716
317.0199, 224.2977
317.5020, 228.9198
317.9841, 233.9320
318.4662, 238.7665
318.9484, 244.5927
319.4305, 251.7611
319.9126, 260.2036
320.3947, 269.7416
320.8768, 280.2756
321.3589, 291.9279
321.8411, 304.9103
322.3232, 319.4481
322.8053, 334.4853
323.2874, 350.8051
323.7695, 367.3183
324.2516, 382.3004
324.7338, 398.2664
325.2159, 410.1085
325.6980, 417.1308
326.1801, 420.1623
326.6622, 414.3458
327.1443, 394.7197
327.6265, 368.1481
328.1086, 341.3631
328.5907, 311.8577
329.0728, 285.4483
329.5549, 262.9456
330.0370, 244.2864
330.5192, 229.0329
331.0013, 218.0364
331.4834, 209.5954
331.9655, 202.4852
332.4476, 196.7675
332.9297, 192.2753
333.4119, 189.1900
333.8940, 187.3511
334.3761, 186.1597
334.8582, 185.6923
335.3403, 185.7770
335.8224, 186.2820
336.3046, 187.0540
336.7867, 188.7504
337.2688, 191.5652
337.7509, 195.1755
338.2330, 199.0609
338.7151, 203.2434
339.1973, 207.5593
339.6794, 212.1761
340.1615, 217.1069
340.6436, 221.3231
341.1257, 224.8775
341.6078, 227.5315
342.0900, 228.8879
342.5721, 228.8950
343.0542, 228.0502
343.5363, 226.2100
344.0184, 223.6656
344.5005, 221.5103
344.9827, 219.7370
345.4648, 218.5390
345.9469, 218.0748
346.4290, 218.3441
346.9111, 219.3784
347.3932, 221.2187
347.8754, 223.7646
348.3575, 226.9017
348.8396, 230.5880
349.3217, 234.5854
349.8038, 238.3565
350.2859, 242.2986
350.7681, 247.3596
351.2502, 253.6500
351.7323, 261.0520
352.2144, 269.3102
352.6965, 278.5816
353.1786, 289.1049
353.6608, 301.3453
354.1429, 314.7598
354.6250, 328.9288
355.1071, 343.8565
355.5892, 358.8368
356.0714, 374.8993
356.5535, 390.3428
357.0356, 402.7208
357.5177, 414.9820
357.9998, 420.6872
358.4819, 413.9636
358.9641, 395.8702
359.4462, 372.1624
359.9283, 340.2259
360.4104, 306.9721
360.8925, 278.0314
361.3746, 254.7366
361.8568, 235.7648
362.3389, 221.3630
362.8210, 210.9772
363.3031, 202.9902
363.7852, 197.7949
364.2673, 194.1814
364.7495, 191.7442
365.2316, 190.6191
365.7137, 189.9960
366.1958, 189.6796
366.6779, 189.8043
367.1600, 190.5259
367.6422, 192.0177
368.1243, 193.9463
368.6064, 196.2462
369.0885, 198.9306
369.5706, 202.0390
370.0527, 205.9068
370.5349, 209.9574
371.0170, 213.8471
371.4991, 217.1994
371.9812, 220.9724
372.4633, 225.3647
372.9454, 230.2380
373.4276, 234.9909
373.9097, 239.5537
374.3918, 244.2150
374.8739, 248.9225
375.3560, 253.5853
375.8381, 258.9496
376.3203, 265.0535
376.8024, 271.7239
377.2845, 278.6901
377.7666, 285.8683
378.2487, 293.4927
378.7308, 301.3941
379.2130, 309.7262
379.6951, 318.8628
380.1772, 328.9315
380.6593, 339.5296
381.1414, 350.1766
381.6235, 360.9087
382.1057, 373.0723
382.5878, 387.0382
383.0699, 402.2972
383.5520, 418.0450
384.0341, 434.3848
384.5162, 450.8780
384.9984, 468.2867
385.4805, 485.6718
385.9626, 501.8859
386.4447, 517.2713
386.9268, 529.0222
387.4089, 534.6057
387.8911, 534.4124
388.3732, 529.1699
388.8553, 516.7841
389.3374, 501.0357
389.8195, 484.5977
390.3016, 467.8490
390.7838, 452.2523
391.2659, 438.3329
391.7480, 426.4249
392.2301, 416.9223
392.7122, 410.4455
393.1943, 405.6909
393.6765, 402.6878
394.1586, 401.0563
394.6407, 399.7594
395.1228, 398.6162
395.6049, 397.5680
396.0870, 396.7701
396.5692, 396.6235
397.0513, 395.4748
397.5334, 392.1735
398.0155, 387.9569
398.4976, 384.4185
398.9797, 382.4083
399.4619, 380.3101
399.9440, 378.0453
400.4261, 375.6086
400.9082, 372.2140
401.3903, 367.8275
401.8724, 362.5049
402.3546, 356.3128
402.8367, 349.6349
403.3188, 341.3699
403.8009, 331.2809
404.2830, 319.6503
404.7651, 306.9725
405.2473, 293.0851
405.7294, 278.9589
406.2115, 264.5753
406.6936, 249.9997
407.1757, 237.1927
407.6578, 226.2133
408.1400, 216.7741
408.6221, 208.4631
409.1042, 201.2784
409.5863, 195.1917
410.0684, 190.2778
410.5505, 186.4065
411.0327, 183.1144
411.5148, 180.3870
411.9969, 178.1402
412.4790, 176.3990
412.9611, 175.0569
413.4432, 173.8278
413.9254, 172.5968
414.4075, 171.7286
414.8896, 171.8225
415.3717, 172.5874
415.8538, 173.3425
416.3359, 173.5884
416.8181, 173.7869
417.3002, 174.3524
417.7823, 175.2953
418.2644, 176.3830
418.7465, 177.6305
419.2286, 178.9084
419.7108, 180.0537
420.1929, 180.7372
420.6750, 181.6879
421.1571, 183.2833
421.6392, 185.3687
422.1213, 187.5055
422.6035, 189.5733
423.0856, 191.6639
423.5677, 193.7617
424.0498, 195.7281
424.5319, 198.1585
425.0140, 201.4648
425.4962, 205.1107
425.9783, 208.5453
426.4604, 211.3255
426.9425, 214.5564
427.4246, 218.4742
427.9067, 223.0271
428.3889, 227.5468
428.8710, 231.8106
429.3531, 236.4154
429.8352, 241.8959
430.3173, 248.3976
430.7994, 254.7009
431.2816, 260.8488
431.7637, 266.6473
432.2458, 271.9916
432.7279, 276.9521
433.2100, 280.2338
433.6921, 281.4205
434.1743, 280.5599
434.6564, 277.5824
435.1385, 272.4226
435.6206, 266.1577
436.1027, 259.0432
436.5848, 251.5169
437.0670, 244.7738
437.5491, 239.0569
438.0312, 234.1139
438.5133, 229.9058
438.9954, 226.2174
439.4775, 222.4456
439.9597, 218.2695
440.4418, 213.8840
440.9239, 209.3262
441.4060, 204.5998
441.8881, 200.1529
442.3702, 196.2944
442.8524, 192.8684
443.3345, 189.7017
443.8166, 187.0072
444.2987, 184.2621
444.7808, 181.1693
445.2629, 177.8823
445.7451, 174.8301
446.2272, 172.0454
446.7093, 169.6287
447.1914, 167.6851
447.6735, 166.3517
448.1556, 165.0322
448.6378, 163.6662
449.1199, 162.3664
449.6020, 161.2455
450.0841, 160.3546
450.5662, 159.5822
451.0483, 158.9067
451.5305, 158.3375
452.0126, 157.9521
452.4947, 157.7924
452.9768, 157.6770
453.4589, 157.5060
453.9410, 157.2758
454.4232, 157.0057
454.9053, 156.6459
455.3874, 156.3933
455.8695, 156.6392
456.3516, 157.2987
456.8337, 157.7323
457.3159, 157.6334
457.7980, 157.2771
458.2801, 157.1411
458.7622, 157.2057
459.2443, 157.3312
459.7264, 157.2328
460.2086, 157.2144
460.6907, 157.7696
461.1728, 159.0756
461.6549, 160.4487
462.1370, 161.4726
462.6191, 162.2207
463.1013, 162.7722
463.5834, 162.8979
464.0655, 163.0770
464.5476, 163.6829
465.0297, 164.6307
465.5118, 165.2162
465.9940, 165.0356
466.4761, 164.5822
466.9582, 164.0945
467.4403, 163.4009
467.9224, 163.0190
468.4045, 163.3399
468.8867, 163.8133
469.3688, 163.5860
469.8509, 162.1065
470.3330, 160.9411
470.8151, 160.5000
471.2972, 160.7180
471.7794, 160.9770
472.2615, 161.3791
472.7436, 161.5547
473.2257, 161.0711
473.7078, 159.9094
474.1899, 159.2422
474.6721, 159.2402
475.1542, 159.5092
475.6363, 159.4172
476.1184, 159.0359
476.6005, 158.8333
477.0826, 159.0938
477.5648, 159.5865
478.0469, 159.8331
478.5290, 159.8829
479.0111, 160.1861
479.4932, 161.3735
479.9753, 162.8578
480.4575, 163.9088
480.9396, 164.2909
481.4217, 164.5907
481.9038, 165.0146
482.3859, 165.6107
482.8680, 166.4484
483.3502, 167.5982
483.8323, 168.9447
484.3144, 170.4364
484.7965, 172.0655
485.2786, 173.9350
485.7607, 176.0461
486.2429, 178.3909
486.7250, 180.9933
487.2071, 183.9890
487.6892, 186.8858
488.1713, 189.6553
488.6534, 192.3444
489.1356, 195.0301
489.6177, 197.6643
490.0998, 200.5121
490.5819, 203.7466
491.0640, 207.2913
491.5461, 210.6437
492.0283, 213.8049
492.5104, 216.9312
492.9925, 219.9772
493.4746, 223.0526
493.9567, 226.4999
494.4388, 230.4235
494.9210, 234.5440
495.4031, 238.4430
495.8852, 242.3039
496.3673, 246.7014
496.8494, 251.7566
497.3315, 257.4707
497.8137, 263.8272
498.2958, 270.8667
498.7779, 278.4983
499.2600, 287.2292
499.7421, 296.2520
500.2242, 305.1073
500.7064, 313.9067
501.1885, 322.1829
501.6706, 330.5244
502.1527, 337.9198
502.6348, 343.1891
503.1169, 347.3951
503.5991, 347.9886
504.0812, 344.7549
504.5633, 337.8033
505.0454, 326.8896
505.5275, 310.3808
506.0096, 293.0009
506.4918, 276.2780
506.9739, 259.9582
507.4560, 245.6694
507.9381, 233.5153
508.4202, 223.0996
508.9023, 214.1091
509.3845, 206.5335
509.8666, 200.2765
510.3487, 195.4349
510.8308, 191.6903
511.3129, 188.7991
511.7950, 186.6392
512.2772, 184.6381
512.7593, 182.2846
513.2414, 180.0403
513.7235, 178.5184
514.2056, 177.7063
514.6877, 177.0652
515.1699, 176.1902
515.6520, 175.3577
516.1341, 174.8540
516.6162, 174.9223
517.0983, 174.9611
517.5804, 174.6083
518.0626, 174.1288
518.5447, 173.9583
519.0268, 174.5496
519.5089, 175.0409
519.9910, 175.0865
520.4731, 174.7417
520.9553, 174.9521
521.4374, 176.1002
521.9195, 177.2304
522.4016, 177.7554
522.8837, 177.5250
523.3658, 177.4615
523.8480, 177.5816
524.3301, 177.8575
524.8122, 178.3334
525.2943, 178.9899
525.7764, 179.4792
526.2585, 179.5849
526.7407, 179.6150
527.2228, 180.3365
527.7049, 181.6079
528.1870, 182.5798
528.6691, 182.4595
529.1512, 181.9125
529.6334, 181.5930
530.1155, 181.5365
530.5976, 181.9427
531.0797, 183.0326
531.5618, 184.5959
532.0439, 186.4233
532.5261, 188.6647
533.0082, 190.8976
533.4903, 192.7368
533.9724, 194.5297
534.4545, 197.0767
534.9366, 200.9164
535.4188, 204.9484
535.9009, 208.7293
536.3830, 212.2880
536.8651, 216.9274
537.3472, 222.8587
537.8293, 229.4342
538.3115, 236.2040
538.7936, 243.1307
539.2757, 250.4483
539.7578, 258.1636
540.2399, 266.1421
540.7220, 274.4536
541.2042, 282.9483
541.6863, 291.3174
542.1684, 299.3752
542.6505, 307.4843
543.1326, 316.1250
543.6147, 325.2465
544.0969, 334.9229
544.5790, 345.0126
545.0611, 355.5653
545.5432, 366.4690
546.0253, 377.6421
546.5074, 389.7379
546.9896, 402.4995
547.4717, 416.4893
547.9538, 432.1651
548.4359, 449.9565
548.9180, 468.9985
549.4001, 489.3716
549.8823, 511.0036
550.3644, 533.8782
550.8465, 559.0681
551.3286, 584.0110
551.8107, 608.4523
552.2928, 632.3126
552.7750, 654.5186
553.2571, 675.4973
553.7392, 693.3846
554.2213, 708.1064
554.7034, 718.9875
555.1855, 723.1522
555.6677, 720.5742
556.1498, 710.3734
556.6319, 689.8930
557.1140, 661.3862
557.5961, 629.1426
558.0782, 592.7240
558.5604, 555.6297
559.0425, 519.6934
559.5246, 485.4630
560.0067, 454.4062
560.4888, 427.0721
560.9709, 403.4073
561.4531, 384.2822
561.9352, 369.5781
562.4173, 356.6086
562.8994, 345.0078
563.3815, 335.1224
563.8636, 327.0598
564.3458, 321.0724
564.8279, 316.3822
565.3100, 312.9062
565.7921, 310.7685
566.2742, 310.2129
566.7563, 311.2747
567.2385, 313.5625
567.7206, 317.1625
568.2027, 321.7279
568.6848, 326.4370
569.1669, 331.3501
569.6490, 336.4514
570.1312, 341.6252
570.6133, 347.1055
571.0954, 353.3803
571.5775, 360.4743
572.0596, 367.3775
572.5417, 373.8011
573.0239, 379.6464
573.5060, 384.7741
573.9881, 389.3083
574.4702, 392.8673
574.9523, 395.8197
575.4344, 397.6049
575.9166, 397.4910
576.3987, 394.8920
576.8808, 391.1248
577.3629, 385.8235
577.8450, 379.4799
578.3271, 373.5416
578.8093, 367.9223
579.2914, 362.9925
579.7735, 358.9781
580.2556, 355.8678
580.7377, 353.3027
581.2198, 351.3177
581.7020, 349.5929
582.1841, 348.2588
582.6662, 346.9523
583.1483, 344.9126
583.6304, 342.1560
584.1125, 338.1518
584.5947, 332.8658
585.0768, 325.9313
585.5589, 316.7784
586.0410, 303.7634
586.5231, 290.1544
587.0052, 276.9717
587.4874, 264.2385
587.9695, 252.2527
588.4516, 240.2431
588.9337, 229.7538
589.4158, 221.3454
589.8979, 215.0233
590.3801, 209.4933
590.8622, 204.9577
591.3443, 200.8299
591.8264, 196.6890
592.3085, 192.4609
592.7906, 189.1289
593.2728, 186.8479
593.7549, 184.9665
594.2370, 182.5200
594.7191, 179.7426
595.2012, 177.6896
595.6833, 176.8964
596.1655, 176.3272
596.6476, 174.6719
597.1297, 172.3609
597.6118, 170.3546
598.0939, 169.2079
598.5760, 168.3847
599.0582, 167.6482
599.5403, 167.0008
600.0224, 166.4204
600.5045, 166.0508
600.9866, 165.6237
601.4688, 164.9598
601.9509, 163.9371
602.4330, 163.2522
602.9151, 163.0981
603.3972, 163.0210
603.8793, 162.4834
604.3615, 161.3860
604.8436, 160.9343
605.3257, 161.4345
605.8078, 162.2368
606.2899, 162.2342
606.7720, 161.5883
607.2542, 161.0721
607.7363, 161.0499
608.2184, 161.2110
608.7005, 161.3193
609.1826, 161.3302
609.6647, 161.0859
610.1469, 160.1263
610.6290, 159.1933
611.1111, 158.8949
611.5932, 159.2865
612.0753, 159.3304
612.5574, 158.3565
613.0396, 157.3412
613.5217, 156.8821
614.0038, 157.3286
614.4859, 157.4026
614.9680, 156.9769
615.4501, 156.3491
615.9323, 155.8562
616.4144, 155.5038
616.8965, 155.1844
617.3786, 154.8787
617.8607, 154.5977
618.3428, 154.3635
618.8250, 154.1722
619.3071, 154.0096
619.7892, 153.9591
620.2713, 153.8717
620.7534, 153.5296
621.2355, 152.9922
621.7177, 152.5434
622.1998, 152.3185
622.6819, 152.2271
623.1640, 152.2235
623.6461, 152.3058
624.1282, 152.4745
624.6104, 152.9552
625.0925, 153.3286
625.5746, 153.2583
626.0567, 152.4117
626.5388, 152.1216
627.0209, 152.5899
627.5031, 153.3197
627.9852, 153.6490
628.4673, 153.5887
628.9494, 153.4035
629.4315, 153.0597
629.9136, 152.7909
630.3958, 153.1251
630.8779, 153.8622
631.3600, 154.3989
631.8421, 154.1837
632.3242, 153.8690
632.8063, 154.0026
633.2885, 154.5064
633.7706, 154.9122
634.2527, 154.8885
634.7348, 154.8754
635.2169, 155.1877
635.6990, 155.9625
636.1812, 156.2103
636.6633, 155.5343
637.1454, 154.8307
637.6275, 154.7749
638.1096, 155.4613
638.5917, 156.1485
639.0739, 156.8142
639.5560, 157.4511
640.0381, 158.0670
640.5202, 158.6585
641.0023, 159.2041
641.4844, 159.7191
641.9666, 160.1587
642.4487, 160.3590
642.9308, 160.4656
643.4129, 160.7891
643.8950, 162.0386
644.3771, 162.9812
644.8593, 162.9798
645.3414, 162.1465
645.8235, 161.1324
646.3056, 159.7772
646.7877, 158.5489
647.2698, 157.6716
647.7520, 157.1563
648.2341, 156.3630
648.7162, 155.1379
649.1983, 154.0572
649.6804, 153.7173
650.1625, 154.0095
650.6447, 153.8647
651.1268, 153.1927
651.6089, 152.3710
652.0910, 151.6740
652.5731, 151.1336
653.0552, 150.8230
653.5374, 150.8311
654.0195, 150.9084
654.5016, 150.8883
654.9837, 150.8437
655.4658, 150.8810
655.9479, 151.1467
656.4301, 151.3632
656.9122, 151.4407
657.3943, 151.4339
657.8764, 151.5019
658.3585, 151.7082
658.8406, 151.8288
659.3228, 151.7393
659.8049, 151.5049
660.2870, 151.4991
660.7691, 151.7260
661.2512, 151.9902
661.7333, 152.1671
662.2155, 152.2878
662.6976, 152.3793
663.1797, 152.4452
663.6618, 152.5893
664.1439, 153.0659
664.6260, 153.5444
665.1082, 153.7024
665.5903, 153.3982
666.0724, 153.0915
666.5545, 152.7683
667.0366, 152.5750
667.5187, 152.6655
668.0009, 153.3167
668.4830, 153.6908
668.9651, 153.7174
669.4472, 153.4811
669.9293, 152.9922
670.4114, 152.2456
670.8936, 151.7702
671.3757, 151.7372
671.8578, 151.9983
672.3399, 152.4825
672.8220, 153.0852
673.3041, 153.4474
673.7863, 153.2126
674.2684, 152.8201
674.7505, 152.5671
675.2326, 152.4291
675.7147, 152.2699
676.1968, 151.9959
676.6790, 151.7345
677.1611, 151.5578
677.6432, 151.4692
678.1253, 151.3173
678.6074, 151.0055
679.0895, 150.8149
679.5717, 151.0177
680.0538, 151.6157
680.5359, 151.9252
681.0180, 151.9147
681.5001, 151.7621
681.9822, 151.6097
682.4644, 151.4487
682.9465, 151.2444
683.4286, 150.9632
683.9107, 150.7462
684.3928, 150.7483
684.8749, 150.8478
685.3571, 150.8963
685.8392, 150.7401
686.3213, 150.6742
686.8034, 150.8520
687.2855, 151.1134
687.7676, 151.2000
688.2498, 151.0529
688.7319, 150.8665
689.2140, 150.6212
689.6961, 150.4115
690.1782, 150.6649
690.6603, 151.3426
691.1425, 151.6634
691.6246, 150.9407
692.1067, 149.8581
692.5888, 149.4373
693.0709, 149.5968
693.5530, 150.0008
694.0352, 150.7587
694.5173, 151.4599
694.9994, 151.8096
695.4815, 151.7807
695.9636, 151.7568
696.4457, 151.8618
696.9279, 151.9113
697.4100, 151.7733
697.8921, 151.3819
698.3742, 151.2613
698.8563, 151.4612
699.3384, 151.7781
699.8206, 152.0798
700.3027, 152.3519
700.7848, 152.5527
701.2669, 152.6854
701.7490, 152.6927
702.2311, 152.4525
702.7133, 152.0778
703.1954, 151.6833
703.6775, 151.1328
704.1596, 150.9211
704.6417, 151.5944
705.1238, 152.5925
705.6060, 153.1122
706.0881, 152.7616
706.5702, 152.5224
707.0523, 152.4925
707.5344, 152.6164
708.0165, 152.8663
708.4987, 153.2676
708.9808, 153.3484
709.4629, 152.7909
709.9450, 152.0513
710.4271, 152.1102
710.9092, 152.7695
711.3914, 153.2962
711.8735, 153.1496
712.3556, 152.8659
712.8377, 152.8114
713.3198, 152.9541
713.8019, 153.0993
714.2841, 153.2370
714.7662, 153.3235
715.2483, 153.3211
715.7304, 153.2351
716.2125, 153.2048
716.6946, 153.2328
717.1768, 153.3094
717.6589, 153.4492
718.1410, 153.6415
718.6231, 153.8203
719.1052, 153.9894
719.5873, 154.0619
720.0695, 153.8623
720.5516, 153.5786
721.0337, 153.4438
721.5158, 153.4931
721.9979, 153.6460
722.4800, 154.0005
722.9622, 154.3573
723.4443, 154.5490
723.9264, 154.4694
724.4085, 154.4174
724.8906, 154.3992
725.3727, 154.3995
725.8549, 154.3880
726.3370, 154.3581
726.8191, 154.4267
727.3012, 154.6282
727.7833, 154.8481
728.2654, 154.9043
728.7476, 154.8621
729.2297, 154.8915
729.7118, 155.1013
730.1939, 155.2659
730.6760, 155.1013
731.1581, 154.8261
731.6403, 154.7740
732.1224, 155.4396
732.6045, 155.8056
733.0866, 155.5234
733.5687, 154.9380
734.0508, 154.8260
734.5330, 155.3358
735.0151, 155.7011
735.4972, 155.6969
735.9793, 155.4595
736.4614, 155.2329
736.9435, 155.0296
737.4257, 154.9140
737.9078, 154.9032
738.3899, 155.0056
738.8720, 155.3257
739.3541, 155.7846
739.8362, 156.1011
740.3184, 155.9833
740.8005, 155.8926
741.2826, 156.0577
741.7647, 156.4370
742.2468, 156.6615
742.7289, 156.6427
743.2111, 156.6955
743.6932, 157.0835
744.1753, 157.6814
744.6574, 157.5956
745.1395, 156.8514
745.6216, 156.2962
746.1038, 156.6539
746.5859, 157.4708
747.0680, 158.3554
747.5501, 159.2624
748.0322, 159.7826
748.5143, 159.3730
748.9965, 158.8010
749.4786, 158.5486
749.9607, 158.7264
750.4428, 158.7786
750.9249, 158.6277
751.4070, 158.4821
751.8892, 158.4635
752.3713, 158.5723
752.8534, 158.8895
753.3355, 159.4441
753.8176, 159.9763
754.2997, 160.2133
754.7819, 160.2807
755.2640, 160.3510
755.7461, 160.4389
756.2282, 160.6085
756.7103, 161.0263
757.1924, 161.4630
757.6746, 161.6935
758.1567, 161.4285
758.6388, 161.5076
759.1209, 162.1224
759.6030, 162.8495
760.0851, 163.2533
760.5673, 163.3273
761.0494, 163.2632
761.5315, 163.0251
762.0136, 162.8869
762.4957, 163.2819
762.9778, 163.9887
763.4600, 164.5947
763.9421, 164.9571
764.4242, 165.2857
764.9063, 165.7693
765.3884, 166.2551
765.8705, 166.5511
766.3527, 166.3250
766.8348, 166.3737
767.3169, 166.8678
767.7990, 167.5301
768.2811, 167.8477
768.7632, 167.7861
769.2454, 168.1739
769.7275, 169.3040
770.2096, 170.6132
770.6917, 171.2396
771.1738, 171.4326
771.6559, 171.7527
772.1381, 172.4537
772.6202, 173.2498
773.1023, 174.0767
773.5844, 174.8730
774.0665, 175.5154
774.5486, 175.7401
775.0308, 176.1829
775.5129, 176.9669
775.9950, 177.9893
776.4771, 179.0312
776.9592, 180.1034
777.4413, 181.1688
777.9235, 182.2283
778.4056, 183.2764
778.8877, 184.2578
779.3698, 185.2195
779.8519, 186.2867
780.3340, 187.4477
780.8162, 188.7818
781.2983, 190.5859
781.7804, 192.5988
782.2625, 194.0837
782.7446, 194.5707
783.2267, 195.2218
783.7089, 196.2857
784.1910, 197.6521
784.6731, 199.0688
785.1552, 200.5396
785.6373, 201.9043
786.1194, 203.0111
786.6016, 204.0611
787.0837, 205.4032
787.5658, 206.9221
788.0479, 208.2935
788.5300, 208.9368
789.0121, 209.8051
789.4943, 211.5454
789.9764, 213.8880
790.4585, 215.7134
790.9406, 216.6878
791.4227, 217.7166
791.9048, 219.0114
792.3870, 220.5384
792.8691, 222.2585
793.3512, 224.1690
793.8333, 225.9972
794.3154, 227.4194
794.7975, 228.8661
795.2797, 230.9355
795.7618, 233.4873
796.2439, 235.9647
796.7260, 238.0848
797.2081, 240.1850
797.6902, 242.5283
798.1724, 244.9621
798.6545, 246.8305
799.1366, 247.8306
799.6187, 249.0551
800.1008, 250.9125
800.5829, 253.2112
801.0651, 255.4875
801.5472, 257.7079
802.0293, 259.7313
802.5114, 261.6233
802.9935, 263.1454
803.4756, 264.0786
803.9578, 264.4483
804.4399, 264.3265
804.9220, 263.6063
805.4041, 262.5099
805.8862, 261.0652
806.3683, 259.3142
806.8505, 257.4228
807.3326, 255.3877
807.8147, 253.1968
808.2968, 250.8316
808.7789, 248.2967
809.2610, 245.5014
809.7432, 242.5176
810.2253, 239.6358
810.7074, 237.0625
811.1895, 234.5942
811.6716, 232.0010
812.1537, 229.3712
812.6359, 227.0441
813.1180, 225.4417
813.6001, 223.6205
814.0822, 221.2565
814.5643, 218.5454
815.0464, 216.1691
815.5286, 214.1335
816.0107, 212.5125
816.4928, 211.4415
816.9749, 210.6992
817.4570, 210.0978
817.9391, 209.5608
818.4213, 208.8487
818.9034, 207.5141
819.3855, 206.3418
819.8676, 205.7917
820.3497, 205.6793
820.8318, 205.3273
821.3140, 204.5099
821.7961, 204.0037
822.2782, 204.0789
822.7603, 204.5057
823.2424, 204.7401
823.7245, 204.8100
824.2067, 204.8898
824.6888, 205.0359
825.1709, 205.2423
825.6530, 205.5243
826.1351, 205.8667
826.6172, 206.2232
827.0994, 206.3898
827.5815, 206.8332
828.0636, 207.7932
828.5457, 209.0125
829.0278, 209.9197
829.5099, 210.4342
829.9921, 211.1789
830.4742, 212.3478
830.9563, 213.7336
831.4384, 215.0170
831.9205, 216.2599
832.4026, 217.6181
832.8848, 219.0843
833.3669, 220.7935
833.8490, 222.9549
834.3311, 225.3674
834.8132, 227.6492
835.2953, 229.2912
835.7775, 231.7740
836.2596, 235.5374
836.7417, 239.7971
837.2238, 243.0958
837.7059, 245.6207
838.1880, 248.6876
838.6702, 252.6317
839.1523, 257.1505
839.6344, 261.9276
840.1165, 267.0971
840.5986, 272.7921
841.0807, 279.2287
841.5629, 285.9262
842.0450, 292.5079
842.5271, 299.4458
843.0092, 307.1944
843.4913, 315.7804
843.9734, 325.0495
844.4556, 335.0097
844.9377, 345.5721
845.4198, 356.7733
845.9019, 368.4380
846.3840, 380.3417
846.8661, 392.3326
847.3483, 405.0752
847.8304, 419.1740
848.3125, 434.0612
848.7946, 449.2843
849.2767, 464.5380
849.7589, 480.3694
850.2410, 496.5048
850.7231, 513.7380
851.2052, 533.0622
851.6873, 554.1151
852.1694, 575.5432
852.6516, 597.3205
853.1337, 619.9095
853.6158, 644.4032
854.0979, 669.6974
854.5800, 695.2267
855.0621, 720.9935
855.5443, 746.2098
856.0264, 771.0988
856.5085, 794.8030
856.9906, 817.1102
857.4727, 837.9591
857.9548, 855.3455
858.4370, 869.3982
858.9191, 879.1527
859.4012, 883.9824
859.8833, 884.2482
860.3654, 879.1444
860.8475, 869.2740
861.3297, 859.2068
861.8118, 856.5035
862.2939, 848.8734
862.7760, 826.5709
863.2581, 792.2848
863.7402, 764.0111
864.2224, 742.9307
864.7045, 724.4286
865.1866, 706.8325
865.6687, 690.2857
866.1508, 675.4911
866.6329, 662.3684
867.1151, 651.1553
867.5972, 642.9091
868.0793, 635.6569
868.5614, 628.6887
869.0435, 621.7688
869.5256, 614.3979
870.0078, 606.2125
870.4899, 598.2057
870.9720, 590.5018
871.4541, 583.0362
871.9362, 575.4766
872.4183, 567.8963
872.9005, 560.7742
873.3826, 554.0443
873.8647, 548.2940
874.3468, 544.3301
874.8289, 541.6376
875.3110, 539.4961
875.7932, 537.3301
876.2753, 536.3395
876.7574, 537.0740
877.2395, 538.5147
877.7216, 539.7047
878.2037, 540.6799
878.6859, 540.7391
879.1680, 539.8992
879.6501, 537.6047
880.1322, 533.0898
880.6143, 526.7863
881.0964, 519.2404
881.5786, 510.4803
882.0607, 500.8431
882.5428, 489.8380
883.0249, 478.4062
883.5070, 467.1332
883.9891, 455.7609
884.4713, 445.7213
884.9534, 437.1089
885.4355, 429.7614
885.9176, 423.7379
886.3997, 418.8392
886.8818, 414.7655
887.3640, 411.4774
887.8461, 409.0019
888.3282, 407.3427
888.8103, 406.5394
889.2924, 406.8447
889.7745, 408.1807
890.2567, 409.4972
890.7388, 410.4708
891.2209, 412.3864
891.7030, 415.8276
892.1851, 420.5601
892.6672, 426.0445
893.1494, 432.3656
893.6315, 439.7169
894.1136, 447.8695
894.5957, 457.5363
895.0778, 468.6559
895.5599, 481.6940
896.0421, 497.6237
896.5242, 517.1802
897.0063, 537.9859
897.4884, 559.1502
897.9705, 581.8695
898.4526, 607.7200
898.9348, 636.6582
899.4169, 668.4948
899.8990, 703.7612
900.3811, 741.0055
900.8632, 780.0291
901.3453, 820.2767
901.8275, 861.9091
902.3096, 903.9869
902.7917, 947.8029
903.2738, 993.5851
903.7559, 1041.398
904.2380, 1091.013
904.7202, 1142.922
905.2023, 1197.664
905.6844, 1254.557
906.1665, 1316.023
906.6486, 1382.893
907.1307, 1454.738
907.6129, 1533.324
908.0950, 1618.758
908.5771, 1703.589
909.0592, 1785.107
909.5413, 1868.471
910.0234, 1957.057
910.5056, 2049.457
910.9877, 2142.304
911.4698, 2234.589
911.9519, 2306.809
912.4340, 2343.817
912.9161, 2359.063
913.3983, 2372.162
913.8804, 2374.250
914.3625, 2340.100
914.8446, 2248.914
915.3267, 2135.199
915.8088, 1997.559
916.2910, 1847.051
916.7731, 1704.492
917.2552, 1569.260
917.7373, 1437.610
918.2194, 1306.517
918.7015, 1182.661
919.1837, 1071.881
919.6658, 973.4704
920.1479, 886.7714
920.6300, 812.7205
921.1121, 747.8477
921.5942, 691.2664
922.0764, 641.7132
922.5585, 598.8292
923.0406, 562.7101
923.5227, 530.5181
924.0048, 502.3847
924.4869, 477.5092
924.9691, 455.7272
925.4512, 436.1820
925.9333, 418.1128
926.4154, 401.3994
926.8975, 386.6926
927.3796, 375.2332
927.8618, 364.7220
928.3439, 354.2326
928.8260, 344.0143
929.3081, 335.3125
929.7902, 328.0719
930.2723, 321.2983
930.7545, 314.6828
931.2366, 308.2550
931.7187, 302.1788
932.2008, 296.3859
932.6829, 290.7557
933.1650, 285.3035
933.6472, 279.8631
934.1293, 274.3605
934.6114, 268.9533
935.0935, 264.0021
935.5756, 259.4650
936.0577, 254.9727
936.5399, 250.5225
937.0220, 246.1403
937.5041, 241.8007
937.9862, 237.6462
938.4683, 233.9316
938.9504, 230.7626
939.4326, 227.7215
939.9147, 224.7832
940.3968, 221.9796
940.8789, 219.3421
941.3610, 216.8636
941.8431, 214.2341
942.3253, 211.4474
942.8074, 208.9324
943.2895, 207.1295
943.7716, 205.6174
944.2537, 204.0800
944.7358, 202.5091
945.2180, 200.8839
945.7001, 199.0200
946.1822, 197.3754
946.6643, 196.1061
947.1464, 195.0050
947.6285, 193.5254
948.1107, 191.7515
948.5928, 190.4536
949.0749, 189.9863
949.5570, 189.5090
950.0391, 187.9808
950.5212, 186.1690
951.0034, 185.0242
951.4855, 185.2048
951.9676, 184.8178
952.4497, 183.5278
952.9318, 182.2105
953.4139, 181.6734
953.8961, 181.7400
954.3782, 181.3374
954.8603, 180.4720
955.3424, 179.5557
955.8245, 178.7223
956.3066, 178.0599
956.7888, 177.8222
957.2709, 177.8983
957.7530, 177.4214
958.2351, 176.0231
958.7172, 174.9040
959.1993, 174.4742
959.6815, 174.3856
960.1636, 173.8935
960.6457, 173.1093
961.1278, 172.3912
961.6099, 171.8785
962.0920, 171.4105
962.5742, 170.8972
963.0563, 170.3783
963.5384, 169.8801
964.0205, 169.2770
964.5026, 169.0930
964.9847, 169.4216
965.4669, 169.8519
965.9490, 170.1171
966.4311, 170.1750
966.9132, 169.8233
967.3953, 169.0943
967.8774, 168.5045
968.3596, 168.2719
968.8417, 168.2978
969.3238, 168.7032
969.8059, 169.3409
970.2880, 169.5530
970.7701, 169.3152
971.2523, 168.8416
971.7344, 168.1246
972.2165, 167.3362
972.6986, 166.5389
973.1807, 165.8768
973.6628, 165.6478
974.1450, 166.2829
974.6271, 166.7815
975.1092, 166.8902
975.5913, 166.8535
976.0734, 166.9463
976.5555, 167.1794
977.0377, 166.9345
977.5198, 166.1559
978.0019, 165.5259
978.4840, 165.7946
978.9661, 166.3535
979.4482, 166.6865
979.9304, 166.7497
980.4125, 166.4737
980.8946, 165.4919
981.3767, 164.7488
981.8588, 164.5421
982.3409, 164.7298
982.8231, 165.0900
983.3052, 165.5356
983.7873, 165.5578
984.2694, 164.6901
984.7515, 163.9006
985.2336, 164.0742
985.7158, 164.6335
986.1979, 164.7942
986.6800, 164.1829
987.1621, 163.9524
987.6442, 164.2102
988.1263, 164.5474
988.6085, 164.6149
989.0906, 163.4095
989.5727, 164.2441
990.0548, 164.6624
990.5369, 164.6867
991.0190, 163.1368
991.5012, 163.6196
991.9833, 163.2878
992.4654, 162.9226
992.9475, 163.6915
993.4296, 162.3705
993.9117, 163.1214
994.3939, 163.0453
994.8760, 163.3477
995.3581, 162.8304
995.8402, 162.5663
996.3223, 163.1221
996.8044, 163.2239
997.2866, 162.6123
997.7687, 162.8862
998.2508, 163.1062
998.7329, 162.9530
999.2150, 162.4529
999.6971, 162.1592
1000.179, 162.0818
1000.661, 162.2098
1001.143, 162.8252
1001.626, 163.3962
1002.108, 163.4629
1002.590, 163.1021
1003.072, 162.7451
1003.554, 162.2790
1004.036, 162.2289
1004.518, 162.8667
1005.000, 163.6644
1005.483, 163.6500
1005.965, 163.0667
1006.447, 162.5122
1006.929, 162.0791
1007.411, 161.8742
1007.893, 162.2430
1008.375, 162.6181
1008.857, 162.5599
1009.339, 162.0301
1009.822, 161.5601
1010.304, 161.1474
1010.786, 160.8357
1011.268, 160.8113
1011.750, 160.8025
1012.232, 160.3038
1012.714, 159.5226
1013.196, 159.0540
1013.679, 159.5809
1014.161, 159.7197
1014.643, 159.0913
1015.125, 158.2153
1015.607, 157.8206
1016.089, 157.8612
1016.571, 158.1423
1017.053, 158.6706
1017.535, 159.0403
1018.018, 158.7209
1018.500, 158.2906
1018.982, 158.2953
1019.464, 158.7795
1019.946, 158.8481
1020.428, 158.3807
1020.910, 157.9437
1021.392, 157.7700
1021.875, 157.7853
1022.357, 157.9461
1022.839, 158.1726
1023.321, 158.2767
1023.803, 158.1468
1024.285, 157.9368
1024.767, 157.4907
1025.249, 157.1386
1025.731, 157.2971
1026.214, 157.9742
1026.696, 158.2736
1027.178, 158.1443
1027.660, 158.0545
1028.142, 158.5040
1028.624, 159.0517
1029.106, 159.3135
1029.588, 159.2974
1030.071, 159.2727
1030.553, 159.3295
1031.035, 159.2088
1031.517, 158.7888
1031.999, 158.2594
1032.481, 157.8605
1032.963, 157.6320
1033.445, 157.7392
1033.927, 158.3570
1034.410, 158.8016
1034.892, 158.5167
1035.374, 158.1591
1035.856, 158.2318
1036.338, 158.7499
1036.820, 158.8811
1037.302, 158.6147
1037.784, 158.4278
1038.266, 158.8565
1038.749, 159.3008
1039.231, 158.9214
1039.713, 158.0999
1040.195, 157.7855
1040.677, 158.6251
1041.159, 159.1139
1041.641, 159.0540
1042.123, 158.7619
1042.605, 158.5641
1043.088, 158.4535
1043.570, 158.4259
1044.052, 158.4806
1044.534, 158.5701
1045.016, 158.6798
1045.498, 158.8083
1045.980, 158.9624
1046.462, 159.1343
1046.945, 159.3385
1047.427, 159.5862
1047.909, 159.5854
1048.391, 159.1810
1048.873, 158.6376
1049.355, 157.9275
1049.837, 157.3853
1050.319, 157.5247
1050.802, 158.9765
1051.284, 159.8420
1051.766, 159.9530
1052.248, 159.7881
1052.730, 159.4930
1053.212, 159.2151
1053.694, 159.6167
1054.176, 160.5252
1054.658, 161.1443
1055.141, 160.8518
1055.623, 160.4627
1056.105, 160.2643
1056.587, 160.1443
1057.069, 159.8967
1057.551, 159.5117
1058.033, 159.3244
1058.515, 159.3804
1058.998, 159.6000
1059.480, 160.1830
1059.962, 160.7008
1060.444, 160.6742
1060.926, 160.0569
1061.408, 159.5421
1061.890, 159.0918
1062.372, 158.9404
1062.854, 159.2713
1063.337, 159.7905
1063.819, 159.9371
1064.301, 159.8327
1064.783, 159.7420
1065.265, 159.7699
1065.747, 159.7468
1066.229, 159.5052
1066.711, 159.3082
1067.193, 159.3499
1067.676, 159.6146
1068.158, 159.8093
1068.640, 159.9381
1069.122, 160.0594
1069.604, 160.2507
1070.086, 160.4061
1070.568, 160.4067
1071.050, 160.3331
1071.532, 160.3873
1072.015, 160.6688
1072.497, 160.7150
1072.979, 160.4388
1073.461, 160.1120
1073.943, 160.0180
1074.425, 160.0596
1074.907, 160.1210
1075.389, 160.1892
1075.872, 160.2383
1076.354, 160.1625
1076.836, 160.2244
1077.318, 160.5659
1077.800, 161.0121
1078.282, 161.1021
1078.764, 160.9512
1079.246, 160.9771
1079.729, 161.2814
1080.211, 161.7992
1080.693, 163.0063
1081.175, 163.9678
1081.657, 163.8991
1082.139, 162.8035
1082.621, 161.8969
1083.103, 161.1685
1083.585, 160.9060
1084.068, 161.6522
1084.550, 162.5202
1085.032, 162.5325
1085.514, 162.0900
1085.996, 161.9219
1086.478, 162.3289
1086.960, 162.5254
1087.442, 162.4457
1087.925, 162.2864
1088.407, 162.1822
1088.889, 162.1487
1089.371, 162.3022
1089.853, 162.5930
1090.335, 162.6880
1090.817, 162.1665
1091.299, 161.8277
1091.781, 161.9046
1092.264, 162.2100
1092.746, 162.4252
1093.228, 162.5657
1093.710, 162.7302
1094.192, 162.9518
1094.674, 163.0301
1095.156, 162.6007
1095.638, 162.1906
1096.120, 162.2016
1096.603, 162.5660
1097.085, 162.8064
1097.567, 162.9155
1098.049, 163.0661
1098.531, 163.4067
1099.013, 163.6299
1099.495, 163.2755
1099.977, 162.6790
1100.459, 162.2476
1100.942, 162.0154
1101.424, 162.1273
1101.906, 162.7261
1102.388, 163.2074
1102.870, 163.0402
1103.352, 162.5706
1103.834, 162.5059
1104.316, 162.7067
1104.799, 162.7815
1105.281, 162.5641
1105.763, 162.2181
1106.245, 161.6243
1106.727, 161.1281
1107.209, 161.2790
1107.691, 161.8788
1108.173, 162.0771
1108.656, 161.8426
1109.138, 161.4746
1109.620, 160.8295
1110.102, 160.4375
1110.584, 160.6656
1111.066, 161.2544
1111.548, 161.6895
1112.030, 161.9761
1112.512, 162.3041
1112.995, 162.7453
1113.477, 162.9857
1113.959, 162.4801
1114.441, 161.8618
1114.923, 161.7619
1115.405, 162.1812
1115.887, 162.2797
1116.369, 162.0211
1116.852, 161.6131
1117.334, 161.0341
1117.816, 160.5385
1118.298, 160.4688
1118.780, 160.7015
1119.262, 161.1445
1119.744, 162.0706
1120.226, 162.1665
1120.708, 161.0105
1121.191, 159.9920
1121.673, 160.0307
1122.155, 160.7245
1122.637, 161.2723
1123.119, 161.6565
1123.601, 161.8270
1124.083, 161.5234
1124.565, 161.3439
1125.047, 161.4288
1125.530, 161.5954
1126.012, 161.6568
1126.494, 161.6468
1126.976, 161.7610
1127.458, 161.9951
1127.940, 162.2596
1128.422, 162.4875
1128.904, 162.7530
1129.386, 163.0877
1129.869, 163.4795
1130.351, 163.9411
1130.833, 164.4693
1131.315, 164.9021
1131.797, 165.2176
1132.279, 165.5068
1132.761, 165.6611
1133.243, 165.9741
1133.726, 166.7259
1134.208, 167.8461
1134.690, 168.9517
1135.172, 170.0101
1135.654, 171.3423
1136.136, 173.0568
1136.618, 175.0014
1137.100, 177.1742
1137.583, 179.3849
1138.065, 181.3750
1138.547, 183.0458
1139.029, 184.9490
1139.511, 187.1136
1139.993, 189.4807
1140.475, 192.1367
1140.957, 194.8039
1141.439, 196.7914
1141.922, 198.5762
1142.404, 201.0642
1142.886, 204.7335
1143.368, 208.3421
1143.850, 211.4776
1144.332, 215.0509
1144.814, 219.6648
1145.296, 225.0283
1145.779, 230.5828
1146.261, 236.2845
1146.743, 242.1752
1147.225, 249.1100
1147.707, 254.9619
1148.189, 259.9194
1148.671, 263.3400
1149.153, 265.0101
1149.635, 264.7078
1150.118, 260.9409
1150.600, 253.8931
1151.082, 245.2311
1151.564, 234.4271
1152.046, 223.7532
1152.528, 213.5955
1153.010, 204.4206
1153.492, 197.0630
1153.974, 191.4427
1154.457, 186.2826
1154.939, 181.5466
1155.421, 177.7336
1155.903, 175.6063
1156.385, 174.0946
1156.867, 172.7343
1157.349, 171.4826
1157.831, 170.3039
1158.313, 169.1917
1158.796, 168.2838
1159.278, 167.6271
1159.760, 166.9151
1160.242, 165.6081
1160.724, 164.3672
1161.206, 163.8660
1161.688, 163.9963
1162.170, 163.8152
1162.653, 163.2817
1163.135, 162.8859
1163.617, 162.7964
1164.099, 162.7798
1164.581, 162.5513
1165.063, 162.2885
1165.545, 162.2050
1166.027, 162.3423
1166.510, 162.4178
1166.992, 162.4420
1167.474, 162.3300
1167.956, 161.9806
1168.438, 161.5962
1168.920, 161.5260
1169.402, 161.5500
1169.884, 161.3114
1170.366, 160.5744
1170.849, 160.1885
1171.331, 160.2460
1171.813, 160.3396
1172.295, 160.2753
1172.777, 160.0740
1173.259, 159.5946
1173.741, 159.0411
1174.223, 158.8361
1174.706, 159.5176
1175.188, 159.7565
1175.670, 159.3849
1176.152, 158.9737
1176.634, 158.9935
1177.116, 159.2484
1177.598, 159.4819
1178.080, 159.6154
1178.563, 159.4346
1179.045, 158.4204
1179.527, 157.7798
1180.009, 157.7011
1180.491, 157.7984
1180.973, 157.7017
1181.455, 157.4978
1181.937, 157.3330
1182.419, 157.2386
1182.901, 157.3176
1183.384, 158.0371
1183.866, 158.2796
1184.348, 157.6767
1184.830, 156.8898
1185.312, 156.8423
1185.794, 157.2502
1186.276, 157.3554
1186.758, 157.1235
1187.240, 156.8648
1187.723, 156.5238
1188.205, 156.4531
1188.687, 156.8452
1189.169, 157.3792
1189.651, 157.4633
1190.133, 157.2543
1190.615, 157.3083
1191.097, 157.6970
1191.580, 157.8741
1192.062, 157.3494
1192.544, 156.8736
1193.026, 156.7082
1193.508, 156.7264
1193.990, 156.6467
1194.472, 156.5135
1194.954, 156.5105
1195.437, 156.6941
1195.919, 156.8073
1196.401, 156.6675
1196.883, 156.5019
1197.365, 156.3443
1197.847, 156.2723
1198.329, 156.6482
1198.811, 157.3224
1199.293, 157.7158
1199.776, 157.6651
1200.258, 157.4268
1200.740, 156.8632
1201.222, 156.4184
1201.704, 156.3665
1202.186, 156.5833
1202.668, 156.5560
1203.150, 156.3539
1203.633, 156.2724
1204.115, 156.4603
1204.597, 156.6190
1205.079, 156.6187
1205.561, 156.5338
1206.043, 156.3733
1206.525, 156.1694
1207.007, 156.1051
1207.490, 156.1575
1207.972, 156.2214
1208.454, 156.2620
1208.936, 156.2938
1209.418, 156.3270
1209.900, 156.3453
1210.382, 156.3431
1210.864, 156.3154
1211.346, 156.2046
1211.828, 156.0320
1212.311, 155.9094
1212.793, 155.9095
1213.275, 155.9303
1213.757, 155.8291
1214.239, 155.8433
1214.721, 156.2814
1215.203, 157.0390
1215.685, 157.2776
1216.167, 157.0610
1216.650, 156.7397
1217.132, 156.2737
1217.614, 156.0206
1218.096, 156.2955
1218.578, 156.6110
1219.060, 156.4913
1219.542, 156.0127
1220.024, 155.5918
1220.507, 155.2782
1220.989, 155.2816
1221.471, 156.2388
1221.953, 156.8092
1222.435, 156.3914
1222.917, 155.7142
1223.399, 155.5156
1223.881, 155.7073
1224.364, 155.8672
1224.846, 155.9913
1225.328, 156.1507
1225.810, 156.6030
1226.292, 156.7627
1226.774, 156.3335
1227.256, 155.7964
1227.738, 155.7539
1228.220, 156.0784
1228.703, 156.2869
1229.185, 156.3845
1229.667, 156.6002
1230.149, 157.4128
1230.631, 157.7935
1231.113, 157.3247
1231.595, 156.6607
1232.077, 156.6454
1232.560, 157.1048
1233.042, 157.5933
1233.524, 158.0794
1234.006, 158.6035
1234.488, 159.3268
1234.970, 159.8630
1235.452, 160.1008
1235.934, 160.1941
1236.417, 160.2727
1236.899, 160.3857
1237.381, 160.6658
1237.863, 161.1089
1238.345, 161.5791
1238.827, 161.9697
1239.309, 162.5242
1239.791, 163.3953
1240.273, 164.2199
1240.755, 164.6113
1241.238, 164.5791
1241.720, 163.9396
1242.202, 162.7583
1242.684, 161.9348
1243.166, 161.6784
1243.648, 161.7144
1244.130, 162.0608
1244.612, 162.4925
1245.094, 162.6092
1245.577, 162.6793
1246.059, 163.2339
1246.541, 164.2642
1247.023, 164.8953
1247.505, 165.0934
1247.987, 164.8183
1248.469, 164.0341
1248.951, 162.8734
1249.434, 161.1191
1249.916, 159.3705
1250.398, 158.4419
1250.880, 158.3637
1251.362, 158.1088
1251.844, 157.6098
1252.326, 157.0562
1252.808, 156.4587
1253.291, 155.9633
1253.773, 155.8508
1254.255, 155.8196
1254.737, 155.4724
1255.219, 154.8609
1255.701, 154.7060
1256.183, 155.0786
1256.665, 155.2238
1257.147, 154.8974
1257.630, 154.7202
1258.112, 154.6788
1258.594, 154.7611
1259.076, 155.6548
1259.558, 156.1321
1260.040, 156.2154
1260.522, 154.7245
1261.004, 155.2663
1261.487, 154.9934
1261.969, 155.0955
1262.451, 154.8595
1262.933, 154.5874
1263.415, 154.2927
1263.897, 154.0385
1264.379, 154.0828
1264.861, 154.3885
1265.344, 154.7430
1265.826, 155.1323
1266.308, 155.2815
1266.790, 154.6517
1267.272, 154.1853
1267.754, 154.4710
1268.236, 155.1154
1268.718, 154.9716
1269.200, 154.2858
1269.682, 153.9661
1270.165, 154.2124
1270.647, 154.5450
1271.129, 154.9573
1271.611, 155.1604
1272.093, 155.0128
1272.575, 154.6717
1273.057, 154.3707
1273.539, 154.1405
1274.021, 154.0809
1274.504, 154.2217
1274.986, 154.3443
1275.468, 154.4243
1275.950, 154.4585
1276.432, 154.4702
1276.914, 154.3835
1277.396, 153.8229
1277.878, 153.2121
1278.361, 153.2952
1278.843, 154.2092
1279.325, 154.8726
1279.807, 155.2108
1280.289, 155.3443
1280.771, 155.2708
1281.253, 155.1272
1281.735, 154.9761
1282.218, 154.9151
1282.700, 155.1305
1283.182, 155.5999
1283.664, 155.8042
1284.146, 155.7212
1284.628, 155.6067
1285.110, 155.5170
1285.592, 155.4285
1286.074, 155.2790
1286.557, 155.1545
1287.039, 155.1791
1287.521, 155.2784
1288.003, 155.0699
1288.485, 154.6053
1288.967, 154.6047
1289.449, 155.2960
1289.931, 155.8317
1290.414, 155.4226
1290.896, 155.0207
1291.378, 155.0959
1291.860, 155.4958
1292.342, 156.0331
1292.824, 156.5606
1293.306, 156.4292
1293.788, 155.4740
1294.271, 154.8072
1294.753, 155.1746
1295.235, 155.5034
1295.717, 155.4967
1296.199, 155.3403
1296.681, 155.2575
1297.163, 155.2926
1297.645, 155.6973
1298.127, 156.4969
1298.609, 156.5794
1299.092, 155.3857
1299.574, 154.7859
1300.056, 155.3433
1300.538, 156.1885
1301.020, 156.3792
1301.502, 156.1955
1301.984, 155.8592
1302.466, 155.4256
1302.948, 155.2110
1303.431, 155.2638
1303.913, 155.2242
1304.395, 155.0525
##END=



