##NAMES=Vuagnatite
##RRUFFID=R050397
##IDEAL CHEMISTRY=CaAlSiO_4_(OH)
##LOCALITY=Red Mountain, Mendocino County, California, USA
##OWNER=RRUFF
##SOURCE=Marcus Origlieri
##DESCRIPTION=Colorless prismatic crystals
##STATUS=The identification of this mineral has been confirmed by X-ray diffraction and chemical analysis
##URL=rruff.info/R050397
##MEASURED CHEMISTRY=Ca_1.00_Al_1.00_(Si_1.00_O_4_)(OH)
92.52344, 92.14717
93.00555, 93.53996
93.48767, 93.49323
93.96979, 92.58908
94.45190, 91.87071
94.93402, 91.09468
95.41614, 89.24234
95.89825, 86.89722
96.38037, 84.86288
96.86249, 83.03468
97.34460, 81.14661
97.82672, 79.15093
98.30884, 77.31869
98.79095, 75.74882
99.27307, 74.27175
99.75519, 72.71509
100.2373, 71.22706
100.7194, 69.84021
101.2015, 68.44948
101.6837, 66.96341
102.1658, 65.50114
102.6479, 64.04410
103.1300, 62.54795
103.6121, 61.36010
104.0942, 60.97129
104.5764, 61.04191
105.0585, 61.12035
105.5406, 61.15121
106.0227, 61.07752
106.5048, 60.68550
106.9869, 59.73452
107.4691, 58.74992
107.9512, 58.02032
108.4333, 57.46821
108.9154, 56.89347
109.3975, 56.03114
109.8796, 54.76422
110.3618, 53.96506
110.8439, 54.13208
111.3260, 54.34183
111.8081, 54.15635
112.2902, 53.54653
112.7723, 52.79000
113.2544, 52.26825
113.7366, 52.05791
114.2187, 51.99165
114.7008, 52.14570
115.1829, 52.39024
115.6650, 52.61280
116.1471, 52.77378
116.6293, 52.90138
117.1114, 53.08135
117.5935, 53.47164
118.0756, 53.63083
118.5577, 53.17070
119.0398, 52.37440
119.5220, 51.96349
120.0041, 52.40569
120.4862, 53.32713
120.9683, 53.84151
121.4504, 53.80651
121.9325, 53.61763
122.4147, 53.57557
122.8968, 53.69201
123.3789, 53.80936
123.8610, 53.85036
124.3431, 53.84925
124.8252, 53.83099
125.3074, 53.79973
125.7895, 53.75927
126.2716, 53.71999
126.7537, 53.69330
127.2358, 53.64494
127.7179, 53.48661
128.2001, 53.31893
128.6822, 53.29186
129.1643, 53.52847
129.6464, 53.99730
130.1285, 54.28050
130.6107, 54.09406
131.0928, 53.98403
131.5749, 54.13062
132.0570, 54.46826
132.5391, 54.81714
133.0212, 55.00445
133.5034, 54.98192
133.9855, 55.15897
134.4676, 55.63987
134.9497, 56.19080
135.4318, 56.63741
135.9139, 56.98021
136.3960, 57.39309
136.8782, 58.06525
137.3603, 59.03627
137.8424, 60.18629
138.3245, 61.99870
138.8066, 63.79800
139.2887, 64.78799
139.7709, 64.77364
140.2530, 64.01173
140.7351, 62.51865
141.2172, 60.37892
141.6993, 58.37743
142.1814, 56.82946
142.6636, 55.69415
143.1457, 54.82903
143.6278, 54.30605
144.1099, 53.97345
144.5920, 53.65298
145.0741, 53.34636
145.5563, 53.14746
146.0384, 53.18456
146.5205, 53.48975
147.0026, 53.75481
147.4847, 53.87205
147.9668, 53.96938
148.4490, 54.10024
148.9311, 54.27945
149.4132, 54.51289
149.8953, 54.83638
150.3774, 55.37778
150.8595, 55.73672
151.3417, 55.69677
151.8238, 55.59797
152.3059, 55.72161
152.7880, 56.16914
153.2701, 56.83287
153.7522, 57.43690
154.2344, 57.94726
154.7165, 58.42123
155.1986, 58.79425
155.6807, 59.14993
156.1628, 59.60103
156.6449, 60.20705
157.1271, 60.93056
157.6092, 61.62140
158.0913, 62.28542
158.5734, 62.92420
159.0555, 63.41610
159.5376, 63.86202
160.0198, 64.55756
160.5019, 65.74049
160.9840, 67.26495
161.4661, 68.52925
161.9482, 69.31288
162.4303, 70.08044
162.9125, 71.15017
163.3946, 72.51142
163.8767, 73.94334
164.3588, 75.41575
164.8409, 76.83352
165.3230, 78.07707
165.8052, 79.22959
166.2873, 80.09699
166.7694, 80.39015
167.2515, 80.05257
167.7336, 79.31249
168.2157, 78.02502
168.6979, 76.49385
169.1800, 75.00570
169.6621, 73.56994
170.1442, 72.33750
170.6263, 71.79362
171.1084, 72.40739
171.5906, 73.00224
172.0727, 73.05797
172.5548, 72.88306
173.0369, 72.91580
173.5190, 73.43920
174.0011, 74.40118
174.4833, 75.35795
174.9654, 75.95065
175.4475, 76.93497
175.9296, 78.50298
176.4117, 80.57972
176.8938, 83.05793
177.3760, 85.89892
177.8581, 89.11742
178.3402, 92.12386
178.8223, 96.06864
179.3044, 98.74804
179.7865, 99.17995
180.2687, 97.59036
180.7508, 94.68464
181.2329, 90.88892
181.7150, 86.06175
182.1971, 82.13098
182.6792, 79.22063
183.1614, 76.94381
183.6435, 75.27316
184.1256, 74.13743
184.6077, 73.17844
185.0898, 72.09975
185.5719, 70.89152
186.0541, 69.71416
186.5362, 68.51408
187.0183, 67.37979
187.5004, 66.37788
187.9825, 65.50967
188.4646, 64.81260
188.9468, 64.39908
189.4289, 64.21195
189.9110, 64.02992
190.3931, 63.61281
190.8752, 63.23035
191.3573, 63.36060
191.8395, 64.16302
192.3216, 65.13442
192.8037, 66.11167
193.2858, 66.98727
193.7679, 67.43561
194.2500, 67.05563
194.7322, 66.10805
195.2143, 65.39414
195.6964, 64.87032
196.1785, 64.72741
196.6606, 65.05456
197.1427, 65.76610
197.6249, 66.69294
198.1070, 67.92018
198.5891, 69.36837
199.0712, 70.23228
199.5533, 70.37413
200.0354, 69.98147
200.5176, 68.97791
200.9997, 67.51517
201.4818, 65.88294
201.9639, 64.29064
202.4460, 62.73838
202.9281, 61.20522
203.4103, 59.26398
203.8924, 57.76283
204.3745, 57.13058
204.8566, 57.19653
205.3387, 57.52085
205.8208, 57.72409
206.3030, 57.78008
206.7851, 57.97597
207.2672, 58.46085
207.7493, 58.93131
208.2314, 59.19875
208.7135, 59.32094
209.1957, 59.51189
209.6778, 59.97655
210.1599, 60.75840
210.6420, 61.48456
211.1241, 62.17945
211.6062, 62.80835
212.0884, 63.19515
212.5705, 63.42770
213.0526, 63.91048
213.5347, 65.08903
214.0168, 67.07895
214.4989, 68.55893
214.9811, 69.04868
215.4632, 69.45100
215.9453, 70.26511
216.4274, 71.54715
216.9095, 73.24671
217.3916, 75.46265
217.8737, 78.20264
218.3559, 80.51640
218.8380, 82.79223
219.3201, 84.39895
219.8022, 84.77458
220.2843, 83.87846
220.7664, 82.05803
221.2486, 79.22176
221.7307, 75.57342
222.2128, 72.14014
222.6949, 68.91236
223.1770, 66.03730
223.6591, 63.68604
224.1413, 61.86282
224.6234, 60.53328
225.1055, 59.95750
225.5876, 59.86108
226.0697, 59.79330
226.5518, 59.64872
227.0340, 59.46498
227.5161, 59.31810
227.9982, 59.23906
228.4803, 59.08522
228.9624, 58.75869
229.4445, 58.31438
229.9267, 57.78517
230.4088, 57.11674
230.8909, 56.42884
231.3730, 55.97490
231.8551, 55.82821
232.3372, 55.73872
232.8194, 55.61074
233.3015, 55.47110
233.7836, 55.35506
234.2657, 55.28559
234.7478, 55.23493
235.2299, 55.11394
235.7121, 54.81362
236.1942, 54.67439
236.6763, 54.95604
237.1584, 55.36031
237.6405, 55.54531
238.1227, 55.34187
238.6048, 54.92506
239.0869, 54.73779
239.5690, 54.85925
240.0511, 55.09631
240.5332, 55.49841
241.0154, 55.93814
241.4975, 56.27551
241.9796, 56.44965
242.4617, 56.52716
242.9438, 56.67014
243.4259, 56.90893
243.9081, 57.17473
244.3902, 57.41085
244.8723, 57.68769
245.3544, 58.07096
245.8365, 58.58794
246.3186, 59.21443
246.8008, 59.90885
247.2829, 60.74989
247.7650, 61.54236
248.2471, 62.45057
248.7292, 63.22582
249.2113, 63.69416
249.6935, 63.78419
250.1756, 63.45620
250.6577, 62.60339
251.1398, 60.62019
251.6219, 58.97579
252.1040, 57.74244
252.5862, 56.80091
253.0683, 56.10086
253.5504, 55.61714
254.0325, 55.25918
254.5146, 54.87709
254.9967, 54.38816
255.4789, 54.05211
255.9610, 53.95184
256.4431, 53.95559
256.9252, 53.98800
257.4073, 54.02229
257.8894, 53.99523
258.3716, 53.78669
258.8537, 53.20526
259.3358, 53.00875
259.8179, 53.53462
260.3000, 54.24251
260.7821, 54.68323
261.2643, 54.77686
261.7464, 54.67620
262.2285, 54.48738
262.7106, 54.14709
263.1927, 54.15873
263.6748, 54.81997
264.1570, 55.65163
264.6391, 56.20888
265.1212, 56.45594
265.6033, 56.72060
266.0854, 57.33480
266.5675, 58.31914
267.0497, 59.16427
267.5318, 59.67999
268.0139, 60.17334
268.4960, 60.90821
268.9781, 61.89049
269.4602, 62.94804
269.9424, 64.04223
270.4245, 65.10239
270.9066, 65.81904
271.3887, 66.10692
271.8708, 66.10844
272.3529, 65.85684
272.8351, 65.37085
273.3172, 64.81994
273.7993, 64.25651
274.2814, 63.71841
274.7635, 63.27335
275.2456, 62.76703
275.7278, 62.53047
276.2099, 62.89113
276.6920, 63.79517
277.1741, 64.81697
277.6562, 65.81116
278.1383, 66.76530
278.6205, 67.63673
279.1026, 68.36438
279.5847, 69.15874
280.0668, 70.20511
280.5489, 71.46763
281.0310, 72.73490
281.5132, 74.03450
281.9953, 75.18240
282.4774, 75.93684
282.9595, 76.25252
283.4416, 76.45846
283.9237, 76.77808
284.4059, 77.15984
284.8880, 77.42113
285.3701, 77.61718
285.8522, 77.50893
286.3343, 76.91615
286.8164, 75.85865
287.2986, 74.43725
287.7807, 72.55379
288.2628, 70.32494
288.7449, 68.10623
289.2270, 65.83501
289.7091, 63.78393
290.1913, 62.16376
290.6734, 60.91534
291.1555, 59.83123
291.6376, 58.78373
292.1197, 57.84297
292.6018, 57.18998
293.0840, 56.90459
293.5661, 56.75651
294.0482, 56.60822
294.5303, 56.48010
295.0124, 56.41084
295.4945, 56.36286
295.9767, 56.41201
296.4588, 56.73228
296.9409, 57.39024
297.4230, 58.09363
297.9051, 58.68258
298.3872, 59.23708
298.8694, 59.89716
299.3515, 60.81365
299.8336, 61.65829
300.3157, 61.98311
300.7978, 61.73827
301.2799, 61.27415
301.7621, 60.50838
302.2442, 59.68684
302.7263, 59.03704
303.2084, 58.61486
303.6905, 58.26960
304.1726, 57.78368
304.6548, 57.14291
305.1369, 56.73623
305.6190, 56.71650
306.1011, 56.94089
306.5832, 57.33523
307.0653, 57.88800
307.5475, 58.49929
308.0296, 59.15845
308.5117, 59.84718
308.9938, 60.34975
309.4759, 60.59282
309.9580, 60.67468
310.4402, 60.62236
310.9223, 60.46983
311.4044, 60.33583
311.8865, 60.40102
312.3686, 60.57225
312.8507, 60.39193
313.3329, 59.63042
313.8150, 58.90028
314.2971, 58.55907
314.7792, 58.46881
315.2613, 58.36163
315.7434, 58.01277
316.2256, 57.63871
316.7077, 57.77380
317.1898, 58.61028
317.6719, 59.42800
318.1540, 59.75379
318.6361, 59.95092
319.1183, 60.41907
319.6004, 61.30221
320.0825, 62.42730
320.5646, 63.55755
321.0467, 64.67059
321.5288, 65.93309
322.0110, 67.50805
322.4931, 69.19590
322.9752, 70.83664
323.4573, 72.39830
323.9394, 73.97262
324.4215, 75.66673
324.9037, 77.46772
325.3858, 79.27233
325.8679, 81.40568
326.3500, 83.13306
326.8321, 84.09005
327.3142, 84.26669
327.7964, 83.68417
328.2785, 82.11281
328.7606, 79.72054
329.2427, 77.29807
329.7248, 74.88611
330.2069, 72.44705
330.6891, 69.82375
331.1712, 67.15863
331.6533, 64.74776
332.1354, 62.70921
332.6175, 61.01540
333.0996, 59.62373
333.5818, 58.54073
334.0639, 57.72277
334.5460, 57.18023
335.0281, 56.88305
335.5102, 56.86986
335.9923, 57.21387
336.4745, 57.69751
336.9566, 58.05488
337.4387, 58.27223
337.9208, 58.56866
338.4029, 58.99760
338.8850, 59.56336
339.3671, 60.31423
339.8492, 61.27324
340.3314, 62.19030
340.8135, 62.89217
341.2956, 63.39707
341.7777, 63.81556
342.2598, 64.30145
342.7419, 64.48244
343.2241, 63.91392
343.7062, 62.73476
344.1883, 61.64178
344.6704, 61.10638
345.1525, 60.86439
345.6346, 60.29278
346.1168, 59.26042
346.5989, 58.22336
347.0810, 57.43296
347.5631, 56.87498
348.0452, 56.58503
348.5273, 56.65158
349.0095, 56.91899
349.4916, 57.25420
349.9737, 57.65767
350.4558, 58.04837
350.9379, 58.35982
351.4200, 58.65315
351.9022, 59.00982
352.3843, 59.41929
352.8664, 59.92890
353.3485, 60.56974
353.8306, 61.33565
354.3127, 62.18710
354.7949, 63.08490
355.2770, 64.12560
355.7591, 65.43501
356.2412, 66.99150
356.7233, 68.73927
357.2054, 71.11990
357.6876, 73.53451
358.1697, 75.06045
358.6518, 75.56813
359.1339, 75.27785
359.6160, 74.26888
360.0981, 72.55972
360.5803, 70.32752
361.0624, 67.08514
361.5445, 63.71003
362.0266, 60.80726
362.5087, 58.39001
362.9908, 56.50293
363.4730, 55.26548
363.9551, 54.54818
364.4372, 53.85370
364.9193, 53.05962
365.4014, 52.48259
365.8835, 52.32909
366.3657, 52.47929
366.8478, 52.72654
367.3299, 53.02371
367.8120, 53.30689
368.2941, 53.44250
368.7762, 53.36679
369.2584, 53.43146
369.7405, 53.75720
370.2226, 54.20160
370.7047, 54.61516
371.1868, 54.98549
371.6689, 55.41158
372.1511, 56.00154
372.6332, 56.76618
373.1153, 57.45699
373.5974, 57.91313
374.0795, 58.46508
374.5616, 59.37580
375.0438, 60.51854
375.5259, 61.54210
376.0080, 62.22215
376.4901, 62.70837
376.9722, 63.53510
377.4543, 65.07635
377.9365, 66.46633
378.4186, 67.43935
378.9007, 68.29926
379.3828, 69.39747
379.8649, 70.82378
380.3470, 72.37793
380.8292, 73.76550
381.3113, 74.86977
381.7934, 76.18505
382.2755, 77.91858
382.7576, 79.65639
383.2397, 81.02537
383.7219, 82.15089
384.2040, 83.47314
384.6861, 85.35275
385.1682, 87.75529
385.6503, 90.08031
386.1324, 92.32138
386.6146, 94.47734
387.0967, 96.77389
387.5788, 98.88988
388.0609, 100.4235
388.5430, 101.1975
389.0251, 101.3886
389.5073, 101.3732
389.9894, 101.3186
390.4715, 100.6491
390.9536, 98.80850
391.4357, 96.84506
391.9178, 95.32430
392.4000, 94.34713
392.8821, 93.77882
393.3642, 93.56224
393.8463, 93.70896
394.3284, 93.81077
394.8105, 93.96811
395.2927, 93.94675
395.7748, 93.72915
396.2569, 93.27917
396.7390, 92.52586
397.2211, 91.40685
397.7032, 90.02111
398.1854, 88.57462
398.6675, 87.03590
399.1496, 85.51738
399.6317, 84.01988
400.1138, 82.56403
400.5959, 81.17440
401.0781, 79.85715
401.5602, 78.59508
402.0423, 77.45069
402.5244, 76.40147
403.0065, 75.13764
403.4886, 73.49742
403.9708, 71.82493
404.4529, 70.41482
404.9350, 69.17558
405.4171, 67.83422
405.8992, 66.29780
406.3813, 64.58760
406.8635, 62.57631
407.3456, 60.19145
407.8277, 58.16521
408.3098, 57.03563
408.7919, 56.40357
409.2740, 55.55504
409.7562, 54.34136
410.2383, 53.19073
410.7204, 52.34049
411.2025, 51.75132
411.6846, 51.31921
412.1667, 51.04255
412.6489, 50.84143
413.1310, 50.63630
413.6131, 50.42704
414.0952, 50.19514
414.5773, 49.72167
415.0594, 49.36922
415.5416, 49.62062
416.0237, 50.41996
416.5058, 51.14335
416.9879, 51.36934
417.4700, 51.18470
417.9521, 51.07502
418.4343, 51.00344
418.9164, 51.03374
419.3985, 51.16947
419.8806, 51.42199
420.3627, 51.85084
420.8448, 52.47333
421.3270, 53.14494
421.8091, 53.63552
422.2912, 53.80996
422.7733, 54.19646
423.2554, 54.91687
423.7375, 55.72221
424.2197, 56.49806
424.7018, 57.22564
425.1839, 57.89029
425.6660, 58.46189
426.1481, 58.97711
426.6302, 59.72148
427.1124, 61.08410
427.5945, 62.18864
428.0766, 62.82225
428.5587, 63.20516
429.0408, 63.51680
429.5229, 63.82600
430.0051, 64.19221
430.4872, 64.74417
430.9693, 65.56490
431.4514, 66.21391
431.9335, 66.49036
432.4156, 66.76048
432.8978, 67.22968
433.3799, 67.81645
433.8620, 68.31315
434.3441, 68.61239
434.8262, 68.71278
435.3083, 68.58459
435.7905, 68.17791
436.2726, 67.67950
436.7547, 67.10857
437.2368, 66.49712
437.7189, 65.84859
438.2010, 65.15733
438.6832, 64.51419
439.1653, 64.05820
439.6474, 63.74104
440.1295, 63.28226
440.6116, 62.60199
441.0938, 61.84636
441.5759, 61.16089
442.0580, 60.51167
442.5401, 59.77765
443.0222, 58.82944
443.5043, 57.85125
443.9865, 57.05737
444.4686, 56.42787
444.9507, 55.75381
445.4328, 54.94898
445.9149, 54.02610
446.3970, 52.99965
446.8792, 51.82542
447.3613, 50.70028
447.8434, 49.42832
448.3255, 48.34986
448.8076, 47.88956
449.2897, 47.82564
449.7719, 47.65265
450.2540, 47.37658
450.7361, 46.68839
451.2182, 46.53236
451.7003, 46.16307
452.1824, 45.78502
452.6646, 45.70380
453.1467, 45.07557
453.6288, 44.98970
454.1109, 44.68734
454.5930, 44.48407
455.0751, 44.38601
455.5573, 44.61290
456.0394, 44.71484
456.5215, 44.63422
457.0036, 44.49950
457.4857, 44.35740
457.9678, 44.22738
458.4500, 44.12976
458.9321, 44.08376
459.4142, 44.08223
459.8963, 44.08249
460.3784, 44.08062
460.8605, 44.08816
461.3427, 44.10634
461.8248, 44.13505
462.3069, 44.16441
462.7890, 44.19225
463.2711, 44.25603
463.7532, 44.40741
464.2354, 44.64126
464.7175, 44.88807
465.1996, 45.20310
465.6817, 45.42509
466.1638, 45.38949
466.6459, 45.17856
467.1281, 44.99206
467.6102, 44.88676
468.0923, 44.84236
468.5744, 44.84476
469.0565, 44.89236
469.5386, 44.98779
470.0208, 45.17802
470.5029, 45.35724
470.9850, 45.31352
471.4671, 45.01973
471.9492, 44.72682
472.4313, 44.42162
472.9135, 44.19146
473.3956, 44.16674
473.8777, 44.34066
474.3598, 44.56566
474.8419, 44.74687
475.3240, 44.87939
475.8062, 44.90467
476.2883, 44.68452
476.7704, 44.54287
477.2525, 44.57573
477.7346, 44.70902
478.2167, 44.89954
478.6989, 45.11843
479.1810, 45.26146
479.6631, 45.15124
480.1452, 44.68088
480.6273, 44.51360
481.1094, 44.98297
481.5916, 45.41604
482.0737, 45.50940
482.5558, 45.43055
483.0379, 45.52031
483.5200, 45.96666
484.0021, 46.53718
484.4843, 46.72862
484.9664, 46.41596
485.4485, 46.30594
485.9306, 46.67036
486.4127, 47.17100
486.8948, 47.63188
487.3770, 48.03821
487.8591, 48.37725
488.3412, 48.55952
488.8233, 48.69385
489.3054, 49.00240
489.7875, 49.49614
490.2697, 50.05806
490.7518, 50.67225
491.2339, 51.29132
491.7160, 51.80644
492.1981, 52.13621
492.6802, 52.59187
493.1624, 53.38477
493.6445, 54.35110
494.1266, 55.25994
494.6087, 56.07431
495.0908, 56.83051
495.5729, 57.55804
496.0551, 58.25554
496.5372, 58.96227
497.0193, 59.56282
497.5014, 60.30054
497.9835, 61.28725
498.4656, 62.44604
498.9478, 63.64318
499.4299, 64.84166
499.9120, 66.16161
500.3941, 67.78870
500.8762, 69.82403
501.3583, 71.81042
501.8405, 73.82676
502.3226, 75.70749
502.8047, 77.53515
503.2868, 79.15695
503.7689, 80.34563
504.2510, 81.03710
504.7331, 81.08584
505.2152, 80.17384
505.6974, 78.22594
506.1795, 75.75834
506.6616, 72.58830
507.1437, 69.18059
507.6258, 65.69010
508.1079, 62.19106
508.5901, 59.15992
509.0722, 56.94529
509.5543, 55.26834
510.0364, 53.73850
510.5185, 52.35470
511.0006, 51.15583
511.4828, 50.19904
511.9649, 49.41439
512.4470, 48.63684
512.9291, 47.80294
513.4113, 47.16601
513.8934, 46.92709
514.3755, 46.83924
514.8576, 46.66438
515.3397, 46.37748
515.8218, 46.04175
516.3040, 45.68201
516.7861, 45.32276
517.2682, 45.14668
517.7503, 45.46788
518.2324, 45.57866
518.7145, 45.14865
519.1967, 44.63991
519.6788, 44.55769
520.1609, 44.94057
520.6430, 45.36238
521.1251, 45.30544
521.6072, 44.79856
522.0894, 44.55544
522.5715, 44.81721
523.0536, 44.97000
523.5357, 45.01964
524.0178, 44.65723
524.4999, 44.82690
524.9821, 44.78335
525.4642, 45.20834
525.9463, 45.39467
526.4284, 45.54629
526.9105, 45.48055
527.3926, 45.02563
527.8748, 44.79849
528.3569, 45.08297
528.8390, 45.25846
529.3211, 45.33081
529.8032, 44.99112
530.2853, 45.18349
530.7675, 45.16265
531.2496, 45.13305
531.7317, 45.40032
532.2138, 45.12056
532.6959, 45.38313
533.1780, 45.34573
533.6602, 45.59863
534.1423, 45.83352
534.6244, 45.94587
535.1065, 46.15679
535.5886, 46.55619
536.0707, 47.10505
536.5529, 47.76202
537.0350, 48.50299
537.5171, 49.27807
537.9992, 49.92370
538.4813, 50.33085
538.9634, 51.18629
539.4456, 53.06839
539.9277, 54.79325
540.4098, 55.61408
540.8919, 55.90551
541.3740, 56.45164
541.8561, 57.62763
542.3383, 59.02851
542.8204, 60.15069
543.3025, 61.02556
543.7846, 61.91875
544.2667, 62.81612
544.7488, 63.90388
545.2310, 65.50497
545.7131, 67.55709
546.1952, 69.56211
546.6773, 71.39531
547.1594, 73.19277
547.6415, 74.86459
548.1237, 76.57642
548.6058, 78.77351
549.0879, 81.62980
549.5700, 84.92545
550.0521, 88.31725
550.5342, 91.81276
551.0164, 95.34684
551.4985, 98.77093
551.9806, 102.3489
552.4627, 106.3579
552.9448, 110.6017
553.4269, 114.8308
553.9091, 118.9526
554.3912, 122.7403
554.8733, 125.8988
555.3554, 128.5014
555.8375, 130.0571
556.3196, 130.5856
556.8018, 129.8436
557.2839, 127.6686
557.7660, 124.2374
558.2481, 120.0132
558.7302, 114.8253
559.2123, 109.3297
559.6945, 104.1278
560.1766, 99.19849
560.6587, 94.43923
561.1408, 89.75157
561.6229, 85.43230
562.1050, 81.80341
562.5872, 78.94693
563.0693, 76.64297
563.5514, 75.03410
564.0335, 73.84388
564.5156, 72.94599
564.9977, 72.37194
565.4799, 72.23344
565.9620, 72.57160
566.4441, 73.22427
566.9262, 73.91788
567.4083, 74.58120
567.8904, 75.57527
568.3726, 77.10901
568.8547, 78.77865
569.3368, 80.51529
569.8189, 82.28220
570.3010, 83.99800
570.7831, 85.62965
571.2653, 87.30753
571.7474, 89.17920
572.2295, 91.23656
572.7116, 93.50852
573.1937, 96.04967
573.6758, 98.65544
574.1580, 101.2084
574.6401, 103.6896
575.1222, 106.0309
575.6043, 108.2306
576.0864, 110.2836
576.5685, 112.1879
577.0507, 113.9253
577.5328, 115.3939
578.0149, 116.5867
578.4970, 117.7565
578.9791, 119.1816
579.4612, 120.8739
579.9434, 122.5288
580.4255, 123.7909
580.9076, 125.4457
581.3897, 127.8900
581.8718, 130.6870
582.3539, 133.4750
582.8361, 136.1342
583.3182, 138.4857
583.8003, 140.6452
584.2824, 142.4698
584.7645, 142.9432
585.2466, 142.1168
585.7288, 139.7606
586.2108, 135.3571
586.6929, 129.4580
587.1750, 122.7860
587.6572, 115.2380
588.1393, 107.5753
588.6214, 99.82218
589.1035, 92.30947
589.5856, 85.45536
590.0677, 79.30941
590.5499, 73.93094
591.0320, 69.35717
591.5141, 65.52352
591.9962, 62.25921
592.4783, 59.88982
592.9604, 57.69997
593.4426, 55.62371
593.9247, 53.76865
594.4068, 52.26035
594.8889, 51.05235
595.3710, 49.97892
595.8531, 48.95916
596.3353, 47.97258
596.8174, 46.89802
597.2995, 45.67813
597.7816, 44.74475
598.2637, 44.32957
598.7458, 44.09658
599.2280, 43.78431
599.7101, 43.39722
600.1922, 42.95568
600.6743, 42.33085
601.1564, 41.77088
601.6385, 41.57929
602.1207, 41.62809
602.6028, 41.49016
603.0849, 41.00950
603.5670, 40.48828
604.0491, 40.35698
604.5313, 40.73399
605.0134, 40.75403
605.4955, 40.14506
605.9776, 39.54195
606.4597, 39.04949
606.9418, 38.71881
607.4240, 38.68463
607.9061, 38.95492
608.3882, 39.23636
608.8703, 39.15036
609.3524, 38.73128
609.8345, 38.43595
610.3167, 38.29251
610.7988, 38.21788
611.2809, 38.24247
611.7630, 38.28066
612.2451, 38.19652
612.7272, 37.94814
613.2094, 37.72529
613.6915, 37.64556
614.1736, 37.62107
614.6557, 37.58159
615.1378, 37.50275
615.6199, 37.28160
616.1021, 36.82948
616.5842, 36.26264
617.0663, 35.92396
617.5484, 36.00058
618.0305, 35.98897
618.5126, 35.76204
618.9948, 35.57243
619.4769, 35.63947
619.9590, 35.85599
620.4411, 35.94518
620.9232, 35.74945
621.4053, 35.43833
621.8875, 35.23908
622.3696, 35.15243
622.8517, 35.27420
623.3338, 35.76221
623.8159, 36.18712
624.2980, 36.11438
624.7802, 35.67988
625.2623, 35.31451
625.7444, 35.02704
626.2265, 34.86634
626.7086, 34.93668
627.1907, 35.11192
627.6729, 35.22467
628.1550, 35.24022
628.6371, 35.18497
629.1192, 35.06427
629.6013, 34.90021
630.0834, 34.89354
630.5656, 35.23871
631.0477, 35.41372
631.5298, 35.17570
632.0119, 34.89172
632.4940, 34.87553
632.9761, 35.09774
633.4583, 35.26548
633.9404, 35.14558
634.4225, 34.92139
634.9046, 34.93528
635.3867, 35.16163
635.8688, 35.23914
636.3510, 35.00573
636.8331, 34.70457
637.3152, 34.63757
637.7973, 34.83382
638.2794, 34.97525
638.7615, 35.06098
639.2437, 35.08892
639.7258, 34.97857
640.2079, 34.84284
640.6900, 34.85437
641.1721, 35.04706
641.6542, 35.29619
642.1364, 35.47363
642.6185, 35.58434
643.1006, 35.68737
643.5827, 35.77934
644.0648, 35.87038
644.5469, 35.99210
645.0291, 36.09583
645.5112, 36.13559
645.9933, 36.10805
646.4754, 36.04382
646.9575, 35.95581
647.4396, 35.83913
647.9218, 35.66255
648.4039, 35.44612
648.8860, 35.28899
649.3681, 35.23914
649.8502, 35.19378
650.3323, 34.98120
650.8145, 34.54022
651.2966, 34.21348
651.7787, 34.02140
652.2608, 33.91484
652.7429, 33.95156
653.2250, 34.03369
653.7072, 34.03443
654.1893, 33.92424
654.6714, 33.79291
655.1535, 33.73090
655.6356, 33.71537
656.1177, 33.65913
656.5999, 33.55268
657.0820, 33.46358
657.5641, 33.40513
658.0462, 33.39830
658.5283, 33.51556
659.0104, 33.79429
659.4926, 33.98383
659.9747, 34.03799
660.4568, 34.00356
660.9389, 33.83831
661.4210, 33.61968
661.9031, 33.51481
662.3853, 33.58433
662.8674, 33.68963
663.3495, 33.59916
663.8316, 33.28926
664.3137, 33.16980
664.7958, 33.34166
665.2780, 33.52043
665.7601, 33.61136
666.2422, 33.62591
666.7243, 33.53272
667.2064, 33.30766
667.6885, 33.17355
668.1707, 33.30934
668.6528, 33.54071
669.1349, 33.71012
669.6170, 33.79636
670.0991, 33.74448
670.5812, 33.51752
671.0634, 33.24437
671.5455, 33.16609
672.0276, 33.36869
672.5097, 33.44082
672.9918, 33.22565
673.4739, 33.05041
673.9561, 33.03385
674.4382, 33.10476
674.9203, 33.18232
675.4024, 33.24562
675.8845, 33.27165
676.3666, 33.24905
676.8488, 33.17371
677.3309, 33.00565
677.8130, 32.74651
678.2951, 32.52173
678.7772, 32.37428
679.2593, 32.32456
679.7415, 32.43269
680.2236, 32.80379
680.7057, 33.00025
681.1878, 32.88316
681.6699, 32.74522
682.1520, 32.75301
682.6342, 32.81275
683.1163, 32.73664
683.5984, 32.47936
684.0805, 32.24401
684.5626, 32.28090
685.0447, 32.53794
685.5269, 32.74788
686.0090, 32.91654
686.4911, 32.98904
686.9732, 32.90021
687.4553, 32.73884
687.9374, 32.65751
688.4196, 32.66861
688.9017, 32.63573
689.3838, 32.50492
689.8659, 32.35843
690.3480, 32.21355
690.8301, 32.09722
691.3123, 32.06128
691.7944, 32.11736
692.2765, 32.20407
692.7586, 32.25821
693.2407, 32.27985
693.7228, 32.25825
694.2050, 32.15831
694.6871, 32.11027
695.1692, 32.19372
695.6513, 32.32618
696.1334, 32.43667
696.6155, 32.52302
697.0977, 32.54911
697.5798, 32.47659
698.0619, 32.36641
698.5440, 32.22698
699.0261, 32.09117
699.5082, 32.02656
699.9904, 32.05055
700.4725, 32.12437
700.9546, 32.21487
701.4367, 32.31845
701.9188, 32.37482
702.4009, 32.34893
702.8831, 32.34563
703.3652, 32.44503
703.8473, 32.53590
704.3294, 32.50964
704.8115, 32.38438
705.2936, 32.29744
705.7758, 32.35635
706.2579, 32.42233
706.7400, 32.37168
707.2221, 32.24257
707.7042, 32.09862
708.1863, 31.96000
708.6685, 31.87689
709.1506, 31.90495
709.6327, 32.02536
710.1148, 32.09079
710.5969, 32.03130
711.0790, 32.04613
711.5612, 32.24469
712.0433, 32.44822
712.5254, 32.54285
713.0075, 32.54452
713.4896, 32.52431
713.9717, 32.50946
714.4539, 32.48179
714.9360, 32.38566
715.4181, 32.27197
715.9002, 32.27527
716.3823, 32.41151
716.8644, 32.57845
717.3466, 32.71939
717.8287, 32.80826
718.3108, 32.73712
718.7929, 32.36082
719.2750, 32.10089
719.7571, 31.99100
720.2393, 31.97100
720.7214, 32.06911
721.2035, 32.22344
721.6856, 32.33225
722.1677, 32.36421
722.6498, 32.33367
723.1320, 32.20077
723.6141, 32.02960
724.0962, 31.98623
724.5783, 32.06913
725.0604, 32.06464
725.5425, 31.82559
726.0247, 31.52960
726.5068, 31.56565
726.9889, 32.12089
727.4710, 32.43688
727.9531, 32.31959
728.4352, 32.18921
728.9174, 32.16759
729.3995, 32.21982
729.8816, 32.31468
730.3637, 32.44143
730.8458, 32.53524
731.3279, 32.51152
731.8101, 32.44642
732.2922, 32.50595
732.7743, 32.65989
733.2564, 32.68009
733.7385, 32.46949
734.2206, 32.19262
734.7028, 32.05853
735.1849, 32.07684
735.6670, 32.09156
736.1491, 32.01375
736.6312, 32.05132
737.1133, 32.44575
737.5955, 32.81758
738.0776, 32.75822
738.5597, 32.31924
739.0418, 31.94630
739.5239, 31.87955
740.0060, 31.97050
740.4882, 32.09640
740.9703, 32.23737
741.4524, 32.32265
741.9345, 32.33772
742.4166, 32.33333
742.8987, 32.34370
743.3809, 32.37533
743.8630, 32.47410
744.3451, 32.79547
744.8272, 32.89546
745.3093, 32.47760
745.7914, 32.11295
746.2736, 32.19464
746.7557, 32.54029
747.2378, 32.73888
747.7199, 32.63293
748.2020, 32.48696
748.6841, 32.47175
749.1663, 32.56393
749.6484, 32.76233
750.1305, 33.04519
750.6126, 33.32369
751.0947, 33.56847
751.5768, 33.67881
752.0590, 33.41773
752.5411, 32.63042
753.0232, 32.20915
753.5053, 32.35710
753.9874, 32.61092
754.4695, 32.93984
754.9517, 33.23108
755.4338, 33.32668
755.9159, 33.21930
756.3980, 33.13767
756.8801, 33.20560
757.3622, 33.33340
757.8444, 33.46698
758.3265, 33.58673
758.8086, 33.62908
759.2907, 33.58465
759.7728, 33.55232
760.2549, 33.63197
760.7371, 33.80462
761.2192, 33.95247
761.7013, 34.07331
762.1834, 34.17668
762.6655, 34.25757
763.1476, 34.32737
763.6298, 34.37320
764.1119, 34.41503
764.5940, 34.51831
765.0761, 34.75374
765.5582, 34.93395
766.0403, 34.87107
766.5225, 34.76992
767.0046, 34.92794
767.4867, 35.28036
767.9688, 35.48899
768.4509, 35.37774
768.9330, 35.15228
769.4152, 35.14283
769.8973, 35.35390
770.3794, 35.66333
770.8615, 36.10223
771.3436, 36.55259
771.8257, 37.02377
772.3079, 37.42966
772.7900, 37.59016
773.2721, 37.47430
773.7542, 37.52123
774.2363, 37.91385
774.7184, 38.35970
775.2006, 38.77647
775.6827, 39.12477
776.1648, 39.28011
776.6469, 39.28136
777.1290, 39.42859
777.6111, 40.01717
778.0933, 40.81518
778.5754, 41.22503
779.0575, 41.26787
779.5396, 41.56434
780.0217, 42.31007
780.5038, 43.04168
780.9860, 43.34679
781.4681, 43.35733
781.9502, 43.66532
782.4323, 44.58902
782.9144, 45.27734
783.3965, 45.52930
783.8787, 45.69851
784.3608, 45.98833
784.8429, 46.34004
785.3250, 46.60695
785.8071, 46.74247
786.2892, 46.88143
786.7714, 47.17006
787.2535, 47.52589
787.7356, 47.81958
788.2177, 48.04128
788.6998, 48.13912
789.1819, 48.08072
789.6641, 48.01504
790.1462, 48.12097
790.6283, 48.39813
791.1104, 48.76184
791.5925, 49.40826
792.0746, 49.80320
792.5568, 49.69235
793.0389, 49.45034
793.5210, 49.23001
794.0031, 49.09308
794.4852, 49.20503
794.9673, 49.74536
795.4495, 50.28535
795.9316, 50.47066
796.4137, 50.54914
796.8958, 50.87905
797.3779, 51.43445
797.8600, 51.92822
798.3422, 52.20703
798.8243, 52.46065
799.3064, 53.08592
799.7885, 54.10918
800.2706, 54.71796
800.7527, 54.75859
801.2349, 54.83469
801.7170, 55.17853
802.1991, 55.68089
802.6812, 56.27445
803.1633, 56.96451
803.6454, 57.40362
804.1276, 57.46453
804.6097, 57.38515
805.0918, 57.11695
805.5739, 56.84153
806.0560, 56.82404
806.5381, 57.00061
807.0203, 57.02258
807.5024, 56.66594
807.9845, 56.13047
808.4666, 55.74306
808.9487, 55.41975
809.4308, 54.74993
809.9130, 53.67724
810.3951, 52.71601
810.8772, 52.18978
811.3593, 51.87807
811.8414, 51.30770
812.3235, 50.34452
812.8057, 49.61690
813.2878, 49.35524
813.7699, 49.04089
814.2520, 48.43584
814.7341, 47.77644
815.2162, 47.35056
815.6984, 47.15184
816.1805, 46.85559
816.6626, 46.16555
817.1447, 45.49894
817.6268, 45.23326
818.1089, 45.16526
818.5911, 44.96962
819.0732, 44.61457
819.5553, 44.25447
820.0374, 43.98533
820.5195, 43.78876
821.0016, 43.63820
821.4838, 43.53518
821.9659, 43.40864
822.4480, 43.22756
822.9301, 43.11014
823.4122, 43.12717
823.8943, 43.23376
824.3765, 43.37354
824.8586, 43.57157
825.3407, 43.66848
825.8228, 43.45565
826.3049, 43.38700
826.7870, 43.68984
827.2692, 44.16590
827.7513, 44.69043
828.2334, 45.19023
828.7155, 45.49292
829.1976, 45.41433
829.6797, 45.27497
830.1619, 45.46733
830.6440, 45.86927
831.1261, 46.20763
831.6082, 46.44561
832.0903, 46.57092
832.5724, 46.54609
833.0546, 46.58594
833.5367, 47.15972
834.0188, 48.36634
834.5009, 49.42068
834.9830, 50.28289
835.4651, 51.07355
835.9473, 51.82986
836.4294, 52.53139
836.9115, 53.14279
837.3936, 53.66793
837.8757, 54.22936
838.3578, 54.76128
838.8400, 55.44196
839.3221, 56.26933
839.8042, 57.33136
840.2863, 58.79499
840.7684, 60.57767
841.2505, 62.41425
841.7327, 64.18419
842.2148, 65.96706
842.6969, 67.80897
843.1790, 69.74767
843.6611, 71.95493
844.1432, 74.42383
844.6254, 76.90456
845.1075, 79.28006
845.5896, 81.72800
846.0717, 84.52314
846.5538, 87.65152
847.0359, 90.75990
847.5181, 93.64205
848.0002, 96.87521
848.4823, 100.8373
848.9644, 104.9551
849.4465, 108.7828
849.9286, 112.4575
850.4108, 116.4138
850.8929, 120.7077
851.3750, 125.3101
851.8571, 130.2559
852.3392, 135.4923
852.8214, 140.9941
853.3035, 146.7543
853.7856, 152.8269
854.2677, 159.2066
854.7498, 165.6615
855.2319, 171.9529
855.7141, 178.1671
856.1962, 184.7606
856.6783, 191.5803
857.1604, 197.8502
857.6425, 203.3433
858.1246, 208.1916
858.6068, 212.5183
859.0889, 216.2102
859.5710, 218.9204
860.0531, 220.8678
860.5352, 221.2361
861.0173, 219.7165
861.4995, 216.9582
861.9816, 212.9998
862.4637, 208.1281
862.9458, 202.6071
863.4279, 196.4591
863.9100, 189.9691
864.3922, 182.8381
864.8743, 175.7530
865.3564, 168.8020
865.8385, 162.2937
866.3206, 156.6422
866.8027, 151.8206
867.2849, 147.4827
867.7670, 143.4645
868.2491, 139.7996
868.7312, 136.5903
869.2133, 133.7917
869.6954, 131.3030
870.1776, 129.0968
870.6597, 126.9832
871.1418, 124.8527
871.6239, 122.9659
872.1060, 121.7240
872.5881, 121.1251
873.0703, 120.4042
873.5524, 119.3863
874.0345, 118.7013
874.5166, 118.5834
874.9987, 118.7269
875.4808, 118.9141
875.9630, 119.1654
876.4451, 119.5671
876.9272, 120.2304
877.4093, 120.8151
877.8914, 121.3093
878.3735, 121.6511
878.8557, 121.8492
879.3378, 121.8526
879.8199, 121.6458
880.3020, 121.2005
880.7841, 120.3526
881.2662, 119.0109
881.7484, 117.1815
882.2305, 114.7359
882.7126, 111.8351
883.1947, 108.8077
883.6768, 105.7359
884.1589, 102.6196
884.6411, 99.45171
885.1232, 96.36906
885.6053, 93.67718
886.0874, 91.38107
886.5695, 89.18439
887.0516, 87.03122
887.5338, 85.28204
888.0159, 84.24593
888.4980, 83.40327
888.9801, 82.03114
889.4622, 80.13125
889.9443, 78.91021
890.4265, 78.71177
890.9086, 78.69022
891.3907, 78.89066
891.8728, 79.13106
892.3549, 79.21462
892.8370, 79.28123
893.3192, 79.62114
893.8013, 80.31800
894.2834, 81.12209
894.7655, 81.76157
895.2476, 82.60122
895.7297, 84.06033
896.2119, 85.89051
896.6940, 87.55614
897.1761, 89.04872
897.6582, 90.92317
898.1403, 93.60630
898.6224, 96.78337
899.1046, 100.0405
899.5867, 103.3752
900.0688, 106.7660
900.5509, 110.2314
901.0330, 114.0164
901.5151, 118.2664
901.9973, 122.8040
902.4794, 127.3142
902.9615, 131.7963
903.4436, 136.7685
903.9257, 142.1827
904.4078, 148.2770
904.8900, 155.1807
905.3721, 162.6961
905.8542, 170.8109
906.3363, 179.4087
906.8184, 187.8732
907.3005, 195.5913
907.7827, 204.5864
908.2648, 215.6002
908.7469, 227.3901
909.2290, 239.4439
909.7111, 251.8717
910.1932, 265.1248
910.6754, 279.0837
911.1575, 293.0550
911.6396, 307.2151
912.1217, 320.5028
912.6038, 332.7842
913.0859, 343.2457
913.5681, 351.4658
914.0502, 356.8113
914.5323, 357.8497
915.0144, 353.9541
915.4965, 345.6703
915.9786, 333.0456
916.4607, 316.6033
916.9428, 297.7545
917.4249, 276.6187
917.9070, 254.8530
918.3892, 232.7175
918.8713, 211.5600
919.3534, 192.4776
919.8355, 175.3132
920.3176, 159.8677
920.7997, 146.0087
921.2819, 133.9811
921.7640, 124.1751
922.2461, 115.4580
922.7282, 107.4551
923.2103, 100.3124
923.6924, 94.44276
924.1746, 89.77910
924.6567, 85.38769
925.1388, 81.15471
925.6209, 77.29751
926.1030, 73.87028
926.5851, 70.82893
927.0673, 68.23827
927.5494, 65.99627
928.0315, 63.93536
928.5136, 62.03128
928.9957, 60.29683
929.4778, 58.77692
929.9600, 57.39713
930.4421, 56.08503
930.9242, 54.86151
931.4063, 53.78756
931.8884, 52.83660
932.3705, 51.90294
932.8527, 50.92438
933.3348, 49.92081
933.8169, 48.85884
934.2990, 47.80213
934.7811, 46.98267
935.2632, 46.37366
935.7454, 45.71873
936.2275, 44.93353
936.7096, 44.12175
937.1917, 43.38383
937.6738, 42.70399
938.1559, 42.00447
938.6381, 41.27852
939.1202, 40.62194
939.6023, 40.05544
940.0844, 39.53045
940.5665, 39.02528
941.0486, 38.54414
941.5308, 38.09786
942.0129, 37.68634
942.4950, 37.29165
942.9771, 36.86425
943.4592, 36.52715
943.9413, 36.39563
944.4235, 36.26009
944.9056, 35.98642
945.3877, 35.61238
945.8698, 35.20650
946.3519, 34.74803
946.8340, 34.39917
947.3162, 34.30135
947.7983, 34.20875
948.2804, 33.99897
948.7625, 33.72231
949.2446, 33.40754
949.7267, 33.08538
950.2089, 32.83062
950.6910, 32.68716
951.1731, 32.58132
951.6552, 32.52038
952.1373, 32.41710
952.6194, 32.07661
953.1016, 31.61650
953.5837, 31.35266
954.0658, 31.35513
954.5479, 31.40231
955.0300, 31.31704
955.5121, 31.15832
955.9943, 31.01312
956.4764, 30.88853
956.9585, 30.83990
957.4406, 30.86254
957.9227, 30.81013
958.4048, 30.60826
958.8870, 30.39333
959.3691, 30.38095
959.8512, 30.51982
960.3333, 30.33757
960.8154, 29.76661
961.2975, 29.40248
961.7797, 29.40742
962.2618, 29.43398
962.7439, 29.21536
963.2260, 28.92629
963.7081, 28.97062
964.1902, 29.45285
964.6724, 29.71008
965.1545, 29.64230
965.6366, 29.51218
966.1187, 29.28657
966.6008, 29.10820
967.0829, 29.13160
967.5651, 29.28667
968.0472, 29.35531
968.5293, 29.29399
969.0114, 29.23028
969.4935, 29.15587
969.9756, 29.11238
970.4578, 29.20172
970.9399, 29.27324
971.4220, 29.12018
971.9041, 28.77933
972.3862, 28.49531
972.8683, 28.33022
973.3505, 28.28407
973.8326, 28.48685
974.3147, 28.69061
974.7968, 28.67873
975.2789, 28.50064
975.7610, 28.21639
976.2432, 27.87558
976.7253, 27.63224
977.2074, 27.58727
977.6895, 27.68417
978.1716, 27.95849
978.6537, 28.28292
979.1359, 28.42352
979.6180, 28.40289
980.1001, 28.39225
980.5822, 28.45317
981.0643, 28.49613
981.5464, 28.42445
982.0286, 28.27802
982.5107, 28.10087
982.9928, 27.92566
983.4749, 27.97349
983.9570, 28.25394
984.4391, 28.42229
984.9213, 28.29387
985.4034, 27.99709
985.8855, 27.67917
986.3676, 27.36065
986.8497, 27.26356
987.3318, 27.41056
987.8140, 27.51005
988.2961, 27.49905
988.7782, 27.46778
989.2603, 27.47543
989.7424, 27.49988
990.2245, 27.49039
990.7067, 27.43751
991.1888, 27.43189
991.6709, 27.49516
992.1530, 27.55229
992.6351, 27.57779
993.1172, 27.60453
993.5994, 27.65673
994.0815, 27.73069
994.5636, 27.82845
995.0457, 28.02054
995.5278, 28.03572
996.0099, 27.65232
996.4921, 27.38211
996.9742, 27.51556
997.4563, 27.67697
997.9384, 27.46956
998.4205, 27.01642
998.9026, 26.78909
999.3848, 26.93506
999.8669, 27.07378
1000.349, 27.12087
1000.831, 27.15816
1001.313, 27.23990
1001.795, 27.32195
1002.277, 27.32234
1002.760, 27.26901
1003.242, 27.32302
1003.724, 27.63379
1004.206, 27.80443
1004.688, 27.49293
1005.170, 27.13109
1005.652, 27.03599
1006.134, 27.12067
1006.617, 27.27829
1007.099, 27.45341
1007.581, 27.52775
1008.063, 27.41096
1008.545, 27.25646
1009.027, 27.15308
1009.509, 27.10571
1009.991, 27.13706
1010.473, 27.22362
1010.956, 27.36250
1011.438, 27.52201
1011.920, 27.53936
1012.402, 27.26698
1012.884, 26.89362
1013.366, 26.62021
1013.848, 26.42692
1014.330, 26.28169
1014.813, 26.17935
1015.295, 26.10961
1015.777, 26.07259
1016.259, 26.11152
1016.741, 26.28944
1017.223, 26.50737
1017.705, 26.54355
1018.187, 26.46615
1018.669, 26.57959
1019.152, 26.85941
1019.634, 26.89349
1020.116, 26.53509
1020.598, 26.14022
1021.080, 26.08389
1021.562, 26.24823
1022.044, 26.32556
1022.526, 26.31694
1023.008, 26.17490
1023.491, 25.89402
1023.973, 25.79799
1024.455, 26.03830
1024.937, 26.36535
1025.419, 26.49886
1025.901, 26.46900
1026.383, 26.38733
1026.865, 26.24324
1027.348, 26.23366
1027.830, 26.40763
1028.312, 26.52049
1028.794, 26.44066
1029.276, 26.32264
1029.758, 26.36363
1030.240, 26.54276
1030.722, 26.72594
1031.204, 26.97000
1031.687, 26.89662
1032.169, 26.27557
1032.651, 25.93551
1033.133, 26.39455
1033.615, 27.09468
1034.097, 27.30843
1034.579, 27.06666
1035.061, 26.82906
1035.544, 26.59215
1036.026, 26.36080
1036.508, 26.07094
1036.990, 25.90965
1037.472, 26.00658
1037.954, 26.23548
1038.436, 26.44956
1038.918, 26.64768
1039.401, 26.81197
1039.883, 27.03199
1040.365, 27.04130
1040.847, 26.60439
1041.329, 26.24831
1041.811, 26.28835
1042.293, 26.47571
1042.775, 26.47495
1043.257, 26.29297
1043.740, 26.20267
1044.222, 26.27817
1044.704, 26.33090
1045.186, 26.35514
1045.668, 26.35074
1046.150, 26.24418
1046.632, 26.15575
1047.114, 26.26151
1047.596, 26.54872
1048.079, 26.78261
1048.561, 27.01178
1049.043, 27.08119
1049.525, 26.88095
1050.007, 26.62130
1050.489, 26.31629
1050.971, 26.06279
1051.453, 25.99515
1051.936, 26.09928
1052.418, 26.20597
1052.900, 26.37364
1053.382, 26.39462
1053.864, 25.99536
1054.346, 25.70661
1054.828, 25.94808
1055.310, 26.35669
1055.792, 26.46401
1056.275, 26.29260
1056.757, 26.22125
1057.239, 26.39404
1057.721, 26.54574
1058.203, 26.60069
1058.685, 26.62024
1059.167, 26.56265
1059.649, 26.53955
1060.131, 26.76736
1060.614, 27.16651
1061.096, 27.33050
1061.578, 27.09665
1062.060, 26.77014
1062.542, 26.30397
1063.024, 25.94672
1063.506, 25.90961
1063.988, 26.00931
1064.471, 25.98395
1064.953, 25.88903
1065.435, 26.05525
1065.917, 26.69304
1066.399, 27.15940
1066.881, 27.11567
1067.363, 26.92720
1067.845, 26.65384
1068.328, 26.46185
1068.810, 26.62071
1069.292, 27.00933
1069.774, 27.21369
1070.256, 27.09891
1070.738, 26.92215
1071.220, 26.70376
1071.702, 26.56139
1072.184, 26.62836
1072.667, 26.75601
1073.149, 26.79033
1073.631, 26.74839
1074.113, 26.70990
1074.595, 26.69285
1075.077, 26.71515
1075.559, 26.75479
1076.041, 26.87273
1076.523, 27.33421
1077.006, 27.69579
1077.488, 27.31180
1077.970, 26.53777
1078.452, 26.29706
1078.934, 26.80556
1079.416, 27.10940
1079.898, 26.47581
1080.380, 25.92534
1080.862, 26.10303
1081.345, 26.49524
1081.827, 26.65161
1082.309, 26.66124
1082.791, 26.79144
1083.273, 27.07950
1083.755, 27.26354
1084.237, 27.16175
1084.719, 27.03462
1085.202, 27.00523
1085.684, 27.00052
1086.166, 26.94043
1086.648, 26.87560
1087.130, 26.88331
1087.612, 26.97549
1088.094, 27.14105
1088.576, 27.48905
1089.058, 27.68318
1089.541, 27.21191
1090.023, 26.48513
1090.505, 26.74554
1090.987, 26.89694
1091.469, 26.94519
1091.951, 26.58134
1092.433, 26.74963
1092.915, 26.70466
1093.397, 26.65095
1093.880, 26.89416
1094.362, 26.59025
1094.844, 27.20260
1095.326, 27.40315
1095.808, 27.28810
1096.290, 26.97741
1096.772, 26.94217
1097.254, 27.37338
1097.737, 27.67959
1098.219, 27.59021
1098.701, 27.42272
1099.183, 27.23832
1099.665, 27.11121
1100.147, 27.16669
1100.629, 27.30903
1101.111, 27.30035
1101.594, 27.08425
1102.076, 26.96095
1102.558, 27.14293
1103.040, 27.24522
1103.522, 27.04889
1104.004, 26.82484
1104.486, 26.76577
1104.968, 26.80759
1105.450, 26.81309
1105.932, 26.77355
1106.415, 26.63747
1106.897, 26.88603
1107.379, 27.02559
1107.861, 27.06200
1108.343, 26.68630
1108.825, 26.84275
1109.307, 26.78594
1109.789, 26.72039
1110.272, 26.95173
1110.754, 26.63598
1111.236, 26.86261
1111.718, 26.87274
1112.200, 26.98195
1112.682, 26.87659
1113.164, 26.83751
1113.646, 27.01307
1114.129, 27.06978
1114.611, 26.93972
1115.093, 27.05523
1115.575, 26.84797
1116.057, 26.89966
1116.539, 27.12219
1117.021, 27.19531
1117.503, 26.66451
1117.985, 26.85371
1118.468, 26.93376
1118.950, 26.91080
1119.432, 26.47572
1119.914, 26.57280
1120.396, 26.45661
1120.878, 26.33167
1121.360, 26.94813
1121.842, 26.83207
1122.324, 26.64912
1122.807, 26.59353
1123.289, 26.63004
1123.771, 26.73355
1124.253, 26.89023
1124.735, 26.98093
1125.217, 26.98659
1125.699, 26.99802
1126.181, 27.02913
1126.664, 27.03168
1127.146, 26.97763
1127.628, 26.91301
1128.110, 26.85875
1128.592, 26.85514
1129.074, 27.07888
1129.556, 27.58301
1130.038, 27.67763
1130.521, 27.28359
1131.003, 27.05185
1131.485, 27.14523
1131.967, 27.32376
1132.449, 27.44824
1132.931, 27.50706
1133.413, 27.44779
1133.895, 27.30999
1134.377, 27.34876
1134.859, 27.56610
1135.342, 28.14227
1135.824, 28.57459
1136.306, 28.89795
1136.788, 29.11811
1137.270, 28.92622
1137.752, 29.26642
1138.234, 29.39341
1138.716, 29.51161
1139.199, 29.92712
1139.681, 29.79516
1140.163, 30.20555
1140.645, 30.39947
1141.127, 30.54412
1141.609, 30.81928
1142.091, 30.78861
1142.573, 30.81990
1143.056, 31.61019
1143.538, 32.72734
1144.020, 33.20765
1144.502, 33.29871
1144.984, 33.69225
1145.466, 34.43409
1145.948, 35.15393
1146.430, 35.69889
1146.912, 36.30122
1147.395, 37.30872
1147.877, 38.31415
1148.359, 38.85412
1148.841, 39.10611
1149.323, 39.32100
1149.805, 39.47005
1150.287, 39.49144
1150.769, 39.33012
1151.251, 38.76919
1151.734, 37.58060
1152.216, 36.26331
1152.698, 35.06945
1153.180, 33.96904
1153.662, 32.88296
1154.144, 31.92817
1154.626, 31.31233
1155.108, 30.96652
1155.591, 30.63917
1156.073, 30.27630
1156.555, 29.85525
1157.037, 29.17373
1157.519, 28.69163
1158.001, 28.71573
1158.483, 28.89149
1158.965, 28.98276
1159.448, 29.01693
1159.930, 29.09968
1160.412, 29.23559
1160.894, 29.21651
1161.376, 28.81596
1161.858, 28.58157
1162.340, 28.70083
1162.822, 28.81199
1163.304, 28.74969
1163.786, 28.65630
1164.269, 28.66379
1164.751, 28.74854
1165.233, 28.83700
1165.715, 28.94762
1166.197, 28.97315
1166.679, 28.87809
1167.161, 28.79853
1167.643, 28.76528
1168.126, 28.74043
1168.608, 28.70011
1169.090, 28.65641
1169.572, 28.61663
1170.054, 28.59236
1170.536, 28.69578
1171.018, 28.93600
1171.500, 29.10371
1171.983, 29.18151
1172.465, 29.19632
1172.947, 29.15731
1173.429, 29.03721
1173.911, 28.79144
1174.393, 28.54907
1174.875, 28.60960
1175.357, 28.87472
1175.839, 28.94866
1176.322, 28.87548
1176.804, 28.89328
1177.286, 29.01530
1177.768, 29.02894
1178.250, 28.84262
1178.732, 28.68615
1179.214, 28.83718
1179.696, 29.05777
1180.178, 28.98069
1180.661, 28.79359
1181.143, 28.83166
1181.625, 28.99206
1182.107, 28.93321
1182.589, 28.65417
1183.071, 28.55054
1183.553, 28.84601
1184.035, 29.19778
1184.518, 29.49662
1185.000, 29.65261
1185.482, 29.49279
1185.964, 29.24743
1186.446, 29.14713
1186.928, 29.16724
1187.410, 29.21182
1187.892, 29.26529
1188.375, 29.28364
1188.857, 29.19006
1189.339, 29.16026
1189.821, 29.30005
1190.303, 29.42853
1190.785, 29.43421
1191.267, 29.40432
1191.749, 29.43967
1192.231, 29.52048
1192.714, 29.56967
1193.196, 29.57904
1193.678, 29.59625
1194.160, 29.66068
1194.642, 29.60392
1195.124, 29.32220
1195.606, 29.11969
1196.088, 29.17305
1196.570, 29.40405
1197.053, 29.74763
1197.535, 30.13845
1198.017, 30.17865
1198.499, 29.88203
1198.981, 29.89669
1199.463, 30.24836
1199.945, 30.51041
1200.427, 30.56086
1200.910, 30.46417
1201.392, 30.24567
1201.874, 30.07785
1202.356, 30.31140
1202.838, 30.71238
1203.320, 30.76135
1203.802, 30.58255
1204.284, 30.40816
1204.766, 30.29417
1205.249, 30.32085
1205.731, 30.49100
1206.213, 30.61917
1206.695, 30.58523
1207.177, 30.48772
1207.659, 30.29840
1208.141, 30.18555
1208.623, 30.36633
1209.105, 30.66276
1209.588, 30.84423
1210.070, 30.93134
1210.552, 31.09545
1211.034, 31.39273
1211.516, 31.55265
1211.998, 31.46271
1212.480, 31.30239
1212.962, 30.94882
1213.445, 30.72900
1213.927, 30.98477
1214.409, 31.32019
1214.891, 31.23929
1215.373, 30.87448
1215.855, 30.84437
1216.337, 31.26737
1216.819, 31.49897
1217.302, 31.49853
1217.784, 31.43761
1218.266, 31.31670
1218.748, 31.33418
1219.230, 31.63920
1219.712, 31.93359
1220.194, 31.79381
1220.676, 31.39547
1221.158, 31.32301
1221.641, 31.51347
1222.123, 31.64292
1222.605, 31.70264
1223.087, 31.76474
1223.569, 31.84875
1224.051, 31.93711
1224.533, 32.01713
1225.015, 32.15710
1225.497, 32.56074
1225.980, 32.92865
1226.462, 32.82157
1226.944, 32.53286
1227.426, 32.35706
1227.908, 32.35331
1228.390, 32.67069
1228.872, 33.23732
1229.354, 33.50659
1229.837, 33.14557
1230.319, 32.90491
1230.801, 33.14973
1231.283, 33.42382
1231.765, 33.58588
1232.247, 33.64992
1232.729, 33.54307
1233.211, 33.39125
1233.693, 33.40396
1234.176, 33.57957
1234.658, 33.88392
1235.140, 34.42490
1235.622, 34.74416
1236.104, 34.73362
1236.586, 34.82953
1237.068, 35.17390
1237.550, 35.60765
1238.032, 36.04218
1238.515, 36.36805
1238.997, 36.33207
1239.479, 36.07062
1239.961, 36.20179
1240.443, 36.61615
1240.925, 36.79408
1241.407, 36.74255
1241.889, 36.79049
1242.372, 37.00034
1242.854, 37.05987
1243.336, 36.74668
1243.818, 36.41153
1244.300, 36.42818
1244.782, 36.53214
1245.264, 36.49196
1245.746, 36.36628
1246.229, 36.13523
1246.711, 35.92310
1247.193, 36.03094
1247.675, 36.45606
1248.157, 36.67168
1248.639, 36.51180
1249.121, 36.20962
1249.603, 35.53028
1250.085, 35.09792
1250.568, 35.30433
1251.050, 35.57045
1251.532, 35.52250
1252.014, 35.28829
1252.496, 35.05882
1252.978, 34.84177
1253.460, 34.73095
1253.942, 34.73302
1254.424, 34.78424
1254.907, 34.88430
1255.389, 34.88618
1255.871, 34.75167
1256.353, 34.63795
1256.835, 34.64448
1257.317, 34.74470
1257.799, 35.01097
1258.281, 35.24250
1258.764, 34.93138
1259.246, 34.40906
1259.728, 34.27583
1260.210, 34.44444
1260.692, 34.61090
1261.174, 34.71159
1261.656, 34.82247
1262.138, 34.98232
1262.620, 35.10314
1263.103, 35.15294
1263.585, 35.14216
1264.067, 35.02480
1264.549, 34.90237
1265.031, 34.82093
1265.513, 34.79354
1265.995, 34.87628
1266.477, 35.02779
1266.959, 35.02158
1267.442, 34.79089
1267.924, 34.67819
1268.406, 34.69865
1268.888, 34.79687
1269.370, 34.98973
1269.852, 35.00939
1270.334, 34.69967
1270.816, 34.39335
1271.299, 34.43441
1271.781, 34.74778
1272.263, 35.34248
1272.745, 36.01622
1273.227, 36.23707
1273.709, 36.13120
1274.191, 35.99052
1274.673, 35.89402
1275.156, 35.91861
1275.638, 36.07627
1276.120, 36.13818
1276.602, 35.88677
1277.084, 35.67341
1277.566, 35.69521
1278.048, 35.78019
1278.530, 35.85862
1279.012, 35.92129
1279.495, 35.96859
1279.977, 35.99282
1280.459, 35.94690
1280.941, 35.82345
1281.423, 35.91713
1281.905, 36.32856
1282.387, 36.61662
1282.869, 36.76571
1283.351, 36.66707
1283.834, 36.25691
1284.316, 35.92457
1284.798, 35.93351
1285.280, 36.15659
1285.762, 36.44162
1286.244, 36.80859
##END=



