##NAMES=Vuonnemite
##RRUFFID=R080015
##IDEAL CHEMISTRY=Na_6_Na_2_Nb^5+^_2_Na_3_Ti^4+^(Si_2_O_7_)_2_(PO_4_)_2_O_2_(OF)
##LOCALITY=Kedykevrpahkh Mt., Lovozero Massif, Kola Peninsula, Russia
##OWNER=RRUFF
##SOURCE=Michael Scott
##DESCRIPTION=Yellow scale of platy crystals associated with microcline, pale pink elogated serandite, natrolite, and light brown platy manaksite.
##STATUS=The identification of this mineral has been confirmed only by single crystal X-ray diffraction.
##URL=rruff.info/R080015
89.78320, 1480.626
90.26532, 1471.698
90.74744, 1471.925
91.22955, 1484.951
91.71167, 1503.692
92.19379, 1519.847
92.67590, 1534.212
93.15802, 1545.193
93.64014, 1549.054
94.12225, 1548.525
94.60437, 1550.782
95.08649, 1558.979
95.56860, 1569.768
96.05072, 1576.866
96.53284, 1581.425
97.01495, 1585.272
97.49707, 1589.072
97.97919, 1592.764
98.46130, 1598.443
98.94342, 1607.421
99.42554, 1619.388
99.90765, 1629.960
100.3898, 1639.094
100.8719, 1647.295
101.3540, 1654.922
101.8361, 1661.575
102.3182, 1669.229
102.8004, 1679.475
103.2825, 1693.693
103.7646, 1704.262
104.2467, 1709.258
104.7288, 1711.760
105.2109, 1718.811
105.6931, 1730.965
106.1752, 1746.620
106.6573, 1765.366
107.1394, 1788.015
107.6215, 1812.146
108.1036, 1838.474
108.5858, 1866.544
109.0679, 1893.542
109.5500, 1918.317
110.0321, 1943.109
110.5142, 1968.932
110.9963, 1994.790
111.4785, 2022.826
111.9606, 2054.135
112.4427, 2088.590
112.9248, 2122.098
113.4069, 2155.294
113.8890, 2186.765
114.3712, 2215.764
114.8533, 2242.722
115.3354, 2266.536
115.8175, 2286.872
116.2996, 2304.039
116.7817, 2317.888
117.2639, 2327.071
117.7460, 2333.477
118.2281, 2339.488
118.7102, 2347.996
119.1923, 2354.986
119.6744, 2357.677
120.1566, 2355.313
120.6387, 2350.746
121.1208, 2343.465
121.6029, 2335.129
122.0850, 2329.220
122.5671, 2328.757
123.0493, 2330.937
123.5314, 2332.709
124.0135, 2333.025
124.4956, 2334.051
124.9777, 2338.384
125.4598, 2345.339
125.9420, 2352.429
126.4241, 2356.590
126.9062, 2359.887
127.3883, 2366.778
127.8704, 2380.115
128.3525, 2394.821
128.8347, 2403.307
129.3168, 2405.752
129.7989, 2405.236
130.2810, 2405.877
130.7631, 2406.195
131.2452, 2399.749
131.7274, 2383.110
132.2095, 2359.553
132.6916, 2337.587
133.1737, 2317.235
133.6558, 2297.402
134.1379, 2275.184
134.6201, 2250.687
135.1022, 2229.823
135.5843, 2214.939
136.0664, 2205.458
136.5485, 2197.837
137.0306, 2192.208
137.5128, 2188.077
137.9949, 2184.747
138.4770, 2182.208
138.9591, 2180.462
139.4412, 2179.734
139.9233, 2180.126
140.4055, 2179.671
140.8876, 2177.575
141.3697, 2175.371
141.8518, 2175.939
142.3339, 2180.562
142.8160, 2184.978
143.2982, 2187.567
143.7803, 2187.690
144.2624, 2187.949
144.7445, 2188.508
145.2266, 2189.160
145.7087, 2189.399
146.1909, 2189.044
146.6730, 2188.559
147.1551, 2188.025
147.6372, 2186.517
148.1193, 2186.620
148.6014, 2189.033
149.0836, 2193.177
149.5657, 2197.142
150.0478, 2201.049
150.5299, 2204.608
151.0120, 2207.705
151.4941, 2207.928
151.9763, 2210.436
152.4584, 2216.379
152.9405, 2225.084
153.4226, 2233.293
153.9047, 2242.554
154.3868, 2250.070
154.8690, 2254.319
155.3511, 2250.487
155.8332, 2248.305
156.3153, 2250.705
156.7974, 2256.974
157.2795, 2261.222
157.7617, 2258.136
158.2438, 2254.745
158.7259, 2256.129
159.2080, 2268.458
159.6901, 2280.969
160.1722, 2291.106
160.6544, 2298.822
161.1365, 2304.261
161.6186, 2305.667
162.1007, 2305.541
162.5828, 2306.216
163.0649, 2307.740
163.5471, 2310.756
164.0292, 2316.692
164.5113, 2325.570
164.9934, 2332.862
165.4755, 2334.476
165.9576, 2333.654
166.4398, 2334.387
166.9219, 2338.658
167.4040, 2344.654
167.8861, 2351.151
168.3682, 2358.090
168.8503, 2365.965
169.3325, 2375.992
169.8146, 2387.129
170.2967, 2397.535
170.7788, 2404.965
171.2609, 2412.297
171.7430, 2422.840
172.2252, 2437.278
172.7073, 2451.162
173.1894, 2461.762
173.6715, 2469.249
174.1536, 2473.740
174.6357, 2473.705
175.1179, 2471.524
175.6000, 2469.933
176.0821, 2469.183
176.5642, 2468.914
177.0463, 2469.513
177.5284, 2470.484
178.0106, 2470.302
178.4927, 2467.065
178.9748, 2462.395
179.4569, 2458.979
179.9390, 2457.044
180.4211, 2456.417
180.9033, 2456.655
181.3854, 2457.923
181.8675, 2460.883
182.3496, 2466.301
182.8317, 2473.665
183.3138, 2482.337
183.7960, 2492.480
184.2781, 2503.030
184.7602, 2512.366
185.2423, 2520.620
185.7244, 2528.214
186.2065, 2535.778
186.6887, 2542.991
187.1708, 2548.293
187.6529, 2550.701
188.1350, 2552.776
188.6171, 2558.915
189.0992, 2569.101
189.5814, 2580.962
190.0635, 2593.143
190.5456, 2605.865
191.0277, 2619.427
191.5098, 2634.005
191.9919, 2649.382
192.4741, 2664.929
192.9562, 2680.594
193.4383, 2696.296
193.9204, 2711.878
194.4025, 2727.327
194.8846, 2742.669
195.3668, 2758.208
195.8489, 2773.291
196.3310, 2786.653
196.8131, 2798.363
197.2952, 2807.727
197.7773, 2814.907
198.2595, 2819.908
198.7416, 2820.222
199.2237, 2814.881
199.7058, 2805.252
200.1879, 2794.269
200.6700, 2781.303
201.1522, 2769.464
201.6343, 2761.082
202.1164, 2756.425
202.5985, 2752.546
203.0806, 2748.944
203.5627, 2746.005
204.0449, 2744.897
204.5270, 2745.521
205.0091, 2748.242
205.4912, 2752.937
205.9733, 2759.284
206.4554, 2769.621
206.9376, 2784.836
207.4197, 2804.014
207.9018, 2824.311
208.3839, 2845.616
208.8660, 2868.465
209.3481, 2893.272
209.8303, 2920.615
210.3124, 2948.011
210.7945, 2975.196
211.2766, 3002.195
211.7587, 3031.673
212.2408, 3067.387
212.7230, 3097.799
213.2051, 3115.185
213.6872, 3117.421
214.1693, 3113.612
214.6514, 3104.284
215.1335, 3089.502
215.6157, 3069.762
216.0978, 3043.358
216.5799, 3014.655
217.0620, 2985.947
217.5441, 2956.888
218.0262, 2928.223
218.5084, 2898.649
218.9905, 2869.092
219.4726, 2845.942
219.9547, 2830.638
220.4368, 2818.689
220.9189, 2807.187
221.4011, 2794.848
221.8832, 2786.492
222.3653, 2783.852
222.8474, 2785.565
223.3295, 2784.586
223.8116, 2777.793
224.2938, 2773.279
224.7759, 2776.885
225.2580, 2793.217
225.7401, 2806.224
226.2222, 2813.470
226.7043, 2816.506
227.1865, 2822.635
227.6686, 2834.104
228.1507, 2845.092
228.6328, 2851.395
229.1149, 2849.009
229.5970, 2851.668
230.0792, 2862.800
230.5613, 2879.604
231.0434, 2890.336
231.5255, 2891.850
232.0076, 2891.865
232.4897, 2894.651
232.9719, 2902.139
233.4540, 2908.064
233.9361, 2911.409
234.4182, 2913.147
234.9003, 2916.745
235.3824, 2922.989
235.8646, 2929.972
236.3467, 2936.645
236.8288, 2942.217
237.3109, 2949.232
237.7930, 2958.301
238.2751, 2968.731
238.7573, 2978.300
239.2394, 2987.139
239.7215, 2994.798
240.2036, 3000.693
240.6857, 3002.750
241.1678, 3007.673
241.6500, 3016.141
242.1321, 3027.206
242.6142, 3039.020
243.0963, 3052.931
243.5784, 3065.477
244.0605, 3074.386
244.5427, 3076.553
245.0248, 3083.305
245.5069, 3095.696
245.9890, 3112.356
246.4711, 3130.451
246.9532, 3151.834
247.4354, 3171.936
247.9175, 3188.106
248.3996, 3197.994
248.8817, 3212.320
249.3638, 3233.301
249.8459, 3257.543
250.3281, 3278.629
250.8102, 3295.025
251.2923, 3311.098
251.7744, 3328.610
252.2565, 3347.861
252.7386, 3366.759
253.2208, 3385.526
253.7029, 3403.774
254.1850, 3420.870
254.6671, 3435.426
255.1492, 3451.576
255.6313, 3470.901
256.1135, 3493.898
256.5956, 3515.769
257.0777, 3535.629
257.5598, 3554.811
258.0419, 3575.600
258.5240, 3599.682
259.0062, 3620.847
259.4883, 3636.766
259.9704, 3646.756
260.4525, 3658.379
260.9346, 3674.197
261.4167, 3688.334
261.8989, 3693.401
262.3810, 3686.853
262.8631, 3678.110
263.3452, 3669.821
263.8273, 3661.885
264.3094, 3649.951
264.7916, 3633.836
265.2737, 3613.963
265.7558, 3589.101
266.2379, 3556.882
266.7200, 3528.452
267.2021, 3507.450
267.6843, 3492.758
268.1664, 3471.814
268.6485, 3442.567
269.1306, 3411.347
269.6127, 3383.861
270.0948, 3360.950
270.5770, 3337.927
271.0591, 3313.382
271.5412, 3288.322
272.0233, 3267.683
272.5054, 3252.990
272.9875, 3239.313
273.4697, 3223.482
273.9518, 3205.226
274.4339, 3185.209
274.9160, 3162.609
275.3981, 3138.929
275.8802, 3117.826
276.3624, 3099.475
276.8445, 3084.414
277.3266, 3074.425
277.8087, 3070.021
278.2908, 3063.182
278.7729, 3052.816
279.2551, 3040.261
279.7372, 3028.184
280.2193, 3016.362
280.7014, 3006.372
281.1835, 2999.181
281.6656, 2994.769
282.1478, 2991.222
282.6299, 2988.046
283.1120, 2986.558
283.5941, 2990.378
284.0762, 2999.848
284.5583, 3007.976
285.0405, 3010.079
285.5226, 3007.098
286.0047, 3007.975
286.4868, 3013.177
286.9689, 3020.833
287.4510, 3029.637
287.9332, 3039.431
288.4153, 3047.094
288.8974, 3049.504
289.3795, 3048.610
289.8616, 3052.568
290.3438, 3061.964
290.8259, 3072.080
291.3080, 3077.710
291.7901, 3079.335
292.2722, 3080.080
292.7543, 3080.350
293.2365, 3080.656
293.7186, 3083.163
294.2007, 3087.911
294.6828, 3091.323
295.1649, 3088.796
295.6470, 3082.065
296.1292, 3076.830
296.6113, 3075.091
297.0934, 3075.080
297.5755, 3074.631
298.0576, 3073.661
298.5397, 3071.318
299.0219, 3066.484
299.5040, 3059.845
299.9861, 3052.420
300.4682, 3043.427
300.9503, 3035.820
301.4324, 3034.082
301.9146, 3037.216
302.3967, 3040.891
302.8788, 3041.857
303.3609, 3041.899
303.8430, 3043.636
304.3251, 3047.607
304.8073, 3052.559
305.2894, 3057.542
305.7715, 3062.594
306.2536, 3067.975
306.7357, 3075.251
307.2178, 3082.057
307.7000, 3085.124
308.1821, 3083.789
308.6642, 3082.347
309.1463, 3085.110
309.6284, 3089.605
310.1105, 3092.039
310.5927, 3089.011
311.0748, 3084.581
311.5569, 3081.248
312.0390, 3079.111
312.5211, 3077.903
313.0032, 3078.026
313.4854, 3078.813
313.9675, 3079.554
314.4496, 3080.487
314.9317, 3080.978
315.4138, 3079.838
315.8959, 3077.587
316.3781, 3077.188
316.8602, 3082.684
317.3423, 3088.991
317.8244, 3092.197
318.3065, 3088.799
318.7886, 3086.011
319.2708, 3086.104
319.7529, 3088.594
320.2350, 3092.146
320.7171, 3096.311
321.1992, 3101.393
321.6813, 3107.897
322.1635, 3117.243
322.6456, 3124.770
323.1277, 3127.387
323.6098, 3127.920
324.0919, 3131.134
324.5740, 3139.245
325.0562, 3148.713
325.5383, 3159.334
326.0204, 3172.204
326.5025, 3181.613
326.9846, 3183.395
327.4667, 3183.125
327.9489, 3186.784
328.4310, 3199.971
328.9131, 3210.966
329.3952, 3216.893
329.8773, 3217.591
330.3594, 3221.244
330.8416, 3229.461
331.3237, 3239.249
331.8058, 3248.502
332.2879, 3256.874
332.7700, 3265.302
333.2521, 3273.785
333.7343, 3282.411
334.2164, 3291.613
334.6985, 3300.968
335.1806, 3311.316
335.6627, 3323.173
336.1448, 3336.637
336.6270, 3351.083
337.1091, 3367.015
337.5912, 3383.347
338.0733, 3398.141
338.5554, 3411.154
339.0375, 3423.049
339.5197, 3434.387
340.0018, 3445.186
340.4839, 3453.397
340.9660, 3458.434
341.4481, 3461.829
341.9302, 3465.245
342.4124, 3468.709
342.8945, 3471.945
343.3766, 3474.637
343.8587, 3477.026
344.3408, 3481.024
344.8229, 3486.966
345.3051, 3491.981
345.7872, 3493.063
346.2693, 3490.664
346.7514, 3487.744
347.2335, 3484.960
347.7156, 3481.972
348.1978, 3477.277
348.6799, 3471.151
349.1620, 3466.742
349.6441, 3468.018
350.1262, 3472.510
350.6083, 3473.848
351.0905, 3470.640
351.5726, 3466.645
352.0547, 3467.229
352.5368, 3470.830
353.0189, 3472.720
353.5010, 3468.115
353.9832, 3461.598
354.4653, 3459.876
354.9474, 3463.417
355.4295, 3465.733
355.9116, 3459.407
356.3937, 3449.002
356.8759, 3441.475
357.3580, 3442.306
357.8401, 3444.318
358.3222, 3442.982
358.8043, 3438.559
359.2864, 3432.641
359.7686, 3426.589
360.2507, 3419.098
360.7328, 3408.952
361.2149, 3394.512
361.6970, 3379.552
362.1791, 3364.384
362.6613, 3349.716
363.1434, 3337.219
363.6255, 3330.323
364.1076, 3323.339
364.5897, 3313.321
365.0718, 3299.317
365.5540, 3285.119
366.0361, 3270.095
366.5182, 3255.682
367.0003, 3243.613
367.4824, 3237.813
367.9645, 3230.603
368.4467, 3219.369
368.9288, 3204.057
369.4109, 3190.980
369.8930, 3181.736
370.3751, 3173.592
370.8572, 3164.469
371.3394, 3151.617
371.8215, 3142.820
372.3036, 3140.373
372.7857, 3142.343
373.2678, 3141.761
373.7499, 3137.709
374.2321, 3132.629
374.7142, 3127.388
375.1963, 3121.600
375.6784, 3116.819
376.1605, 3112.626
376.6426, 3109.975
377.1248, 3111.657
377.6069, 3118.828
378.0890, 3123.220
378.5711, 3120.564
379.0532, 3112.294
379.5353, 3109.602
380.0175, 3113.214
380.4996, 3118.698
380.9817, 3121.881
381.4638, 3123.047
381.9459, 3124.713
382.4280, 3127.562
382.9102, 3130.887
383.3923, 3132.964
383.8744, 3133.937
384.3565, 3135.342
384.8386, 3137.069
385.3207, 3140.060
385.8029, 3148.373
386.2850, 3164.040
386.7671, 3176.540
387.2492, 3170.376
387.7313, 3152.641
388.2134, 3139.605
388.6956, 3142.666
389.1777, 3151.260
389.6598, 3156.282
390.1419, 3157.749
390.6240, 3158.783
391.1061, 3162.474
391.5883, 3166.303
392.0704, 3167.527
392.5525, 3163.869
393.0346, 3159.677
393.5167, 3155.070
393.9988, 3151.233
394.4810, 3151.363
394.9631, 3160.364
395.4452, 3170.667
395.9273, 3178.737
396.4094, 3184.088
396.8915, 3187.423
397.3737, 3186.626
397.8558, 3184.569
398.3379, 3184.781
398.8200, 3189.190
399.3021, 3194.147
399.7842, 3200.201
400.2664, 3207.296
400.7485, 3209.761
401.2306, 3203.135
401.7127, 3196.121
402.1948, 3194.473
402.6769, 3201.074
403.1591, 3206.841
403.6412, 3211.576
404.1233, 3215.012
404.6054, 3216.107
405.0875, 3213.825
405.5696, 3212.243
406.0518, 3212.953
406.5339, 3216.007
407.0160, 3221.028
407.4981, 3228.642
407.9802, 3236.490
408.4623, 3241.204
408.9445, 3242.919
409.4266, 3246.001
409.9087, 3252.388
410.3908, 3260.285
410.8729, 3264.206
411.3550, 3264.376
411.8372, 3266.247
412.3193, 3275.520
412.8014, 3289.294
413.2835, 3300.750
413.7656, 3308.840
414.2477, 3315.395
414.7299, 3321.199
415.2120, 3326.838
415.6941, 3333.597
416.1762, 3345.360
416.6583, 3356.340
417.1404, 3359.319
417.6226, 3354.546
418.1047, 3351.807
418.5868, 3359.259
419.0689, 3370.218
419.5510, 3378.419
420.0331, 3381.019
420.5153, 3382.063
420.9974, 3382.436
421.4795, 3382.361
421.9616, 3382.365
422.4437, 3384.630
422.9258, 3385.370
423.4080, 3382.528
423.8901, 3374.763
424.3722, 3368.053
424.8543, 3362.474
425.3364, 3358.466
425.8185, 3356.498
426.3007, 3357.042
426.7828, 3358.997
427.2649, 3362.409
427.7470, 3367.143
428.2291, 3372.675
428.7112, 3379.530
429.1934, 3386.127
429.6755, 3392.063
430.1576, 3397.646
430.6397, 3399.917
431.1218, 3397.305
431.6039, 3393.697
432.0861, 3395.870
432.5682, 3404.214
433.0503, 3412.618
433.5324, 3418.531
434.0145, 3423.039
434.4966, 3429.995
434.9788, 3439.470
435.4609, 3450.119
435.9430, 3461.299
436.4251, 3472.936
436.9072, 3484.850
437.3893, 3497.399
437.8715, 3509.503
438.3536, 3519.234
438.8357, 3527.406
439.3178, 3536.281
439.7999, 3546.835
440.2820, 3558.725
440.7642, 3571.666
441.2463, 3585.706
441.7284, 3600.164
442.2105, 3615.747
442.6926, 3631.122
443.1747, 3645.032
443.6569, 3657.553
444.1390, 3668.016
444.6211, 3674.871
445.1032, 3679.311
445.5853, 3684.590
446.0674, 3693.275
446.5496, 3701.308
447.0317, 3707.093
447.5138, 3710.046
447.9959, 3712.844
448.4780, 3716.409
448.9601, 3719.369
449.4423, 3720.229
449.9244, 3717.795
450.4065, 3715.962
450.8886, 3715.614
451.3707, 3716.307
451.8528, 3716.428
452.3350, 3716.346
452.8171, 3714.370
453.2992, 3708.604
453.7813, 3698.899
454.2634, 3690.859
454.7455, 3684.498
455.2277, 3679.638
455.7098, 3677.213
456.1919, 3676.616
456.6740, 3673.633
457.1561, 3666.177
457.6382, 3656.207
458.1204, 3647.129
458.6025, 3638.772
459.0846, 3630.395
459.5667, 3619.631
460.0488, 3609.242
460.5309, 3603.447
461.0131, 3603.712
461.4952, 3604.663
461.9773, 3602.423
462.4594, 3598.533
462.9415, 3595.200
463.4236, 3593.024
463.9058, 3591.818
464.3879, 3592.588
464.8700, 3594.878
465.3521, 3594.905
465.8342, 3587.196
466.3163, 3580.252
466.7985, 3579.068
467.2806, 3588.091
467.7627, 3595.406
468.2448, 3600.365
468.7269, 3603.612
469.2090, 3605.855
469.6912, 3605.617
470.1733, 3607.189
470.6554, 3612.259
471.1375, 3620.308
471.6196, 3626.390
472.1017, 3630.349
472.5839, 3632.750
473.0660, 3633.000
473.5481, 3631.063
474.0302, 3632.540
474.5123, 3638.639
474.9944, 3646.244
475.4766, 3650.407
475.9587, 3651.713
476.4408, 3653.794
476.9229, 3659.546
477.4050, 3666.137
477.8871, 3668.361
478.3693, 3666.618
478.8514, 3664.245
479.3335, 3662.190
479.8156, 3661.443
480.2977, 3663.876
480.7798, 3670.940
481.2620, 3677.148
481.7441, 3677.944
482.2262, 3676.082
482.7083, 3675.631
483.1904, 3676.244
483.6725, 3680.034
484.1547, 3690.869
484.6368, 3707.727
485.1189, 3718.080
485.6010, 3713.644
486.0831, 3707.311
486.5652, 3705.593
487.0474, 3710.627
487.5295, 3715.638
488.0116, 3720.285
488.4937, 3725.092
488.9758, 3731.239
489.4579, 3739.749
489.9401, 3746.523
490.4222, 3750.553
490.9043, 3752.123
491.3864, 3751.939
491.8685, 3749.584
492.3506, 3748.403
492.8328, 3753.015
493.3149, 3761.350
493.7970, 3762.978
494.2791, 3756.260
494.7612, 3747.307
495.2433, 3741.762
495.7255, 3739.396
496.2076, 3739.702
496.6897, 3745.296
497.1718, 3750.804
497.6539, 3749.716
498.1360, 3743.669
498.6182, 3738.925
499.1003, 3740.267
499.5824, 3743.088
500.0645, 3744.144
500.5466, 3742.705
501.0287, 3741.087
501.5109, 3739.346
501.9930, 3737.976
502.4751, 3737.495
502.9572, 3737.115
503.4393, 3738.669
503.9214, 3743.865
504.4036, 3751.188
504.8857, 3755.221
505.3678, 3753.818
505.8499, 3752.916
506.3320, 3755.175
506.8141, 3760.864
507.2963, 3765.840
507.7784, 3769.947
508.2605, 3773.967
508.7426, 3779.854
509.2247, 3787.277
509.7068, 3790.442
510.1890, 3786.711
510.6711, 3781.167
511.1532, 3782.988
511.6353, 3790.948
512.1174, 3799.122
512.5995, 3804.011
513.0817, 3807.680
513.5638, 3812.595
514.0459, 3818.775
514.5280, 3825.248
515.0101, 3832.445
515.4922, 3839.164
515.9744, 3843.987
516.4565, 3845.407
516.9386, 3847.509
517.4207, 3853.044
517.9028, 3859.872
518.3849, 3864.462
518.8671, 3863.100
519.3492, 3862.843
519.8313, 3865.342
520.3134, 3870.420
520.7955, 3876.063
521.2776, 3882.507
521.7598, 3889.115
522.2419, 3895.771
522.7240, 3902.861
523.2061, 3907.661
523.6882, 3909.506
524.1703, 3910.376
524.6525, 3913.226
525.1346, 3917.911
525.6167, 3921.587
526.0988, 3923.044
526.5809, 3923.620
527.0630, 3926.039
527.5452, 3929.977
528.0273, 3933.462
528.5094, 3935.405
528.9915, 3936.261
529.4736, 3935.857
529.9557, 3934.084
530.4379, 3933.768
530.9200, 3938.484
531.4021, 3944.522
531.8842, 3948.225
532.3663, 3947.705
532.8484, 3946.094
533.3306, 3943.727
533.8127, 3940.756
534.2948, 3937.548
534.7769, 3930.236
535.2590, 3927.231
535.7411, 3931.821
536.2233, 3943.724
536.7054, 3954.012
537.1875, 3964.024
537.6696, 3969.821
538.1517, 3965.825
538.6339, 3950.652
539.1160, 3946.782
539.5981, 3957.833
540.0802, 3973.636
540.5623, 3981.234
541.0444, 3981.695
541.5266, 3981.099
542.0087, 3980.277
542.4908, 3980.527
542.9729, 3985.204
543.4550, 3993.024
543.9371, 3999.082
544.4193, 3997.007
544.9014, 3994.390
545.3835, 3998.738
545.8656, 4011.043
546.3477, 4022.035
546.8298, 4027.303
547.3120, 4030.073
547.7941, 4032.909
548.2762, 4034.749
548.7583, 4038.741
549.2404, 4048.013
549.7225, 4058.680
550.2047, 4063.544
550.6868, 4058.247
551.1689, 4055.610
551.6510, 4059.312
552.1331, 4068.458
552.6152, 4077.976
553.0974, 4088.470
553.5795, 4096.598
554.0616, 4097.603
554.5437, 4093.493
555.0258, 4096.762
555.5079, 4108.921
555.9901, 4123.002
556.4722, 4131.042
556.9543, 4135.802
557.4364, 4142.905
557.9185, 4154.025
558.4006, 4167.924
558.8828, 4184.815
559.3649, 4203.697
559.8470, 4222.676
560.3291, 4240.925
560.8112, 4258.942
561.2933, 4276.479
561.7755, 4293.465
562.2576, 4312.257
562.7397, 4330.396
563.2218, 4352.450
563.7039, 4381.505
564.1860, 4421.534
564.6682, 4458.354
565.1503, 4491.132
565.6324, 4522.343
566.1145, 4554.762
566.5966, 4588.890
567.0787, 4622.701
567.5609, 4655.247
568.0430, 4688.105
568.5251, 4722.922
569.0072, 4760.217
569.4893, 4801.187
569.9714, 4847.364
570.4536, 4897.737
570.9357, 4951.144
571.4178, 5007.323
571.8999, 5066.971
572.3820, 5132.750
572.8641, 5200.319
573.3463, 5264.624
573.8284, 5324.250
574.3105, 5383.785
574.7926, 5443.667
575.2747, 5504.540
575.7568, 5567.152
576.2390, 5643.198
576.7211, 5706.469
577.2032, 5752.842
577.6853, 5784.627
578.1674, 5809.880
578.6495, 5832.369
579.1317, 5837.333
579.6138, 5818.296
580.0959, 5776.165
580.5780, 5715.760
581.0601, 5635.714
581.5422, 5546.981
582.0244, 5455.182
582.5065, 5361.491
582.9886, 5268.404
583.4707, 5173.141
583.9528, 5087.790
584.4349, 5026.575
584.9171, 4981.081
585.3992, 4938.835
585.8813, 4895.723
586.3634, 4854.509
586.8455, 4814.716
587.3276, 4777.494
587.8098, 4747.721
588.2919, 4729.692
588.7740, 4715.909
589.2561, 4704.978
589.7382, 4696.933
590.2203, 4688.465
590.7025, 4680.092
591.1846, 4670.507
591.6667, 4657.870
592.1488, 4641.690
592.6309, 4629.860
593.1130, 4623.446
593.5952, 4618.305
594.0773, 4608.009
594.5594, 4594.382
595.0415, 4585.073
595.5236, 4583.575
596.0057, 4584.069
596.4879, 4579.702
596.9700, 4572.305
597.4521, 4566.183
597.9342, 4565.704
598.4163, 4564.919
598.8984, 4559.688
599.3806, 4550.487
599.8627, 4542.666
600.3448, 4537.310
600.8269, 4533.715
601.3090, 4531.625
601.7911, 4531.360
602.2733, 4531.301
602.7554, 4531.973
603.2375, 4532.089
603.7196, 4529.744
604.2017, 4524.456
604.6838, 4521.801
605.1660, 4522.841
605.6481, 4525.803
606.1302, 4528.344
606.6123, 4530.429
607.0944, 4531.712
607.5765, 4530.773
608.0587, 4530.251
608.5408, 4534.325
609.0229, 4541.690
609.5050, 4547.884
609.9871, 4547.271
610.4692, 4547.334
610.9514, 4554.058
611.4335, 4568.326
611.9156, 4579.109
612.3977, 4581.650
612.8798, 4581.909
613.3619, 4583.521
613.8441, 4588.258
614.3262, 4589.760
614.8083, 4586.301
615.2904, 4582.038
615.7725, 4583.118
616.2546, 4590.007
616.7368, 4594.773
617.2189, 4595.815
617.7010, 4594.309
618.1831, 4591.091
618.6652, 4586.845
619.1473, 4584.304
619.6295, 4586.931
620.1116, 4590.486
620.5937, 4589.653
621.0758, 4585.448
621.5579, 4583.005
622.0400, 4586.466
622.5222, 4591.160
623.0043, 4595.071
623.4864, 4598.385
623.9685, 4598.429
624.4506, 4589.904
624.9327, 4582.236
625.4149, 4581.989
625.8970, 4591.724
626.3791, 4601.568
626.8612, 4612.083
627.3433, 4621.127
627.8254, 4624.291
628.3076, 4621.924
628.7897, 4622.091
629.2718, 4628.065
629.7539, 4635.487
630.2360, 4636.030
630.7181, 4631.884
631.2003, 4629.954
631.6824, 4635.185
632.1645, 4642.873
632.6466, 4650.690
633.1287, 4658.264
633.6108, 4663.308
634.0930, 4661.946
634.5751, 4660.538
635.0572, 4662.462
635.5393, 4668.517
636.0214, 4674.487
636.5035, 4680.810
636.9857, 4686.487
637.4678, 4690.383
637.9499, 4692.097
638.4320, 4694.772
638.9141, 4698.712
639.3962, 4703.186
639.8784, 4707.578
640.3605, 4711.724
640.8426, 4714.892
641.3247, 4716.226
641.8068, 4717.695
642.2889, 4721.886
642.7711, 4727.888
643.2532, 4733.712
643.7353, 4738.034
644.2174, 4742.366
644.6995, 4747.177
645.1816, 4752.534
645.6638, 4758.820
646.1459, 4767.083
646.6280, 4775.284
647.1101, 4783.267
647.5922, 4791.089
648.0743, 4795.496
648.5565, 4794.962
649.0386, 4794.725
649.5207, 4800.706
650.0028, 4811.624
650.4849, 4814.929
650.9670, 4808.643
651.4492, 4801.856
651.9313, 4804.317
652.4134, 4813.233
652.8955, 4824.094
653.3776, 4838.298
653.8597, 4848.916
654.3419, 4847.636
654.8240, 4841.017
655.3061, 4839.113
655.7882, 4850.713
656.2703, 4860.476
656.7524, 4865.054
657.2346, 4865.481
657.7167, 4863.647
658.1988, 4856.745
658.6809, 4854.312
659.1630, 4861.022
659.6451, 4874.990
660.1273, 4885.558
660.6094, 4892.744
661.0915, 4897.317
661.5736, 4897.093
662.0557, 4895.362
662.5378, 4899.088
663.0200, 4908.559
663.5021, 4919.728
663.9842, 4933.153
664.4663, 4944.996
664.9484, 4950.642
665.4305, 4946.594
665.9127, 4944.591
666.3948, 4949.098
666.8769, 4956.216
667.3590, 4961.642
667.8411, 4962.335
668.3232, 4968.407
668.8054, 4983.297
669.2875, 5000.881
669.7696, 5009.630
670.2517, 5009.370
670.7338, 5008.467
671.2159, 5008.816
671.6981, 5010.500
672.1802, 5013.915
672.6623, 5018.839
673.1444, 5024.637
673.6265, 5032.360
674.1086, 5039.649
674.5908, 5044.192
675.0729, 5046.406
675.5550, 5049.373
676.0371, 5054.813
676.5192, 5060.610
677.0013, 5065.431
677.4835, 5068.969
677.9656, 5075.485
678.4477, 5085.992
678.9298, 5097.786
679.4119, 5109.417
679.8940, 5121.004
680.3762, 5130.470
680.8583, 5137.688
681.3404, 5143.674
681.8225, 5149.003
682.3046, 5153.989
682.7867, 5159.111
683.2689, 5163.896
683.7510, 5170.664
684.2331, 5181.580
684.7152, 5195.220
685.1973, 5209.525
685.6794, 5225.308
686.1616, 5240.377
686.6437, 5253.838
687.1258, 5266.585
687.6079, 5280.259
688.0900, 5295.832
688.5721, 5308.961
689.0543, 5316.851
689.5364, 5322.505
690.0185, 5334.922
690.5006, 5353.946
690.9827, 5376.798
691.4648, 5406.737
691.9470, 5437.375
692.4291, 5456.860
692.9112, 5467.325
693.3933, 5480.598
693.8754, 5506.147
694.3575, 5534.630
694.8397, 5559.138
695.3218, 5578.700
695.8039, 5602.793
696.2860, 5634.664
696.7681, 5669.800
697.2502, 5706.968
697.7324, 5746.706
698.2145, 5785.280
698.6966, 5822.647
699.1787, 5859.085
699.6608, 5893.499
700.1429, 5926.647
700.6251, 5964.404
701.1072, 6008.007
701.5893, 6053.173
702.0714, 6095.153
702.5535, 6136.030
703.0356, 6179.327
703.5178, 6227.786
703.9999, 6274.699
704.4820, 6318.610
704.9641, 6358.824
705.4462, 6394.892
705.9283, 6427.278
706.4105, 6455.434
706.8926, 6480.712
707.3747, 6500.913
707.8568, 6510.750
708.3389, 6510.067
708.8210, 6502.612
709.3032, 6489.593
709.7853, 6470.624
710.2674, 6447.124
710.7495, 6417.686
711.2316, 6377.188
711.7137, 6313.471
712.1959, 6245.505
712.6780, 6187.446
713.1601, 6138.161
713.6422, 6088.667
714.1243, 6031.599
714.6064, 5977.865
715.0886, 5932.074
715.5707, 5894.048
716.0528, 5857.959
716.5349, 5823.319
717.0170, 5791.185
717.4991, 5761.519
717.9813, 5734.687
718.4634, 5711.245
718.9455, 5691.317
719.4276, 5675.343
719.9097, 5666.460
720.3918, 5660.540
720.8740, 5651.163
721.3561, 5636.182
721.8382, 5624.811
722.3203, 5626.001
722.8024, 5629.895
723.2845, 5627.505
723.7667, 5611.522
724.2488, 5600.548
724.7309, 5596.112
725.2130, 5594.870
725.6951, 5591.392
726.1772, 5584.974
726.6594, 5588.597
727.1415, 5606.681
727.6236, 5628.181
728.1057, 5639.325
728.5878, 5641.777
729.0699, 5639.238
729.5521, 5628.147
730.0342, 5620.181
730.5163, 5627.194
730.9984, 5642.109
731.4805, 5652.284
731.9626, 5651.245
732.4448, 5649.097
732.9269, 5646.175
733.4090, 5643.753
733.8911, 5646.129
734.3732, 5654.760
734.8553, 5661.886
735.3375, 5663.860
735.8196, 5663.702
736.3017, 5671.166
736.7838, 5684.750
737.2659, 5695.269
737.7480, 5693.187
738.2302, 5689.093
738.7123, 5694.157
739.1944, 5706.614
739.6765, 5717.170
740.1586, 5719.077
740.6407, 5721.544
741.1229, 5730.642
741.6050, 5745.915
742.0871, 5752.863
742.5692, 5747.697
743.0513, 5743.290
743.5334, 5747.510
744.0156, 5759.081
744.4977, 5766.256
744.9798, 5769.082
745.4619, 5772.392
745.9440, 5781.166
746.4261, 5791.869
746.9083, 5800.012
747.3904, 5805.144
747.8725, 5809.932
748.3546, 5815.771
748.8367, 5821.424
749.3188, 5824.959
749.8010, 5823.552
750.2831, 5830.548
750.7652, 5850.847
751.2473, 5871.898
751.7294, 5883.611
752.2115, 5886.004
752.6937, 5886.761
753.1758, 5885.892
753.6579, 5886.614
754.1400, 5895.639
754.6221, 5907.503
755.1042, 5911.839
755.5864, 5904.222
756.0685, 5899.354
756.5506, 5907.522
757.0327, 5921.219
757.5148, 5932.763
757.9969, 5941.962
758.4791, 5947.739
758.9612, 5948.013
759.4433, 5947.110
759.9254, 5950.401
760.4075, 5958.024
760.8896, 5966.203
761.3718, 5974.466
761.8539, 5982.542
762.3360, 5989.300
762.8181, 5995.679
763.3002, 6003.907
763.7823, 6016.204
764.2645, 6027.795
764.7466, 6035.354
765.2287, 6040.764
765.7108, 6047.111
766.1929, 6057.355
766.6750, 6065.044
767.1572, 6069.220
767.6393, 6070.966
768.1214, 6071.458
768.6035, 6070.477
769.0856, 6071.730
769.5677, 6075.921
770.0499, 6083.134
770.5320, 6097.429
771.0141, 6114.905
771.4962, 6125.574
771.9783, 6117.353
772.4604, 6109.378
772.9426, 6113.657
773.4247, 6125.370
773.9068, 6133.381
774.3889, 6135.741
774.8710, 6134.831
775.3531, 6129.049
775.8353, 6121.187
776.3174, 6120.823
776.7995, 6128.499
777.2816, 6132.827
777.7637, 6127.546
778.2458, 6118.967
778.7280, 6117.916
779.2101, 6122.685
779.6922, 6127.691
780.1743, 6128.859
780.6564, 6130.986
781.1385, 6137.241
781.6207, 6146.768
782.1028, 6155.635
782.5849, 6165.112
783.0670, 6171.298
783.5491, 6171.559
784.0313, 6168.047
784.5134, 6170.332
784.9955, 6178.476
785.4776, 6185.583
785.9597, 6186.911
786.4418, 6186.349
786.9240, 6190.408
787.4061, 6198.045
787.8882, 6205.481
788.3703, 6210.539
788.8524, 6215.063
789.3345, 6220.125
789.8167, 6225.606
790.2988, 6229.655
790.7809, 6230.298
791.2630, 6233.457
791.7451, 6242.138
792.2272, 6254.798
792.7094, 6265.577
793.1915, 6274.421
793.6736, 6281.597
794.1557, 6286.359
794.6378, 6289.999
795.1199, 6292.665
795.6021, 6295.125
796.0842, 6301.003
796.5663, 6317.500
797.0484, 6332.257
797.5305, 6337.085
798.0126, 6333.600
798.4948, 6336.339
798.9769, 6345.861
799.4590, 6360.733
799.9411, 6382.642
800.4232, 6408.890
800.9053, 6427.946
801.3875, 6440.163
801.8696, 6448.798
802.3517, 6450.660
802.8338, 6453.781
803.3159, 6468.244
803.7980, 6492.170
804.2802, 6513.521
804.7623, 6524.878
805.2444, 6536.597
805.7265, 6552.526
806.2086, 6572.085
806.6907, 6590.605
807.1729, 6607.776
807.6550, 6625.087
808.1371, 6644.013
808.6192, 6663.384
809.1013, 6678.258
809.5834, 6689.899
810.0656, 6705.481
810.5477, 6734.784
811.0298, 6764.874
811.5119, 6785.165
811.9940, 6797.154
812.4761, 6814.194
812.9583, 6841.718
813.4404, 6870.575
813.9225, 6898.668
814.4046, 6925.853
814.8867, 6951.475
815.3688, 6975.099
815.8510, 7001.986
816.3331, 7034.686
816.8152, 7072.433
817.2973, 7115.259
817.7794, 7162.052
818.2615, 7208.130
818.7437, 7252.013
819.2258, 7292.960
819.7079, 7328.319
820.1900, 7359.670
820.6721, 7397.480
821.1542, 7447.206
821.6364, 7491.523
822.1185, 7523.783
822.6006, 7546.819
823.0827, 7569.775
823.5648, 7593.041
824.0469, 7621.052
824.5291, 7661.378
825.0112, 7703.492
825.4933, 7740.880
825.9754, 7772.470
826.4575, 7795.341
826.9396, 7799.140
827.4218, 7805.070
827.9039, 7820.287
828.3860, 7841.583
828.8681, 7858.889
829.3502, 7872.989
829.8323, 7878.748
830.3145, 7872.524
830.7966, 7859.259
831.2787, 7846.958
831.7608, 7835.410
832.2429, 7824.433
832.7250, 7816.315
833.2072, 7806.089
833.6893, 7789.816
834.1714, 7769.455
834.6535, 7750.474
835.1356, 7737.177
835.6177, 7717.551
836.0999, 7685.042
836.5820, 7648.919
837.0641, 7632.129
837.5462, 7633.041
838.0283, 7633.262
838.5104, 7627.305
838.9926, 7617.479
839.4747, 7605.266
839.9568, 7591.218
840.4389, 7576.124
840.9210, 7556.181
841.4031, 7540.230
841.8853, 7532.518
842.3674, 7528.681
842.8495, 7522.424
843.3316, 7512.569
843.8137, 7507.041
844.2958, 7509.163
844.7780, 7510.612
845.2601, 7494.952
845.7422, 7469.337
846.2243, 7451.353
846.7064, 7448.450
847.1885, 7447.098
847.6707, 7437.478
848.1528, 7426.134
848.6349, 7421.220
849.1170, 7431.651
849.5991, 7432.935
850.0812, 7420.753
850.5634, 7405.880
851.0455, 7401.705
851.5276, 7406.678
852.0097, 7407.830
852.4918, 7403.080
852.9739, 7397.867
853.4561, 7393.626
853.9382, 7393.521
854.4203, 7402.121
854.9024, 7422.854
855.3845, 7443.283
855.8666, 7460.475
856.3488, 7477.169
856.8309, 7494.083
857.3130, 7510.745
857.7951, 7531.056
858.2772, 7554.654
858.7593, 7582.341
859.2415, 7616.725
859.7236, 7654.714
860.2057, 7692.616
860.6878, 7729.891
861.1699, 7765.151
861.6520, 7795.248
862.1342, 7825.564
862.6163, 7859.610
863.0984, 7897.147
863.5805, 7938.066
864.0626, 7982.077
864.5447, 8030.290
865.0269, 8084.047
865.5090, 8142.783
865.9911, 8202.048
866.4732, 8262.096
866.9553, 8326.345
867.4374, 8394.010
867.9196, 8468.682
868.4017, 8551.020
868.8838, 8640.993
869.3659, 8739.662
869.8480, 8845.028
870.3301, 8959.138
870.8123, 9080.916
871.2944, 9213.516
871.7765, 9372.167
872.2586, 9553.629
872.7407, 9747.371
873.2228, 9945.319
873.7050, 10154.30
874.1871, 10382.76
874.6692, 10626.55
875.1513, 10880.70
875.6334, 11138.12
876.1155, 11411.43
876.5977, 11706.85
877.0798, 12017.43
877.5619, 12330.23
878.0440, 12644.78
878.5261, 12966.82
879.0082, 13300.07
879.4904, 13646.24
879.9725, 14021.49
880.4546, 14414.23
880.9367, 14805.24
881.4188, 15192.54
881.9009, 15570.04
882.3831, 15940.24
882.8652, 16298.61
883.3473, 16640.10
883.8294, 16983.83
884.3115, 17253.23
884.7936, 17446.00
885.2758, 17564.33
885.7579, 17615.11
886.2400, 17592.42
886.7221, 17481.85
887.2042, 17281.52
887.6863, 16998.69
888.1685, 16619.17
888.6506, 16170.61
889.1327, 15657.66
889.6148, 15070.18
890.0969, 14491.31
890.5790, 13905.55
891.0612, 13353.49
891.5433, 12857.59
892.0254, 12413.30
892.5075, 12014.28
892.9896, 11658.56
893.4717, 11344.59
893.9539, 11081.34
894.4360, 10845.16
894.9181, 10621.05
895.4002, 10408.43
895.8823, 10219.64
896.3644, 10060.09
896.8466, 9911.029
897.3287, 9767.381
897.8108, 9629.762
898.2929, 9495.209
898.7750, 9364.634
899.2571, 9240.072
899.7393, 9125.680
900.2214, 9012.747
900.7035, 8891.538
901.1856, 8768.239
901.6677, 8655.814
902.1498, 8558.147
902.6320, 8468.677
903.1141, 8387.686
903.5962, 8312.619
904.0783, 8240.661
904.5604, 8171.596
905.0425, 8112.438
905.5247, 8065.208
906.0068, 8021.302
906.4889, 7968.062
906.9710, 7916.136
907.4531, 7878.158
907.9352, 7858.340
908.4174, 7843.677
908.8995, 7834.807
909.3816, 7827.305
909.8637, 7818.097
910.3458, 7807.091
910.8279, 7800.024
911.3101, 7796.888
911.7922, 7796.663
912.2743, 7795.785
912.7564, 7799.223
913.2385, 7814.931
913.7206, 7841.427
914.2028, 7866.738
914.6849, 7881.573
915.1670, 7901.758
915.6491, 7934.542
916.1312, 7975.698
916.6133, 8007.074
917.0955, 8028.659
917.5776, 8054.001
918.0597, 8089.513
918.5418, 8129.642
919.0239, 8168.129
919.5060, 8206.177
919.9882, 8245.454
920.4703, 8286.050
920.9524, 8329.084
921.4345, 8374.123
921.9166, 8421.353
922.3987, 8469.632
922.8809, 8518.614
923.3630, 8576.752
923.8451, 8645.946
924.3272, 8720.078
924.8093, 8793.295
925.2914, 8866.600
925.7736, 8939.174
926.2557, 9010.605
926.7378, 9086.776
927.2199, 9175.922
927.7020, 9263.368
928.1841, 9342.793
928.6663, 9413.931
929.1484, 9478.147
929.6305, 9536.333
930.1126, 9580.111
930.5947, 9608.025
931.0768, 9616.716
931.5590, 9597.583
932.0411, 9553.986
932.5232, 9501.448
933.0053, 9445.807
933.4874, 9379.195
933.9695, 9296.242
934.4517, 9203.205
934.9338, 9110.793
935.4159, 9019.627
935.8980, 8936.582
936.3801, 8866.865
936.8622, 8801.875
937.3444, 8733.647
937.8265, 8664.400
938.3086, 8596.674
938.7907, 8533.839
939.2728, 8468.197
939.7549, 8393.184
940.2371, 8320.938
940.7192, 8261.467
941.2013, 8215.428
941.6834, 8163.446
942.1655, 8104.340
942.6476, 8052.660
943.1298, 8028.132
943.6119, 8013.388
944.0940, 7986.363
944.5761, 7946.351
945.0582, 7918.313
945.5403, 7916.926
946.0225, 7917.884
946.5046, 7913.892
946.9867, 7906.465
947.4688, 7900.781
947.9509, 7897.031
948.4330, 7897.026
948.9152, 7903.918
949.3973, 7911.600
949.8794, 7911.630
950.3615, 7908.837
950.8436, 7911.810
951.3257, 7930.211
951.8079, 7943.502
952.2900, 7948.733
952.7721, 7951.089
953.2542, 7957.392
953.7363, 7966.876
954.2184, 7973.542
954.7006, 7976.659
955.1827, 7978.166
955.6648, 7979.915
956.1469, 7980.708
956.6290, 7980.099
957.1111, 7978.280
957.5933, 7970.705
958.0754, 7950.791
958.5575, 7938.680
959.0396, 7948.926
959.5217, 7972.541
960.0038, 7976.040
960.4860, 7962.924
960.9681, 7951.376
961.4502, 7951.502
961.9323, 7955.647
962.4144, 7960.849
962.8965, 7966.573
963.3787, 7971.662
963.8608, 7975.945
964.3429, 7979.255
964.8250, 7980.505
965.3071, 7983.246
965.7892, 7991.849
966.2714, 8005.766
966.7535, 8026.221
967.2356, 8054.786
967.7177, 8077.805
968.1998, 8080.228
968.6819, 8080.096
969.1641, 8090.561
969.6462, 8112.621
970.1283, 8134.384
970.6104, 8156.502
971.0925, 8176.185
971.5746, 8192.338
972.0568, 8204.916
972.5389, 8213.172
973.0210, 8217.828
973.5031, 8221.068
973.9852, 8227.771
974.4673, 8228.213
974.9495, 8217.361
975.4316, 8200.115
975.9137, 8184.889
976.3958, 8172.071
976.8779, 8156.088
977.3600, 8135.462
977.8422, 8114.487
978.3243, 8095.833
978.8064, 8080.302
979.2885, 8070.328
979.7706, 8067.987
980.2527, 8062.426
980.7349, 8048.048
981.2170, 8035.304
981.6991, 8030.634
982.1812, 8032.754
982.6633, 8032.051
983.1454, 8028.802
983.6276, 8027.041
984.1097, 8029.147
984.5918, 8033.469
985.0739, 8041.232
985.5560, 8050.038
986.0381, 8053.059
986.5203, 8046.574
987.0024, 8041.005
987.4845, 8036.353
987.9666, 8035.752
988.4487, 8049.896
988.9308, 8071.626
989.4130, 8077.803
989.8951, 8062.602
990.3772, 8047.868
990.8593, 8046.936
991.3414, 8050.892
991.8235, 8052.646
992.3057, 8051.636
992.7878, 8058.987
993.2699, 8076.919
993.7520, 8089.782
994.2341, 8084.842
994.7162, 8072.747
995.1984, 8072.036
995.6805, 8079.414
996.1626, 8085.948
996.6447, 8085.727
997.1268, 8087.643
997.6089, 8094.028
998.0911, 8103.087
998.5732, 8113.395
999.0553, 8124.936
999.5374, 8131.501
1000.020, 8131.581
1000.502, 8132.293
1000.984, 8142.440
1001.466, 8154.803
1001.948, 8161.358
1002.430, 8160.427
1002.912, 8163.701
1003.394, 8175.532
1003.876, 8183.958
1004.359, 8180.429
1004.841, 8172.239
1005.323, 8187.366
1005.805, 8219.354
1006.287, 8240.977
1006.769, 8232.193
1007.251, 8221.194
1007.733, 8222.666
1008.216, 8230.673
1008.698, 8236.532
1009.180, 8239.092
1009.662, 8243.508
1010.144, 8249.858
1010.626, 8258.690
1011.108, 8272.517
1011.590, 8287.936
1012.072, 8299.770
1012.555, 8307.783
1013.037, 8314.229
1013.519, 8316.414
1014.001, 8321.205
1014.483, 8331.447
1014.965, 8345.699
1015.447, 8359.869
1015.929, 8373.839
1016.411, 8384.639
1016.894, 8388.394
1017.376, 8395.551
1017.858, 8422.155
1018.340, 8454.291
1018.822, 8473.616
1019.304, 8471.674
1019.786, 8473.274
1020.268, 8479.381
1020.751, 8486.741
1021.233, 8489.904
1021.715, 8493.165
1022.197, 8512.607
1022.679, 8544.960
1023.161, 8569.436
1023.643, 8563.807
1024.125, 8561.420
1024.607, 8577.556
1025.090, 8605.086
1025.572, 8631.141
1026.054, 8655.990
1026.536, 8675.424
1027.018, 8687.832
1027.500, 8699.345
1027.982, 8716.050
1028.464, 8735.749
1028.947, 8756.318
1029.429, 8777.595
1029.911, 8798.421
1030.393, 8819.185
1030.875, 8839.106
1031.357, 8855.830
1031.839, 8872.196
1032.321, 8896.588
1032.803, 8928.856
1033.286, 8969.085
1033.768, 9028.729
1034.250, 9082.804
1034.732, 9112.196
1035.214, 9133.811
1035.696, 9172.399
1036.178, 9232.099
1036.660, 9286.809
1037.143, 9334.813
1037.625, 9380.674
1038.107, 9432.275
1038.589, 9483.451
1039.071, 9529.733
1039.553, 9570.115
1040.035, 9591.785
1040.517, 9593.678
1041.000, 9573.643
1041.482, 9528.117
1041.964, 9463.438
1042.446, 9392.803
1042.928, 9316.797
1043.410, 9238.375
1043.892, 9154.584
1044.374, 9080.254
1044.856, 9030.510
1045.339, 8992.489
1045.821, 8952.965
1046.303, 8909.924
1046.785, 8881.521
1047.267, 8869.148
1047.749, 8859.734
1048.231, 8841.897
1048.713, 8824.345
1049.195, 8821.043
1049.677, 8827.463
1050.160, 8830.633
1050.642, 8815.882
1051.124, 8814.482
1051.606, 8835.283
1052.088, 8862.258
1052.570, 8873.674
1053.052, 8872.620
1053.534, 8868.192
1054.017, 8861.193
1054.499, 8859.784
1054.981, 8875.569
1055.463, 8892.682
1055.945, 8901.279
1056.427, 8902.432
1056.909, 8900.142
1057.391, 8893.862
1057.874, 8891.997
1058.356, 8899.388
1058.838, 8908.483
1059.320, 8909.814
1059.802, 8907.049
1060.284, 8904.865
1060.766, 8901.370
1061.248, 8907.566
1061.730, 8930.224
1062.213, 8949.697
1062.695, 8949.399
1063.177, 8934.678
1063.659, 8922.707
1064.141, 8913.701
1064.623, 8909.042
1065.105, 8908.807
1065.587, 8913.598
1066.070, 8930.159
1066.552, 8948.359
1067.034, 8949.982
1067.516, 8934.139
1067.998, 8928.623
1068.480, 8937.044
1068.962, 8952.071
1069.444, 8973.206
1069.927, 8993.482
1070.409, 9005.955
1070.891, 9009.912
1071.373, 9014.613
1071.855, 9020.205
1072.337, 9027.076
1072.819, 9034.719
1073.301, 9045.003
1073.783, 9063.471
1074.266, 9086.909
1074.748, 9108.520
1075.230, 9125.545
1075.712, 9143.225
1076.194, 9162.970
1076.676, 9183.848
1077.158, 9205.033
1077.640, 9226.782
1078.122, 9253.173
1078.604, 9283.860
1079.087, 9316.079
1079.569, 9350.850
1080.051, 9383.886
1080.533, 9410.297
1081.015, 9433.527
1081.497, 9460.092
1081.979, 9489.561
1082.461, 9524.950
1082.944, 9568.030
1083.426, 9605.736
1083.908, 9617.501
1084.390, 9621.469
1084.872, 9642.715
1085.354, 9680.602
1085.836, 9707.393
1086.318, 9716.502
1086.801, 9720.647
1087.283, 9722.509
1087.765, 9721.494
1088.247, 9718.201
1088.729, 9710.918
1089.211, 9693.202
1089.693, 9660.936
1090.175, 9632.548
1090.657, 9620.536
1091.140, 9610.052
1091.622, 9593.932
1092.104, 9572.284
1092.586, 9544.967
1093.068, 9512.285
1093.550, 9479.393
1094.032, 9445.545
1094.514, 9416.311
1094.997, 9399.334
1095.479, 9387.827
1095.961, 9371.832
1096.443, 9348.278
1096.925, 9328.855
1097.407, 9313.260
1097.889, 9303.489
1098.371, 9305.906
1098.854, 9311.853
1099.336, 9310.910
1099.818, 9303.752
1100.300, 9294.075
1100.782, 9278.942
1101.264, 9268.009
1101.746, 9263.400
1102.228, 9261.701
1102.710, 9258.199
1103.193, 9254.165
1103.675, 9253.480
1104.157, 9256.644
1104.639, 9258.089
1105.121, 9249.916
1105.603, 9246.461
1106.085, 9256.080
1106.567, 9272.644
1107.049, 9276.107
1107.531, 9267.988
1108.014, 9259.029
1108.496, 9250.150
1108.978, 9247.498
1109.460, 9259.126
1109.942, 9276.014
1110.424, 9290.506
1110.906, 9302.349
1111.388, 9314.143
1111.871, 9326.188
1112.353, 9333.299
1112.835, 9330.200
1113.317, 9324.426
1113.799, 9323.426
1114.281, 9325.787
1114.763, 9329.389
1115.245, 9336.000
1115.728, 9338.871
1116.210, 9336.545
1116.692, 9335.757
1117.174, 9345.021
1117.656, 9358.254
1118.138, 9361.779
1118.620, 9358.479
1119.102, 9361.225
1119.584, 9382.008
1120.067, 9398.076
1120.549, 9403.986
1121.031, 9406.577
1121.513, 9417.857
1121.995, 9433.451
1122.477, 9435.340
1122.959, 9422.217
1123.441, 9413.444
1123.924, 9425.192
1124.406, 9436.776
1124.888, 9437.377
1125.370, 9432.387
1125.852, 9438.732
1126.334, 9455.193
1126.816, 9465.878
1127.298, 9466.429
1127.781, 9464.805
1128.263, 9464.878
1128.745, 9467.029
1129.227, 9473.311
1129.709, 9483.307
1130.191, 9485.205
1130.673, 9478.290
1131.155, 9474.838
1131.637, 9480.846
1132.120, 9490.416
1132.602, 9497.167
1133.084, 9503.537
1133.566, 9513.240
1134.048, 9528.572
1134.530, 9540.322
1135.012, 9547.816
1135.494, 9554.180
1135.976, 9561.444
1136.458, 9568.973
1136.941, 9576.388
1137.423, 9583.157
1137.905, 9587.935
1138.387, 9582.475
1138.869, 9588.954
1139.351, 9613.381
1139.833, 9638.982
1140.315, 9645.713
1140.798, 9641.889
1141.280, 9649.716
1141.762, 9667.511
1142.244, 9678.688
1142.726, 9668.393
1143.208, 9661.448
1143.690, 9664.293
1144.172, 9671.886
1144.655, 9676.660
1145.137, 9679.519
1145.619, 9684.638
1146.101, 9692.609
1146.583, 9700.799
1147.065, 9706.334
1147.547, 9713.975
1148.029, 9728.248
1148.511, 9745.146
1148.994, 9751.857
1149.476, 9749.510
1149.958, 9747.157
1150.440, 9746.080
1150.922, 9749.279
1151.404, 9761.861
1151.886, 9776.981
1152.368, 9790.207
1152.851, 9801.223
1153.333, 9806.101
1153.815, 9804.639
1154.297, 9811.938
1154.779, 9838.798
1155.261, 9864.412
1155.743, 9864.450
1156.225, 9855.108
1156.708, 9856.123
1157.190, 9870.407
1157.672, 9877.773
1158.154, 9877.282
1158.636, 9878.920
1159.118, 9894.467
1159.600, 9908.310
1160.082, 9893.299
1160.564, 9867.400
1161.047, 9863.510
1161.529, 9901.085
1162.011, 9924.382
1162.493, 9931.752
1162.975, 9931.830
1163.457, 9928.146
1163.939, 9923.351
1164.421, 9918.592
1164.903, 9915.764
1165.385, 9920.854
1165.868, 9942.668
1166.350, 9957.110
1166.832, 9959.945
1167.314, 9961.184
1167.796, 9972.823
1168.278, 9989.171
1168.760, 10000.62
1169.242, 10007.05
1169.725, 10011.42
1170.207, 10009.80
1170.689, 10014.58
1171.171, 10030.41
1171.653, 10048.23
1172.135, 10052.23
1172.617, 10049.17
1173.099, 10056.66
1173.582, 10076.28
1174.064, 10090.40
1174.546, 10086.43
1175.028, 10083.55
1175.510, 10086.00
1175.992, 10092.80
1176.474, 10102.93
1176.956, 10115.64
1177.438, 10130.31
1177.921, 10147.84
1178.403, 10158.11
1178.885, 10144.59
1179.367, 10138.16
1179.849, 10154.59
1180.331, 10184.45
1180.813, 10198.79
1181.295, 10200.52
1181.778, 10199.73
1182.260, 10198.07
1182.742, 10198.40
1183.224, 10202.46
1183.706, 10208.64
1184.188, 10216.51
1184.670, 10225.61
1185.152, 10231.67
1185.635, 10235.91
1186.117, 10246.08
1186.599, 10270.76
1187.081, 10289.74
1187.563, 10287.54
1188.045, 10280.03
1188.527, 10278.54
1189.009, 10282.77
1189.491, 10288.36
1189.974, 10295.57
1190.456, 10306.42
1190.938, 10328.40
1191.420, 10345.50
1191.902, 10346.58
1192.384, 10341.15
1192.866, 10337.58
1193.348, 10335.84
1193.830, 10339.14
1194.313, 10347.22
1194.795, 10357.06
1195.277, 10367.44
1195.759, 10378.45
1196.241, 10391.54
1196.723, 10404.32
1197.205, 10414.23
1197.687, 10421.36
1198.169, 10422.50
1198.652, 10417.83
1199.134, 10414.63
1199.616, 10421.72
1200.098, 10427.86
1200.580, 10422.52
1201.062, 10413.72
1201.544, 10415.50
1202.026, 10428.19
1202.509, 10439.10
1202.991, 10447.08
1203.473, 10454.55
1203.955, 10462.22
1204.437, 10470.90
1204.919, 10480.46
1205.401, 10491.62
1205.883, 10507.88
1206.365, 10529.51
1206.848, 10542.28
1207.330, 10543.90
1207.812, 10542.82
1208.294, 10541.78
1208.776, 10543.82
1209.258, 10554.81
1209.740, 10570.06
1210.222, 10575.44
1210.705, 10570.94
1211.187, 10568.04
1211.669, 10568.53
1212.151, 10573.92
1212.633, 10591.53
1213.115, 10609.21
1213.597, 10616.33
1214.079, 10615.99
1214.562, 10617.94
1215.044, 10622.25
1215.526, 10631.88
1216.008, 10649.04
1216.490, 10663.29
1216.972, 10660.55
1217.454, 10656.72
1217.936, 10665.10
1218.418, 10682.91
1218.901, 10696.12
1219.383, 10704.93
1219.865, 10714.04
1220.347, 10724.94
1220.829, 10735.48
1221.311, 10745.69
1221.793, 10753.21
1222.275, 10755.57
1222.757, 10753.79
1223.240, 10755.27
1223.722, 10759.86
1224.204, 10764.59
1224.686, 10768.97
1225.168, 10772.38
1225.650, 10772.17
1226.132, 10773.32
1226.614, 10780.71
1227.096, 10793.25
1227.579, 10800.18
1228.061, 10801.99
1228.543, 10802.01
1229.025, 10797.74
1229.507, 10800.59
1229.989, 10826.84
1230.471, 10854.16
1230.953, 10863.54
1231.436, 10857.46
1231.918, 10859.28
1232.400, 10868.26
1232.882, 10880.21
1233.364, 10898.03
1233.846, 10909.72
1234.328, 10904.12
1234.810, 10894.91
1235.292, 10890.36
1235.775, 10890.92
1236.257, 10903.36
1236.739, 10925.00
1237.221, 10941.47
1237.703, 10943.92
1238.185, 10944.47
1238.667, 10944.31
1239.149, 10947.31
1239.632, 10958.83
1240.114, 10976.29
1240.596, 10983.41
1241.078, 10982.87
1241.560, 10986.37
1242.042, 11002.27
1242.524, 11018.46
1243.006, 11034.18
1243.489, 11046.17
1243.971, 11048.98
1244.453, 11045.95
1244.935, 11051.21
1245.417, 11063.23
1245.899, 11075.99
1246.381, 11088.11
1246.863, 11099.53
1247.345, 11111.17
1247.828, 11120.58
1248.310, 11124.41
1248.792, 11124.71
1249.274, 11125.66
1249.756, 11127.93
1250.238, 11133.35
1250.720, 11145.40
1251.202, 11156.67
1251.684, 11166.64
1252.167, 11175.51
1252.649, 11183.30
1253.131, 11190.09
1253.613, 11195.88
1254.095, 11200.82
1254.577, 11205.52
1255.059, 11208.55
1255.541, 11213.96
1256.023, 11221.92
1256.506, 11232.06
1256.988, 11245.76
1257.470, 11260.41
1257.952, 11274.70
1258.434, 11286.78
1258.916, 11289.86
1259.398, 11278.56
1259.880, 11273.32
1260.363, 11275.52
1260.845, 11283.25
1261.327, 11300.69
1261.809, 11318.05
1262.291, 11323.13
1262.773, 11320.28
1263.255, 11322.63
1263.737, 11333.18
1264.219, 11333.91
1264.702, 11322.56
1265.184, 11316.29
1265.666, 11336.34
1266.148, 11358.90
1266.630, 11360.79
1267.112, 11353.55
1267.594, 11363.50
1268.076, 11392.42
1268.559, 11411.71
1269.041, 11419.52
1269.523, 11422.94
1270.005, 11424.18
1270.487, 11425.43
1270.969, 11427.41
1271.451, 11430.45
1271.933, 11436.06
1272.416, 11443.74
1272.898, 11445.83
1273.380, 11442.67
1273.862, 11445.04
1274.344, 11466.73
1274.826, 11485.34
1275.308, 11491.65
1275.790, 11493.27
1276.272, 11498.63
1276.755, 11507.53
1277.237, 11522.29
1277.719, 11541.26
1278.201, 11553.53
1278.683, 11547.57
1279.165, 11543.26
1279.647, 11543.36
1280.129, 11547.95
1280.611, 11560.30
1281.094, 11575.94
1281.576, 11583.04
1282.058, 11583.72
1282.540, 11591.15
1283.022, 11615.87
1283.504, 11633.69
1283.986, 11641.83
1284.468, 11643.95
1284.950, 11640.55
1285.433, 11635.57
1285.915, 11630.90
1286.397, 11629.16
1286.879, 11641.75
1287.361, 11676.82
1287.843, 11692.40
1288.325, 11682.57
1288.807, 11671.73
1289.290, 11685.05
1289.772, 11702.72
1290.254, 11703.38
1290.736, 11696.39
1291.218, 11706.90
1291.700, 11737.07
1292.182, 11753.54
1292.664, 11754.02
1293.146, 11752.94
1293.629, 11759.72
1294.111, 11768.48
1294.593, 11774.86
1295.075, 11781.91
1295.557, 11797.63
1296.039, 11819.30
1296.521, 11819.43
1297.003, 11799.32
1297.486, 11784.32
1297.968, 11790.10
1298.450, 11803.62
1298.932, 11826.33
1299.414, 11847.22
1299.896, 11851.89
1300.378, 11845.86
1300.860, 11841.02
1301.343, 11839.74
1301.825, 11847.75
##END=



