##NAMES=Vuoriyarvite-K
##RRUFFID=R070703
##IDEAL CHEMISTRY=(K,Na,[box])_12_Nb^5+^_8_(Si_4_O_12_)_4_O_8_&#183;12-16H_2_O
##LOCALITY=Vein No. 46,  Kirovskii apatite mine (Kirovsky Mine; Kirov Mine),  Kukisvumchorr Mt,  Khibiny Massif,  Kola Peninsula,  Murmanskaja Oblast',  Northern Region,  Russia
##OWNER=RRUFF
##SOURCE=Michael Scott
##DESCRIPTION=Light tan, compact mass of micro-crystals associated with calcite and greenish sodalite
##STATUS=The identification of this mineral is not yet confirmed.
##URL=rruff.info/R070703
137.3994, 24667.63
137.8815, 24734.38
138.3636, 24763.68
138.8457, 24739.52
139.3279, 24706.62
139.8100, 24740.75
140.2921, 24868.29
140.7742, 24977.98
141.2563, 25018.60
141.7384, 24962.11
142.2206, 24938.92
142.7027, 24950.61
143.1848, 24993.92
143.6669, 25066.46
144.1490, 25185.17
144.6311, 25306.13
145.1133, 25401.77
145.5954, 25458.82
146.0775, 25517.32
146.5596, 25584.34
147.0417, 25659.13
147.5238, 25722.64
148.0060, 25767.99
148.4881, 25807.38
148.9702, 25849.94
149.4523, 25873.18
149.9344, 25925.71
150.4165, 26030.17
150.8987, 26220.77
151.3808, 26354.86
151.8629, 26390.63
152.3450, 26380.19
152.8271, 26399.94
153.3092, 26481.69
153.7914, 26569.02
154.2735, 26640.93
154.7556, 26672.10
155.2377, 26726.00
155.7198, 26834.13
156.2019, 26974.75
156.6841, 27081.40
157.1662, 27114.05
157.6483, 27127.77
158.1304, 27153.60
158.6125, 27192.69
159.0946, 27250.38
159.5768, 27344.04
160.0589, 27469.95
160.5410, 27570.39
161.0231, 27603.08
161.5052, 27612.28
161.9873, 27641.38
162.4695, 27707.06
162.9516, 27792.88
163.4337, 27896.29
163.9158, 28019.87
164.3979, 28139.60
164.8800, 28242.44
165.3622, 28334.16
165.8443, 28424.26
166.3264, 28520.82
166.8085, 28614.72
167.2906, 28696.79
167.7727, 28757.75
168.2549, 28824.96
168.7370, 28921.49
169.2191, 29039.53
169.7012, 29156.36
170.1833, 29257.87
170.6654, 29351.51
171.1476, 29445.57
171.6297, 29546.60
172.1118, 29642.34
172.5939, 29718.58
173.0760, 29776.65
173.5581, 29833.10
174.0403, 29901.99
174.5224, 29976.39
175.0045, 30045.36
175.4866, 30083.32
175.9687, 30122.61
176.4508, 30207.36
176.9330, 30339.93
177.4151, 30484.37
177.8972, 30623.33
178.3793, 30752.23
178.8614, 30856.36
179.3435, 30896.01
179.8257, 30914.30
180.3078, 30991.56
180.7899, 31140.59
181.2720, 31319.22
181.7541, 31491.90
182.2362, 31657.65
182.7184, 31806.56
183.2005, 31930.83
183.6826, 32034.32
184.1647, 32130.23
184.6468, 32216.22
185.1289, 32299.66
185.6111, 32385.08
186.0932, 32473.97
186.5753, 32576.76
187.0574, 32718.64
187.5395, 32887.93
188.0216, 33033.62
188.5037, 33136.14
188.9859, 33209.63
189.4680, 33280.79
189.9501, 33347.17
190.4322, 33426.88
190.9143, 33541.31
191.3964, 33687.27
191.8786, 33840.82
192.3607, 34002.61
192.8428, 34164.78
193.3249, 34282.88
193.8070, 34346.78
194.2891, 34398.83
194.7713, 34501.93
195.2534, 34659.52
195.7355, 34807.59
196.2176, 34908.86
196.6997, 34966.25
197.1818, 35058.21
197.6640, 35192.63
198.1461, 35350.61
198.6282, 35506.93
199.1103, 35664.73
199.5924, 35799.18
200.0745, 35876.40
200.5567, 35888.24
201.0388, 35961.64
201.5209, 36117.15
202.0030, 36327.89
202.4851, 36537.71
202.9672, 36756.92
203.4494, 36932.07
203.9315, 36993.71
204.4136, 36912.97
204.8957, 36921.78
205.3778, 37081.49
205.8599, 37353.20
206.3421, 37540.85
206.8242, 37626.95
207.3063, 37674.27
207.7884, 37732.61
208.2705, 37803.43
208.7526, 37885.70
209.2348, 37981.12
209.7169, 38089.95
210.1990, 38212.27
210.6811, 38361.42
211.1632, 38503.62
211.6453, 38591.46
212.1275, 38597.52
212.6096, 38632.98
213.0917, 38747.07
213.5738, 38951.31
214.0559, 39071.32
214.5380, 39063.80
215.0202, 39015.98
215.5023, 39076.24
215.9844, 39296.51
216.4665, 39501.35
216.9486, 39620.14
217.4307, 39628.13
217.9129, 39657.95
218.3950, 39718.56
218.8771, 39796.71
219.3592, 39868.45
219.8413, 39940.90
220.3234, 39995.01
220.8056, 40012.91
221.2877, 39963.77
221.7698, 39967.52
222.2519, 40055.41
222.7340, 40191.61
223.2161, 40257.64
223.6983, 40221.82
224.1804, 40162.04
224.6625, 40122.19
225.1446, 40112.87
225.6267, 40096.04
226.1088, 40067.21
226.5910, 40027.70
227.0731, 39986.79
227.5552, 39952.58
228.0373, 39906.86
228.5194, 39832.77
229.0015, 39711.62
229.4836, 39608.39
229.9658, 39548.79
230.4479, 39527.72
230.9300, 39444.41
231.4121, 39267.18
231.8942, 39063.56
232.3763, 38894.52
232.8585, 38778.83
233.3406, 38665.77
233.8227, 38548.74
234.3048, 38427.98
234.7869, 38304.25
235.2690, 38178.88
235.7512, 38048.46
236.2333, 37908.75
236.7154, 37758.90
237.1975, 37601.71
237.6796, 37434.37
238.1617, 37256.57
238.6439, 37075.54
239.1260, 36884.66
239.6081, 36695.61
240.0902, 36528.19
240.5723, 36401.70
241.0544, 36261.69
241.5366, 36081.63
242.0187, 35837.89
242.5008, 35648.06
242.9829, 35537.27
243.4650, 35466.45
243.9471, 35367.50
244.4293, 35232.21
244.9114, 35079.44
245.3935, 34912.29
245.8756, 34716.37
246.3577, 34543.04
246.8398, 34398.19
247.3220, 34272.81
247.8041, 34139.18
248.2862, 33952.29
248.7683, 33823.37
249.2504, 33834.84
249.7325, 34142.48
250.2147, 34203.75
250.6968, 33907.64
251.1789, 33385.28
251.6610, 33021.71
252.1431, 32886.11
252.6252, 32806.02
253.1074, 32693.88
253.5895, 32515.61
254.0716, 32391.80
254.5537, 32352.44
255.0358, 32371.16
255.5179, 32348.66
256.0001, 32271.37
256.4822, 32174.89
256.9643, 32075.12
257.4464, 31965.69
257.9285, 31872.62
258.4106, 31803.68
258.8928, 31752.55
259.3749, 31686.48
259.8570, 31593.27
260.3391, 31502.14
260.8212, 31435.67
261.3033, 31403.38
261.7855, 31367.50
262.2676, 31323.74
262.7497, 31272.32
263.2318, 31215.20
263.7139, 31155.52
264.1960, 31083.82
264.6782, 30984.17
265.1603, 30838.30
265.6424, 30723.38
266.1245, 30659.59
266.6066, 30639.49
267.0887, 30595.28
267.5709, 30523.71
268.0530, 30435.35
268.5351, 30336.78
269.0172, 30223.88
269.4993, 30116.44
269.9814, 30015.60
270.4636, 29921.90
270.9457, 29852.57
271.4278, 29815.95
271.9099, 29787.29
272.3920, 29741.95
272.8741, 29676.03
273.3563, 29611.64
273.8384, 29553.08
274.3205, 29500.00
274.8026, 29451.44
275.2847, 29409.82
275.7668, 29366.54
276.2490, 29310.74
276.7311, 29239.80
277.2132, 29171.53
277.6953, 29109.01
278.1774, 29052.07
278.6595, 29012.07
279.1417, 28994.10
279.6238, 28978.57
280.1059, 28935.39
280.5880, 28860.39
281.0701, 28809.63
281.5522, 28810.80
282.0344, 28854.24
282.5165, 28872.25
282.9986, 28862.45
283.4807, 28837.13
283.9628, 28807.35
284.4449, 28773.17
284.9271, 28738.88
285.4092, 28705.78
285.8913, 28673.79
286.3734, 28635.65
286.8555, 28587.14
287.3376, 28549.89
287.8198, 28554.71
288.3019, 28599.38
288.7840, 28649.53
289.2661, 28699.02
289.7482, 28744.01
290.2303, 28770.44
290.7124, 28776.66
291.1945, 28770.64
291.6767, 28756.47
292.1588, 28735.44
292.6409, 28718.05
293.1230, 28724.15
293.6051, 28736.03
294.0872, 28690.13
294.5694, 28579.62
295.0515, 28463.24
295.5336, 28409.56
296.0157, 28406.27
296.4978, 28400.78
296.9799, 28367.44
297.4621, 28318.50
297.9442, 28287.31
298.4263, 28276.15
298.9084, 28257.18
299.3905, 28192.20
299.8727, 28095.48
300.3548, 28007.32
300.8369, 27947.25
301.3190, 27906.29
301.8011, 27879.31
302.2832, 27867.42
302.7654, 27843.64
303.2475, 27780.09
303.7296, 27685.97
304.2117, 27579.68
304.6938, 27446.71
305.1759, 27315.49
305.6581, 27232.87
306.1402, 27199.25
306.6223, 27164.00
307.1044, 27086.00
307.5865, 26978.48
308.0686, 26865.98
308.5508, 26758.86
309.0329, 26649.14
309.5150, 26526.76
309.9971, 26390.05
310.4792, 26261.15
310.9613, 26168.46
311.4435, 26089.45
311.9256, 25994.82
312.4077, 25876.85
312.8898, 25737.51
313.3719, 25565.13
313.8540, 25361.01
314.3362, 25175.38
314.8183, 25045.74
315.3004, 24943.21
315.7825, 24834.01
316.2646, 24695.22
316.7467, 24556.23
317.2289, 24436.07
317.7110, 24334.76
318.1931, 24221.11
318.6752, 24065.05
319.1573, 23898.34
319.6394, 23751.25
320.1216, 23656.66
320.6037, 23559.51
321.0858, 23438.58
321.5679, 23295.10
322.0500, 23155.35
322.5321, 23036.99
323.0143, 22919.51
323.4964, 22786.53
323.9785, 22604.44
324.4606, 22438.91
324.9427, 22309.93
325.4248, 22215.92
325.9070, 22117.01
326.3891, 22014.99
326.8712, 21901.90
327.3533, 21772.22
327.8354, 21580.32
328.3175, 21421.98
328.7997, 21319.82
329.2818, 21269.56
329.7639, 21206.36
330.2460, 21122.10
330.7281, 21031.10
331.2102, 20941.52
331.6924, 20851.64
332.1745, 20768.30
332.6566, 20694.60
333.1387, 20629.24
333.6208, 20560.02
334.1029, 20476.75
334.5851, 20405.31
335.0672, 20365.51
335.5493, 20374.99
336.0314, 20375.30
336.5135, 20368.41
336.9956, 20348.58
337.4778, 20281.82
337.9599, 20139.01
338.4420, 20013.44
338.9241, 19969.41
339.4062, 20026.75
339.8883, 20059.61
340.3705, 20049.99
340.8526, 20017.39
341.3347, 20013.87
341.8168, 20045.17
342.2989, 20079.43
342.7810, 20097.47
343.2632, 20099.51
343.7453, 20103.26
344.2274, 20108.85
344.7095, 20118.53
345.1916, 20142.27
345.6737, 20180.46
346.1559, 20208.85
346.6380, 20203.80
347.1201, 20174.77
347.6022, 20173.98
348.0843, 20212.53
348.5664, 20252.28
349.0486, 20222.42
349.5307, 20136.35
350.0128, 20078.17
350.4949, 20117.23
350.9770, 20207.29
351.4591, 20246.96
351.9413, 20226.27
352.4234, 20195.82
352.9055, 20215.96
353.3876, 20268.88
353.8697, 20307.56
354.3518, 20304.47
354.8340, 20281.01
355.3161, 20255.69
355.7982, 20228.86
356.2803, 20214.51
356.7624, 20224.63
357.2445, 20254.08
357.7267, 20294.40
358.2088, 20358.23
358.6909, 20419.92
359.1730, 20461.76
359.6551, 20483.52
360.1372, 20495.64
360.6194, 20479.18
361.1015, 20464.89
361.5836, 20484.10
362.0657, 20591.78
362.5478, 20690.74
363.0299, 20748.89
363.5121, 20766.78
363.9942, 20755.05
364.4763, 20687.53
364.9584, 20608.42
365.4405, 20548.28
365.9226, 20516.60
366.4048, 20501.12
366.8869, 20516.29
367.3690, 20552.74
367.8511, 20563.20
368.3332, 20518.02
368.8153, 20465.55
369.2975, 20429.35
369.7796, 20438.28
370.2617, 20424.78
370.7438, 20366.74
371.2259, 20287.49
371.7080, 20254.90
372.1902, 20310.04
372.6722, 20359.24
373.1544, 20359.86
373.6365, 20281.10
374.1186, 20238.23
374.6007, 20239.97
375.0828, 20269.90
375.5649, 20303.05
376.0471, 20347.98
376.5292, 20371.19
377.0113, 20351.56
377.4934, 20284.63
377.9755, 20238.40
378.4576, 20215.03
378.9398, 20205.13
379.4219, 20201.66
379.9040, 20205.54
380.3861, 20196.19
380.8682, 20161.88
381.3503, 20108.10
381.8325, 20057.17
382.3146, 20009.47
382.7967, 19967.74
383.2788, 19941.63
383.7609, 19926.80
384.2430, 19901.76
384.7252, 19851.40
385.2073, 19794.21
385.6894, 19776.99
386.1715, 19795.83
386.6536, 19799.54
387.1357, 19736.80
387.6179, 19634.84
388.1000, 19538.26
388.5821, 19450.29
389.0642, 19383.54
389.5463, 19365.21
390.0284, 19384.04
390.5106, 19399.75
390.9927, 19388.83
391.4748, 19365.24
391.9569, 19337.55
392.4390, 19299.33
392.9211, 19277.12
393.4033, 19301.41
393.8854, 19350.61
394.3675, 19382.07
394.8496, 19341.48
395.3317, 19309.73
395.8138, 19338.13
396.2960, 19456.10
396.7781, 19537.26
397.2602, 19515.36
397.7423, 19452.27
398.2244, 19426.82
398.7065, 19504.97
399.1887, 19565.39
399.6708, 19568.06
400.1529, 19503.79
400.6350, 19473.18
401.1171, 19500.37
401.5992, 19544.28
402.0814, 19569.40
402.5635, 19561.71
403.0456, 19562.42
403.5277, 19583.46
404.0098, 19619.69
404.4919, 19631.51
404.9741, 19607.38
405.4562, 19581.07
405.9383, 19579.04
406.4204, 19606.32
406.9025, 19623.76
407.3846, 19622.39
407.8668, 19614.91
408.3489, 19632.52
408.8310, 19676.61
409.3131, 19730.26
409.7952, 19793.66
410.2773, 19862.29
410.7595, 19901.37
411.2416, 19905.31
411.7237, 19894.19
412.2058, 19887.91
412.6879, 19887.21
413.1700, 19896.15
413.6522, 19913.88
414.1343, 19942.65
414.6164, 19990.90
415.0985, 20059.34
415.5806, 20129.63
416.0627, 20202.48
416.5449, 20264.92
417.0270, 20297.11
417.5091, 20242.01
417.9912, 20197.44
418.4733, 20257.65
418.9554, 20403.66
419.4376, 20519.33
419.9197, 20512.30
420.4018, 20470.66
420.8839, 20464.30
421.3660, 20535.65
421.8481, 20603.62
422.3303, 20639.19
422.8124, 20653.41
423.2945, 20677.64
423.7766, 20721.89
424.2587, 20773.09
424.7408, 20828.22
425.2230, 20893.45
425.7051, 20945.27
426.1872, 20978.57
426.6693, 21000.41
427.1514, 21019.32
427.6335, 21024.85
428.1157, 21045.07
428.5978, 21094.05
429.0799, 21173.38
429.5620, 21228.21
430.0441, 21249.18
430.5262, 21261.35
431.0084, 21291.77
431.4905, 21346.38
431.9726, 21384.42
432.4547, 21395.70
432.9368, 21387.34
433.4189, 21377.83
433.9011, 21366.77
434.3832, 21361.51
434.8653, 21362.18
435.3474, 21371.54
435.8295, 21408.05
436.3116, 21482.44
436.7938, 21560.65
437.2759, 21596.05
437.7580, 21595.19
438.2401, 21581.12
438.7222, 21539.48
439.2043, 21503.71
439.6865, 21526.20
440.1686, 21614.32
440.6507, 21701.09
441.1328, 21735.26
441.6149, 21739.47
442.0970, 21744.96
442.5792, 21751.14
443.0613, 21771.50
443.5434, 21826.40
444.0255, 21909.67
444.5076, 21970.23
444.9897, 21966.88
445.4719, 21950.53
445.9540, 21955.46
446.4361, 22030.87
446.9182, 22068.69
447.4003, 22017.00
447.8824, 21918.79
448.3646, 21892.28
448.8467, 22012.63
449.3288, 22118.01
449.8109, 22144.10
450.2930, 22061.99
450.7751, 22025.49
451.2573, 22052.90
451.7394, 22105.69
452.2215, 22127.13
452.7036, 22103.57
453.1857, 22109.88
453.6678, 22172.81
454.1500, 22281.57
454.6321, 22383.02
455.1142, 22478.86
455.5963, 22558.06
456.0784, 22594.06
456.5605, 22598.54
457.0426, 22633.00
457.5247, 22712.26
458.0069, 22816.71
458.4890, 22927.79
458.9711, 23042.53
459.4532, 23152.84
459.9353, 23254.92
460.4174, 23348.63
460.8996, 23431.43
461.3817, 23502.57
461.8638, 23566.47
462.3459, 23610.72
462.8280, 23653.24
463.3102, 23718.40
463.7923, 23846.95
464.2744, 23970.58
464.7565, 24046.25
465.2386, 24077.30
465.7207, 24132.98
466.2029, 24245.15
466.6850, 24377.59
467.1671, 24509.17
467.6492, 24632.02
468.1313, 24761.02
468.6134, 24902.61
469.0956, 25051.69
469.5777, 25188.58
470.0598, 25310.66
470.5419, 25426.77
471.0240, 25540.40
471.5061, 25651.66
471.9883, 25754.48
472.4704, 25846.17
472.9525, 25931.96
473.4346, 26021.17
473.9167, 26115.01
474.3988, 26187.70
474.8810, 26224.37
475.3631, 26239.97
475.8452, 26276.26
476.3273, 26333.23
476.8094, 26397.63
477.2915, 26476.42
477.7737, 26553.77
478.2558, 26591.84
478.7379, 26580.37
479.2200, 26544.27
479.7021, 26497.95
480.1842, 26445.59
480.6664, 26396.22
481.1485, 26360.09
481.6306, 26324.48
482.1127, 26280.32
482.5948, 26226.80
483.0769, 26168.90
483.5591, 26114.78
484.0412, 26052.87
484.5233, 25972.50
485.0054, 25838.10
485.4875, 25722.39
485.9696, 25660.94
486.4518, 25634.85
486.9339, 25550.92
487.4160, 25351.10
487.8981, 25161.20
488.3802, 25039.01
488.8623, 25013.11
489.3445, 24957.04
489.8266, 24859.31
490.3087, 24745.42
490.7908, 24652.28
491.2729, 24581.29
491.7550, 24520.08
492.2372, 24473.59
492.7193, 24431.72
493.2014, 24347.36
493.6835, 24217.52
494.1656, 24090.64
494.6477, 24013.07
495.1299, 23967.76
495.6120, 23904.01
496.0941, 23804.30
496.5762, 23704.80
497.0583, 23637.85
497.5404, 23599.71
498.0226, 23582.83
498.5047, 23628.82
498.9868, 23661.92
499.4689, 23610.85
499.9510, 23466.27
500.4331, 23336.73
500.9153, 23265.55
501.3974, 23230.67
501.8795, 23212.04
502.3616, 23216.36
502.8437, 23225.35
503.3258, 23241.85
503.8080, 23262.40
504.2901, 23273.94
504.7722, 23280.76
505.2543, 23273.04
505.7364, 23234.59
506.2185, 23143.27
506.7007, 23132.99
507.1828, 23235.22
507.6649, 23370.69
508.1470, 23427.23
508.6291, 23395.53
509.1112, 23395.76
509.5934, 23469.62
510.0755, 23589.34
510.5576, 23674.23
511.0397, 23724.95
511.5218, 23780.85
512.0039, 23876.18
512.4860, 23994.57
512.9681, 24107.28
513.4503, 24209.29
513.9324, 24308.67
514.4145, 24423.60
514.8966, 24539.77
515.3787, 24631.41
515.8608, 24645.80
516.3430, 24670.10
516.8251, 24761.08
517.3072, 24917.25
517.7893, 25064.76
518.2714, 25195.20
518.7535, 25303.27
519.2357, 25384.82
519.7178, 25385.95
520.1999, 25438.45
520.6820, 25592.52
521.1641, 25780.57
521.6462, 25863.04
522.1284, 25795.45
522.6105, 25718.44
523.0926, 25677.48
523.5747, 25670.93
524.0568, 25650.75
524.5389, 25619.72
525.0211, 25564.01
525.5032, 25454.91
525.9853, 25301.93
526.4674, 25173.45
526.9495, 25087.34
527.4316, 25022.23
527.9138, 24956.12
528.3959, 24887.70
528.8780, 24807.99
529.3601, 24722.02
529.8422, 24616.49
530.3243, 24459.82
530.8065, 24246.40
531.2886, 24061.22
531.7707, 23977.80
532.2528, 23929.51
532.7349, 23851.27
533.2170, 23681.43
533.6992, 23533.80
534.1813, 23451.11
534.6634, 23410.93
535.1455, 23340.11
535.6276, 23207.17
536.1097, 23078.51
536.5919, 22977.54
537.0740, 22908.28
537.5561, 22839.35
538.0382, 22767.10
538.5203, 22701.26
539.0024, 22658.36
539.4846, 22641.02
539.9667, 22599.44
540.4488, 22512.28
540.9309, 22410.34
541.4130, 22366.67
541.8951, 22374.13
542.3773, 22375.26
542.8594, 22316.11
543.3415, 22236.61
543.8236, 22203.71
544.3057, 22224.65
544.7878, 22243.38
545.2700, 22220.46
545.7521, 22172.86
546.2342, 22119.79
546.7163, 22053.67
547.1984, 21997.82
547.6805, 21965.72
548.1627, 21951.27
548.6448, 21932.44
549.1269, 21893.19
549.6090, 21759.52
550.0911, 21848.63
550.5732, 21885.99
551.0554, 21874.36
551.5375, 21667.09
552.0196, 21712.46
552.5017, 21656.58
552.9838, 21596.55
553.4659, 21677.49
553.9481, 21498.66
554.4302, 21577.36
554.9123, 21553.26
555.3944, 21576.21
555.8765, 21497.28
556.3586, 21449.82
556.8408, 21504.26
557.3229, 21502.28
557.8050, 21411.03
558.2871, 21424.82
558.7692, 21429.02
559.2513, 21425.99
559.7335, 21417.86
560.2156, 21391.52
560.6977, 21378.18
561.1798, 21301.79
561.6619, 21410.21
562.1440, 21467.21
562.6262, 21475.56
563.1083, 21288.58
563.5904, 21354.60
564.0725, 21319.69
564.5546, 21280.96
565.0367, 21383.53
565.5189, 21226.67
566.0010, 21327.66
566.4831, 21326.20
566.9652, 21372.10
567.4473, 21316.47
567.9294, 21292.63
568.4116, 21371.03
568.8937, 21393.34
569.3758, 21327.30
569.8579, 21378.20
570.3400, 21221.10
570.8221, 21247.13
571.3043, 21352.38
571.7864, 21293.12
572.2685, 21347.53
572.7506, 21359.11
573.2327, 21174.86
573.7148, 21332.09
574.1970, 21342.11
574.6791, 21200.97
575.1612, 21347.51
575.6433, 21227.92
576.1254, 21203.78
576.6075, 21251.54
577.0897, 21225.02
577.5718, 21316.46
578.0539, 21294.91
578.5360, 21263.57
579.0181, 21276.75
579.5002, 21165.04
579.9824, 21285.96
580.4645, 21248.54
580.9466, 21290.32
581.4287, 21350.31
581.9108, 21273.75
582.3929, 21294.89
582.8751, 21308.10
583.3572, 21328.82
583.8393, 21350.29
584.3214, 21362.32
584.8035, 21366.67
585.2856, 21372.06
585.7678, 21387.94
586.2499, 21403.24
586.7320, 21409.68
587.2141, 21404.98
587.6962, 21396.01
588.1783, 21369.76
588.6605, 21347.19
589.1426, 21351.49
589.6247, 21414.19
590.1068, 21455.89
590.5889, 21459.06
591.0710, 21438.98
591.5532, 21446.50
592.0353, 21492.19
592.5174, 21526.34
592.9995, 21516.68
593.4816, 21472.24
593.9637, 21460.90
594.4459, 21484.42
594.9280, 21522.16
595.4101, 21563.48
595.8922, 21603.99
596.3743, 21633.54
596.8564, 21647.38
597.3386, 21656.72
597.8207, 21662.97
598.3028, 21672.18
598.7849, 21695.21
599.2670, 21767.41
599.7491, 21824.51
600.2313, 21818.24
600.7134, 21752.38
601.1955, 21751.12
601.6776, 21875.99
602.1597, 22014.12
602.6418, 22114.04
603.1240, 22169.14
603.6061, 22194.42
604.0882, 22171.84
604.5703, 22148.92
605.0524, 22205.85
605.5345, 22339.71
606.0167, 22427.52
606.4988, 22421.36
606.9809, 22374.07
607.4630, 22370.93
607.9451, 22407.89
608.4272, 22465.18
608.9094, 22545.34
609.3915, 22632.21
609.8736, 22709.14
610.3557, 22775.00
610.8378, 22840.60
611.3199, 22912.21
611.8021, 22985.18
612.2842, 23055.26
612.7663, 23105.08
613.2484, 23176.41
613.7305, 23288.08
614.2126, 23414.58
614.6948, 23509.58
615.1769, 23563.12
615.6590, 23613.47
616.1411, 23668.59
616.6232, 23728.38
617.1053, 23794.46
617.5875, 23867.36
618.0696, 23934.07
618.5517, 23973.12
619.0338, 24001.94
619.5159, 24065.98
619.9980, 24172.72
620.4802, 24279.08
620.9623, 24350.93
621.4444, 24403.44
621.9265, 24455.92
622.4086, 24500.23
622.8907, 24563.77
623.3729, 24678.80
623.8550, 24820.63
624.3371, 24925.13
624.8192, 24957.85
625.3013, 24987.15
625.7834, 25024.65
626.2656, 25070.17
626.7477, 25139.97
627.2298, 25235.60
627.7119, 25349.42
628.1940, 25482.79
628.6761, 25632.91
629.1583, 25772.26
629.6404, 25898.88
630.1225, 26015.63
630.6046, 26125.31
631.0867, 26230.55
631.5688, 26336.98
632.0510, 26444.91
632.5331, 26557.11
633.0152, 26681.08
633.4973, 26813.08
633.9794, 26936.68
634.4615, 27025.24
634.9437, 27127.85
635.4258, 27275.22
635.9079, 27476.60
636.3900, 27641.77
636.8721, 27751.33
637.3542, 27852.06
637.8364, 27972.86
638.3185, 28114.11
638.8006, 28265.43
639.2827, 28425.17
639.7648, 28597.33
640.2469, 28806.05
640.7291, 29040.66
641.2112, 29242.19
641.6933, 29373.75
642.1754, 29486.34
642.6575, 29644.10
643.1396, 29832.85
643.6218, 30001.63
644.1039, 30094.30
644.5860, 30188.28
645.0681, 30342.35
645.5502, 30563.83
646.0323, 30751.32
646.5145, 30849.41
646.9966, 30940.67
647.4787, 31071.40
647.9608, 31263.12
648.4429, 31437.55
648.9250, 31590.26
649.4072, 31733.84
649.8893, 31892.77
650.3714, 32067.08
650.8535, 32224.84
651.3356, 32353.59
651.8177, 32470.17
652.2999, 32607.46
652.7820, 32759.82
653.2641, 32897.65
653.7462, 32995.77
654.2283, 33082.61
654.7104, 33174.24
655.1926, 33271.76
655.6747, 33386.50
656.1568, 33560.36
656.6389, 33725.29
657.1210, 33831.36
657.6031, 33847.64
658.0853, 33884.20
658.5674, 33940.18
659.0495, 34017.25
659.5316, 34122.16
660.0137, 34257.50
660.4958, 34391.44
660.9779, 34522.32
661.4600, 34641.31
661.9421, 34734.18
662.4243, 34802.84
662.9064, 34856.02
663.3885, 34877.59
663.8706, 34899.54
664.3527, 34964.51
664.8348, 35065.17
665.3170, 35140.22
665.7991, 35126.11
666.2812, 35107.81
666.7633, 35143.16
667.2454, 35276.34
667.7275, 35344.91
668.2097, 35320.52
668.6918, 35260.12
669.1739, 35214.28
669.6560, 35185.00
670.1381, 35160.30
670.6202, 35139.40
671.1024, 35122.27
671.5845, 35115.40
672.0666, 35114.79
672.5487, 35099.68
673.0308, 35056.66
673.5129, 35000.07
673.9951, 34926.30
674.4772, 34846.88
674.9593, 34805.36
675.4414, 34890.79
675.9235, 34961.19
676.4056, 34924.34
676.8878, 34754.24
677.3699, 34629.24
677.8520, 34579.60
678.3341, 34550.31
678.8162, 34509.74
679.2983, 34458.40
679.7805, 34388.91
680.2626, 34293.83
680.7447, 34200.68
681.2268, 34158.41
681.7089, 34153.81
682.1910, 34121.54
682.6732, 34026.16
683.1553, 33926.50
683.6374, 33898.55
684.1195, 33915.79
684.6016, 33912.37
685.0837, 33836.03
685.5659, 33754.67
686.0480, 33694.84
686.5301, 33657.13
687.0122, 33634.91
687.4943, 33642.09
687.9764, 33646.09
688.4586, 33629.11
688.9407, 33587.75
689.4228, 33574.30
689.9049, 33600.39
690.3870, 33613.17
690.8691, 33526.93
691.3513, 33378.50
691.8334, 33334.49
692.3155, 33442.12
692.7976, 33562.22
693.2797, 33544.38
693.7618, 33454.15
694.2440, 33395.95
694.7261, 33429.48
695.2082, 33474.68
695.6903, 33508.40
696.1724, 33532.77
696.6545, 33554.65
697.1367, 33585.00
697.6188, 33595.50
698.1009, 33572.44
698.5830, 33521.14
699.0651, 33478.17
699.5472, 33441.57
700.0294, 33428.15
700.5115, 33479.01
700.9936, 33558.80
701.4757, 33555.64
701.9578, 33464.11
702.4399, 33375.46
702.9221, 33380.98
703.4042, 33416.25
703.8863, 33407.20
704.3684, 33308.07
704.8505, 33239.05
705.3326, 33257.96
705.8148, 33313.94
706.2969, 33346.26
706.7790, 33356.59
707.2611, 33335.48
707.7432, 33270.42
708.2253, 33183.88
708.7075, 33126.52
709.1896, 33098.94
709.6717, 33074.99
710.1538, 33042.33
710.6359, 33009.21
711.1180, 32991.37
711.6002, 32987.07
712.0823, 32988.70
712.5644, 33007.02
713.0465, 33017.86
713.5286, 32998.83
714.0107, 32945.59
714.4929, 32900.45
714.9750, 32885.86
715.4571, 32867.80
715.9392, 32823.20
716.4213, 32734.51
716.9034, 32683.57
717.3856, 32678.30
717.8677, 32689.56
718.3498, 32690.46
718.8319, 32680.88
719.3140, 32663.10
719.7961, 32641.91
720.2783, 32601.37
720.7604, 32503.09
721.2425, 32377.44
721.7246, 32280.69
722.2067, 32259.27
722.6888, 32243.81
723.1710, 32212.15
723.6531, 32167.01
724.1352, 32116.68
724.6173, 32047.04
725.0994, 31994.96
725.5815, 31976.53
726.0637, 31984.82
726.5458, 31977.92
727.0279, 31955.80
727.5100, 31914.76
727.9921, 31832.26
728.4742, 31732.66
728.9564, 31680.29
729.4385, 31675.70
729.9206, 31661.83
730.4027, 31574.22
730.8848, 31475.20
731.3669, 31423.59
731.8491, 31448.68
732.3312, 31460.26
732.8133, 31446.81
733.2954, 31410.27
733.7775, 31347.51
734.2596, 31249.83
734.7418, 31156.28
735.2239, 31067.11
735.7060, 30989.17
736.1881, 30935.92
736.6702, 30904.82
737.1523, 30884.12
737.6345, 30884.19
738.1166, 30872.09
738.5987, 30791.14
739.0808, 30670.55
739.5629, 30579.37
740.0450, 30582.11
740.5272, 30581.91
741.0093, 30535.47
741.4914, 30447.41
741.9735, 30372.68
742.4556, 30312.94
742.9377, 30262.53
743.4199, 30227.14
743.9020, 30202.19
744.3841, 30133.21
744.8662, 30017.62
745.3483, 29900.33
745.8304, 29815.77
746.3126, 29754.25
746.7947, 29709.56
747.2768, 29682.72
747.7589, 29642.76
748.2410, 29563.32
748.7231, 29468.19
749.2053, 29377.20
749.6874, 29294.27
750.1695, 29214.96
750.6516, 29135.99
751.1337, 29064.82
751.6158, 29013.96
752.0980, 28987.74
752.5801, 28947.33
753.0622, 28883.91
753.5443, 28812.57
754.0264, 28756.75
754.5085, 28712.13
754.9907, 28667.28
755.4728, 28627.09
755.9549, 28573.04
756.4370, 28473.36
756.9191, 28349.39
757.4012, 28256.63
757.8834, 28257.66
758.3655, 28232.85
758.8476, 28145.74
759.3297, 28010.10
759.8118, 27890.21
760.2939, 27784.31
760.7761, 27700.37
761.2582, 27654.33
761.7403, 27631.70
762.2224, 27580.21
762.7045, 27503.89
763.1866, 27438.84
763.6688, 27442.96
764.1509, 27448.61
764.6330, 27380.78
765.1151, 27228.32
765.5972, 27094.97
766.0793, 27022.35
766.5615, 26968.23
767.0436, 26906.29
767.5257, 26831.38
768.0078, 26770.45
768.4899, 26727.79
768.9720, 26687.93
769.4542, 26635.79
769.9363, 26572.86
770.4184, 26504.38
770.9005, 26428.69
771.3826, 26357.09
771.8647, 26301.08
772.3469, 26255.25
772.8290, 26212.99
773.3111, 26173.46
773.7932, 26134.84
774.2753, 26097.11
774.7574, 26059.47
775.2396, 26023.34
775.7217, 25997.73
776.2038, 25946.15
776.6859, 25854.66
777.1680, 25743.89
777.6501, 25656.56
778.1323, 25590.72
778.6144, 25537.53
779.0965, 25506.55
779.5786, 25473.09
780.0607, 25403.74
780.5428, 25309.94
781.0250, 25226.63
781.5071, 25163.29
781.9892, 25116.19
782.4713, 25098.72
782.9534, 25101.83
783.4355, 25073.86
783.9177, 25012.29
784.3998, 24923.58
784.8819, 24796.78
785.3640, 24644.91
785.8461, 24533.84
786.3282, 24462.71
786.8104, 24401.49
787.2925, 24316.43
787.7746, 24238.83
788.2567, 24210.94
788.7388, 24236.14
789.2209, 24243.61
789.7031, 24198.50
790.1852, 24136.52
790.6673, 24076.24
791.1494, 24017.50
791.6315, 23971.22
792.1136, 23947.33
792.5958, 23914.03
793.0779, 23828.17
793.5600, 23704.50
794.0421, 23626.76
794.5242, 23605.31
795.0063, 23596.13
795.4885, 23568.27
795.9706, 23526.06
796.4527, 23472.82
796.9348, 23400.20
797.4169, 23335.31
797.8990, 23284.68
798.3812, 23244.36
798.8633, 23214.98
799.3454, 23205.93
799.8275, 23172.32
800.3096, 23102.01
800.7917, 23024.14
801.2739, 22993.47
801.7560, 22994.15
802.2381, 22962.42
802.7202, 22865.50
803.2023, 22764.70
803.6844, 22705.14
804.1666, 22676.23
804.6487, 22660.38
805.1308, 22668.14
805.6129, 22670.53
806.0950, 22662.05
806.5771, 22645.76
807.0593, 22628.70
807.5414, 22611.36
808.0235, 22583.28
808.5056, 22527.47
808.9877, 22476.79
809.4698, 22527.49
809.9520, 22644.64
810.4341, 22707.39
810.9162, 22599.90
811.3983, 22472.10
811.8804, 22412.65
812.3625, 22408.26
812.8447, 22404.23
813.3268, 22396.95
813.8089, 22382.66
814.2910, 22357.94
814.7731, 22325.76
815.2552, 22299.96
815.7374, 22281.37
816.2195, 22261.26
816.7016, 22234.45
817.1837, 22204.05
817.6658, 22173.57
818.1479, 22144.13
818.6301, 22117.78
819.1122, 22102.60
819.5943, 22085.05
820.0764, 22057.87
820.5585, 22020.31
821.0406, 21977.48
821.5228, 21915.93
822.0049, 21874.12
822.4870, 21881.32
822.9691, 21928.15
823.4512, 21941.88
823.9333, 21922.46
824.4155, 21881.02
824.8976, 21792.53
825.3796, 21704.55
825.8618, 21690.96
826.3439, 21756.31
826.8260, 21788.89
827.3081, 21707.36
827.7902, 21619.38
828.2723, 21586.68
828.7545, 21618.82
829.2366, 21631.50
829.7187, 21619.91
830.2008, 21604.43
830.6829, 21607.06
831.1650, 21618.22
831.6472, 21601.65
832.1293, 21554.81
832.6114, 21512.18
833.0935, 21499.46
833.5756, 21502.31
834.0577, 21515.75
834.5399, 21551.88
835.0220, 21545.40
835.5041, 21466.29
835.9862, 21374.86
836.4683, 21312.82
836.9504, 21282.57
837.4326, 21255.79
837.9147, 21233.03
838.3968, 21209.43
838.8789, 21180.68
839.3610, 21148.01
839.8431, 21108.70
840.3253, 21058.67
840.8074, 21023.65
841.2895, 21026.77
841.7716, 21043.13
842.2537, 21055.83
842.7358, 21082.31
843.2180, 21050.58
843.7001, 20938.66
844.1822, 20811.22
844.6643, 20730.54
845.1464, 20692.45
845.6285, 20680.60
846.1107, 20698.02
846.5928, 20707.36
847.0749, 20666.89
847.5570, 20605.63
848.0391, 20558.46
848.5212, 20545.51
849.0034, 20515.81
849.4855, 20443.94
849.9676, 20370.40
850.4497, 20335.63
850.9318, 20345.34
851.4139, 20343.83
851.8961, 20324.68
852.3782, 20300.96
852.8603, 20295.20
853.3424, 20293.20
853.8245, 20264.51
854.3066, 20191.13
854.7888, 20126.37
855.2709, 20111.66
855.7530, 20108.76
856.2351, 20076.16
856.7172, 19995.45
857.1993, 19926.04
857.6815, 19870.75
858.1636, 19824.73
858.6457, 19780.25
859.1278, 19739.59
859.6099, 19714.98
860.0920, 19713.60
860.5742, 19705.88
861.0563, 19657.62
861.5384, 19593.58
862.0205, 19541.37
862.5026, 19511.79
862.9847, 19484.92
863.4669, 19453.77
863.9490, 19428.09
864.4311, 19416.93
864.9132, 19420.42
865.3953, 19436.21
865.8774, 19467.62
866.3596, 19493.34
866.8417, 19484.10
867.3238, 19454.62
867.8059, 19428.31
868.2880, 19409.80
868.7701, 19396.82
869.2523, 19384.74
869.7344, 19380.84
870.2165, 19391.86
870.6986, 19422.52
871.1807, 19459.08
871.6628, 19506.13
872.1450, 19545.38
872.6271, 19546.78
873.1092, 19523.50
873.5913, 19513.06
874.0734, 19520.52
874.5555, 19546.17
875.0377, 19609.00
875.5198, 19679.19
876.0019, 19727.04
876.4840, 19729.13
876.9661, 19746.71
877.4482, 19792.42
877.9304, 19834.82
878.4125, 19838.33
878.8946, 19806.37
879.3767, 19784.83
879.8588, 19779.00
880.3409, 19773.65
880.8231, 19755.35
881.3052, 19729.95
881.7873, 19702.23
882.2694, 19669.72
882.7515, 19648.77
883.2336, 19663.53
883.7158, 19672.19
884.1979, 19640.68
884.6800, 19561.54
885.1621, 19502.70
885.6442, 19465.99
886.1263, 19443.64
886.6085, 19435.62
887.0906, 19433.46
887.5727, 19426.61
888.0548, 19414.14
888.5369, 19388.46
889.0190, 19318.49
889.5012, 19256.38
889.9833, 19246.66
890.4654, 19307.63
890.9475, 19303.74
891.4296, 19218.69
891.9117, 19129.08
892.3939, 19104.04
892.8760, 19119.87
893.3581, 19113.66
893.8402, 19082.19
894.3223, 19048.53
894.8044, 19016.81
895.2866, 18995.52
895.7687, 18997.84
896.2508, 19030.59
896.7329, 19030.56
897.2150, 18982.64
897.6971, 18933.78
898.1793, 18908.14
898.6614, 18904.19
899.1435, 18925.08
899.6256, 18967.82
900.1077, 18993.74
900.5898, 18955.11
901.0720, 18905.58
901.5541, 18888.22
902.0362, 18903.84
902.5183, 18921.45
903.0004, 18939.48
903.4825, 18954.76
903.9647, 18961.37
904.4468, 18963.84
904.9289, 18994.54
905.4110, 19051.27
905.8931, 19098.12
906.3752, 19107.22
906.8574, 19101.50
907.3395, 19099.48
907.8216, 19101.24
908.3037, 19106.30
908.7858, 19117.53
909.2679, 19128.67
909.7501, 19137.67
910.2322, 19146.09
910.7143, 19164.35
911.1964, 19193.05
911.6785, 19204.70
912.1606, 19181.34
912.6428, 19145.45
913.1249, 19114.52
913.6070, 19095.30
914.0891, 19103.45
914.5712, 19186.15
915.0533, 19246.56
915.5355, 19247.45
916.0176, 19219.58
916.4997, 19226.16
916.9818, 19272.50
917.4639, 19293.62
917.9460, 19264.63
918.4282, 19228.33
918.9103, 19253.90
919.3924, 19312.91
919.8745, 19350.21
920.3566, 19321.09
920.8387, 19310.41
921.3209, 19364.96
921.8030, 19439.45
922.2851, 19483.35
922.7672, 19490.65
923.2493, 19495.85
923.7314, 19501.24
924.2136, 19508.90
924.6957, 19512.13
925.1778, 19521.83
925.6599, 19566.29
926.1420, 19664.11
926.6241, 19741.07
927.1063, 19758.42
927.5884, 19745.57
928.0705, 19721.37
928.5526, 19672.49
929.0347, 19677.03
929.5168, 19745.88
929.9990, 19821.54
930.4811, 19854.57
930.9632, 19858.28
931.4453, 19856.44
931.9274, 19851.30
932.4095, 19851.39
932.8917, 19861.83
933.3738, 19878.91
933.8559, 19905.37
934.3380, 19941.33
934.8201, 19958.02
935.3022, 19949.41
935.7844, 19945.53
936.2665, 19980.09
936.7486, 20025.61
937.2307, 19995.40
937.7128, 19907.73
938.1949, 19854.23
938.6771, 19921.57
939.1592, 19996.61
939.6413, 20021.68
940.1234, 20006.62
940.6055, 19993.66
941.0876, 19984.55
941.5698, 19970.28
942.0519, 19943.78
942.5340, 19916.21
943.0161, 19918.76
943.4982, 19939.05
943.9803, 19943.28
944.4625, 19906.83
944.9446, 19863.78
945.4267, 19817.17
945.9088, 19777.02
946.3909, 19762.04
946.8730, 19783.88
947.3552, 19789.00
947.8373, 19767.12
948.3194, 19735.24
948.8015, 19712.86
949.2836, 19698.83
949.7657, 19694.69
950.2479, 19708.29
950.7300, 19705.50
951.2121, 19661.15
951.6942, 19599.17
952.1763, 19538.24
952.6584, 19471.22
953.1406, 19435.16
953.6227, 19435.09
954.1048, 19445.97
954.5869, 19456.50
955.0690, 19458.56
955.5511, 19429.50
956.0333, 19368.28
956.5154, 19312.56
956.9975, 19290.29
957.4796, 19269.16
957.9617, 19228.33
958.4438, 19169.78
958.9260, 19123.34
959.4081, 19090.18
959.8902, 19062.19
960.3723, 19037.05
960.8544, 19013.51
961.3365, 18996.83
961.8187, 18981.04
962.3008, 18944.07
962.7829, 18839.16
963.2650, 18755.29
963.7471, 18737.32
964.2292, 18755.41
964.7114, 18741.19
965.1935, 18691.41
965.6756, 18630.25
966.1577, 18552.57
966.6398, 18489.35
967.1219, 18503.07
967.6041, 18553.58
968.0862, 18571.57
968.5683, 18520.96
969.0504, 18461.47
969.5325, 18389.81
970.0146, 18328.37
970.4968, 18302.69
970.9789, 18315.02
971.4610, 18324.48
971.9431, 18328.71
972.4252, 18326.90
972.9073, 18321.00
973.3895, 18307.02
973.8716, 18271.93
974.3537, 18209.09
974.8358, 18175.82
975.3179, 18200.79
975.8000, 18233.07
976.2822, 18250.96
976.7643, 18255.71
977.2464, 18257.96
977.7285, 18257.71
978.2106, 18255.46
978.6927, 18249.47
979.1749, 18243.60
979.6570, 18248.34
980.1391, 18257.75
980.6212, 18245.33
981.1033, 18178.47
981.5854, 18143.48
982.0676, 18168.48
982.5497, 18221.83
983.0318, 18237.44
983.5139, 18221.45
983.9960, 18198.94
984.4781, 18171.11
984.9603, 18153.92
985.4424, 18151.95
985.9245, 18169.57
986.4066, 18217.62
986.8887, 18332.01
987.3708, 18389.54
987.8530, 18376.28
988.3351, 18338.68
988.8172, 18306.19
989.2993, 18287.53
989.7814, 18321.75
990.2635, 18412.64
990.7456, 18475.77
991.2277, 18438.55
991.7098, 18383.13
992.1920, 18357.67
992.6741, 18361.32
993.1562, 18365.63
993.6383, 18371.95
994.1204, 18370.04
994.6025, 18344.04
995.0847, 18315.21
995.5668, 18323.94
996.0489, 18360.22
996.5310, 18395.99
997.0131, 18419.66
997.4952, 18442.61
997.9774, 18468.33
998.4595, 18494.65
998.9416, 18518.28
999.4237, 18539.00
999.9058, 18556.00
1000.388, 18568.95
1000.870, 18579.53
1001.352, 18591.57
1001.834, 18601.33
1002.316, 18601.86
1002.799, 18582.37
1003.281, 18582.92
1003.763, 18618.46
1004.245, 18653.52
1004.727, 18658.88
1005.209, 18639.44
1005.691, 18631.23
1006.173, 18634.42
1006.655, 18648.37
1007.138, 18693.37
1007.620, 18730.03
1008.102, 18725.61
1008.584, 18685.37
1009.066, 18658.95
1009.548, 18652.46
1010.030, 18644.16
1010.512, 18624.24
1010.995, 18606.17
1011.477, 18630.47
1011.959, 18676.46
1012.441, 18688.69
1012.923, 18621.53
1013.405, 18564.49
1013.887, 18548.20
1014.369, 18559.91
1014.851, 18595.90
1015.334, 18665.11
1015.816, 18678.38
1016.298, 18583.77
1016.780, 18713.03
1017.262, 18790.54
1017.744, 18819.06
1018.226, 18651.93
1018.708, 18737.45
1019.190, 18721.71
1019.673, 18701.85
1020.155, 18822.93
1020.637, 18684.26
1021.119, 18803.10
1021.601, 18819.15
1022.083, 18882.24
1022.565, 18843.46
1023.047, 18836.14
1023.530, 18930.76
1024.012, 18968.93
1024.494, 18918.42
1024.976, 18984.50
1025.458, 18842.27
1025.940, 18882.84
1026.422, 19002.28
1026.904, 18956.89
1027.386, 19024.84
1027.869, 19049.65
1028.351, 18878.26
1028.833, 19048.03
1029.315, 19070.27
1029.797, 18941.01
1030.279, 19001.00
1030.761, 19055.92
1031.243, 19097.04
1031.726, 19109.07
1032.208, 19091.33
1032.690, 19077.44
1033.172, 19079.52
1033.654, 19100.23
1034.136, 19159.95
1034.618, 19239.94
1035.100, 19291.68
1035.583, 19296.28
1036.065, 19282.46
1036.547, 19239.31
1037.029, 19201.53
1037.511, 19240.00
1037.993, 19328.71
1038.475, 19366.22
1038.957, 19326.68
1039.439, 19298.39
1039.922, 19351.31
1040.404, 19422.50
1040.886, 19465.02
1041.368, 19476.39
1041.850, 19497.58
1042.332, 19531.03
1042.814, 19554.26
1043.296, 19540.03
1043.778, 19516.76
1044.261, 19529.03
1044.743, 19565.58
1045.225, 19592.70
1045.707, 19601.65
1046.189, 19594.88
1046.671, 19559.74
1047.153, 19524.69
1047.635, 19547.24
1048.118, 19615.80
1048.600, 19666.89
1049.082, 19691.03
1049.564, 19690.58
1050.046, 19638.77
1050.528, 19583.45
1051.010, 19570.91
1051.492, 19606.24
1051.974, 19633.24
1052.457, 19650.61
1052.939, 19663.45
1053.421, 19674.36
1053.903, 19682.46
1054.385, 19686.37
1054.867, 19686.19
1055.349, 19682.65
1055.831, 19683.46
1056.313, 19669.45
1056.796, 19628.28
1057.278, 19581.05
1057.760, 19565.43
1058.242, 19577.14
1058.724, 19576.06
1059.206, 19553.96
1059.688, 19533.31
1060.170, 19542.82
1060.653, 19553.29
1061.135, 19534.96
1061.617, 19482.39
1062.099, 19441.79
1062.581, 19412.90
1063.063, 19396.34
1063.545, 19400.72
1064.027, 19411.21
1064.510, 19402.44
1064.992, 19377.71
1065.474, 19346.01
1065.956, 19285.44
1066.438, 19255.71
1066.920, 19287.13
1067.402, 19328.85
1067.884, 19299.56
1068.366, 19211.14
1068.849, 19162.60
1069.331, 19170.15
1069.813, 19177.98
1070.295, 19127.37
1070.777, 19074.64
1071.259, 19071.69
1071.741, 19119.52
1072.223, 19141.54
1072.705, 19133.15
1073.188, 19120.51
1073.670, 19114.94
1074.152, 19111.87
1074.634, 19102.85
1075.116, 19090.92
1075.598, 19082.91
1076.080, 19081.71
1076.562, 19082.86
1077.044, 19087.08
1077.527, 19090.33
1078.009, 19088.20
1078.491, 19080.96
1078.973, 19072.31
1079.455, 19062.36
1079.937, 19048.16
1080.419, 19005.93
1080.901, 18979.35
1081.384, 19020.89
1081.866, 19107.35
1082.348, 19117.91
1082.830, 19045.40
1083.312, 18961.45
1083.794, 18879.42
1084.276, 18817.20
1084.758, 18809.88
1085.240, 18833.17
1085.723, 18851.96
1086.205, 18861.93
1086.687, 18857.70
1087.169, 18835.69
1087.651, 18806.35
1088.133, 18766.14
1088.615, 18726.42
1089.097, 18727.37
1089.579, 18765.66
1090.062, 18811.13
1090.544, 18865.87
1091.026, 18903.96
1091.508, 18912.30
1091.990, 18898.64
1092.472, 18874.33
1092.954, 18839.90
1093.436, 18811.27
1093.919, 18789.91
1094.401, 18784.48
1094.883, 18823.93
1095.365, 18870.76
1095.847, 18883.42
1096.329, 18851.48
1096.811, 18822.45
1097.293, 18794.00
1097.776, 18778.63
1098.258, 18784.98
1098.740, 18808.04
1099.222, 18854.46
1099.704, 18909.61
1100.186, 18934.11
1100.668, 18878.65
1101.150, 18838.07
1101.632, 18823.81
1102.115, 18830.39
1102.597, 18861.07
1103.079, 18908.41
1103.561, 18939.24
1104.043, 18950.14
1104.525, 18938.23
1105.007, 18868.63
1105.489, 18806.93
1105.971, 18801.45
1106.454, 18839.69
1106.936, 18856.78
1107.418, 18852.71
1107.900, 18833.10
1108.382, 18791.07
1108.864, 18753.21
1109.346, 18756.54
1109.828, 18778.20
1110.311, 18785.49
1110.793, 18760.65
1111.275, 18756.86
1111.757, 18779.82
1112.239, 18806.51
1112.721, 18819.27
1113.203, 18823.56
1113.685, 18826.73
1114.167, 18830.09
1114.650, 18839.06
1115.132, 18873.21
1115.614, 18886.78
1116.096, 18857.64
1116.578, 18817.70
1117.060, 18828.78
1117.542, 18879.00
1118.024, 18911.83
1118.506, 18916.27
1118.989, 18919.56
1119.471, 18968.32
1119.953, 18992.08
1120.435, 18925.20
1120.917, 18780.74
1121.399, 18738.39
1121.881, 18799.23
1122.363, 18862.36
1122.846, 18886.49
1123.328, 18889.99
1123.810, 18880.04
1124.292, 18864.41
1124.774, 18856.02
1125.256, 18860.18
1125.738, 18860.80
1126.220, 18857.38
1126.703, 18852.10
1127.185, 18838.55
1127.667, 18828.86
1128.149, 18847.71
1128.631, 18890.59
1129.113, 18925.46
1129.595, 18938.23
1130.077, 18950.96
1130.559, 18973.03
1131.042, 18988.41
1131.524, 18951.35
1132.006, 18885.18
1132.488, 18864.31
1132.970, 18909.19
1133.452, 18954.05
1133.934, 18982.33
1134.416, 18988.30
1134.898, 18963.95
1135.381, 18914.96
1135.863, 18876.03
1136.345, 18847.94
1136.827, 18831.43
1137.309, 18825.35
1137.791, 18833.64
1138.273, 18872.88
1138.755, 18920.75
1139.238, 18948.37
1139.720, 18952.53
1140.202, 18951.19
1140.684, 18944.01
1141.166, 18942.75
1141.648, 18965.22
1142.130, 18991.18
1142.612, 19004.78
1143.094, 19004.73
1143.577, 18989.10
1144.059, 18949.39
1144.541, 18922.74
1145.023, 18919.25
1145.505, 18921.33
1145.987, 18891.82
1146.469, 18858.20
1146.951, 18867.06
1147.433, 18931.80
1147.916, 18993.08
1148.398, 19056.82
1148.880, 19089.58
1149.362, 19065.28
1149.844, 19011.13
1150.326, 19000.47
1150.808, 19020.20
1151.290, 19032.74
1151.773, 19018.15
1152.255, 19007.73
1152.737, 19015.13
1153.219, 19023.65
1153.701, 19017.57
1154.183, 18999.10
1154.665, 18989.89
1155.147, 18989.79
1155.630, 18995.63
1156.112, 19014.75
1156.594, 19029.21
1157.076, 19026.77
1157.558, 19015.54
1158.040, 19001.51
1158.522, 18985.02
1159.004, 19006.94
1159.486, 19077.47
1159.969, 19138.38
1160.451, 19135.57
1160.933, 19109.31
1161.415, 19081.59
1161.897, 19057.35
1162.379, 19066.35
1162.861, 19113.35
1163.343, 19150.39
1163.825, 19160.37
1164.308, 19156.94
1164.790, 19148.18
1165.272, 19138.46
1165.754, 19132.08
1166.236, 19125.53
1166.718, 19143.38
1167.200, 19195.13
1167.682, 19230.15
1168.165, 19199.63
1168.647, 19145.84
1169.129, 19135.67
1169.611, 19156.38
1170.093, 19178.89
1170.575, 19219.33
1171.057, 19216.01
1171.539, 19148.10
1172.021, 19079.56
1172.504, 19084.05
1172.986, 19130.95
1173.468, 19164.54
1173.950, 19181.14
1174.432, 19180.04
1174.914, 19118.29
1175.396, 19100.40
1175.878, 19164.64
1176.360, 19258.79
1176.843, 19297.05
1177.325, 19289.44
1177.807, 19254.27
1178.289, 19189.34
1178.771, 19144.98
1179.253, 19150.48
1179.735, 19176.31
1180.217, 19219.62
1180.700, 19269.03
1181.182, 19276.23
1181.664, 19251.28
1182.146, 19240.12
1182.628, 19267.16
1183.110, 19292.78
1183.592, 19294.56
1184.074, 19290.99
1184.557, 19298.16
1185.039, 19315.26
1185.521, 19309.60
1186.003, 19285.26
1186.485, 19281.18
1186.967, 19353.28
1187.449, 19415.12
1187.931, 19413.18
1188.413, 19377.45
1188.896, 19344.32
1189.378, 19312.63
1189.860, 19305.41
1190.342, 19324.77
1190.824, 19341.57
1191.306, 19323.07
1191.788, 19303.71
1192.270, 19312.31
1192.752, 19339.48
1193.235, 19354.38
1193.717, 19356.20
1194.199, 19352.60
1194.681, 19342.11
1195.163, 19343.46
1195.645, 19389.80
1196.127, 19445.19
1196.609, 19476.93
1197.092, 19483.88
1197.574, 19483.40
1198.056, 19474.49
1198.538, 19469.85
1199.020, 19477.46
1199.502, 19483.24
1199.984, 19471.63
1200.466, 19448.78
1200.948, 19416.87
1201.431, 19367.07
1201.913, 19358.63
1202.395, 19396.80
1202.877, 19442.37
1203.359, 19487.98
1203.841, 19514.09
1204.323, 19474.08
1204.805, 19403.13
1205.287, 19375.49
1205.770, 19418.07
1206.252, 19459.39
1206.734, 19500.49
1207.216, 19526.75
1207.698, 19517.16
1208.180, 19491.40
1208.662, 19461.05
1209.144, 19434.67
1209.627, 19449.96
1210.109, 19538.62
1210.591, 19586.31
1211.073, 19570.34
1211.555, 19540.01
1212.037, 19559.81
1212.519, 19595.00
1213.001, 19592.06
1213.484, 19548.79
1213.966, 19525.04
1214.448, 19532.32
1214.930, 19543.16
1215.412, 19553.81
1215.894, 19558.60
1216.376, 19540.40
1216.858, 19515.17
1217.340, 19506.29
1217.823, 19519.63
1218.305, 19543.38
1218.787, 19589.08
1219.269, 19609.88
1219.751, 19572.94
1220.233, 19518.75
1220.715, 19527.71
1221.197, 19569.63
1221.679, 19589.39
1222.162, 19558.16
1222.644, 19545.57
1223.126, 19560.89
1223.608, 19577.99
1224.090, 19575.62
1224.572, 19567.67
1225.054, 19586.32
1225.536, 19619.84
1226.019, 19640.61
1226.501, 19629.21
1226.983, 19623.47
1227.465, 19629.65
1227.947, 19627.64
1228.429, 19582.47
1228.911, 19526.55
1229.393, 19524.50
1229.875, 19565.54
1230.358, 19597.87
1230.840, 19583.37
1231.322, 19611.39
1231.804, 19709.52
1232.286, 19803.98
1232.768, 19792.66
1233.250, 19728.62
1233.732, 19694.63
1234.214, 19695.08
1234.697, 19699.49
1235.179, 19707.45
1235.661, 19708.81
1236.143, 19703.12
1236.625, 19686.24
1237.107, 19625.37
1237.589, 19561.27
1238.071, 19573.76
1238.553, 19678.64
1239.036, 19740.20
1239.518, 19724.45
1240.000, 19720.87
1240.482, 19766.02
1240.964, 19822.48
1241.446, 19834.66
1241.928, 19816.26
1242.410, 19782.35
1242.893, 19725.57
1243.375, 19712.00
1243.857, 19761.14
1244.339, 19799.25
1244.821, 19784.96
1245.303, 19750.04
1245.785, 19743.02
1246.267, 19752.91
1246.750, 19762.26
1247.232, 19769.27
1247.714, 19769.31
1248.196, 19759.70
1248.678, 19752.87
1249.160, 19765.22
1249.642, 19777.50
1250.124, 19748.10
1250.606, 19701.00
1251.089, 19689.89
1251.571, 19738.69
1252.053, 19784.38
1252.535, 19829.00
1253.017, 19853.00
1253.499, 19824.66
1253.981, 19781.62
1254.463, 19769.72
1254.945, 19777.81
1255.428, 19765.76
1255.910, 19714.96
1256.392, 19710.67
1256.874, 19766.05
1257.356, 19826.34
1257.838, 19848.07
1258.320, 19846.56
1258.802, 19822.27
1259.285, 19786.49
1259.767, 19785.52
1260.249, 19829.41
1260.731, 19844.55
1261.213, 19816.38
1261.695, 19784.32
1262.177, 19773.28
1262.659, 19784.31
1263.141, 19835.79
1263.624, 19912.64
1264.106, 19944.07
1264.588, 19927.96
1265.070, 19903.44
1265.552, 19875.66
1266.034, 19857.76
1266.516, 19871.08
1266.998, 19889.85
1267.480, 19890.19
1267.963, 19803.18
1268.445, 19926.48
1268.927, 19998.03
1269.409, 20020.60
1269.891, 19847.51
1270.373, 19927.07
1270.855, 19905.39
1271.337, 19879.55
1271.820, 19994.68
1272.302, 19850.05
1272.784, 19962.94
1273.266, 19973.04
1273.748, 20030.18
1274.230, 19985.44
1274.712, 19972.17
1275.194, 20060.81
1275.677, 20093.03
1276.159, 20036.56
1276.641, 20096.70
1277.123, 19948.51
1277.605, 19983.12
1278.087, 20096.61
1278.569, 20045.26
1279.051, 20107.26
1279.533, 20126.09
1280.016, 19948.76
1280.498, 20112.58
1280.980, 20128.85
1281.462, 19993.64
1281.944, 20145.77
1282.426, 20031.44
1282.908, 20012.22
1283.390, 20064.58
1283.872, 20042.32
1284.355, 20137.71
1284.837, 20119.76
1285.319, 20091.69
1285.801, 20107.80
1286.283, 19998.70
1286.765, 20121.90
1287.247, 20086.41
1287.729, 20129.81
1288.212, 20191.09
1288.694, 20115.47
1289.176, 20120.07
1289.658, 20156.82
1290.140, 20174.34
1290.622, 20172.78
1291.104, 20156.52
1291.586, 20119.05
1292.068, 20092.78
1292.551, 20080.67
1293.033, 20081.13
1293.515, 20100.18
1293.997, 20124.84
1294.479, 20147.89
1294.961, 20165.16
1295.443, 20165.04
1295.925, 20145.13
1296.407, 20122.56
1296.890, 20097.51
1297.372, 20095.63
1297.854, 20173.54
1298.336, 20249.52
1298.818, 20254.27
1299.300, 20211.92
1299.782, 20170.25
1300.264, 20133.14
1300.747, 20143.32
1301.229, 20210.85
1301.711, 20268.04
1302.193, 20268.14
1302.675, 20248.01
1303.157, 20221.19
1303.639, 20192.99
1304.121, 20175.58
##END=



