##NAMES=Vuoriyarvite-K
##RRUFFID=R070703
##IDEAL CHEMISTRY=(K,Na,[box])_12_Nb^5+^_8_(Si_4_O_12_)_4_O_8_&#183;12-16H_2_O
##LOCALITY=Vein No. 46,  Kirovskii apatite mine (Kirovsky Mine; Kirov Mine),  Kukisvumchorr Mt,  Khibiny Massif,  Kola Peninsula,  Murmanskaja Oblast',  Northern Region,  Russia
##OWNER=RRUFF
##SOURCE=Michael Scott
##DESCRIPTION=Light tan, compact mass of micro-crystals associated with calcite and greenish sodalite
##STATUS=The identification of this mineral is not yet confirmed.
##URL=rruff.info/R070703
131.5389, 16127.40
132.0210, 16098.64
132.5031, 16074.37
132.9852, 16060.75
133.4674, 16061.32
133.9495, 16067.63
134.4316, 16070.60
134.9137, 16069.97
135.3958, 16077.62
135.8779, 16113.22
136.3601, 16200.26
136.8422, 16263.58
137.3243, 16281.59
137.8064, 16278.49
138.2885, 16280.93
138.7706, 16295.44
139.2528, 16326.90
139.7349, 16394.09
140.2170, 16520.50
140.6991, 16622.35
141.1812, 16639.27
141.6633, 16592.53
142.1455, 16575.41
142.6276, 16644.53
143.1097, 16763.92
143.5918, 16854.01
144.0739, 16883.56
144.5561, 16918.65
145.0382, 17046.04
145.5203, 17286.60
146.0024, 17498.13
146.4845, 17589.54
146.9666, 17610.77
147.4488, 17607.21
147.9309, 17582.39
148.4130, 17549.00
148.8951, 17537.64
149.3772, 17549.12
149.8593, 17585.65
150.3415, 17650.48
150.8236, 17736.23
151.3057, 17829.98
151.7878, 17929.91
152.2699, 18035.83
152.7520, 18115.76
153.2342, 18125.02
153.7163, 18145.00
154.1984, 18207.58
154.6805, 18307.91
155.1626, 18418.56
155.6447, 18503.44
156.1269, 18535.80
156.6090, 18635.04
157.0911, 18893.28
157.5732, 19139.09
158.0553, 19260.09
158.5374, 19240.88
159.0196, 19158.43
159.5017, 19133.97
159.9838, 19213.65
160.4659, 19286.76
160.9480, 19338.53
161.4301, 19391.21
161.9123, 19473.78
162.3944, 19598.30
162.8765, 19741.75
163.3586, 19844.25
163.8407, 19854.79
164.3228, 19894.40
164.8050, 20001.49
165.2871, 20150.25
165.7692, 20297.56
166.2513, 20426.57
166.7334, 20532.91
167.2155, 20600.85
167.6977, 20584.88
168.1798, 20582.61
168.6619, 20650.20
169.1440, 20777.06
169.6261, 20911.36
170.1082, 21026.09
170.5904, 21121.08
171.0725, 21204.81
171.5546, 21266.38
172.0367, 21323.78
172.5188, 21394.47
173.0009, 21479.96
173.4831, 21568.38
173.9652, 21653.91
174.4473, 21736.46
174.9294, 21816.17
175.4115, 21886.76
175.8936, 21955.65
176.3758, 22041.16
176.8579, 22156.10
177.3400, 22261.44
177.8221, 22319.90
178.3042, 22350.03
178.7864, 22396.33
179.2685, 22489.12
179.7506, 22622.50
180.2327, 22756.78
180.7148, 22894.28
181.1969, 23029.49
181.6791, 23164.08
182.1612, 23295.23
182.6433, 23414.43
183.1254, 23504.07
183.6075, 23558.47
184.0896, 23641.39
184.5718, 23790.57
185.0539, 23943.06
185.5360, 24065.80
186.0181, 24160.88
186.5002, 24257.48
186.9823, 24396.19
187.4645, 24598.77
187.9466, 24779.23
188.4287, 24930.77
188.9108, 25067.11
189.3929, 25192.11
189.8750, 25308.29
190.3572, 25417.27
190.8393, 25519.86
191.3214, 25593.71
191.8035, 25701.15
192.2856, 25869.03
192.7677, 26051.91
193.2499, 26214.39
193.7320, 26342.90
194.2141, 26446.62
194.6962, 26546.73
195.1783, 26602.81
195.6604, 26704.90
196.1426, 26897.26
196.6247, 27123.49
197.1068, 27317.46
197.5889, 27448.65
198.0710, 27532.41
198.5531, 27619.44
199.0353, 27704.13
199.5174, 27798.25
199.9995, 27906.38
200.4816, 28024.99
200.9637, 28152.02
201.4458, 28289.63
201.9280, 28431.02
202.4101, 28546.27
202.8922, 28613.72
203.3743, 28683.19
203.8564, 28768.22
204.3385, 28869.26
204.8207, 28986.41
205.3028, 29123.32
205.7849, 29277.49
206.2670, 29428.57
206.7491, 29589.60
207.2312, 29736.70
207.7134, 29845.36
208.1955, 29919.97
208.6776, 30002.23
209.1597, 30125.64
209.6418, 30279.27
210.1239, 30411.07
210.6061, 30508.59
211.0882, 30590.93
211.5703, 30659.47
212.0524, 30712.15
212.5345, 30797.65
213.0166, 30978.23
213.4988, 31219.91
213.9809, 31425.38
214.4630, 31565.64
214.9451, 31666.91
215.4272, 31755.47
215.9094, 31828.99
216.3915, 31902.69
216.8736, 31996.57
217.3557, 32099.08
217.8378, 32185.68
218.3199, 32236.74
218.8021, 32269.18
219.2842, 32319.19
219.7663, 32399.04
220.2484, 32467.48
220.7305, 32489.65
221.2126, 32481.70
221.6948, 32475.15
222.1769, 32491.87
222.6590, 32521.90
223.1411, 32531.37
223.6232, 32507.24
224.1053, 32484.05
224.5875, 32491.83
225.0696, 32516.86
225.5517, 32526.60
226.0338, 32499.53
226.5159, 32439.79
226.9980, 32369.40
227.4802, 32278.97
227.9623, 32189.42
228.4444, 32109.26
228.9265, 32038.15
229.4086, 31974.21
229.8907, 31925.37
230.3729, 31889.29
230.8550, 31825.60
231.3371, 31710.70
231.8192, 31590.56
232.3013, 31491.79
232.7834, 31406.18
233.2656, 31308.97
233.7477, 31169.41
234.2298, 30985.10
234.7119, 30835.55
235.1940, 30779.97
235.6761, 30706.32
236.1583, 30567.72
236.6404, 30371.26
237.1225, 30152.30
237.6046, 29930.21
238.0867, 29700.36
238.5688, 29512.86
239.0510, 29425.41
239.5331, 29333.44
240.0152, 29196.38
240.4973, 29017.43
240.9794, 28826.22
241.4615, 28653.80
241.9437, 28508.21
242.4258, 28329.46
242.9079, 28080.33
243.3900, 27829.58
243.8721, 27604.80
244.3542, 27406.68
244.8364, 27222.45
245.3185, 27042.34
245.8006, 26870.20
246.2827, 26683.43
246.7648, 26451.43
247.2469, 26232.04
247.7291, 26060.49
248.2112, 25931.43
248.6933, 25810.55
249.1754, 25658.57
249.6575, 25460.57
250.1397, 25296.92
250.6218, 25206.53
251.1039, 25114.05
251.5860, 24969.16
252.0681, 24779.99
252.5502, 24597.08
253.0324, 24480.88
253.5145, 24457.68
253.9966, 24391.37
254.4787, 24235.65
254.9608, 24083.48
255.4429, 23987.37
255.9251, 23945.16
256.4072, 23917.06
256.8893, 23862.42
257.3714, 23775.76
257.8535, 23681.80
258.3356, 23570.43
258.8177, 23461.55
259.2999, 23366.67
259.7820, 23285.05
260.2641, 23208.96
260.7462, 23130.25
261.2283, 23047.56
261.7104, 22968.46
262.1926, 22897.90
262.6747, 22825.87
263.1568, 22745.70
263.6389, 22658.56
264.1210, 22572.46
264.6031, 22497.21
265.0853, 22437.63
265.5674, 22363.19
266.0495, 22262.82
266.5316, 22160.64
267.0138, 22067.01
267.4959, 21983.50
267.9780, 21909.99
268.4601, 21850.47
268.9422, 21813.41
269.4243, 21733.88
269.9065, 21578.13
270.3886, 21419.00
270.8707, 21289.87
271.3528, 21190.96
271.8349, 21105.56
272.3170, 21019.98
272.7992, 20934.26
273.2813, 20846.16
273.7634, 20752.09
274.2455, 20658.67
274.7276, 20565.94
275.2097, 20476.12
275.6919, 20394.27
276.1740, 20327.03
276.6561, 20275.93
277.1382, 20212.06
277.6203, 20120.71
278.1024, 20033.82
278.5846, 19967.41
279.0667, 19917.73
279.5488, 19869.07
280.0309, 19806.96
280.5130, 19730.43
280.9951, 19689.54
281.4773, 19727.12
281.9594, 19750.47
282.4415, 19707.19
282.9236, 19619.11
283.4057, 19544.36
283.8878, 19524.35
284.3700, 19556.27
284.8521, 19584.09
285.3342, 19617.45
285.8163, 19636.95
286.2984, 19630.66
286.7805, 19605.54
287.2627, 19574.87
287.7448, 19545.63
288.2269, 19518.79
288.7090, 19502.88
289.1911, 19515.73
289.6732, 19518.98
290.1554, 19503.42
290.6375, 19472.03
291.1196, 19425.38
291.6017, 19361.14
292.0838, 19288.82
292.5659, 19256.86
293.0481, 19323.09
293.5302, 19362.63
294.0123, 19331.88
294.4944, 19268.12
294.9765, 19230.53
295.4586, 19249.18
295.9408, 19299.77
296.4229, 19303.15
296.9050, 19213.82
297.3871, 19127.41
297.8692, 19039.08
298.3513, 18961.06
298.8335, 18914.98
299.3156, 18909.69
299.7977, 18922.12
300.2798, 18898.12
300.7619, 18786.45
301.2440, 18702.06
301.7262, 18673.48
302.2083, 18659.68
302.6904, 18617.95
303.1725, 18535.85
303.6546, 18435.41
304.1367, 18360.70
304.6189, 18360.63
305.1010, 18304.19
305.5831, 18147.65
306.0652, 17968.03
306.5473, 17832.04
307.0294, 17752.14
307.5116, 17684.67
307.9937, 17564.96
308.4758, 17357.10
308.9579, 17182.01
309.4400, 17053.02
309.9221, 16941.16
310.4043, 16840.14
310.8864, 16742.81
311.3685, 16630.16
311.8506, 16474.91
312.3327, 16260.32
312.8148, 16072.46
313.2970, 15898.54
313.7791, 15758.35
314.2612, 15697.77
314.7433, 15691.09
315.2254, 15653.33
315.7076, 15496.89
316.1897, 15207.28
316.6718, 14965.47
317.1539, 14812.25
317.6360, 14664.95
318.1181, 14494.36
318.6003, 14307.50
319.0824, 14127.30
319.5645, 13973.42
320.0466, 13842.66
320.5287, 13693.72
321.0108, 13506.85
321.4930, 13322.02
321.9751, 13148.78
322.4572, 12982.87
322.9393, 12817.96
323.4214, 12651.09
323.9035, 12482.64
324.3857, 12314.98
324.8678, 12148.90
325.3499, 11983.75
325.8320, 11818.31
326.3141, 11655.38
326.7962, 11497.78
327.2784, 11347.62
327.7605, 11202.50
328.2426, 11053.70
328.7247, 10895.95
329.2068, 10748.49
329.6889, 10617.40
330.1711, 10495.11
330.6532, 10375.16
331.1353, 10255.52
331.6174, 10142.07
332.0995, 10045.56
332.5816, 9970.511
333.0638, 9893.572
333.5459, 9811.735
334.0280, 9726.048
334.5101, 9634.090
334.9922, 9536.446
335.4743, 9441.869
335.9565, 9362.502
336.4386, 9298.794
336.9207, 9230.695
337.4028, 9140.118
337.8849, 9062.190
338.3671, 9022.980
338.8492, 9018.239
339.3313, 9017.568
339.8134, 8996.679
340.2955, 8960.599
340.7776, 8937.112
341.2598, 8932.098
341.7419, 8933.007
342.2240, 8931.203
342.7061, 8928.193
343.1882, 8928.214
343.6703, 8937.933
344.1525, 8951.025
344.6346, 8950.751
345.1167, 8931.483
345.5988, 8917.064
346.0809, 8937.313
346.5630, 8970.902
347.0452, 8981.769
347.5273, 8948.827
348.0094, 8900.112
348.4915, 8863.402
348.9736, 8838.621
349.4557, 8826.228
349.9379, 8836.096
350.4200, 8854.566
350.9021, 8854.278
351.3842, 8823.345
351.8663, 8792.012
352.3484, 8780.567
352.8306, 8785.959
353.3127, 8795.600
353.7948, 8805.417
354.2769, 8816.730
354.7590, 8833.011
355.2411, 8856.428
355.7233, 8876.513
356.2054, 8886.973
356.6875, 8892.119
357.1696, 8899.041
357.6517, 8909.488
358.1339, 8922.441
358.6160, 8937.750
359.0981, 8956.584
359.5802, 8971.157
360.0623, 8971.980
360.5444, 8973.322
361.0266, 8992.151
361.5087, 9029.489
361.9908, 9069.715
362.4729, 9100.413
362.9550, 9121.374
363.4371, 9126.142
363.9193, 9105.664
364.4014, 9079.103
364.8835, 9050.237
365.3656, 9023.154
365.8477, 9009.421
366.3298, 9020.407
366.8120, 9050.688
367.2941, 9049.352
367.7762, 8983.452
368.2583, 8926.286
368.7404, 8894.932
369.2225, 8881.737
369.7047, 8880.297
370.1868, 8888.232
370.6689, 8894.111
371.1510, 8865.855
371.6331, 8751.633
372.1152, 8681.169
372.5974, 8700.054
373.0795, 8737.876
373.5616, 8725.576
374.0437, 8651.205
374.5258, 8566.876
375.0079, 8551.820
375.4901, 8643.347
375.9722, 8688.365
376.4543, 8651.965
376.9364, 8600.366
377.4185, 8565.084
377.9006, 8544.755
378.3828, 8519.515
378.8649, 8470.273
379.3470, 8398.376
379.8291, 8333.384
380.3112, 8278.865
380.7933, 8227.368
381.2755, 8171.748
381.7576, 8117.467
382.2397, 8076.202
382.7218, 8060.521
383.2039, 8053.834
383.6860, 8014.797
384.1682, 7930.350
384.6503, 7853.515
385.1324, 7806.812
385.6145, 7777.557
386.0966, 7758.211
386.5787, 7750.748
387.0609, 7740.120
387.5430, 7707.381
388.0251, 7654.065
388.5072, 7605.901
388.9893, 7571.811
389.4714, 7543.725
389.9536, 7508.727
390.4357, 7465.525
390.9178, 7433.533
391.3999, 7435.147
391.8820, 7451.882
392.3641, 7444.640
392.8463, 7404.144
393.3284, 7353.584
393.8105, 7311.697
394.2926, 7278.597
394.7747, 7254.485
395.2568, 7246.917
395.7390, 7243.123
396.2211, 7227.813
396.7032, 7203.373
397.1853, 7189.692
397.6674, 7201.708
398.1495, 7235.523
398.6317, 7263.089
399.1138, 7287.458
399.5959, 7303.433
400.0780, 7305.198
400.5601, 7298.223
401.0422, 7291.273
401.5244, 7287.906
402.0065, 7286.604
402.4886, 7284.124
402.9707, 7277.729
403.4528, 7274.552
403.9349, 7278.690
404.4171, 7283.292
404.8992, 7281.612
405.3813, 7273.547
405.8634, 7265.034
406.3455, 7262.235
406.8276, 7265.148
407.3098, 7274.033
407.7919, 7288.611
408.2740, 7309.523
408.7561, 7345.651
409.2383, 7388.247
409.7204, 7419.018
410.2025, 7424.685
410.6846, 7411.742
411.1667, 7403.582
411.6488, 7397.570
412.1310, 7402.105
412.6131, 7423.211
413.0952, 7452.792
413.5773, 7483.456
414.0594, 7513.160
414.5415, 7542.195
415.0237, 7572.067
415.5058, 7602.926
415.9879, 7628.174
416.4700, 7638.797
416.9521, 7650.865
417.4342, 7682.002
417.9164, 7731.172
418.3985, 7774.741
418.8806, 7793.659
419.3627, 7798.890
419.8448, 7813.470
420.3269, 7840.128
420.8091, 7873.452
421.2912, 7912.838
421.7733, 7956.164
422.2554, 7994.474
422.7375, 8026.545
423.2196, 8053.285
423.7018, 8069.101
424.1839, 8078.272
424.6660, 8101.761
425.1481, 8154.909
425.6302, 8222.634
426.1123, 8257.849
426.5945, 8237.245
427.0766, 8226.229
427.5587, 8240.542
428.0408, 8267.982
428.5229, 8294.382
429.0050, 8316.283
429.4872, 8340.849
429.9693, 8378.924
430.4514, 8439.397
430.9335, 8480.521
431.4156, 8498.856
431.8977, 8505.360
432.3799, 8498.824
432.8620, 8484.464
433.3441, 8470.535
433.8262, 8460.447
434.3083, 8457.529
434.7904, 8483.416
435.2726, 8567.838
435.7547, 8634.639
436.2368, 8668.758
436.7189, 8678.907
437.2010, 8669.225
437.6831, 8640.313
438.1653, 8606.853
438.6474, 8585.279
439.1295, 8575.415
439.6116, 8579.721
440.0937, 8609.487
440.5758, 8643.058
441.0580, 8666.456
441.5401, 8679.611
442.0222, 8685.394
442.5043, 8680.986
442.9864, 8671.295
443.4685, 8661.992
443.9507, 8651.511
444.4328, 8655.656
444.9149, 8694.802
445.3970, 8756.712
445.8791, 8798.273
446.3612, 8802.994
446.8434, 8802.720
447.3255, 8818.395
447.8076, 8842.617
448.2897, 8855.157
448.7718, 8846.761
449.2539, 8829.801
449.7361, 8826.787
450.2182, 8845.516
450.7003, 8862.166
451.1824, 8863.750
451.6645, 8871.458
452.1466, 8908.798
452.6288, 8972.645
453.1109, 9038.271
453.5930, 9085.929
454.0751, 9115.488
454.5572, 9126.722
455.0393, 9074.367
455.5215, 9052.981
456.0036, 9099.953
456.4857, 9184.018
456.9678, 9263.714
457.4499, 9322.047
457.9320, 9367.808
458.4142, 9414.007
458.8963, 9457.935
459.3784, 9513.787
459.8605, 9599.144
460.3426, 9685.541
460.8247, 9756.080
461.3069, 9810.314
461.7890, 9857.941
462.2711, 9895.155
462.7532, 9930.964
463.2353, 9992.427
463.7174, 10085.23
464.1996, 10188.50
464.6817, 10296.45
465.1638, 10404.66
465.6459, 10501.38
466.1280, 10573.31
466.6101, 10647.78
467.0923, 10747.01
467.5744, 10862.96
468.0565, 10970.92
468.5386, 11061.53
469.0207, 11144.63
469.5028, 11235.05
469.9850, 11332.39
470.4671, 11440.95
470.9492, 11578.47
471.4313, 11714.38
471.9134, 11820.09
472.3955, 11899.11
472.8777, 11977.81
473.3598, 12077.89
473.8419, 12196.71
474.3240, 12304.93
474.8061, 12399.39
475.2882, 12485.43
475.7704, 12562.01
476.2525, 12631.47
476.7346, 12696.38
477.2167, 12757.48
477.6988, 12815.84
478.1809, 12881.35
478.6631, 12958.17
479.1452, 12996.36
479.6273, 12974.87
480.1094, 12927.10
480.5916, 12871.11
481.0737, 12808.33
481.5558, 12741.75
482.0379, 12671.69
482.5200, 12599.04
483.0021, 12527.73
483.4843, 12458.21
483.9664, 12377.31
484.4485, 12274.11
484.9306, 12157.55
485.4127, 12051.67
485.8948, 11963.32
486.3770, 11872.21
486.8591, 11769.15
487.3412, 11660.08
487.8233, 11551.71
488.3054, 11446.28
488.7875, 11346.82
489.2697, 11257.71
489.7518, 11181.46
490.2339, 11101.19
490.7160, 11014.64
491.1981, 10927.58
491.6802, 10836.78
492.1624, 10748.58
492.6445, 10674.34
493.1266, 10621.20
493.6087, 10577.75
494.0908, 10517.25
494.5729, 10430.64
495.0551, 10352.50
495.5372, 10288.05
496.0193, 10233.80
496.5014, 10196.48
496.9835, 10171.93
497.4656, 10137.05
497.9478, 10062.83
498.4299, 9967.839
498.9120, 9907.988
499.3941, 9892.813
499.8762, 9872.438
500.3583, 9811.769
500.8405, 9727.598
501.3226, 9659.934
501.8047, 9617.878
502.2868, 9580.048
502.7689, 9540.325
503.2510, 9496.307
503.7332, 9435.472
504.2153, 9353.732
504.6974, 9280.400
505.1795, 9254.632
505.6616, 9292.063
506.1437, 9301.264
506.6259, 9257.563
507.1080, 9213.604
507.5901, 9186.149
508.0722, 9177.382
508.5543, 9188.685
509.0364, 9221.361
509.5186, 9270.306
510.0007, 9326.379
510.4828, 9397.925
510.9649, 9454.008
511.4470, 9464.267
511.9291, 9477.884
512.4113, 9524.903
512.8934, 9606.089
513.3755, 9704.720
513.8576, 9813.646
514.3397, 9930.880
514.8218, 10052.14
515.3040, 10176.39
515.7861, 10308.44
516.2682, 10457.29
516.7503, 10614.49
517.2324, 10760.04
517.7145, 10893.36
518.1967, 11014.90
518.6788, 11121.74
519.1609, 11218.37
519.6430, 11316.00
520.1251, 11416.73
520.6072, 11505.32
521.0894, 11565.29
521.5715, 11595.16
522.0536, 11609.39
522.5357, 11598.27
523.0178, 11584.94
523.4999, 11586.94
523.9821, 11589.41
524.4642, 11568.05
524.9463, 11512.27
525.4284, 11433.87
525.9105, 11352.29
526.3926, 11267.33
526.8748, 11179.14
527.3569, 11096.07
527.8390, 11001.05
528.3211, 10880.21
528.8032, 10738.22
529.2853, 10591.49
529.7675, 10439.88
530.2496, 10293.22
530.7317, 10166.80
531.2138, 10060.20
531.6959, 9964.054
532.1780, 9877.489
532.6602, 9795.301
533.1423, 9705.374
533.6244, 9606.454
534.1065, 9507.436
534.5886, 9401.625
535.0707, 9301.799
535.5529, 9225.322
536.0350, 9169.126
536.5171, 9110.790
536.9992, 9031.466
537.4813, 8934.209
537.9634, 8842.151
538.4456, 8750.252
538.9277, 8671.141
539.4098, 8614.827
539.8919, 8565.996
540.3740, 8510.160
540.8561, 8444.433
541.3383, 8377.146
541.8204, 8314.604
542.3025, 8256.743
542.7846, 8205.637
543.2667, 8162.063
543.7488, 8123.423
544.2310, 8092.040
544.7131, 8063.913
545.1952, 8030.749
545.6773, 7987.724
546.1594, 7944.998
546.6415, 7906.999
547.1237, 7873.557
547.6058, 7845.476
548.0879, 7822.896
548.5700, 7804.189
549.0521, 7788.292
549.5342, 7776.910
550.0164, 7758.200
550.4985, 7725.519
550.9806, 7693.904
551.4627, 7667.755
551.9448, 7646.715
552.4269, 7631.093
552.9091, 7621.244
553.3912, 7611.519
553.8733, 7592.582
554.3554, 7563.539
554.8375, 7530.347
555.3196, 7481.498
555.8018, 7442.896
556.2839, 7437.417
556.7660, 7455.817
557.2481, 7467.199
557.7302, 7455.593
558.2123, 7436.128
558.6945, 7425.258
559.1766, 7420.800
559.6587, 7411.009
560.1408, 7390.527
560.6229, 7365.822
561.1050, 7347.008
561.5872, 7334.115
562.0693, 7328.411
562.5514, 7336.461
563.0335, 7345.874
563.5156, 7353.146
563.9977, 7355.422
564.4799, 7345.844
564.9620, 7318.994
565.4441, 7284.852
565.9262, 7268.696
566.4083, 7276.110
566.8904, 7284.887
567.3726, 7299.704
567.8547, 7308.022
568.3368, 7299.352
568.8189, 7275.693
569.3010, 7249.872
569.7831, 7221.140
570.2653, 7197.988
570.7474, 7199.690
571.2295, 7224.129
571.7116, 7238.852
572.1937, 7227.800
572.6758, 7201.706
573.1580, 7181.207
573.6401, 7166.278
574.1222, 7156.098
574.6043, 7158.431
575.0864, 7159.297
575.5685, 7140.720
576.0507, 7110.003
576.5328, 7095.399
577.0149, 7118.367
577.4970, 7161.867
577.9791, 7165.956
578.4612, 7105.116
578.9434, 7067.680
579.4255, 7099.208
579.9076, 7137.081
580.3897, 7134.979
580.8718, 7095.814
581.3539, 7063.739
581.8361, 7070.888
582.3182, 7096.321
582.8003, 7110.356
583.2824, 7112.678
583.7645, 7104.164
584.2467, 7080.713
584.7288, 7052.712
585.2109, 7044.924
585.6931, 7070.665
586.1752, 7083.260
586.6573, 7068.342
587.1394, 7047.378
587.6215, 7033.916
588.1036, 7028.630
588.5858, 7027.823
589.0679, 7029.516
589.5500, 7033.027
590.0321, 7035.604
590.5142, 7035.263
590.9963, 7039.961
591.4785, 7056.196
591.9606, 7074.271
592.4427, 7084.917
592.9248, 7089.797
593.4069, 7101.839
593.8890, 7131.660
594.3712, 7169.339
594.8533, 7205.045
595.3354, 7238.177
595.8175, 7265.465
596.2996, 7285.947
596.7817, 7298.550
597.2639, 7299.135
597.7460, 7274.333
598.2281, 7268.957
598.7102, 7296.728
599.1923, 7331.184
599.6744, 7353.734
600.1566, 7370.135
600.6387, 7400.060
601.1208, 7456.399
601.6029, 7520.593
602.0850, 7549.676
602.5671, 7535.275
603.0493, 7538.379
603.5314, 7578.192
604.0135, 7628.294
604.4956, 7668.004
604.9777, 7699.654
605.4598, 7733.482
605.9420, 7776.091
606.4241, 7819.015
606.9062, 7859.452
607.3883, 7894.767
607.8704, 7910.666
608.3525, 7900.263
608.8347, 7894.246
609.3168, 7941.455
609.7989, 8064.319
610.2810, 8147.363
610.7631, 8149.344
611.2452, 8159.585
611.7274, 8221.144
612.2095, 8307.979
612.6916, 8374.363
613.1737, 8402.326
613.6558, 8422.296
614.1379, 8475.259
614.6201, 8556.537
615.1022, 8625.003
615.5843, 8672.095
616.0664, 8714.245
616.5485, 8762.492
617.0306, 8815.618
617.5128, 8867.664
617.9949, 8915.858
618.4770, 8965.591
618.9591, 9019.755
619.4412, 9076.468
619.9233, 9130.191
620.4055, 9181.329
620.8876, 9239.843
621.3697, 9316.199
621.8518, 9409.337
622.3339, 9505.618
622.8160, 9615.400
623.2982, 9710.053
623.7803, 9778.527
624.2624, 9832.173
624.7445, 9875.932
625.2266, 9911.061
625.7087, 9957.355
626.1909, 10032.88
626.6730, 10125.53
627.1551, 10219.80
627.6372, 10314.43
628.1193, 10392.32
628.6014, 10438.12
629.0836, 10470.50
629.5657, 10537.05
630.0478, 10663.20
630.5299, 10783.78
631.0120, 10896.82
631.4941, 11006.46
631.9763, 11115.69
632.4584, 11224.09
632.9405, 11329.37
633.4226, 11431.02
633.9047, 11527.01
634.3868, 11604.35
634.8690, 11660.56
635.3511, 11748.86
635.8332, 11895.82
636.3153, 12054.37
636.7974, 12174.48
637.2795, 12265.15
637.7617, 12374.16
638.2438, 12529.99
638.7259, 12684.18
639.2080, 12806.26
639.6901, 12910.41
640.1722, 13020.57
640.6544, 13144.71
641.1365, 13275.85
641.6186, 13405.29
642.1007, 13532.46
642.5828, 13672.88
643.0649, 13842.98
643.5471, 14002.17
644.0292, 14126.58
644.5113, 14240.29
644.9934, 14371.53
645.4755, 14526.72
645.9576, 14683.64
646.4398, 14822.45
646.9219, 14956.49
647.4040, 15114.83
647.8861, 15296.61
648.3682, 15462.29
648.8503, 15585.89
649.3325, 15683.63
649.8146, 15801.10
650.2967, 15964.28
650.7788, 16104.04
651.2609, 16203.36
651.7430, 16294.83
652.2252, 16392.47
652.7073, 16498.87
653.1894, 16618.82
653.6715, 16759.65
654.1536, 16900.79
654.6357, 17007.62
655.1179, 17082.73
655.6000, 17157.23
656.0821, 17235.97
656.5642, 17319.81
657.0463, 17408.99
657.5284, 17504.11
658.0106, 17607.49
658.4927, 17735.73
658.9748, 17852.73
659.4569, 17940.00
659.9390, 18012.14
660.4211, 18087.23
660.9033, 18168.24
661.3854, 18244.42
661.8675, 18305.81
662.3496, 18353.83
662.8317, 18397.11
663.3138, 18435.00
663.7960, 18471.51
664.2781, 18511.69
664.7602, 18548.11
665.2423, 18570.67
665.7244, 18578.48
666.2065, 18587.14
666.6887, 18581.34
667.1708, 18594.96
667.6529, 18678.68
668.1350, 18805.45
668.6171, 18904.86
669.0992, 18946.66
669.5814, 18944.29
670.0635, 18913.86
670.5456, 18849.31
671.0277, 18788.76
671.5098, 18733.45
671.9919, 18681.49
672.4741, 18631.13
672.9562, 18583.92
673.4383, 18543.35
673.9204, 18511.93
674.4025, 18479.98
674.8846, 18439.91
675.3668, 18395.73
675.8489, 18354.40
676.3310, 18315.96
676.8131, 18273.88
677.2952, 18221.58
677.7773, 18167.01
678.2595, 18140.56
678.7416, 18189.69
679.2237, 18176.15
679.7058, 18029.70
680.1879, 17884.93
680.6700, 17827.28
681.1522, 17831.47
681.6343, 17819.95
682.1164, 17753.66
682.5985, 17671.70
683.0806, 17613.28
683.5627, 17573.62
684.0449, 17538.51
684.5270, 17505.73
685.0091, 17467.48
685.4912, 17413.72
685.9733, 17347.02
686.4554, 17300.48
686.9376, 17313.15
687.4197, 17295.00
687.9018, 17203.93
688.3839, 17102.63
688.8660, 17043.57
689.3481, 17026.99
689.8303, 17018.61
690.3124, 17000.26
690.7945, 16973.63
691.2766, 16932.27
691.7587, 16879.32
692.2408, 16855.07
692.7230, 16875.20
693.2051, 16914.70
693.6872, 16949.47
694.1693, 16980.18
694.6514, 16995.30
695.1335, 16993.41
695.6157, 16979.13
696.0978, 16934.07
696.5799, 16888.02
697.0620, 16879.75
697.5441, 16912.51
698.0262, 16949.84
698.5084, 16959.31
698.9905, 16950.08
699.4726, 16948.83
699.9547, 16956.03
700.4368, 16960.52
700.9189, 16961.13
701.4011, 16952.01
701.8832, 16918.65
702.3653, 16849.99
702.8474, 16814.10
703.3295, 16839.69
703.8116, 16867.81
704.2938, 16884.65
704.7759, 16883.78
705.2580, 16847.04
705.7401, 16773.81
706.2222, 16708.10
706.7043, 16706.30
707.1865, 16752.39
707.6686, 16778.46
708.1507, 16783.04
708.6328, 16768.74
709.1149, 16724.13
709.5970, 16674.20
710.0792, 16669.40
710.5613, 16727.15
711.0434, 16758.34
711.5255, 16743.91
712.0076, 16715.00
712.4897, 16674.44
712.9719, 16635.05
713.4540, 16623.66
713.9361, 16648.17
714.4182, 16666.12
714.9003, 16613.23
715.3824, 16506.75
715.8646, 16447.18
716.3467, 16446.08
716.8288, 16443.30
717.3109, 16405.48
717.7930, 16351.29
718.2751, 16321.15
718.7573, 16327.11
719.2394, 16317.77
719.7215, 16270.72
720.2036, 16225.42
720.6857, 16215.29
721.1678, 16220.56
721.6500, 16199.50
722.1321, 16136.42
722.6142, 16066.07
723.0963, 16035.41
723.5784, 16034.91
724.0605, 16011.44
724.5427, 15958.72
725.0248, 15906.04
725.5070, 15868.95
725.9891, 15841.37
726.4712, 15810.74
726.9533, 15776.17
727.4354, 15740.19
727.9175, 15699.05
728.3997, 15660.15
728.8818, 15633.17
729.3639, 15609.81
729.8460, 15574.11
730.3281, 15519.99
730.8102, 15461.44
731.2924, 15411.58
731.7745, 15370.08
732.2566, 15339.39
732.7387, 15321.28
733.2208, 15293.83
733.7029, 15242.97
734.1851, 15179.00
734.6672, 15123.12
735.1493, 15076.83
735.6314, 15037.10
736.1135, 15013.75
736.5956, 14986.72
737.0778, 14942.74
737.5599, 14889.46
738.0420, 14840.24
738.5241, 14799.81
739.0062, 14759.45
739.4883, 14709.28
739.9705, 14653.24
740.4526, 14602.33
740.9347, 14557.01
741.4168, 14507.12
741.8989, 14444.75
742.3810, 14381.15
742.8632, 14340.13
743.3453, 14334.59
743.8274, 14314.16
744.3095, 14270.58
744.7916, 14222.02
745.2737, 14174.89
745.7559, 14126.70
746.2380, 14073.73
746.7201, 14015.02
747.2022, 13951.71
747.6843, 13879.60
748.1664, 13805.96
748.6486, 13738.70
749.1307, 13679.76
749.6128, 13640.59
750.0949, 13629.48
750.5770, 13619.35
751.0591, 13562.37
751.5413, 13446.85
752.0234, 13352.08
752.5055, 13291.69
752.9876, 13235.76
753.4697, 13178.54
753.9518, 13118.92
754.4340, 13053.11
754.9161, 12980.52
755.3982, 12913.02
755.8803, 12869.19
756.3624, 12823.36
756.8445, 12735.03
757.3267, 12623.18
757.8088, 12548.16
758.2909, 12529.80
758.7730, 12525.05
759.2551, 12477.19
759.7372, 12387.32
760.2194, 12321.64
760.7015, 12291.04
761.1836, 12259.91
761.6657, 12230.16
762.1478, 12183.61
762.6299, 12087.50
763.1121, 11941.59
763.5942, 11830.61
764.0763, 11798.81
764.5584, 11780.12
765.0405, 11748.06
765.5226, 11700.40
766.0048, 11629.42
766.4869, 11537.43
766.9690, 11447.31
767.4511, 11379.19
767.9332, 11328.67
768.4153, 11283.69
768.8975, 11245.77
769.3796, 11191.89
769.8617, 11107.49
770.3438, 11021.32
770.8259, 10966.18
771.3080, 10941.78
771.7902, 10898.92
772.2723, 10819.79
772.7544, 10745.96
773.2365, 10690.60
773.7186, 10641.90
774.2007, 10587.19
774.6829, 10528.01
775.1650, 10478.39
775.6471, 10454.72
776.1292, 10430.29
776.6113, 10357.63
777.0934, 10251.98
777.5756, 10175.89
778.0577, 10141.92
778.5398, 10110.48
779.0219, 10050.55
779.5040, 9968.445
779.9861, 9894.575
780.4683, 9830.776
780.9504, 9771.233
781.4325, 9709.290
781.9146, 9657.295
782.3967, 9635.889
782.8788, 9627.087
783.3610, 9589.333
783.8431, 9503.018
784.3252, 9412.831
784.8073, 9343.107
785.2894, 9287.624
785.7715, 9244.411
786.2537, 9208.740
786.7358, 9167.271
787.2179, 9113.006
787.7000, 9048.059
788.1821, 8972.391
788.6642, 8884.186
789.1464, 8811.460
789.6285, 8761.004
790.1106, 8710.137
790.5927, 8644.337
791.0748, 8573.740
791.5569, 8515.824
792.0391, 8472.751
792.5212, 8431.049
793.0033, 8393.654
793.4854, 8352.346
793.9675, 8302.895
794.4496, 8246.752
794.9318, 8182.747
795.4139, 8112.434
795.8960, 8048.800
796.3781, 8007.746
796.8602, 7980.345
797.3423, 7945.882
797.8245, 7905.134
798.3066, 7868.064
798.7887, 7838.401
799.2708, 7807.796
799.7529, 7763.678
800.2350, 7706.629
800.7172, 7674.124
801.1993, 7696.932
801.6814, 7696.685
802.1635, 7643.678
802.6456, 7580.315
803.1277, 7536.848
803.6099, 7511.337
804.0920, 7486.245
804.5741, 7455.550
805.0562, 7423.538
805.5383, 7389.380
806.0204, 7357.491
806.5026, 7337.222
806.9847, 7326.849
807.4668, 7313.253
807.9489, 7287.825
808.4310, 7255.458
808.9131, 7224.409
809.3953, 7194.452
809.8774, 7174.555
810.3595, 7168.958
810.8416, 7164.290
811.3237, 7158.094
811.8058, 7144.749
812.2880, 7105.847
812.7701, 7018.934
813.2522, 6965.459
813.7343, 6971.900
814.2164, 6988.513
814.6985, 7005.431
815.1807, 7010.933
815.6628, 6984.180
816.1449, 6921.605
816.6270, 6860.690
817.1091, 6834.842
817.5912, 6824.761
818.0734, 6801.465
818.5555, 6767.985
819.0376, 6740.101
819.5197, 6722.668
820.0018, 6705.377
820.4839, 6674.801
820.9661, 6633.518
821.4482, 6611.101
821.9303, 6616.336
822.4124, 6615.807
822.8945, 6601.654
823.3766, 6580.136
823.8588, 6551.808
824.3409, 6519.560
824.8230, 6496.878
825.3051, 6500.138
825.7872, 6493.191
826.2693, 6456.235
826.7515, 6412.267
827.2336, 6384.139
827.7157, 6367.717
828.1978, 6344.076
828.6799, 6303.432
829.1620, 6258.350
829.6442, 6220.601
830.1263, 6190.692
830.6084, 6171.654
831.0905, 6163.255
831.5726, 6160.018
832.0547, 6160.434
832.5369, 6159.186
833.0190, 6146.270
833.5011, 6119.428
833.9832, 6095.159
834.4653, 6076.749
834.9474, 6055.536
835.4296, 6016.573
835.9117, 5981.195
836.3938, 5982.917
836.8759, 6020.798
837.3580, 6021.703
837.8401, 5931.696
838.3223, 5842.458
838.8044, 5800.369
839.2865, 5784.016
839.7686, 5772.808
840.2507, 5760.250
840.7328, 5742.092
841.2150, 5715.596
841.6971, 5682.175
842.1792, 5639.771
842.6613, 5591.434
843.1434, 5552.227
843.6255, 5524.252
844.1077, 5498.989
844.5898, 5471.144
845.0719, 5441.301
845.5540, 5410.362
846.0361, 5378.117
846.5182, 5345.531
847.0004, 5309.350
847.4825, 5277.225
847.9646, 5260.085
848.4467, 5244.681
848.9288, 5211.998
849.4109, 5158.691
849.8931, 5108.752
850.3752, 5075.564
850.8573, 5039.906
851.3394, 4983.909
851.8215, 4921.697
852.3036, 4876.556
852.7858, 4850.090
853.2679, 4823.025
853.7500, 4780.022
854.2321, 4730.296
854.7142, 4688.634
855.1964, 4653.223
855.6785, 4615.266
856.1606, 4573.421
856.6427, 4530.309
857.1248, 4488.955
857.6069, 4446.564
858.0891, 4391.850
858.5712, 4317.248
859.0533, 4257.884
859.5354, 4220.913
860.0175, 4190.882
860.4996, 4163.986
860.9818, 4137.681
861.4639, 4106.482
861.9460, 4068.117
862.4281, 4036.260
862.9102, 4025.113
863.3923, 4008.045
863.8745, 3963.106
864.3566, 3908.739
864.8387, 3867.497
865.3208, 3843.758
865.8029, 3830.660
866.2850, 3831.779
866.7672, 3832.231
867.2493, 3805.977
867.7314, 3764.588
868.2136, 3739.708
868.6957, 3735.862
869.1778, 3735.957
869.6599, 3728.407
870.1420, 3715.233
870.6241, 3697.739
871.1063, 3673.415
871.5884, 3670.592
872.0705, 3700.254
872.5526, 3727.014
873.0347, 3730.354
873.5168, 3721.915
873.9990, 3723.941
874.4811, 3741.422
874.9632, 3750.957
875.4453, 3741.597
875.9274, 3737.586
876.4095, 3753.390
876.8917, 3773.885
877.3738, 3783.758
877.8559, 3781.877
878.3380, 3775.770
878.8201, 3767.074
879.3022, 3757.403
879.7844, 3746.785
880.2665, 3736.546
880.7486, 3730.745
881.2307, 3727.908
881.7128, 3720.191
882.1949, 3702.713
882.6771, 3681.405
883.1592, 3665.985
883.6413, 3655.298
884.1234, 3642.435
884.6055, 3627.046
885.0876, 3609.532
885.5698, 3591.145
886.0519, 3567.238
886.5340, 3529.121
887.0161, 3475.014
887.4982, 3432.061
887.9803, 3406.676
888.4625, 3380.459
888.9446, 3343.803
889.4267, 3309.134
889.9088, 3288.637
890.3909, 3279.334
890.8730, 3266.585
891.3552, 3243.106
891.8373, 3223.773
892.3194, 3223.215
892.8015, 3219.038
893.2836, 3186.374
893.7657, 3137.353
894.2479, 3100.302
894.7300, 3085.227
895.2121, 3078.446
895.6942, 3074.168
896.1763, 3068.145
896.6584, 3050.986
897.1406, 3026.729
897.6227, 3007.293
898.1048, 2996.468
898.5869, 2992.692
899.0690, 2995.494
899.5511, 3003.228
900.0333, 3011.812
900.5154, 3021.477
900.9975, 3024.210
901.4796, 3017.409
901.9617, 3008.013
902.4438, 2999.240
902.9260, 2992.812
903.4081, 2994.363
903.8902, 3009.441
904.3723, 3018.563
904.8544, 3019.482
905.3365, 3017.108
905.8187, 3008.647
906.3008, 3000.553
906.7829, 3002.386
907.2650, 3014.774
907.7471, 3022.841
908.2292, 3021.059
908.7114, 3016.807
909.1935, 3008.825
909.6756, 3003.266
910.1577, 3010.019
910.6398, 3025.684
911.1219, 3035.305
911.6041, 3030.073
912.0862, 3022.748
912.5683, 3025.034
913.0504, 3033.642
913.5325, 3045.726
914.0146, 3059.127
914.4968, 3065.860
914.9789, 3062.933
915.4610, 3060.072
915.9431, 3071.918
916.4252, 3093.722
916.9073, 3097.122
917.3895, 3081.198
917.8716, 3079.193
918.3537, 3102.586
918.8358, 3125.686
919.3179, 3124.061
919.8000, 3105.883
920.2822, 3109.349
920.7643, 3151.260
921.2464, 3172.458
921.7285, 3152.927
922.2106, 3136.172
922.6927, 3149.933
923.1749, 3175.970
923.6570, 3185.598
924.1391, 3174.583
924.6212, 3172.900
925.1033, 3197.719
925.5854, 3216.559
926.0676, 3210.778
926.5497, 3197.594
927.0318, 3192.905
927.5139, 3197.981
927.9960, 3208.612
928.4781, 3225.528
928.9603, 3241.874
929.4424, 3250.534
929.9245, 3257.250
930.4066, 3272.874
930.8887, 3292.773
931.3708, 3300.353
931.8530, 3289.761
932.3351, 3276.927
932.8172, 3278.266
933.2993, 3290.244
933.7814, 3308.008
934.2635, 3329.367
934.7457, 3341.520
935.2278, 3341.429
935.7099, 3333.729
936.1920, 3320.595
936.6741, 3306.225
937.1563, 3304.329
937.6384, 3316.613
938.1205, 3327.835
938.6026, 3338.332
939.0847, 3343.226
939.5668, 3339.618
940.0490, 3329.713
940.5311, 3314.834
941.0132, 3292.497
941.4953, 3284.553
941.9774, 3302.026
942.4595, 3317.853
942.9417, 3332.738
943.4238, 3339.287
943.9059, 3328.702
944.3880, 3304.972
944.8701, 3281.946
945.3522, 3261.878
945.8344, 3242.086
946.3165, 3216.792
946.7986, 3196.717
947.2807, 3200.189
947.7628, 3208.358
948.2449, 3182.470
948.7271, 3118.145
949.2092, 3072.944
949.6913, 3103.040
950.1734, 3143.450
950.6555, 3136.197
951.1376, 3102.485
951.6198, 3071.970
952.1019, 3049.119
952.5840, 3028.930
953.0661, 3009.237
953.5482, 2986.524
954.0303, 2953.867
954.5125, 2915.320
954.9946, 2878.519
955.4767, 2845.406
955.9588, 2827.240
956.4409, 2827.729
956.9230, 2830.241
957.4052, 2818.410
957.8873, 2793.429
958.3694, 2756.605
958.8515, 2706.910
959.3336, 2664.893
959.8157, 2633.713
960.2979, 2609.028
960.7800, 2590.216
961.2621, 2572.355
961.7442, 2544.062
962.2263, 2501.802
962.7084, 2467.788
963.1906, 2448.764
963.6727, 2424.187
964.1548, 2381.597
964.6369, 2338.029
965.1190, 2312.382
965.6011, 2302.256
966.0833, 2286.119
966.5654, 2250.506
967.0475, 2229.145
967.5296, 2212.860
968.0117, 2223.909
968.4938, 2325.775
968.9760, 2439.150
969.4581, 2426.633
969.9402, 2263.697
970.4223, 2126.261
970.9044, 2078.874
971.3865, 2060.165
971.8687, 2054.332
972.3508, 2050.413
972.8329, 2034.381
973.3150, 2010.300
973.7971, 1994.901
974.2792, 1996.009
974.7614, 2002.894
975.2435, 2011.410
975.7256, 2018.365
976.2077, 2020.749
976.6898, 2018.354
977.1719, 2010.066
977.6541, 1996.346
978.1362, 1981.854
978.6183, 1970.420
979.1004, 1959.974
979.5825, 1943.861
980.0646, 1926.633
980.5468, 1924.344
981.0289, 1936.087
981.5110, 1942.133
981.9931, 1932.493
982.4752, 1920.065
982.9573, 1924.533
983.4395, 1942.086
983.9216, 1951.467
984.4037, 1952.804
984.8858, 1954.217
985.3679, 1957.626
985.8500, 1962.015
986.3322, 1967.147
986.8143, 1971.615
987.2964, 1969.837
987.7785, 1959.804
988.2606, 1958.997
988.7427, 1971.512
989.2249, 1980.933
989.7070, 1979.270
990.1891, 1974.390
990.6712, 1975.773
991.1533, 1983.169
991.6354, 1990.125
992.1176, 1995.972
992.5997, 2002.771
993.0818, 2010.404
993.5639, 2019.522
994.0460, 2032.742
994.5281, 2046.832
995.0103, 2056.369
995.4924, 2062.435
995.9745, 2059.051
996.4566, 2029.511
996.9387, 2012.029
997.4208, 2022.367
997.9030, 2043.682
998.3851, 2068.302
998.8672, 2092.014
999.3493, 2103.690
999.8314, 2096.812
1000.314, 2089.425
1000.796, 2081.472
1001.278, 2079.678
1001.760, 2095.458
1002.242, 2115.422
1002.724, 2121.448
1003.206, 2112.341
1003.688, 2100.874
1004.170, 2087.344
1004.653, 2080.645
1005.135, 2092.390
1005.617, 2108.146
1006.099, 2112.609
1006.581, 2109.139
1007.063, 2108.098
1007.545, 2112.541
1008.027, 2117.576
1008.510, 2123.169
1008.992, 2124.428
1009.474, 2111.997
1009.956, 2093.759
1010.438, 2082.137
1010.920, 2078.376
1011.402, 2079.197
1011.884, 2083.234
1012.367, 2087.993
1012.849, 2092.028
1013.331, 2094.212
1013.813, 2088.859
1014.295, 2080.112
1014.777, 2083.168
1015.259, 2099.792
1015.741, 2115.061
1016.223, 2118.326
1016.706, 2112.569
1017.188, 2098.550
1017.670, 2080.095
1018.152, 2071.910
1018.634, 2074.123
1019.116, 2080.184
1019.598, 2087.655
1020.080, 2094.687
1020.563, 2099.138
1021.045, 2101.759
1021.527, 2104.376
1022.009, 2107.114
1022.491, 2113.055
1022.973, 2122.816
1023.455, 2127.453
1023.937, 2121.517
1024.419, 2113.498
1024.901, 2115.428
1025.384, 2126.940
1025.866, 2146.002
1026.348, 2174.459
1026.830, 2191.511
1027.312, 2190.999
1027.794, 2189.195
1028.276, 2197.985
1028.758, 2210.446
1029.241, 2208.880
1029.723, 2189.482
1030.205, 2190.982
1030.687, 2220.546
1031.169, 2245.874
1031.651, 2257.709
1032.133, 2263.526
1032.615, 2268.143
1033.098, 2272.656
1033.580, 2280.927
1034.062, 2292.462
1034.544, 2310.104
1035.026, 2339.767
1035.508, 2363.306
1035.990, 2372.744
1036.472, 2374.692
1036.954, 2372.591
1037.437, 2368.121
1037.919, 2379.163
1038.401, 2421.575
1038.883, 2448.170
1039.365, 2445.236
1039.847, 2441.998
1040.329, 2449.740
1040.811, 2465.479
1041.293, 2488.070
1041.776, 2518.210
1042.258, 2539.321
1042.740, 2546.775
1043.222, 2551.924
1043.704, 2551.493
1044.186, 2553.496
1044.668, 2562.808
1045.150, 2577.156
1045.633, 2593.753
1046.115, 2613.208
1046.597, 2628.903
1047.079, 2637.706
1047.561, 2646.202
1048.043, 2655.173
1048.525, 2665.029
1049.007, 2681.735
1049.490, 2698.249
1049.972, 2694.816
1050.454, 2660.997
1050.936, 2645.908
1051.418, 2678.230
1051.900, 2704.109
1052.382, 2703.958
1052.864, 2690.226
1053.346, 2666.683
1053.828, 2639.687
1054.311, 2626.984
1054.793, 2638.836
1055.275, 2641.943
1055.757, 2616.289
1056.239, 2594.318
1056.721, 2600.419
1057.203, 2611.475
1057.685, 2600.375
1058.168, 2570.373
1058.650, 2545.283
1059.132, 2533.044
1059.614, 2520.800
1060.096, 2502.885
1060.578, 2485.527
1061.060, 2477.075
1061.542, 2468.483
1062.025, 2444.818
1062.507, 2408.234
1062.989, 2380.327
1063.471, 2375.419
1063.953, 2365.784
1064.435, 2332.770
1064.917, 2300.111
1065.399, 2286.560
1065.881, 2282.411
1066.364, 2273.071
1066.846, 2256.675
1067.328, 2239.100
1067.810, 2221.484
1068.292, 2204.474
1068.774, 2189.136
1069.256, 2173.720
1069.738, 2156.101
1070.220, 2137.659
1070.703, 2119.304
1071.185, 2101.759
1071.667, 2091.322
1072.149, 2098.563
1072.631, 2102.957
1073.113, 2094.951
1073.595, 2080.120
1074.077, 2060.835
1074.560, 2039.304
1075.042, 2017.186
1075.524, 1995.148
1076.006, 1976.763
1076.488, 1964.236
1076.970, 1954.926
1077.452, 1947.783
1077.934, 1942.948
1078.417, 1940.960
1078.899, 1941.258
1079.381, 1945.837
1079.863, 1955.058
1080.345, 1952.603
1080.827, 1914.970
1081.309, 1884.073
1081.791, 1891.889
1082.273, 1907.901
1082.756, 1901.227
1083.238, 1879.725
1083.720, 1867.150
1084.202, 1869.440
1084.684, 1869.282
1085.166, 1852.431
1085.648, 1839.418
1086.130, 1847.384
1086.613, 1858.950
1087.095, 1856.810
1087.577, 1844.542
1088.059, 1832.822
1088.541, 1823.962
1089.023, 1819.434
1089.505, 1823.928
1089.987, 1827.869
1090.469, 1828.479
1090.952, 1824.443
1091.434, 1809.404
1091.916, 1789.910
1092.398, 1782.963
1092.880, 1794.230
1093.362, 1800.510
1093.844, 1788.571
1094.326, 1775.548
1094.808, 1771.468
1095.291, 1768.539
1095.773, 1756.018
1096.255, 1739.206
1096.737, 1732.826
1097.219, 1741.128
1097.701, 1750.638
1098.183, 1764.501
1098.665, 1769.392
1099.148, 1748.532
1099.630, 1725.936
1100.112, 1725.961
1100.594, 1740.724
1101.076, 1748.040
1101.558, 1743.293
1102.040, 1735.638
1102.522, 1724.523
1103.005, 1714.597
1103.487, 1704.589
1103.969, 1698.999
1104.451, 1705.691
1104.933, 1718.661
1105.415, 1723.837
1105.897, 1718.615
1106.379, 1709.979
1106.861, 1692.306
1107.344, 1680.467
1107.826, 1683.704
1108.308, 1689.962
1108.790, 1688.793
1109.272, 1684.041
1109.754, 1687.171
1110.236, 1702.706
1110.718, 1707.097
1111.200, 1684.323
1111.683, 1669.489
1112.165, 1681.678
1112.647, 1693.209
1113.129, 1679.336
1113.611, 1653.037
1114.093, 1644.752
1114.575, 1660.181
1115.057, 1666.527
1115.540, 1657.233
1116.022, 1648.950
1116.504, 1645.053
1116.986, 1641.804
1117.468, 1634.720
1117.950, 1628.017
1118.432, 1630.854
1118.914, 1644.875
1119.396, 1654.849
1119.879, 1660.249
1120.361, 1662.337
1120.843, 1658.748
1121.325, 1656.591
1121.807, 1662.470
1122.289, 1669.554
1122.771, 1665.115
1123.253, 1648.598
1123.735, 1636.565
1124.218, 1629.194
1124.700, 1626.022
1125.182, 1627.888
1125.664, 1632.414
1126.146, 1640.992
1126.628, 1645.568
1127.110, 1630.793
1127.592, 1599.410
1128.075, 1594.136
1128.557, 1620.497
1129.039, 1634.388
1129.521, 1628.630
1130.003, 1619.830
1130.485, 1614.783
1130.967, 1615.887
1131.449, 1628.780
1131.932, 1648.720
1132.414, 1648.822
1132.896, 1629.306
1133.378, 1617.389
1133.860, 1615.885
1134.342, 1615.050
1134.824, 1610.804
1135.306, 1607.410
1135.788, 1610.082
1136.271, 1615.845
1136.753, 1616.899
1137.235, 1613.579
1137.717, 1605.589
1138.199, 1594.252
1138.681, 1590.083
1139.163, 1596.270
1139.645, 1603.694
1140.127, 1604.212
1140.610, 1602.186
1141.092, 1606.218
1141.574, 1613.381
1142.056, 1616.452
1142.538, 1615.707
1143.020, 1613.282
1143.502, 1610.098
1143.984, 1607.713
1144.467, 1607.152
1144.949, 1607.906
1145.431, 1613.083
1145.913, 1616.529
1146.395, 1602.017
1146.877, 1581.121
1147.359, 1582.564
1147.841, 1605.580
1148.323, 1621.198
1148.806, 1613.672
1149.288, 1602.306
1149.770, 1600.691
1150.252, 1603.120
1150.734, 1607.459
1151.216, 1610.551
1151.698, 1605.353
1152.180, 1595.281
1152.662, 1594.911
1153.145, 1611.409
1153.627, 1619.870
1154.109, 1598.083
1154.591, 1578.213
1155.073, 1582.218
1155.555, 1592.339
1156.037, 1588.564
1156.519, 1577.924
1157.002, 1582.376
1157.484, 1608.068
1157.966, 1622.122
1158.448, 1608.352
1158.930, 1595.035
1159.412, 1585.663
1159.894, 1582.906
1160.376, 1595.268
1160.859, 1612.132
1161.341, 1612.729
1161.823, 1595.465
1162.305, 1591.044
1162.787, 1613.510
1163.269, 1622.255
1163.751, 1605.218
1164.233, 1589.108
1164.715, 1584.958
1165.198, 1588.064
1165.680, 1593.318
1166.162, 1600.703
1166.644, 1610.971
1167.126, 1626.445
1167.608, 1633.692
1168.090, 1630.738
1168.572, 1625.597
1169.054, 1620.890
1169.537, 1615.359
1170.019, 1607.983
1170.501, 1598.880
1170.983, 1584.426
1171.465, 1566.106
1171.947, 1573.575
1172.429, 1605.609
1172.911, 1627.832
1173.394, 1632.261
1173.876, 1634.770
1174.358, 1646.255
1174.840, 1655.406
1175.322, 1638.641
1175.804, 1609.702
1176.286, 1606.234
1176.768, 1619.821
1177.250, 1626.454
1177.733, 1623.405
1178.215, 1617.604
1178.697, 1612.068
1179.179, 1608.072
1179.661, 1606.313
1180.143, 1607.085
1180.625, 1614.045
1181.107, 1621.365
1181.589, 1619.631
1182.072, 1611.980
1182.554, 1605.404
1183.036, 1602.251
1183.518, 1606.189
1184.000, 1624.800
1184.482, 1641.339
1184.964, 1650.628
1185.446, 1651.387
1185.929, 1632.742
1186.411, 1611.316
1186.893, 1613.461
1187.375, 1635.960
1187.857, 1645.441
1188.339, 1624.746
1188.821, 1616.943
1189.303, 1637.665
1189.786, 1658.883
1190.268, 1675.794
1190.750, 1685.403
1191.232, 1681.392
1191.714, 1669.932
1192.196, 1668.193
1192.678, 1679.776
1193.160, 1676.206
1193.642, 1649.555
1194.125, 1632.439
1194.607, 1630.590
1195.089, 1639.868
1195.571, 1660.518
1196.053, 1684.048
1196.535, 1699.227
1197.017, 1705.830
1197.499, 1699.220
1197.981, 1680.514
1198.464, 1671.573
1198.946, 1674.258
1199.428, 1684.934
1199.910, 1701.995
1200.392, 1714.067
1200.874, 1710.070
1201.356, 1699.359
1201.838, 1696.413
1202.321, 1698.834
1202.803, 1703.712
1203.285, 1709.095
1203.767, 1709.485
1204.249, 1705.398
1204.731, 1705.282
1205.213, 1714.319
1205.695, 1720.100
1206.177, 1706.612
1206.660, 1693.046
1207.142, 1698.153
1207.624, 1709.807
1208.106, 1713.159
1208.588, 1710.919
1209.070, 1712.715
1209.552, 1720.607
1210.034, 1730.248
1210.516, 1744.620
1210.999, 1754.516
1211.481, 1758.176
1211.963, 1756.197
1212.445, 1743.147
1212.927, 1728.654
1213.409, 1726.370
1213.891, 1733.996
1214.373, 1734.110
1214.856, 1719.449
1215.338, 1718.947
1215.820, 1737.845
1216.302, 1755.698
1216.784, 1766.465
1217.266, 1775.884
1217.748, 1789.169
1218.230, 1801.311
1218.713, 1800.464
1219.195, 1788.826
1219.677, 1786.876
1220.159, 1793.370
1220.641, 1795.194
1221.123, 1791.445
1221.605, 1794.131
1222.087, 1808.339
1222.569, 1823.672
1223.052, 1831.405
1223.534, 1832.450
1224.016, 1823.470
1224.498, 1811.838
1224.980, 1808.306
1225.462, 1812.319
1225.944, 1823.248
1226.426, 1838.704
1226.909, 1849.442
1227.391, 1850.147
1227.873, 1849.842
1228.355, 1851.635
1228.837, 1855.732
1229.319, 1862.820
1229.801, 1871.792
1230.283, 1884.785
1230.766, 1898.131
1231.248, 1902.670
1231.730, 1896.350
1232.212, 1889.899
1232.694, 1880.007
1233.176, 1876.912
1233.658, 1883.444
1234.140, 1893.866
1234.622, 1907.612
1235.104, 1920.218
1235.587, 1925.888
1236.069, 1926.973
1236.551, 1933.137
1237.033, 1944.455
1237.515, 1954.608
1237.997, 1963.332
1238.479, 1968.304
1238.961, 1969.121
1239.444, 1968.654
1239.926, 1968.436
1240.408, 1970.626
1240.890, 1977.685
1241.372, 1989.211
1241.854, 2005.860
1242.336, 2025.681
1242.818, 2049.677
1243.301, 2072.516
1243.783, 2077.648
1244.265, 2063.409
1244.747, 2057.129
1245.229, 2079.978
1245.711, 2099.452
1246.193, 2093.463
1246.675, 2086.055
1247.157, 2092.949
1247.640, 2106.015
1248.122, 2114.233
1248.604, 2120.033
1249.086, 2135.994
1249.568, 2167.403
1250.050, 2187.555
1250.532, 2190.603
1251.014, 2196.251
1251.496, 2209.425
1251.979, 2219.891
1252.461, 2220.880
1252.943, 2221.502
1253.425, 2233.501
1253.907, 2253.952
1254.389, 2274.958
1254.871, 2295.155
1255.353, 2299.868
1255.836, 2291.814
1256.318, 2292.211
1256.800, 2306.011
1257.282, 2327.938
1257.764, 2355.885
1258.246, 2380.664
1258.728, 2388.267
1259.210, 2392.202
1259.693, 2410.393
1260.175, 2431.573
1260.657, 2436.497
1261.139, 2433.606
1261.621, 2447.041
1262.103, 2479.482
1262.585, 2501.869
1263.067, 2491.443
1263.549, 2494.013
1264.031, 2540.878
1264.514, 2572.697
1264.996, 2550.567
1265.478, 2522.600
1265.960, 2528.380
1266.442, 2555.994
1266.924, 2579.440
1267.406, 2599.117
1267.888, 2599.723
1268.371, 2579.173
1268.853, 2566.366
1269.335, 2565.187
1269.817, 2570.179
1270.299, 2579.145
1270.781, 2590.198
1271.263, 2603.211
1271.745, 2612.488
1272.228, 2601.197
1272.710, 2584.686
1273.192, 2596.797
1273.674, 2622.158
1274.156, 2626.107
1274.638, 2609.638
1275.120, 2596.629
1275.602, 2594.956
1276.084, 2597.475
1276.567, 2605.150
1277.049, 2610.511
1277.531, 2611.449
1278.013, 2608.312
1278.495, 2598.811
1278.977, 2587.164
1279.459, 2579.270
1279.941, 2573.921
1280.423, 2564.248
1280.906, 2546.622
1281.388, 2542.749
1281.870, 2555.543
1282.352, 2562.727
1282.834, 2558.741
1283.316, 2564.444
1283.798, 2592.746
1284.280, 2614.335
1284.763, 2586.827
1285.245, 2539.982
1285.727, 2535.623
1286.209, 2555.938
1286.691, 2566.797
1287.173, 2569.290
1287.655, 2572.796
1288.137, 2578.841
1288.620, 2583.863
1289.102, 2586.080
1289.584, 2588.292
1290.066, 2590.278
##END=



