##NAMES=Wagnerite
##RRUFFID=R070559
##IDEAL CHEMISTRY=Mg_2_PO_4_F
##LOCALITY=Panasqueira mine, near Fundão, Portugal
##OWNER=RRUFF
##SOURCE=Royal Ontario Museum
##DESCRIPTION=Pale orange fragments, intimately associated with panasqueiraite
##STATUS=The identification of this mineral is confirmed by single-crystal X-ray diffraction and chemical analysis.
##URL=rruff.info/R070559
##MEASURED CHEMISTRY=(Mg_0.88_Fe^2+^_0.63_Mn^2+^_0.47_Ca_0.02_)_Σ=2_(P_1.00_O_4_)(F_0.93_(OH)_0.07_)_Σ=1_; = light phase and the dark phase is panasqueiraite: (Ca_0.99_Mn_0.01_)_Σ=1_(Mg_0.99_Fe_0.01_)_Σ=1_P_1.00_O_4_(OH); OH estimated by charge balance
94.74744, 36.55611
95.22955, 36.43209
95.71167, 36.20568
96.19379, 35.92449
96.67590, 35.65011
97.15803, 35.39430
97.64014, 35.20992
98.12226, 35.03746
98.60438, 34.76444
99.08649, 34.34051
99.56861, 33.84747
100.0507, 33.40157
100.5328, 32.94234
101.0150, 32.51458
101.4971, 32.16494
101.9792, 31.89350
102.4613, 31.65545
102.9434, 31.43249
103.4255, 31.22773
103.9077, 31.04973
104.3898, 30.90321
104.8719, 30.77363
105.3540, 30.62319
105.8361, 30.39677
106.3182, 30.24420
106.8004, 30.29645
107.2825, 30.40148
107.7646, 30.36991
108.2467, 30.07641
108.7288, 29.54183
109.2109, 29.05107
109.6931, 28.46856
110.1752, 28.05468
110.6573, 27.97857
111.1394, 28.15280
111.6215, 28.35465
112.1037, 28.39666
112.5858, 28.25545
113.0679, 28.04040
113.5500, 27.62316
114.0321, 27.22602
114.5142, 27.04674
114.9964, 27.11585
115.4785, 27.24347
115.9606, 27.20171
116.4427, 27.00173
116.9248, 26.80209
117.4069, 26.63553
117.8891, 26.49413
118.3712, 26.35868
118.8533, 26.22186
119.3354, 26.09881
119.8175, 25.96299
120.2996, 25.82065
120.7818, 25.77570
121.2639, 25.98733
121.7460, 26.47062
122.2281, 26.79044
122.7102, 26.73271
123.1923, 26.56888
123.6745, 26.40033
124.1566, 26.25263
124.6387, 26.13803
125.1208, 26.08335
125.6029, 26.13560
126.0850, 26.14794
126.5672, 26.06885
127.0493, 25.97396
127.5314, 25.95016
128.0135, 26.02839
128.4956, 26.14172
128.9778, 26.10018
129.4599, 25.72498
129.9420, 25.38181
130.4241, 25.05023
130.9062, 24.77286
131.3883, 24.62642
131.8705, 24.66802
132.3526, 24.85529
132.8347, 24.94414
133.3168, 24.85515
133.7989, 24.77163
134.2810, 24.80301
134.7632, 24.92430
135.2453, 25.00028
135.7274, 24.93194
136.2095, 24.74448
136.6916, 24.56355
137.1737, 24.33351
137.6559, 24.14882
138.1380, 24.15615
138.6201, 24.40610
139.1022, 24.60779
139.5843, 24.50823
140.0664, 24.24639
140.5486, 24.00594
141.0307, 23.85641
141.5128, 23.78144
141.9949, 23.74764
142.4770, 23.81266
142.9591, 23.82827
143.4413, 23.69109
143.9234, 23.46741
144.4055, 23.27616
144.8876, 23.20301
145.3697, 23.24832
145.8518, 23.32943
146.3340, 23.50220
146.8161, 23.66318
147.2982, 23.78005
147.7803, 23.85597
148.2624, 23.91340
148.7445, 23.97965
149.2267, 24.07282
149.7088, 24.08834
150.1909, 23.94016
150.6730, 23.79966
151.1551, 23.79128
151.6372, 23.91784
152.1194, 24.06411
152.6015, 24.08337
153.0836, 23.90287
153.5657, 23.78069
154.0478, 23.72063
154.5300, 23.71619
155.0121, 23.78627
155.4942, 23.94141
155.9763, 24.10818
156.4584, 24.17084
156.9405, 24.13255
157.4227, 24.05105
157.9048, 23.86236
158.3869, 23.64381
158.8690, 23.58300
159.3511, 23.79104
159.8332, 24.07598
160.3154, 24.21340
160.7975, 24.20605
161.2796, 24.12805
161.7617, 23.98195
162.2438, 23.77649
162.7259, 23.63869
163.2081, 23.63378
163.6902, 23.68390
164.1723, 23.74186
164.6544, 23.80285
165.1365, 23.85375
165.6186, 23.88946
166.1008, 23.91815
166.5829, 23.89211
167.0650, 23.70687
167.5471, 23.52771
168.0292, 23.47824
168.5113, 23.58466
168.9935, 23.75607
169.4756, 23.84061
169.9577, 23.79169
170.4398, 23.73870
170.9219, 23.69052
171.4040, 23.64437
171.8862, 23.59009
172.3683, 23.52534
172.8504, 23.46668
173.3325, 23.45414
173.8146, 23.55456
174.2967, 23.62398
174.7789, 23.67738
175.2610, 23.69228
175.7431, 23.62164
176.2252, 23.43891
176.7073, 23.19550
177.1894, 23.06578
177.6716, 23.12835
178.1537, 23.19230
178.6358, 23.23829
179.1179, 23.26089
179.6000, 23.24805
180.0822, 23.19049
180.5643, 23.09643
181.0464, 22.99350
181.5285, 22.87643
182.0106, 22.75865
182.4927, 22.62507
182.9749, 22.48751
183.4570, 22.39945
183.9391, 22.38857
184.4212, 22.45084
184.9033, 22.56385
185.3854, 22.77301
185.8676, 22.95781
186.3497, 23.00879
186.8318, 22.92299
187.3139, 22.80678
187.7960, 22.67665
188.2781, 22.55465
188.7603, 22.45940
189.2424, 22.38550
189.7245, 22.35869
190.2066, 22.45150
190.6887, 22.72301
191.1708, 22.89533
191.6530, 22.78050
192.1351, 22.56718
192.6172, 22.41278
193.0993, 22.37739
193.5814, 22.40813
194.0635, 22.39746
194.5457, 22.31406
195.0278, 22.25187
195.5099, 22.24922
195.9920, 22.26593
196.4741, 22.26591
196.9562, 22.23342
197.4384, 22.17233
197.9205, 22.08735
198.4026, 21.90967
198.8847, 21.80911
199.3668, 21.86090
199.8489, 21.97703
200.3311, 22.06193
200.8132, 22.06730
201.2953, 22.00843
201.7774, 21.94572
202.2595, 21.88126
202.7417, 21.80976
203.2238, 21.76278
203.7059, 21.70141
204.1880, 21.53682
204.6701, 21.20878
205.1522, 20.79248
205.6344, 20.63812
206.1165, 21.01595
206.5986, 21.31440
207.0807, 21.37340
207.5628, 21.26529
208.0449, 21.11523
208.5271, 20.97663
209.0092, 20.86020
209.4913, 20.81516
209.9734, 20.88270
210.4555, 20.95484
210.9376, 20.99512
211.4198, 21.01058
211.9019, 21.02430
212.3840, 21.05504
212.8661, 21.08290
213.3482, 21.06079
213.8303, 20.99170
214.3125, 20.87669
214.7946, 20.68257
215.2767, 20.42690
215.7588, 20.21192
216.2409, 20.09357
216.7230, 20.03839
217.2052, 19.96093
217.6873, 19.83144
218.1694, 19.74340
218.6515, 19.80090
219.1336, 19.99778
219.6157, 20.16138
220.0979, 20.19254
220.5800, 20.17990
221.0621, 20.23701
221.5442, 20.39617
222.0263, 20.54138
222.5084, 20.54952
222.9906, 20.40998
223.4727, 20.24806
223.9548, 20.05595
224.4369, 19.88517
224.9190, 19.79232
225.4011, 19.79068
225.8833, 19.80572
226.3654, 19.70874
226.8475, 19.44539
227.3296, 19.33698
227.8117, 19.67292
228.2939, 20.04385
228.7760, 20.17357
229.2581, 20.01116
229.7402, 19.73527
230.2223, 19.57565
230.7044, 19.55834
231.1866, 19.57746
231.6687, 19.66000
232.1508, 19.74630
232.6329, 19.82651
233.1150, 19.88798
233.5971, 19.88585
234.0793, 19.71962
234.5614, 19.23976
235.0435, 18.97609
235.5256, 19.10334
236.0077, 19.29583
236.4898, 19.33425
236.9720, 19.19165
237.4541, 19.01077
237.9362, 18.99579
238.4183, 19.24933
238.9004, 19.42193
239.3825, 19.49491
239.8647, 19.51717
240.3468, 19.50825
240.8289, 19.47637
241.3110, 19.42923
241.7931, 19.37333
242.2752, 19.29930
242.7574, 19.24676
243.2395, 19.21858
243.7216, 19.20585
244.2037, 19.19550
244.6858, 19.18985
245.1679, 19.21425
245.6501, 19.30887
246.1322, 19.51523
246.6143, 19.60494
247.0964, 19.52537
247.5785, 19.38319
248.0606, 19.21163
248.5428, 19.03074
249.0249, 18.90102
249.5070, 18.90034
249.9891, 19.05973
250.4712, 19.09779
250.9533, 18.90160
251.4355, 18.67984
251.9176, 18.58232
252.3997, 18.60977
252.8818, 18.65695
253.3639, 18.63870
253.8461, 18.55112
254.3282, 18.46785
254.8103, 18.38913
255.2924, 18.31430
255.7745, 18.21444
256.2566, 18.09967
256.7387, 18.06251
257.2209, 18.20201
257.7030, 18.48569
258.1851, 18.66848
258.6672, 18.72772
259.1493, 18.70428
259.6314, 18.59478
260.1136, 18.40866
260.5957, 18.22454
261.0778, 18.08387
261.5599, 17.98241
262.0420, 17.88581
262.5241, 17.75610
263.0063, 17.67571
263.4884, 17.73455
263.9705, 17.91652
264.4526, 18.07942
264.9348, 18.14551
265.4169, 18.15783
265.8990, 18.21351
266.3811, 18.34963
266.8632, 18.45267
267.3453, 18.42769
267.8275, 18.28781
268.3096, 18.12673
268.7917, 17.94453
269.2738, 17.79014
269.7559, 17.73082
270.2380, 17.78345
270.7202, 17.84471
271.2023, 17.82877
271.6844, 17.75024
272.1665, 17.71436
272.6486, 17.78129
273.1307, 17.86355
273.6129, 17.85569
274.0950, 17.75887
274.5771, 17.69141
275.0592, 17.77674
275.5413, 17.97823
276.0234, 18.07509
276.5056, 17.98829
276.9877, 17.84551
277.4698, 17.72541
277.9519, 17.63285
278.4340, 17.59078
278.9161, 17.65756
279.3983, 17.79827
279.8804, 17.84529
280.3625, 17.72898
280.8446, 17.61097
281.3267, 17.60432
281.8088, 17.67144
282.2910, 17.72319
282.7731, 17.68551
283.2552, 17.59675
283.7373, 17.60708
284.2194, 17.81039
284.7015, 17.93139
285.1837, 17.76028
285.6658, 17.45073
286.1479, 17.23017
286.6300, 17.20980
287.1121, 17.33347
287.5942, 17.50490
288.0764, 17.78750
288.5585, 17.96217
289.0406, 17.85785
289.5227, 17.65168
290.0048, 17.53082
290.4869, 17.56888
290.9691, 17.68688
291.4512, 17.76444
291.9333, 17.81129
292.4154, 17.78401
292.8975, 17.56176
293.3796, 17.32670
293.8618, 17.24301
294.3439, 17.35198
294.8260, 17.51480
295.3081, 17.53655
295.7902, 17.37689
296.2723, 17.26812
296.7545, 17.31226
297.2366, 17.37306
297.7187, 17.36843
298.2008, 17.29392
298.6829, 17.20691
299.1650, 17.15483
299.6472, 17.13506
300.1293, 17.17448
300.6114, 17.39451
301.0935, 17.56619
301.5756, 17.54526
302.0577, 17.37367
302.5399, 17.21079
303.0220, 17.21612
303.5041, 17.37705
303.9862, 17.39153
304.4683, 17.06559
304.9504, 16.81710
305.4326, 16.82727
305.9147, 17.01640
306.3968, 17.24371
306.8789, 17.45145
307.3610, 17.61606
307.8431, 17.61372
308.3253, 17.30632
308.8074, 17.04570
309.2895, 16.95230
309.7716, 16.94520
310.2537, 16.92695
310.7358, 16.85238
311.2180, 16.75512
311.7001, 16.71704
312.1822, 16.77665
312.6643, 16.80905
313.1465, 16.74907
313.6286, 16.67931
314.1107, 16.66666
314.5928, 16.72910
315.0749, 16.83629
315.5570, 16.95365
316.0392, 17.09055
316.5213, 17.20215
317.0034, 17.32999
317.4855, 17.39686
317.9676, 17.29703
318.4497, 17.05591
318.9319, 16.84470
319.4140, 16.88266
319.8961, 17.21020
320.3782, 17.38513
320.8603, 17.25609
321.3424, 17.10519
321.8246, 17.02684
322.3067, 17.01412
322.7888, 17.03297
323.2709, 17.07864
323.7530, 17.13769
324.2351, 17.09863
324.7173, 16.85337
325.1994, 16.66100
325.6815, 16.60050
326.1636, 16.63524
326.6457, 16.72831
327.1278, 16.87713
327.6100, 17.03339
328.0921, 17.06416
328.5742, 16.89042
329.0563, 16.76098
329.5384, 16.79796
330.0205, 16.86399
330.5027, 16.81164
330.9848, 16.59962
331.4669, 16.37071
331.9490, 16.35722
332.4311, 16.63035
332.9132, 16.80552
333.3954, 16.75686
333.8775, 16.64386
334.3596, 16.52885
334.8417, 16.42478
335.3238, 16.33571
335.8059, 16.26362
336.2881, 16.20821
336.7702, 16.18117
337.2523, 16.22688
337.7344, 16.25059
338.2165, 16.16805
338.6986, 16.02957
339.1808, 15.95781
339.6629, 16.06597
340.1450, 16.28849
340.6271, 16.36661
341.1092, 16.22098
341.5913, 16.08115
342.0735, 16.02173
342.5556, 16.02143
343.0377, 16.06940
343.5198, 16.17528
344.0019, 16.28649
344.4840, 16.30835
344.9662, 16.21974
345.4483, 16.13581
345.9304, 16.09280
346.4125, 16.06658
346.8946, 16.04383
347.3767, 16.02209
347.8589, 16.00225
348.3410, 15.97526
348.8231, 15.94208
349.3052, 15.95090
349.7873, 16.04659
350.2694, 16.14307
350.7516, 16.17598
351.2337, 16.15647
351.7158, 16.13494
352.1979, 16.15018
352.6800, 16.18722
353.1621, 16.19519
353.6443, 16.16578
354.1264, 16.12393
354.6085, 16.09081
355.0906, 16.05463
355.5727, 15.99301
356.0548, 15.88769
356.5370, 15.76702
357.0191, 15.66087
357.5012, 15.56830
357.9833, 15.50701
358.4654, 15.49587
358.9475, 15.51625
359.4297, 15.54541
359.9118, 15.58109
360.3939, 15.62761
360.8760, 15.71079
361.3581, 15.81568
361.8402, 15.85373
362.3224, 15.76133
362.8045, 15.66472
363.2866, 15.74409
363.7687, 15.97551
364.2509, 16.10582
364.7330, 15.92827
365.2151, 15.62002
365.6972, 15.50917
366.1793, 15.65394
366.6614, 15.80260
367.1436, 15.72593
367.6257, 15.50061
368.1078, 15.36616
368.5899, 15.39659
369.0720, 15.49173
369.5541, 15.61278
370.0363, 15.74665
370.5184, 15.78698
371.0005, 15.63666
371.4826, 15.40542
371.9647, 15.34870
372.4468, 15.52708
372.9290, 15.70317
373.4111, 15.78934
373.8932, 15.81060
374.3753, 15.81003
374.8574, 15.79917
375.3395, 15.76642
375.8217, 15.69358
376.3038, 15.57756
376.7859, 15.44684
377.2680, 15.21248
377.7501, 15.02656
378.2322, 15.07258
378.7144, 15.33269
379.1965, 15.58122
379.6786, 15.64574
380.1607, 15.54280
380.6428, 15.48983
381.1249, 15.53953
381.6071, 15.57384
382.0892, 15.54967
382.5713, 15.48084
383.0534, 15.38333
383.5355, 15.25952
384.0176, 15.14017
384.4998, 15.09215
384.9819, 15.16496
385.4640, 15.23410
385.9461, 15.31139
386.4282, 15.37516
386.9103, 15.41953
387.3925, 15.43713
387.8746, 15.39668
388.3567, 15.24877
388.8388, 14.96162
389.3209, 14.80273
389.8030, 14.85064
390.2852, 14.92311
390.7673, 14.94676
391.2494, 14.94211
391.7315, 14.97002
392.2136, 15.07025
392.6957, 15.21264
393.1779, 15.27966
393.6600, 15.23679
394.1421, 15.15846
394.6242, 14.97355
395.1063, 14.80241
395.5884, 14.77720
396.0706, 14.92008
396.5527, 15.12048
397.0348, 15.23133
397.5169, 15.22620
397.9990, 15.23433
398.4811, 15.26833
398.9633, 15.30434
399.4454, 15.33677
399.9275, 15.36357
400.4096, 15.37954
400.8917, 15.37206
401.3738, 15.35553
401.8560, 15.40424
402.3381, 15.58200
402.8202, 15.70153
403.3023, 15.66162
403.7844, 15.56429
404.2665, 15.49881
404.7487, 15.48852
405.2308, 15.54790
405.7129, 15.74852
406.1950, 16.10682
406.6771, 16.31397
407.1592, 16.18239
407.6414, 16.01802
408.1235, 16.07143
408.6056, 16.30726
409.0877, 16.50876
409.5698, 16.47499
410.0519, 16.32958
410.5341, 16.38701
411.0162, 16.69746
411.4983, 17.04499
411.9804, 17.33404
412.4626, 17.56396
412.9447, 17.71497
413.4268, 17.73728
413.9089, 17.75863
414.3910, 17.87388
414.8731, 18.07436
415.3553, 18.33016
415.8374, 18.65571
416.3195, 18.99269
416.8016, 19.23427
417.2837, 19.37288
417.7658, 19.56162
418.2480, 19.91195
418.7301, 20.29580
419.2122, 20.52519
419.6943, 20.59036
420.1764, 20.71024
420.6585, 21.08852
421.1407, 21.69182
421.6228, 22.11115
422.1049, 22.22055
422.5870, 22.30883
423.0691, 22.48884
423.5512, 22.72650
424.0334, 22.96895
424.5155, 23.19613
424.9976, 23.38830
425.4797, 23.49559
425.9618, 23.39147
426.4439, 23.46903
426.9261, 23.97704
427.4082, 24.46949
427.8903, 24.61503
428.3724, 24.42300
428.8545, 24.10241
429.3366, 23.80647
429.8188, 23.53798
430.3009, 23.38829
430.7830, 23.47779
431.2651, 23.56049
431.7472, 23.63808
432.2293, 23.67279
432.7115, 23.59354
433.1936, 23.37877
433.6757, 23.13084
434.1578, 23.04784
434.6399, 23.21440
435.1220, 23.24547
435.6042, 22.98575
436.0863, 22.68915
436.5684, 22.46286
437.0505, 22.30497
437.5326, 22.16937
438.0147, 22.03318
438.4969, 21.89362
438.9790, 21.73851
439.4611, 21.56050
439.9432, 21.38590
440.4253, 21.28747
440.9074, 21.16915
441.3896, 20.88977
441.8717, 20.38882
442.3538, 19.90348
442.8359, 19.69016
443.3180, 19.69840
443.8001, 19.63244
444.2823, 19.41421
444.7644, 19.14807
445.2465, 18.93523
445.7286, 18.76211
446.2107, 18.57772
446.6928, 18.38153
447.1750, 18.15852
447.6571, 17.86082
448.1392, 17.50241
448.6213, 17.20664
449.1034, 17.05485
449.5855, 16.99677
450.0677, 16.88563
450.5498, 16.67351
451.0319, 16.51724
451.5140, 16.50127
451.9961, 16.54251
452.4782, 16.54087
452.9604, 16.47746
453.4425, 16.39386
453.9246, 16.33723
454.4067, 16.31576
454.8888, 16.22933
455.3709, 15.97647
455.8531, 15.78047
456.3352, 15.77065
456.8173, 15.86298
457.2994, 15.91459
457.7815, 15.85929
458.2636, 15.73481
458.7458, 15.61342
459.2279, 15.47275
459.7100, 15.38506
460.1921, 15.38019
460.6742, 15.39775
461.1564, 15.41295
461.6385, 15.41949
462.1206, 15.41497
462.6027, 15.39873
463.0848, 15.36959
463.5670, 15.31687
464.0491, 15.22097
464.5312, 15.14202
465.0133, 15.12354
465.4954, 15.11926
465.9775, 15.08401
466.4597, 15.00686
466.9418, 14.90388
467.4239, 14.75962
467.9060, 14.58941
468.3881, 14.51026
468.8702, 14.58440
469.3524, 14.66304
469.8345, 14.60463
470.3166, 14.44833
470.7987, 14.29965
471.2808, 14.18786
471.7629, 14.09227
472.2451, 13.99337
472.7272, 13.89417
473.2093, 13.81593
473.6914, 13.77748
474.1735, 13.74682
474.6556, 13.65204
475.1378, 13.46981
475.6199, 13.31345
476.1020, 13.20300
476.5841, 13.12257
477.0662, 13.05651
477.5483, 13.00515
478.0305, 12.98496
478.5126, 13.01688
478.9947, 13.08884
479.4768, 13.09359
479.9589, 13.00677
480.4410, 12.87961
480.9232, 12.64324
481.4053, 12.40825
481.8874, 12.31265
482.3695, 12.37729
482.8516, 12.48323
483.3337, 12.48498
483.8159, 12.36978
484.2980, 12.25739
484.7801, 12.12473
485.2622, 12.02359
485.7443, 11.96802
486.2264, 11.95588
486.7086, 11.99720
487.1907, 12.11139
487.6728, 12.22498
488.1549, 12.21051
488.6370, 12.05788
489.1191, 11.94499
489.6013, 11.93499
490.0834, 11.95028
490.5655, 11.92830
491.0476, 11.87089
491.5297, 11.78997
492.0118, 11.63552
492.4940, 11.49072
492.9761, 11.48206
493.4582, 11.60557
493.9403, 11.74788
494.4224, 11.87397
494.9045, 11.96150
495.3867, 11.93845
495.8688, 11.75781
496.3509, 11.60610
496.8330, 11.54518
497.3151, 11.52325
497.7972, 11.48434
498.2794, 11.42328
498.7615, 11.36899
499.2436, 11.34595
499.7257, 11.35323
500.2078, 11.37417
500.6899, 11.42846
501.1721, 11.47251
501.6542, 11.50503
502.1363, 11.52100
502.6184, 11.51242
503.1005, 11.47868
503.5826, 11.43125
504.0648, 11.37508
504.5469, 11.30487
505.0290, 11.28423
505.5111, 11.38308
505.9932, 11.44353
506.4753, 11.36171
506.9575, 11.21478
507.4396, 11.13167
507.9217, 11.17082
508.4038, 11.24983
508.8859, 11.26554
509.3680, 11.22178
509.8502, 11.18845
510.3323, 11.18278
510.8144, 11.18815
511.2965, 11.19734
511.7787, 11.20713
512.2607, 11.19386
512.7429, 11.13423
513.2250, 11.06312
513.7071, 11.00725
514.1892, 10.96556
514.6713, 10.92890
515.1534, 10.89263
515.6356, 10.86068
516.1177, 10.84269
516.5998, 10.85408
517.0819, 10.84352
517.5640, 10.79280
518.0461, 10.73369
518.5283, 10.68810
519.0104, 10.65417
519.4925, 10.61392
519.9746, 10.55175
520.4567, 10.48462
520.9388, 10.48411
521.4210, 10.61975
521.9031, 10.69032
522.3852, 10.59138
522.8673, 10.48893
523.3494, 10.52385
523.8315, 10.68561
524.3137, 10.84377
524.7958, 10.90404
525.2779, 10.88064
525.7600, 10.80975
526.2421, 10.67548
526.7242, 10.55315
527.2064, 10.46737
527.6885, 10.41825
528.1706, 10.41135
528.6527, 10.45414
529.1348, 10.50054
529.6169, 10.54072
530.0991, 10.56477
530.5812, 10.55067
531.0633, 10.49632
531.5454, 10.42624
532.0275, 10.34573
532.5096, 10.26498
532.9918, 10.25828
533.4739, 10.39763
533.9560, 10.50621
534.4381, 10.51398
534.9202, 10.49113
535.4024, 10.53683
535.8845, 10.65602
536.3666, 10.74718
536.8488, 10.69865
537.3309, 10.51093
537.8130, 10.35837
538.2951, 10.19238
538.7772, 10.13439
539.2593, 10.29462
539.7415, 10.52712
540.2236, 10.68561
540.7057, 10.73096
541.1878, 10.70715
541.6699, 10.64202
542.1520, 10.54079
542.6342, 10.42929
543.1163, 10.28938
543.5984, 10.18831
544.0805, 10.17161
544.5626, 10.22501
545.0447, 10.34271
545.5269, 10.58936
546.0090, 10.77483
546.4911, 10.73697
546.9732, 10.57295
547.4553, 10.47085
547.9374, 10.47074
548.4196, 10.50402
548.9017, 10.50195
549.3838, 10.46286
549.8659, 10.47159
550.3480, 10.61685
550.8301, 10.69612
551.3123, 10.57746
551.7944, 10.39600
552.2765, 10.34175
552.7586, 10.45378
553.2407, 10.58606
553.7228, 10.52964
554.2050, 10.26396
554.6871, 10.19942
555.1692, 10.48802
555.6513, 10.76723
556.1334, 10.91961
556.6155, 10.98201
557.0977, 10.98636
557.5798, 10.93214
558.0619, 10.88866
558.5440, 10.96977
559.0261, 11.12027
559.5082, 11.09203
559.9904, 10.80309
560.4725, 10.55845
560.9546, 10.64809
561.4367, 10.99050
561.9188, 11.14382
562.4009, 10.88548
562.8831, 10.71226
563.3652, 10.92566
563.8473, 11.28627
564.3294, 11.44140
564.8115, 11.32788
565.2936, 11.15073
565.7758, 11.11465
566.2579, 11.22008
566.7400, 11.30231
567.2221, 11.35038
567.7042, 11.38657
568.1863, 11.38752
568.6685, 11.39314
569.1506, 11.44455
569.6327, 11.54952
570.1148, 11.68467
570.5969, 11.86218
571.0790, 12.06221
571.5612, 12.12580
572.0433, 11.98244
572.5254, 11.90352
573.0075, 12.09018
573.4896, 12.39974
573.9717, 12.63418
574.4539, 12.78350
574.9360, 12.83658
575.4181, 12.70836
575.9002, 12.51745
576.3823, 12.42740
576.8644, 12.45466
577.3466, 12.54693
577.8287, 12.68346
578.3108, 12.84220
578.7929, 12.91383
579.2750, 12.75965
579.7571, 12.70069
580.2393, 12.84268
580.7214, 13.01938
581.2035, 13.11012
581.6856, 13.10484
582.1677, 13.04781
582.6498, 12.95607
583.1320, 12.85417
583.6141, 12.83849
584.0962, 12.93594
584.5783, 13.02641
585.0604, 13.05700
585.5425, 13.08469
586.0247, 13.16312
586.5068, 13.29020
586.9889, 13.41603
587.4710, 13.50316
587.9531, 13.58836
588.4352, 13.73638
588.9174, 13.93152
589.3995, 14.06939
589.8816, 14.09033
590.3637, 14.07414
590.8458, 14.16176
591.3279, 14.39639
591.8101, 14.62019
592.2922, 14.84084
592.7743, 15.04362
593.2564, 15.20759
593.7385, 15.34940
594.2206, 15.49571
594.7028, 15.65775
595.1849, 15.83999
595.6670, 16.04838
596.1491, 16.28308
596.6312, 16.53896
597.1133, 16.79680
597.5955, 17.10791
598.0776, 17.57023
598.5597, 18.08760
599.0418, 18.46345
599.5239, 18.60153
600.0060, 18.69430
600.4882, 18.86366
600.9703, 19.10703
601.4524, 19.45710
601.9345, 19.92590
602.4166, 20.35342
602.8987, 20.57451
603.3809, 20.61003
603.8630, 20.75819
604.3451, 21.09685
604.8272, 21.43196
605.3093, 21.77126
605.7914, 22.06338
606.2736, 22.25957
606.7557, 22.35516
607.2378, 22.36962
607.7199, 22.28458
608.2020, 22.14760
608.6841, 22.23435
609.1663, 22.66557
609.6484, 22.97007
610.1305, 22.87778
610.6126, 22.69327
611.0947, 22.71045
611.5768, 22.92728
612.0590, 23.06119
612.5411, 22.96072
613.0232, 22.73884
613.5053, 22.50005
613.9874, 22.25091
614.4695, 21.99470
614.9517, 21.72953
615.4338, 21.46551
615.9159, 21.21463
616.3980, 20.97555
616.8801, 20.75978
617.3622, 20.59723
617.8444, 20.42112
618.3265, 20.19868
618.8086, 19.94458
619.2907, 19.68964
619.7728, 19.44343
620.2549, 19.18364
620.7371, 18.84792
621.2192, 18.44340
621.7013, 18.17834
622.1834, 18.13451
622.6655, 18.06754
623.1476, 17.80887
623.6298, 17.44431
624.1119, 17.11690
624.5940, 16.85847
625.0761, 16.57550
625.5582, 16.17345
626.0403, 15.75422
626.5225, 15.48749
627.0046, 15.35857
627.4867, 15.16858
627.9688, 14.76800
628.4509, 14.25810
628.9330, 13.97773
629.4152, 14.15161
629.8973, 14.14692
630.3794, 13.79281
630.8615, 13.42001
631.3436, 13.22691
631.8257, 13.16854
632.3079, 13.09605
632.7900, 12.93670
633.2721, 12.73342
633.7542, 12.53146
634.2364, 12.33380
634.7185, 12.18035
635.2006, 12.09362
635.6827, 12.00686
636.1649, 11.84544
636.6470, 11.62620
637.1291, 11.47973
637.6112, 11.46474
638.0933, 11.45309
638.5754, 11.41738
639.0576, 11.35654
639.5397, 11.26015
640.0218, 11.13297
640.5039, 10.99998
640.9860, 10.87726
641.4681, 10.76822
641.9503, 10.69388
642.4324, 10.67926
642.9145, 10.63634
643.3966, 10.50260
643.8787, 10.36887
644.3608, 10.29842
644.8430, 10.28535
645.3251, 10.28596
645.8072, 10.31749
646.2893, 10.32246
646.7714, 10.19643
647.2535, 9.990900
647.7357, 9.887452
648.2178, 9.943818
648.6999, 10.05352
649.1820, 10.10806
649.6641, 10.10828
650.1462, 10.03746
650.6284, 9.762012
651.1105, 9.585259
651.5926, 9.633265
652.0747, 9.769456
652.5568, 9.874007
653.0389, 9.921179
653.5211, 9.928732
654.0032, 9.893142
654.4853, 9.836685
654.9674, 9.839586
655.4495, 9.911713
655.9316, 9.926334
656.4138, 9.815276
656.8959, 9.660116
657.3780, 9.563434
657.8601, 9.522568
658.3422, 9.498605
658.8243, 9.527075
659.3065, 9.529622
659.7886, 9.416045
660.2707, 9.262603
660.7528, 9.209093
661.2349, 9.289303
661.7170, 9.397784
662.1992, 9.406088
662.6813, 9.321088
663.1634, 9.316662
663.6455, 9.451944
664.1276, 9.551077
664.6097, 9.513315
665.0919, 9.443396
665.5740, 9.432615
666.0561, 9.485938
666.5382, 9.549255
667.0203, 9.636776
667.5024, 9.693612
667.9846, 9.629805
668.4667, 9.480300
668.9488, 9.365154
669.4309, 9.328515
669.9130, 9.341071
670.3951, 9.369925
670.8773, 9.420960
671.3594, 9.440660
671.8415, 9.392744
672.3236, 9.355828
672.8057, 9.338807
673.2878, 9.345432
673.7700, 9.389309
674.2521, 9.467666
674.7342, 9.542830
675.2163, 9.581107
675.6984, 9.598322
676.1805, 9.641505
676.6627, 9.708057
677.1448, 9.712544
677.6269, 9.605901
678.1090, 9.464769
678.5911, 9.402948
679.0732, 9.444241
679.5554, 9.423885
680.0375, 9.232677
680.5196, 9.106383
681.0017, 9.190445
681.4838, 9.362535
681.9659, 9.471957
682.4481, 9.482859
682.9302, 9.451890
683.4123, 9.424031
683.8944, 9.399050
684.3765, 9.382831
684.8586, 9.382542
685.3408, 9.342128
685.8229, 9.210419
686.3050, 9.066297
686.7871, 9.015697
687.2692, 9.054530
687.7513, 9.102156
688.2335, 9.175458
688.7156, 9.224116
689.1977, 9.201535
689.6798, 9.143693
690.1619, 9.101267
690.6440, 9.088789
691.1262, 9.099027
691.6083, 9.126860
692.0904, 9.170797
692.5725, 9.231112
693.0546, 9.336165
693.5367, 9.370996
694.0189, 9.233542
694.5010, 9.073440
694.9831, 9.054719
695.4652, 9.154868
695.9473, 9.181914
696.4294, 8.974070
696.9116, 8.781054
697.3937, 8.806919
697.8758, 8.959606
698.3579, 9.065680
698.8400, 9.087115
699.3221, 9.106381
699.8043, 9.213404
700.2864, 9.383758
700.7685, 9.419876
701.2506, 9.239770
701.7327, 9.099443
702.2148, 9.049562
702.6970, 9.054945
703.1791, 9.134706
703.6612, 9.259025
704.1433, 9.322088
704.6254, 9.249196
705.1075, 9.149030
705.5897, 9.118804
706.0718, 9.124787
706.5539, 9.088247
707.0360, 8.997299
707.5181, 8.912656
708.0002, 8.884857
708.4824, 8.903040
708.9645, 8.909698
709.4466, 8.879798
709.9287, 8.887209
710.4108, 8.985325
710.8929, 9.077144
711.3751, 9.093143
711.8572, 9.060014
712.3393, 9.055113
712.8214, 9.121226
713.3035, 9.183139
713.7856, 9.153246
714.2678, 9.076889
714.7499, 9.070594
715.2320, 9.143404
715.7141, 9.170321
716.1962, 9.054696
716.6783, 8.862056
717.1605, 8.789708
717.6426, 8.889940
718.1247, 9.011475
718.6068, 9.260235
719.0889, 9.418503
719.5710, 9.322673
720.0532, 9.088241
720.5353, 8.911040
721.0174, 8.850910
721.4995, 8.842045
721.9816, 8.839267
722.4637, 8.847871
722.9459, 8.889928
723.4280, 8.962289
723.9101, 9.011519
724.3922, 9.007270
724.8743, 8.979969
725.3564, 8.988846
725.8386, 9.050097
726.3207, 9.089109
726.8028, 9.128648
727.2849, 9.120376
727.7670, 8.977239
728.2491, 8.815205
728.7313, 8.797383
729.2134, 8.945785
729.6955, 9.085599
730.1776, 9.069894
730.6597, 8.983532
731.1418, 8.950729
731.6240, 8.969283
732.1061, 9.028856
732.5882, 9.134247
733.0704, 9.213351
733.5525, 9.163174
734.0346, 8.974368
734.5167, 8.882650
734.9988, 8.981359
735.4810, 9.057994
735.9631, 9.048098
736.4452, 9.028494
736.9273, 9.081035
737.4094, 9.192188
737.8915, 9.268541
738.3737, 9.250821
738.8558, 9.191979
739.3379, 9.135579
739.8200, 9.086582
740.3021, 9.055117
740.7842, 9.043403
741.2664, 9.069460
741.7485, 9.157844
742.2306, 9.287776
742.7127, 9.357725
743.1948, 9.355613
743.6769, 9.313184
744.1591, 9.189897
744.6412, 9.070942
745.1233, 9.002140
745.6054, 8.971084
746.0875, 8.949027
746.5696, 8.928798
747.0518, 8.909056
747.5339, 8.875761
748.0160, 8.848093
748.4981, 8.867412
748.9802, 8.930367
749.4623, 8.994443
749.9445, 9.039353
750.4266, 9.068401
750.9087, 9.084867
751.3908, 9.081803
751.8729, 9.100782
752.3550, 9.181217
752.8372, 9.230950
753.3193, 9.188553
753.8014, 9.121634
754.2835, 9.114648
754.7656, 9.175280
755.2477, 9.216544
755.7299, 9.172626
756.2120, 9.112281
756.6941, 9.117502
757.1762, 9.156610
757.6583, 9.129237
758.1404, 9.014571
758.6226, 8.927655
759.1047, 8.994967
759.5868, 9.185149
760.0689, 9.277058
760.5510, 9.223409
761.0331, 9.198014
761.5153, 9.284831
761.9974, 9.356103
762.4795, 9.253763
762.9616, 9.057779
763.4437, 9.041746
763.9258, 9.408139
764.4080, 9.699903
764.8901, 9.602090
765.3722, 9.373349
765.8543, 9.316461
766.3364, 9.423879
766.8185, 9.521570
767.3007, 9.513471
767.7828, 9.466755
768.2649, 9.519334
768.7470, 9.677723
769.2291, 9.740871
769.7112, 9.672952
770.1934, 9.581643
770.6755, 9.498492
771.1576, 9.435260
771.6397, 9.415799
772.1218, 9.445101
772.6039, 9.475842
773.0861, 9.500200
773.5682, 9.524589
774.0503, 9.558557
774.5324, 9.591967
775.0145, 9.607770
775.4966, 9.604438
775.9788, 9.598251
776.4609, 9.604247
776.9430, 9.615491
777.4251, 9.613260
777.9072, 9.598014
778.3893, 9.583935
778.8715, 9.570777
779.3536, 9.572464
779.8357, 9.603211
780.3178, 9.659819
780.7999, 9.719728
781.2820, 9.860336
781.7642, 9.892034
782.2463, 9.676620
782.7284, 9.470621
783.2105, 9.461194
783.6926, 9.580503
784.1747, 9.666752
784.6569, 9.661692
785.1390, 9.636483
785.6211, 9.664395
786.1032, 9.712768
786.5853, 9.702917
787.0674, 9.641902
787.5496, 9.622027
788.0317, 9.688647
788.5138, 9.767796
788.9959, 9.742727
789.4780, 9.600168
789.9601, 9.547609
790.4423, 9.652126
790.9244, 9.739325
791.4065, 9.786795
791.8886, 9.787539
792.3707, 9.696500
792.8528, 9.540097
793.3350, 9.457652
793.8171, 9.555268
794.2992, 9.656650
794.7813, 9.638822
795.2634, 9.565494
795.7455, 9.523830
796.2277, 9.520288
796.7098, 9.516871
797.1919, 9.490326
797.6740, 9.451716
798.1561, 9.407643
798.6382, 9.355130
799.1204, 9.386163
799.6025, 9.531429
800.0846, 9.692602
800.5667, 9.862140
801.0488, 9.991135
801.5309, 9.968772
802.0131, 9.773634
802.4952, 9.596363
802.9773, 9.435369
803.4594, 9.315594
803.9415, 9.240143
804.4236, 9.215671
804.9058, 9.285476
805.3879, 9.430007
805.8700, 9.526657
806.3521, 9.463266
806.8342, 9.350564
807.3163, 9.394594
807.7985, 9.544003
808.2806, 9.550684
808.7627, 9.367091
809.2448, 9.214090
809.7269, 9.261518
810.2090, 9.433660
810.6912, 9.485828
811.1733, 9.311655
811.6554, 9.272845
812.1375, 9.529190
812.6196, 9.738398
813.1017, 9.752091
813.5839, 9.653966
814.0660, 9.535046
814.5481, 9.405795
815.0302, 9.322878
815.5123, 9.309719
815.9944, 9.353049
816.4766, 9.499784
816.9587, 9.676640
817.4408, 9.741930
817.9229, 9.673437
818.4050, 9.557062
818.8871, 9.447928
819.3693, 9.371565
819.8514, 9.437361
820.3335, 9.656347
820.8156, 9.728601
821.2977, 9.567027
821.7798, 9.378769
822.2620, 9.293827
822.7441, 9.286302
823.2262, 9.282435
823.7083, 9.286256
824.1904, 9.284245
824.6725, 9.242407
825.1547, 9.231707
825.6368, 9.323987
826.1189, 9.446624
826.6010, 9.491351
827.0831, 9.444636
827.5652, 9.407130
828.0474, 9.499926
828.5295, 9.592749
829.0116, 9.469748
829.4937, 9.227492
829.9758, 9.141956
830.4579, 9.260199
830.9401, 9.384699
831.4222, 9.360801
831.9044, 9.236733
832.3865, 9.146753
832.8686, 9.086182
833.3507, 9.093292
833.8328, 9.207489
834.3149, 9.322330
834.7971, 9.394241
835.2792, 9.422576
835.7613, 9.402675
836.2434, 9.325643
836.7255, 9.251499
837.2076, 9.153677
837.6898, 9.101749
838.1719, 9.165957
838.6540, 9.274005
839.1361, 9.342159
839.6182, 9.357968
840.1003, 9.352998
840.5825, 9.340412
841.0646, 9.329402
841.5467, 9.329631
842.0288, 9.342050
842.5109, 9.386568
842.9930, 9.461567
843.4752, 9.485067
843.9573, 9.399170
844.4394, 9.262743
844.9215, 9.207119
845.4036, 9.253588
845.8857, 9.270355
846.3679, 9.239735
846.8500, 9.210568
847.3321, 9.193315
847.8142, 9.191387
848.2963, 9.218368
848.7784, 9.271571
849.2606, 9.301650
849.7427, 9.281553
850.2248, 9.258824
850.7069, 9.259231
851.1890, 9.260920
851.6711, 9.229944
852.1533, 9.178885
852.6354, 9.154890
853.1175, 9.182837
853.5996, 9.229590
854.0817, 9.282629
854.5638, 9.319839
855.0460, 9.254641
855.5281, 9.096166
856.0102, 8.982673
856.4923, 8.971102
856.9744, 9.008511
857.4565, 9.030761
857.9387, 9.038198
858.4208, 9.042587
858.9029, 9.058659
859.3850, 9.030892
859.8671, 8.862150
860.3492, 8.742063
860.8314, 8.891335
861.3135, 9.192013
861.7956, 9.303367
862.2777, 9.067443
862.7598, 8.937713
863.2419, 9.156127
863.7241, 9.394991
864.2062, 9.424427
864.6883, 9.321054
865.1704, 9.223264
865.6525, 9.172197
866.1346, 9.158451
866.6168, 9.208211
867.0989, 9.263792
867.5810, 9.229692
868.0631, 9.122846
868.5452, 8.976883
869.0273, 8.804212
869.5095, 8.696884
869.9916, 8.730035
870.4737, 8.848049
870.9558, 8.897877
871.4379, 8.856808
871.9200, 8.892393
872.4022, 9.078820
872.8843, 9.181331
873.3664, 8.999533
873.8485, 8.752459
874.3306, 8.810437
874.8127, 9.186682
875.2949, 9.418803
875.7770, 9.421713
876.2591, 9.348541
876.7412, 9.156754
877.2233, 8.974771
877.7054, 8.928763
878.1876, 8.990766
878.6697, 9.060212
879.1518, 9.106296
879.6339, 9.111638
880.1160, 9.038287
880.5981, 8.931129
881.0803, 8.849430
881.5624, 8.791314
882.0445, 8.726706
882.5266, 8.647797
883.0087, 8.592131
883.4908, 8.602526
883.9730, 8.665437
884.4551, 8.742504
884.9372, 8.837739
885.4193, 8.867524
885.9014, 8.808321
886.3835, 8.707525
886.8657, 8.581455
887.3478, 8.450605
887.8299, 8.371936
888.3120, 8.365964
888.7941, 8.358236
889.2762, 8.303382
889.7584, 8.302268
890.2405, 8.461417
890.7226, 8.636950
891.2047, 8.678938
891.6868, 8.586346
892.1689, 8.458508
892.6511, 8.257477
893.1332, 8.121047
893.6153, 8.152091
894.0974, 8.258413
894.5795, 8.368017
895.0616, 8.460287
895.5438, 8.511449
896.0259, 8.512255
896.5080, 8.500713
896.9901, 8.533405
897.4722, 8.578252
897.9543, 8.546857
898.4365, 8.452399
898.9186, 8.369602
899.4007, 8.319441
899.8828, 8.308618
900.3649, 8.352008
900.8470, 8.424072
901.3292, 8.424206
901.8113, 8.331798
902.2934, 8.273705
902.7755, 8.281224
903.2576, 8.270270
903.7397, 8.155910
904.2219, 8.032467
904.7040, 8.091025
905.1861, 8.377898
905.6682, 8.487659
906.1503, 8.237145
906.6324, 8.042957
907.1146, 8.030534
907.5967, 8.091421
908.0788, 8.167036
908.5609, 8.235980
909.0430, 8.261271
909.5251, 8.218451
910.0073, 8.183638
910.4894, 8.215899
910.9715, 8.264683
911.4536, 8.278597
911.9357, 8.268948
912.4178, 8.263624
912.9000, 8.270373
913.3821, 8.283126
913.8642, 8.298488
914.3463, 8.314157
914.8284, 8.341258
915.3105, 8.367278
915.7927, 8.298945
916.2748, 8.130108
916.7569, 8.063546
917.2390, 8.225596
917.7211, 8.469739
918.2032, 8.545770
918.6854, 8.445560
919.1675, 8.392948
919.6496, 8.416289
920.1317, 8.393493
920.6138, 8.247716
921.0959, 8.114536
921.5781, 8.134995
922.0602, 8.270160
922.5423, 8.325938
923.0244, 8.227977
923.5065, 8.193122
923.9886, 8.312170
924.4708, 8.402446
924.9529, 8.343612
925.4350, 8.233244
925.9171, 8.183805
926.3992, 8.210979
926.8813, 8.293160
927.3635, 8.517810
927.8456, 8.680788
928.3277, 8.579821
928.8098, 8.416642
929.2919, 8.439449
929.7740, 8.605699
930.2562, 8.729673
930.7383, 8.735382
931.2205, 8.701944
931.7026, 8.691944
932.1847, 8.703735
932.6668, 8.762541
933.1489, 8.842450
933.6310, 8.806843
934.1132, 8.640352
934.5953, 8.576924
935.0774, 8.818793
935.5595, 9.168442
936.0416, 9.091615
936.5237, 8.582678
937.0059, 8.376269
937.4880, 8.554324
937.9701, 8.749558
938.4522, 8.820077
938.9343, 8.839845
939.4164, 8.888251
939.8986, 8.965827
940.3807, 9.088560
940.8628, 9.327691
941.3449, 9.468372
941.8270, 9.392123
942.3091, 9.329314
942.7913, 9.444624
943.2734, 9.631150
943.7555, 9.705170
944.2376, 9.639295
944.7197, 9.618620
945.2018, 9.661181
945.6840, 9.769166
946.1661, 10.03454
946.6482, 10.29216
947.1303, 10.36390
947.6124, 10.29538
948.0945, 10.25073
948.5767, 10.27781
949.0588, 10.37206
949.5409, 10.54855
950.0230, 10.77582
950.5051, 11.07556
950.9872, 11.38466
951.4694, 11.56468
951.9515, 11.61295
952.4336, 11.68410
952.9157, 11.89673
953.3978, 12.15076
953.8799, 12.25741
954.3621, 12.29948
954.8442, 12.52874
955.3263, 12.93775
955.8084, 13.32825
956.2905, 13.62156
956.7726, 13.92266
957.2548, 14.37973
957.7369, 14.92426
958.2190, 15.19344
958.7011, 15.16189
959.1832, 15.43846
959.6653, 16.17217
960.1475, 16.92758
960.6296, 17.44198
961.1117, 17.85515
961.5938, 18.42375
962.0759, 19.16165
962.5580, 19.93670
963.0402, 20.78076
963.5223, 21.58298
964.0044, 22.21335
964.4865, 22.92221
964.9686, 23.92657
965.4507, 25.15504
965.9329, 26.38721
966.4150, 27.63515
966.8971, 28.84860
967.3792, 29.80722
967.8613, 30.99163
968.3434, 32.81459
968.8256, 34.77626
969.3077, 36.30412
969.7898, 37.48032
970.2719, 38.86033
970.7540, 40.65262
971.2361, 42.55449
971.7183, 44.49352
972.2004, 46.45507
972.6825, 48.43606
973.1646, 50.41670
973.6467, 52.38390
974.1288, 54.32899
974.6110, 56.24841
975.0931, 58.11132
975.5752, 59.99284
976.0573, 62.07082
976.5394, 64.15997
977.0215, 65.93048
977.5037, 67.45955
977.9858, 69.09968
978.4679, 70.97276
978.9500, 72.74590
979.4321, 74.08991
979.9142, 75.11577
980.3964, 75.98631
980.8785, 76.72118
981.3606, 77.40784
981.8427, 78.04800
982.3248, 78.51662
982.8069, 78.74525
983.2891, 78.80418
983.7712, 78.80019
984.2533, 78.72102
984.7354, 78.44234
985.2175, 77.95735
985.6996, 77.57692
986.1818, 77.41611
986.6639, 77.02435
987.1460, 76.07186
987.6281, 74.71022
988.1102, 73.22421
988.5923, 71.53974
989.0745, 70.29285
989.5566, 69.70345
990.0387, 68.89624
990.5208, 67.65179
991.0029, 66.08073
991.4850, 64.23263
991.9672, 62.16298
992.4493, 60.05259
992.9314, 57.80856
993.4135, 55.77244
993.8956, 54.32240
994.3777, 52.58228
994.8599, 49.98036
995.3420, 47.19063
995.8241, 44.86037
996.3062, 42.91837
996.7883, 40.80964
997.2704, 38.24530
997.7526, 35.95661
998.2347, 34.09023
998.7168, 32.45364
999.1989, 31.05068
999.6810, 29.74733
1000.163, 28.38183
1000.645, 26.94826
1001.127, 25.61246
1001.609, 24.34172
1002.092, 23.29753
1002.574, 22.66511
1003.056, 22.16678
1003.538, 21.65056
1004.020, 21.09335
1004.502, 20.45004
1004.984, 19.73595
1005.466, 19.12246
1005.949, 18.74945
1006.431, 18.44170
1006.913, 18.06300
1007.395, 17.68410
1007.877, 17.40247
1008.359, 17.19232
1008.841, 16.97245
1009.323, 16.71978
1009.805, 16.47927
1010.288, 16.27224
1010.770, 16.11487
1011.252, 16.10011
1011.734, 16.11759
1012.216, 15.92294
1012.698, 15.55371
1013.180, 15.24539
1013.662, 15.09376
1014.145, 14.98397
1014.627, 14.76983
1015.109, 14.54325
1015.591, 14.54022
1016.073, 14.68093
1016.555, 14.68235
1017.037, 14.52829
1017.519, 14.41385
1018.001, 14.43782
1018.484, 14.51325
1018.966, 14.54484
1019.448, 14.52708
1019.930, 14.40979
1020.412, 14.20906
1020.894, 14.07130
1021.376, 14.02171
1021.858, 14.00102
1022.341, 13.97557
1022.823, 13.96129
1023.305, 13.99860
1023.787, 14.07461
1024.269, 14.04157
1024.751, 13.89092
1025.233, 13.80623
1025.715, 13.83161
1026.198, 13.86247
1026.680, 13.82390
1027.162, 13.77840
1027.644, 13.86223
1028.126, 14.08088
1028.608, 14.16722
1029.090, 14.08942
1029.572, 14.02716
1030.054, 14.01375
1030.536, 14.04302
1031.019, 14.13330
1031.501, 14.23040
1031.983, 14.19718
1032.465, 13.99546
1032.947, 13.98105
1033.429, 14.24878
1033.911, 14.45324
1034.393, 14.49656
1034.876, 14.50128
1035.358, 14.54659
1035.840, 14.62044
1036.322, 14.69306
1036.804, 14.75953
1037.286, 14.85114
1037.768, 14.99034
1038.250, 15.11180
1038.733, 15.15705
1039.215, 15.23722
1039.697, 15.51446
1040.179, 15.86135
1040.661, 15.91897
1041.143, 15.54966
1041.625, 15.40342
1042.107, 15.71176
1042.589, 15.92486
1043.072, 15.84344
1043.554, 15.72158
1044.036, 15.72250
1044.518, 15.81832
1045.000, 15.96256
1045.482, 16.20437
1045.964, 16.28624
1046.446, 16.00590
1046.928, 15.81327
1047.411, 15.91530
1047.893, 16.05765
1048.375, 16.02430
1048.857, 15.89145
1049.339, 15.87363
1049.821, 16.03245
1050.303, 16.08959
1050.785, 15.94438
1051.268, 15.76832
1051.750, 15.59045
1052.232, 15.42546
1052.714, 15.27316
1053.196, 15.14498
1053.678, 15.08505
1054.160, 15.12134
1054.642, 15.07356
1055.125, 14.75887
1055.607, 14.53735
1056.089, 14.63643
1056.571, 14.79700
1057.053, 14.82699
1057.535, 14.74445
1058.017, 14.61711
1058.499, 14.45468
1058.981, 14.27481
1059.464, 14.00699
1059.946, 13.82260
1060.428, 13.84926
1060.910, 13.93561
1061.392, 13.95827
1061.874, 13.93828
1062.356, 13.95106
1062.838, 14.01383
1063.320, 14.03370
1063.803, 13.87746
1064.285, 13.80092
1064.767, 13.98576
1065.249, 14.23668
1065.731, 14.40322
1066.213, 14.50017
1066.695, 14.58999
1067.177, 14.68439
1067.660, 14.73550
1068.142, 14.55113
1068.624, 14.54409
1069.106, 15.11810
1069.588, 15.75257
1070.070, 15.95606
1070.552, 15.91762
1071.034, 16.06296
1071.516, 16.45748
1071.999, 16.77627
1072.481, 16.83522
1072.963, 16.85384
1073.445, 16.88826
1073.927, 16.96760
1074.409, 17.17705
1074.891, 17.41938
1075.373, 17.51605
1075.855, 17.45449
1076.338, 17.42006
1076.820, 17.47509
1077.302, 17.59234
1077.784, 17.84029
1078.266, 18.06383
1078.748, 18.16147
1079.230, 18.14271
1079.713, 18.01435
1080.195, 17.79213
1080.677, 17.53782
1081.159, 17.25552
1081.641, 16.98872
1082.123, 16.80972
1082.605, 16.60257
1083.087, 16.25947
1083.569, 15.85190
1084.052, 15.45958
1084.534, 15.10022
1085.016, 14.79161
1085.498, 14.56718
1085.980, 14.31223
1086.462, 13.96205
1086.944, 13.57882
1087.426, 13.14085
1087.908, 12.73530
1088.391, 12.52703
1088.873, 12.44654
1089.355, 12.21189
1089.837, 11.69668
1090.319, 11.22744
1090.801, 10.91116
1091.283, 10.70313
1091.765, 10.66801
1092.248, 10.65751
1092.730, 10.50560
1093.212, 10.25221
1093.694, 10.03041
1094.176, 9.869468
1094.658, 9.756184
1095.140, 9.689655
1095.622, 9.666044
1096.104, 9.763769
1096.587, 9.831409
1097.069, 9.708303
1097.551, 9.463648
1098.033, 9.245834
1098.515, 9.080478
1098.997, 8.947920
1099.479, 8.833525
1099.961, 8.763470
1100.443, 8.781259
1100.926, 8.810873
1101.408, 8.828872
1101.890, 8.807882
1102.372, 8.686240
1102.854, 8.466138
1103.336, 8.297657
1103.818, 8.257496
1104.300, 8.208813
1104.783, 8.105562
1105.265, 8.005040
1105.747, 7.909404
1106.229, 7.852585
1106.711, 7.904748
1107.193, 8.046524
1107.675, 8.123455
1108.157, 8.107805
1108.640, 8.043217
1109.122, 7.867368
1109.604, 7.727559
1110.086, 7.699585
1110.568, 7.718310
1111.050, 7.740656
1111.532, 7.756244
1112.014, 7.729426
1112.496, 7.626631
1112.979, 7.569740
1113.461, 7.629395
1113.943, 7.645139
1114.425, 7.485215
1114.907, 7.363805
1115.389, 7.492385
1115.871, 7.748468
1116.353, 7.843033
1116.835, 7.734772
1117.318, 7.713770
1117.800, 7.863294
1118.282, 7.945306
1118.764, 7.895001
1119.246, 7.812636
1119.728, 7.718697
1120.210, 7.659815
1120.692, 7.732193
1121.175, 7.931210
1121.657, 7.993927
1122.139, 7.827410
1122.621, 7.790302
1123.103, 7.957222
1123.585, 8.150838
1124.067, 8.327471
1124.549, 8.436606
1125.031, 8.405576
1125.514, 8.266465
1125.996, 8.163759
1126.478, 8.093146
1126.960, 8.091996
1127.442, 8.179515
1127.924, 8.249857
1128.406, 8.264689
1128.888, 8.280752
1129.370, 8.344220
1129.853, 8.439875
1130.335, 8.542222
1130.817, 8.651428
1131.299, 8.678672
1131.781, 8.616780
1132.263, 8.655947
1132.745, 8.842406
1133.227, 8.990956
1133.710, 8.990174
1134.192, 8.932203
1134.674, 8.943325
1135.156, 9.013229
1135.638, 9.135617
1136.120, 9.289707
1136.602, 9.268525
1137.084, 9.073403
1137.567, 8.990786
1138.049, 9.131487
1138.531, 9.341231
1139.013, 9.496456
1139.495, 9.568431
1139.977, 9.450214
1140.459, 9.216688
1140.941, 9.077170
1141.423, 9.025231
1141.906, 8.989810
1142.388, 8.948106
1142.870, 8.893139
1143.352, 8.820609
1143.834, 8.728425
1144.316, 8.593210
1144.798, 8.452289
1145.280, 8.404912
1145.762, 8.376948
1146.245, 8.174312
1146.727, 7.837123
1147.209, 7.596374
1147.691, 7.540442
1148.173, 7.538043
1148.655, 7.518152
1149.137, 7.476267
1149.619, 7.425224
1150.102, 7.337004
1150.584, 7.123207
1151.066, 6.867314
1151.548, 6.748415
1152.030, 6.787138
1152.512, 6.831409
1152.994, 6.818969
1153.476, 6.791087
1153.958, 6.784944
1154.441, 6.751195
1154.923, 6.603598
1155.405, 6.446872
1155.887, 6.437894
1156.369, 6.537074
1156.851, 6.551229
1157.333, 6.414142
1157.815, 6.309287
1158.297, 6.277283
1158.780, 6.281731
1159.262, 6.374273
1159.744, 6.436622
1160.226, 6.312501
1160.708, 6.129038
1161.190, 6.173548
1161.672, 6.475597
1162.154, 6.556642
1162.637, 6.220977
1163.119, 6.036648
1163.601, 6.128997
1164.083, 6.226408
1164.565, 6.212494
1165.047, 6.165105
1165.529, 6.161441
1166.011, 6.194823
1166.494, 6.250994
1166.976, 6.356562
1167.458, 6.332799
1167.940, 6.143191
1168.422, 6.004797
1168.904, 5.970880
1169.386, 5.991837
1169.868, 6.039261
1170.350, 6.107123
1170.833, 6.191222
1171.315, 6.284786
1171.797, 6.355997
1172.279, 6.401665
1172.761, 6.364344
1173.243, 6.247602
1173.725, 6.185555
1174.207, 6.228593
1174.689, 6.298302
1175.172, 6.333303
1175.654, 6.322676
1176.136, 6.203483
1176.618, 6.044280
1177.100, 6.022520
1177.582, 6.096954
1178.064, 6.132911
1178.547, 6.108741
1179.029, 6.066832
1179.511, 6.024501
1179.993, 6.027135
1180.475, 6.207121
1180.957, 6.353166
1181.439, 6.170986
1181.921, 5.896557
1182.403, 5.835399
1182.885, 5.931027
1183.368, 6.004626
1183.850, 6.016884
1184.332, 6.027334
1184.814, 6.064760
1185.296, 6.096628
1185.778, 6.119032
1186.260, 6.120990
1186.742, 6.070714
1187.225, 6.016098
1187.707, 6.016227
1188.189, 6.057449
1188.671, 6.089311
1189.153, 6.124787
1189.635, 6.081788
1190.117, 5.806914
1190.599, 5.680852
1191.082, 5.850268
1191.564, 6.055988
1192.046, 6.189561
1192.528, 6.248213
1193.010, 6.212253
1193.492, 6.095537
1193.974, 6.007704
1194.456, 5.940916
1194.938, 5.963124
1195.421, 6.103906
1195.903, 6.165067
1196.385, 6.073637
1196.867, 5.988482
1197.349, 6.029363
1197.831, 6.143217
1198.313, 6.263304
1198.795, 6.366343
1199.277, 6.293384
1199.760, 6.090171
1200.242, 6.013433
1200.724, 6.074213
1201.206, 6.104342
1201.688, 6.044685
1202.170, 6.007530
1202.652, 6.104077
1203.134, 6.219825
1203.617, 6.204280
1204.099, 6.121718
1204.581, 6.056140
1205.063, 5.998006
1205.545, 5.889449
1206.027, 5.758025
1206.509, 5.728051
1206.991, 5.851349
1207.474, 5.986963
1207.956, 6.072045
1208.438, 6.134263
1208.920, 6.168187
1209.402, 6.204603
1209.884, 6.304505
1210.366, 6.401873
1210.848, 6.382019
1211.330, 6.249310
1211.813, 6.127797
1212.295, 5.990417
1212.777, 5.948977
1213.259, 6.104168
1213.741, 6.185189
1214.223, 6.030810
1214.705, 5.945439
1215.187, 6.217523
1215.669, 6.585955
1216.152, 6.534434
1216.634, 6.099637
1217.116, 5.922565
1217.598, 6.027748
1218.080, 6.101276
1218.562, 6.113804
1219.044, 6.069142
1219.526, 5.965949
1220.009, 5.904187
1220.491, 5.973899
1220.973, 6.085235
1221.455, 6.068802
1221.937, 5.979234
1222.419, 5.959993
1222.901, 5.986257
1223.383, 5.985343
1223.865, 5.954838
1224.348, 5.937666
1224.830, 5.945153
1225.312, 5.920235
1225.794, 5.781418
1226.276, 5.678015
1226.758, 5.764864
1227.240, 5.895593
1227.722, 5.966575
1228.204, 5.982323
1228.687, 5.926085
1229.169, 5.833063
1229.651, 5.814085
1230.133, 5.908184
1230.615, 5.965217
1231.097, 5.943758
1231.579, 5.905116
1232.061, 5.838459
1232.544, 5.785598
1233.026, 5.764984
1233.508, 5.770503
1233.990, 5.814162
1234.472, 5.870179
1234.954, 5.813703
1235.436, 5.614990
1235.918, 5.515574
1236.401, 5.523592
1236.883, 5.533148
1237.365, 5.520183
1237.847, 5.582838
1238.329, 5.777278
1238.811, 5.987332
1239.293, 6.094342
1239.775, 6.097129
1240.257, 5.919906
1240.740, 5.670526
1241.222, 5.619109
1241.704, 5.714804
1242.186, 5.787035
1242.668, 5.803068
1243.150, 5.812064
1243.632, 5.837889
1244.114, 5.824714
1244.596, 5.673982
1245.079, 5.550231
1245.561, 5.583075
1246.043, 5.662217
1246.525, 5.710419
1247.007, 5.731282
1247.489, 5.738012
1247.971, 5.733086
1248.453, 5.720644
1248.936, 5.689268
1249.418, 5.681263
1249.900, 5.716622
1250.382, 5.737208
1250.864, 5.730565
1251.346, 5.703572
1251.828, 5.643392
1252.310, 5.609629
1252.792, 5.703877
1253.275, 5.867661
1253.757, 5.820660
1254.239, 5.588768
1254.721, 5.498594
1255.203, 5.555026
1255.685, 5.708861
1256.167, 5.921184
1256.649, 5.973939
1257.131, 5.752187
1257.614, 5.532625
1258.096, 5.630271
1258.578, 5.821681
1259.060, 5.861913
1259.542, 5.829547
1260.024, 5.829303
1260.506, 5.823986
1260.988, 5.673747
1261.471, 5.433487
1261.953, 5.409425
1262.435, 5.751721
1262.917, 5.980109
1263.399, 5.896638
1263.881, 5.797013
1264.363, 5.723242
1264.845, 5.699420
1265.328, 5.779727
1265.810, 5.863794
1266.292, 5.816302
1266.774, 5.687822
1267.256, 5.700830
1267.738, 5.879350
1268.220, 5.935856
1268.702, 5.866178
1269.184, 5.797114
1269.667, 5.752481
1270.149, 5.739095
1270.631, 5.759581
1271.113, 5.775775
1271.595, 5.748290
1272.077, 5.703856
1272.559, 5.680618
1273.041, 5.667701
1273.523, 5.659102
1274.006, 5.642772
1274.488, 5.578644
1274.970, 5.491462
1275.452, 5.467275
1275.934, 5.529236
1276.416, 5.586986
1276.898, 5.609723
1277.380, 5.619371
1277.863, 5.596021
1278.345, 5.592769
1278.827, 5.631357
1279.309, 5.708511
1279.791, 5.867967
1280.273, 6.029174
1280.755, 5.999414
1281.237, 5.781207
1281.719, 5.573229
1282.202, 5.365691
1282.684, 5.338076
1283.166, 5.506640
1283.648, 5.687557
1284.130, 5.818067
1284.612, 5.825458
1285.094, 5.645222
1285.576, 5.455187
##END=



