##NAMES=Wagnerite
##RRUFFID=R070559
##IDEAL CHEMISTRY=Mg_2_PO_4_F
##LOCALITY=Panasqueira mine, near Fundão, Portugal
##OWNER=RRUFF
##SOURCE=Royal Ontario Museum
##DESCRIPTION=Pale orange fragments, intimately associated with panasqueiraite
##STATUS=The identification of this mineral is confirmed by single-crystal X-ray diffraction and chemical analysis.
##URL=rruff.info/R070559
##MEASURED CHEMISTRY=(Mg_0.88_Fe^2+^_0.63_Mn^2+^_0.47_Ca_0.02_)_Σ=2_(P_1.00_O_4_)(F_0.93_(OH)_0.07_)_Σ=1_; = light phase and the dark phase is panasqueiraite: (Ca_0.99_Mn_0.01_)_Σ=1_(Mg_0.99_Fe_0.01_)_Σ=1_P_1.00_O_4_(OH); OH estimated by charge balance
91.00781, 5.861761
91.48993, 6.348141
91.97205, 6.542807
92.45416, 6.197704
92.93628, 5.572047
93.41840, 5.269683
93.90051, 5.472521
94.38263, 5.883576
94.86475, 6.019710
95.34686, 5.883072
95.82898, 5.680396
96.31110, 5.470725
96.79321, 5.276713
97.27533, 5.397903
97.75745, 6.035079
98.23956, 7.019881
98.72168, 7.559900
99.20380, 7.544425
99.68591, 7.414552
100.1680, 7.650056
100.6501, 8.301012
101.1323, 9.068468
101.6144, 9.910097
102.0965, 10.84405
102.5786, 11.59899
103.0607, 12.07577
103.5428, 12.46642
104.0250, 13.10498
104.5071, 14.05715
104.9892, 15.13770
105.4713, 16.25538
105.9534, 17.30685
106.4355, 18.62902
106.9177, 20.42497
107.3998, 22.49964
107.8819, 24.29732
108.3640, 25.56056
108.8461, 26.73268
109.3282, 28.03522
109.8104, 29.60122
110.2925, 31.11490
110.7746, 32.60920
111.2567, 34.05755
111.7388, 35.31115
112.2209, 36.10551
112.7031, 36.81880
113.1852, 37.72192
113.6673, 38.77448
114.1494, 40.09969
114.6315, 41.84687
115.1136, 44.04779
115.5958, 46.17461
116.0779, 47.80682
116.5600, 49.35535
117.0421, 51.27235
117.5242, 54.16371
118.0063, 57.15002
118.4885, 59.75981
118.9706, 61.88955
119.4527, 63.97803
119.9348, 66.16319
120.4169, 68.46609
120.8990, 70.96434
121.3812, 73.98008
121.8633, 77.06402
122.3454, 79.81850
122.8275, 82.27711
123.3096, 84.21630
123.7917, 85.22776
124.2739, 85.47822
124.7560, 85.57968
125.2381, 85.73991
125.7202, 86.04014
126.2023, 86.60873
126.6844, 87.47249
127.1666, 88.62077
127.6487, 90.30393
128.1308, 92.48003
128.6129, 94.35932
129.0950, 94.97073
129.5771, 94.67768
130.0593, 94.80952
130.5414, 95.92765
131.0235, 97.64970
131.5056, 98.95292
131.9877, 99.45579
132.4698, 99.27138
132.9520, 98.80761
133.4341, 98.09773
133.9162, 97.86639
134.3983, 98.56186
134.8804, 100.0267
135.3625, 101.0596
135.8447, 101.5740
136.3268, 101.9118
136.8089, 102.5948
137.2910, 103.6927
137.7731, 104.7354
138.2552, 105.6380
138.7374, 106.4444
139.2195, 106.7027
139.7016, 106.2735
140.1837, 105.4417
140.6658, 104.7721
141.1479, 104.2473
141.6301, 103.8891
142.1122, 103.7109
142.5943, 103.7425
143.0764, 103.8488
143.5585, 103.9814
144.0406, 104.1831
144.5228, 104.6741
145.0049, 105.7804
145.4870, 106.7648
145.9691, 107.1818
146.4512, 106.5491
146.9333, 106.1527
147.4155, 106.1108
147.8976, 106.3942
148.3797, 106.7316
148.8618, 107.1065
149.3439, 107.5509
149.8260, 108.0841
150.3082, 108.9304
150.7903, 109.6203
151.2724, 110.0381
151.7545, 110.1708
152.2366, 110.4487
152.7188, 110.8302
153.2009, 111.3841
153.6830, 112.1622
154.1651, 113.7617
154.6472, 115.0071
155.1293, 115.4842
155.6115, 115.0894
156.0936, 114.7781
156.5757, 114.6716
157.0578, 114.7405
157.5399, 114.9558
158.0220, 115.4427
158.5042, 115.9667
158.9863, 116.4666
159.4684, 116.9588
159.9505, 117.3441
160.4326, 117.4299
160.9147, 117.4170
161.3969, 117.6032
161.8790, 118.1406
162.3611, 118.8674
162.8432, 119.8372
163.3253, 121.2696
163.8074, 122.2414
164.2896, 121.8905
164.7717, 120.7748
165.2538, 120.0091
165.7359, 120.5475
166.2180, 121.3616
166.7001, 121.5981
167.1823, 120.8227
167.6644, 120.0803
168.1465, 120.0373
168.6286, 120.5518
169.1107, 121.2283
169.5928, 122.1309
170.0750, 122.9673
170.5571, 123.4152
171.0392, 123.2550
171.5213, 122.9293
172.0034, 122.8041
172.4855, 122.8365
172.9677, 122.8371
173.4498, 122.7168
173.9319, 122.4838
174.4140, 122.1273
174.8961, 121.5323
175.3782, 120.9423
175.8604, 120.6513
176.3425, 120.6300
176.8246, 120.6434
177.3067, 120.4916
177.7888, 120.2467
178.2709, 120.0848
178.7531, 120.2472
179.2352, 120.3683
179.7173, 119.7815
180.1994, 118.5099
180.6815, 117.1477
181.1636, 116.1645
181.6458, 115.5046
182.1279, 115.0353
182.6100, 114.6998
183.0921, 114.5269
183.5742, 114.6143
184.0563, 114.9676
184.5385, 115.4239
185.0206, 116.0233
185.5027, 116.6669
185.9848, 116.8402
186.4669, 116.1558
186.9490, 114.8941
187.4312, 113.7831
187.9133, 112.8245
188.3954, 112.1269
188.8775, 111.9616
189.3596, 112.2761
189.8417, 112.5777
190.3239, 112.7320
190.8060, 112.7315
191.2881, 112.4686
191.7702, 111.8988
192.2523, 111.2575
192.7344, 110.8343
193.2166, 110.6323
193.6987, 110.5058
194.1808, 110.4566
194.6629, 110.4676
195.1450, 110.2803
195.6271, 109.8325
196.1093, 109.3452
196.5914, 109.2074
197.0735, 109.4532
197.5556, 109.6179
198.0377, 109.4149
198.5198, 108.8375
199.0020, 108.5859
199.4841, 108.7896
199.9662, 109.0869
200.4483, 108.7484
200.9304, 107.6320
201.4125, 106.7405
201.8947, 106.6496
202.3768, 107.4444
202.8589, 107.9553
203.3410, 108.1556
203.8231, 108.1002
204.3052, 107.7913
204.7874, 107.1259
205.2695, 106.6335
205.7516, 106.6885
206.2337, 107.4379
206.7158, 107.6870
207.1979, 107.2624
207.6801, 106.4914
208.1622, 106.0879
208.6443, 106.1669
209.1264, 106.2487
209.6085, 106.0958
210.0906, 105.6463
210.5728, 105.2148
211.0549, 104.7263
211.5370, 104.3183
212.0191, 104.3807
212.5012, 105.0982
212.9833, 105.8336
213.4655, 106.3048
213.9476, 106.4994
214.4297, 106.4617
214.9118, 106.0670
215.3939, 105.5066
215.8760, 105.2825
216.3581, 105.5500
216.8403, 105.8370
217.3224, 105.8944
217.8045, 105.6165
218.2866, 105.4454
218.7687, 105.4559
219.2508, 105.5509
219.7330, 105.4310
220.2151, 104.9300
220.6972, 104.5149
221.1793, 104.4277
221.6614, 104.7762
222.1435, 105.1676
222.6257, 105.6582
223.1078, 106.1677
223.5899, 106.5157
224.0720, 106.7963
224.5541, 106.7641
225.0362, 106.2121
225.5184, 104.7547
226.0005, 103.7400
226.4826, 103.1939
226.9647, 103.1011
227.4468, 103.4961
227.9289, 104.7815
228.4111, 105.9373
228.8932, 106.4422
229.3753, 105.9262
229.8574, 105.6473
230.3395, 105.6890
230.8216, 105.9651
231.3038, 106.2691
231.7859, 106.6993
232.2680, 107.0074
232.7501, 107.0536
233.2322, 106.6713
233.7143, 106.3963
234.1965, 106.2241
234.6786, 106.1594
235.1607, 106.2215
235.6428, 106.4554
236.1249, 106.7471
236.6070, 107.0840
237.0892, 107.6345
237.5713, 107.8180
238.0534, 107.3834
238.5355, 106.6454
239.0176, 106.4469
239.4997, 107.1104
239.9819, 107.8493
240.4640, 108.3490
240.9461, 108.6189
241.4282, 108.6056
241.9103, 108.0892
242.3924, 107.3601
242.8746, 107.1751
243.3567, 107.9779
243.8388, 108.6517
244.3209, 108.6773
244.8030, 107.6656
245.2851, 107.0463
245.7673, 106.8777
246.2494, 107.0784
246.7315, 107.5355
247.2136, 108.5380
247.6957, 109.3383
248.1778, 109.5885
248.6600, 109.0337
249.1421, 108.6971
249.6242, 108.6303
250.1063, 108.7504
250.5884, 108.9130
251.0705, 109.1642
251.5527, 109.3802
252.0348, 109.5450
252.5169, 109.7186
252.9990, 109.5927
253.4811, 108.9972
253.9632, 108.2095
254.4454, 107.7391
254.9275, 107.7078
255.4096, 107.7541
255.8917, 107.7819
256.3738, 107.8087
256.8560, 107.7135
257.3381, 107.3979
257.8202, 107.0425
258.3023, 106.9453
258.7844, 107.2357
259.2665, 107.5042
259.7487, 107.6073
260.2308, 107.5094
260.7129, 107.4999
261.1950, 107.6234
261.6771, 107.7860
262.1592, 107.8905
262.6414, 107.9947
263.1235, 107.8770
263.6056, 107.3584
264.0877, 106.3787
264.5698, 105.9088
265.0519, 106.1716
265.5341, 106.6396
266.0162, 106.6298
266.4983, 105.9241
266.9804, 105.4233
267.4625, 105.4182
267.9446, 105.8989
268.4268, 106.2167
268.9089, 106.3703
269.3910, 106.3538
269.8731, 106.1034
270.3552, 105.5412
270.8373, 105.0572
271.3195, 104.7027
271.8016, 104.4871
272.2837, 104.5244
272.7658, 104.8821
273.2479, 105.3427
273.7300, 105.7373
274.2122, 106.0700
274.6943, 106.3272
275.1764, 106.5733
275.6585, 106.7414
276.1406, 106.3201
276.6227, 105.1048
277.1049, 103.9789
277.5870, 103.8294
278.0691, 104.7688
278.5512, 105.3593
279.0333, 105.2749
279.5154, 104.7359
279.9976, 104.4450
280.4797, 104.4138
280.9618, 104.5707
281.4439, 104.9947
281.9260, 105.6883
282.4081, 106.0572
282.8903, 105.9490
283.3724, 105.5574
283.8545, 105.3334
284.3366, 105.2875
284.8187, 105.2953
285.3008, 105.2409
285.7830, 105.1411
286.2651, 105.2058
286.7472, 105.4670
287.2293, 105.8732
287.7114, 106.4662
288.1935, 107.2419
288.6757, 107.7517
289.1578, 107.5013
289.6399, 106.6838
290.1220, 106.3617
290.6041, 106.6798
291.0862, 107.2090
291.5684, 107.3314
292.0505, 107.0823
292.5326, 106.7973
293.0147, 106.6935
293.4968, 106.6823
293.9789, 106.3887
294.4611, 105.7432
294.9432, 105.2001
295.4253, 105.4867
295.9074, 106.4104
296.3895, 107.1279
296.8716, 107.1238
297.3538, 106.7167
297.8359, 106.5159
298.3180, 106.5211
298.8001, 106.6994
299.2822, 107.1966
299.7643, 107.8609
300.2465, 108.2730
300.7286, 108.0255
301.2107, 107.6198
301.6928, 107.8921
302.1749, 108.7921
302.6570, 109.5826
303.1392, 109.5164
303.6213, 108.9630
304.1034, 108.5731
304.5855, 108.6621
305.0676, 108.8318
305.5497, 108.6617
306.0319, 108.1989
306.5140, 107.6775
306.9961, 107.0245
307.4782, 106.4868
307.9603, 106.4012
308.4424, 107.0163
308.9246, 107.7783
309.4067, 108.2503
309.8888, 108.5164
310.3709, 108.8269
310.8530, 109.5335
311.3351, 110.2182
311.8173, 110.4527
312.2994, 110.0198
312.7815, 109.6089
313.2636, 109.6756
313.7457, 110.0469
314.2278, 110.4158
314.7100, 110.8477
315.1921, 111.0938
315.6742, 110.8688
316.1563, 110.0364
316.6384, 109.4380
317.1205, 109.7033
317.6027, 110.3459
318.0848, 110.7488
318.5669, 110.4793
319.0490, 110.1473
319.5311, 110.0209
320.0132, 110.1226
320.4954, 110.1519
320.9775, 109.7672
321.4596, 109.3955
321.9417, 109.4068
322.4238, 110.4014
322.9059, 111.2394
323.3881, 111.6321
323.8702, 111.5995
324.3523, 111.4870
324.8344, 111.2846
325.3165, 111.0562
325.7986, 110.8382
326.2808, 110.3330
326.7629, 110.1939
327.2450, 110.7903
327.7271, 111.8709
328.2092, 112.4448
328.6913, 112.2963
329.1735, 111.8218
329.6556, 111.0915
330.1377, 109.5311
330.6198, 108.8292
331.1019, 109.4777
331.5840, 110.8361
332.0662, 111.7143
332.5483, 111.9419
333.0304, 111.9266
333.5125, 111.7646
333.9946, 111.4303
334.4767, 111.0635
334.9589, 110.6269
335.4410, 110.1981
335.9231, 109.8337
336.4052, 109.4380
336.8873, 109.3988
337.3694, 110.0026
337.8516, 111.1802
338.3336, 111.6289
338.8158, 111.1244
339.2979, 110.3723
339.7800, 109.9851
340.2621, 110.0033
340.7442, 110.1689
341.2263, 110.5371
341.7085, 110.9740
342.1906, 110.9110
342.6727, 110.2634
343.1548, 109.6442
343.6369, 109.5747
344.1190, 110.0095
344.6012, 110.1717
345.0833, 109.9223
345.5654, 109.4718
346.0475, 109.1096
346.5296, 108.8422
347.0117, 108.7769
347.4939, 109.1889
347.9760, 109.8640
348.4581, 110.0545
348.9402, 109.6640
349.4223, 109.1332
349.9044, 108.8670
350.3866, 108.8528
350.8687, 109.0424
351.3508, 109.6330
351.8329, 110.3217
352.3150, 110.6591
352.7971, 110.6484
353.2793, 110.4001
353.7614, 109.8384
354.2435, 109.1270
354.7256, 108.5126
355.2077, 107.9931
355.6898, 107.6889
356.1720, 107.8376
356.6541, 108.3431
357.1362, 108.7881
357.6183, 108.8459
358.1004, 108.7849
358.5826, 108.8788
359.0647, 109.2766
359.5468, 109.5783
360.0289, 109.5150
360.5110, 109.2071
360.9931, 108.8830
361.4753, 108.5566
361.9574, 108.2998
362.4395, 108.1352
362.9216, 108.0572
363.4037, 108.1238
363.8858, 108.6359
364.3680, 109.1917
364.8501, 109.3688
365.3322, 107.9170
365.8143, 108.6358
366.2964, 109.0775
366.7785, 109.2569
367.2607, 108.3886
367.7428, 108.8732
368.2249, 108.8156
368.7070, 108.7358
369.1891, 109.4108
369.6712, 108.6949
370.1534, 109.3580
370.6355, 109.4706
371.1176, 109.8351
371.5997, 109.6541
372.0818, 109.6415
372.5639, 110.1747
373.0461, 110.4058
373.5282, 110.1620
374.0103, 110.5425
374.4924, 109.8075
374.9745, 110.0514
375.4566, 110.7177
375.9388, 110.5013
376.4209, 110.8918
376.9030, 111.0512
377.3851, 110.1601
377.8672, 111.0958
378.3493, 111.2416
378.8315, 110.5761
379.3136, 111.4492
379.7957, 110.8956
380.2778, 110.8512
380.7599, 111.1901
381.2420, 111.1295
381.7242, 111.6988
382.2063, 110.5710
382.6884, 110.7965
383.1705, 111.7204
383.6526, 112.2851
384.1347, 112.3475
384.6169, 112.2076
385.0990, 112.1543
385.5811, 112.1904
386.0632, 112.3335
386.5453, 112.7324
387.0274, 113.1787
387.5096, 113.3433
387.9917, 113.2256
388.4738, 113.0977
388.9559, 113.1752
389.4380, 113.3708
389.9201, 113.5731
390.4023, 113.7585
390.8844, 113.9283
391.3665, 114.0396
391.8486, 114.1247
392.3307, 114.2977
392.8128, 114.7718
393.2950, 115.2464
393.7771, 115.5026
394.2592, 115.4277
394.7413, 115.3379
395.2234, 115.2890
395.7055, 115.2944
396.1877, 115.3761
396.6698, 115.5365
397.1519, 115.7748
397.6340, 116.0906
398.1161, 116.4833
398.5982, 116.9603
399.0804, 117.7982
399.5625, 118.5552
400.0446, 118.8915
400.5267, 118.2917
401.0088, 118.0251
401.4909, 118.1868
401.9731, 118.7605
402.4552, 119.7590
402.9373, 121.5396
403.4194, 123.1648
403.9015, 124.0784
404.3836, 123.9794
404.8658, 124.4028
405.3479, 125.4887
405.8300, 126.8981
406.3121, 128.2093
406.7942, 129.4392
407.2763, 130.4083
407.7585, 130.8537
408.2406, 130.9665
408.7227, 131.8590
409.2048, 133.5731
409.6869, 135.6480
410.1690, 137.7804
410.6512, 139.9372
411.1333, 142.0795
411.6154, 144.2556
412.0975, 146.3147
412.5796, 147.8654
413.0617, 149.0374
413.5439, 150.4949
414.0260, 152.7869
414.5081, 155.5509
414.9902, 158.2989
415.4723, 161.0170
415.9544, 163.6451
416.4366, 165.9018
416.9187, 168.0651
417.4008, 170.5401
417.8829, 173.6879
418.3650, 177.0320
418.8471, 180.4350
419.3293, 183.8414
419.8114, 187.1330
420.2935, 190.0378
420.7756, 192.9348
421.2577, 195.9869
421.7398, 199.2256
422.2220, 202.7121
422.7041, 207.0961
423.1862, 211.6709
423.6683, 215.1875
424.1504, 216.5017
424.6325, 217.7824
425.1147, 219.6325
425.5968, 222.1668
426.0789, 224.4973
426.5610, 226.9026
427.0431, 228.8559
427.5252, 229.8154
428.0074, 229.2908
428.4895, 228.9234
428.9716, 228.9771
429.4537, 229.2742
429.9358, 229.2627
430.4179, 228.9113
430.9001, 228.3602
431.3822, 227.8327
431.8643, 227.3414
432.3464, 225.8525
432.8285, 223.1679
433.3106, 220.1260
433.7928, 217.5994
434.2749, 215.5927
434.7570, 214.2019
435.2391, 213.7458
435.7212, 213.6953
436.2033, 213.1252
436.6855, 212.0469
437.1676, 210.5075
437.6497, 208.1796
438.1318, 205.5217
438.6139, 203.2811
439.0960, 201.6620
439.5782, 200.1523
440.0603, 198.3204
440.5424, 196.2905
441.0245, 194.3255
441.5066, 192.8969
441.9887, 191.2479
442.4709, 188.7196
442.9530, 185.3393
443.4351, 182.2024
443.9172, 180.0885
444.3993, 178.1774
444.8814, 175.8845
445.3636, 172.3858
445.8457, 169.4482
446.3278, 167.9389
446.8099, 167.1724
447.2920, 165.3801
447.7741, 161.2463
448.2563, 157.5016
448.7384, 155.1120
449.2205, 154.2502
449.7026, 153.1662
450.1847, 151.8322
450.6668, 150.3325
451.1490, 148.6328
451.6311, 146.5361
452.1132, 145.0572
452.5953, 144.5422
453.0774, 144.5789
453.5595, 143.9099
454.0417, 142.4434
454.5238, 141.0956
455.0059, 140.5277
455.4880, 140.5551
455.9701, 140.0764
456.4522, 138.9851
456.9344, 137.8982
457.4165, 137.5950
457.8986, 137.8395
458.3807, 137.9883
458.8628, 137.8382
459.3449, 137.4986
459.8271, 136.9441
460.3092, 136.2566
460.7913, 135.7737
461.2734, 135.9102
461.7555, 136.2068
462.2376, 136.2932
462.7198, 136.1090
463.2019, 135.7513
463.6840, 135.2026
464.1661, 134.5259
464.6482, 133.7975
465.1303, 132.8230
465.6125, 132.0190
466.0946, 131.6732
466.5767, 131.7028
467.0588, 131.3638
467.5409, 130.1821
468.0230, 128.9922
468.5052, 128.1840
468.9873, 127.9923
469.4694, 127.5960
469.9515, 126.9189
470.4336, 126.1089
470.9157, 125.3493
471.3979, 124.6400
471.8800, 124.0123
472.3621, 123.5211
472.8442, 123.1170
473.3263, 122.4359
473.8084, 121.4180
474.2906, 120.5841
474.7727, 120.5704
475.2548, 121.1412
475.7369, 121.0888
476.2190, 120.1998
476.7011, 119.0343
477.1833, 118.1898
477.6654, 117.6009
478.1475, 117.0886
478.6296, 116.5498
479.1117, 116.0719
479.5938, 115.8334
480.0760, 115.7859
480.5581, 115.6159
481.0402, 115.0464
481.5223, 114.3369
482.0044, 113.7314
482.4865, 113.3951
482.9687, 112.8503
483.4508, 111.4165
483.9329, 109.8099
484.4150, 109.0671
484.8971, 110.5406
485.3792, 111.6506
485.8614, 111.6144
486.3435, 110.5272
486.8256, 109.7575
487.3077, 109.5239
487.7898, 109.3600
488.2719, 109.0131
488.7541, 108.4313
489.2362, 107.8186
489.7183, 107.0709
490.2004, 106.4317
490.6825, 106.3971
491.1646, 107.0518
491.6468, 107.4361
492.1289, 107.1985
492.6110, 106.5307
493.0931, 105.8269
493.5752, 105.0908
494.0573, 104.7089
494.5395, 105.3563
495.0216, 106.4869
495.5037, 106.8885
495.9858, 106.3211
496.4679, 105.5470
496.9500, 105.1508
497.4322, 105.0367
497.9143, 105.0535
498.3964, 105.3023
498.8785, 105.5214
499.3606, 105.5237
499.8427, 105.3534
500.3249, 105.2157
500.8070, 105.2592
501.2891, 105.2933
501.7712, 105.2115
502.2533, 104.9632
502.7354, 104.7143
503.2176, 104.4625
503.6997, 104.2240
504.1818, 104.0168
504.6639, 103.8565
505.1460, 103.6769
505.6281, 103.3677
506.1103, 103.0428
506.5924, 103.2831
507.0745, 104.2998
507.5566, 105.1312
508.0387, 105.1952
508.5208, 104.5328
509.0030, 103.9705
509.4851, 103.5211
509.9672, 103.1061
510.4493, 102.6293
510.9314, 102.1164
511.4135, 101.5976
511.8957, 100.9255
512.3778, 100.5347
512.8599, 101.2617
513.3420, 102.7472
513.8242, 103.9328
514.3063, 104.2249
514.7884, 104.0513
515.2705, 103.6416
515.7526, 103.0137
516.2347, 102.4139
516.7169, 101.8134
517.1990, 101.3531
517.6811, 101.1472
518.1632, 101.4709
518.6453, 101.6961
519.1274, 101.6569
519.6096, 101.4974
520.0917, 101.4822
520.5738, 101.6689
521.0559, 101.9118
521.5380, 102.2513
522.0201, 102.6640
522.5023, 102.6865
522.9844, 102.2160
523.4665, 101.6470
523.9486, 101.1954
524.4307, 100.8646
524.9128, 100.8301
525.3950, 101.1562
525.8771, 101.6006
526.3592, 101.8014
526.8413, 101.8350
527.3234, 102.0052
527.8055, 102.6014
528.2877, 103.2115
528.7698, 103.2636
529.2519, 102.8757
529.7340, 102.5555
530.2161, 102.6287
530.6982, 102.8522
531.1804, 103.1068
531.6625, 103.4127
532.1446, 103.5096
532.6267, 103.0772
533.1088, 102.5123
533.5909, 102.1877
534.0731, 102.1718
534.5552, 102.3832
535.0373, 102.9934
535.5194, 103.7968
536.0015, 104.2800
536.4836, 104.2863
536.9658, 104.2852
537.4479, 104.4682
537.9300, 104.8189
538.4121, 104.9733
538.8942, 104.9003
539.3763, 104.7499
539.8585, 104.5527
540.3406, 104.3537
540.8227, 104.4944
541.3048, 105.1087
541.7869, 105.7404
542.2690, 105.7027
542.7512, 105.2311
543.2333, 104.9190
543.7154, 105.2197
544.1975, 105.6069
544.6796, 105.6337
545.1617, 105.3656
545.6439, 105.0877
546.1260, 104.6204
546.6081, 104.4200
547.0902, 104.9043
547.5723, 106.3692
548.0544, 107.4253
548.5366, 107.7829
549.0187, 107.7063
549.5008, 107.3888
549.9829, 106.4275
550.4650, 105.9904
550.9471, 106.3864
551.4293, 107.2484
551.9114, 107.7155
552.3935, 107.7242
552.8756, 107.6466
553.3577, 107.6261
553.8398, 107.6345
554.3220, 107.4358
554.8041, 107.0160
555.2862, 106.8108
555.7683, 107.4010
556.2504, 108.4020
556.7325, 108.9841
557.2147, 108.9657
557.6968, 108.9274
558.1789, 109.4090
558.6610, 110.1736
559.1431, 110.8671
559.6252, 111.2532
560.1074, 111.6530
560.5895, 112.3426
561.0716, 113.1751
561.5537, 113.6485
562.0358, 112.9817
562.5179, 112.6083
563.0001, 113.1607
563.4822, 114.7513
563.9643, 115.9915
564.4464, 116.7461
564.9285, 117.3427
565.4106, 118.0824
565.8928, 119.0386
566.3749, 119.5942
566.8570, 119.5762
567.3391, 119.4360
567.8212, 119.9364
568.3033, 120.9978
568.7855, 121.9780
569.2676, 122.5296
569.7497, 123.0229
570.2318, 124.1669
570.7139, 125.7971
571.1960, 127.2892
571.6782, 128.1347
572.1603, 128.7673
572.6424, 129.5506
573.1245, 130.5396
573.6066, 131.4002
574.0887, 131.9698
574.5709, 132.3895
575.0530, 132.7820
575.5351, 133.3627
576.0172, 133.6116
576.4993, 133.1852
576.9814, 132.5806
577.4636, 132.7078
577.9457, 133.9950
578.4278, 134.8455
578.9099, 134.7116
579.3920, 133.9033
579.8741, 133.6842
580.3563, 134.1075
580.8384, 134.4056
581.3205, 133.8713
581.8026, 132.8666
582.2847, 132.5000
582.7668, 132.8085
583.2490, 133.3300
583.7311, 133.8198
584.2132, 134.2355
584.6953, 134.4615
585.1774, 134.2735
585.6595, 134.3631
586.1416, 135.3802
586.6237, 136.8305
587.1058, 137.9810
587.5880, 138.2885
588.0701, 138.6869
588.5522, 139.4404
589.0343, 140.4738
589.5164, 141.4438
589.9985, 142.2999
590.4807, 143.1746
590.9628, 144.0766
591.4449, 144.9995
591.9270, 146.3053
592.4091, 148.0681
592.8912, 149.8906
593.3734, 151.2724
593.8555, 152.3691
594.3376, 153.9191
594.8197, 156.0696
595.3018, 158.4653
595.7839, 160.7894
596.2661, 163.0639
596.7482, 165.3296
597.2303, 167.5896
597.7124, 169.8737
598.1945, 172.2634
598.6766, 174.7074
599.1588, 177.0317
599.6409, 178.6329
600.1230, 180.5976
600.6051, 183.6318
601.0872, 187.8181
601.5693, 191.2267
602.0515, 193.5229
602.5336, 195.4494
603.0157, 197.4668
603.4978, 199.6260
603.9799, 201.5364
604.4620, 203.1116
604.9442, 204.6815
605.4263, 206.8391
605.9084, 209.4502
606.3905, 211.5720
606.8726, 213.0162
607.3547, 213.8912
607.8369, 214.2693
608.3190, 214.1970
608.8011, 213.8018
609.2832, 213.0022
609.7653, 212.0190
610.2474, 211.0429
610.7296, 210.0337
611.2117, 208.7344
611.6938, 206.8255
612.1759, 204.7994
612.6580, 202.9602
613.1401, 201.4448
613.6223, 199.4173
614.1044, 196.6282
614.5865, 193.7007
615.0686, 191.2339
615.5507, 189.2905
616.0328, 187.3359
616.5150, 185.3187
616.9971, 183.3182
617.4792, 181.5329
617.9613, 179.8982
618.4434, 178.1001
618.9255, 175.9902
619.4077, 173.7335
619.8898, 171.3250
620.3719, 168.8831
620.8540, 166.7371
621.3361, 165.2697
621.8182, 163.9846
622.3004, 162.5770
622.7825, 161.0416
623.2646, 159.7096
623.7467, 159.0166
624.2288, 158.2397
624.7109, 156.9992
625.1931, 155.1382
625.6752, 153.2982
626.1573, 151.4131
626.6394, 149.6316
627.1215, 148.1179
627.6036, 146.8731
628.0858, 145.7792
628.5679, 144.8564
629.0500, 143.9748
629.5321, 143.0242
630.0142, 141.9676
630.4963, 140.7092
630.9785, 138.9667
631.4606, 137.2371
631.9427, 135.8652
632.4248, 134.8506
632.9069, 134.1869
633.3890, 134.3136
633.8712, 134.4028
634.3533, 134.0825
634.8354, 133.3114
635.3175, 132.4121
635.7996, 131.2710
636.2817, 130.1490
636.7639, 129.1782
637.2460, 128.3906
637.7281, 127.5860
638.2102, 126.7154
638.6923, 125.9448
639.1744, 125.6164
639.6566, 125.6170
640.1387, 125.2244
640.6208, 124.2573
641.1029, 123.0422
641.5850, 121.8185
642.0671, 120.6467
642.5493, 119.6186
643.0314, 118.7849
643.5135, 118.1116
643.9956, 117.6925
644.4777, 117.4394
644.9598, 117.0684
645.4420, 116.3181
645.9241, 115.6524
646.4062, 115.2406
646.8883, 115.0725
647.3704, 114.8445
647.8525, 114.5069
648.3347, 114.2222
648.8168, 114.1445
649.2989, 114.2612
649.7810, 114.1542
650.2631, 113.7901
650.7452, 113.4660
651.2274, 113.6442
651.7095, 114.0456
652.1916, 114.0206
652.6737, 113.3326
653.1558, 112.6706
653.6379, 112.6158
654.1201, 112.8606
654.6022, 112.9988
655.0843, 112.8700
655.5664, 112.6693
656.0485, 112.2381
656.5306, 111.7906
657.0128, 111.8353
657.4949, 112.7604
657.9770, 113.4353
658.4591, 113.5092
658.9412, 113.1291
659.4233, 112.9762
659.9055, 113.0795
660.3876, 113.0861
660.8697, 112.5474
661.3518, 111.8167
661.8339, 112.0001
662.3160, 113.0312
662.7982, 113.8194
663.2803, 113.2473
663.7624, 112.2572
664.2445, 111.8021
664.7266, 112.0890
665.2087, 112.3596
665.6909, 112.2865
666.1730, 112.1349
666.6551, 112.1263
667.1372, 112.3026
667.6193, 112.5782
668.1014, 113.0568
668.5836, 113.5228
669.0657, 113.6550
669.5478, 113.4292
670.0299, 113.0982
670.5120, 112.6163
670.9941, 112.2273
671.4763, 112.5898
671.9584, 113.4825
672.4405, 114.0485
672.9226, 113.5342
673.4047, 112.8386
673.8868, 112.8414
674.3690, 113.3483
674.8511, 113.6661
675.3332, 113.2929
675.8153, 112.8930
676.2974, 112.7537
676.7795, 112.8954
677.2617, 113.0449
677.7438, 113.1789
678.2259, 113.3576
678.7080, 113.6626
679.1901, 114.1158
679.6722, 114.3177
680.1544, 114.2470
680.6365, 114.0701
681.1186, 113.9419
681.6007, 113.8280
682.0828, 113.5570
682.5649, 113.0453
683.0471, 112.7456
683.5292, 113.3015
684.0113, 114.1832
684.4934, 114.7354
684.9755, 114.5450
685.4576, 114.3897
685.9398, 114.5478
686.4219, 114.8306
686.9040, 114.9262
687.3861, 114.7460
687.8682, 114.5388
688.3503, 114.2802
688.8325, 114.0663
689.3146, 114.2656
689.7967, 114.8874
690.2788, 115.2877
690.7609, 115.0991
691.2430, 114.6062
691.7252, 114.2183
692.2073, 113.9526
692.6894, 113.9029
693.1715, 114.3413
693.6536, 114.8394
694.1357, 115.1930
694.6179, 115.3751
695.1000, 115.1693
695.5821, 113.8323
696.0642, 112.7208
696.5463, 112.5727
697.0284, 113.6018
697.5106, 114.1237
697.9927, 113.9685
698.4748, 113.7069
698.9569, 113.8398
699.4390, 114.3154
699.9211, 114.6830
700.4033, 114.9022
700.8854, 115.0957
701.3675, 115.5693
701.8496, 116.0472
702.3317, 116.0318
702.8138, 115.2170
703.2960, 114.4078
703.7781, 114.0497
704.2602, 113.9080
704.7423, 113.6948
705.2244, 113.0705
705.7065, 112.7596
706.1887, 112.8815
706.6708, 113.2982
707.1529, 113.8558
707.6350, 114.6288
708.1171, 115.0465
708.5992, 114.8375
709.0814, 114.3373
709.5635, 114.2407
710.0456, 114.4873
710.5277, 114.7880
711.0098, 115.0436
711.4919, 115.2562
711.9741, 115.4226
712.4562, 115.5458
712.9383, 115.6420
713.4204, 115.8164
713.9025, 115.8721
714.3846, 115.6268
714.8668, 115.1053
715.3489, 114.8342
715.8310, 114.8538
716.3131, 115.0409
716.7952, 115.3898
717.2773, 115.8800
717.7595, 116.2833
718.2416, 116.5996
718.7237, 116.7868
719.2058, 116.6860
719.6879, 116.4802
720.1700, 116.5347
720.6522, 116.9070
721.1343, 117.1288
721.6164, 116.7446
722.0985, 116.2122
722.5806, 115.8861
723.0627, 115.8384
723.5449, 115.9955
724.0270, 116.6633
724.5091, 117.2376
724.9912, 117.0157
725.4733, 115.7621
725.9554, 115.1250
726.4376, 115.3282
726.9197, 115.9174
727.4018, 116.4115
727.8839, 116.7918
728.3660, 116.9706
728.8481, 116.8527
729.3303, 116.7070
729.8124, 116.7689
730.2945, 116.9520
730.7766, 117.1242
731.2587, 117.0984
731.7408, 117.2322
732.2230, 117.9102
732.7051, 118.7263
733.1872, 118.8246
733.6693, 117.8474
734.1514, 117.1987
734.6335, 117.2858
735.1157, 117.8316
735.5978, 118.1793
736.0799, 118.3423
736.5620, 118.4287
737.0441, 118.4257
737.5262, 118.4235
738.0084, 118.5580
738.4905, 118.7883
738.9726, 118.9746
739.4547, 119.0740
739.9368, 119.0989
740.4189, 118.9921
740.9011, 118.7713
741.3832, 118.7098
741.8653, 118.8538
742.3474, 119.0712
742.8295, 119.3215
743.3116, 119.5991
743.7938, 119.8656
744.2759, 120.1207
744.7580, 120.3428
745.2401, 120.5499
745.7222, 120.6981
746.2043, 120.6595
746.6865, 120.4448
747.1686, 120.3203
747.6507, 120.5479
748.1328, 120.8309
748.6149, 121.0027
749.0970, 121.0540
749.5792, 120.8918
750.0613, 120.2527
750.5434, 119.7368
751.0255, 119.7750
751.5076, 120.4212
751.9897, 120.9873
752.4719, 121.4647
752.9540, 121.8885
753.4361, 122.3984
753.9182, 122.8636
754.4003, 122.9462
754.8824, 122.5467
755.3646, 122.2121
755.8467, 122.2298
756.3288, 122.5268
756.8109, 123.0870
757.2930, 124.2784
757.7751, 124.9429
758.2573, 124.7037
758.7394, 124.2351
759.2215, 124.2602
759.7036, 124.9097
760.1857, 125.0268
760.6678, 124.3706
761.1500, 123.6445
761.6321, 123.8527
762.1142, 124.6914
762.5963, 125.4215
763.0784, 125.8336
763.5605, 126.1767
764.0427, 126.5808
764.5248, 127.0351
765.0069, 127.5264
765.4890, 128.2812
765.9711, 128.7570
766.4532, 128.8582
766.9354, 128.7191
767.4175, 128.4814
767.8996, 128.1034
768.3817, 127.9181
768.8638, 128.0280
769.3459, 128.2477
769.8281, 128.2139
770.3102, 128.0401
770.7923, 128.0518
771.2744, 128.3278
771.7565, 128.8772
772.2386, 130.0796
772.7208, 131.4857
773.2029, 132.3138
773.6850, 131.9012
774.1671, 131.4755
774.6492, 131.0931
775.1313, 130.8536
775.6135, 131.0557
776.0956, 131.7770
776.5777, 132.3363
777.0598, 132.4694
777.5419, 132.4695
778.0240, 133.0168
778.5062, 133.9019
778.9883, 134.4706
779.4704, 134.0905
779.9525, 133.6404
780.4346, 133.7279
780.9167, 134.1536
781.3989, 134.4232
781.8810, 134.0639
782.3631, 134.0271
782.8452, 134.6581
783.3273, 135.6624
783.8094, 136.1444
784.2916, 136.0599
784.7737, 135.9045
785.2558, 135.8228
785.7379, 135.8066
786.2200, 135.8235
786.7021, 135.8909
787.1843, 136.0625
787.6664, 136.5256
788.1485, 136.9483
788.6306, 137.1786
789.1127, 137.2217
789.5948, 137.0854
790.0770, 136.6155
790.5591, 136.1928
791.0412, 135.8576
791.5233, 135.6469
792.0054, 135.8178
792.4875, 136.3805
792.9697, 136.6962
793.4518, 136.2375
793.9339, 135.5776
794.4160, 135.7106
794.8981, 136.4417
795.3802, 137.1241
795.8624, 137.6767
796.3445, 137.8842
796.8266, 137.3371
797.3087, 136.2659
797.7908, 135.8510
798.2729, 136.5795
798.7551, 137.0654
799.2372, 136.8013
799.7193, 136.0486
800.2014, 135.8061
800.6835, 136.0376
801.1656, 136.2126
801.6478, 135.9910
802.1299, 135.6248
802.6120, 135.3493
803.0941, 135.1691
803.5762, 135.0963
804.0583, 135.4012
804.5405, 135.5407
805.0226, 135.1427
805.5047, 134.3816
805.9868, 133.9261
806.4689, 133.8102
806.9510, 133.9281
807.4332, 134.3695
807.9153, 134.9324
808.3974, 135.0000
808.8795, 134.6316
809.3616, 134.1615
809.8438, 133.4591
810.3259, 132.9941
810.8080, 133.4780
811.2901, 134.5638
811.7722, 135.1250
812.2543, 134.2025
812.7365, 133.5028
813.2186, 133.6394
813.7007, 134.2819
814.1828, 134.0820
814.6649, 132.8833
815.1470, 132.0761
815.6292, 132.3126
816.1113, 133.1028
816.5934, 133.7588
817.0755, 134.2194
817.5576, 134.2784
818.0397, 133.4451
818.5219, 132.5821
819.0040, 132.0569
819.4861, 131.8486
819.9682, 131.9137
820.4503, 132.5977
820.9324, 132.8987
821.4146, 132.4698
821.8967, 131.6336
822.3788, 131.1924
822.8609, 131.1358
823.3430, 131.2722
823.8251, 131.6920
824.3073, 132.0487
824.7894, 131.6468
825.2715, 130.8906
825.7536, 130.6406
826.2357, 131.9091
826.7178, 132.9388
827.2000, 133.2013
827.6821, 132.8943
828.1642, 132.2069
828.6463, 130.8510
829.1284, 130.2173
829.6105, 130.8324
830.0927, 131.8699
830.5748, 131.6072
831.0569, 130.4505
831.5390, 129.8102
832.0211, 130.3361
832.5032, 131.2361
832.9854, 132.3712
833.4675, 133.3925
833.9496, 133.7393
834.4317, 132.5221
834.9138, 131.6805
835.3959, 131.4268
835.8781, 131.5186
836.3602, 131.6971
836.8423, 131.9580
837.3244, 131.8450
837.8065, 131.1542
838.2886, 130.4621
838.7708, 130.5495
839.2529, 131.0684
839.7350, 131.4273
840.2171, 131.3001
840.6992, 131.3328
841.1813, 132.0379
841.6635, 132.8300
842.1456, 133.0838
842.6277, 132.6154
843.1098, 132.1244
843.5919, 131.5903
844.0740, 131.1933
844.5562, 131.2383
845.0383, 131.5978
845.5204, 131.9029
846.0025, 132.0961
846.4846, 132.2428
846.9667, 132.4685
847.4489, 132.6251
847.9310, 132.5518
848.4131, 132.1179
848.8952, 131.7298
849.3773, 131.3354
849.8594, 131.0752
850.3416, 131.1575
850.8237, 131.5665
851.3058, 131.5587
851.7879, 131.0753
852.2700, 130.6931
852.7521, 131.1136
853.2343, 131.7783
853.7164, 132.0320
854.1985, 131.7958
854.6806, 131.4080
855.1627, 130.4687
855.6448, 129.9032
856.1270, 130.2783
856.6091, 131.6195
857.0912, 132.6420
857.5733, 133.3374
858.0554, 133.7089
858.5375, 133.6214
859.0197, 133.2479
859.5018, 132.8641
859.9839, 132.5104
860.4660, 132.4008
860.9481, 132.9620
861.4302, 133.5145
861.9124, 133.7330
862.3945, 133.5948
862.8766, 133.1516
863.3587, 132.0449
863.8408, 131.5299
864.3229, 132.2593
864.8051, 133.7439
865.2872, 134.5628
865.7693, 134.7813
866.2514, 134.7345
866.7335, 134.4593
867.2156, 134.1095
867.6978, 133.7667
868.1799, 133.4449
868.6620, 133.1712
869.1441, 132.9722
869.6262, 132.7905
870.1083, 132.5455
870.5905, 132.3690
871.0726, 132.6427
871.5547, 133.3517
872.0368, 133.7325
872.5189, 133.5039
873.0010, 133.1419
873.4832, 133.1702
873.9653, 133.4477
874.4474, 133.7594
874.9295, 134.2003
875.4116, 134.4006
875.8937, 134.0264
876.3759, 133.5348
876.8580, 133.3729
877.3401, 133.6116
877.8222, 133.7705
878.3043, 133.8061
878.7864, 133.8053
879.2686, 133.8179
879.7507, 133.8735
880.2328, 134.0772
880.7149, 134.4700
881.1970, 134.7417
881.6791, 134.6531
882.1613, 134.4564
882.6434, 134.3110
883.1255, 134.2176
883.6076, 134.2313
884.0897, 134.3943
884.5718, 134.5341
885.0540, 134.4468
885.5361, 134.2534
886.0182, 134.4202
886.5003, 134.8980
886.9824, 135.2731
887.4645, 135.0678
887.9467, 134.8806
888.4288, 135.1862
888.9109, 135.9295
889.3930, 136.3716
889.8751, 136.3663
890.3572, 136.3087
890.8394, 136.2641
891.3215, 136.2950
891.8036, 136.8542
892.2857, 137.7575
892.7678, 137.9902
893.2499, 136.4375
893.7321, 134.8630
894.2142, 134.6398
894.6963, 135.3143
895.1784, 136.0234
895.6605, 136.8403
896.1426, 137.3195
896.6248, 137.2802
897.1069, 137.0626
897.5890, 137.3216
898.0711, 137.9695
898.5532, 138.0058
899.0353, 137.1154
899.5175, 136.2465
899.9996, 136.3561
900.4817, 136.9640
900.9638, 137.5579
901.4459, 138.1765
901.9280, 138.3628
902.4102, 137.6012
902.8923, 136.9780
903.3744, 137.4691
903.8565, 139.1148
904.3386, 139.7410
904.8207, 139.3055
905.3029, 138.7069
905.7850, 138.5720
906.2671, 138.7013
906.7492, 138.9490
907.2313, 139.2877
907.7134, 139.5478
908.1956, 139.5844
908.6777, 139.6387
909.1598, 139.7800
909.6419, 140.0036
910.1240, 140.3381
910.6061, 140.7872
911.0883, 141.1028
911.5704, 141.1799
912.0525, 141.0614
912.5346, 140.6239
913.0167, 140.0518
913.4988, 139.7453
913.9810, 139.8628
914.4631, 140.2587
914.9452, 141.1536
915.4273, 142.1352
915.9094, 142.6252
916.3915, 142.6037
916.8737, 142.1986
917.3558, 141.3180
917.8379, 140.5576
918.3200, 140.6544
918.8021, 141.2836
919.2842, 142.0494
919.7664, 142.9474
920.2485, 143.6099
920.7306, 143.7705
921.2127, 143.7812
921.6948, 143.8188
922.1769, 143.8766
922.6591, 144.0632
923.1412, 144.3882
923.6233, 144.7446
924.1054, 145.1146
924.5875, 145.4406
925.0696, 145.5860
925.5518, 145.5934
926.0339, 145.7009
926.5160, 146.0943
926.9981, 146.5067
927.4802, 146.9003
927.9623, 147.2334
928.4445, 147.2562
928.9266, 146.9108
929.4087, 147.0604
929.8908, 148.1741
930.3729, 149.4675
930.8550, 149.7857
931.3372, 149.5430
931.8193, 149.4770
932.3014, 149.9667
932.7835, 150.3920
933.2656, 150.4580
933.7477, 150.5198
934.2299, 150.9783
934.7120, 151.9075
935.1941, 152.4586
935.6762, 152.5530
936.1583, 152.5862
936.6404, 152.9702
937.1226, 153.4871
937.6047, 153.7909
938.0868, 153.8513
938.5689, 154.0751
939.0510, 154.5659
939.5331, 155.2953
940.0153, 156.4038
940.4974, 157.7667
940.9795, 158.3973
941.4616, 158.2834
941.9437, 158.4661
942.4258, 159.6132
942.9080, 161.0795
943.3901, 162.1236
943.8722, 162.8773
944.3543, 163.6221
944.8364, 164.4596
945.3185, 165.2728
945.8007, 165.9795
946.2828, 166.7111
946.7649, 167.7122
947.2470, 168.9735
947.7291, 170.0425
948.2112, 170.8253
948.6934, 171.6647
949.1755, 172.8994
949.6576, 174.3704
950.1397, 175.8340
950.6218, 177.1593
951.1039, 179.1931
951.5861, 182.9214
952.0682, 186.0509
952.5503, 187.0252
953.0324, 186.3379
953.5145, 187.4782
953.9966, 190.3461
954.4788, 193.7102
954.9609, 197.4013
955.4430, 200.8561
955.9251, 203.2124
956.4072, 204.9867
956.8893, 207.5914
957.3715, 211.6007
957.8536, 215.7697
958.3357, 219.9047
958.8178, 224.1240
959.2999, 228.4847
959.7820, 233.0688
960.2642, 238.1183
960.7463, 243.7218
961.2284, 249.8034
961.7105, 256.2525
962.1926, 263.2520
962.6747, 271.0790
963.1569, 279.8746
963.6390, 289.1239
964.1211, 298.9815
964.6032, 309.0665
965.0853, 318.5886
965.5674, 328.1319
966.0496, 339.0463
966.5317, 351.2617
967.0138, 364.9417
967.4959, 380.6833
967.9780, 397.2750
968.4601, 413.6771
968.9423, 430.4624
969.4244, 448.3555
969.9065, 467.7126
970.3886, 487.1517
970.8707, 506.3918
971.3528, 526.3273
971.8350, 549.0673
972.3171, 573.3820
972.7992, 597.2457
973.2813, 620.0412
973.7634, 644.4852
974.2455, 673.0979
974.7277, 702.4142
975.2098, 730.1012
975.6919, 756.1383
976.1740, 782.0014
976.6561, 807.6843
977.1382, 833.1882
977.6204, 859.4101
978.1025, 885.1288
978.5846, 909.4876
979.0667, 932.1591
979.5488, 952.7360
980.0309, 970.9006
980.5131, 986.2236
980.9952, 997.8691
981.4773, 1007.490
981.9594, 1018.556
982.4415, 1030.487
982.9236, 1038.632
983.4058, 1041.808
983.8879, 1042.550
984.3700, 1042.901
984.8521, 1041.866
985.3342, 1038.193
985.8163, 1031.112
986.2985, 1024.503
986.7806, 1019.075
987.2627, 1012.579
987.7448, 1003.716
988.2269, 992.9105
988.7090, 981.5359
989.1912, 969.4269
989.6733, 955.8450
990.1554, 940.2757
990.6375, 923.1984
991.1196, 905.7623
991.6017, 886.8233
992.0839, 864.6037
992.5660, 838.4570
993.0481, 811.9841
993.5302, 785.6550
994.0123, 758.2733
994.4944, 727.8043
994.9766, 695.5964
995.4587, 663.4596
995.9408, 631.8512
996.4229, 601.2062
996.9050, 571.5184
997.3871, 543.0164
997.8693, 516.1873
998.3514, 490.6950
998.8335, 465.4796
999.3156, 440.7443
999.7977, 418.2465
1000.280, 399.5067
1000.762, 382.8098
1001.244, 366.6933
1001.726, 351.5673
1002.208, 338.0343
1002.690, 326.3927
1003.173, 316.1758
1003.655, 307.7567
1004.137, 300.1631
1004.619, 292.2728
1005.101, 284.4121
1005.583, 278.4119
1006.065, 274.2267
1006.547, 270.2798
1007.029, 265.2250
1007.512, 260.4273
1007.994, 256.8210
1008.476, 254.1479
1008.958, 251.5144
1009.440, 248.8977
1009.922, 246.4875
1010.404, 244.4475
1010.886, 242.4194
1011.369, 239.6087
1011.851, 236.5251
1012.333, 234.0709
1012.815, 232.7767
1013.297, 231.3339
1013.779, 229.4084
1014.261, 227.3817
1014.743, 225.4075
1015.225, 223.4969
1015.708, 222.2726
1016.190, 221.6953
1016.672, 221.0974
1017.154, 219.8727
1017.636, 218.6325
1018.118, 217.7835
1018.600, 217.2846
1019.082, 216.9642
1019.565, 216.9294
1020.047, 216.7548
1020.529, 216.3897
1021.011, 215.8047
1021.493, 214.6448
1021.975, 213.3019
1022.457, 212.7955
1022.939, 213.4324
1023.421, 213.6492
1023.904, 212.0675
1024.386, 210.5881
1024.868, 210.2935
1025.350, 211.0178
1025.832, 211.1725
1026.314, 210.7662
1026.796, 210.3691
1027.278, 210.2952
1027.760, 210.2886
1028.243, 210.1412
1028.725, 209.8730
1029.207, 209.5156
1029.689, 209.1542
1030.171, 208.4989
1030.653, 207.3465
1031.135, 206.3181
1031.617, 206.0690
1032.100, 206.4293
1032.582, 207.0077
1033.064, 207.7520
1033.546, 208.3484
1034.028, 208.5640
1034.510, 208.6638
1034.992, 208.7102
1035.474, 208.7477
1035.957, 208.8783
1036.439, 209.1009
1036.921, 209.4948
1037.403, 210.1355
1037.885, 210.7654
1038.367, 211.1851
1038.849, 211.3729
1039.331, 211.1939
1039.813, 210.4285
1040.296, 210.2161
1040.778, 210.9819
1041.260, 211.5300
1041.742, 210.9099
1042.224, 209.6641
1042.706, 209.8152
1043.188, 211.0522
1043.670, 212.1854
1044.152, 212.6477
1044.635, 212.8653
1045.117, 212.9806
1045.599, 212.9427
1046.081, 212.6253
1046.563, 211.9586
1047.045, 211.5436
1047.527, 211.4208
1048.009, 211.5228
1048.492, 212.3319
1048.974, 212.9618
1049.456, 212.0853
1049.938, 209.8333
1050.420, 208.5777
1050.902, 209.1353
1051.384, 209.4912
1051.866, 209.1222
1052.349, 208.3460
1052.831, 207.7330
1053.313, 207.2127
1053.795, 206.5607
1054.277, 205.6743
1054.759, 204.8732
1055.241, 204.6294
1055.723, 204.2020
1056.205, 202.8841
1056.688, 200.7261
1057.170, 200.0572
1057.652, 200.8782
1058.134, 201.6256
1058.616, 201.5618
1059.098, 200.9755
1059.580, 199.7305
1060.062, 198.2534
1060.544, 197.3745
1061.027, 197.5146
1061.509, 197.6420
1061.991, 197.7637
1062.473, 197.7427
1062.955, 197.4049
1063.437, 196.8373
1063.919, 196.0444
1064.401, 195.1125
1064.884, 194.6477
1065.366, 195.0826
1065.848, 195.8976
1066.330, 197.1633
1066.812, 198.4934
1067.294, 198.8891
1067.776, 198.4453
1068.258, 198.0745
1068.740, 197.8764
1069.223, 198.3026
1069.705, 200.4145
1070.187, 202.7977
1070.669, 204.1613
1071.151, 204.3995
1071.633, 204.7830
1072.115, 205.3593
1072.597, 205.8338
1073.079, 205.8993
1073.562, 206.0252
1074.044, 207.0833
1074.526, 208.6935
1075.008, 210.1789
1075.490, 211.3347
1075.972, 212.3417
1076.454, 213.2338
1076.936, 213.9742
1077.419, 214.5279
1077.901, 214.9082
1078.383, 215.3372
1078.865, 215.7372
1079.347, 215.5555
1079.829, 213.6868
1080.311, 212.0481
1080.793, 212.1346
1081.275, 212.7094
1081.758, 211.6246
1082.240, 208.7475
1082.722, 206.5294
1083.204, 205.3123
1083.686, 204.2464
1084.168, 202.5586
1084.650, 200.6429
1085.132, 198.9845
1085.615, 197.5657
1086.097, 195.4051
1086.579, 192.1032
1087.061, 189.2887
1087.543, 187.5683
1088.025, 186.3274
1088.507, 184.7714
1088.989, 182.9781
1089.471, 181.0113
1089.953, 178.7383
1090.436, 176.8698
1090.918, 175.6716
1091.400, 174.7475
1091.882, 173.9541
1092.364, 173.2503
1092.846, 172.3402
1093.328, 171.3202
1093.810, 170.6318
1094.293, 170.8051
1094.775, 170.9035
1095.257, 170.4382
1095.739, 169.6975
1096.221, 168.9856
1096.703, 168.3049
1097.185, 167.5354
1097.667, 166.6621
1098.150, 166.0149
1098.632, 166.1629
1099.114, 166.3662
1099.596, 165.9848
1100.078, 165.1228
1100.560, 164.1121
1101.042, 162.7179
1101.524, 162.0933
1102.006, 162.5929
1102.489, 163.1706
1102.971, 162.5011
1103.453, 161.1924
1103.935, 160.0659
1104.417, 159.2057
1104.899, 158.7472
1105.381, 158.9281
1105.863, 159.2527
1106.345, 159.7775
1106.828, 160.1511
1107.310, 159.3984
1107.792, 157.8547
1108.274, 156.5423
1108.756, 155.6942
1109.238, 155.0484
1109.720, 154.2945
1110.202, 153.9440
1110.685, 154.5108
1111.167, 155.7705
1111.649, 155.7783
1112.131, 154.6812
1112.613, 153.9900
1113.095, 154.7151
1113.577, 155.4226
1114.059, 154.8774
1114.542, 153.8653
1115.024, 153.3117
1115.506, 153.3011
1115.988, 153.4447
1116.470, 153.7569
1116.952, 154.0741
1117.434, 154.3106
1117.916, 154.4758
1118.398, 154.5127
1118.880, 154.4939
1119.363, 154.6027
1119.845, 154.9651
1120.327, 155.2056
1120.809, 155.2339
1121.291, 155.3405
1121.773, 156.0262
1122.255, 156.8905
1122.737, 157.1020
1123.220, 156.7375
1123.702, 156.5855
1124.184, 156.9247
1124.666, 157.5430
1125.148, 158.5691
1125.630, 159.6161
1126.112, 159.8817
1126.594, 159.6654
1127.077, 159.9244
1127.559, 160.8088
1128.041, 161.7687
1128.523, 162.7393
1129.005, 163.4849
1129.487, 163.7837
1129.969, 163.8582
1130.451, 164.5770
1130.933, 165.8156
1131.416, 166.4817
1131.898, 166.0847
1132.380, 165.9341
1132.862, 167.2819
1133.344, 168.9385
1133.826, 169.9368
1134.308, 170.2955
1134.790, 170.7640
1135.272, 171.3472
1135.755, 171.9834
1136.237, 172.7403
1136.719, 173.3965
1137.201, 173.4563
1137.683, 173.4304
1138.165, 174.0963
1138.647, 175.7650
1139.129, 176.8660
1139.612, 177.3609
1140.094, 177.5487
1140.576, 177.6247
1141.058, 177.4880
1141.540, 176.9383
1142.022, 176.0874
1142.504, 175.1708
1142.986, 174.3662
1143.469, 173.2379
1143.951, 171.7437
1144.433, 169.9957
1144.915, 167.7452
1145.397, 165.4539
1145.879, 164.1483
1146.361, 163.6023
1146.843, 162.8046
1147.325, 160.9900
1147.807, 159.5494
1148.290, 158.7522
1148.772, 158.1965
1149.254, 157.5125
1149.736, 156.6467
1150.218, 155.2448
1150.700, 153.3496
1151.182, 151.8608
1151.664, 151.2918
1152.147, 151.0893
1152.629, 151.2603
1153.111, 151.4956
1153.593, 151.1959
1154.075, 150.4547
1154.557, 149.5187
1155.039, 148.3970
1155.521, 147.6521
1156.004, 148.0389
1156.486, 148.3891
1156.968, 148.0664
1157.450, 147.3436
1157.932, 147.0817
1158.414, 147.2221
1158.896, 147.3775
1159.378, 147.4889
1159.860, 147.4264
1160.343, 146.9579
1160.825, 146.4135
1161.307, 146.0305
1161.789, 145.7859
1162.271, 145.4129
1162.753, 144.9284
1163.235, 144.7822
1163.717, 145.3092
1164.199, 145.7788
1164.682, 145.3372
1165.164, 144.7184
1165.646, 144.6809
1166.128, 145.2606
1166.610, 145.9051
1167.092, 146.6273
1167.574, 146.8707
1168.056, 146.0567
1168.539, 145.0954
1169.021, 144.7262
1169.503, 144.7598
1169.985, 144.9890
1170.467, 145.4649
1170.949, 145.7690
1171.431, 145.8934
1171.913, 145.9211
1172.396, 145.9319
1172.878, 145.8497
1173.360, 145.3919
1173.842, 144.8352
1174.324, 144.7678
1174.806, 145.5393
1175.288, 145.8736
1175.770, 145.6700
1176.252, 145.3995
1176.734, 145.4495
1177.217, 145.6267
1177.699, 145.6756
1178.181, 145.6507
1178.663, 145.7527
1179.145, 146.2215
1179.627, 146.2168
1180.109, 145.5562
1180.591, 144.9145
1181.074, 144.9957
1181.556, 145.4673
1182.038, 146.0661
1182.520, 146.6741
1183.002, 146.8078
1183.484, 146.1231
1183.966, 145.5892
1184.448, 145.3429
1184.931, 145.2211
1185.413, 145.0313
1185.895, 144.8424
1186.377, 144.7794
1186.859, 144.8359
1187.341, 144.8868
1187.823, 144.7973
1188.305, 144.9647
1188.787, 145.5909
1189.270, 146.1803
1189.752, 145.7518
1190.234, 144.9401
1190.716, 144.9226
1191.198, 145.7953
1191.680, 146.5771
1192.162, 147.1927
1192.644, 147.4400
1193.126, 147.1919
1193.609, 146.7092
1194.091, 146.3446
1194.573, 146.0805
1195.055, 145.8318
1195.537, 145.5733
1196.019, 145.6899
1196.501, 146.5983
1196.983, 147.2579
1197.466, 147.2695
1197.948, 147.0196
1198.430, 147.3903
1198.912, 147.9829
1199.394, 147.8495
1199.876, 146.6591
1200.358, 146.0042
1200.840, 146.5546
1201.323, 147.0169
1201.805, 146.8591
1202.287, 146.4305
1202.769, 146.4423
1203.251, 146.7435
1203.733, 147.0482
1204.215, 147.3414
1204.697, 147.3955
1205.179, 146.8920
1205.661, 146.7476
1206.144, 147.6178
1206.626, 148.8212
1207.108, 148.5851
1207.590, 147.5083
1208.072, 146.8783
1208.554, 147.1305
1209.036, 147.5936
1209.518, 148.3891
1210.001, 148.8868
1210.483, 148.6166
1210.965, 147.9654
1211.447, 147.9580
1211.929, 148.2929
1212.411, 148.2796
1212.893, 147.5317
1213.375, 146.9232
1213.858, 146.5051
1214.340, 146.3426
1214.822, 146.5724
1215.304, 147.0089
1215.786, 147.2353
1216.268, 147.3072
1216.750, 147.3359
1217.232, 147.3381
1217.714, 147.3349
1218.197, 147.3372
1218.679, 147.3162
1219.161, 147.2512
1219.643, 147.1518
1220.125, 147.0747
1220.607, 146.9716
1221.089, 146.7172
1221.571, 145.9849
1222.053, 145.6796
1222.536, 145.9272
1223.018, 146.3685
1223.500, 146.8896
1223.982, 147.3624
1224.464, 147.4601
1224.946, 147.3103
1225.428, 147.1995
1225.910, 147.0579
1226.393, 147.2717
1226.875, 147.9272
1227.357, 148.6751
1227.839, 149.6514
1228.321, 150.3052
1228.803, 149.2207
1229.285, 147.1680
1229.767, 145.9389
1230.250, 146.5541
1230.732, 146.7655
1231.214, 146.4115
1231.696, 146.1917
1232.178, 147.0446
1232.660, 148.0578
1233.142, 147.8099
1233.624, 146.7518
1234.106, 145.9507
1234.589, 145.6325
1235.071, 145.3711
1235.553, 145.1319
1236.035, 145.0874
1236.517, 145.5896
1236.999, 146.1801
1237.481, 146.2859
1237.963, 146.0751
1238.445, 145.9271
1238.928, 145.8332
1239.410, 145.9982
1239.892, 146.4771
1240.374, 146.7840
1240.856, 146.3411
1241.338, 145.7516
1241.820, 145.6449
1242.302, 145.7725
1242.785, 145.5501
1243.267, 144.8084
1243.749, 144.5361
1244.231, 144.7814
1244.713, 145.2478
1245.195, 146.0280
1245.677, 146.6392
1246.159, 146.5267
1246.641, 146.0595
1247.124, 145.8627
1247.606, 145.9230
1248.088, 146.6771
1248.570, 148.1107
1249.052, 148.8710
1249.534, 147.3113
1250.016, 145.6094
1250.498, 145.0284
1250.980, 145.1341
1251.463, 145.4677
1251.945, 146.0206
1252.427, 146.1915
1252.909, 145.9913
1253.391, 145.8098
1253.873, 145.9220
1254.355, 146.0654
1254.837, 146.1863
1255.320, 146.2301
1255.802, 146.0625
1256.284, 145.7413
1256.766, 145.6581
1257.248, 145.8020
1257.730, 145.9735
1258.212, 146.1011
1258.694, 146.1976
1259.177, 146.2475
1259.659, 146.2971
1260.141, 146.4238
1260.623, 146.5854
1261.105, 146.7059
1261.587, 146.7429
1262.069, 146.5244
1262.551, 145.5528
1263.033, 144.9801
1263.516, 145.0310
1263.998, 145.3063
1264.480, 145.4108
1264.962, 145.4579
1265.444, 145.7268
1265.926, 146.1562
1266.408, 146.5056
1266.890, 146.8120
1267.372, 146.8266
1267.855, 146.4846
1268.337, 146.0302
1268.819, 145.5461
1269.301, 145.1666
1269.783, 145.2223
1270.265, 145.5288
1270.747, 145.4790
1271.229, 144.5566
1271.712, 145.0227
1272.194, 147.2115
1272.676, 148.9918
1273.158, 148.1984
1273.640, 146.7221
1274.122, 146.1201
1274.604, 146.2022
1275.086, 146.6199
1275.568, 147.5208
1276.051, 147.4807
1276.533, 146.4527
1277.015, 145.5796
1277.497, 145.9033
1277.979, 146.2829
1278.461, 145.7035
1278.943, 144.9951
1279.425, 145.3565
1279.907, 146.7594
1280.390, 147.1114
1280.872, 146.5137
1281.354, 146.0486
1281.836, 146.5421
1282.318, 146.9716
1282.800, 147.0082
1283.282, 146.8054
1283.764, 146.4383
1284.247, 145.9279
1284.729, 145.2172
1285.211, 144.4555
1285.693, 144.2137
1286.175, 145.3267
1286.657, 146.0760
1287.139, 146.2788
1287.621, 146.0824
1288.104, 145.3355
1288.586, 144.4160
1289.068, 144.0914
1289.550, 144.2327
1290.032, 144.5463
1290.514, 145.1743
1290.996, 145.5352
1291.478, 145.5945
1291.960, 145.5333
1292.443, 145.3874
1292.925, 145.2711
1293.407, 145.4325
1293.889, 145.6759
1294.371, 145.6032
1294.853, 145.0604
1295.335, 145.1433
1295.817, 145.8733
1296.299, 146.3669
1296.782, 145.9331
1297.264, 145.4798
1297.746, 146.0057
1298.228, 146.5993
1298.710, 146.3089
1299.192, 145.2057
1299.674, 144.2101
1300.156, 143.3826
1300.639, 143.0759
1301.121, 143.5831
1301.603, 144.3017
1302.085, 145.2613
1302.567, 146.0706
1303.049, 146.5545
1303.531, 146.6843
##END=



