##NAMES=Wagnerite
##RRUFFID=R060456
##IDEAL CHEMISTRY=Mg_2_PO_4_F
##LOCALITY=Kara-Su, Kirgizstan
##OWNER=RRUFF
##SOURCE=Michael Scott
##DESCRIPTION=Reddish-brown granular aggregate, variety magniotriplite, polytype wagnerite-Ma5bc
##STATUS=The identification of this mineral is confirmed by single-crystal X-ray diffraction and chemical analysis.
##URL=rruff.info/R060456
##MEASURED CHEMISTRY=(Mg_0.74_Fe^2+^_0.71_Mn_0.53_Ca_0.02_)_Σ=2_(P_1.00_O_4_)(F_0.60_(OH)_0.40_)_Σ=1_
115.6390, 77.20900
116.1212, 75.13850
116.6033, 73.63042
117.0854, 72.64300
117.5675, 72.25753
118.0496, 72.58493
118.5317, 73.43155
119.0139, 73.85927
119.4960, 73.22231
119.9781, 72.82809
120.4602, 73.27116
120.9423, 74.11787
121.4244, 74.57096
121.9066, 73.96386
122.3887, 72.18720
122.8708, 70.86230
123.3529, 69.83949
123.8350, 69.25272
124.3171, 69.46963
124.7993, 70.36234
125.2814, 71.21132
125.7635, 71.26139
126.2456, 70.29118
126.7277, 69.46500
127.2098, 68.66764
127.6920, 68.08004
128.1741, 68.08791
128.6562, 68.89395
129.1383, 69.68250
129.6204, 69.17050
130.1025, 67.51529
130.5847, 66.03434
131.0668, 65.24705
131.5489, 65.05013
132.0310, 65.11406
132.5131, 65.50976
132.9952, 66.01987
133.4774, 66.57339
133.9595, 67.15894
134.4416, 67.46645
134.9237, 67.11379
135.4058, 65.99802
135.8879, 64.92878
136.3701, 63.81431
136.8522, 62.95253
137.3343, 62.66700
137.8164, 63.01468
138.2985, 63.60891
138.7806, 63.81790
139.2628, 63.58607
139.7449, 62.99384
140.2270, 61.60943
140.7091, 60.13525
141.1912, 59.22430
141.6733, 59.17372
142.1555, 59.76912
142.6376, 60.28460
143.1197, 61.06118
143.6018, 61.35475
144.0839, 60.84556
144.5660, 59.82171
145.0482, 58.66073
145.5303, 57.52966
146.0124, 56.49469
146.4945, 56.04177
146.9766, 56.70226
147.4587, 57.28658
147.9409, 57.22889
148.4230, 56.62243
148.9051, 55.91351
149.3872, 55.26651
149.8693, 54.80444
150.3514, 54.85469
150.8336, 56.05976
151.3157, 57.38979
151.7978, 57.77179
152.2799, 57.06016
152.7620, 56.31574
153.2441, 56.71928
153.7263, 57.63932
154.2084, 57.96139
154.6905, 56.94566
155.1726, 55.13476
155.6547, 53.62422
156.1368, 52.26738
156.6190, 51.57459
157.1011, 51.94506
157.5832, 53.05990
158.0653, 54.35323
158.5474, 55.76503
159.0295, 57.21141
159.5117, 57.51792
159.9938, 55.26844
160.4759, 53.20674
160.9580, 52.42807
161.4401, 52.69600
161.9222, 53.22771
162.4044, 53.31255
162.8865, 52.84114
163.3686, 52.56521
163.8507, 52.52563
164.3328, 52.62425
164.8149, 53.03181
165.2971, 53.63379
165.7792, 53.98974
166.2613, 53.47342
166.7434, 51.38287
167.2255, 50.57382
167.7076, 52.35499
168.1898, 54.33927
168.6719, 54.59013
169.1540, 52.80530
169.6361, 50.41003
170.1182, 49.46439
170.6003, 50.83922
171.0825, 51.50587
171.5646, 50.64543
172.0467, 49.27863
172.5288, 48.56852
173.0109, 48.86431
173.4930, 49.73645
173.9752, 50.64398
174.4573, 51.64913
174.9394, 52.40514
175.4215, 52.93266
175.9036, 53.14039
176.3857, 52.69557
176.8679, 51.20026
177.3500, 49.47760
177.8321, 48.59854
178.3142, 48.57279
178.7963, 48.88363
179.2784, 49.46305
179.7606, 50.24313
180.2427, 50.59060
180.7248, 49.96281
181.2069, 49.15367
181.6890, 48.95803
182.1711, 49.45613
182.6533, 49.97866
183.1354, 49.87868
183.6175, 49.09859
184.0996, 48.15321
184.5817, 46.52162
185.0638, 45.15640
185.5460, 44.68695
186.0281, 45.24182
186.5102, 46.46061
186.9923, 48.02629
187.4744, 50.32902
187.9565, 51.89182
188.4387, 52.46673
188.9208, 52.39933
189.4029, 51.68709
189.8850, 50.38020
190.3671, 48.91162
190.8492, 48.17800
191.3314, 49.17479
191.8135, 49.25502
192.2956, 47.38401
192.7777, 45.07655
193.2598, 43.69234
193.7419, 43.76264
194.2241, 44.81274
194.7062, 45.69814
195.1883, 46.14669
195.6704, 46.74458
196.1525, 47.91854
196.6346, 49.11240
197.1168, 49.54839
197.5989, 48.86126
198.0810, 47.51326
198.5631, 46.85600
199.0452, 47.55068
199.5273, 48.01168
200.0095, 47.82932
200.4916, 47.27477
200.9737, 46.75074
201.4558, 46.40459
201.9379, 46.25839
202.4200, 46.42677
202.9022, 47.16236
203.3843, 47.71552
203.8664, 47.77608
204.3485, 47.44436
204.8306, 47.00545
205.3127, 46.60680
205.7949, 46.12724
206.2770, 45.26484
206.7591, 43.71700
207.2412, 42.44332
207.7233, 42.10729
208.2054, 42.59217
208.6876, 43.19819
209.1697, 43.68671
209.6518, 44.12957
210.1339, 44.75673
210.6160, 45.77547
211.0981, 46.39441
211.5803, 45.50761
212.0624, 43.10978
212.5445, 41.50368
213.0266, 42.16647
213.5087, 43.63678
213.9908, 44.58245
214.4730, 44.77139
214.9551, 44.64876
215.4372, 44.71892
215.9193, 45.04665
216.4014, 45.16494
216.8835, 44.75281
217.3657, 44.17932
217.8478, 43.55724
218.3299, 42.90776
218.8120, 42.50074
219.2941, 42.93471
219.7762, 44.68899
220.2584, 45.67296
220.7405, 44.97465
221.2226, 43.76329
221.7047, 42.65022
222.1868, 41.83081
222.6689, 41.41290
223.1511, 41.74205
223.6332, 43.50719
224.1153, 44.41050
224.5974, 43.77773
225.0795, 42.64672
225.5616, 41.62178
226.0438, 40.91410
226.5259, 40.53173
227.0080, 40.53735
227.4901, 41.25825
227.9722, 41.77914
228.4543, 42.04020
228.9365, 42.14080
229.4186, 42.15501
229.9007, 42.10405
230.3828, 41.95464
230.8649, 41.63169
231.3470, 40.87617
231.8292, 40.37103
232.3113, 40.18465
232.7934, 40.18235
233.2755, 40.30474
233.7576, 40.52012
234.2397, 40.75278
234.7219, 40.86709
235.2040, 40.70716
235.6861, 40.71609
236.1682, 41.12069
236.6503, 41.56882
237.1324, 41.67633
237.6146, 41.35485
238.0967, 40.89752
238.5788, 40.72805
239.0609, 40.91279
239.5430, 41.30261
240.0252, 42.09119
240.5073, 42.98729
240.9894, 43.74267
241.4715, 44.30053
241.9536, 44.64540
242.4357, 44.74378
242.9179, 44.57557
243.4000, 44.21352
243.8821, 43.39228
244.3642, 42.50480
244.8463, 41.96837
245.3284, 41.86621
245.8106, 42.07763
246.2927, 42.72684
246.7748, 43.87349
247.2569, 44.12326
247.7390, 42.31931
248.2211, 39.91819
248.7033, 38.78669
249.1854, 39.29923
249.6675, 40.29798
250.1496, 40.68082
250.6317, 40.53659
251.1138, 40.37214
251.5960, 40.27275
252.0781, 40.21565
252.5602, 40.13083
253.0423, 39.98603
253.5244, 39.96753
254.0065, 40.50742
254.4887, 41.34883
254.9708, 41.71667
255.4529, 40.95176
255.9350, 39.79102
256.4171, 39.43056
256.8992, 40.11371
257.3813, 40.63515
257.8635, 39.53072
258.3456, 37.70935
258.8277, 36.76107
259.3098, 37.62056
259.7919, 39.31194
260.2740, 40.60228
260.7562, 41.53911
261.2383, 41.86581
261.7204, 40.84899
262.2025, 39.26537
262.6846, 38.03325
263.1667, 37.46513
263.6489, 37.29812
264.1310, 37.16531
264.6131, 37.04085
265.0952, 37.06449
265.5773, 37.42372
266.0594, 37.91615
266.5416, 38.39769
267.0237, 38.86939
267.5058, 39.21364
267.9879, 39.20777
268.4700, 38.76300
268.9521, 38.38055
269.4343, 38.28227
269.9164, 38.28984
270.3985, 38.26317
270.8806, 38.16175
271.3627, 38.09261
271.8448, 38.34563
272.3270, 39.09294
272.8091, 39.26373
273.2912, 37.85159
273.7733, 36.24065
274.2554, 35.26992
274.7375, 35.07776
275.2197, 35.26569
275.7018, 35.45025
276.1839, 35.64039
276.6660, 35.76342
277.1481, 35.78651
277.6302, 35.74928
278.1124, 35.59511
278.5945, 35.35471
279.0766, 35.19851
279.5587, 35.38398
280.0408, 35.97862
280.5229, 36.30835
281.0051, 36.13357
281.4872, 35.84967
281.9693, 35.30499
282.4514, 34.71462
282.9335, 34.70122
283.4156, 36.26876
283.8978, 39.48922
284.3799, 40.86514
284.8620, 38.59698
285.3441, 36.15424
285.8262, 34.40111
286.3083, 33.40013
286.7905, 33.12185
287.2726, 33.73054
287.7547, 35.08540
288.2368, 35.80040
288.7189, 35.37665
289.2010, 34.84914
289.6832, 34.47231
290.1653, 34.18700
290.6474, 33.81233
291.1295, 33.18568
291.6116, 32.49588
292.0938, 32.59985
292.5759, 34.45602
293.0580, 35.72686
293.5401, 35.69566
294.0222, 34.99805
294.5043, 34.29198
294.9865, 33.86461
295.4686, 33.66046
295.9507, 33.56788
296.4328, 33.70360
296.9149, 33.74019
297.3970, 33.64200
297.8792, 33.44302
298.3613, 33.04294
298.8434, 32.44503
299.3255, 31.96773
299.8076, 32.30207
300.2897, 34.24982
300.7719, 35.14774
301.2540, 34.18003
301.7361, 32.80595
302.2182, 31.77745
302.7003, 31.29977
303.1824, 31.30450
303.6646, 31.87018
304.1467, 33.35351
304.6288, 34.06990
305.1109, 33.22707
305.5930, 32.36036
306.0751, 32.33388
306.5573, 33.00919
307.0394, 33.60216
307.5215, 33.29942
308.0036, 31.99126
308.4857, 31.39067
308.9678, 32.47300
309.4500, 33.32848
309.9321, 33.23191
310.4142, 32.48470
310.8963, 31.78839
311.3784, 31.63504
311.8605, 31.93498
312.3427, 31.97161
312.8248, 31.20841
313.3069, 30.81867
313.7890, 31.39368
314.2711, 32.34557
314.7532, 32.91221
315.2354, 32.70901
315.7175, 31.94703
316.1996, 31.17785
316.6817, 30.01651
317.1638, 29.51748
317.6459, 30.08589
318.1281, 31.12249
318.6102, 32.19022
319.0923, 33.12546
319.5744, 33.88502
320.0565, 34.45370
320.5386, 35.04995
321.0208, 34.88793
321.5029, 33.12807
321.9850, 31.32952
322.4671, 30.51303
322.9492, 30.75251
323.4313, 31.40899
323.9135, 31.87180
324.3956, 32.18560
324.8777, 32.04829
325.3598, 30.88506
325.8419, 29.80170
326.3240, 29.16557
326.8062, 28.97095
327.2883, 29.07170
327.7704, 29.40214
328.2525, 29.94395
328.7346, 30.38363
329.2167, 30.79650
329.6989, 30.99898
330.1810, 30.83584
330.6631, 30.46475
331.1452, 30.13208
331.6273, 29.98355
332.1094, 29.91434
332.5916, 29.53466
333.0737, 28.36042
333.5558, 27.73831
334.0379, 28.34733
334.5200, 29.29170
335.0021, 29.65647
335.4843, 29.15943
335.9664, 28.34938
336.4485, 28.19337
336.9306, 29.05413
337.4127, 29.47781
337.8948, 28.76074
338.3770, 28.01536
338.8591, 28.01214
339.3412, 28.74647
339.8233, 29.56744
340.3054, 29.75603
340.7875, 29.22674
341.2697, 28.93433
341.7518, 29.35152
342.2339, 29.53741
342.7160, 28.76602
343.1981, 27.44899
343.6802, 26.61341
344.1624, 27.14128
344.6445, 28.67890
345.1266, 29.39150
345.6087, 28.71688
346.0908, 28.10679
346.5729, 28.09348
347.0551, 28.39364
347.5372, 28.62589
348.0193, 28.60715
348.5014, 28.55645
348.9835, 29.05858
349.4656, 30.49300
349.9478, 31.18714
350.4299, 29.90005
350.9120, 28.19785
351.3941, 27.27274
351.8762, 27.33794
352.3583, 27.61011
352.8405, 27.23520
353.3226, 26.18918
353.8047, 25.29051
354.2868, 24.41951
354.7689, 23.99891
355.2510, 24.50907
355.7332, 25.75191
356.2153, 26.89578
356.6974, 27.33584
357.1795, 27.23304
357.6616, 27.22642
358.1437, 27.39605
358.6259, 27.50503
359.1080, 27.46088
359.5901, 27.26826
360.0722, 26.85871
360.5543, 25.94897
361.0364, 25.11295
361.5186, 25.40322
362.0007, 27.00694
362.4828, 28.23924
362.9649, 28.14677
363.4471, 27.46190
363.9292, 26.91931
364.4113, 26.53671
364.8934, 26.55132
365.3755, 27.51238
365.8576, 29.17763
366.3398, 30.16943
366.8219, 30.00804
367.3040, 29.30636
367.7861, 28.68190
368.2682, 28.12533
368.7503, 27.52440
369.2325, 26.77424
369.7146, 25.96539
370.1967, 25.12879
370.6788, 24.19195
371.1609, 23.71002
371.6430, 24.53798
372.1252, 26.20928
372.6073, 27.13544
373.0894, 26.29491
373.5715, 25.28963
374.0536, 25.60780
374.5357, 27.01765
375.0179, 28.13078
375.5000, 28.22589
375.9821, 27.63353
376.4642, 27.12158
376.9463, 26.60211
377.4284, 26.33849
377.9106, 26.73031
378.3927, 27.37848
378.8748, 27.45235
379.3569, 26.66735
379.8390, 25.79490
380.3211, 25.96569
380.8033, 27.46555
381.2854, 28.29859
381.7675, 27.98984
382.2496, 27.20321
382.7317, 26.21096
383.2138, 25.14238
383.6960, 24.43335
384.1781, 24.46707
384.6602, 25.18655
385.1423, 25.71566
385.6244, 26.16580
386.1065, 26.34736
386.5887, 26.06287
387.0708, 25.49095
387.5529, 24.83844
388.0350, 24.17804
388.5171, 23.68583
388.9992, 23.76246
389.4814, 25.03992
389.9635, 25.93341
390.4456, 26.21397
390.9277, 26.27019
391.4098, 26.47430
391.8919, 26.84060
392.3741, 27.04309
392.8562, 26.67547
393.3383, 25.59702
393.8204, 25.03115
394.3025, 25.37642
394.7846, 25.78115
395.2668, 26.00673
395.7489, 26.07518
396.2310, 26.07426
396.7131, 26.05233
397.1952, 26.00640
397.6773, 25.94145
398.1595, 25.98085
398.6416, 25.77514
399.1237, 24.90937
399.6058, 24.03343
400.0879, 23.74865
400.5700, 24.17244
401.0522, 24.90640
401.5343, 25.40394
402.0164, 25.54361
402.4985, 26.17986
402.9806, 28.02212
403.4627, 29.72980
403.9449, 30.83295
404.4270, 31.33741
404.9091, 31.33603
405.3912, 30.72886
405.8733, 29.73422
406.3554, 28.98236
406.8376, 28.38833
407.3197, 28.25073
407.8018, 29.12253
408.2839, 30.30153
408.7660, 31.03326
409.2481, 31.09148
409.7303, 30.99465
410.2124, 31.36850
410.6945, 32.16410
411.1766, 32.55507
411.6587, 32.00193
412.1408, 31.47609
412.6230, 32.19191
413.1051, 33.93446
413.5872, 35.05796
414.0693, 34.39203
414.5514, 32.86146
415.0335, 31.73297
415.5157, 31.03962
415.9978, 31.20107
416.4799, 32.99683
416.9620, 35.80567
417.4441, 37.64552
417.9262, 37.92741
418.4084, 37.92175
418.8905, 38.08606
419.3726, 38.50661
419.8547, 39.62178
420.3368, 41.77241
420.8189, 44.02541
421.3011, 44.66740
421.7832, 43.18774
422.2653, 42.37199
422.7474, 42.79320
423.2295, 43.80932
423.7116, 45.12569
424.1938, 46.59234
424.6759, 47.75200
425.1580, 48.18116
425.6401, 47.93795
426.1222, 48.12878
426.6043, 49.08458
427.0865, 50.01678
427.5686, 50.80318
428.0507, 51.42847
428.5328, 51.80238
429.0149, 51.90198
429.4970, 51.97384
429.9792, 52.48100
430.4613, 53.72212
430.9434, 54.76087
431.4255, 55.50176
431.9076, 56.16544
432.3897, 57.02655
432.8719, 57.95778
433.3540, 58.49987
433.8361, 58.18257
434.3182, 57.18377
434.8003, 56.82942
435.2824, 57.59497
435.7646, 58.30149
436.2467, 58.76799
436.7288, 58.98240
437.2109, 58.82733
437.6930, 58.26030
438.1751, 57.66773
438.6573, 57.62144
439.1394, 58.17554
439.6215, 58.55056
440.1036, 58.90542
440.5857, 58.72035
441.0678, 57.45280
441.5500, 55.34828
442.0321, 53.33705
442.5142, 51.92767
442.9963, 50.88630
443.4784, 49.70307
443.9605, 48.31887
444.4427, 47.27355
444.9248, 47.07885
445.4069, 47.28395
445.8890, 47.02498
446.3711, 46.01842
446.8532, 45.24142
447.3354, 45.67702
447.8175, 46.68211
448.2996, 46.77687
448.7817, 45.57112
449.2638, 43.81722
449.7459, 42.13251
450.2281, 40.51926
450.7102, 39.59125
451.1923, 39.63441
451.6744, 40.13497
452.1565, 41.10947
452.6386, 42.31258
453.1208, 43.06408
453.6029, 42.97589
454.0850, 42.33614
454.5671, 41.94157
455.0492, 41.98584
455.5313, 42.02790
456.0135, 42.07239
456.4956, 42.10616
456.9777, 42.12049
457.4598, 42.11344
457.9419, 42.08754
458.4240, 42.04662
458.9062, 41.99110
459.3883, 41.90267
459.8704, 41.81753
460.3525, 41.65054
460.8346, 41.18161
461.3167, 40.69468
461.7989, 40.59188
462.2810, 41.03114
462.7631, 41.70458
463.2452, 42.35123
463.7273, 43.14210
464.2094, 42.83445
464.6916, 40.07234
465.1737, 37.28820
465.6558, 35.95605
466.1379, 35.84972
466.6200, 35.91665
467.1021, 35.62323
467.5843, 35.11609
468.0664, 34.63654
468.5485, 34.16117
469.0306, 33.90339
469.5127, 34.26838
469.9948, 34.71471
470.4770, 34.41167
470.9591, 33.21371
471.4412, 31.71184
471.9233, 29.74670
472.4054, 27.78488
472.8875, 26.85486
473.3697, 27.18266
473.8518, 27.83656
474.3339, 28.00674
474.8160, 27.68669
475.2981, 27.45683
475.7802, 27.66308
476.2624, 27.59713
476.7445, 26.68693
477.2266, 25.31666
477.7087, 24.17478
478.1908, 23.52365
478.6729, 23.29527
479.1551, 23.40728
479.6372, 24.14629
480.1193, 24.54666
480.6014, 24.44119
481.0835, 24.19740
481.5656, 23.91349
482.0478, 23.66358
482.5299, 23.60990
483.0120, 23.91620
483.4941, 24.38897
483.9762, 24.22515
484.4583, 23.00736
484.9405, 22.00370
485.4226, 21.59037
485.9047, 21.37766
486.3868, 21.06129
486.8689, 20.60810
487.3510, 20.21827
487.8332, 20.05654
488.3153, 20.10146
488.7974, 20.25065
489.2795, 20.50748
489.7616, 20.85327
490.2437, 21.49115
490.7259, 22.16135
491.2080, 22.42942
491.6901, 22.11628
492.1722, 21.58610
492.6543, 20.87370
493.1364, 20.14104
493.6186, 20.02212
494.1007, 20.82182
494.5828, 21.62186
495.0649, 21.19424
495.5470, 19.37140
496.0291, 18.33500
496.5113, 18.64643
496.9934, 19.29969
497.4755, 19.81648
497.9576, 20.19925
498.4397, 20.58900
498.9218, 21.06240
499.4040, 21.47258
499.8861, 21.44526
500.3682, 20.45435
500.8503, 20.00851
501.3324, 20.75029
501.8145, 21.42357
502.2967, 21.14058
502.7788, 20.06353
503.2609, 18.90868
503.7430, 18.11434
504.2251, 17.68852
504.7072, 17.79191
505.1894, 18.88807
505.6715, 19.44127
506.1536, 18.62731
506.6357, 17.41580
507.1178, 16.45203
507.5999, 15.83910
508.0821, 15.51845
508.5642, 15.41656
509.0463, 15.57313
509.5284, 16.31579
510.0105, 17.88669
510.4926, 19.01123
510.9748, 18.44458
511.4569, 16.98326
511.9390, 16.56857
512.4211, 17.87751
512.9032, 19.18420
513.3853, 19.58379
513.8674, 19.43308
514.3495, 19.34194
514.8317, 19.44635
515.3138, 19.51962
515.7959, 19.31853
516.2780, 18.81951
516.7601, 18.37107
517.2422, 17.67317
517.7244, 17.34771
518.2065, 18.02349
518.6886, 19.06255
519.1707, 19.45871
519.6528, 18.88122
520.1349, 17.96556
520.6171, 17.78942
521.0992, 18.70934
521.5813, 18.90725
522.0634, 17.25456
522.5455, 15.99312
523.0276, 16.25945
523.5098, 17.45650
523.9919, 18.42089
524.4740, 18.62720
524.9561, 18.43500
525.4382, 18.31351
525.9203, 18.26377
526.4025, 18.29000
526.8846, 18.49540
527.3667, 18.63840
527.8488, 18.35736
528.3309, 17.74217
528.8130, 17.39751
529.2952, 17.76243
529.7773, 18.27164
530.2594, 18.25626
530.7415, 17.86833
531.2236, 17.95824
531.7057, 19.03240
532.1879, 20.39275
532.6700, 20.61650
533.1521, 18.81397
533.6342, 17.91179
534.1163, 18.65839
534.5984, 19.72728
535.0806, 20.32631
535.5627, 20.48492
536.0448, 20.62497
536.5269, 21.04351
537.0090, 21.46447
537.4911, 20.90076
537.9733, 18.49933
538.4554, 16.99643
538.9375, 17.10464
539.4196, 17.83137
539.9017, 18.93881
540.3839, 20.19866
540.8660, 21.00315
541.3481, 20.69936
541.8302, 19.82550
542.3123, 19.76365
542.7944, 20.66246
543.2766, 21.01055
543.7587, 19.75324
544.2408, 18.02518
544.7229, 17.58935
545.2050, 18.60627
545.6871, 19.39175
546.1693, 19.17247
546.6514, 18.55877
547.1335, 18.14865
547.6156, 17.98823
548.0977, 17.93488
548.5798, 17.87211
549.0620, 17.90381
549.5441, 18.37924
550.0262, 20.43422
550.5083, 21.38150
550.9904, 20.28326
551.4725, 18.77450
551.9547, 17.92143
552.4368, 17.83631
552.9189, 18.28493
553.4010, 19.22688
553.8831, 20.41616
554.3652, 20.80920
554.8474, 20.17246
555.3295, 19.32420
555.8116, 17.70432
556.2937, 16.48558
556.7758, 16.95011
557.2579, 19.00281
557.7401, 20.74838
558.2222, 20.98745
558.7043, 20.24294
559.1864, 19.12805
559.6685, 17.66440
560.1506, 16.80919
560.6328, 17.21513
561.1149, 18.34004
561.5970, 19.00538
562.0791, 19.08265
562.5612, 19.20977
563.0433, 19.49757
563.5255, 19.88311
564.0076, 20.29899
564.4897, 20.75950
564.9718, 21.41046
565.4539, 22.39141
565.9360, 23.47986
566.4182, 23.90092
566.9003, 23.35277
567.3824, 22.68675
567.8645, 21.47385
568.3466, 20.58300
568.8287, 20.81184
569.3109, 21.91755
569.7930, 22.92954
570.2751, 23.22051
570.7572, 23.07247
571.2393, 23.04569
571.7214, 23.14555
572.2036, 23.30882
572.6857, 23.58075
573.1678, 23.83467
573.6499, 23.94357
574.1320, 23.91232
574.6141, 23.74367
575.0963, 22.87063
575.5784, 22.31225
576.0605, 23.54478
576.5426, 25.94966
577.0247, 27.25974
577.5068, 26.35013
577.9890, 24.42263
578.4711, 23.79012
578.9532, 25.32695
579.4353, 25.93088
579.9174, 24.97727
580.3995, 23.84047
580.8817, 22.82757
581.3638, 22.18579
581.8459, 22.38896
582.3280, 23.73116
582.8101, 25.43759
583.2922, 26.20761
583.7744, 25.97305
584.2565, 25.79244
584.7386, 25.98245
585.2207, 25.98199
585.7028, 24.90953
586.1849, 23.34193
586.6671, 22.84563
587.1492, 24.39591
587.6313, 26.30786
588.1134, 27.31320
588.5955, 27.75259
589.0776, 28.58367
589.5598, 30.06700
590.0419, 31.26447
590.5240, 30.99211
591.0061, 29.13663
591.4882, 28.49093
591.9703, 29.98404
592.4525, 31.40500
592.9346, 32.15636
593.4167, 32.57573
593.8988, 33.15856
594.3809, 33.97233
594.8630, 34.57635
595.3452, 34.26180
595.8273, 33.18161
596.3094, 33.23822
596.7915, 34.99744
597.2736, 36.60295
597.7557, 37.10442
598.2379, 37.12079
598.7200, 37.27912
599.2021, 37.66663
599.6842, 37.98018
600.1663, 37.73248
600.6484, 37.48309
601.1306, 38.17373
601.6127, 39.77983
602.0948, 41.51007
602.5769, 42.98885
603.0590, 44.14244
603.5411, 44.75391
604.0233, 44.38645
604.5054, 44.16609
604.9875, 44.12131
605.4696, 44.19501
605.9517, 44.42292
606.4338, 44.73756
606.9160, 45.03357
607.3981, 45.27826
607.8802, 45.35495
608.3623, 44.98260
608.8444, 44.11253
609.3265, 43.13489
609.8087, 41.79237
610.2908, 40.78223
610.7729, 40.91404
611.2551, 41.78688
611.7372, 42.19082
612.2193, 41.57228
612.7014, 40.70601
613.1835, 39.92989
613.6656, 39.34651
614.1478, 39.41460
614.6299, 40.23650
615.1120, 40.82145
615.5941, 40.07033
616.0762, 37.97299
616.5583, 36.40136
617.0405, 35.71039
617.5226, 35.09306
618.0047, 34.26592
618.4868, 33.54283
618.9689, 33.37181
619.4510, 33.73100
619.9332, 34.04650
620.4153, 33.76897
620.8974, 33.07752
621.3795, 32.72377
621.8616, 32.84785
622.3438, 32.51872
622.8259, 31.01485
623.3080, 29.21979
623.7901, 28.31779
624.2722, 28.33433
624.7543, 28.54758
625.2365, 29.07322
625.7186, 29.46239
626.2007, 29.27258
626.6828, 28.63010
627.1649, 27.94491
627.6470, 27.38858
628.1292, 26.77705
628.6113, 25.74730
629.0934, 24.09239
629.5755, 22.87837
630.0576, 22.08474
630.5397, 21.79520
631.0219, 22.60186
631.5040, 23.71972
631.9861, 23.98675
632.4682, 23.04562
632.9503, 21.88843
633.4324, 21.50292
633.9146, 21.62968
634.3967, 21.32147
634.8788, 20.42860
635.3609, 19.89717
635.8430, 20.53640
636.3251, 21.78299
636.8073, 21.89253
637.2894, 20.21337
637.7715, 19.13412
638.2536, 19.58512
638.7357, 20.29462
639.2178, 20.21219
639.7000, 19.50956
640.1821, 18.99558
640.6642, 19.12941
641.1463, 19.50816
641.6284, 19.17414
642.1105, 17.87642
642.5927, 17.24730
643.0748, 17.87781
643.5569, 18.63273
644.0390, 18.87013
644.5211, 18.77106
645.0032, 18.69912
645.4854, 18.75592
645.9675, 18.81534
646.4496, 18.78756
646.9317, 18.70603
647.4138, 18.75064
647.8959, 18.91262
648.3781, 18.63413
648.8602, 17.34160
649.3423, 15.41955
649.8244, 14.74124
650.3065, 16.32522
650.7886, 17.66889
651.2708, 18.86589
651.7529, 19.65600
652.2350, 19.62811
652.7171, 19.03288
653.1992, 18.56882
653.6813, 18.63236
654.1635, 18.93019
654.6456, 19.09295
655.1277, 19.11213
655.6098, 18.78412
656.0919, 17.89587
656.5740, 17.16122
657.0562, 17.30121
657.5383, 18.19664
658.0204, 18.81852
658.5025, 19.09568
658.9846, 19.18402
659.4667, 18.97837
659.9489, 18.69390
660.4310, 18.48927
660.9131, 18.42726
661.3952, 18.65087
661.8773, 19.35519
662.3594, 20.24957
662.8416, 20.28984
663.3237, 19.20302
663.8058, 18.26415
664.2879, 17.74301
664.7700, 17.38721
665.2521, 16.82625
665.7343, 16.24376
666.2164, 16.30544
666.6985, 17.75842
667.1806, 19.16139
667.6627, 19.22349
668.1448, 18.58510
668.6270, 18.56726
669.1091, 19.39404
669.5912, 20.25012
670.0733, 20.40603
670.5554, 19.96463
671.0375, 19.68033
671.5197, 19.73816
672.0018, 19.64905
672.4839, 18.99331
672.9660, 18.49796
673.4481, 18.89367
673.9302, 19.92710
674.4124, 20.63194
674.8945, 20.32165
675.3766, 19.78309
675.8587, 20.20033
676.3408, 21.31070
676.8229, 21.86031
677.3051, 21.53890
677.7872, 20.87692
678.2693, 20.26805
678.7514, 19.72449
679.2335, 19.39722
679.7156, 19.55599
680.1978, 19.54355
680.6799, 19.03986
681.1620, 18.49857
681.6441, 18.38295
682.1262, 18.61584
682.6083, 18.75380
683.0905, 18.49634
683.5726, 18.04079
684.0547, 17.63522
684.5368, 17.28156
685.0189, 17.51190
685.5010, 18.63486
685.9832, 19.89544
686.4653, 20.78135
686.9474, 21.27178
687.4295, 21.33934
687.9116, 20.61097
688.3937, 19.97156
688.8759, 19.94736
689.3580, 19.95490
689.8401, 19.15438
690.3222, 17.72318
690.8043, 16.68999
691.2864, 16.74762
691.7686, 17.53344
692.2507, 18.29880
692.7328, 19.11683
693.2149, 19.40393
693.6970, 18.76105
694.1791, 18.03347
694.6613, 17.90573
695.1434, 18.11640
695.6255, 18.05091
696.1076, 17.40762
696.5897, 16.91221
697.0718, 16.98432
697.5540, 17.33146
698.0361, 17.72495
698.5182, 18.06703
699.0003, 18.13542
699.4824, 17.77623
699.9645, 17.15764
700.4467, 16.63000
700.9288, 16.09881
701.4109, 16.02558
701.8930, 16.61374
702.3751, 17.46534
702.8572, 18.73539
703.3394, 20.01093
703.8215, 20.46039
704.3036, 19.67978
704.7857, 19.03677
705.2678, 19.86481
705.7499, 21.00084
706.2321, 20.47121
706.7142, 18.51758
707.1963, 17.19876
707.6784, 17.62976
708.1605, 18.99981
708.6426, 19.76136
709.1248, 19.91566
709.6069, 19.42858
710.0890, 17.12167
710.5711, 15.57826
711.0532, 16.44877
711.5353, 18.21571
712.0175, 18.76879
712.4996, 17.64954
712.9817, 16.52805
713.4638, 16.37129
713.9459, 16.85879
714.4280, 17.82901
714.9102, 19.10201
715.3923, 19.90548
715.8744, 19.88615
716.3565, 19.45859
716.8386, 19.24643
717.3207, 19.32645
717.8029, 19.06766
718.2850, 17.86508
718.7671, 17.08625
719.2492, 17.45628
719.7313, 18.12296
720.2134, 18.13161
720.6956, 17.43572
721.1777, 16.89878
721.6598, 17.14661
722.1419, 17.74994
722.6240, 18.35814
723.1061, 18.87077
723.5883, 18.70035
724.0704, 17.62059
724.5525, 16.66087
725.0346, 16.98309
725.5167, 18.54488
725.9988, 19.71271
726.4810, 20.52728
726.9631, 20.86128
727.4452, 20.54909
727.9273, 19.90306
728.4094, 18.79634
728.8915, 17.52047
729.3737, 17.01539
729.8558, 18.00393
730.3379, 19.43653
730.8200, 20.41566
731.3021, 20.93115
731.7842, 20.83197
732.2664, 20.10496
732.7485, 19.19584
733.2306, 18.32541
733.7127, 17.67186
734.1948, 18.01960
734.6769, 20.47361
735.1591, 21.90423
735.6412, 21.44875
736.1233, 20.81924
736.6054, 21.11729
737.0875, 21.80755
737.5696, 21.60694
738.0518, 19.90649
738.5339, 18.53543
739.0160, 19.49803
739.4981, 21.56702
739.9802, 22.49418
740.4623, 22.19644
740.9445, 21.45540
741.4266, 20.56900
741.9087, 19.89268
742.3908, 20.19724
742.8729, 21.94341
743.3550, 22.67023
743.8372, 21.19948
744.3193, 20.10978
744.8014, 20.32342
745.2835, 21.12734
745.7656, 21.78861
746.2477, 22.19412
746.7299, 22.52131
747.2120, 23.08704
747.6941, 23.46467
748.1762, 22.70682
748.6583, 21.32523
749.1404, 21.08663
749.6226, 22.47721
750.1047, 24.26214
750.5868, 25.18865
751.0689, 25.33294
751.5510, 25.57749
752.0331, 26.09862
752.5153, 26.37656
752.9974, 25.62880
753.4795, 25.22902
753.9616, 26.64697
754.4437, 29.18164
754.9258, 30.49975
755.4080, 29.30680
755.8901, 27.89334
756.3722, 27.90067
756.8543, 28.62871
757.3364, 29.07927
757.8185, 29.15770
758.3007, 29.12986
758.7828, 29.12213
759.2649, 29.31119
759.7470, 30.25787
760.2291, 32.32009
760.7112, 33.40011
761.1934, 32.97614
761.6755, 32.30891
762.1576, 31.56347
762.6397, 31.11331
763.1218, 31.74595
763.6039, 33.71745
764.0861, 34.96249
764.5682, 33.77305
765.0503, 32.51119
765.5324, 33.40628
766.0145, 35.52882
766.4966, 36.85244
766.9788, 36.84735
767.4609, 36.60127
767.9430, 37.33482
768.4251, 38.72217
768.9072, 39.00037
769.3893, 37.94717
769.8715, 36.88148
770.3536, 35.88367
770.8357, 35.31211
771.3178, 35.73476
771.7999, 36.94807
772.2820, 37.90117
772.7642, 38.29227
773.2463, 38.74714
773.7284, 39.36584
774.2105, 40.17171
774.6926, 41.60007
775.1747, 43.23129
775.6569, 43.77223
776.1390, 42.48653
776.6211, 40.78345
777.1032, 40.70126
777.5853, 41.96214
778.0674, 43.09607
778.5496, 44.04364
779.0317, 44.45033
779.5138, 43.99697
779.9959, 43.12248
780.4780, 42.55809
780.9601, 42.31478
781.4423, 42.37773
781.9244, 42.75194
782.4065, 43.40660
782.8886, 44.77719
783.3707, 46.14891
783.8528, 46.68376
784.3350, 46.35569
784.8171, 45.87073
785.2992, 45.53261
785.7813, 45.40001
786.2634, 45.84941
786.7455, 46.57552
787.2277, 46.30133
787.7098, 44.80089
788.1919, 43.69506
788.6740, 44.41572
789.1561, 46.27657
789.6382, 46.64102
790.1204, 44.55439
790.6025, 43.28437
791.0846, 43.68532
791.5667, 44.17149
792.0488, 43.88118
792.5309, 43.29351
793.0131, 43.21046
793.4952, 43.82189
793.9773, 44.50140
794.4594, 45.12294
794.9415, 45.54458
795.4236, 45.62769
795.9058, 45.40113
796.3879, 44.89147
796.8700, 44.12928
797.3521, 43.27211
797.8342, 42.40375
798.3163, 41.60981
798.7985, 41.34487
799.2806, 41.64464
799.7627, 42.35294
800.2448, 43.86814
800.7269, 45.06294
801.2090, 44.74079
801.6912, 43.19083
802.1733, 42.10039
802.6554, 41.58373
803.1375, 41.35105
803.6196, 41.84606
804.1017, 42.16286
804.5839, 41.29739
805.0660, 39.80464
805.5481, 38.98944
806.0302, 39.33521
806.5123, 39.91341
806.9944, 39.78294
807.4766, 39.19325
807.9587, 38.82527
808.4408, 38.65318
808.9229, 37.97497
809.4050, 36.44077
809.8871, 34.92569
810.3693, 34.49425
810.8514, 35.13940
811.3335, 35.93008
811.8156, 37.34747
812.2977, 38.10112
812.7798, 37.63489
813.2620, 36.80689
813.7441, 36.08282
814.2262, 35.46213
814.7083, 34.82476
815.1904, 34.06794
815.6725, 33.46867
816.1547, 33.21183
816.6368, 33.17010
817.1189, 33.33056
817.6010, 33.57118
818.0831, 33.54680
818.5652, 33.11622
819.0474, 32.57771
819.5295, 32.33285
820.0116, 32.34683
820.4937, 32.35163
820.9758, 32.39163
821.4579, 32.11394
821.9401, 31.25458
822.4222, 30.30822
822.9043, 29.87411
823.3864, 29.92086
823.8685, 29.55461
824.3506, 28.11170
824.8328, 27.20674
825.3149, 27.35850
825.7970, 27.88172
826.2791, 28.60484
826.7612, 29.23945
827.2433, 29.14286
827.7255, 27.97307
828.2076, 26.91570
828.6897, 27.28276
829.1718, 28.25747
829.6539, 28.49959
830.1360, 28.04793
830.6182, 27.36897
831.1003, 26.63638
831.5824, 26.06930
832.0645, 25.97502
832.5466, 26.30434
833.0287, 26.51500
833.5109, 26.74940
833.9930, 26.36591
834.4751, 24.56619
834.9572, 22.91636
835.4393, 23.06486
835.9214, 24.38668
836.4036, 25.06467
836.8857, 24.71747
837.3678, 24.22321
837.8499, 23.50552
838.3320, 22.98314
838.8141, 23.14975
839.2963, 23.68276
839.7784, 23.88051
840.2605, 23.55630
840.7426, 23.36947
841.2247, 24.25364
841.7068, 25.52064
842.1890, 25.76523
842.6711, 25.11724
843.1532, 24.14655
843.6353, 22.97789
844.1174, 22.20501
844.5995, 22.42144
845.0817, 23.39710
845.5638, 24.14053
846.0459, 24.76266
846.5280, 24.80605
847.0101, 23.67906
847.4922, 22.69500
847.9744, 22.80099
848.4565, 23.35330
848.9386, 23.34230
849.4207, 22.61615
849.9028, 21.88142
850.3849, 20.97236
850.8671, 20.49107
851.3492, 21.15183
851.8313, 22.27128
852.3134, 22.96144
852.7955, 23.08029
853.2776, 22.99110
853.7598, 22.91811
854.2419, 22.80417
854.7240, 22.51966
855.2061, 22.11288
855.6882, 21.77235
856.1703, 21.52293
856.6525, 21.38833
857.1346, 21.41541
857.6167, 21.43101
858.0988, 20.98761
858.5809, 19.85513
859.0630, 19.90574
859.5452, 22.20377
860.0273, 23.78657
860.5094, 23.23830
860.9915, 22.00915
861.4736, 21.24922
861.9557, 20.93893
862.4379, 20.80376
862.9200, 20.85198
863.4021, 20.99288
863.8842, 21.40833
864.3663, 21.72704
864.8484, 21.47962
865.3306, 20.88123
865.8127, 20.47020
866.2948, 20.45302
866.7769, 20.65523
867.2590, 21.05807
867.7411, 21.49734
868.2233, 21.52636
868.7054, 21.23169
869.1875, 21.24802
869.6696, 21.76502
870.1517, 21.99728
870.6339, 21.08796
871.1160, 19.41535
871.5981, 18.74805
872.0802, 19.37646
872.5623, 19.98006
873.0444, 20.53894
873.5266, 20.87535
874.0087, 20.63802
874.4908, 20.22515
874.9729, 20.57716
875.4550, 22.01773
875.9371, 22.35711
876.4193, 20.16096
876.9014, 18.17217
877.3835, 17.26710
877.8656, 17.34146
878.3477, 18.92737
878.8298, 21.44091
879.3120, 22.73519
879.7941, 21.39429
880.2762, 19.39722
880.7583, 18.48961
881.2404, 18.31554
881.7225, 18.41530
882.2047, 18.65628
882.6868, 18.74703
883.1689, 18.56180
883.6510, 18.25528
884.1331, 17.98698
884.6152, 17.77283
885.0974, 17.80303
885.5795, 18.13756
886.0616, 18.27430
886.5437, 18.07193
887.0258, 17.67443
887.5079, 16.99895
887.9901, 16.27398
888.4722, 16.47315
888.9543, 18.91618
889.4364, 19.74823
889.9185, 17.21501
890.4006, 15.13881
890.8828, 15.53937
891.3649, 16.92573
891.8470, 17.45754
892.3291, 16.94955
892.8112, 16.34765
893.2933, 15.99150
893.7755, 15.69822
894.2576, 15.06812
894.7397, 14.61373
895.2218, 15.16230
895.7039, 16.53465
896.1860, 17.95202
896.6682, 19.06929
897.1503, 19.71024
897.6324, 19.55962
898.1145, 18.78917
898.5966, 17.67028
899.0787, 16.30614
899.5609, 15.62297
900.0430, 15.94803
900.5251, 16.49805
901.0072, 16.51655
901.4893, 16.11929
901.9714, 15.85300
902.4536, 15.72398
902.9357, 15.72952
903.4178, 16.03141
903.8999, 16.17011
904.3820, 15.72994
904.8641, 15.07517
905.3463, 14.89078
905.8284, 15.25717
906.3105, 15.41042
906.7926, 15.16594
907.2747, 14.87064
907.7568, 14.53476
908.2390, 14.26898
908.7211, 14.17263
909.2032, 14.22743
909.6853, 14.33137
910.1674, 14.41753
910.6495, 14.67639
911.1317, 15.68473
911.6138, 16.58754
912.0959, 15.81802
912.5780, 14.25025
913.0601, 14.27391
913.5422, 16.35664
914.0244, 18.51097
914.5065, 19.04540
914.9886, 18.50330
915.4707, 17.85504
915.9528, 17.14271
916.4349, 16.65470
916.9171, 16.43499
917.3992, 16.26134
917.8813, 16.01381
918.3634, 15.73957
918.8455, 15.48170
919.3276, 15.22239
919.8098, 15.33179
920.2919, 15.96140
920.7740, 16.58060
921.2561, 17.11047
921.7382, 17.53729
922.2203, 17.82078
922.7025, 17.99072
923.1846, 18.21057
923.6667, 18.79711
924.1488, 18.74499
924.6309, 17.13186
925.1130, 15.80633
925.5952, 15.77896
926.0773, 16.40361
926.5594, 16.99392
927.0415, 17.41735
927.5236, 17.64515
928.0057, 17.54548
928.4879, 17.42394
928.9700, 17.59439
929.4521, 17.77165
929.9342, 17.44932
930.4163, 16.84526
930.8984, 16.72999
931.3806, 17.36304
931.8627, 17.93353
932.3448, 17.44906
932.8269, 16.44085
933.3090, 15.91045
933.7911, 15.83240
934.2733, 16.17716
934.7554, 16.91990
935.2375, 17.82151
935.7196, 18.74050
936.2017, 19.61941
936.6838, 20.45067
937.1660, 21.27726
937.6481, 21.04398
938.1302, 19.41674
938.6123, 18.23987
939.0944, 18.23369
939.5765, 18.67057
940.0587, 18.88139
940.5408, 18.88116
941.0229, 18.75502
941.5050, 18.25505
941.9871, 18.08349
942.4692, 18.46981
942.9514, 18.95281
943.4335, 19.44187
943.9156, 19.87424
944.3977, 20.12167
944.8798, 20.18378
945.3619, 20.37436
945.8441, 20.95362
946.3262, 21.41565
946.8083, 21.18383
947.2904, 21.10434
947.7725, 22.26737
948.2546, 24.08678
948.7368, 25.07313
949.2189, 24.76367
949.7010, 24.43009
950.1831, 24.90722
950.6652, 25.76200
951.1473, 26.80596
951.6295, 27.80522
952.1116, 28.21936
952.5937, 28.11522
953.0758, 28.13436
953.5579, 28.63873
954.0400, 29.47677
954.5222, 30.55182
955.0043, 31.77177
955.4864, 32.87619
955.9685, 33.86118
956.4506, 34.83664
956.9327, 35.83439
957.4149, 36.72656
957.8970, 37.36859
958.3791, 37.89970
958.8612, 38.67168
959.3433, 39.65080
959.8254, 41.40330
960.3076, 44.11906
960.7897, 46.98595
961.2718, 49.79146
961.7539, 52.24915
962.2360, 53.72630
962.7181, 54.33137
963.2003, 56.55326
963.6824, 61.67393
964.1645, 65.72793
964.6466, 67.03599
965.1287, 68.83862
965.6108, 73.54681
966.0930, 79.48895
966.5751, 84.09501
967.0572, 87.14983
967.5393, 90.62614
968.0214, 95.06570
968.5035, 99.48005
968.9857, 103.5771
969.4678, 107.5832
969.9499, 111.2386
970.4320, 115.0793
970.9141, 120.5373
971.3962, 128.1432
971.8784, 135.2608
972.3605, 140.6102
972.8426, 145.0716
973.3247, 148.4566
973.8068, 151.7958
974.2889, 156.6326
974.7711, 162.7484
975.2532, 168.7774
975.7353, 174.1384
976.2174, 178.9334
976.6995, 183.2570
977.1816, 187.0692
977.6638, 190.2944
978.1459, 192.9686
978.6280, 195.0063
979.1101, 196.5085
979.5922, 198.1089
980.0743, 200.3559
980.5565, 202.4372
981.0386, 202.6667
981.5207, 203.6264
982.0028, 203.8025
982.4849, 202.8570
982.9670, 202.6373
983.4492, 200.2488
983.9313, 197.7455
984.4134, 197.1980
984.8955, 197.8008
985.3776, 196.9906
985.8597, 194.7389
986.3419, 191.7856
986.8240, 188.0093
987.3061, 184.6209
987.7882, 182.1892
988.2703, 180.2386
988.7524, 178.3166
989.2346, 176.3318
989.7167, 173.4344
990.1988, 169.4094
990.6809, 165.0780
991.1630, 160.4560
991.6451, 155.6417
992.1273, 150.7959
992.6094, 145.6692
993.0915, 139.6853
993.5736, 132.7775
994.0557, 126.6323
994.5378, 122.5208
995.0200, 117.3455
995.5021, 109.3931
995.9842, 101.8341
996.4663, 96.75918
996.9484, 92.99968
997.4305, 88.42867
997.9127, 82.78830
998.3948, 78.00050
998.8769, 75.60686
999.3590, 72.43190
999.8411, 65.80721
1000.323, 59.56614
1000.805, 57.36021
1001.287, 57.65302
1001.770, 56.96854
1002.252, 54.50536
1002.734, 52.21247
1003.216, 51.11266
1003.698, 50.17447
1004.180, 48.88897
1004.662, 47.38708
1005.144, 45.84472
1005.627, 44.23473
1006.109, 42.33788
1006.591, 40.04963
1007.073, 38.06074
1007.555, 36.75558
1008.037, 36.07201
1008.519, 36.35278
1009.001, 37.02146
1009.483, 37.04671
1009.966, 36.52174
1010.448, 36.47368
1010.930, 37.42392
1011.412, 38.11156
1011.894, 36.80241
1012.376, 34.74763
1012.858, 33.90264
1013.340, 33.91821
1013.823, 33.65140
1014.305, 33.05362
1014.787, 33.26823
1015.269, 35.01172
1015.751, 36.90209
1016.233, 36.83872
1016.715, 35.49937
1017.197, 34.83112
1017.679, 34.69014
1018.162, 34.16010
1018.644, 33.07194
1019.126, 31.91437
1019.608, 30.98354
1020.090, 30.41004
1020.572, 30.59347
1021.054, 31.39493
1021.536, 31.86526
1022.018, 31.99766
1022.501, 31.68951
1022.983, 30.87339
1023.465, 30.49355
1023.947, 31.34289
1024.429, 32.68398
1024.911, 32.80087
1025.393, 31.65383
1025.875, 31.31413
1026.358, 31.91448
1026.840, 32.15364
1027.322, 31.58978
1027.804, 31.13913
1028.286, 31.65442
1028.768, 32.51990
1029.250, 31.95737
1029.732, 29.58465
1030.214, 28.90486
1030.697, 30.45969
1031.179, 31.91453
1031.661, 32.84496
1032.143, 33.04867
1032.625, 32.11456
1033.107, 30.54557
1033.589, 29.76979
1034.071, 29.89152
1034.553, 30.40123
1035.036, 31.71538
1035.518, 32.49016
1036.000, 32.08102
1036.482, 31.47139
1036.964, 31.39055
1037.446, 31.72172
1037.928, 32.19795
1038.410, 33.09974
1038.893, 33.13502
1039.375, 31.43106
1039.857, 30.24798
1040.339, 30.12513
1040.821, 30.69634
1041.303, 32.43526
1041.785, 34.55509
1042.267, 34.55445
1042.750, 31.43630
1043.232, 29.53953
1043.714, 29.89480
1044.196, 30.14218
1044.678, 29.38547
1045.160, 28.68471
1045.642, 29.10646
1046.124, 30.12391
1046.606, 30.37618
1047.089, 29.54935
1047.571, 28.96094
1048.053, 28.78998
1048.535, 28.81509
1049.017, 29.19744
1049.499, 29.54954
1049.981, 29.59484
1050.463, 29.38385
1050.945, 28.97182
1051.428, 28.27803
1051.910, 27.96218
1052.392, 28.57978
1052.874, 29.01656
1053.356, 28.83893
1053.838, 28.42393
1054.320, 28.16968
1054.802, 27.87115
1055.285, 26.83558
1055.767, 24.83811
1056.249, 23.80849
1056.731, 25.25336
1057.213, 26.42222
1057.695, 26.03646
1058.177, 25.25689
1058.659, 24.80059
1059.141, 24.69692
1059.624, 24.88470
1060.106, 25.35276
1060.588, 25.94527
1061.070, 26.95991
1061.552, 27.62705
1062.034, 27.43381
1062.516, 26.97613
1062.998, 26.69889
1063.480, 26.50056
1063.963, 25.99727
1064.445, 25.17961
1064.927, 24.89302
1065.409, 26.20004
1065.891, 27.07572
1066.373, 26.19731
1066.855, 25.06183
1067.337, 24.69116
1067.820, 24.91937
1068.302, 25.44463
1068.784, 26.17407
1069.266, 26.91797
1069.748, 27.74180
1070.230, 28.32196
1070.712, 28.14667
1071.194, 28.05056
1071.677, 29.23192
1072.159, 30.57800
1072.641, 29.99082
1073.123, 27.70094
1073.605, 26.57203
1074.087, 28.24929
1074.569, 29.76196
1075.051, 29.49791
1075.533, 28.82280
1076.016, 28.46397
1076.498, 28.44903
1076.980, 28.94139
1077.462, 29.75052
1077.944, 30.20840
1078.426, 30.12682
1078.908, 29.54752
1079.390, 27.60057
1079.872, 26.15585
1080.355, 27.13288
1080.837, 28.81648
1081.319, 29.20934
1081.801, 28.41730
1082.283, 27.47556
1082.765, 26.63002
1083.247, 25.99770
1083.729, 26.04157
1084.212, 25.82462
1084.694, 24.41110
1085.176, 22.77862
1085.658, 21.94620
1086.140, 21.74792
1086.622, 21.56526
1087.104, 21.24811
1087.586, 20.97148
1088.068, 21.13945
1088.551, 20.94388
1089.033, 19.41584
1089.515, 17.86751
1089.997, 17.66422
1090.479, 18.22606
1090.961, 18.34323
1091.443, 17.80551
1091.925, 17.17475
1092.407, 16.62240
1092.890, 16.06801
1093.372, 15.25107
1093.854, 14.65451
1094.336, 14.86378
1094.818, 15.38989
1095.300, 15.33858
1095.782, 14.74398
1096.264, 14.73298
1096.747, 16.17042
1097.229, 17.17761
1097.711, 16.72577
1098.193, 16.12262
1098.675, 16.25589
1099.157, 16.57451
1099.639, 16.17038
1100.121, 15.27727
1100.604, 15.22078
1101.086, 16.72704
1101.568, 17.67022
1102.050, 17.26836
1102.532, 16.47669
1103.014, 15.30892
1103.496, 14.27973
1103.978, 13.95980
1104.460, 14.11701
1104.943, 14.11667
1105.425, 13.87517
1105.907, 13.45850
1106.389, 12.21033
1106.871, 11.70658
1107.353, 13.17706
1107.835, 14.76306
1108.317, 15.01576
1108.800, 14.58243
1109.282, 14.87906
1109.764, 16.06548
1110.246, 16.01113
1110.728, 12.54915
1111.210, 10.80491
1111.692, 13.08656
1112.174, 15.34745
1112.656, 15.44352
1113.139, 14.59938
1113.621, 14.25776
1114.103, 14.39590
1114.585, 14.51662
1115.067, 14.65683
1115.549, 14.70066
1116.031, 14.38573
1116.513, 14.35700
1116.995, 15.08202
1117.478, 15.88934
1117.960, 16.21687
1118.442, 16.15640
1118.924, 16.00020
1119.406, 15.74536
1119.888, 15.38285
1120.370, 14.70223
1120.852, 14.37691
1121.335, 14.74064
1121.817, 15.15873
1122.299, 15.24355
1122.781, 15.09500
1123.263, 14.86562
1123.745, 14.55236
1124.227, 14.31645
1124.709, 14.10029
1125.192, 14.22194
1125.674, 14.89231
1126.156, 15.33748
1126.638, 15.09286
1127.120, 14.74493
1127.602, 15.03599
1128.084, 15.79216
1128.566, 16.11163
1129.048, 15.92199
1129.531, 16.00904
1130.013, 16.47607
1130.495, 16.59732
1130.977, 16.03323
1131.459, 15.91524
1131.941, 17.32361
1132.423, 19.27499
1132.905, 19.39235
1133.387, 17.83981
1133.870, 17.21653
1134.352, 17.50019
1134.834, 18.24123
1135.316, 19.34288
1135.798, 20.48252
1136.280, 21.51932
1136.762, 21.95524
1137.244, 20.96983
1137.727, 19.04783
1138.209, 17.35788
1138.691, 16.04309
1139.173, 16.14188
1139.655, 17.41971
1140.137, 17.78963
1140.619, 16.61293
1141.101, 15.54409
1141.583, 16.05168
1142.066, 15.19364
1142.548, 16.42702
1143.030, 15.16287
1143.512, 15.22759
1143.994, 16.07781
1144.476, 15.88691
1144.958, 14.51583
1145.440, 13.14871
1145.922, 12.35110
1146.405, 12.14873
1146.887, 13.01697
1147.369, 14.06001
1147.851, 14.45385
1148.333, 14.22541
1148.815, 12.92830
1149.297, 11.17598
1149.779, 10.46519
1150.262, 11.15980
1150.744, 12.24742
1151.226, 13.73842
1151.708, 14.48003
1152.190, 13.04807
1152.672, 11.23048
1153.154, 10.48053
1153.636, 10.37365
1154.119, 10.23550
1154.601, 9.970807
1155.083, 9.679702
1155.565, 9.347600
1156.047, 9.138520
1156.529, 9.196843
1157.011, 9.272452
1157.493, 9.103928
1157.975, 9.048036
1158.458, 9.736359
1158.940, 10.64888
1159.422, 10.54944
1159.904, 9.236502
1160.386, 8.448896
1160.868, 8.591796
1161.350, 8.871469
1161.832, 9.230547
1162.314, 9.693033
1162.797, 9.905795
1163.279, 11.36345
1163.761, 10.33331
1164.243, 10.81484
1164.725, 10.85368
1165.207, 9.999995
1165.689, 10.93517
1166.171, 10.09478
1166.654, 9.504252
1167.136, 9.692168
1167.618, 10.09695
1168.100, 10.39755
1168.582, 10.59437
1169.064, 10.72483
1169.546, 10.75163
1170.028, 10.18220
1170.510, 8.990751
1170.993, 8.314431
1171.475, 8.276876
1171.957, 8.340024
1172.439, 8.288286
1172.921, 8.831598
1173.403, 10.79933
1173.885, 13.07273
1174.367, 13.15032
1174.849, 11.72130
1175.332, 11.16872
1175.814, 11.28809
1176.296, 10.86685
1176.778, 9.821481
1177.260, 9.112402
1177.742, 9.198984
1178.224, 9.442702
1178.706, 9.230876
1179.189, 8.831399
1179.671, 8.478288
1180.153, 8.240226
1180.635, 8.186133
1181.117, 8.346885
1181.599, 8.894998
1182.081, 9.754597
1182.563, 10.37440
1183.046, 10.42885
1183.528, 10.42062
1184.010, 10.73499
1184.492, 10.98199
1184.974, 11.01333
1185.456, 10.74479
1185.938, 9.776114
1186.420, 8.535607
1186.902, 8.032989
1187.385, 8.461326
1187.867, 8.962622
1188.349, 9.461190
1188.831, 9.883872
1189.313, 9.943985
1189.795, 10.25415
1190.277, 11.53847
1190.759, 12.85830
1191.241, 13.33014
1191.724, 13.02996
1192.206, 12.10240
1192.688, 9.989660
1193.170, 9.882249
1193.652, 13.00227
1194.134, 14.19062
1194.616, 11.91932
1195.098, 9.211690
1195.581, 7.593164
1196.063, 6.987938
1196.545, 7.477348
1197.027, 8.693289
1197.509, 8.977050
1197.991, 8.389397
1198.473, 7.776944
1198.955, 7.226397
1199.438, 7.055606
1199.920, 7.350637
1200.402, 8.167010
1200.884, 9.610018
1201.366, 10.80112
1201.848, 10.25074
1202.330, 8.859999
1202.812, 8.041023
1203.294, 7.846085
1203.776, 8.876375
1204.259, 10.53581
1204.741, 10.93549
1205.223, 9.737829
1205.705, 8.827493
1206.187, 9.444168
1206.669, 10.19143
1207.151, 10.19787
1207.633, 9.850039
1208.116, 8.957384
1208.598, 8.265038
1209.080, 8.883116
1209.562, 10.35335
1210.044, 11.35502
1210.526, 11.64072
1211.008, 11.68750
1211.490, 11.59934
1211.973, 11.26326
1212.455, 10.49762
1212.937, 9.669282
1213.419, 8.673593
1213.901, 7.962422
1214.383, 8.092725
1214.865, 8.840951
1215.347, 9.536936
1215.829, 10.31079
1216.312, 9.868236
1216.794, 7.674365
1217.276, 7.233925
1217.758, 9.477561
1218.240, 11.34873
1218.722, 11.31661
1219.204, 12.15110
1219.686, 10.81535
1220.168, 11.28917
1220.651, 10.32787
1221.133, 8.516760
1221.615, 8.459382
1222.097, 9.823458
1222.579, 10.97551
1223.061, 11.51327
1223.543, 11.35138
1224.025, 10.45489
1224.508, 9.400057
1224.990, 8.430010
1225.472, 7.869214
1225.954, 8.306294
1226.436, 9.113494
1226.918, 9.811191
1227.400, 10.21783
1227.882, 9.907912
1228.365, 9.084294
1228.847, 8.793049
1229.329, 9.443585
1229.811, 10.12659
1230.293, 10.94998
1230.775, 11.26923
1231.257, 10.54922
1231.739, 9.615109
1232.221, 8.890224
1232.703, 8.322661
1233.186, 7.839757
1233.668, 7.450457
1234.150, 7.163936
1234.632, 6.809205
1235.114, 7.390458
1235.596, 9.248779
1236.078, 10.37163
1236.560, 10.20851
1237.043, 9.880507
1237.525, 10.04547
1238.007, 10.25550
1238.489, 9.822035
1238.971, 10.26771
1239.453, 9.558981
1239.935, 10.64224
1240.417, 11.19556
1240.900, 11.12921
1241.382, 10.17635
1241.864, 8.566457
1242.346, 7.636588
1242.828, 8.055136
1243.310, 8.715544
1243.792, 8.945979
1244.274, 8.809818
1244.756, 7.844064
1245.239, 7.028062
1245.721, 7.494084
1246.203, 8.645677
1246.685, 9.788361
1247.167, 10.66381
1247.649, 10.53851
1248.131, 8.752992
1248.613, 7.759060
1249.095, 8.268333
1249.578, 8.990586
1250.060, 10.05176
1250.542, 10.70628
1251.024, 10.41486
1251.506, 9.807722
1251.988, 9.690912
1252.470, 9.841549
1252.952, 9.089219
1253.435, 7.367551
1253.917, 8.065920
1254.399, 11.09761
1254.881, 12.09332
1255.363, 10.40557
1255.845, 8.960315
1256.327, 9.115067
1256.809, 9.910535
1257.292, 10.73343
1257.774, 11.00362
1258.256, 9.100974
1258.738, 6.793437
1259.220, 6.819353
1259.702, 8.175597
1260.184, 9.350092
1260.666, 9.922753
1261.148, 9.401147
1261.630, 7.640137
1262.113, 6.425627
1262.595, 6.777089
1263.077, 7.211591
1263.559, 7.338606
1264.041, 7.419029
1264.523, 7.424881
1265.005, 7.598074
1265.487, 8.285356
1265.970, 9.205331
1266.452, 9.710280
1266.934, 9.797077
1267.416, 9.736419
1267.898, 9.496576
1268.380, 9.303346
1268.862, 9.163169
1269.344, 9.486890
1269.827, 10.41733
1270.309, 10.99728
1270.791, 10.49222
1271.273, 9.646186
1271.755, 9.466864
1272.237, 9.699416
1272.719, 10.01179
1273.201, 10.31344
1273.683, 10.32492
1274.166, 10.22586
1274.648, 10.60263
1275.130, 11.39910
1275.612, 11.70543
1276.094, 11.05413
1276.576, 10.46514
1277.058, 10.22271
1277.540, 10.28557
1278.022, 11.05752
1278.505, 11.67027
1278.987, 11.32014
1279.469, 10.68830
1279.951, 10.65906
1280.433, 10.99239
1280.915, 10.57006
1281.397, 10.55531
1281.879, 10.70767
1282.362, 10.09465
1282.844, 10.70786
1283.326, 10.49299
1283.808, 9.933716
1284.290, 9.238203
1284.772, 8.722944
1285.254, 8.637060
1285.736, 8.978163
##END=



