##NAMES=Waimirite-(Y)
##RRUFFID=R130714
##IDEAL CHEMISTRY=Y^3+^F_3_
##LOCALITY=Pitinga mine, Amazon, Brazil
##OWNER=RRUFF
##SOURCE=Marcelo B Andrade
##DESCRIPTION=Pale pink massive, portion of the original find
##STATUS=The identification of this mineral has been confirmed by X-ray diffraction and chemical analysis
##URL=rruff.info/R130714
##MEASURED CHEMISTRY=(Y_0.69_Dy_0.08_Er_0.06_Yb_0.05_Ca_0.03_Gd_0.02_Ho_0.02_Nd_0.01_Sm_0.01_Tb_0.01_Tm_0.01_Lu_0.01_)_Ʃ1.00_(F_2.54_[box]_0.25_O_0.21_)_Ʃ3.00_
104.5771, 3061.839
105.0592, 3061.254
105.5413, 3058.972
106.0234, 3057.604
106.5055, 3058.087
106.9877, 3060.173
107.4698, 3063.347
107.9519, 3068.743
108.4340, 3073.463
108.9161, 3075.684
109.3982, 3076.104
109.8804, 3076.490
110.3625, 3078.362
110.8446, 3081.832
111.3267, 3085.964
111.8088, 3092.188
112.2909, 3097.856
112.7731, 3101.430
113.2552, 3102.815
113.7373, 3103.172
114.2194, 3104.127
114.7015, 3106.032
115.1836, 3107.977
115.6658, 3110.218
116.1479, 3112.384
116.6300, 3114.130
117.1121, 3115.338
117.5942, 3116.071
118.0763, 3116.186
118.5584, 3114.563
119.0406, 3114.547
119.5227, 3118.536
120.0048, 3125.099
120.4869, 3130.122
120.9690, 3130.961
121.4511, 3129.702
121.9333, 3130.849
122.4154, 3135.318
122.8975, 3140.548
123.3796, 3144.271
123.8617, 3146.322
124.3438, 3148.190
124.8260, 3150.319
125.3081, 3152.675
125.7902, 3155.376
126.2723, 3158.593
126.7544, 3161.966
127.2365, 3164.589
127.7187, 3165.978
128.2008, 3167.413
128.6829, 3169.279
129.1650, 3171.444
129.6471, 3173.694
130.1292, 3175.866
130.6114, 3178.008
131.0935, 3180.663
131.5756, 3184.960
132.0577, 3188.773
132.5398, 3191.010
133.0219, 3192.239
133.5041, 3193.883
133.9862, 3197.287
134.4683, 3202.882
134.9504, 3207.554
135.4325, 3210.578
135.9146, 3213.453
136.3968, 3217.137
136.8789, 3221.672
137.3610, 3226.304
137.8431, 3230.025
138.3252, 3232.558
138.8073, 3235.695
139.2895, 3239.994
139.7716, 3244.763
140.2537, 3249.237
140.7358, 3253.226
141.2179, 3256.917
141.7000, 3260.336
142.1821, 3263.485
142.6643, 3266.949
143.1464, 3271.403
143.6285, 3276.468
144.1106, 3280.658
144.5927, 3282.910
145.0748, 3285.051
145.5570, 3289.000
146.0391, 3294.750
146.5212, 3300.410
147.0033, 3304.289
147.4854, 3306.234
147.9675, 3307.921
148.4497, 3308.373
148.9318, 3309.515
149.4139, 3313.001
149.8960, 3319.042
150.3781, 3325.853
150.8602, 3330.645
151.3424, 3332.426
151.8245, 3334.336
152.3066, 3336.720
152.7887, 3339.329
153.2708, 3342.154
153.7529, 3345.153
154.2351, 3348.057
154.7172, 3350.153
155.1993, 3350.150
155.6814, 3350.859
156.1635, 3352.187
156.6456, 3354.346
157.1278, 3357.916
157.6099, 3363.284
158.0920, 3369.765
158.5741, 3374.368
159.0562, 3376.230
159.5383, 3377.491
160.0205, 3378.054
160.5026, 3378.316
160.9847, 3379.202
161.4668, 3381.302
161.9489, 3384.420
162.4310, 3387.433
162.9131, 3390.727
163.3953, 3393.572
163.8774, 3395.235
164.3595, 3395.841
164.8416, 3396.555
165.3237, 3398.244
165.8058, 3400.530
166.2880, 3402.503
166.7701, 3404.047
167.2522, 3405.275
167.7343, 3406.129
168.2164, 3406.459
168.6985, 3407.122
169.1807, 3409.823
169.6628, 3412.889
170.1449, 3414.001
170.6270, 3411.545
171.1091, 3407.029
171.5912, 3404.021
172.0734, 3403.383
172.5555, 3402.731
173.0376, 3401.004
173.5197, 3398.695
174.0018, 3396.449
174.4839, 3394.596
174.9661, 3393.145
175.4482, 3392.190
175.9303, 3392.954
176.4124, 3392.818
176.8945, 3390.519
177.3766, 3386.891
177.8588, 3383.489
178.3409, 3381.531
178.8230, 3381.033
179.3051, 3379.492
179.7872, 3375.408
180.2693, 3371.737
180.7515, 3369.800
181.2336, 3369.095
181.7157, 3368.190
182.1978, 3365.759
182.6799, 3361.534
183.1620, 3358.347
183.6441, 3357.319
184.1263, 3356.070
184.6084, 3353.192
185.0905, 3348.822
185.5726, 3344.193
186.0547, 3340.463
186.5368, 3337.794
187.0190, 3334.923
187.5011, 3331.886
187.9832, 3328.678
188.4653, 3325.481
188.9474, 3322.304
189.4296, 3318.575
189.9117, 3313.468
190.3938, 3307.045
190.8759, 3301.041
191.3580, 3295.207
191.8401, 3290.117
192.3223, 3287.261
192.8044, 3287.375
193.2865, 3286.683
193.7686, 3279.676
194.2507, 3268.354
194.7328, 3258.875
195.2150, 3253.972
195.6971, 3251.995
196.1792, 3250.021
196.6613, 3248.316
197.1434, 3245.418
197.6255, 3239.595
198.1077, 3231.722
198.5898, 3224.089
199.0719, 3217.974
199.5540, 3213.055
200.0361, 3207.946
200.5182, 3202.112
201.0004, 3196.837
201.4825, 3193.442
201.9646, 3191.182
202.4467, 3188.235
202.9288, 3182.868
203.4109, 3175.283
203.8930, 3168.997
204.3752, 3164.841
204.8573, 3161.344
205.3394, 3158.851
205.8215, 3156.688
206.3036, 3153.335
206.7857, 3147.042
207.2679, 3137.547
207.7500, 3130.302
208.2321, 3127.780
208.7142, 3125.373
209.1963, 3121.586
209.6784, 3116.644
210.1606, 3111.599
210.6427, 3107.427
211.1248, 3104.310
211.6069, 3100.592
212.0890, 3095.211
212.5711, 3090.260
213.0533, 3086.796
213.5354, 3084.592
214.0175, 3082.658
214.4996, 3080.103
214.9817, 3076.824
215.4638, 3073.582
215.9460, 3070.543
216.4281, 3067.390
216.9102, 3063.880
217.3923, 3060.076
217.8744, 3056.203
218.3565, 3052.465
218.8387, 3048.875
219.3208, 3045.463
219.8029, 3041.781
220.2850, 3038.583
220.7671, 3036.792
221.2492, 3036.218
221.7314, 3035.354
222.2135, 3032.764
222.6956, 3028.300
223.1777, 3024.557
223.6598, 3021.741
224.1419, 3019.470
224.6240, 3017.453
225.1062, 3015.677
225.5883, 3014.427
226.0704, 3014.341
226.5525, 3015.146
227.0346, 3014.767
227.5167, 3012.214
227.9989, 3008.970
228.4810, 3006.219
228.9631, 3004.020
229.4452, 3002.427
229.9273, 3001.940
230.4094, 3002.123
230.8916, 3001.740
231.3737, 2999.618
231.8558, 2997.378
232.3379, 2997.308
232.8200, 2999.761
233.3021, 3001.860
233.7843, 3001.125
234.2664, 2998.943
234.7485, 2997.367
235.2306, 2997.029
235.7127, 2997.410
236.1948, 2998.084
236.6770, 2999.285
237.1591, 2999.801
237.6412, 2997.930
238.1233, 2995.362
238.6054, 2994.130
239.0875, 2995.353
239.5697, 2997.462
240.0518, 2997.587
240.5339, 2994.812
241.0160, 2993.028
241.4981, 2994.826
241.9802, 2997.848
242.4624, 2999.920
242.9445, 3000.230
243.4266, 2999.489
243.9087, 2998.599
244.3908, 2997.028
244.8729, 2996.814
245.3550, 2999.935
245.8372, 3003.793
246.3193, 3006.040
246.8014, 3005.824
247.2835, 3004.406
247.7656, 3004.082
248.2477, 3005.630
248.7299, 3006.362
249.2120, 3005.148
249.6941, 3003.431
250.1762, 3002.264
250.6583, 3001.973
251.1404, 3002.248
251.6226, 3002.605
252.1047, 3003.087
252.5868, 3003.582
253.0689, 3004.703
253.5510, 3005.468
254.0331, 3004.829
254.5153, 3002.664
254.9974, 3000.118
255.4795, 2999.011
255.9616, 3000.214
256.4437, 3001.063
256.9258, 3001.668
257.4080, 3001.886
257.8901, 3001.215
258.3722, 2999.772
258.8543, 2998.559
259.3364, 2999.223
259.8185, 3003.531
260.3007, 3005.092
260.7828, 3002.147
261.2649, 2998.425
261.7470, 2995.882
262.2291, 2994.886
262.7112, 2995.010
263.1934, 2995.919
263.6755, 2998.103
264.1576, 2999.185
264.6397, 2998.242
265.1218, 2997.181
265.6039, 2997.140
266.0861, 2998.078
266.5682, 2999.134
267.0503, 2999.345
267.5324, 2998.353
268.0145, 2998.973
268.4966, 3003.027
268.9788, 3006.704
269.4609, 3008.206
269.9430, 3007.607
270.4251, 3005.705
270.9072, 3002.887
271.3893, 2999.084
271.8715, 2997.169
272.3536, 2997.971
272.8357, 2999.394
273.3178, 3000.782
273.7999, 3002.079
274.2820, 3003.344
274.7642, 3004.604
275.2463, 3005.865
275.7284, 3007.230
276.2105, 3009.247
276.6926, 3010.758
277.1747, 3011.192
277.6568, 3010.819
278.1389, 3010.251
278.6211, 3009.827
279.1032, 3009.458
279.5853, 3008.738
280.0674, 3006.603
280.5495, 3005.416
281.0316, 3006.688
281.5138, 3009.209
281.9959, 3010.835
282.4780, 3010.628
282.9601, 3009.100
283.4422, 3007.447
283.9243, 3005.451
284.4065, 3003.760
284.8886, 3002.414
285.3707, 3001.483
285.8528, 3001.119
286.3349, 3001.399
286.8170, 3002.124
287.2992, 3003.039
287.7813, 3004.216
288.2634, 3005.304
288.7455, 3006.550
289.2276, 3007.547
289.7097, 3007.613
290.1919, 3006.564
290.6740, 3005.192
291.1561, 3004.524
291.6382, 3004.697
292.1203, 3004.452
292.6024, 3002.782
293.0846, 3001.134
293.5667, 3001.000
294.0488, 3002.558
294.5309, 3004.939
295.0130, 3007.656
295.4951, 3010.662
295.9773, 3012.780
296.4594, 3013.812
296.9415, 3014.034
297.4236, 3013.490
297.9057, 3012.226
298.3878, 3010.530
298.8700, 3008.347
299.3521, 3005.881
299.8342, 3004.260
300.3163, 3004.164
300.7984, 3004.270
301.2805, 3003.655
301.7627, 3002.505
302.2448, 3001.775
302.7269, 3002.156
303.2090, 3003.162
303.6911, 3003.329
304.1732, 3002.421
304.6554, 3001.214
305.1375, 2999.891
305.6196, 2998.539
306.1017, 2997.355
306.5838, 2996.408
307.0659, 2995.713
307.5481, 2995.436
308.0302, 2995.800
308.5123, 2995.752
308.9944, 2994.706
309.4765, 2993.083
309.9586, 2991.567
310.4408, 2990.317
310.9229, 2989.257
311.4050, 2988.236
311.8871, 2987.198
312.3692, 2986.629
312.8513, 2986.593
313.3335, 2987.070
313.8156, 2988.352
314.2977, 2990.512
314.7798, 2992.395
315.2619, 2992.736
315.7440, 2991.616
316.2262, 2990.843
316.7083, 2989.896
317.1904, 2989.808
317.6725, 2992.517
318.1546, 2997.738
318.6367, 3001.456
319.1188, 3000.449
319.6010, 2995.693
320.0831, 2992.675
320.5652, 2992.220
321.0473, 2992.601
321.5294, 2993.404
322.0115, 2994.396
322.4937, 2994.664
322.9758, 2993.616
323.4579, 2991.781
323.9400, 2990.450
324.4221, 2989.431
324.9042, 2989.161
325.3864, 2989.768
325.8685, 2991.239
326.3506, 2993.851
326.8327, 2997.933
327.3148, 3002.329
327.7969, 3005.325
328.2791, 3007.013
328.7612, 3007.481
329.2433, 3004.944
329.7254, 3002.021
330.2075, 3002.200
330.6896, 3006.086
331.1718, 3010.908
331.6539, 3013.996
332.1360, 3015.171
332.6181, 3016.465
333.1002, 3017.583
333.5823, 3019.094
334.0645, 3021.398
334.5466, 3024.489
335.0287, 3028.348
335.5108, 3033.243
335.9929, 3038.874
336.4750, 3043.069
336.9572, 3044.600
337.4393, 3046.178
337.9214, 3048.917
338.4035, 3052.567
338.8856, 3056.621
339.3677, 3060.949
339.8499, 3065.261
340.3320, 3068.642
340.8141, 3070.347
341.2962, 3072.574
341.7783, 3076.107
342.2604, 3080.257
342.7426, 3084.228
343.2247, 3087.780
343.7068, 3090.943
344.1889, 3093.737
344.6710, 3096.088
345.1531, 3098.203
345.6353, 3099.355
346.1174, 3100.778
346.5995, 3103.965
347.0816, 3108.725
347.5637, 3113.118
348.0458, 3115.191
348.5280, 3114.786
349.0101, 3115.741
349.4922, 3118.895
349.9743, 3122.327
350.4564, 3125.581
350.9385, 3128.467
351.4207, 3130.608
351.9028, 3131.687
352.3849, 3132.039
352.8670, 3133.116
353.3491, 3134.939
353.8312, 3137.460
354.3134, 3140.764
354.7955, 3144.733
355.2776, 3149.805
355.7597, 3156.039
356.2418, 3161.970
356.7239, 3165.001
357.2061, 3162.916
357.6882, 3162.334
358.1703, 3163.579
358.6524, 3165.902
359.1345, 3169.517
359.6166, 3173.986
360.0987, 3177.716
360.5808, 3178.952
361.0630, 3177.271
361.5451, 3177.096
362.0272, 3180.595
362.5093, 3183.237
362.9914, 3182.797
363.4735, 3180.431
363.9557, 3178.484
364.4378, 3178.405
364.9199, 3179.753
365.4020, 3180.703
365.8841, 3181.787
366.3662, 3181.625
366.8484, 3177.856
367.3305, 3173.957
367.8126, 3174.251
368.2947, 3179.840
368.7768, 3186.856
369.2589, 3188.912
369.7411, 3183.651
370.2232, 3179.787
370.7053, 3178.271
371.1874, 3177.548
371.6695, 3177.038
372.1516, 3176.589
372.6338, 3176.109
373.1159, 3175.403
373.5980, 3174.490
374.0801, 3174.167
374.5622, 3174.012
375.0443, 3175.102
375.5265, 3178.918
376.0086, 3183.872
376.4907, 3187.359
376.9728, 3187.874
377.4549, 3186.848
377.9370, 3187.486
378.4192, 3190.217
378.9013, 3193.428
379.3834, 3197.789
379.8655, 3201.795
380.3476, 3203.844
380.8297, 3203.656
381.3119, 3203.209
381.7940, 3204.612
382.2761, 3207.834
382.7582, 3210.849
383.2403, 3212.854
383.7224, 3215.331
384.2046, 3219.708
384.6867, 3225.447
385.1688, 3230.688
385.6509, 3233.789
386.1330, 3235.761
386.6151, 3239.097
387.0973, 3244.140
387.5794, 3249.213
388.0615, 3253.080
388.5436, 3256.444
389.0257, 3260.301
389.5078, 3264.858
389.9900, 3269.865
390.4721, 3275.496
390.9542, 3281.597
391.4363, 3286.792
391.9184, 3290.289
392.4005, 3293.079
392.8827, 3296.809
393.3648, 3301.633
393.8469, 3305.624
394.3290, 3306.626
394.8111, 3306.798
395.2932, 3309.994
395.7754, 3317.024
396.2575, 3324.737
396.7396, 3330.570
397.2217, 3334.590
397.7038, 3338.412
398.1859, 3341.970
398.6681, 3345.526
399.1501, 3349.243
399.6323, 3353.106
400.1144, 3357.067
400.5965, 3361.109
401.0786, 3365.190
401.5607, 3369.133
402.0428, 3372.909
402.5250, 3376.592
403.0071, 3380.104
403.4892, 3383.549
403.9713, 3387.271
404.4534, 3391.263
404.9355, 3394.732
405.4177, 3396.536
405.8998, 3396.031
406.3819, 3397.128
406.8640, 3401.761
407.3461, 3405.956
407.8282, 3407.226
408.3104, 3406.417
408.7925, 3405.950
409.2746, 3407.367
409.7567, 3410.254
410.2388, 3412.696
410.7209, 3413.702
411.2031, 3415.578
411.6852, 3418.973
412.1673, 3423.047
412.6494, 3427.335
413.1315, 3431.579
413.6136, 3435.230
414.0958, 3437.385
414.5779, 3437.594
415.0600, 3438.151
415.5421, 3438.816
416.0242, 3440.085
416.5063, 3442.790
416.9885, 3446.312
417.4706, 3449.062
417.9527, 3449.687
418.4348, 3449.148
418.9169, 3451.083
419.3990, 3457.001
419.8812, 3462.034
420.3633, 3464.198
420.8454, 3465.097
421.3275, 3465.961
421.8096, 3467.058
422.2917, 3468.425
422.7739, 3470.519
423.2560, 3473.233
423.7381, 3474.568
424.2202, 3473.405
424.7023, 3471.853
425.1844, 3471.454
425.6666, 3472.003
426.1487, 3472.821
426.6308, 3473.928
427.1129, 3474.996
427.5950, 3475.394
428.0771, 3475.080
428.5593, 3474.901
429.0414, 3475.448
429.5235, 3476.375
430.0056, 3477.005
430.4877, 3477.597
430.9698, 3477.351
431.4520, 3475.646
431.9341, 3472.882
432.4162, 3469.572
432.8983, 3465.757
433.3804, 3462.213
433.8625, 3460.078
434.3447, 3459.630
434.8268, 3458.204
435.3089, 3454.993
435.7910, 3451.372
436.2731, 3448.181
436.7552, 3445.370
437.2374, 3442.722
437.7195, 3440.246
438.2016, 3437.575
438.6837, 3433.351
439.1658, 3425.848
439.6479, 3418.964
440.1301, 3413.011
440.6122, 3407.793
441.0943, 3403.894
441.5764, 3401.078
442.0585, 3397.442
442.5406, 3390.656
443.0227, 3380.220
443.5049, 3370.267
443.9870, 3360.313
444.4691, 3351.419
444.9512, 3344.315
445.4333, 3338.495
445.9154, 3333.255
446.3976, 3328.392
446.8797, 3323.370
447.3618, 3316.860
447.8439, 3308.352
448.3260, 3299.848
448.8081, 3291.911
449.2903, 3283.875
449.7724, 3274.916
450.2545, 3265.176
450.7366, 3256.004
451.2187, 3249.271
451.7008, 3244.118
452.1830, 3236.793
452.6651, 3226.435
453.1472, 3215.945
453.6293, 3207.102
454.1114, 3199.184
454.5935, 3191.143
455.0757, 3182.421
455.5578, 3174.250
456.0399, 3168.505
456.5220, 3164.431
457.0041, 3158.327
457.4862, 3148.560
457.9684, 3137.653
458.4505, 3129.054
458.9326, 3122.737
459.4147, 3116.024
459.8968, 3107.920
460.3789, 3099.664
460.8611, 3092.693
461.3432, 3086.781
461.8253, 3080.173
462.3074, 3071.477
462.7895, 3061.547
463.2716, 3053.753
463.7538, 3050.052
464.2359, 3045.778
464.7180, 3040.108
465.2001, 3033.726
465.6822, 3027.217
466.1643, 3020.723
466.6465, 3014.213
467.1286, 3007.445
467.6107, 3000.100
468.0928, 2994.997
468.5749, 2995.426
469.0570, 2994.548
469.5392, 2989.959
470.0213, 2983.034
470.5034, 2975.713
470.9855, 2968.799
471.4676, 2962.461
471.9497, 2957.096
472.4319, 2952.897
472.9140, 2948.908
473.3961, 2945.488
473.8782, 2941.865
474.3603, 2937.725
474.8424, 2933.051
475.3246, 2927.737
475.8067, 2920.763
476.2888, 2913.493
476.7709, 2909.674
477.2530, 2910.108
477.7351, 2908.925
478.2173, 2901.602
478.6994, 2892.005
479.1815, 2886.531
479.6636, 2886.489
480.1457, 2886.681
480.6278, 2884.543
481.1100, 2880.867
481.5920, 2876.688
482.0742, 2872.119
482.5563, 2868.414
483.0384, 2867.305
483.5205, 2868.635
484.0026, 2866.823
484.4847, 2858.724
484.9669, 2851.085
485.4490, 2846.883
485.9311, 2844.919
486.4132, 2843.086
486.8953, 2840.581
487.3774, 2837.788
487.8596, 2835.465
488.3417, 2834.262
488.8238, 2831.628
489.3059, 2826.118
489.7880, 2820.819
490.2701, 2817.748
490.7523, 2816.114
491.2344, 2813.851
491.7165, 2809.637
492.1986, 2804.249
492.6807, 2799.883
493.1628, 2797.061
493.6450, 2793.879
494.1271, 2789.108
494.6092, 2784.485
495.0913, 2781.386
495.5734, 2779.776
496.0555, 2778.333
496.5377, 2776.569
497.0198, 2774.261
497.5019, 2770.444
497.9840, 2764.696
498.4661, 2759.325
498.9482, 2755.846
499.4304, 2753.425
499.9125, 2750.327
500.3946, 2745.964
500.8767, 2742.140
501.3588, 2740.319
501.8409, 2739.476
502.3231, 2737.704
502.8052, 2734.617
503.2873, 2731.095
503.7694, 2728.005
504.2515, 2725.345
504.7336, 2722.212
505.2158, 2718.109
505.6979, 2714.147
506.1800, 2710.770
506.6621, 2707.766
507.1442, 2705.046
507.6263, 2702.527
508.1085, 2699.606
508.5906, 2695.082
509.0727, 2687.930
509.5548, 2682.828
510.0369, 2681.265
510.5190, 2680.263
511.0012, 2679.468
511.4833, 2678.289
511.9654, 2675.679
512.4475, 2670.892
512.9296, 2665.154
513.4117, 2660.702
513.8939, 2657.684
514.3760, 2654.742
514.8581, 2651.739
515.3402, 2648.551
515.8223, 2644.882
516.3044, 2640.865
516.7866, 2637.330
517.2687, 2635.333
517.7508, 2633.594
518.2329, 2630.050
518.7150, 2624.851
519.1971, 2620.427
519.6793, 2618.251
520.1614, 2617.136
520.6435, 2614.213
521.1256, 2608.585
521.6077, 2604.083
522.0898, 2602.548
522.5720, 2601.565
523.0541, 2598.554
523.5362, 2593.802
524.0183, 2589.729
524.5004, 2588.152
524.9825, 2588.628
525.4647, 2588.910
525.9468, 2590.040
526.4289, 2589.356
526.9110, 2585.314
527.3931, 2580.397
527.8752, 2576.385
528.3574, 2573.614
528.8395, 2571.721
529.3216, 2570.809
529.8037, 2570.573
530.2858, 2568.994
530.7679, 2565.601
531.2501, 2561.963
531.7322, 2558.054
532.2143, 2554.589
532.6964, 2552.565
533.1785, 2552.322
533.6606, 2552.173
534.1428, 2550.906
534.6249, 2548.957
535.1070, 2547.375
535.5891, 2546.339
536.0712, 2544.972
536.5533, 2542.505
537.0355, 2539.115
537.5176, 2536.085
537.9997, 2533.122
538.4818, 2530.823
538.9639, 2529.770
539.4460, 2529.273
539.9282, 2528.525
540.4103, 2527.342
540.8924, 2525.914
541.3745, 2524.427
541.8566, 2522.880
542.3387, 2521.355
542.8209, 2519.742
543.3029, 2518.307
543.7850, 2517.701
544.2672, 2517.017
544.7493, 2514.968
545.2314, 2511.285
545.7135, 2507.406
546.1956, 2505.043
546.6777, 2504.055
547.1599, 2502.814
547.6420, 2501.036
548.1241, 2499.434
548.6062, 2498.765
549.0883, 2498.506
549.5704, 2497.785
550.0526, 2496.337
550.5347, 2494.692
551.0168, 2492.939
551.4989, 2491.265
551.9810, 2490.325
552.4631, 2490.281
552.9453, 2489.909
553.4274, 2487.978
553.9095, 2484.463
554.3916, 2481.204
554.8737, 2477.536
555.3558, 2474.849
555.8380, 2474.682
556.3201, 2475.160
556.8022, 2473.705
557.2843, 2469.802
557.7664, 2465.397
558.2485, 2462.899
558.7307, 2462.429
559.2128, 2460.718
559.6949, 2456.847
560.1770, 2453.045
560.6591, 2450.157
561.1412, 2447.710
561.6234, 2445.081
562.1055, 2442.104
562.5876, 2439.173
563.0697, 2436.421
563.5518, 2433.979
564.0339, 2432.464
564.5161, 2432.109
564.9982, 2431.834
565.4803, 2430.909
565.9624, 2429.409
566.4445, 2427.812
566.9266, 2426.052
567.4088, 2424.289
567.8909, 2422.655
568.3730, 2421.011
568.8551, 2418.927
569.3372, 2416.463
569.8193, 2414.456
570.3015, 2413.826
570.7836, 2414.465
571.2657, 2414.354
571.7478, 2413.198
572.2299, 2411.616
572.7120, 2408.669
573.1942, 2405.987
573.6763, 2405.469
574.1584, 2407.187
574.6405, 2409.088
575.1226, 2409.313
575.6047, 2408.219
576.0869, 2407.474
576.5690, 2407.361
577.0511, 2406.339
577.5332, 2402.961
578.0153, 2398.647
578.4974, 2395.620
578.9796, 2394.007
579.4617, 2393.270
579.9438, 2394.181
580.4259, 2395.296
580.9080, 2394.570
581.3901, 2392.170
581.8723, 2390.176
582.3544, 2390.013
582.8365, 2391.022
583.3186, 2390.898
583.8007, 2387.871
584.2828, 2386.470
584.7650, 2388.550
585.2471, 2390.702
585.7292, 2390.070
586.2113, 2387.396
586.6934, 2385.728
587.1755, 2387.320
587.6577, 2390.438
588.1398, 2390.741
588.6219, 2387.685
589.1040, 2385.567
589.5861, 2386.010
590.0682, 2387.059
590.5504, 2386.663
591.0325, 2385.091
591.5146, 2384.140
591.9967, 2385.222
592.4788, 2386.400
592.9609, 2385.595
593.4431, 2383.485
593.9252, 2382.246
594.4073, 2382.713
594.8894, 2383.814
595.3715, 2383.952
595.8536, 2382.640
596.3358, 2382.632
596.8179, 2385.575
597.3000, 2387.807
597.7821, 2387.706
598.2642, 2386.212
598.7463, 2384.497
599.2285, 2382.998
599.7106, 2382.070
600.1927, 2382.559
600.6748, 2384.373
601.1569, 2384.921
601.6390, 2383.464
602.1212, 2382.058
602.6033, 2382.397
603.0854, 2383.368
603.5675, 2383.165
604.0496, 2381.177
604.5317, 2379.199
605.0139, 2378.272
605.4960, 2377.845
605.9781, 2377.134
606.4602, 2376.060
606.9423, 2374.904
607.4244, 2373.850
607.9066, 2372.917
608.3887, 2372.158
608.8708, 2371.569
609.3529, 2371.217
609.8350, 2371.719
610.3171, 2371.974
610.7993, 2371.368
611.2814, 2369.810
611.7635, 2367.176
612.2456, 2362.943
612.7277, 2358.318
613.2098, 2355.994
613.6920, 2356.135
614.1741, 2356.566
614.6562, 2357.205
615.1383, 2357.352
615.6204, 2355.848
616.1025, 2353.021
616.5847, 2350.906
617.0668, 2350.815
617.5489, 2350.665
618.0310, 2348.701
618.5131, 2345.787
618.9952, 2343.824
619.4774, 2343.355
619.9595, 2343.221
620.4416, 2341.930
620.9237, 2339.319
621.4058, 2338.075
621.8879, 2341.056
622.3701, 2341.851
622.8522, 2337.417
623.3343, 2331.191
623.8164, 2326.565
624.2985, 2324.241
624.7806, 2322.974
625.2628, 2322.093
625.7448, 2321.469
626.2269, 2320.704
626.7090, 2319.757
627.1912, 2319.108
627.6733, 2319.160
628.1554, 2319.456
628.6375, 2319.146
629.1196, 2318.269
629.6017, 2316.851
630.0839, 2314.230
630.5660, 2311.645
631.0481, 2309.869
631.5302, 2308.822
632.0123, 2308.309
632.4944, 2308.242
632.9766, 2308.133
633.4587, 2306.945
633.9408, 2304.273
634.4229, 2302.578
634.9050, 2302.385
635.3871, 2302.570
635.8693, 2303.147
636.3514, 2303.586
636.8335, 2302.793
637.3156, 2300.151
637.7977, 2297.960
638.2798, 2298.949
638.7620, 2301.202
639.2441, 2300.669
639.7262, 2296.992
640.2083, 2293.169
640.6904, 2291.069
641.1725, 2290.349
641.6547, 2289.855
642.1368, 2289.563
642.6189, 2289.551
643.1010, 2290.204
643.5831, 2290.780
644.0652, 2290.487
644.5474, 2289.724
645.0295, 2289.781
645.5116, 2291.544
645.9937, 2293.419
646.4758, 2292.348
646.9579, 2288.363
647.4401, 2285.400
647.9222, 2284.257
648.4043, 2283.788
648.8864, 2283.050
649.3685, 2282.321
649.8506, 2282.529
650.3328, 2284.573
650.8149, 2286.308
651.2970, 2287.070
651.7791, 2286.986
652.2612, 2285.839
652.7433, 2283.850
653.2255, 2281.978
653.7076, 2280.904
654.1897, 2280.547
654.6718, 2280.639
655.1539, 2281.223
655.6360, 2282.116
656.1182, 2283.969
656.6003, 2285.499
657.0824, 2285.429
657.5645, 2284.371
658.0466, 2284.361
658.5287, 2286.975
659.0109, 2289.588
659.4930, 2289.199
659.9751, 2286.833
660.4572, 2285.553
660.9393, 2286.049
661.4214, 2286.587
661.9036, 2285.550
662.3857, 2283.141
662.8678, 2281.542
663.3499, 2281.701
663.8320, 2281.473
664.3141, 2280.214
664.7963, 2278.887
665.2784, 2278.088
665.7605, 2277.948
666.2426, 2278.668
666.7247, 2280.922
667.2068, 2283.198
667.6890, 2282.117
668.1711, 2277.809
668.6532, 2274.803
669.1353, 2274.480
669.6174, 2274.796
670.0995, 2273.776
670.5817, 2271.581
671.0638, 2270.102
671.5459, 2269.392
672.0280, 2269.343
672.5101, 2270.962
672.9922, 2272.597
673.4744, 2271.966
673.9565, 2269.204
674.4386, 2266.720
674.9207, 2266.517
675.4028, 2267.649
675.8849, 2266.782
676.3671, 2263.301
676.8492, 2260.559
677.3313, 2259.513
677.8134, 2259.051
678.2955, 2258.222
678.7776, 2257.199
679.2598, 2256.680
679.7419, 2258.215
680.2240, 2258.514
680.7061, 2254.326
681.1882, 2248.161
681.6703, 2243.962
682.1525, 2242.367
682.6346, 2241.762
683.1167, 2240.971
683.5988, 2239.904
684.0809, 2237.992
684.5630, 2234.625
685.0452, 2231.766
685.5273, 2229.975
686.0094, 2228.510
686.4915, 2226.962
686.9736, 2225.380
687.4557, 2224.069
687.9379, 2223.546
688.4200, 2222.578
688.9021, 2219.399
689.3842, 2215.034
689.8663, 2212.091
690.3484, 2210.992
690.8306, 2210.192
691.3127, 2208.573
691.7948, 2206.165
692.2769, 2203.052
692.7590, 2198.482
693.2411, 2194.440
693.7233, 2191.494
694.2054, 2188.695
694.6875, 2185.492
695.1696, 2181.962
695.6517, 2178.392
696.1339, 2174.853
696.6160, 2171.530
697.0981, 2168.765
697.5802, 2166.392
698.0623, 2163.715
698.5444, 2160.622
699.0266, 2157.492
699.5087, 2154.565
699.9908, 2151.800
700.4729, 2149.115
700.9550, 2146.697
701.4371, 2144.036
701.9193, 2140.634
702.4014, 2137.421
702.8835, 2135.580
703.3656, 2134.284
703.8477, 2131.449
704.3298, 2126.045
704.8120, 2120.338
705.2941, 2117.594
705.7762, 2117.150
706.2583, 2115.677
706.7404, 2112.812
707.2225, 2109.372
707.7046, 2105.634
708.1867, 2101.772
708.6688, 2098.229
709.1509, 2095.138
709.6331, 2091.985
710.1152, 2088.563
710.5973, 2085.189
711.0794, 2081.890
711.5615, 2078.807
712.0436, 2076.366
712.5258, 2074.674
713.0079, 2072.865
713.4900, 2069.740
713.9721, 2065.558
714.4542, 2061.616
714.9363, 2057.939
715.4185, 2054.724
715.9006, 2052.182
716.3827, 2050.098
716.8648, 2048.477
717.3469, 2047.751
717.8290, 2045.031
718.3112, 2038.681
718.7933, 2031.786
719.2754, 2025.187
719.7575, 2019.311
720.2396, 2014.718
720.7217, 2011.486
721.2039, 2008.910
721.6860, 2006.554
722.1681, 2004.236
722.6502, 2001.163
723.1323, 1997.233
723.6144, 1993.267
724.0966, 1989.510
724.5787, 1985.883
725.0608, 1982.441
725.5429, 1979.154
726.0250, 1975.521
726.5071, 1970.646
726.9893, 1966.465
727.4714, 1964.335
727.9535, 1962.884
728.4356, 1960.365
728.9177, 1956.777
729.3998, 1953.732
729.8820, 1952.740
730.3641, 1952.443
730.8462, 1949.383
731.3283, 1943.449
731.8104, 1937.795
732.2925, 1932.924
732.7747, 1928.644
733.2568, 1924.929
733.7389, 1921.696
734.2210, 1918.474
734.7031, 1915.360
735.1852, 1912.108
735.6674, 1908.687
736.1495, 1905.062
736.6316, 1901.050
737.1137, 1896.791
737.5958, 1892.626
738.0779, 1888.679
738.5601, 1884.940
739.0422, 1881.759
739.5243, 1878.968
740.0064, 1874.545
740.4885, 1867.998
740.9706, 1861.410
741.4528, 1855.802
741.9349, 1851.025
742.4170, 1846.795
742.8991, 1843.118
743.3812, 1839.920
743.8633, 1837.949
744.3455, 1835.697
744.8276, 1832.711
745.3097, 1828.802
745.7918, 1823.173
746.2739, 1815.874
746.7560, 1809.150
747.2382, 1805.920
747.7203, 1804.866
748.2024, 1801.443
748.6845, 1795.562
749.1666, 1791.429
749.6487, 1791.217
750.1309, 1791.351
750.6130, 1787.165
751.0951, 1778.316
751.5772, 1771.780
752.0593, 1769.183
752.5414, 1766.554
753.0236, 1763.017
753.5057, 1759.029
753.9878, 1754.719
754.4699, 1750.336
754.9520, 1746.453
755.4341, 1743.389
755.9163, 1740.926
756.3984, 1739.315
756.8805, 1738.140
757.3626, 1735.431
757.8447, 1730.799
758.3268, 1725.749
758.8090, 1721.278
759.2911, 1717.271
759.7732, 1713.307
760.2553, 1709.531
760.7374, 1705.580
761.2195, 1701.202
761.7017, 1697.008
762.1838, 1693.332
762.6659, 1690.047
763.1480, 1686.929
763.6301, 1683.939
764.1122, 1681.029
764.5944, 1678.182
765.0765, 1675.384
765.5586, 1672.676
766.0407, 1669.995
766.5228, 1667.158
767.0049, 1664.078
767.4871, 1660.706
767.9692, 1656.869
768.4513, 1652.465
768.9334, 1649.152
769.4155, 1647.723
769.8976, 1646.027
770.3798, 1643.096
770.8619, 1640.099
771.3440, 1638.223
771.8261, 1637.228
772.3082, 1635.679
772.7903, 1632.760
773.2725, 1629.574
773.7546, 1626.818
774.2367, 1624.344
774.7188, 1622.010
775.2009, 1619.749
775.6830, 1617.406
776.1652, 1614.878
776.6473, 1612.176
777.1294, 1609.247
777.6115, 1606.003
778.0936, 1603.149
778.5757, 1600.905
779.0579, 1598.737
779.5400, 1596.383
780.0221, 1593.925
780.5042, 1591.556
780.9863, 1589.315
781.4684, 1586.897
781.9506, 1584.022
782.4327, 1581.152
782.9148, 1578.327
783.3969, 1575.789
783.8790, 1574.291
784.3611, 1573.813
784.8433, 1572.783
785.3254, 1569.261
785.8075, 1564.380
786.2896, 1562.023
786.7717, 1562.249
787.2538, 1561.377
787.7360, 1558.344
788.2181, 1554.408
788.7002, 1550.422
789.1823, 1546.497
789.6644, 1543.708
790.1465, 1542.705
790.6286, 1541.839
791.1107, 1541.839
791.5928, 1541.160
792.0750, 1537.810
792.5571, 1533.196
793.0392, 1530.521
793.5213, 1531.135
794.0034, 1532.128
794.4855, 1531.193
794.9677, 1528.795
795.4498, 1525.329
795.9319, 1521.048
796.4140, 1517.380
796.8961, 1514.907
797.3782, 1513.198
797.8604, 1511.783
798.3425, 1510.681
798.8246, 1508.897
799.3067, 1505.788
799.7888, 1503.120
800.2709, 1501.877
800.7531, 1500.795
801.2352, 1499.047
801.7173, 1496.647
802.1994, 1493.844
802.6815, 1490.026
803.1636, 1486.820
803.6458, 1485.044
804.1279, 1484.404
804.6100, 1485.254
805.0921, 1486.982
805.5742, 1487.815
806.0563, 1486.783
806.5385, 1484.496
807.0206, 1481.575
807.5027, 1478.110
807.9848, 1475.378
808.4669, 1473.446
808.9490, 1472.268
809.4312, 1472.341
809.9133, 1472.459
810.3954, 1470.609
810.8775, 1466.348
811.3596, 1463.007
811.8417, 1461.866
812.3239, 1460.027
812.8060, 1455.570
813.2881, 1450.890
813.7702, 1448.194
814.2523, 1447.547
814.7344, 1448.070
815.2166, 1450.010
815.6987, 1451.488
816.1808, 1450.133
816.6629, 1446.924
817.1450, 1443.858
817.6271, 1441.210
818.1093, 1438.742
818.5914, 1436.284
819.0735, 1434.079
819.5556, 1432.590
820.0377, 1431.830
820.5198, 1431.760
821.0020, 1433.190
821.4841, 1433.726
821.9662, 1431.693
822.4483, 1428.857
822.9304, 1427.225
823.4125, 1426.776
823.8947, 1426.165
824.3768, 1425.585
824.8589, 1424.279
825.3410, 1421.329
825.8231, 1417.878
826.3052, 1415.131
826.7874, 1413.174
827.2695, 1411.528
827.7516, 1409.921
828.2337, 1408.496
828.7158, 1407.635
829.1979, 1407.143
829.6801, 1406.242
830.1622, 1404.869
830.6443, 1403.023
831.1264, 1400.643
831.6085, 1397.960
832.0906, 1395.266
832.5728, 1392.498
833.0549, 1390.224
833.5370, 1388.494
834.0191, 1387.210
834.5012, 1386.705
834.9833, 1386.330
835.4655, 1385.615
835.9476, 1384.550
836.4297, 1383.237
836.9118, 1381.563
837.3939, 1379.897
837.8760, 1378.569
838.3582, 1377.274
838.8403, 1375.534
839.3224, 1373.484
839.8045, 1371.734
840.2866, 1370.579
840.7687, 1369.495
841.2509, 1367.483
841.7330, 1364.845
842.2151, 1363.649
842.6972, 1364.052
843.1793, 1363.789
843.6614, 1361.873
844.1436, 1359.477
844.6257, 1357.927
845.1078, 1357.195
845.5899, 1356.556
846.0720, 1356.013
846.5541, 1355.535
847.0363, 1355.402
847.5184, 1355.045
848.0005, 1354.049
848.4826, 1352.556
848.9647, 1350.908
849.4468, 1349.171
849.9290, 1347.381
850.4111, 1345.804
850.8932, 1343.988
851.3753, 1340.872
851.8574, 1337.242
852.3395, 1335.164
852.8217, 1335.141
853.3038, 1335.411
853.7859, 1334.202
854.2680, 1332.023
854.7501, 1330.655
855.2322, 1330.097
855.7144, 1328.496
856.1965, 1325.176
856.6786, 1322.146
857.1607, 1320.971
857.6428, 1321.186
858.1249, 1321.386
858.6071, 1322.205
859.0892, 1321.580
859.5713, 1318.177
860.0534, 1314.912
860.5355, 1312.409
861.0176, 1310.807
861.4998, 1310.770
861.9819, 1312.194
862.4640, 1312.555
862.9461, 1309.996
863.4282, 1306.947
863.9103, 1304.772
864.3925, 1303.303
864.8746, 1302.542
865.3567, 1302.281
865.8388, 1302.017
866.3209, 1301.510
866.8030, 1300.479
867.2852, 1298.010
867.7673, 1294.538
868.2494, 1292.461
868.7315, 1291.956
869.2136, 1291.915
869.6957, 1292.050
870.1779, 1291.829
870.6600, 1290.367
871.1421, 1287.641
871.6242, 1286.088
872.1063, 1286.705
872.5884, 1286.734
873.0705, 1285.317
873.5526, 1283.559
874.0347, 1282.158
874.5168, 1280.916
874.9990, 1279.189
875.4811, 1276.574
875.9632, 1274.433
876.4453, 1273.936
876.9274, 1273.425
877.4095, 1271.104
877.8917, 1268.118
878.3738, 1266.753
878.8559, 1267.345
879.3380, 1267.905
879.8201, 1266.734
880.3022, 1264.821
880.7844, 1263.877
881.2665, 1263.602
881.7486, 1262.844
882.2307, 1261.442
882.7128, 1260.000
883.1949, 1258.881
883.6771, 1258.049
884.1592, 1257.514
884.6413, 1257.359
885.1234, 1256.881
885.6055, 1256.209
886.0876, 1254.794
886.5698, 1251.753
887.0519, 1248.584
887.5340, 1247.247
888.0161, 1247.581
888.4982, 1247.031
888.9803, 1244.498
889.4625, 1242.532
889.9446, 1241.722
890.4267, 1241.469
890.9088, 1241.742
891.3909, 1242.163
891.8730, 1242.108
892.3552, 1241.408
892.8373, 1240.393
893.3194, 1239.418
893.8015, 1238.127
894.2836, 1235.880
894.7657, 1233.101
895.2479, 1230.625
895.7300, 1228.661
896.2121, 1227.063
896.6942, 1225.754
897.1763, 1224.652
897.6584, 1223.433
898.1406, 1222.182
898.6227, 1222.006
899.1048, 1223.119
899.5869, 1223.854
900.0690, 1223.412
900.5511, 1222.194
901.0333, 1220.717
901.5154, 1218.957
901.9975, 1217.423
902.4796, 1216.184
902.9617, 1215.037
903.4438, 1213.860
903.9260, 1212.859
904.4081, 1212.367
904.8902, 1212.140
905.3723, 1211.453
905.8544, 1209.833
906.3365, 1208.912
906.8187, 1210.214
907.3008, 1211.132
907.7829, 1209.774
908.2650, 1207.225
908.7471, 1204.784
909.2292, 1202.816
909.7114, 1201.486
910.1935, 1201.111
910.6756, 1201.074
911.1577, 1201.010
911.6398, 1200.720
912.1219, 1199.531
912.6041, 1197.669
913.0862, 1196.509
913.5683, 1196.708
914.0504, 1197.025
914.5325, 1195.546
915.0146, 1192.702
915.4968, 1190.898
915.9789, 1190.160
916.4610, 1190.143
916.9431, 1191.032
917.4252, 1191.311
917.9073, 1189.482
918.3895, 1186.262
918.8716, 1184.244
919.3537, 1183.602
919.8358, 1183.743
920.3179, 1185.867
920.8000, 1187.007
921.2822, 1184.978
921.7643, 1182.009
922.2464, 1180.719
922.7285, 1181.044
923.2106, 1180.596
923.6927, 1178.447
924.1749, 1176.290
924.6570, 1174.298
925.1391, 1172.748
925.6212, 1172.125
926.1033, 1172.055
926.5854, 1171.740
927.0676, 1170.939
927.5497, 1170.286
928.0318, 1170.839
928.5139, 1171.189
928.9960, 1169.350
929.4781, 1166.429
929.9603, 1164.761
930.4424, 1164.518
930.9245, 1163.974
931.4066, 1161.926
931.8887, 1159.620
932.3708, 1159.305
932.8530, 1160.447
933.3351, 1160.815
933.8172, 1160.319
934.2993, 1159.677
934.7814, 1159.133
935.2635, 1158.695
935.7457, 1158.350
936.2278, 1158.128
936.7099, 1158.282
937.1920, 1158.906
937.6741, 1159.532
938.1563, 1160.345
938.6384, 1160.621
939.1205, 1159.942
939.6026, 1158.486
940.0847, 1156.451
940.5668, 1153.683
941.0490, 1151.282
941.5311, 1149.147
942.0132, 1147.505
942.4953, 1146.595
942.9774, 1146.028
943.4595, 1145.675
943.9417, 1145.422
944.4238, 1145.115
944.9059, 1144.853
945.3880, 1144.033
945.8701, 1141.912
946.3522, 1139.720
946.8344, 1138.259
947.3165, 1137.255
947.7986, 1136.079
948.2807, 1134.840
948.7628, 1134.643
949.2449, 1136.735
949.7271, 1138.359
950.2092, 1135.996
950.6913, 1131.974
951.1734, 1129.580
951.6555, 1128.905
952.1376, 1129.399
952.6198, 1130.766
953.1019, 1132.181
953.5840, 1132.986
954.0661, 1133.114
954.5482, 1132.065
955.0303, 1130.072
955.5124, 1128.661
955.9945, 1128.041
956.4766, 1127.915
956.9587, 1128.181
957.4409, 1128.516
957.9230, 1128.423
958.4051, 1127.902
958.8872, 1127.142
959.3693, 1126.227
959.8514, 1124.507
960.3336, 1121.228
960.8157, 1118.567
961.2978, 1118.455
961.7799, 1120.016
962.2620, 1120.863
962.7441, 1121.096
963.2263, 1120.293
963.7084, 1117.446
964.1905, 1114.938
964.6726, 1113.380
965.1547, 1112.434
965.6368, 1111.886
966.1190, 1111.703
966.6011, 1111.805
967.0832, 1112.529
967.5653, 1112.826
968.0474, 1112.318
968.5295, 1111.488
969.0117, 1110.485
969.4938, 1109.397
969.9759, 1108.304
970.4580, 1107.220
970.9401, 1106.116
971.4222, 1104.713
971.9044, 1103.735
972.3865, 1104.235
972.8686, 1104.926
973.3507, 1104.319
973.8328, 1102.769
974.3149, 1101.235
974.7971, 1100.047
975.2792, 1099.187
975.7613, 1098.909
976.2434, 1098.670
976.7255, 1097.662
977.2076, 1096.165
977.6898, 1094.492
978.1719, 1092.874
978.6540, 1092.187
979.1361, 1092.833
979.6182, 1093.830
980.1003, 1093.994
980.5825, 1093.512
981.0646, 1092.838
981.5467, 1092.041
982.0288, 1091.831
982.5109, 1092.348
982.9930, 1092.611
983.4752, 1091.960
983.9573, 1090.791
984.4394, 1089.811
984.9215, 1089.025
985.4036, 1088.362
985.8857, 1087.822
986.3679, 1087.429
986.8500, 1087.210
987.3321, 1087.061
987.8142, 1086.890
988.2963, 1086.731
988.7784, 1086.810
989.2606, 1087.557
989.7427, 1086.909
990.2248, 1084.047
990.7069, 1081.317
991.1890, 1079.040
991.6711, 1077.626
992.1533, 1077.908
992.6354, 1079.510
993.1175, 1080.166
993.5996, 1078.898
994.0817, 1078.452
994.5638, 1079.745
995.0460, 1080.814
995.5281, 1080.847
996.0102, 1080.322
996.4923, 1079.755
996.9744, 1079.145
997.4565, 1078.228
997.9387, 1076.526
998.4208, 1075.240
998.9029, 1075.082
999.3850, 1075.004
999.8671, 1073.937
1000.349, 1072.755
1000.831, 1073.108
1001.313, 1074.965
1001.796, 1076.049
1002.278, 1075.000
1002.760, 1073.597
1003.242, 1072.580
1003.724, 1071.850
1004.206, 1071.388
1004.688, 1071.113
1005.170, 1070.991
1005.653, 1070.963
1006.135, 1070.649
1006.617, 1069.325
1007.099, 1068.256
1007.581, 1069.389
1008.063, 1071.047
1008.545, 1070.323
1009.027, 1067.950
1009.509, 1067.049
1009.992, 1068.562
1010.474, 1069.715
1010.956, 1067.442
1011.438, 1064.105
1011.920, 1063.619
1012.402, 1064.759
1012.884, 1064.435
1013.366, 1062.672
1013.849, 1061.579
1014.331, 1062.070
1014.813, 1063.171
1015.295, 1063.971
1015.777, 1064.424
1016.259, 1064.327
1016.741, 1063.762
1017.223, 1062.987
1017.705, 1062.095
1018.188, 1061.645
1018.670, 1061.955
1019.152, 1062.277
1019.634, 1061.505
1020.116, 1059.873
1020.598, 1058.385
1021.080, 1057.060
1021.562, 1056.308
1022.044, 1056.225
1022.527, 1056.282
1023.009, 1056.157
1023.491, 1056.118
1023.973, 1056.752
1024.455, 1057.964
1024.937, 1058.007
1025.419, 1056.730
1025.901, 1055.627
1026.384, 1055.033
1026.866, 1054.302
1027.348, 1052.921
1027.830, 1051.396
1028.312, 1050.637
1028.794, 1050.645
1029.276, 1051.508
1029.758, 1053.742
1030.240, 1054.954
1030.723, 1054.332
1031.205, 1053.512
1031.687, 1053.692
1032.169, 1054.213
1032.651, 1053.620
1033.133, 1051.670
1033.615, 1050.597
1034.097, 1050.583
1034.579, 1051.056
1035.062, 1052.157
1035.544, 1053.348
1036.026, 1054.413
1036.508, 1055.225
1036.990, 1055.481
1037.472, 1055.085
1037.954, 1054.619
1038.436, 1053.850
1038.919, 1053.396
1039.401, 1053.947
1039.883, 1054.215
1040.365, 1052.756
1040.847, 1050.634
1041.329, 1050.293
1041.811, 1052.234
1042.293, 1053.329
1042.776, 1052.799
1043.258, 1052.461
1043.740, 1053.138
1044.222, 1053.629
1044.704, 1052.647
1045.186, 1051.099
1045.668, 1050.866
1046.150, 1052.270
1046.632, 1053.536
1047.115, 1054.671
1047.597, 1055.374
1048.079, 1055.228
1048.561, 1054.950
1049.043, 1055.077
1049.525, 1055.402
1050.007, 1055.544
1050.489, 1055.465
1050.971, 1055.101
1051.454, 1053.830
1051.936, 1053.105
1052.418, 1053.617
1052.900, 1054.571
1053.382, 1055.596
1053.864, 1056.562
1054.346, 1057.339
1054.828, 1057.912
1055.311, 1058.263
1055.793, 1058.213
1056.275, 1058.184
1056.757, 1058.313
1057.239, 1058.527
1057.721, 1058.837
1058.203, 1059.164
1058.685, 1059.279
1059.167, 1059.168
1059.650, 1059.468
1060.132, 1060.514
1060.614, 1061.836
1061.096, 1063.711
1061.578, 1065.355
1062.060, 1065.880
1062.542, 1065.896
1063.024, 1066.676
1063.506, 1068.303
1063.989, 1069.116
1064.471, 1067.536
1064.953, 1066.418
1065.435, 1067.249
1065.917, 1068.666
1066.399, 1069.814
1066.881, 1070.743
1067.363, 1071.675
1067.846, 1072.623
1068.328, 1073.386
1068.810, 1073.747
1069.292, 1074.167
1069.774, 1074.542
1070.256, 1075.375
1070.738, 1077.724
1071.220, 1080.395
1071.703, 1081.357
1072.185, 1080.721
1072.667, 1080.931
1073.149, 1083.368
1073.631, 1085.636
1074.113, 1086.576
1074.595, 1086.991
1075.077, 1086.900
1075.559, 1086.995
1076.042, 1088.367
1076.524, 1090.828
1077.006, 1093.013
1077.488, 1094.441
1077.970, 1095.617
1078.452, 1096.299
1078.934, 1097.350
1079.416, 1100.002
1079.898, 1102.917
1080.380, 1104.055
1080.863, 1103.931
1081.345, 1105.018
1081.827, 1108.329
1082.309, 1111.572
1082.791, 1113.400
1083.273, 1115.228
1083.755, 1117.828
1084.237, 1120.924
1084.720, 1124.612
1085.202, 1128.421
1085.684, 1131.162
1086.166, 1132.380
1086.648, 1133.875
1087.130, 1136.780
1087.612, 1139.675
1088.094, 1141.653
1088.577, 1143.458
1089.059, 1145.712
1089.541, 1148.391
1090.023, 1151.279
1090.505, 1154.359
1090.987, 1157.635
1091.469, 1161.212
1091.951, 1164.903
1092.433, 1168.910
1092.916, 1172.751
1093.398, 1175.738
1093.880, 1178.401
1094.362, 1181.661
1094.844, 1185.620
1095.326, 1189.692
1095.808, 1193.554
1096.290, 1197.696
1096.772, 1202.695
1097.255, 1207.570
1097.737, 1210.928
1098.219, 1214.296
1098.701, 1220.310
1099.183, 1228.624
1099.665, 1235.565
1100.147, 1239.267
1100.629, 1243.676
1101.112, 1250.008
1101.594, 1256.988
1102.076, 1264.237
1102.558, 1271.659
1103.040, 1279.396
1103.522, 1287.228
1104.004, 1294.148
1104.486, 1299.111
1104.969, 1306.105
1105.451, 1316.891
1105.933, 1328.414
1106.415, 1340.311
1106.897, 1351.918
1107.379, 1362.747
1107.861, 1372.945
1108.343, 1382.555
1108.825, 1391.175
1109.307, 1401.690
1109.790, 1415.463
1110.272, 1429.583
1110.754, 1444.302
1111.236, 1458.263
1111.718, 1469.455
1112.200, 1480.017
1112.682, 1493.548
1113.164, 1510.186
1113.647, 1527.099
1114.129, 1543.622
1114.611, 1561.479
1115.093, 1581.569
1115.575, 1601.873
1116.057, 1621.261
1116.539, 1640.694
1117.021, 1661.152
1117.504, 1682.631
1117.986, 1705.156
1118.468, 1728.887
1118.950, 1752.971
1119.432, 1777.205
1119.914, 1801.993
1120.396, 1826.977
1120.878, 1853.627
1121.360, 1883.984
1121.843, 1916.644
1122.325, 1946.950
1122.807, 1973.994
1123.289, 2004.442
1123.771, 2039.440
1124.253, 2074.166
1124.735, 2107.009
1125.217, 2141.497
1125.699, 2180.429
1126.182, 2221.051
1126.664, 2258.142
1127.146, 2291.966
1127.628, 2327.435
1128.110, 2364.530
1128.592, 2401.638
1129.074, 2438.133
1129.556, 2476.274
1130.039, 2517.124
1130.521, 2558.529
1131.003, 2597.819
1131.485, 2635.890
1131.967, 2675.983
1132.449, 2717.905
1132.931, 2758.111
1133.413, 2796.689
1133.896, 2834.851
1134.378, 2873.005
1134.860, 2908.845
1135.342, 2940.448
1135.824, 2969.392
1136.306, 2998.324
1136.788, 3027.075
1137.270, 3055.648
1137.752, 3083.507
1138.234, 3107.927
1138.717, 3128.664
1139.199, 3147.671
1139.681, 3166.056
1140.163, 3182.539
1140.645, 3196.586
1141.127, 3207.217
1141.609, 3211.366
1142.091, 3211.344
1142.574, 3212.408
1143.056, 3214.260
1143.538, 3214.356
1144.020, 3211.628
1144.502, 3204.876
1144.984, 3192.470
1145.466, 3177.490
1145.948, 3162.985
1146.431, 3147.887
1146.913, 3131.301
1147.395, 3112.871
1147.877, 3091.938
1148.359, 3068.610
1148.841, 3043.944
1149.323, 3018.298
1149.805, 2991.413
1150.287, 2961.583
1150.770, 2932.154
1151.252, 2906.711
1151.734, 2881.989
1152.216, 2854.551
1152.698, 2824.833
1153.180, 2794.033
1153.662, 2762.435
1154.144, 2732.470
1154.626, 2706.765
1155.109, 2680.045
1155.591, 2649.453
1156.073, 2618.595
1156.555, 2589.639
1157.037, 2561.661
1157.519, 2532.679
1158.001, 2502.931
1158.483, 2475.286
1158.966, 2451.209
1159.448, 2426.175
1159.930, 2398.630
1160.412, 2371.713
1160.894, 2346.663
1161.376, 2321.850
1161.858, 2296.234
1162.340, 2270.008
1162.822, 2243.407
1163.305, 2216.168
1163.787, 2190.902
1164.269, 2168.366
1164.751, 2145.884
1165.233, 2123.629
1165.715, 2100.010
1166.197, 2073.653
1166.679, 2046.914
1167.161, 2022.406
1167.644, 1999.922
1168.126, 1978.484
1168.608, 1958.136
1169.090, 1937.480
1169.572, 1916.536
1170.054, 1894.616
1170.536, 1871.586
1171.018, 1849.055
1171.500, 1828.079
1171.983, 1808.586
1172.465, 1791.052
1172.947, 1774.652
1173.429, 1756.073
1173.911, 1736.048
1174.393, 1717.244
1174.875, 1699.838
1175.357, 1682.575
1175.840, 1664.939
1176.322, 1648.053
1176.804, 1632.770
1177.286, 1618.559
1177.768, 1605.327
1178.250, 1592.324
1178.732, 1578.166
1179.214, 1563.477
1179.697, 1549.664
1180.179, 1536.683
1180.661, 1523.555
1181.143, 1509.761
1181.625, 1496.681
1182.107, 1485.109
1182.589, 1474.671
1183.071, 1465.817
1183.553, 1457.436
1184.036, 1448.989
1184.518, 1440.023
1185.000, 1429.206
1185.482, 1416.589
1185.964, 1406.019
1186.446, 1399.612
1186.928, 1393.246
1187.410, 1386.156
1187.892, 1379.087
1188.375, 1372.161
1188.857, 1365.616
1189.339, 1359.922
1189.821, 1354.729
1190.303, 1349.155
1190.785, 1343.152
1191.267, 1337.003
1191.749, 1330.212
1192.232, 1324.885
1192.714, 1321.920
1193.196, 1318.750
1193.678, 1313.945
1194.160, 1308.741
1194.642, 1304.682
1195.124, 1301.476
1195.606, 1297.904
1196.089, 1294.003
1196.571, 1291.421
1197.053, 1290.123
1197.535, 1287.256
1198.017, 1282.249
1198.499, 1278.198
1198.981, 1277.089
1199.463, 1276.939
1199.945, 1274.869
1200.427, 1272.123
1200.910, 1271.634
1201.392, 1272.218
1201.874, 1271.089
1202.356, 1268.545
1202.838, 1266.337
1203.320, 1264.944
1203.802, 1263.766
1204.284, 1262.277
1204.767, 1261.432
1205.249, 1262.875
1205.731, 1264.276
1206.213, 1263.269
1206.695, 1261.403
1207.177, 1260.395
1207.659, 1260.297
1208.141, 1260.776
1208.624, 1261.819
1209.106, 1262.537
1209.588, 1262.132
1210.070, 1262.263
1210.552, 1263.021
1211.034, 1264.706
1211.516, 1268.715
1211.998, 1272.607
1212.480, 1273.283
1212.963, 1271.922
1213.445, 1273.147
1213.927, 1277.584
1214.409, 1281.429
1214.891, 1284.629
1215.373, 1287.327
1215.855, 1289.419
1216.337, 1291.619
1216.819, 1294.271
1217.302, 1297.389
1217.784, 1301.067
1218.266, 1305.122
1218.748, 1309.035
1219.230, 1312.784
1219.712, 1315.821
1220.194, 1318.504
1220.676, 1322.844
1221.159, 1329.083
1221.641, 1335.469
1222.123, 1341.080
1222.605, 1346.739
1223.087, 1353.413
1223.569, 1360.435
1224.051, 1366.844
1224.533, 1373.275
1225.016, 1380.322
1225.498, 1388.052
1225.980, 1396.523
1226.462, 1405.611
1226.944, 1415.076
1227.426, 1425.073
1227.908, 1434.468
1228.390, 1441.924
1228.872, 1449.847
1229.354, 1459.237
1229.837, 1469.495
1230.319, 1480.320
1230.801, 1491.617
1231.283, 1503.330
1231.765, 1515.486
1232.247, 1527.265
1232.729, 1537.996
1233.211, 1550.576
1233.694, 1565.686
1234.176, 1580.886
1234.658, 1595.481
1235.140, 1609.955
1235.622, 1624.663
1236.104, 1639.707
1236.586, 1654.985
1237.068, 1670.867
1237.551, 1689.662
1238.033, 1710.652
1238.515, 1731.250
1238.997, 1751.249
1239.479, 1771.213
1239.961, 1791.491
1240.443, 1813.268
1240.925, 1837.333
1241.407, 1863.068
1241.890, 1890.907
1242.372, 1919.077
1242.854, 1945.284
1243.336, 1971.614
1243.818, 2000.689
1244.300, 2032.134
1244.782, 2064.035
1245.264, 2096.403
1245.746, 2131.476
1246.229, 2172.341
1246.711, 2211.099
1247.193, 2243.039
1247.675, 2277.468
1248.157, 2319.165
1248.639, 2362.289
1249.121, 2401.947
1249.603, 2441.224
1250.085, 2486.570
1250.568, 2537.407
1251.050, 2584.675
1251.532, 2627.868
1252.014, 2672.704
1252.496, 2719.776
1252.978, 2768.229
1253.460, 2817.818
1253.942, 2867.999
1254.425, 2918.214
1254.907, 2967.602
1255.389, 3012.754
1255.871, 3057.007
1256.353, 3107.232
1256.835, 3160.478
1257.317, 3210.032
1257.799, 3257.036
1258.281, 3306.615
1258.764, 3359.086
1259.246, 3410.279
1259.728, 3457.670
1260.210, 3505.910
1260.692, 3557.686
1261.174, 3610.068
1261.656, 3660.624
1262.138, 3712.630
1262.620, 3769.240
1263.103, 3828.800
1263.585, 3888.013
1264.067, 3947.400
1264.549, 4007.860
1265.031, 4068.592
1265.513, 4133.431
1265.995, 4202.125
1266.477, 4275.542
1266.960, 4354.639
1267.442, 4433.023
1267.924, 4506.782
1268.406, 4581.995
1268.888, 4667.819
1269.370, 4758.799
1269.852, 4841.727
1270.334, 4920.616
1270.817, 5006.463
1271.299, 5097.805
1271.781, 5189.892
1272.263, 5281.101
1272.745, 5370.089
1273.227, 5456.236
1273.709, 5540.074
1274.191, 5622.917
1274.673, 5702.771
1275.156, 5779.096
1275.638, 5852.601
1276.120, 5927.995
1276.602, 5998.116
1277.084, 6054.303
1277.566, 6098.549
1278.048, 6138.059
1278.530, 6173.403
1279.012, 6199.297
1279.495, 6214.442
1279.977, 6224.266
1280.459, 6230.571
1280.941, 6226.118
1281.423, 6208.013
1281.905, 6179.965
1282.387, 6144.437
1282.869, 6102.235
1283.352, 6056.242
1283.834, 6003.408
1284.316, 5936.893
1284.798, 5856.929
##END=



