##NAMES=Wairakite
##RRUFFID=R061075
##IDEAL CHEMISTRY=Ca(Si_4_Al_2_)O_12_&#183;2H_2_O
##LOCALITY=Katashina Village, Gunma Prefecture, Japan
##OWNER=RRUFF
##SOURCE=Michael Scott
##DESCRIPTION=White massive, associated with prehnite and dmisteinbergite, R130087
##STATUS=The identification of this mineral has been confirmed only by single crystal X-ray diffraction.
##URL=rruff.info/R061075
118.1981, 208.1461
118.6802, 207.8531
119.1623, 208.5836
119.6444, 210.1320
120.1266, 211.9999
120.6087, 214.1166
121.0908, 216.3020
121.5729, 218.2588
122.0550, 220.0230
122.5371, 221.4976
123.0193, 222.5937
123.5014, 223.3138
123.9835, 223.6591
124.4656, 223.6541
124.9477, 223.2489
125.4298, 222.3294
125.9120, 220.8829
126.3941, 218.8753
126.8762, 216.1969
127.3583, 212.5600
127.8404, 208.6448
128.3225, 204.3904
128.8047, 200.0743
129.2868, 196.1162
129.7689, 192.8385
130.2510, 190.1755
130.7331, 187.1633
131.2152, 183.1471
131.6974, 179.3736
132.1795, 176.1233
132.6616, 173.3775
133.1437, 171.0453
133.6258, 169.0763
134.1079, 167.5447
134.5901, 165.8463
135.0722, 163.6404
135.5543, 161.5625
136.0364, 159.9784
136.5185, 158.9210
137.0006, 158.2187
137.4828, 157.7673
137.9649, 157.6480
138.4470, 157.3234
138.9291, 156.5708
139.4112, 155.6731
139.8933, 154.9573
140.3755, 154.5077
140.8576, 154.2047
141.3397, 154.0361
141.8218, 154.0031
142.3039, 153.6654
142.7860, 152.5343
143.2681, 150.8789
143.7503, 149.6963
144.2324, 149.4025
144.7145, 149.4565
145.1966, 149.3754
145.6787, 149.1500
146.1608, 148.8444
146.6430, 148.5548
147.1251, 148.3031
147.6072, 147.8381
148.0893, 146.8486
148.5714, 145.7824
149.0535, 144.7951
149.5357, 143.9416
150.0178, 143.3088
150.4999, 143.1310
150.9820, 143.8240
151.4641, 144.0404
151.9462, 143.5135
152.4284, 142.6466
152.9105, 141.6317
153.3926, 140.5651
153.8747, 139.5833
154.3568, 139.0380
154.8389, 139.3282
155.3211, 139.6353
155.8032, 139.8721
156.2853, 140.1162
156.7674, 140.4861
157.2495, 141.0481
157.7316, 141.7414
158.2138, 142.3028
158.6959, 142.5403
159.1780, 142.8789
159.6601, 143.6551
160.1422, 144.6296
160.6243, 145.2253
161.1065, 145.0505
161.5886, 144.2555
162.0707, 143.6302
162.5528, 143.3134
163.0349, 143.0208
163.5170, 142.5816
163.9991, 142.0083
164.4813, 141.4302
164.9634, 140.9171
165.4455, 140.4593
165.9276, 140.0347
166.4097, 139.7376
166.8918, 139.3941
167.3740, 138.6638
167.8561, 137.4041
168.3382, 136.4435
168.8203, 136.7456
169.3024, 137.5325
169.7845, 137.8079
170.2667, 136.9418
170.7488, 135.4874
171.2309, 134.7630
171.7130, 135.1389
172.1951, 135.6047
172.6772, 135.9026
173.1594, 136.0017
173.6415, 135.8393
174.1236, 135.3440
174.6057, 134.5628
175.0878, 133.7861
175.5699, 133.1372
176.0521, 132.3380
176.5342, 131.0794
177.0163, 129.6332
177.4984, 128.5072
177.9805, 128.1258
178.4626, 128.4973
178.9448, 128.4661
179.4269, 127.6181
179.9090, 126.7778
180.3911, 126.1013
180.8732, 125.6283
181.3553, 125.4014
181.8375, 125.4912
182.3196, 125.9538
182.8017, 126.1642
183.2838, 125.9219
183.7659, 125.6636
184.2480, 125.6414
184.7301, 125.8327
185.2123, 126.0008
185.6944, 125.8737
186.1765, 125.3825
186.6586, 125.3724
187.1407, 126.3552
187.6228, 127.4373
188.1050, 127.8364
188.5871, 127.4929
189.0692, 127.1311
189.5513, 127.5982
190.0334, 128.8548
190.5155, 129.5847
190.9977, 129.3561
191.4798, 128.6651
191.9619, 128.0355
192.4440, 127.5298
192.9261, 127.0629
193.4082, 126.7618
193.8904, 126.5061
194.3725, 125.7489
194.8546, 123.9899
195.3367, 121.6674
195.8188, 119.6540
196.3009, 118.1131
196.7831, 116.6780
197.2652, 115.0568
197.7473, 113.3077
198.2294, 111.6124
198.7115, 110.0343
199.1936, 108.5705
199.6758, 107.2355
200.1579, 106.0791
200.6400, 104.9880
201.1221, 103.8805
201.6042, 102.7807
202.0863, 101.7620
202.5685, 100.8678
203.0506, 100.0951
203.5327, 99.43289
204.0148, 98.88382
204.4969, 98.46706
204.9790, 98.17065
205.4612, 98.00654
205.9433, 98.02247
206.4254, 98.36404
206.9075, 99.07453
207.3896, 99.25723
207.8717, 98.11932
208.3539, 97.15095
208.8360, 96.81570
209.3181, 97.06679
209.8002, 97.65630
210.2823, 98.41983
210.7644, 99.40202
211.2466, 100.1135
211.7287, 100.5608
212.2108, 100.7672
212.6929, 100.6164
213.1750, 100.1993
213.6571, 99.77907
214.1393, 99.63628
214.6214, 99.87855
215.1035, 99.58230
215.5856, 98.30163
216.0677, 97.00501
216.5498, 96.15430
217.0320, 95.74989
217.5141, 95.52464
217.9962, 95.23077
218.4783, 94.84402
218.9604, 94.72523
219.4425, 95.10537
219.9247, 95.53092
220.4068, 95.70284
220.8889, 95.62554
221.3710, 95.51212
221.8531, 95.52694
222.3352, 95.68764
222.8174, 95.94277
223.2995, 96.26761
223.7816, 96.70121
224.2637, 97.30155
224.7458, 98.06534
225.2279, 98.88802
225.7100, 99.71564
226.1922, 100.5340
226.6743, 101.2860
227.1564, 101.7012
227.6385, 102.2137
228.1206, 103.4060
228.6027, 105.3284
229.0849, 107.0893
229.5670, 107.8267
230.0491, 107.8855
230.5312, 108.2410
231.0133, 109.2119
231.4954, 110.4577
231.9776, 111.7027
232.4597, 112.9842
232.9418, 113.9993
233.4239, 114.3044
233.9060, 114.2566
234.3881, 114.3955
234.8703, 114.9401
235.3524, 115.6576
235.8345, 116.2389
236.3166, 116.6629
236.7987, 117.0498
237.2808, 117.7010
237.7630, 118.2771
238.2451, 118.2848
238.7272, 117.3508
239.2093, 116.1047
239.6914, 115.6700
240.1735, 116.3662
240.6557, 116.8399
241.1378, 116.4519
241.6199, 115.6472
242.1020, 114.8110
242.5841, 114.0844
243.0662, 113.3517
243.5484, 112.4110
244.0305, 111.2251
244.5126, 109.9273
244.9947, 108.5446
245.4768, 107.0872
245.9589, 105.5342
246.4410, 103.8700
246.9232, 102.1788
247.4053, 100.6560
247.8874, 99.56611
248.3695, 97.98339
248.8516, 95.24244
249.3337, 92.31153
249.8159, 89.91462
250.2980, 88.27113
250.7801, 87.14250
251.2622, 86.19067
251.7443, 85.62502
252.2264, 84.75455
252.7086, 83.25821
253.1907, 81.65540
253.6728, 80.27431
254.1549, 79.21171
254.6370, 78.38213
255.1191, 77.68673
255.6013, 77.26788
256.0834, 76.67258
256.5655, 75.62338
257.0476, 74.61974
257.5297, 74.04260
258.0118, 73.93229
258.4940, 73.99465
258.9761, 73.80724
259.4582, 73.14492
259.9403, 72.81920
260.4224, 73.27774
260.9045, 73.65816
261.3867, 73.31988
261.8688, 72.26395
262.3509, 71.02131
262.8330, 70.18666
263.3151, 69.84911
263.7972, 69.63903
264.2794, 69.58297
264.7615, 69.60395
265.2436, 69.71249
265.7257, 69.87617
266.2078, 70.00742
266.6899, 70.02305
267.1721, 69.91573
267.6542, 69.71508
268.1363, 69.28989
268.6184, 68.90889
269.1005, 68.79520
269.5826, 68.87481
270.0648, 68.85069
270.5469, 68.44819
271.0290, 67.64814
271.5111, 67.12001
271.9932, 66.96587
272.4753, 66.91827
272.9575, 66.87661
273.4396, 66.84876
273.9217, 66.88709
274.4038, 67.03363
274.8859, 67.27927
275.3680, 67.51026
275.8501, 67.77914
276.3322, 67.98394
276.8144, 68.06859
277.2965, 68.06354
277.7786, 68.02839
278.2607, 67.98856
278.7428, 67.95303
279.2249, 67.96481
279.7071, 68.15028
280.1892, 68.22848
280.6713, 68.02769
281.1534, 67.68427
281.6355, 67.44697
282.1176, 67.43018
282.5998, 67.55430
283.0819, 67.60864
283.5640, 67.47664
284.0461, 67.49767
284.5282, 67.88625
285.0103, 68.43208
285.4925, 68.84238
285.9746, 69.02488
286.4567, 69.02478
286.9388, 68.86227
287.4209, 68.43748
287.9030, 68.20053
288.3852, 68.45480
288.8673, 68.84185
289.3494, 68.85096
289.8315, 68.35277
290.3136, 67.76793
290.7957, 67.63985
291.2779, 68.03973
291.7600, 68.35410
292.2421, 68.47304
292.7242, 68.50874
293.2063, 68.53418
293.6884, 68.56216
294.1706, 68.65774
294.6527, 68.88564
295.1348, 69.25598
295.6169, 69.68118
296.0990, 70.20411
296.5811, 70.74820
297.0633, 71.29983
297.5454, 71.84267
298.0275, 72.25651
298.5096, 72.38299
298.9917, 72.29940
299.4738, 72.48730
299.9560, 73.21110
300.4381, 73.95774
300.9202, 74.38017
301.4023, 74.54586
301.8844, 74.80101
302.3665, 75.38032
302.8487, 76.13302
303.3308, 76.61150
303.8129, 76.72813
304.2950, 76.75367
304.7771, 76.80728
305.2592, 76.86175
305.7414, 76.85332
306.2235, 76.76651
306.7056, 76.58866
307.1877, 76.26708
307.6698, 75.76865
308.1519, 75.29583
308.6341, 74.94139
309.1162, 74.65002
309.5983, 74.33920
310.0804, 73.99353
310.5625, 73.60744
311.0446, 73.16638
311.5268, 72.67025
312.0089, 72.15762
312.4910, 71.53863
312.9731, 70.95218
313.4552, 70.61416
313.9373, 70.56558
314.4195, 70.53392
314.9016, 70.22935
315.3837, 69.67476
315.8658, 69.26494
316.3479, 69.14116
316.8300, 69.09581
317.3121, 68.93344
317.7943, 68.65907
318.2764, 68.44953
318.7585, 68.45535
319.2406, 68.62239
319.7227, 68.67022
320.2048, 68.68789
320.6870, 68.50700
321.1691, 67.94925
321.6512, 67.09545
322.1333, 66.18671
322.6154, 65.28127
323.0975, 64.46298
323.5797, 63.99492
324.0618, 64.05624
324.5439, 64.01273
325.0260, 63.49925
325.5081, 62.74794
325.9902, 62.23029
326.4724, 62.12886
326.9545, 62.16730
327.4366, 61.85524
327.9187, 61.10005
328.4008, 60.58380
328.8829, 60.65771
329.3651, 60.93242
329.8472, 60.93280
330.3293, 60.57669
330.8114, 60.12383
331.2935, 59.79111
331.7756, 59.59255
332.2578, 59.57113
332.7399, 59.97310
333.2220, 60.36694
333.7041, 60.39073
334.1862, 60.06867
334.6683, 59.68211
335.1505, 59.36531
335.6326, 59.16195
336.1147, 59.29793
336.5968, 60.24481
337.0789, 61.00022
337.5610, 61.03085
338.0432, 60.54636
338.5253, 59.99981
339.0074, 59.55975
339.4895, 59.27987
339.9716, 59.36379
340.4537, 60.05822
340.9359, 60.61026
341.4180, 60.88799
341.9001, 60.94300
342.3822, 60.74943
342.8643, 60.29970
343.3464, 59.84101
343.8286, 59.70967
344.3107, 59.99306
344.7928, 60.44472
345.2749, 61.34263
345.7570, 62.21235
346.2391, 62.65127
346.7213, 62.65112
347.2034, 62.48270
347.6855, 62.34689
348.1676, 62.23931
348.6497, 62.38439
349.1318, 63.06821
349.6140, 63.67369
350.0961, 63.83949
350.5782, 63.71303
351.0603, 63.67606
351.5424, 63.96380
352.0245, 64.48044
352.5067, 64.81495
352.9888, 64.71888
353.4709, 64.74842
353.9530, 65.04635
354.4351, 65.47407
354.9172, 65.93549
355.3994, 66.38616
355.8815, 66.69904
356.3636, 66.61356
356.8457, 65.62370
357.3278, 65.30514
357.8099, 66.10049
358.2920, 67.16801
358.7741, 67.93834
359.2563, 68.37143
359.7384, 68.76709
360.2205, 69.44836
360.7026, 70.47367
361.1847, 71.21087
361.6668, 71.26151
362.1490, 71.45425
362.6311, 72.09998
363.1132, 73.09254
363.5953, 74.21113
364.0774, 75.33711
364.5595, 76.44601
365.0417, 77.42702
365.5238, 78.14310
366.0059, 78.91385
366.4880, 79.79263
366.9701, 80.72897
367.4522, 81.70474
367.9344, 82.70140
368.4165, 83.65699
368.8986, 84.51937
369.3807, 85.39645
369.8628, 85.85593
370.3449, 85.56638
370.8271, 85.15433
371.3092, 84.93795
371.7913, 84.91959
372.2734, 84.91978
372.7555, 84.78876
373.2376, 84.53011
373.7198, 84.24084
374.2019, 84.01137
374.6840, 83.62283
375.1661, 82.96687
375.6482, 82.12566
376.1303, 81.19773
376.6125, 80.18846
377.0946, 79.20631
377.5767, 78.55085
378.0588, 78.39796
378.5409, 78.06954
379.0230, 77.29601
379.5052, 76.32667
379.9873, 75.28792
380.4694, 74.20873
380.9515, 73.18913
381.4336, 72.32140
381.9157, 71.60310
382.3979, 71.05638
382.8800, 70.92271
383.3621, 70.66678
383.8442, 69.84109
384.3263, 68.58394
384.8084, 67.38007
385.2906, 66.56055
385.7727, 65.97192
386.2548, 65.23351
386.7369, 64.29017
387.2190, 63.40457
387.7011, 62.76815
388.1833, 62.27175
388.6654, 61.76688
389.1475, 61.20879
389.6296, 60.66870
390.1117, 60.24429
390.5938, 59.91419
391.0760, 59.50509
391.5581, 58.89743
392.0402, 58.26770
392.5223, 57.90722
393.0044, 57.84299
393.4865, 57.66945
393.9687, 57.08784
394.4508, 56.34444
394.9329, 55.80481
395.4150, 55.51363
395.8971, 55.46672
396.3792, 55.78654
396.8614, 56.41841
397.3435, 56.73943
397.8256, 56.44660
398.3077, 56.07969
398.7898, 56.03806
399.2719, 56.23717
399.7540, 56.34042
400.2361, 56.17019
400.7183, 55.81023
401.2004, 55.49083
401.6825, 55.15022
402.1646, 54.94506
402.6467, 55.06337
403.1288, 55.25805
403.6110, 55.18907
404.0931, 54.79585
404.5752, 54.36573
405.0573, 54.25807
405.5394, 54.57993
406.0215, 54.68959
406.5037, 54.43192
406.9858, 54.13924
407.4679, 53.92652
407.9500, 53.81288
408.4321, 53.81657
408.9142, 53.96118
409.3964, 54.20266
409.8785, 54.33845
410.3606, 54.24537
410.8427, 54.20110
411.3248, 54.21643
411.8069, 54.29540
412.2891, 54.47343
412.7712, 54.74570
413.2533, 55.02151
413.7354, 55.15096
414.2175, 55.05801
414.6996, 55.12792
415.1818, 55.55297
415.6639, 55.96546
416.1460, 56.23777
416.6281, 56.38230
417.1102, 56.45262
417.5923, 56.47573
418.0745, 56.45848
418.5566, 56.41968
419.0387, 56.34669
419.5208, 56.28106
420.0029, 56.37463
420.4850, 56.40883
420.9672, 56.08778
421.4493, 55.32897
421.9314, 54.57544
422.4135, 54.35249
422.8956, 54.63049
423.3777, 54.78038
423.8599, 54.68409
424.3420, 54.46948
424.8241, 54.21091
425.3062, 53.92126
425.7883, 53.64509
426.2704, 53.41762
426.7526, 53.20660
427.2347, 52.94948
427.7168, 52.63966
428.1989, 52.37373
428.6810, 52.22734
429.1631, 52.14864
429.6453, 52.02319
430.1274, 51.85242
430.6095, 51.63019
431.0916, 51.24992
431.5737, 50.83198
432.0558, 50.65852
432.5380, 50.82262
433.0201, 51.07679
433.5022, 51.13501
433.9843, 50.96577
434.4664, 50.81577
434.9485, 50.58937
435.4307, 50.47185
435.9128, 50.70065
436.3949, 51.16940
436.8770, 51.51086
437.3591, 51.49820
437.8412, 51.22551
438.3234, 51.05069
438.8055, 50.96830
439.2876, 50.99579
439.7697, 51.18909
440.2518, 51.46257
440.7339, 51.80563
441.2160, 52.17964
441.6982, 52.42623
442.1803, 52.31738
442.6624, 51.76789
443.1445, 51.48684
443.6266, 51.56808
444.1087, 51.82814
444.5909, 52.40458
445.0730, 53.08632
445.5551, 53.53233
446.0372, 53.54613
446.5193, 53.32190
447.0014, 53.29658
447.4836, 53.54338
447.9657, 53.77108
448.4478, 53.78386
448.9299, 53.86790
449.4120, 54.33500
449.8941, 55.13789
450.3763, 55.80040
450.8584, 55.88295
451.3405, 55.50834
451.8226, 55.14627
452.3047, 54.72926
452.7868, 54.51947
453.2690, 54.76500
453.7511, 55.29570
454.2332, 55.92186
454.7153, 56.65792
455.1974, 57.37120
455.6795, 57.92362
456.1617, 58.35068
456.6438, 58.82626
457.1259, 59.41702
457.6080, 60.03585
458.0901, 60.52992
458.5722, 60.89415
459.0544, 61.40026
459.5365, 62.18484
460.0186, 63.06610
460.5007, 63.85210
460.9828, 64.56719
461.4649, 65.40336
461.9471, 66.50293
462.4292, 67.79631
462.9113, 69.02212
463.3934, 70.07807
463.8755, 71.20508
464.3576, 72.42488
464.8398, 73.74220
465.3219, 75.08598
465.8040, 76.48343
466.2861, 78.13184
466.7682, 80.27302
467.2503, 82.97842
467.7325, 85.65374
468.2146, 88.50222
468.6967, 91.09799
469.1788, 92.98612
469.6609, 94.63308
470.1430, 96.69952
470.6252, 99.48045
471.1073, 102.7403
471.5894, 106.1007
472.0715, 109.5633
472.5536, 113.1026
473.0357, 116.9286
473.5179, 120.6274
474.0000, 123.9883
474.4821, 126.9984
474.9642, 129.7610
475.4463, 132.2258
475.9284, 134.5017
476.4106, 136.9960
476.8927, 139.8178
477.3748, 142.1056
477.8569, 143.3529
478.3390, 143.8342
478.8211, 144.0398
479.3033, 143.9925
479.7854, 143.6519
480.2675, 143.1677
480.7496, 142.3304
481.2317, 140.5989
481.7138, 137.8488
482.1959, 134.8578
482.6780, 132.2915
483.1602, 130.1534
483.6423, 127.8771
484.1244, 125.2448
484.6065, 122.7247
485.0886, 120.4050
485.5707, 118.3369
486.0529, 116.6280
486.5350, 115.3098
487.0171, 114.2644
487.4992, 113.2974
487.9813, 112.3151
488.4634, 111.6733
488.9456, 111.4006
489.4277, 111.3784
489.9098, 111.5111
490.3919, 111.8497
490.8740, 112.4791
491.3561, 113.4182
491.8383, 114.7687
492.3204, 116.8951
492.8025, 120.0526
493.2846, 123.2649
493.7667, 126.2338
494.2488, 129.2404
494.7310, 132.4898
495.2131, 135.9773
495.6952, 139.5674
496.1773, 143.0343
496.6594, 146.5172
497.1415, 150.5020
497.6237, 155.1456
498.1058, 159.6142
498.5879, 163.4910
499.0700, 166.9098
499.5521, 170.1927
500.0342, 173.5101
500.5164, 176.3398
500.9985, 178.4495
501.4806, 179.9104
501.9627, 181.0455
502.4448, 181.9252
502.9269, 181.8503
503.4091, 180.0928
503.8912, 176.5640
504.3733, 172.5407
504.8554, 168.2335
505.3375, 163.2706
505.8196, 157.2108
506.3018, 150.4966
506.7839, 143.7997
507.2660, 137.3624
507.7481, 131.0095
508.2302, 124.4348
508.7123, 117.3696
509.1945, 111.0361
509.6766, 105.7127
510.1587, 100.8641
510.6408, 96.36626
511.1229, 92.17337
511.6050, 88.22488
512.0872, 84.46854
512.5693, 80.99512
513.0514, 78.00675
513.5335, 75.53584
514.0156, 73.21693
514.4977, 70.97124
514.9799, 68.85310
515.4620, 66.82364
515.9441, 64.91751
516.4262, 63.35593
516.9083, 62.49452
517.3904, 61.86984
517.8726, 60.84247
518.3547, 59.43479
518.8368, 58.07244
519.3189, 56.94576
519.8010, 55.99445
520.2831, 55.12077
520.7653, 54.32802
521.2474, 53.57068
521.7295, 52.87848
522.2116, 52.19593
522.6937, 51.45170
523.1758, 50.66505
523.6580, 49.92170
524.1401, 49.28263
524.6222, 48.74839
525.1043, 48.31541
525.5864, 48.11202
526.0685, 47.83201
526.5507, 47.38993
527.0328, 46.90472
527.5149, 46.42452
527.9970, 45.98550
528.4791, 45.67657
528.9612, 45.61786
529.4434, 45.76396
529.9255, 45.87399
530.4076, 46.03710
530.8897, 45.95379
531.3718, 45.16453
531.8539, 44.22038
532.3361, 43.76713
532.8182, 43.97931
533.3003, 44.12512
533.7824, 43.53288
534.2645, 42.57018
534.7466, 42.07309
535.2288, 42.17400
535.7109, 42.38580
536.1930, 42.35777
536.6751, 42.12664
537.1572, 41.94810
537.6393, 41.91381
538.1215, 41.81483
538.6036, 41.51947
539.0857, 41.15945
539.5678, 40.88230
540.0499, 40.72512
540.5320, 40.67293
541.0142, 40.73614
541.4963, 40.92260
541.9784, 40.94757
542.4604, 40.63336
542.9426, 40.36309
543.4247, 40.22144
543.9068, 40.15935
544.3889, 40.13750
544.8710, 40.14070
545.3531, 40.12965
545.8353, 40.05862
546.3174, 39.93095
546.7995, 39.77588
547.2816, 39.55479
547.7637, 39.39198
548.2458, 39.51008
548.7280, 39.70729
549.2101, 39.60289
549.6922, 38.95534
550.1743, 38.38390
550.6564, 38.41151
551.1385, 38.77000
551.6207, 38.86982
552.1028, 38.58364
552.5849, 38.22106
553.0670, 38.06425
553.5491, 38.11455
554.0313, 38.17806
554.5134, 38.28937
554.9955, 38.37119
555.4776, 38.37848
555.9597, 38.35600
556.4418, 38.40457
556.9240, 38.52893
557.4061, 38.55720
557.8882, 38.20352
558.3703, 37.43953
558.8524, 37.15918
559.3345, 37.74384
559.8167, 38.27870
560.2988, 38.43163
560.7809, 38.37990
561.2630, 38.34314
561.7451, 38.38065
562.2272, 38.38094
562.7094, 38.19738
563.1915, 37.89479
563.6736, 37.71463
564.1557, 37.71007
564.6378, 37.68968
565.1199, 37.48621
565.6021, 37.15382
566.0842, 36.93377
566.5663, 36.79119
567.0484, 36.80789
567.5305, 37.17615
568.0126, 37.64140
568.4948, 37.87543
568.9769, 37.82885
569.4590, 37.67458
569.9411, 37.57505
570.4232, 37.52205
570.9053, 37.35899
571.3875, 36.90395
571.8696, 36.58567
572.3517, 36.60957
572.8338, 36.70487
573.3159, 36.57879
573.7980, 36.20837
574.2802, 35.85525
574.7623, 35.74466
575.2444, 35.83996
575.7265, 36.04413
576.2086, 36.42145
576.6907, 36.62236
577.1729, 36.29940
577.6550, 35.80579
578.1371, 35.73018
578.6192, 36.16809
579.1013, 36.63465
579.5834, 37.02380
580.0656, 37.30069
580.5477, 37.35954
581.0298, 37.23542
581.5119, 37.18235
581.9940, 37.39141
582.4761, 37.72995
582.9583, 37.73945
583.4404, 37.07734
583.9225, 36.59888
584.4046, 36.39203
584.8867, 36.29771
585.3688, 36.19826
585.8510, 36.11291
586.3331, 36.13839
586.8152, 36.34170
587.2973, 36.68052
587.7794, 37.10698
588.2615, 37.65809
588.7437, 38.03682
589.2258, 38.09764
589.7079, 38.04075
590.1900, 37.97881
590.6721, 37.93667
591.1542, 38.09419
591.6364, 38.72382
592.1185, 39.39032
592.6006, 39.73804
593.0827, 39.81335
593.5648, 39.70052
594.0469, 39.40760
594.5291, 39.17873
595.0112, 39.41121
595.4933, 40.30914
595.9754, 40.73082
596.4575, 40.25576
596.9396, 39.84660
597.4218, 39.95479
597.9039, 40.29898
598.3860, 40.47191
598.8681, 40.33276
599.3502, 40.00129
599.8323, 39.52696
600.3145, 38.92176
600.7966, 38.62256
601.2787, 38.81252
601.7608, 38.95869
602.2429, 38.63853
602.7250, 38.11554
603.2072, 37.81338
603.6893, 37.86268
604.1714, 37.88713
604.6535, 37.64824
605.1356, 37.28796
605.6177, 36.98775
606.0999, 36.77763
606.5820, 36.65435
607.0641, 36.61235
607.5462, 36.66042
608.0283, 36.84584
608.5104, 37.40353
608.9926, 37.75807
609.4747, 37.82132
609.9568, 37.73692
610.4389, 37.47101
610.9210, 37.13478
611.4031, 37.03047
611.8853, 37.41469
612.3674, 38.03845
612.8495, 38.37072
613.3316, 38.38958
613.8137, 38.38043
614.2958, 38.35219
614.7780, 38.39901
615.2601, 38.62449
615.7422, 39.00953
616.2243, 39.47233
616.7064, 40.21170
617.1885, 40.81065
617.6707, 40.76494
618.1528, 40.42708
618.6349, 40.55824
619.1170, 41.37511
619.5991, 42.44201
620.0812, 43.23449
620.5634, 43.72430
621.0455, 44.41690
621.5276, 45.52998
622.0097, 46.58549
622.4918, 47.18688
622.9739, 47.84753
623.4561, 49.18568
623.9382, 51.27517
624.4203, 53.52188
624.9023, 55.33245
625.3845, 56.93955
625.8666, 59.04957
626.3487, 61.72906
626.8308, 64.30312
627.3129, 66.40218
627.7950, 68.29121
628.2772, 70.55006
628.7593, 73.27455
629.2414, 75.80756
629.7235, 78.39616
630.2056, 80.46851
630.6877, 81.68539
631.1699, 82.06508
631.6520, 81.74580
632.1341, 80.79292
632.6162, 79.14560
633.0983, 76.55521
633.5804, 72.78313
634.0626, 69.22242
634.5447, 65.88685
635.0268, 62.81155
635.5089, 60.03078
635.9910, 57.48726
636.4731, 55.05454
636.9553, 52.66870
637.4374, 50.59686
637.9195, 49.28487
638.4016, 48.35666
638.8837, 46.92078
639.3658, 44.91680
639.8480, 43.30393
640.3301, 42.80138
640.8122, 43.04284
641.2943, 42.79259
641.7764, 41.44558
642.2585, 40.49337
642.7407, 40.28432
643.2228, 40.15979
643.7049, 39.65137
644.1870, 38.87319
644.6691, 38.20111
645.1512, 37.83698
645.6334, 37.65806
646.1155, 37.46450
646.5976, 37.25747
647.0797, 37.19848
647.5618, 37.41331
648.0439, 37.56358
648.5261, 37.32350
649.0082, 36.80877
649.4903, 36.37862
649.9724, 35.99556
650.4545, 35.79952
650.9366, 36.03002
651.4188, 36.37765
651.9009, 36.48207
652.3830, 36.30400
652.8651, 35.96270
653.3472, 35.51965
653.8293, 35.04015
654.3115, 34.77455
654.7936, 34.79015
655.2757, 34.85823
655.7578, 35.07146
656.2399, 35.22220
656.7220, 35.11836
657.2042, 34.84877
657.6863, 34.69945
658.1684, 34.84399
658.6505, 35.04086
659.1326, 35.02454
659.6147, 34.87930
660.0969, 34.86167
660.5790, 35.02999
661.0611, 35.21848
661.5432, 35.27837
662.0253, 35.22438
662.5074, 35.21385
662.9896, 35.45052
663.4717, 35.45655
663.9538, 34.85231
664.4359, 34.26143
664.9180, 34.38765
665.4001, 35.04304
665.8823, 35.30754
666.3644, 34.42833
666.8465, 33.14889
667.3286, 32.96772
667.8107, 33.84504
668.2928, 34.35790
668.7750, 34.10734
669.2571, 33.61448
669.7392, 33.31103
670.2213, 33.19215
670.7034, 33.14514
671.1855, 33.24720
671.6677, 33.32322
672.1498, 33.27828
672.6319, 33.20235
673.1140, 33.23100
673.5961, 33.34998
674.0782, 33.38873
674.5604, 33.19271
675.0425, 32.86131
675.5246, 32.76381
676.0067, 32.99451
676.4888, 33.02605
676.9709, 32.57898
677.4531, 32.10257
677.9352, 31.98754
678.4173, 32.14382
678.8994, 32.25120
679.3815, 32.17738
679.8636, 32.11464
680.3458, 32.21346
680.8279, 32.38208
681.3100, 32.49691
681.7921, 32.52761
682.2742, 32.45874
682.7563, 32.26263
683.2385, 31.97373
683.7206, 31.75000
684.2027, 31.55413
684.6848, 31.50575
685.1669, 31.76417
685.6490, 32.04924
686.1312, 32.20981
686.6133, 32.26236
687.0954, 32.28569
687.5775, 32.31528
688.0596, 32.31311
688.5417, 32.19782
689.0239, 32.03261
689.5060, 31.99264
689.9881, 32.10568
690.4702, 32.20802
690.9523, 32.16742
691.4344, 32.01291
691.9166, 31.89090
692.3987, 31.85085
692.8808, 31.76327
693.3629, 31.43665
693.8450, 31.23251
694.3271, 31.55092
694.8093, 32.16435
695.2914, 32.44895
695.7735, 32.04531
696.2556, 31.49235
696.7377, 31.38569
697.2198, 31.63044
697.7020, 31.95209
698.1841, 32.32407
698.6662, 32.52452
699.1483, 32.33868
699.6304, 31.89687
700.1125, 31.69719
700.5947, 31.84677
701.0768, 32.08706
701.5589, 32.59282
702.0410, 33.02419
702.5231, 33.11271
703.0052, 32.97227
703.4874, 32.88236
703.9695, 32.96939
704.4516, 33.08078
704.9337, 33.00764
705.4158, 32.78981
705.8979, 32.62289
706.3801, 32.53024
706.8622, 32.45331
707.3442, 32.35983
707.8264, 32.25673
708.3085, 32.14957
708.7906, 31.97943
709.2727, 31.95334
709.7548, 32.34108
710.2369, 32.62634
710.7191, 32.39530
711.2012, 31.87228
711.6833, 31.45424
712.1654, 31.28660
712.6475, 31.30156
713.1296, 31.50803
713.6118, 31.84919
714.0939, 31.99616
714.5760, 31.91680
715.0581, 31.77710
715.5402, 31.60535
716.0223, 31.46310
716.5045, 31.48026
716.9866, 31.68938
717.4687, 31.84288
717.9508, 31.93750
718.4329, 31.95329
718.9150, 31.76232
719.3972, 31.53525
719.8793, 31.57222
720.3614, 31.91717
720.8435, 32.24825
721.3256, 32.21826
721.8077, 31.92647
722.2899, 31.78024
722.7720, 31.80102
723.2541, 31.76996
723.7362, 31.57203
724.2183, 31.36309
724.7004, 31.32566
725.1826, 31.45767
725.6647, 31.64575
726.1468, 31.87918
726.6289, 32.17499
727.1110, 32.70705
727.5931, 33.20689
728.0753, 33.32092
728.5574, 33.05188
729.0395, 32.69759
729.5216, 32.47225
730.0037, 32.31052
730.4858, 31.98947
730.9680, 31.49461
731.4501, 31.30578
731.9322, 31.56186
732.4143, 32.04917
732.8964, 32.79295
733.3785, 33.64337
733.8607, 33.87001
734.3428, 32.93657
734.8249, 32.21312
735.3070, 32.17688
735.7891, 32.29234
736.2712, 32.02370
736.7534, 31.51093
737.2355, 31.28856
737.7176, 31.63979
738.1997, 32.19872
738.6818, 32.41896
739.1639, 32.33590
739.6461, 32.29972
740.1282, 32.35209
740.6103, 32.38253
741.0924, 32.31480
741.5745, 32.19694
742.0566, 32.14718
742.5388, 32.20830
743.0209, 32.18603
743.5030, 31.95079
743.9851, 31.74708
744.4672, 31.68785
744.9493, 31.75141
745.4315, 31.89598
745.9136, 32.10741
746.3957, 32.38949
746.8778, 32.80279
747.3599, 33.27880
747.8420, 33.58433
748.3242, 33.71570
748.8063, 33.85413
749.2884, 34.08488
749.7705, 34.27906
750.2526, 34.24360
750.7347, 33.95608
751.2169, 33.88762
751.6990, 34.18369
752.1811, 34.48987
752.6632, 34.86888
753.1453, 35.12495
753.6274, 34.94588
754.1096, 34.44759
754.5917, 34.13255
755.0738, 34.31549
755.5559, 34.74925
756.0380, 35.22296
756.5201, 35.66938
757.0023, 35.73064
757.4844, 35.33136
757.9665, 34.82241
758.4486, 34.42354
758.9307, 34.12795
759.4128, 33.91870
759.8950, 33.93362
760.3771, 33.77896
760.8592, 33.22580
761.3413, 32.75615
761.8234, 32.65824
762.3055, 32.77323
762.7877, 32.85500
763.2698, 32.83817
763.7519, 32.74115
764.2340, 32.59093
764.7161, 32.36212
765.1982, 31.93520
765.6804, 31.36267
766.1625, 30.96409
766.6446, 30.86907
767.1267, 30.88339
767.6088, 30.75348
768.0909, 30.47155
768.5731, 30.22179
769.0552, 30.04869
769.5373, 29.83240
770.0194, 29.25955
770.5015, 28.86004
770.9836, 29.29390
771.4658, 30.36570
771.9479, 31.01107
772.4300, 30.56955
772.9121, 29.98526
773.3942, 29.96125
773.8763, 30.19831
774.3585, 30.20041
774.8406, 29.93810
775.3227, 29.72785
775.8048, 29.78568
776.2869, 29.98987
776.7690, 30.05860
777.2512, 29.98073
777.7333, 29.82923
778.2154, 29.53140
778.6975, 29.30298
779.1796, 29.29537
779.6617, 29.41813
780.1439, 29.53446
780.6260, 29.65179
781.1081, 29.70947
781.5902, 29.60859
782.0723, 29.52744
782.5544, 29.66437
783.0366, 29.87005
783.5187, 29.84611
784.0008, 29.54292
784.4829, 29.24218
784.9650, 29.23672
785.4471, 29.41080
785.9293, 29.39134
786.4114, 29.17460
786.8935, 29.04082
787.3756, 29.08845
787.8577, 29.14700
788.3398, 29.04827
788.8220, 28.81568
789.3040, 28.65083
789.7861, 28.60591
790.2682, 28.54986
790.7504, 28.44717
791.2325, 28.35486
791.7146, 28.35956
792.1967, 28.39364
792.6788, 28.25007
793.1609, 27.81643
793.6431, 27.54092
794.1252, 28.04201
794.6073, 28.87604
795.0894, 29.15722
795.5715, 28.91302
796.0536, 28.68872
796.5358, 28.71374
797.0179, 28.79864
797.5000, 28.65094
797.9821, 28.24881
798.4642, 28.15205
798.9464, 28.53610
799.4285, 28.90680
799.9106, 29.18279
800.3927, 29.36917
800.8748, 29.45197
801.3569, 29.44038
801.8391, 29.36661
802.3212, 29.12601
802.8033, 28.99060
803.2854, 29.24277
803.7675, 29.58991
804.2496, 29.68390
804.7318, 29.52936
805.2139, 29.27411
805.6960, 28.98905
806.1781, 28.77499
806.6602, 28.88944
807.1423, 29.29061
807.6245, 29.32324
808.1066, 28.86719
808.5887, 28.53393
809.0708, 28.63366
809.5529, 28.94349
810.0350, 29.16887
810.5172, 29.32111
810.9993, 29.27903
811.4814, 28.81876
811.9635, 28.45240
812.4456, 28.44667
812.9277, 28.50574
813.4099, 28.27092
813.8920, 27.80759
814.3741, 27.52390
814.8562, 27.65808
815.3383, 27.97383
815.8204, 28.37650
816.3026, 28.73614
816.7847, 28.64580
817.2668, 28.12441
817.7489, 27.74814
818.2310, 27.86063
818.7131, 28.21665
819.1953, 28.32200
819.6774, 28.11087
820.1595, 28.08327
820.6416, 28.38465
821.1237, 28.59440
821.6058, 28.53352
822.0880, 28.31605
822.5701, 27.98976
823.0522, 27.56779
823.5343, 27.36474
824.0164, 27.66626
824.4985, 27.93190
824.9807, 27.80777
825.4628, 27.60237
825.9449, 27.72238
826.4270, 28.12094
826.9091, 28.43657
827.3912, 28.46394
827.8734, 28.34021
828.3555, 28.23363
828.8376, 28.14169
829.3197, 28.06121
829.8018, 27.99257
830.2839, 27.89080
830.7661, 27.71903
831.2482, 27.54646
831.7303, 27.48759
832.2124, 27.55410
832.6945, 27.65409
833.1766, 27.89004
833.6588, 28.00717
834.1409, 27.79416
834.6230, 27.56993
835.1051, 27.63014
835.5872, 27.93140
836.0693, 28.19361
836.5515, 28.36823
837.0336, 28.43087
837.5157, 28.36317
837.9978, 28.18012
838.4799, 27.72877
838.9620, 27.17223
839.4442, 27.04143
839.9263, 27.58912
840.4084, 28.35892
840.8905, 28.79348
841.3726, 28.90901
841.8547, 28.69259
842.3369, 28.11512
842.8190, 27.74222
843.3011, 27.84426
843.7832, 28.03152
844.2653, 27.80045
844.7474, 27.16852
845.2296, 26.92254
845.7117, 27.42123
846.1938, 27.78516
846.6759, 27.89046
847.1580, 27.88817
847.6401, 27.77325
848.1223, 27.64284
848.6044, 27.75133
849.0865, 28.26304
849.5686, 28.56494
850.0507, 28.04274
850.5328, 27.37702
851.0150, 27.37003
851.4971, 27.77395
851.9792, 27.87437
852.4613, 27.48247
852.9434, 27.05857
853.4255, 27.06452
853.9077, 27.37901
854.3898, 27.67349
854.8719, 27.94861
855.3540, 28.03389
855.8361, 27.85715
856.3182, 27.65111
856.8004, 27.58993
857.2825, 27.63099
857.7646, 27.63738
858.2467, 27.59052
858.7288, 27.54866
859.2109, 27.55145
859.6931, 27.51291
860.1752, 27.39886
860.6573, 27.22893
861.1394, 26.94127
861.6215, 26.55577
862.1036, 26.44083
862.5858, 27.03048
863.0679, 27.63022
863.5500, 27.76129
864.0321, 27.60934
864.5142, 27.35328
864.9963, 27.07477
865.4785, 26.92499
865.9606, 27.00275
866.4427, 27.16044
866.9248, 27.11389
867.4069, 26.93232
867.8890, 27.05756
868.3712, 27.52728
868.8533, 27.85911
869.3354, 27.84450
869.8175, 27.63363
870.2996, 27.40134
870.7817, 27.14601
871.2639, 27.00578
871.7459, 27.09349
872.2280, 27.09743
872.7101, 26.85212
873.1923, 26.61613
873.6744, 26.52007
874.1565, 26.55639
874.6386, 26.72422
875.1207, 27.10592
875.6028, 27.36236
876.0850, 27.25412
876.5671, 27.09401
877.0492, 27.13849
877.5313, 27.28565
878.0134, 27.36033
878.4955, 27.31263
878.9777, 27.15388
879.4598, 26.81704
879.9419, 26.46371
880.4240, 26.36506
880.9061, 26.47958
881.3882, 26.71940
881.8704, 27.05353
882.3525, 27.22673
882.8346, 27.05077
883.3167, 26.72875
883.7988, 26.71994
884.2809, 27.09280
884.7631, 27.23794
885.2452, 27.03098
885.7273, 26.90773
886.2094, 27.07364
886.6915, 27.33209
887.1736, 27.48944
887.6558, 27.54577
888.1379, 27.51852
888.6200, 27.39011
889.1021, 27.20362
889.5842, 26.90300
890.0663, 26.60532
890.5485, 26.30168
891.0306, 26.08806
891.5127, 26.18926
891.9948, 26.68152
892.4769, 27.13316
892.9590, 27.29970
893.4412, 27.26312
893.9233, 26.94057
894.4054, 26.52931
894.8875, 26.48740
895.3696, 26.86290
895.8517, 27.28639
896.3339, 27.49888
896.8160, 27.53380
897.2981, 27.39382
897.7802, 27.10609
898.2623, 26.97348
898.7444, 27.04105
899.2266, 27.01229
899.7087, 26.69624
900.1908, 26.36052
900.6729, 26.42870
901.1550, 26.92447
901.6371, 27.29479
902.1193, 27.57510
902.6014, 27.66229
903.0835, 27.34391
903.5656, 27.01494
904.0477, 26.99995
904.5298, 27.17428
905.0120, 27.19633
905.4941, 26.93523
905.9762, 26.79561
906.4583, 26.92846
906.9404, 27.15449
907.4225, 27.48005
907.9047, 27.77226
908.3868, 27.84261
908.8689, 27.68233
909.3510, 27.45683
909.8331, 27.20179
910.3152, 27.02160
910.7974, 27.11277
911.2795, 27.31681
911.7616, 27.27247
912.2437, 27.02054
912.7258, 26.95569
913.2079, 27.26528
913.6901, 27.66499
914.1722, 27.75101
914.6543, 27.58750
915.1364, 27.55759
915.6185, 27.66577
916.1006, 27.79313
916.5828, 27.92999
917.0649, 27.97443
917.5470, 27.79609
918.0291, 27.49923
918.5112, 27.48474
918.9933, 27.93279
919.4755, 28.19934
919.9576, 28.15801
920.4397, 28.11510
920.9218, 28.25151
921.4039, 28.40689
921.8860, 28.36126
922.3682, 28.12601
922.8503, 28.01983
923.3324, 28.22602
923.8145, 28.37736
924.2966, 28.35070
924.7787, 28.24924
925.2609, 28.04225
925.7430, 27.85483
926.2251, 27.98753
926.7072, 28.54005
927.1893, 28.98005
927.6714, 28.90395
928.1536, 28.59185
928.6357, 28.15790
929.1178, 27.76111
929.5999, 27.74724
930.0820, 28.11080
930.5641, 28.51389
931.0463, 28.75733
931.5284, 28.83819
932.0105, 28.62721
932.4926, 28.24234
932.9747, 28.25408
933.4568, 28.66276
933.9390, 28.92068
934.4211, 28.81226
934.9032, 28.61872
935.3853, 28.65919
935.8674, 28.87459
936.3495, 28.90334
936.8317, 28.69815
937.3138, 28.48009
937.7959, 28.14988
938.2780, 28.09998
938.7601, 28.69335
939.2422, 29.58152
939.7244, 30.12783
940.2065, 30.25113
940.6886, 30.50487
941.1707, 31.20672
941.6528, 31.60116
942.1349, 31.21212
942.6171, 30.76880
943.0992, 30.96313
943.5813, 31.51492
944.0634, 31.59760
944.5455, 30.89544
945.0276, 30.32532
945.5098, 30.37458
945.9919, 30.48646
946.4740, 30.26447
946.9561, 29.89491
947.4382, 29.62183
947.9203, 29.49261
948.4025, 29.48118
948.8846, 29.63747
949.3667, 29.74090
949.8488, 29.49997
950.3309, 29.11673
950.8130, 28.89353
951.2952, 28.82079
951.7773, 28.79019
952.2594, 28.75871
952.7415, 28.69500
953.2236, 28.52058
953.7057, 28.35299
954.1878, 28.56584
954.6699, 29.08179
955.1520, 29.38298
955.6342, 29.39772
956.1163, 29.28130
956.5984, 29.09739
957.0805, 28.94114
957.5626, 28.99140
958.0447, 29.24248
958.5269, 29.32749
959.0090, 29.20188
959.4911, 29.10901
959.9732, 29.12506
960.4553, 29.12606
960.9374, 28.99272
961.4196, 28.79251
961.9017, 28.72316
962.3838, 28.84570
962.8659, 28.91247
963.3480, 29.01766
963.8301, 28.93482
964.3123, 28.36667
964.7944, 27.78446
965.2765, 27.65010
965.7586, 27.87148
966.2407, 27.98725
966.7228, 27.91954
967.2050, 27.78754
967.6871, 27.45375
968.1692, 27.23823
968.6513, 27.57019
969.1334, 27.99306
969.6155, 27.69405
970.0977, 26.73190
970.5798, 26.28780
971.0619, 27.30257
971.5440, 28.27954
972.0261, 28.09912
972.5082, 27.54337
972.9904, 27.40465
973.4725, 27.60670
973.9546, 27.80411
974.4367, 27.88935
974.9188, 27.96153
975.4009, 28.11117
975.8831, 28.27550
976.3652, 28.36607
976.8473, 28.40821
977.3294, 28.45420
977.8115, 28.50990
978.2936, 28.56857
978.7758, 28.62712
979.2579, 28.65657
979.7400, 28.59833
980.2221, 28.49027
980.7042, 28.43824
981.1863, 28.44884
981.6685, 28.63822
982.1506, 29.02759
982.6327, 29.25657
983.1148, 29.05768
983.5969, 28.71367
984.0790, 28.81299
984.5612, 29.36006
985.0433, 29.62050
985.5254, 29.53623
986.0075, 29.50036
986.4896, 29.60711
986.9717, 29.80697
987.4539, 30.04622
987.9360, 30.36159
988.4181, 30.91197
988.9002, 31.86947
989.3823, 32.40708
989.8644, 32.19524
990.3466, 32.21095
990.8287, 32.93614
991.3108, 33.81255
991.7929, 34.23666
992.2750, 34.32096
992.7571, 34.74398
993.2393, 35.89848
993.7214, 36.68137
994.2035, 36.60874
994.6856, 36.72902
995.1677, 37.55200
995.6498, 38.69223
996.1320, 39.80339
996.6141, 40.85217
997.0962, 41.78195
997.5783, 42.67129
998.0604, 43.28562
998.5425, 43.40202
999.0247, 43.39277
999.5068, 43.60863
999.9889, 43.78079
1000.471, 43.42332
1000.953, 42.53443
1001.435, 41.71682
1001.917, 41.30327
1002.399, 40.89156
1002.882, 40.24064
1003.364, 39.51373
1003.846, 38.78470
1004.328, 38.12193
1004.810, 37.66113
1005.292, 37.40798
1005.774, 37.09609
1006.256, 36.47485
1006.739, 35.83321
1007.221, 35.44203
1007.703, 35.20240
1008.185, 35.06575
1008.667, 34.94310
1009.149, 34.59206
1009.631, 33.95161
1010.113, 33.34124
1010.595, 33.07530
1011.078, 32.96903
1011.560, 32.74260
1012.042, 32.45916
1012.524, 32.30703
1013.006, 32.26226
1013.488, 32.08031
1013.970, 31.65817
1014.452, 31.24060
1014.935, 31.16017
1015.417, 31.24119
1015.899, 30.97683
1016.381, 30.46198
1016.863, 30.16422
1017.345, 30.13943
1017.827, 30.16519
1018.309, 30.13037
1018.791, 30.04130
1019.274, 29.86258
1019.756, 29.65021
1020.238, 29.76890
1020.720, 30.19627
1021.202, 30.22581
1021.684, 29.70214
1022.166, 29.48236
1022.648, 30.12251
1023.130, 31.02781
1023.613, 31.20581
1024.095, 30.70894
1024.577, 30.41240
1025.059, 30.33001
1025.541, 30.35157
1026.023, 30.47505
1026.505, 30.62458
1026.987, 30.76421
1027.469, 30.87622
1027.952, 30.92346
1028.434, 30.90357
1028.916, 30.85658
1029.398, 30.71743
1029.880, 30.80080
1030.362, 31.24936
1030.844, 31.74518
1031.326, 32.13337
1031.809, 32.37349
1032.291, 32.34380
1032.773, 31.98494
1033.255, 31.86370
1033.737, 32.04416
1034.219, 32.32990
1034.701, 32.73204
1035.183, 33.16414
1035.666, 33.60932
1036.148, 34.01858
1036.630, 34.28306
1037.112, 34.38646
1037.594, 34.43985
1038.076, 34.59119
1038.558, 34.44058
1039.040, 33.37728
1039.522, 32.58601
1040.005, 33.18941
1040.487, 34.48936
1040.969, 35.00149
1041.451, 34.59799
1041.933, 34.09835
1042.415, 33.47456
1042.897, 32.81540
1043.379, 31.95283
1043.861, 31.24354
1044.344, 31.03816
1044.826, 31.11149
1045.308, 31.00614
1045.790, 30.65293
1046.272, 30.42050
1046.754, 30.57683
1047.236, 30.54244
1047.718, 29.97556
1048.201, 29.36925
1048.683, 28.96945
1049.165, 28.80666
1049.647, 29.00345
1050.129, 29.62891
1050.611, 29.92072
1051.093, 29.49306
1051.575, 29.03710
1052.057, 28.61007
1052.540, 28.36709
1053.022, 28.59831
1053.504, 29.01950
1053.986, 29.05552
1054.468, 28.61310
1054.950, 28.36203
1055.432, 28.67234
1055.914, 28.93931
1056.396, 28.95634
1056.879, 28.85562
1057.361, 28.68586
1057.843, 28.49282
1058.325, 28.30765
1058.807, 28.13988
1059.289, 28.10410
1059.771, 28.33279
1060.253, 28.57161
1060.736, 28.99134
1061.218, 29.12589
1061.700, 28.24747
1062.182, 27.00913
1062.664, 26.57120
1063.146, 27.06241
1063.628, 27.51306
1064.110, 27.57138
1064.593, 27.52815
1065.075, 27.45160
1065.557, 27.36980
1066.039, 27.31477
1066.521, 27.26372
1067.003, 27.15516
1067.485, 26.99701
1067.967, 26.92236
1068.449, 27.08655
1068.932, 27.15763
1069.414, 26.76037
1069.896, 26.44428
1070.378, 26.74854
1070.860, 27.32690
1071.342, 27.74093
1071.824, 27.89713
1072.306, 27.74979
1072.788, 27.02825
1073.271, 26.58692
1073.753, 27.20106
1074.235, 27.84436
1074.717, 27.66404
1075.199, 27.12576
1075.681, 26.85256
1076.163, 26.89378
1076.645, 26.98994
1077.127, 27.03557
1077.610, 27.18141
1078.092, 27.74326
1078.574, 28.16044
1079.056, 27.85096
1079.538, 27.32449
1080.020, 27.28222
1080.502, 27.61913
1080.984, 27.66910
1081.467, 27.13738
1081.949, 26.77237
1082.431, 27.13900
1082.913, 27.50668
1083.395, 27.33472
1083.877, 27.00418
1084.359, 26.88031
1084.841, 26.98173
1085.323, 27.30016
1085.806, 27.88214
1086.288, 28.17464
1086.770, 27.62013
1087.252, 27.11979
1087.734, 27.13340
1088.216, 27.42115
1088.698, 27.90244
1089.180, 28.41997
1089.662, 28.72006
1090.145, 28.75254
1090.627, 28.61589
1091.109, 28.21208
1091.591, 27.82628
1092.073, 27.32647
1092.555, 27.13648
1093.037, 27.97577
1093.519, 29.18509
1094.002, 29.55736
1094.484, 28.98587
1094.966, 28.60562
1095.448, 29.05927
1095.930, 29.33185
1096.412, 28.82655
1096.894, 28.32270
1097.376, 28.30920
1097.859, 28.60201
1098.341, 29.02561
1098.823, 29.50170
1099.305, 29.75433
1099.787, 29.57348
1100.269, 29.47402
1100.751, 29.62753
1101.233, 29.84521
1101.715, 30.21905
1102.198, 30.47000
1102.680, 30.05879
1103.162, 29.25715
1103.644, 29.20049
1104.126, 30.45884
1104.608, 31.15595
1105.090, 30.46369
1105.572, 29.80812
1106.054, 29.65083
1106.537, 29.75225
1107.019, 30.00417
1107.501, 30.33361
1107.983, 30.57894
1108.465, 30.70026
1108.947, 30.90410
1109.429, 31.32777
1109.911, 31.66536
1110.394, 31.79021
1110.876, 31.87955
1111.358, 32.12368
1111.840, 32.36245
1112.322, 32.24861
1112.804, 31.74819
1113.286, 31.56350
1113.768, 31.92725
1114.250, 32.22149
1114.733, 32.36753
1115.215, 32.48904
1115.697, 32.61655
1116.179, 32.76830
1116.661, 33.01445
1117.143, 33.31773
1117.625, 33.37391
1118.107, 32.90123
1118.589, 32.88715
1119.072, 33.68315
1119.554, 34.22815
1120.036, 34.03424
1120.518, 33.73379
1121.000, 33.84222
1121.482, 34.28212
1121.964, 34.88198
1122.446, 35.74945
1122.929, 36.02484
1123.411, 35.38356
1123.893, 35.31356
1124.375, 36.29706
1124.857, 37.42387
1125.339, 38.17139
1125.821, 38.59027
1126.303, 38.69590
1126.786, 38.52140
1127.268, 38.70494
1127.750, 39.28212
1128.232, 39.91870
1128.714, 40.59375
1129.196, 41.13383
1129.678, 41.45551
1130.160, 41.62663
1130.642, 41.72643
1131.125, 41.73255
1131.607, 41.48647
1132.089, 41.01688
1132.571, 40.90304
1133.053, 41.16396
1133.535, 41.23815
1134.017, 40.95454
1134.499, 40.69622
1134.981, 40.78910
1135.464, 40.93257
1135.946, 40.54004
1136.428, 39.73578
1136.910, 38.91149
1137.392, 38.11622
1137.874, 37.58847
1138.356, 37.33451
1138.838, 37.05947
1139.321, 36.60986
1139.803, 36.19431
1140.285, 36.15303
1140.767, 36.19490
1141.249, 35.64193
1141.731, 34.81300
1142.213, 34.46302
1142.695, 34.52671
1143.177, 34.51884
1143.660, 34.28001
1144.142, 33.91766
1144.624, 33.47641
1145.106, 33.01536
1145.588, 32.56753
1146.070, 32.15818
1146.552, 31.78955
1147.034, 31.49751
1147.516, 31.37893
1147.999, 31.40649
1148.481, 31.43799
1148.963, 31.43546
1149.445, 31.29219
1149.927, 30.76040
1150.409, 30.26797
1150.891, 30.26359
1151.373, 30.34888
1151.856, 30.07305
1152.338, 29.52269
1152.820, 28.91517
1153.302, 28.29956
1153.784, 27.99847
1154.266, 28.33383
1154.748, 28.69433
1155.230, 29.03325
1155.713, 29.16657
1156.195, 28.77987
1156.677, 28.25236
1157.159, 28.15750
1157.641, 28.43021
1158.123, 28.38745
1158.605, 27.70785
1159.087, 27.26487
1159.569, 27.28560
1160.052, 27.30819
1160.534, 27.11380
1161.016, 26.99122
1161.498, 27.22393
1161.980, 27.64091
1162.462, 27.89159
1162.944, 27.98251
1163.426, 27.81828
1163.908, 27.27010
1164.391, 26.83698
1164.873, 26.57679
1165.355, 26.46923
1165.837, 26.53132
1166.319, 26.68041
1166.801, 26.84036
1167.283, 26.98326
1167.765, 26.96005
1168.247, 26.76072
1168.730, 26.71899
1169.212, 26.85258
1169.694, 27.03997
1170.176, 27.25175
1170.658, 27.30397
1171.140, 27.04449
1171.622, 26.73805
1172.104, 26.91701
1172.587, 27.35629
1173.069, 27.17557
1173.551, 26.58616
1174.033, 26.44181
1174.515, 26.75966
1174.997, 27.00942
1175.479, 26.99268
1175.961, 26.89618
1176.443, 26.85324
1176.926, 26.85566
1177.408, 27.05312
1177.890, 27.17167
1178.372, 26.60341
1178.854, 25.72836
1179.336, 25.30514
1179.818, 25.40913
1180.300, 25.75757
1180.782, 26.28027
1181.265, 26.64598
1181.747, 26.50535
1182.229, 26.31826
1182.711, 26.40420
1183.193, 26.56940
1183.675, 26.64215
1184.157, 26.63952
1184.639, 26.64871
1185.122, 26.67362
1185.604, 26.56249
1186.086, 26.04845
1186.568, 25.77212
1187.050, 26.01795
1187.532, 26.29958
1188.014, 26.53077
1188.496, 26.59879
1188.979, 26.26092
1189.461, 25.72320
1189.943, 25.63046
1190.425, 26.10886
1190.907, 26.25797
1191.389, 25.87914
1191.871, 25.75219
1192.353, 26.09356
1192.835, 26.41901
1193.318, 26.47799
1193.800, 26.44165
1194.282, 26.54397
1194.764, 26.69351
1195.246, 26.42806
1195.728, 25.77716
1196.210, 25.62418
1196.692, 25.98153
1197.174, 26.23178
1197.657, 26.22293
1198.139, 26.15080
1198.621, 26.13248
1199.103, 26.16871
1199.585, 26.32749
1200.067, 26.48975
1200.549, 26.37878
1201.031, 26.10003
1201.514, 25.78535
1201.996, 25.53837
1202.478, 25.60984
1202.960, 26.03342
1203.442, 26.56951
1203.924, 27.20666
1204.406, 27.52499
1204.888, 26.81231
1205.370, 26.07144
1205.853, 26.29670
1206.335, 26.86312
1206.817, 26.97130
1207.299, 26.72692
1207.781, 26.65001
1208.263, 26.85582
1208.745, 26.97538
1209.227, 26.87780
1209.709, 26.74955
1210.192, 26.62218
1210.674, 26.47981
1211.156, 26.22301
1211.638, 26.02974
1212.120, 26.16387
1212.602, 26.49396
1213.084, 26.48408
1213.566, 26.00474
1214.049, 25.85678
1214.531, 26.12401
1215.013, 26.41223
1215.495, 26.67726
1215.977, 26.78879
1216.459, 26.64608
1216.941, 26.48848
1217.423, 26.62824
1217.906, 26.95367
1218.388, 27.14403
1218.870, 27.20527
1219.352, 27.15365
1219.834, 27.00008
1220.316, 26.76188
1220.798, 26.46330
1221.280, 26.17917
1221.762, 25.94245
1222.245, 25.89973
1222.727, 26.40257
1223.209, 26.96988
1223.691, 27.00384
1224.173, 26.80325
1224.655, 26.71412
1225.137, 26.72574
1225.619, 26.73593
1226.101, 26.73316
1226.584, 26.79787
1227.066, 27.03980
1227.548, 27.10559
1228.030, 26.62882
1228.512, 26.27534
1228.994, 26.37318
1229.476, 26.65468
1229.958, 27.11101
1230.441, 27.49796
1230.923, 27.31800
1231.405, 26.59558
1231.887, 26.22584
1232.369, 26.37199
1232.851, 26.33462
1233.333, 25.96030
1233.815, 25.89741
1234.297, 26.43397
1234.780, 26.87829
1235.262, 26.68782
1235.744, 26.29234
1236.226, 26.49073
1236.708, 27.08463
1237.190, 27.19475
1237.672, 26.93900
1238.154, 26.87564
1238.636, 26.99851
1239.119, 26.92645
1239.601, 26.58774
1240.083, 26.34571
1240.565, 26.44570
1241.047, 26.63771
1241.529, 26.65195
1242.011, 26.67272
1242.493, 27.06164
1242.975, 27.42389
1243.458, 27.07850
1243.940, 26.38141
1244.422, 26.23505
1244.904, 26.73604
1245.386, 27.02816
1245.868, 26.73749
1246.350, 26.50681
1246.832, 26.30444
1247.315, 26.37625
1247.797, 27.14941
1248.279, 27.79903
1248.761, 27.67133
1249.243, 27.11421
1249.725, 26.71213
1250.207, 26.47002
1250.689, 26.54727
1251.172, 27.01278
1251.654, 26.90543
1252.136, 26.11787
1252.618, 25.84933
1253.100, 26.45637
1253.582, 27.04335
1254.064, 26.98290
1254.546, 26.70121
1255.028, 26.77505
1255.510, 27.04384
1255.993, 27.32303
1256.475, 27.50714
1256.957, 27.24564
1257.439, 26.75473
1257.921, 26.63492
1258.403, 26.94398
1258.885, 27.18249
1259.367, 27.12918
1259.850, 27.02075
1260.332, 26.85253
1260.814, 26.80610
1261.296, 27.15995
1261.778, 27.47251
1262.260, 27.27111
1262.742, 26.88486
1263.224, 26.90373
1263.707, 27.26341
1264.189, 27.38697
1264.671, 27.17398
1265.153, 27.09210
1265.635, 27.21244
1266.117, 27.08937
1266.599, 26.55457
1267.081, 26.29059
1267.563, 26.70640
1268.046, 27.31033
1268.528, 27.53383
1269.010, 27.49349
1269.492, 27.38168
1269.974, 27.25930
1270.456, 27.31988
1270.938, 27.49599
1271.420, 27.60499
1271.902, 27.61194
1272.385, 27.49501
1272.867, 27.24539
1273.349, 27.16671
1273.831, 27.70292
1274.313, 28.08904
1274.795, 27.74911
1275.277, 27.35268
1275.759, 27.37204
1276.242, 27.55672
1276.724, 27.62333
1277.206, 27.59061
1277.688, 27.56678
1278.170, 27.55527
1278.652, 27.52472
1279.134, 27.47624
1279.616, 27.36957
1280.099, 27.14529
1280.581, 27.24887
1281.063, 27.90529
1281.545, 28.28779
1282.027, 27.68216
1282.509, 26.76865
1282.991, 26.76151
1283.473, 27.28368
1283.955, 27.53515
##END=



