##NAMES=Wairakite
##RRUFFID=R061075
##IDEAL CHEMISTRY=Ca(Si_4_Al_2_)O_12_&#183;2H_2_O
##LOCALITY=Katashina Village, Gunma Prefecture, Japan
##OWNER=RRUFF
##SOURCE=Michael Scott
##DESCRIPTION=White massive, associated with prehnite and dmisteinbergite, R130087
##STATUS=The identification of this mineral has been confirmed only by single crystal X-ray diffraction.
##URL=rruff.info/R061075
170.3572, 84.77370
170.8394, 84.81271
171.3215, 84.92164
171.8036, 85.43983
172.2857, 87.12161
172.7678, 88.97314
173.2499, 89.81550
173.7321, 89.45068
174.2142, 89.07264
174.6963, 89.86263
175.1784, 91.43575
175.6605, 92.88627
176.1426, 93.46082
176.6248, 93.72642
177.1069, 94.44618
177.5890, 95.72079
178.0711, 97.33125
178.5532, 99.16997
179.0353, 101.1968
179.5175, 103.1957
179.9996, 105.0238
180.4817, 106.7535
180.9638, 108.5927
181.4459, 110.6149
181.9280, 112.6278
182.4102, 114.4285
182.8923, 116.0018
183.3744, 117.4661
183.8565, 118.7144
184.3386, 119.8852
184.8207, 121.3701
185.3029, 123.3085
185.7850, 125.4460
186.2671, 127.4734
186.7492, 129.3790
187.2313, 131.1273
187.7134, 132.4735
188.1956, 133.5715
188.6777, 135.1407
189.1598, 137.4521
189.6419, 140.1360
190.1240, 142.4151
190.6061, 144.3053
191.0883, 146.0546
191.5704, 147.7685
192.0525, 149.4857
192.5346, 151.4942
193.0167, 153.9995
193.4988, 156.6070
193.9810, 157.8763
194.4631, 157.6025
194.9452, 157.1071
195.4273, 156.8398
195.9094, 156.7911
196.3915, 156.6148
196.8737, 156.3081
197.3558, 155.8196
197.8379, 154.8075
198.3200, 153.1759
198.8021, 151.5126
199.2842, 150.5882
199.7664, 150.4764
200.2485, 149.6352
200.7306, 147.4936
201.2127, 144.3706
201.6948, 141.9949
202.1769, 140.4598
202.6591, 139.3282
203.1412, 138.2105
203.6233, 137.0750
204.1054, 136.1298
204.5875, 135.4380
205.0696, 134.9784
205.5518, 134.5606
206.0339, 134.1281
206.5160, 133.8483
206.9981, 133.9303
207.4802, 134.4277
207.9623, 135.0031
208.4445, 135.5767
208.9266, 136.1526
209.4087, 136.7837
209.8908, 137.4413
210.3729, 138.2034
210.8550, 139.2437
211.3372, 140.7049
211.8193, 141.9261
212.3014, 142.8388
212.7835, 143.4429
213.2656, 143.2917
213.7477, 142.1965
214.2299, 140.6195
214.7120, 139.1166
215.1941, 137.7449
215.6762, 136.2443
216.1583, 134.5003
216.6404, 132.5134
217.1226, 130.5168
217.6047, 128.3581
218.0868, 126.3630
218.5689, 124.9634
219.0510, 124.4129
219.5331, 123.8429
220.0153, 122.9971
220.4974, 121.8346
220.9795, 120.7965
221.4616, 119.7689
221.9437, 118.9716
222.4258, 118.7543
222.9080, 119.4739
223.3901, 120.0099
223.8722, 120.0120
224.3543, 119.4094
224.8364, 118.9138
225.3185, 118.5643
225.8007, 118.2863
226.2828, 117.9133
226.7649, 117.1542
227.2470, 116.8860
227.7291, 117.5068
228.2112, 119.2043
228.6934, 120.3517
229.1755, 120.6994
229.6576, 120.7177
230.1397, 121.0293
230.6218, 121.8610
231.1039, 122.5804
231.5861, 123.0161
232.0682, 123.1491
232.5503, 123.1843
233.0324, 123.0403
233.5145, 122.8729
233.9966, 122.8784
234.4788, 123.1032
234.9609, 123.4282
235.4430, 123.8697
235.9251, 124.4700
236.4072, 124.8751
236.8893, 124.9402
237.3715, 124.9279
237.8536, 125.1770
238.3357, 125.8328
238.8178, 126.4984
239.2999, 127.1020
239.7820, 127.6486
240.2642, 128.0281
240.7463, 128.1422
241.2284, 128.1668
241.7105, 128.3260
242.1926, 128.7114
242.6747, 129.0653
243.1569, 129.3839
243.6390, 129.7087
244.1211, 129.6283
244.6032, 129.0029
245.0853, 128.0998
245.5674, 127.2075
246.0496, 126.2854
246.5317, 125.4598
247.0138, 124.8406
247.4959, 124.4776
247.9780, 123.6970
248.4601, 122.2468
248.9423, 120.6283
249.4244, 119.4229
249.9065, 118.8862
250.3886, 118.2671
250.8707, 117.4235
251.3528, 116.3634
251.8350, 115.0563
252.3171, 113.3077
252.7992, 111.5393
253.2813, 110.2102
253.7634, 109.5211
254.2455, 108.8557
254.7277, 108.0656
255.2098, 107.1415
255.6919, 106.3920
256.1740, 105.8876
256.6561, 105.4658
257.1382, 104.9878
257.6204, 104.4426
258.1025, 103.8491
258.5846, 103.1735
259.0667, 102.4236
259.5488, 101.8592
260.0309, 101.5763
260.5131, 101.3563
260.9952, 101.0158
261.4773, 100.5225
261.9594, 99.98656
262.4415, 99.37639
262.9236, 98.71517
263.4058, 98.32504
263.8879, 98.32166
264.3700, 98.38858
264.8521, 98.24607
265.3342, 97.80099
265.8163, 97.47449
266.2985, 97.37416
266.7806, 97.44835
267.2627, 97.40687
267.7448, 97.24625
268.2269, 96.97478
268.7090, 96.53574
269.1912, 95.83219
269.6733, 95.37444
270.1554, 95.30177
270.6375, 95.49898
271.1196, 95.47604
271.6017, 95.14449
272.0839, 94.83533
272.5660, 94.88037
273.0481, 95.39448
273.5302, 95.46165
274.0123, 94.82878
274.4944, 93.80111
274.9766, 93.27731
275.4587, 93.33427
275.9408, 93.59713
276.4229, 93.90236
276.9050, 94.26669
277.3871, 94.48952
277.8693, 94.54213
278.3514, 94.46477
278.8335, 94.29347
279.3156, 93.99452
279.7977, 93.79337
280.2798, 93.94157
280.7620, 94.44185
281.2441, 94.52328
281.7262, 94.06673
282.2083, 93.32572
282.6904, 92.64013
283.1725, 91.99198
283.6547, 91.64110
284.1368, 91.87522
284.6189, 92.62795
285.1010, 93.11942
285.5831, 93.30403
286.0652, 93.30725
286.5474, 93.30014
287.0295, 93.28166
287.5116, 93.19878
287.9937, 92.95959
288.4758, 92.61020
288.9579, 92.43861
289.4401, 92.45528
289.9222, 92.58006
290.4043, 92.73518
290.8864, 92.91978
291.3685, 93.13151
291.8506, 93.44666
292.3328, 93.77921
292.8149, 93.83443
293.2970, 93.59966
293.7791, 93.25449
294.2612, 92.87472
294.7433, 92.50937
295.2255, 92.37782
295.7076, 92.66812
296.1897, 93.17329
296.6718, 93.48777
297.1539, 93.61409
297.6360, 93.67738
298.1182, 93.72949
298.6003, 93.79691
299.0824, 93.97456
299.5645, 94.41164
300.0466, 94.83518
300.5287, 94.73076
301.0109, 94.17444
301.4930, 93.70130
301.9751, 93.78805
302.4572, 94.20513
302.9393, 94.56548
303.4214, 94.78069
303.9036, 94.93387
304.3857, 95.11233
304.8678, 95.30574
305.3499, 95.47864
305.8320, 95.64934
306.3141, 95.77122
306.7963, 95.77120
307.2784, 95.61173
307.7605, 95.40585
308.2426, 95.23575
308.7247, 95.08958
309.2068, 94.93969
309.6890, 94.69796
310.1711, 94.48563
310.6532, 94.44698
311.1353, 94.63323
311.6174, 94.79272
312.0995, 94.78455
312.5817, 94.63784
313.0638, 94.40208
313.5459, 93.96557
314.0280, 93.54221
314.5101, 93.26785
314.9922, 93.15822
315.4744, 93.10957
315.9565, 93.18192
316.4386, 93.25665
316.9207, 93.19857
317.4028, 92.75938
317.8849, 92.37196
318.3671, 92.22824
318.8492, 92.32268
319.3313, 92.47301
319.8134, 92.86269
320.2955, 93.15764
320.7776, 93.08900
321.2598, 92.10786
321.7419, 91.27872
322.2240, 90.85704
322.7061, 90.79908
323.1882, 90.87209
323.6703, 91.29850
324.1525, 91.65881
324.6346, 91.71236
325.1167, 91.15944
325.5988, 90.67764
326.0809, 90.39189
326.5630, 90.22622
327.0452, 89.97018
327.5273, 89.36204
328.0094, 88.88276
328.4915, 88.74417
328.9736, 89.22170
329.4557, 89.42684
329.9379, 89.14710
330.4200, 88.66138
330.9021, 88.42428
331.3842, 88.60808
331.8663, 88.80920
332.3484, 88.94704
332.8306, 89.03124
333.3127, 88.95490
333.7948, 88.60268
334.2769, 88.19112
334.7590, 87.94348
335.2411, 87.83330
335.7233, 87.96523
336.2054, 88.49760
336.6875, 89.38536
337.1696, 89.76669
337.6517, 89.49965
338.1339, 89.00459
338.6160, 88.53737
339.0981, 88.02415
339.5802, 87.94687
340.0623, 88.55399
340.5444, 89.56358
341.0266, 89.94521
341.5087, 89.60645
341.9908, 89.10979
342.4729, 88.72485
342.9550, 88.45393
343.4371, 88.43892
343.9193, 88.72872
344.4014, 89.20633
344.8835, 89.71935
345.3656, 90.26684
345.8477, 90.71348
346.3298, 90.95524
346.8120, 91.03438
347.2941, 91.12117
347.7762, 91.22527
348.2583, 91.31844
348.7404, 91.38600
349.2225, 91.42097
349.7047, 91.38517
350.1868, 91.16265
350.6689, 90.90611
351.1510, 90.93626
351.6331, 91.24760
352.1152, 91.57571
352.5974, 91.65918
353.0795, 91.60789
353.5616, 91.64236
354.0437, 91.91813
354.5258, 92.18029
355.0079, 92.16703
355.4901, 91.91001
355.9722, 91.55411
356.4543, 90.94736
356.9364, 90.40244
357.4185, 90.29104
357.9006, 90.82232
358.3828, 91.40285
358.8649, 91.70010
359.3470, 91.77961
359.8291, 91.77811
360.3112, 91.64609
360.7933, 91.53238
361.2755, 91.52070
361.7576, 91.62231
362.2397, 91.79587
362.7218, 92.02192
363.2039, 92.31177
363.6860, 92.67824
364.1682, 93.34313
364.6503, 93.87490
365.1324, 94.00019
365.6145, 93.74422
366.0966, 93.73560
366.5787, 94.33466
367.0609, 95.05281
367.5430, 95.57703
368.0251, 95.60828
368.5072, 95.77258
368.9893, 96.29868
369.4714, 97.01662
369.9536, 97.33575
370.4357, 96.89605
370.9178, 96.43692
371.3999, 96.25655
371.8820, 96.45792
372.3641, 96.67266
372.8463, 96.90768
373.3284, 97.14855
373.8105, 97.39413
374.2926, 97.70352
374.7747, 97.87987
375.2568, 97.83827
375.7390, 97.57496
376.2211, 97.32424
376.7032, 97.05374
377.1853, 96.85574
377.6674, 96.86214
378.1495, 97.10598
378.6317, 97.25774
379.1138, 97.25698
379.5959, 97.12298
380.0780, 96.87673
380.5601, 96.50866
381.0422, 96.15456
381.5244, 95.92220
382.0065, 95.79077
382.4886, 95.67980
382.9707, 95.60946
383.4528, 95.47592
383.9349, 95.01900
384.4171, 94.31206
384.8992, 93.75408
385.3813, 93.75957
385.8634, 93.96525
386.3455, 93.61662
386.8276, 92.66741
387.3098, 91.79057
387.7919, 91.78751
388.2740, 92.22391
388.7561, 92.30739
389.2382, 91.41312
389.7203, 90.41727
390.2025, 90.13643
390.6846, 90.44051
391.1667, 90.71391
391.6488, 90.55054
392.1309, 90.24002
392.6130, 90.02611
393.0952, 89.99152
393.5773, 89.98633
394.0594, 90.01952
394.5415, 90.03415
395.0236, 89.92418
395.5057, 89.41085
395.9879, 88.98487
396.4700, 88.89571
396.9521, 89.22315
397.4342, 89.47978
397.9163, 89.52451
398.3984, 89.49792
398.8806, 89.52819
399.3627, 89.74207
399.8448, 89.87637
400.3269, 89.86556
400.8090, 89.73197
401.2911, 89.65047
401.7733, 89.66382
402.2554, 89.67715
402.7375, 89.62603
403.2196, 89.43406
403.7017, 89.37544
404.1838, 89.48711
404.6660, 89.70872
405.1481, 89.94093
405.6302, 90.20238
406.1123, 90.40944
406.5944, 90.50227
407.0765, 90.49056
407.5587, 90.54225
408.0408, 90.63149
408.5229, 90.87727
409.0050, 91.55048
409.4871, 92.60265
409.9692, 93.36244
410.4514, 93.60995
410.9335, 93.57024
411.4156, 93.61449
411.8977, 93.75137
412.3798, 94.09511
412.8619, 94.89909
413.3441, 95.92638
413.8262, 96.72039
414.3083, 97.21555
414.7904, 97.56391
415.2725, 97.78075
415.7546, 97.96883
416.2368, 98.34700
416.7189, 99.25551
417.2010, 100.2159
417.6831, 100.8754
418.1652, 101.2282
418.6473, 101.4143
419.1295, 101.4326
419.6116, 101.3528
420.0937, 101.2486
420.5758, 101.2659
421.0579, 101.0726
421.5400, 100.3804
422.0222, 99.39305
422.5043, 98.59261
422.9864, 98.30225
423.4685, 98.04385
423.9506, 97.63782
424.4327, 97.04932
424.9149, 96.39967
425.3970, 95.57260
425.8791, 94.75565
426.3612, 94.13200
426.8433, 93.82092
427.3254, 93.52260
427.8076, 93.21658
428.2897, 92.89088
428.7718, 92.48477
429.2539, 92.00008
429.7360, 91.43887
430.2181, 90.78128
430.7003, 90.00232
431.1824, 89.25385
431.6645, 88.48434
432.1466, 87.84684
432.6287, 87.74934
433.1108, 88.20683
433.5930, 88.49381
434.0751, 88.22741
434.5572, 87.59473
435.0393, 87.18337
435.5214, 86.99584
436.0035, 86.98455
436.4857, 87.30759
436.9678, 87.77338
437.4499, 87.85594
437.9320, 87.25640
438.4141, 86.60561
438.8962, 86.65919
439.3784, 87.24258
439.8605, 87.84453
440.3426, 88.12849
440.8247, 88.35086
441.3068, 88.80303
441.7889, 89.53535
442.2711, 90.10011
442.7532, 90.06835
443.2353, 89.83394
443.7174, 89.80606
444.1995, 90.31634
444.6816, 90.81881
445.1638, 91.15117
445.6459, 91.34355
446.1280, 91.55542
446.6101, 91.69389
447.0922, 91.95220
447.5743, 92.45631
448.0565, 93.37747
448.5386, 94.10535
449.0207, 94.65311
449.5028, 94.99489
449.9849, 95.00430
450.4670, 94.33568
450.9492, 94.14532
451.4313, 94.87987
451.9134, 96.35928
452.3955, 97.12305
452.8776, 96.92930
453.3597, 96.81322
453.8419, 97.67684
454.3240, 99.48017
454.8061, 100.7796
455.2882, 101.3318
455.7703, 101.6439
456.2524, 102.5896
456.7346, 104.0641
457.2167, 105.2732
457.6988, 105.5495
458.1809, 105.5114
458.6630, 106.3230
459.1451, 107.9359
459.6273, 109.7071
460.1094, 111.1476
460.5915, 112.4381
461.0736, 113.7953
461.5557, 115.2616
462.0378, 116.8482
462.5200, 118.5725
463.0021, 120.4319
463.4842, 122.3866
463.9663, 124.3188
464.4484, 126.4460
464.9305, 128.8776
465.4127, 131.6320
465.8948, 134.4473
466.3769, 137.2976
466.8590, 140.1538
467.3411, 142.9771
467.8232, 145.2172
468.3054, 148.2293
468.7875, 152.3626
469.2696, 157.2040
469.7517, 161.7707
470.2338, 165.8762
470.7159, 169.9965
471.1981, 174.3141
471.6802, 178.8385
472.1623, 183.2473
472.6444, 187.3659
473.1265, 191.6898
473.6086, 196.8973
474.0908, 202.9642
474.5729, 208.4141
475.0550, 212.8898
475.5371, 216.7575
476.0192, 220.7039
476.5013, 224.7035
476.9835, 228.4212
477.4656, 231.9151
477.9477, 234.9622
478.4298, 237.2361
478.9119, 238.7222
479.3940, 239.4089
479.8762, 239.1989
480.3583, 238.2071
480.8404, 236.5937
481.3225, 234.3758
481.8046, 231.5872
482.2867, 228.0134
482.7689, 223.8712
483.2510, 219.7124
483.7331, 215.8510
484.2152, 211.8904
484.6973, 207.4632
485.1794, 202.2690
485.6616, 197.9322
486.1437, 195.1129
486.6258, 192.8969
487.1079, 190.5549
487.5900, 187.7626
488.0721, 185.3896
488.5543, 183.5136
489.0364, 182.0993
489.5185, 181.1007
490.0006, 180.5621
490.4827, 180.3081
490.9648, 180.1960
491.4470, 180.2427
491.9291, 180.9490
492.4112, 182.3694
492.8933, 184.1788
493.3754, 185.8723
493.8575, 187.6177
494.3397, 190.1938
494.8218, 193.8778
495.3039, 198.2215
495.7860, 202.6143
496.2681, 207.1105
496.7502, 211.8703
497.2324, 217.3240
497.7145, 222.9226
498.1966, 228.1276
498.6787, 232.9526
499.1608, 237.7031
499.6429, 242.7859
500.1251, 247.7667
500.6072, 252.4121
501.0893, 256.8301
501.5714, 260.5865
502.0535, 263.9051
502.5356, 266.5014
503.0178, 267.7637
503.4999, 267.4854
503.9820, 266.0545
504.4641, 263.5850
504.9462, 260.0980
505.4283, 255.4199
505.9105, 249.3891
506.3926, 242.4708
506.8747, 234.9464
507.3568, 226.8210
507.8389, 218.1785
508.3210, 209.0307
508.8032, 199.6316
509.2853, 190.1922
509.7674, 180.7622
510.2495, 172.2589
510.7316, 165.2493
511.2137, 159.2529
511.6959, 153.0876
512.1780, 146.8448
512.6601, 141.0501
513.1422, 136.1558
513.6243, 131.9284
514.1064, 128.1237
514.5886, 124.7601
515.0707, 121.5950
515.5528, 118.4910
516.0349, 115.4998
516.5170, 112.6451
516.9991, 109.6865
517.4813, 107.1247
517.9634, 105.2801
518.4455, 104.0712
518.9276, 102.8057
519.4097, 101.2648
519.8918, 99.78848
520.3740, 98.55241
520.8561, 97.65107
521.3382, 96.64436
521.8203, 95.46201
522.3024, 94.25125
522.7845, 93.15859
523.2667, 92.18819
523.7488, 91.30049
524.2309, 90.49294
524.7130, 89.76865
525.1951, 89.13190
525.6772, 88.58018
526.1594, 88.09534
526.6415, 87.78230
527.1236, 87.50212
527.6057, 86.88675
528.0878, 85.92480
528.5699, 84.93848
529.0521, 84.10057
529.5342, 83.44231
530.0163, 83.03563
530.4984, 83.02522
530.9805, 83.04572
531.4626, 82.89743
531.9448, 82.63840
532.4269, 82.38213
532.9090, 82.21606
533.3911, 82.00089
533.8732, 81.64377
534.3553, 81.13747
534.8375, 80.74072
535.3196, 80.58578
535.8017, 80.41580
536.2838, 80.06513
536.7659, 79.40000
537.2480, 78.91318
537.7302, 78.61712
538.2123, 78.48676
538.6944, 78.55199
539.1765, 78.83398
539.6586, 79.02232
540.1407, 79.02812
540.6229, 78.89315
541.1050, 78.71219
541.5871, 78.48335
542.0692, 78.17651
542.5513, 77.68161
543.0334, 77.12892
543.5156, 76.72348
543.9977, 76.48157
544.4798, 76.30924
544.9619, 76.08475
545.4440, 75.92117
545.9261, 75.96326
546.4083, 76.52177
546.8904, 76.89580
547.3725, 76.70285
547.8546, 76.16479
548.3367, 75.75436
548.8188, 75.60809
549.3010, 75.52558
549.7831, 75.49635
550.2652, 75.51762
550.7473, 75.40795
551.2294, 75.08768
551.7115, 74.77100
552.1937, 74.57648
552.6758, 74.50627
553.1579, 74.57614
553.6400, 74.82706
554.1221, 75.11124
554.6042, 75.24573
555.0864, 75.24004
555.5685, 75.14551
556.0506, 74.96365
556.5327, 74.71983
557.0148, 74.40018
557.4969, 74.03493
557.9791, 73.73887
558.4612, 73.67323
558.9433, 73.63892
559.4254, 73.42371
559.9075, 73.00791
560.3896, 72.71298
560.8718, 72.68420
561.3539, 72.82034
561.8360, 73.06200
562.3181, 73.64347
562.8002, 73.95615
563.2823, 73.80929
563.7645, 73.45351
564.2466, 73.28551
564.7287, 73.44093
565.2108, 73.47164
565.6929, 73.20100
566.1750, 72.73743
566.6572, 72.62273
567.1393, 72.91057
567.6214, 73.16053
568.1035, 72.99035
568.5856, 72.55135
569.0677, 72.48763
569.5499, 72.84155
570.0320, 73.23161
570.5141, 73.27843
570.9962, 73.12514
571.4783, 73.01614
571.9604, 73.06226
572.4426, 73.05671
572.9247, 72.72807
573.4068, 72.27602
573.8889, 72.05089
574.3710, 72.54251
574.8531, 72.90691
575.3353, 72.71169
575.8174, 72.01238
576.2995, 71.68545
576.7816, 72.01334
577.2637, 72.40905
577.7458, 72.62742
578.2280, 72.64123
578.7101, 72.58920
579.1922, 72.42619
579.6743, 72.29592
580.1564, 72.39439
580.6385, 72.70542
581.1207, 72.92517
581.6028, 72.95885
582.0849, 72.97146
582.5670, 73.34963
583.0491, 73.94093
583.5313, 74.26806
584.0134, 73.78700
584.4955, 73.16296
584.9776, 73.07048
585.4597, 73.42003
585.9418, 73.68911
586.4240, 73.50036
586.9061, 73.25916
587.3882, 73.19185
587.8703, 73.34110
588.3524, 73.59859
588.8345, 74.07571
589.3167, 74.57504
589.7988, 74.93633
590.2809, 75.08498
590.7630, 75.28225
591.2451, 75.60585
591.7272, 75.92968
592.2094, 75.94716
592.6915, 75.63165
593.1736, 75.43849
593.6557, 75.55364
594.1378, 75.87060
594.6199, 76.15818
595.1021, 76.41679
595.5842, 76.66847
596.0663, 76.94174
596.5484, 77.20731
597.0305, 77.47469
597.5126, 77.74929
597.9948, 77.86832
598.4769, 77.58474
598.9590, 77.19221
599.4411, 76.95735
599.9232, 77.15662
600.4053, 77.14277
600.8875, 76.58679
601.3696, 75.84780
601.8517, 75.43991
602.3338, 75.55016
602.8159, 75.63639
603.2980, 75.62252
603.7802, 75.50708
604.2623, 75.21650
604.7444, 74.71753
605.2265, 74.34464
605.7086, 74.34599
606.1907, 74.61214
606.6729, 74.78084
607.1550, 74.85178
607.6371, 74.85601
608.1192, 74.73422
608.6013, 74.59323
609.0834, 74.58948
609.5656, 74.77544
610.0477, 74.98408
610.5298, 75.07614
611.0119, 75.16141
611.4940, 75.36529
611.9761, 75.89502
612.4583, 76.33212
612.9404, 76.53196
613.4225, 76.61457
613.9046, 76.83388
614.3867, 77.15001
614.8688, 77.70406
615.3510, 78.68813
615.8331, 79.96518
616.3152, 80.53901
616.7973, 80.32090
617.2794, 80.24377
617.7615, 81.13433
618.2437, 82.63425
618.7258, 83.74112
619.2079, 84.40139
619.6900, 84.94075
620.1721, 85.48521
620.6542, 86.13227
621.1364, 87.02855
621.6185, 88.32630
622.1006, 89.63235
622.5827, 90.64651
623.0648, 91.61596
623.5469, 92.88600
624.0291, 94.67369
624.5112, 96.58032
624.9933, 98.44995
625.4754, 100.4113
625.9575, 102.9091
626.4396, 106.1354
626.9218, 109.3725
627.4039, 112.2717
627.8860, 114.9375
628.3681, 118.1548
628.8502, 121.9516
629.3323, 125.5643
629.8145, 128.3786
630.2966, 130.6077
630.7787, 132.8896
631.2608, 135.3421
631.7429, 137.0270
632.2250, 137.2290
632.7072, 136.2956
633.1893, 134.5917
633.6714, 132.1883
634.1535, 129.0776
634.6356, 124.8555
635.1177, 120.0403
635.5999, 115.3653
636.0820, 110.6555
636.5641, 106.4123
637.0462, 102.7692
637.5283, 99.63307
638.0104, 96.64851
638.4926, 93.77467
638.9747, 91.15867
639.4568, 88.80627
639.9389, 86.74200
640.4210, 85.21195
640.9031, 84.17725
641.3853, 83.17760
641.8674, 81.66374
642.3495, 80.09634
642.8316, 79.13967
643.3137, 78.91328
643.7958, 78.68719
644.2780, 77.92590
644.7601, 77.08564
645.2422, 76.58730
645.7243, 76.94380
646.2064, 76.94412
646.6885, 76.31091
647.1707, 75.42718
647.6528, 74.80177
648.1349, 74.47119
648.6170, 74.27930
649.0991, 74.24535
649.5812, 74.28130
650.0634, 74.16256
650.5455, 73.89825
651.0276, 73.63639
651.5097, 73.46580
651.9918, 73.32403
652.4739, 73.07330
652.9561, 72.74624
653.4382, 72.49523
653.9203, 72.57575
654.4024, 72.64217
654.8845, 72.36147
655.3666, 71.65472
655.8488, 71.21471
656.3309, 71.38467
656.8130, 71.72953
657.2951, 71.99358
657.7772, 72.16152
658.2593, 72.31257
658.7415, 72.51583
659.2236, 72.59111
659.7057, 72.16479
660.1878, 71.25694
660.6699, 70.85036
661.1520, 71.26728
661.6342, 71.89216
662.1163, 71.78188
662.5984, 71.17380
663.0805, 70.69101
663.5626, 70.56065
664.0447, 70.66818
664.5269, 71.12959
665.0090, 71.78381
665.4911, 72.17282
665.9732, 72.09422
666.4553, 71.78701
666.9374, 71.15016
667.4196, 70.23269
667.9017, 69.84376
668.3838, 70.27284
668.8659, 70.68327
669.3480, 70.58806
669.8301, 69.99771
670.3123, 69.69141
670.7944, 69.69393
671.2765, 69.78889
671.7586, 69.80627
672.2407, 69.76941
672.7228, 69.69489
673.2050, 69.56014
673.6871, 69.54281
674.1692, 69.92086
674.6513, 70.42879
675.1334, 70.74680
675.6155, 70.64710
676.0977, 70.57793
676.5798, 70.79785
677.0619, 71.05047
677.5440, 70.90604
678.0261, 70.01139
678.5082, 69.50961
678.9904, 69.76302
679.4725, 70.41101
679.9546, 70.44247
680.4367, 69.85163
680.9188, 69.32571
681.4009, 69.16884
681.8831, 69.25578
682.3652, 69.37624
682.8473, 69.53941
683.3294, 69.78256
683.8115, 70.33540
684.2936, 70.81868
684.7758, 70.91319
685.2579, 70.60079
685.7400, 70.29225
686.2221, 70.06583
686.7042, 69.89605
687.1863, 69.75301
687.6685, 69.61115
688.1506, 69.61734
688.6327, 69.79482
689.1148, 70.07114
689.5969, 70.48135
690.0790, 70.99987
690.5612, 71.12630
691.0433, 70.74837
691.5254, 70.28580
692.0075, 70.20138
692.4896, 70.38785
692.9717, 70.68906
693.4539, 71.20586
693.9360, 71.53616
694.4181, 71.32800
694.9002, 70.81091
695.3823, 70.33946
695.8644, 69.75241
696.3466, 69.54054
696.8287, 69.97997
697.3108, 70.78116
697.7929, 71.12300
698.2750, 70.84842
698.7571, 70.73440
699.2393, 71.15203
699.7214, 71.83838
700.2035, 71.91267
700.6856, 71.43793
701.1677, 70.95183
701.6498, 70.67661
702.1320, 70.61374
702.6141, 70.90887
703.0962, 71.50282
703.5783, 71.89462
704.0604, 71.66166
704.5425, 71.31683
705.0247, 71.12785
705.5068, 71.12543
705.9889, 71.26091
706.4710, 71.71400
706.9531, 72.06763
707.4352, 71.96011
707.9174, 71.32322
708.3995, 71.06487
708.8816, 71.26107
709.3637, 71.54501
709.8458, 71.50158
710.3279, 71.25158
710.8101, 71.12587
711.2922, 71.22640
711.7743, 71.26611
712.2564, 70.82195
712.7385, 70.27616
713.2206, 70.09970
713.7028, 70.88521
714.1849, 71.40086
714.6670, 71.18045
715.1491, 70.66146
715.6312, 70.42978
716.1133, 70.59169
716.5955, 70.74758
717.0776, 70.81931
717.5597, 70.85971
718.0418, 71.01473
718.5239, 71.26656
719.0060, 71.42931
719.4882, 71.38528
719.9703, 71.26295
720.4524, 71.16044
720.9345, 71.10440
721.4166, 71.17233
721.8987, 71.55212
722.3809, 71.92029
722.8630, 72.12820
723.3451, 72.17966
723.8272, 72.14500
724.3093, 71.89953
724.7914, 71.76530
725.2736, 71.88905
725.7557, 72.24866
726.2378, 72.60201
726.7199, 72.96987
727.2020, 73.19192
727.6841, 73.11636
728.1663, 72.83477
728.6484, 72.44854
729.1305, 71.97729
729.6126, 71.73696
730.0947, 72.12617
730.5768, 72.71033
731.0590, 73.19523
731.5411, 73.57630
732.0232, 73.67198
732.5053, 73.13670
732.9874, 72.55746
733.4695, 72.30244
733.9517, 72.49279
734.4338, 72.56194
734.9159, 72.46191
735.3980, 72.37499
735.8801, 72.54946
736.3622, 72.91618
736.8444, 73.18034
737.3265, 73.28669
737.8086, 73.33997
738.2907, 73.44995
738.7728, 73.56282
739.2549, 73.60127
739.7371, 73.48612
740.2192, 73.39901
740.7013, 73.26620
741.1834, 73.24791
741.6655, 73.60542
742.1476, 74.69762
742.6298, 75.22920
743.1119, 74.81237
743.5940, 74.07619
744.0761, 74.27491
744.5582, 75.31029
745.0403, 76.21596
745.5225, 76.72327
746.0046, 76.93758
746.4867, 76.78496
746.9688, 76.45452
747.4509, 76.35674
747.9330, 76.83711
748.4152, 77.39700
748.8973, 77.84201
749.3794, 78.22000
749.8615, 78.68059
750.3436, 79.28798
750.8257, 79.89275
751.3079, 80.50130
751.7900, 81.06428
752.2721, 81.33222
752.7542, 81.30799
753.2363, 81.27365
753.7184, 81.33300
754.2006, 81.48754
754.6827, 81.81199
755.1648, 82.25723
755.6469, 82.60384
756.1290, 82.73024
756.6111, 82.73998
757.0933, 82.70199
757.5754, 82.61202
758.0575, 82.36422
758.5396, 81.91351
759.0217, 81.36832
759.5038, 80.69559
759.9860, 79.93216
760.4681, 79.53394
760.9502, 79.53982
761.4323, 79.46120
761.9144, 78.89389
762.3965, 78.05097
762.8787, 77.27676
763.3608, 76.58921
763.8429, 76.00217
764.3250, 75.62632
764.8071, 75.28237
765.2892, 74.82472
765.7714, 74.20610
766.2535, 73.72873
766.7356, 73.44878
767.2177, 73.25749
767.6998, 73.12562
768.1819, 73.06145
768.6641, 72.87294
769.1462, 72.54573
769.6283, 72.21844
770.1104, 71.97245
770.5925, 71.81937
771.0746, 71.86259
771.5568, 72.12300
772.0389, 72.21844
772.5210, 71.65682
773.0031, 71.00426
773.4852, 70.74821
773.9673, 71.15522
774.4495, 71.27731
774.9316, 70.84800
775.4137, 70.40943
775.8958, 70.44289
776.3779, 71.00680
776.8600, 71.22682
777.3422, 71.03020
777.8243, 70.76550
778.3064, 70.86961
778.7885, 71.13500
779.2706, 71.13592
779.7527, 70.76717
780.2349, 70.38125
780.7170, 70.10307
781.1991, 69.95550
781.6812, 69.98509
782.1633, 70.43562
782.6454, 70.58130
783.1276, 70.28434
783.6097, 69.84721
784.0918, 69.51591
784.5739, 69.28825
785.0560, 69.36127
785.5381, 69.80818
786.0203, 70.26131
786.5024, 70.24098
786.9845, 69.96281
787.4666, 69.80227
787.9487, 69.86540
788.4308, 69.97261
788.9130, 70.13460
789.3951, 70.24421
789.8772, 70.17844
790.3593, 69.72610
790.8414, 69.48846
791.3235, 69.57455
791.8057, 69.73075
792.2878, 69.56249
792.7699, 69.10527
793.2520, 69.02474
793.7341, 69.47987
794.2162, 70.02473
794.6984, 70.20938
795.1805, 70.15385
795.6626, 70.02274
796.1447, 69.76949
796.6268, 69.64859
797.1089, 69.94397
797.5911, 70.31763
798.0732, 70.36176
798.5553, 69.77852
799.0374, 69.62177
799.5195, 70.12265
800.0016, 70.73354
800.4838, 70.66919
800.9659, 70.05183
801.4480, 69.54489
801.9301, 69.24013
802.4122, 69.20567
802.8943, 69.76871
803.3765, 70.54446
803.8586, 71.01951
804.3407, 70.86950
804.8228, 70.76852
805.3049, 71.04162
805.7870, 71.31453
806.2692, 71.14247
806.7513, 70.31865
807.2334, 69.89440
807.7155, 70.02317
808.1976, 70.39745
808.6797, 70.75768
809.1619, 71.04069
809.6440, 71.02880
810.1261, 70.62051
810.6082, 70.12515
811.0903, 69.66660
811.5724, 69.29915
812.0546, 69.08885
812.5367, 69.13464
813.0188, 69.20647
813.5009, 69.29884
813.9830, 69.40789
814.4651, 69.56367
814.9473, 69.78049
815.4294, 69.78844
815.9115, 69.51611
816.3936, 69.24687
816.8757, 69.47102
817.3578, 69.88161
817.8400, 69.87004
818.3221, 69.14036
818.8042, 68.56729
819.2863, 68.65029
819.7684, 69.03941
820.2505, 69.42461
820.7327, 69.85536
821.2148, 70.11187
821.6969, 70.16296
822.1790, 70.09126
822.6611, 69.91389
823.1432, 69.66525
823.6254, 69.63766
824.1075, 69.89011
824.5896, 70.10384
825.0717, 69.88607
825.5538, 69.51780
826.0359, 69.33357
826.5181, 69.45035
827.0002, 69.55114
827.4823, 69.54350
827.9644, 69.51622
828.4465, 69.54678
828.9286, 69.67936
829.4108, 69.63360
829.8929, 69.37477
830.3750, 69.09712
830.8571, 68.98108
831.3392, 68.98071
831.8214, 68.97887
832.3035, 68.96082
832.7856, 69.04036
833.2677, 69.48380
833.7498, 69.91196
834.2319, 69.99339
834.7141, 69.56180
835.1962, 69.32268
835.6783, 69.31902
836.1604, 69.43172
836.6425, 69.65800
837.1246, 69.97549
837.6068, 69.98595
838.0889, 69.68506
838.5710, 69.40823
839.0531, 69.40430
839.5352, 69.56692
840.0173, 69.85950
840.4995, 70.27196
840.9816, 70.51184
841.4637, 70.28547
841.9458, 70.05599
842.4279, 70.04321
842.9100, 70.24207
843.3922, 70.41394
843.8743, 70.58492
844.3564, 70.58165
844.8385, 70.06770
845.3206, 69.36831
845.8027, 69.32925
846.2849, 69.85465
846.7670, 70.41550
847.2491, 70.92339
847.7312, 71.19139
848.2133, 70.94589
848.6954, 70.26708
849.1776, 69.95423
849.6597, 70.24755
850.1418, 70.44705
850.6239, 70.24256
851.1060, 69.81655
851.5881, 69.87720
852.0703, 70.35939
852.5524, 70.70881
853.0345, 70.48730
853.5166, 70.15845
853.9987, 70.15950
854.4808, 70.38757
854.9630, 70.58304
855.4451, 70.76775
855.9272, 70.77077
856.4093, 70.44205
856.8914, 69.97146
857.3735, 69.80799
857.8557, 69.97678
858.3378, 70.15127
858.8199, 70.26218
859.3020, 70.30570
859.7841, 70.14783
860.2662, 69.93481
860.7484, 69.99638
861.2305, 70.81448
861.7126, 71.37257
862.1947, 71.11353
862.6768, 70.44090
863.1589, 69.91793
863.6411, 69.50887
864.1232, 69.37563
864.6053, 69.59992
865.0874, 69.93968
865.5695, 70.12548
866.0516, 70.16489
866.5338, 70.06933
867.0159, 69.82273
867.4980, 69.53200
867.9801, 69.01214
868.4622, 68.63315
868.9443, 68.81697
869.4265, 70.08994
869.9086, 70.77851
870.3907, 70.65589
870.8728, 70.29635
871.3549, 70.15430
871.8370, 70.20898
872.3192, 70.22055
872.8013, 70.17973
873.2834, 70.10963
873.7655, 69.92300
874.2476, 69.78471
874.7297, 69.94644
875.2119, 70.44108
875.6940, 70.72709
876.1761, 70.49048
876.6582, 70.20505
877.1403, 70.08064
877.6224, 70.09299
878.1046, 69.79904
878.5867, 69.17319
879.0688, 68.81033
879.5509, 69.38266
880.0330, 70.25264
880.5151, 70.48028
880.9973, 70.19292
881.4794, 69.88967
881.9615, 69.72279
882.4436, 69.63919
882.9257, 69.64189
883.4078, 69.71042
883.8900, 69.81870
884.3721, 69.99311
884.8542, 70.05569
885.3363, 69.91866
885.8184, 69.70222
886.3005, 69.63791
886.7827, 69.66349
887.2648, 69.61088
887.7469, 69.27479
888.2290, 69.06555
888.7111, 69.30212
889.1932, 69.71959
889.6754, 69.91383
890.1575, 69.72961
890.6396, 69.74189
891.1217, 70.06963
891.6038, 70.42480
892.0859, 70.33777
892.5681, 69.98477
893.0502, 69.97010
893.5323, 70.44282
894.0144, 70.86243
894.4965, 70.83390
894.9786, 70.59917
895.4608, 70.34824
895.9429, 70.09813
896.4250, 69.83920
896.9071, 69.52483
897.3892, 69.29836
897.8713, 69.30651
898.3535, 69.50275
898.8356, 69.58778
899.3177, 69.57087
899.7998, 69.61714
900.2819, 70.00336
900.7640, 70.36020
901.2462, 70.27444
901.7283, 69.80779
902.2104, 69.71907
902.6925, 70.30299
903.1746, 70.90594
903.6567, 71.41367
904.1389, 71.76682
904.6210, 71.64060
905.1031, 71.10516
905.5852, 70.80774
906.0673, 71.24477
906.5494, 71.70530
907.0316, 71.41125
907.5137, 70.71358
907.9958, 70.22737
908.4779, 70.23282
908.9600, 70.31370
909.4421, 70.51360
909.9243, 70.68301
910.4064, 70.53989
910.8885, 70.11248
911.3706, 69.92071
911.8527, 70.06056
912.3348, 70.32008
912.8170, 70.54900
913.2991, 70.75586
913.7812, 70.97873
914.2633, 71.27294
914.7454, 71.35718
915.2275, 70.98079
915.7097, 70.64001
916.1918, 70.64859
916.6739, 71.00040
917.1560, 71.31422
917.6381, 71.58803
918.1202, 71.76999
918.6024, 71.79296
919.0845, 71.72546
919.5666, 71.53025
920.0487, 71.27238
920.5308, 71.28176
921.0129, 72.13057
921.4951, 72.66699
921.9772, 72.46495
922.4593, 71.81194
922.9414, 71.56297
923.4235, 71.71423
923.9056, 72.03384
924.3878, 72.56937
924.8699, 72.99612
925.3520, 72.69612
925.8341, 72.11297
926.3162, 71.95867
926.7983, 72.92824
927.2805, 73.58331
927.7626, 73.65623
928.2447, 73.48394
928.7268, 73.32219
929.2089, 73.16958
929.6910, 73.47652
930.1732, 74.33193
930.6553, 74.97520
931.1374, 74.40795
931.6195, 73.42876
932.1016, 72.96330
932.5837, 73.14453
933.0659, 73.25514
933.5480, 72.96317
934.0301, 72.77814
934.5122, 72.95479
934.9943, 73.41805
935.4764, 73.66907
935.9586, 73.70991
936.4407, 73.60105
936.9228, 73.20335
937.4049, 72.82944
937.8870, 72.83115
938.3691, 73.10603
938.8513, 73.41757
939.3334, 73.76945
939.8155, 74.06761
940.2976, 74.28179
940.7797, 74.45721
941.2618, 74.67213
941.7440, 74.92078
942.2261, 75.09766
942.7082, 75.17738
943.1903, 75.24156
943.6724, 75.28973
944.1545, 75.40701
944.6367, 75.79156
945.1188, 76.68150
945.6009, 76.89096
946.0830, 75.96482
946.5651, 74.94713
947.0472, 74.42789
947.5294, 74.35670
948.0115, 74.43021
948.4936, 74.63308
948.9757, 74.79296
949.4578, 74.78014
949.9399, 74.70183
950.4221, 74.63734
950.9042, 74.57967
951.3863, 74.49657
951.8684, 74.45415
952.3505, 74.23530
952.8326, 73.68234
953.3148, 73.09961
953.7969, 73.16996
954.2790, 73.74181
954.7611, 74.13841
955.2432, 74.13963
955.7253, 74.12017
956.2075, 74.44125
956.6896, 74.81799
957.1717, 74.92858
957.6538, 74.58513
958.1359, 74.52322
958.6180, 74.83680
959.1002, 75.19164
959.5823, 75.33625
960.0644, 75.32685
960.5465, 75.37466
961.0286, 75.45639
961.5107, 75.37620
961.9929, 74.77013
962.4750, 74.22301
962.9571, 74.05526
963.4392, 74.20786
963.9213, 74.45344
964.4034, 74.84161
964.8856, 75.11748
965.3677, 75.21537
965.8498, 75.18076
966.3319, 75.00773
966.8140, 74.77287
967.2961, 74.63723
967.7783, 74.64646
968.2604, 74.74769
968.7425, 75.11068
969.2246, 75.40891
969.7067, 75.31810
970.1888, 74.72905
970.6710, 74.61877
971.1531, 75.03359
971.6352, 75.48778
972.1173, 75.66759
972.5994, 75.62655
973.0815, 75.29442
973.5637, 74.75394
974.0458, 74.44742
974.5279, 74.76906
975.0100, 75.04725
975.4921, 75.12078
975.9742, 75.04226
976.4564, 74.85784
976.9385, 74.58530
977.4206, 74.63068
977.9027, 75.21249
978.3848, 75.78768
978.8669, 75.64658
979.3491, 75.29561
979.8312, 75.40652
980.3133, 76.48784
980.7954, 76.95566
981.2775, 76.41560
981.7596, 75.87148
982.2418, 76.14017
982.7239, 77.03983
983.2060, 77.62588
983.6881, 77.91142
984.1702, 78.07607
984.6523, 78.06660
985.1345, 78.12553
985.6166, 78.35848
986.0987, 78.78854
986.5808, 79.48219
987.0629, 80.61385
987.5450, 81.39770
988.0272, 81.57051
988.5093, 81.60471
988.9914, 82.24451
989.4735, 83.27290
989.9556, 84.21772
990.4377, 84.91940
990.9199, 85.78782
991.4020, 87.16322
991.8841, 88.62017
992.3662, 89.81187
992.8483, 90.69888
993.3304, 92.12679
993.8126, 94.12620
994.2947, 96.13511
994.7768, 97.86609
995.2589, 99.36381
995.7410, 100.5050
996.2231, 101.4644
996.7053, 102.7766
997.1874, 105.1682
997.6695, 107.1072
998.1516, 108.2851
998.6337, 109.0432
999.1158, 109.9665
999.5980, 110.9943
1000.080, 111.7084
1000.562, 112.0819
1001.044, 111.9239
1001.526, 110.7840
1002.009, 109.2744
1002.491, 107.9516
1002.973, 106.8909
1003.455, 105.3917
1003.937, 103.2317
1004.419, 101.3562
1004.901, 100.2900
1005.383, 99.69096
1005.865, 98.84510
1006.348, 97.81889
1006.830, 96.77633
1007.312, 95.78423
1007.794, 94.80466
1008.276, 93.71095
1008.758, 92.68140
1009.240, 91.93196
1009.722, 91.49946
1010.205, 91.00393
1010.687, 90.41362
1011.169, 89.77312
1011.651, 89.15291
1012.133, 88.47547
1012.615, 87.59938
1013.097, 86.53479
1013.579, 85.54865
1014.061, 84.49516
1014.544, 83.86179
1015.026, 83.96011
1015.508, 84.41795
1015.990, 84.31940
1016.472, 83.76305
1016.954, 83.11617
1017.436, 82.38148
1017.918, 81.84779
1018.401, 81.86788
1018.883, 82.06947
1019.365, 82.05367
1019.847, 81.72639
1020.329, 81.61623
1020.811, 81.75450
1021.293, 81.94147
1021.775, 82.03834
1022.257, 82.09077
1022.740, 82.20863
1023.222, 82.35482
1023.704, 82.38583
1024.186, 81.99840
1024.668, 81.83619
1025.150, 82.16357
1025.632, 82.64792
1026.114, 82.62609
1026.596, 82.18093
1027.079, 82.10892
1027.561, 82.56844
1028.043, 83.13550
1028.525, 83.53018
1029.007, 83.83643
1029.489, 84.06483
1029.971, 84.20797
1030.453, 84.62076
1030.936, 85.39160
1031.418, 86.14953
1031.900, 86.75899
1032.382, 87.24611
1032.864, 87.52534
1033.346, 87.72961
1033.828, 88.17436
1034.310, 89.14794
1034.792, 90.10385
1035.275, 91.04189
1035.757, 91.79275
1036.239, 92.13381
1036.721, 92.06323
1037.203, 92.19475
1037.685, 92.54431
1038.167, 92.85851
1038.649, 92.97389
1039.132, 92.95847
1039.614, 92.86294
1040.096, 92.68332
1040.578, 92.38540
1041.060, 91.89492
1041.542, 91.50335
1042.024, 91.31944
1042.506, 91.11614
1042.989, 90.41120
1043.471, 89.45481
1043.953, 88.84042
1044.435, 88.76180
1044.917, 88.47323
1045.399, 87.35440
1045.881, 86.28700
1046.363, 85.77701
1046.845, 85.73337
1047.328, 85.49494
1047.810, 85.05169
1048.292, 84.27737
1048.774, 82.84235
1049.256, 81.42803
1049.738, 80.43799
1050.220, 79.87032
1050.702, 79.77673
1051.184, 80.46327
1051.667, 80.83118
1052.149, 80.83585
1052.631, 80.59383
1053.113, 80.11403
1053.595, 79.49406
1054.077, 78.84445
1054.559, 78.20480
1055.041, 77.77547
1055.523, 77.72603
1056.006, 77.81489
1056.488, 78.05340
1056.970, 78.31409
1057.452, 78.33089
1057.934, 78.12086
1058.416, 77.79903
1058.898, 77.36196
1059.380, 76.98554
1059.863, 76.78714
1060.345, 76.73705
1060.827, 76.91249
1061.309, 77.32356
1061.791, 77.33367
1062.273, 76.85036
1062.755, 76.39278
1063.237, 76.17139
1063.719, 76.12651
1064.202, 76.32901
1064.684, 76.60196
1065.166, 76.58196
1065.648, 75.69831
1066.130, 75.38663
1066.612, 76.11073
1067.094, 76.93222
1067.576, 76.97108
1068.059, 76.40634
1068.541, 76.33059
1069.023, 76.69662
1069.505, 76.99135
1069.987, 76.84077
1070.469, 76.61201
1070.951, 76.43668
1071.433, 76.33555
1071.916, 76.41829
1072.398, 76.74300
1072.880, 76.64501
1073.362, 75.97077
1073.844, 75.30015
1074.326, 75.30275
1074.808, 75.57064
1075.290, 75.68140
1075.772, 75.59365
1076.255, 75.51875
1076.737, 75.40528
1077.219, 75.48775
1077.701, 75.93630
1078.183, 76.48367
1078.665, 76.53062
1079.147, 76.27146
1079.629, 76.18929
1080.111, 76.52795
1080.594, 76.69767
1081.076, 76.18407
1081.558, 75.74275
1082.040, 75.88219
1082.522, 76.52576
1083.004, 76.87523
1083.486, 76.95627
1083.968, 76.99117
1084.450, 77.08638
1084.933, 77.19113
1085.415, 77.35450
1085.897, 77.46915
1086.379, 77.32756
1086.861, 76.77388
1087.343, 76.65648
1087.825, 77.07558
1088.307, 77.51624
1088.790, 77.36137
1089.272, 77.08624
1089.754, 77.41192
1090.236, 78.21257
1090.718, 78.63644
1091.200, 78.35341
1091.682, 77.98447
1092.164, 77.55999
1092.646, 77.22813
1093.129, 77.29168
1093.611, 77.61427
1094.093, 77.90845
1094.575, 78.13985
1095.057, 78.17271
1095.539, 77.60461
1096.021, 77.20216
1096.503, 77.32053
1096.986, 77.84325
1097.468, 78.49904
1097.950, 79.22646
1098.432, 79.41386
1098.914, 78.64098
1099.396, 77.90397
1099.878, 78.05993
1100.360, 78.51733
1100.843, 78.65331
1101.325, 78.39451
1101.807, 78.43563
1102.289, 78.80132
1102.771, 79.20200
1103.253, 79.48481
1103.735, 79.70262
1104.217, 79.82607
1104.699, 79.94686
1105.182, 80.25590
1105.664, 81.08544
1106.146, 81.50468
1106.628, 81.37473
1107.110, 81.14636
1107.592, 81.27256
1108.074, 81.57172
1108.556, 81.64534
1109.038, 81.52254
1109.521, 81.44166
1110.003, 81.35978
1110.485, 81.53959
1110.967, 82.15799
1111.449, 82.89780
1111.931, 83.25066
1112.413, 83.29876
1112.895, 83.41361
1113.377, 83.64120
1113.860, 83.87667
1114.342, 83.94987
1114.824, 84.13007
1115.306, 84.63622
1115.788, 85.34338
1116.270, 85.88135
1116.752, 86.25333
1117.234, 86.36312
1117.717, 86.13866
1118.199, 85.84750
1118.681, 85.55764
1119.163, 85.43137
1119.645, 85.70670
1120.127, 86.40376
1120.609, 86.88729
1121.091, 87.09347
1121.573, 87.50021
1122.056, 88.40817
1122.538, 89.45468
1123.020, 90.30599
1123.502, 90.94976
1123.984, 91.34199
1124.466, 91.24283
1124.948, 91.44463
1125.430, 91.98678
1125.913, 92.75559
1126.395, 93.81889
1126.877, 94.99019
1127.359, 95.84338
1127.841, 96.45440
1128.323, 97.02073
1128.805, 97.63555
1129.287, 98.17097
1129.770, 98.56494
1130.252, 98.94981
1130.734, 99.53881
1131.216, 100.2323
1131.698, 100.6916
1132.180, 100.8939
1132.662, 100.7924
1133.144, 99.99451
1133.626, 99.32990
1134.109, 99.24236
1134.591, 99.32907
1135.073, 98.96895
1135.555, 98.19190
1136.037, 97.26682
1136.519, 96.21518
1137.001, 95.25864
1137.483, 94.54027
1137.965, 93.98531
1138.448, 93.77499
1138.930, 93.66703
1139.412, 92.81455
1139.894, 91.16499
1140.376, 89.70988
1140.858, 88.64613
1141.340, 87.87673
1141.822, 87.45445
1142.304, 87.16959
1142.787, 86.85559
1143.269, 86.49617
1143.751, 85.98708
1144.233, 85.27251
1144.715, 84.75415
1145.197, 84.65008
1145.679, 84.62818
1146.161, 84.16376
1146.644, 83.57298
1147.126, 83.33842
1147.608, 83.74519
1148.090, 83.62537
1148.572, 82.84228
1149.054, 81.88615
1149.536, 80.82528
1150.018, 79.93560
1150.500, 79.91804
1150.983, 80.38490
1151.465, 80.56126
1151.947, 80.12760
1152.429, 79.56662
1152.911, 78.77871
1153.393, 78.17090
1153.875, 78.20903
1154.357, 78.56951
1154.840, 78.25243
1155.322, 77.47655
1155.804, 76.95354
1156.286, 77.18980
1156.768, 77.38696
1157.250, 77.45206
1157.732, 77.40603
1158.214, 77.20437
1158.697, 76.90489
1159.179, 76.83144
1159.661, 76.93449
1160.143, 76.88610
1160.625, 76.19202
1161.107, 75.75655
1161.589, 76.00733
1162.071, 76.48003
1162.553, 76.57256
1163.036, 76.34103
1163.518, 76.22928
1164.000, 76.25546
1164.482, 76.16161
1164.964, 75.60051
1165.446, 75.09530
1165.928, 74.95479
1166.410, 75.00085
1166.892, 74.87257
1167.375, 74.59461
1167.857, 74.57951
1168.339, 74.89173
1168.821, 75.20423
1169.303, 75.26830
1169.785, 75.26632
1170.267, 75.33254
1170.749, 75.42445
1171.231, 75.40653
1171.714, 75.27877
1172.196, 75.07288
1172.678, 74.76134
1173.160, 74.60379
1173.642, 75.05440
1174.124, 75.56138
1174.606, 75.60650
1175.088, 75.27464
1175.571, 75.10493
1176.053, 75.10795
1176.535, 75.04347
1177.017, 74.83688
1177.499, 74.56274
1177.981, 74.09846
1178.463, 73.73794
1178.945, 73.89977
1179.427, 74.58887
1179.910, 74.81584
1180.392, 74.52996
1180.874, 74.31107
1181.356, 74.41344
1181.838, 74.57935
1182.320, 74.52814
1182.802, 74.38822
1183.284, 74.29821
1183.767, 74.26784
1184.249, 74.35648
1184.731, 74.59713
1185.213, 74.71677
1185.695, 74.43491
1186.177, 74.20457
1186.659, 74.91370
1187.141, 75.85957
1187.624, 75.91605
1188.106, 74.60146
1188.588, 73.79008
1189.070, 73.54295
1189.552, 73.49084
1190.034, 73.46765
1190.516, 73.47927
1190.998, 73.56871
1191.480, 73.68636
1191.963, 73.73975
1192.445, 73.65292
1192.927, 73.68224
1193.409, 73.86146
1193.891, 73.99675
1194.373, 73.85279
1194.855, 73.66393
1195.337, 73.80574
1195.819, 74.13020
1196.302, 74.29632
1196.784, 74.08271
1197.266, 74.15466
1197.748, 74.61082
1198.230, 74.98188
1198.712, 74.81233
1199.194, 74.39021
1199.676, 74.01424
1200.158, 73.71644
1200.641, 73.57893
1201.123, 73.68085
1201.605, 73.77695
1202.087, 73.84800
1202.569, 73.94414
1203.051, 74.23762
1203.533, 74.49475
1204.015, 74.28323
1204.498, 73.75304
1204.980, 73.46936
1205.462, 73.62441
1205.944, 73.70931
1206.426, 73.63061
1206.908, 73.67986
1207.390, 74.36804
1207.872, 75.20071
1208.354, 75.47928
1208.837, 75.29827
1209.319, 75.24694
1209.801, 75.57628
1210.283, 75.52188
1210.765, 74.90116
1211.247, 74.23203
1211.729, 74.12180
1212.211, 74.22895
1212.694, 74.03046
1213.176, 73.60347
1213.658, 73.62680
1214.140, 74.41022
1214.622, 74.81271
1215.104, 74.61231
1215.586, 74.25359
1216.068, 74.14402
1216.551, 74.20124
1217.033, 74.39482
1217.515, 74.68678
1217.997, 74.81313
1218.479, 74.67885
1218.961, 74.71001
1219.443, 75.03457
1219.925, 75.30127
1220.407, 74.93832
1220.890, 74.42178
1221.372, 74.34823
1221.854, 74.70418
1222.336, 74.88668
1222.818, 74.85915
1223.300, 74.69064
1223.782, 74.36538
1224.264, 74.03347
1224.746, 73.74507
1225.229, 73.62164
1225.711, 73.93649
1226.193, 74.62713
1226.675, 74.85196
1227.157, 74.50776
1227.639, 74.22974
1228.121, 74.15618
1228.603, 74.16840
1229.085, 74.15868
1229.568, 74.16059
1230.050, 74.19470
1230.532, 74.27032
1231.014, 74.43533
1231.496, 74.70361
1231.978, 74.94579
1232.460, 75.13622
1232.942, 75.27593
1233.425, 75.46330
1233.907, 75.52573
1234.389, 75.17954
1234.871, 74.52952
1235.353, 74.26945
1235.835, 74.42178
1236.317, 74.49419
1236.799, 74.36327
1237.281, 74.16663
1237.764, 73.88327
1238.246, 73.69945
1238.728, 73.81159
1239.210, 74.15449
1239.692, 74.53978
1240.174, 74.95555
1240.656, 75.24111
1241.138, 75.35244
1241.621, 75.34287
1242.103, 75.09919
1242.585, 74.89725
1243.067, 74.98509
1243.549, 75.24534
1244.031, 75.16084
1244.513, 74.79977
1244.995, 74.78010
1245.478, 75.31673
1245.960, 75.74624
1246.442, 75.61469
1246.924, 75.29272
1247.406, 74.91867
1247.888, 74.57434
1248.370, 74.61037
1248.852, 74.92744
1249.334, 75.08720
1249.817, 74.96696
1250.299, 74.85203
1250.781, 74.87696
1251.263, 74.94168
1251.745, 74.99735
1252.227, 75.07366
1252.709, 75.31718
1253.191, 75.63731
1253.673, 75.77358
1254.156, 75.66560
1254.638, 75.42736
1255.120, 74.93538
1255.602, 74.55323
1256.084, 74.39340
1256.566, 74.42882
1257.048, 74.74316
1257.530, 75.17032
1258.012, 75.30774
1258.495, 75.04205
1258.977, 75.01437
1259.459, 75.50195
1259.941, 75.77367
1260.423, 75.51191
1260.905, 75.10250
1261.387, 75.26270
1261.869, 75.62742
1262.352, 75.56655
1262.834, 74.95367
1263.316, 74.77683
1263.798, 75.20815
1264.280, 75.61483
1264.762, 75.81704
1265.244, 75.90342
1265.726, 76.00648
1266.208, 76.03979
1266.691, 75.86869
1267.173, 75.48491
1267.655, 75.16103
1268.137, 74.89606
1268.619, 74.63860
1269.101, 74.31738
1269.583, 74.26708
1270.065, 75.26677
1270.548, 76.30742
1271.030, 76.28371
1271.512, 75.47039
1271.994, 75.09250
1272.476, 75.14198
1272.958, 75.12463
1273.440, 74.91391
1273.922, 74.76127
1274.405, 74.82580
1274.887, 75.04435
1275.369, 75.46962
1275.851, 75.96216
1276.333, 76.08495
1276.815, 75.91223
1277.297, 75.80344
1277.779, 75.82199
1278.261, 75.95831
1278.744, 76.47330
1279.226, 76.74563
1279.708, 76.45346
1280.190, 75.92717
1280.672, 75.82566
1281.154, 75.99535
1281.636, 76.05579
1282.118, 75.95368
1282.600, 75.77570
1283.083, 75.50256
1283.565, 75.19984
1284.047, 74.80420
1284.529, 74.57212
1285.011, 75.05575
1285.493, 75.84676
1285.975, 76.33219
1286.457, 76.46328
1286.939, 76.48119
1287.422, 76.37497
1287.904, 76.33688
1288.386, 76.42947
1288.868, 76.47913
1289.350, 76.21046
1289.832, 75.87306
1290.314, 75.72293
1290.796, 75.74428
1291.279, 75.74105
1291.761, 75.70363
1292.243, 75.75993
1292.725, 75.93844
1293.207, 76.02739
1293.689, 75.66919
1294.171, 75.34985
1294.653, 75.45338
1295.135, 75.79541
1295.618, 76.16355
1296.100, 76.52816
1296.582, 76.52611
1297.064, 76.15292
1297.546, 75.83531
1298.028, 75.79695
1298.510, 75.87939
1298.992, 76.13269
1299.475, 76.33438
1299.957, 75.97974
1300.439, 75.38307
1300.921, 75.60547
1301.403, 76.54990
1301.885, 77.28645
##END=



