##NAMES=Wakefieldite-(Ce)
##RRUFFID=R060176
##IDEAL CHEMISTRY=Ce^3+^V^5+^O_4_
##LOCALITY=North Keremeous, British Columbia, Canada
##OWNER=RRUFF
##SOURCE=Ty Balacko
##DESCRIPTION=Blue-gray to rust-brown colored prismatic crystals
##STATUS=The identification of this mineral is confirmed by single-crystal X-ray diffraction and chemical analysis.
##URL=rruff.info/R060176
##MEASURED CHEMISTRY=(Ce_0.49_La_0.40_Nd_0.11_)_Î£=1_V_1.00_O_4_; trace amounts of Si; no Pb detected
92.02539, 200.2857
92.50751, 209.2871
92.98962, 214.9953
93.47174, 211.5487
93.95386, 204.0871
94.43597, 195.7110
94.91809, 187.8140
95.40021, 180.4823
95.88232, 173.2727
96.36444, 165.9001
96.84656, 159.0812
97.32867, 153.1113
97.81078, 147.8454
98.29290, 143.0310
98.77502, 138.3494
99.25713, 133.5062
99.73925, 129.3984
100.2214, 125.7621
100.7035, 122.8407
101.1856, 120.9188
101.6677, 119.8923
102.1498, 119.3030
102.6320, 118.5899
103.1141, 117.5176
103.5962, 116.9658
104.0783, 117.2666
104.5604, 117.9275
105.0425, 118.4216
105.5247, 118.5899
106.0068, 118.5534
106.4889, 118.4204
106.9710, 118.1245
107.4531, 117.9935
107.9352, 118.1717
108.4173, 118.6353
108.8995, 119.2673
109.3816, 120.0043
109.8637, 120.9345
110.3458, 122.2087
110.8279, 123.9331
111.3100, 125.6825
111.7922, 126.8167
112.2743, 127.0180
112.7564, 127.6249
113.2385, 129.1879
113.7206, 131.2067
114.2027, 133.2824
114.6849, 135.2211
115.1670, 137.1168
115.6491, 139.2554
116.1312, 141.6821
116.6133, 144.3807
117.0954, 147.1418
117.5776, 150.1874
118.0597, 153.8057
118.5418, 158.1921
119.0239, 163.3569
119.5060, 169.4854
119.9881, 177.8436
120.4703, 185.8006
120.9524, 193.1586
121.4345, 199.4529
121.9166, 203.5094
122.3987, 204.3121
122.8808, 201.2229
123.3630, 195.0004
123.8451, 183.6822
124.3272, 170.2194
124.8093, 157.0500
125.2914, 144.3431
125.7735, 132.8917
126.2557, 124.0381
126.7378, 117.3094
127.2199, 111.8502
127.7020, 107.6946
128.1841, 104.6431
128.6662, 102.1802
129.1483, 100.4348
129.6305, 99.05975
130.1126, 97.73737
130.5947, 96.46667
131.0768, 95.30882
131.5589, 94.31351
132.0410, 93.48524
132.5232, 92.78966
133.0053, 92.05212
133.4874, 91.56876
133.9695, 91.68870
134.4516, 92.41817
134.9337, 93.28863
135.4159, 93.55590
135.8980, 92.81458
136.3801, 92.19735
136.8622, 91.62870
137.3443, 91.24998
137.8264, 91.24345
138.3086, 91.66714
138.7907, 92.36437
139.2728, 92.89687
139.7549, 93.24379
140.2370, 93.43752
140.7191, 93.25459
141.2013, 92.95451
141.6834, 92.94085
142.1655, 93.44735
142.6476, 94.36315
143.1297, 95.18105
143.6118, 95.99088
144.0939, 96.64211
144.5761, 96.95037
145.0582, 96.99264
145.5403, 97.15727
146.0224, 97.81876
146.5045, 98.71839
146.9866, 99.12884
147.4688, 98.84700
147.9509, 98.20910
148.4330, 97.49586
148.9151, 96.70483
149.3972, 95.84535
149.8793, 94.95993
150.3615, 93.99328
150.8436, 92.82130
151.3257, 91.28069
151.8078, 89.56783
152.2899, 88.17307
152.7720, 87.24299
153.2542, 86.37045
153.7363, 85.42436
154.2184, 84.40772
154.7005, 83.29685
155.1826, 82.03647
155.6647, 80.65655
156.1469, 79.49515
156.6290, 78.61965
157.1111, 77.94097
157.5932, 77.53435
158.0753, 77.31260
158.5574, 77.12156
159.0396, 76.83358
159.5217, 76.43919
160.0038, 76.02937
160.4859, 75.53217
160.9680, 75.08369
161.4501, 74.73716
161.9323, 74.49628
162.4144, 74.35052
162.8965, 74.31100
163.3786, 74.43603
163.8607, 74.37633
164.3428, 73.95155
164.8250, 73.48347
165.3071, 73.21801
165.7892, 73.18962
166.2713, 73.25352
166.7534, 73.25864
167.2355, 73.20444
167.7177, 73.07645
168.1998, 72.78357
168.6819, 72.44617
169.1640, 72.24186
169.6461, 72.23059
170.1282, 72.26553
170.6104, 72.13361
171.0925, 71.85621
171.5746, 71.64151
172.0567, 71.65879
172.5388, 71.81164
173.0209, 71.79816
173.5031, 71.47706
173.9852, 71.09328
174.4673, 70.83329
174.9494, 70.69430
175.4315, 70.65626
175.9136, 70.73361
176.3958, 70.92282
176.8779, 71.12322
177.3600, 71.38269
177.8421, 71.59325
178.3242, 71.68858
178.8063, 71.66923
179.2885, 71.58262
179.7706, 71.46171
180.2527, 71.29214
180.7348, 71.15115
181.2169, 70.99722
181.6990, 70.90585
182.1812, 70.94224
182.6633, 71.10661
183.1454, 71.33192
183.6275, 71.52288
184.1096, 71.64647
184.5917, 71.80694
185.0738, 72.05954
185.5560, 72.30671
186.0381, 72.46473
186.5202, 72.51823
187.0023, 72.52836
187.4844, 72.59669
187.9665, 72.74232
188.4487, 72.92848
188.9308, 73.17219
189.4129, 73.44433
189.8950, 73.73347
190.3771, 74.03334
190.8592, 74.31784
191.3414, 74.53143
191.8235, 74.64673
192.3056, 74.74089
192.7877, 74.67647
193.2698, 74.63439
193.7519, 74.90451
194.2341, 75.62389
194.7162, 76.56897
195.1983, 77.27501
195.6804, 77.69077
196.1625, 78.12935
196.6446, 78.71572
197.1268, 79.39472
197.6089, 80.01198
198.0910, 80.45037
198.5731, 80.91748
199.0552, 81.78550
199.5373, 83.13163
200.0195, 84.42088
200.5016, 85.27908
200.9837, 85.80079
201.4658, 86.45078
201.9479, 87.34885
202.4300, 88.47686
202.9122, 89.76048
203.3943, 91.20675
203.8764, 92.77744
204.3585, 94.46317
204.8406, 96.26672
205.3227, 98.11346
205.8048, 99.86790
206.2870, 101.7608
206.7691, 104.0568
207.2512, 106.7712
207.7333, 109.4794
208.2154, 111.6186
208.6975, 113.0513
209.1797, 114.7331
209.6618, 116.9250
210.1439, 119.3552
210.6260, 121.8786
211.1081, 124.4740
211.5902, 127.2262
212.0724, 130.3278
212.5545, 133.9576
213.0366, 137.3278
213.5187, 139.9998
214.0008, 142.6767
214.4829, 145.8313
214.9651, 149.5296
215.4472, 153.5168
215.9293, 157.4476
216.4114, 161.3980
216.8935, 165.1122
217.3756, 168.2797
217.8578, 171.4722
218.3399, 175.1772
218.8220, 179.4505
219.3041, 183.9600
219.7862, 188.1404
220.2683, 191.5962
220.7505, 195.5072
221.2326, 200.1455
221.7147, 205.0287
222.1968, 209.8488
222.6789, 214.5148
223.1610, 219.0550
223.6432, 223.5290
224.1253, 228.0738
224.6074, 232.1763
225.0895, 235.8116
225.5716, 239.0365
226.0537, 241.8677
226.5358, 244.3215
227.0180, 246.4349
227.5001, 248.3258
227.9822, 250.1895
228.4643, 250.9854
228.9464, 250.2549
229.4285, 248.6013
229.9107, 246.5778
230.3928, 244.3055
230.8749, 241.7915
231.3570, 239.0781
231.8391, 236.2001
232.3212, 232.8887
232.8034, 228.8835
233.2855, 224.5130
233.7676, 220.1817
234.2497, 215.9685
234.7318, 211.7646
235.2139, 207.4317
235.6961, 202.9883
236.1782, 198.4480
236.6603, 193.5111
237.1424, 188.5746
237.6245, 184.1724
238.1066, 180.3325
238.5888, 177.0857
239.0709, 174.6272
239.5530, 172.7909
240.0351, 171.1838
240.5172, 169.5662
240.9993, 168.1110
241.4815, 167.1911
241.9636, 166.9090
242.4457, 166.9571
242.9278, 167.4024
243.4099, 168.0096
243.8920, 168.2376
244.3742, 167.4261
244.8563, 166.1458
245.3384, 165.8759
245.8205, 167.1507
246.3026, 168.2303
246.7847, 167.9426
247.2668, 166.8613
247.7490, 165.8574
248.2311, 165.2871
248.7132, 165.0680
249.1953, 165.0000
249.6774, 165.0953
250.1595, 165.3357
250.6417, 165.6089
251.1238, 166.0226
251.6059, 166.7563
252.0880, 167.9529
252.5701, 169.4421
253.0522, 170.7434
253.5344, 171.5186
254.0165, 172.7972
254.4986, 174.9578
254.9807, 177.6620
255.4628, 180.4820
255.9449, 183.1625
256.4271, 186.0785
256.9092, 190.1937
257.3913, 195.9412
257.8734, 202.1484
258.3555, 208.4071
258.8376, 214.9733
259.3198, 222.5986
259.8019, 231.5797
260.2840, 240.5743
260.7661, 247.0565
261.2482, 251.8530
261.7303, 251.9458
262.2125, 246.4946
262.6946, 237.5130
263.1767, 225.7883
263.6588, 211.7442
264.1409, 197.0454
264.6230, 184.4099
265.1052, 173.9885
265.5873, 165.6719
266.0694, 159.6820
266.5515, 155.2210
267.0336, 151.9975
267.5157, 149.8357
267.9979, 148.3995
268.4800, 147.2502
268.9621, 146.5462
269.4442, 145.8111
269.9263, 144.7935
270.4084, 143.9312
270.8906, 143.6286
271.3727, 143.8731
271.8548, 144.2415
272.3369, 144.1781
272.8190, 143.4133
273.3011, 143.1406
273.7833, 143.6249
274.2654, 144.2763
274.7475, 144.8397
275.2296, 145.2633
275.7117, 145.5536
276.1938, 145.6887
276.6760, 145.6080
277.1581, 145.7657
277.6402, 146.3325
278.1223, 146.9219
278.6044, 147.2711
279.0865, 147.4603
279.5686, 147.8024
280.0508, 148.5811
280.5329, 149.8083
281.0150, 150.7889
281.4971, 151.4663
281.9792, 152.0130
282.4613, 152.3919
282.9435, 152.6839
283.4256, 153.0420
283.9077, 153.5562
284.3898, 154.2285
284.8719, 155.0600
285.3540, 156.4351
285.8362, 157.5209
286.3183, 157.9052
286.8004, 157.8666
287.2825, 157.8957
287.7646, 158.2414
288.2467, 158.8376
288.7289, 159.4700
289.2110, 159.9823
289.6931, 160.7128
290.1752, 161.8342
290.6573, 163.1730
291.1394, 164.5263
291.6216, 165.8271
292.1037, 167.0089
292.5858, 167.9232
293.0679, 168.3850
293.5500, 168.9309
294.0321, 169.5084
294.5143, 170.2412
294.9964, 171.3226
295.4785, 172.8078
295.9606, 174.4798
296.4427, 176.0686
296.9248, 177.6086
297.4070, 178.9090
297.8891, 179.7858
298.3712, 180.5255
298.8533, 181.3689
299.3354, 182.3511
299.8175, 183.3849
300.2997, 184.3451
300.7818, 185.1971
301.2639, 186.3845
301.7460, 188.3297
302.2281, 190.2627
302.7102, 191.4883
303.1924, 192.0843
303.6745, 192.8914
304.1566, 194.6647
304.6387, 197.3275
305.1208, 199.3285
305.6029, 200.1126
306.0851, 200.8506
306.5672, 202.1747
307.0493, 203.9560
307.5314, 205.7346
308.0135, 207.2625
308.4956, 208.5792
308.9778, 209.8314
309.4599, 210.8323
309.9420, 212.0054
310.4241, 213.5197
310.9062, 215.2960
311.3883, 217.2561
311.8705, 219.4248
312.3526, 221.5608
312.8347, 223.0161
313.3168, 223.5139
313.7989, 224.1296
314.2810, 225.0159
314.7632, 226.1556
315.2453, 227.6327
315.7274, 229.4843
316.2095, 231.3970
316.6916, 232.9547
317.1737, 234.1065
317.6559, 235.1100
318.1380, 235.6552
318.6201, 236.2560
319.1022, 237.5322
319.5843, 239.5290
320.0664, 241.5702
320.5485, 243.0026
321.0306, 243.7546
321.5128, 244.7157
321.9949, 246.0408
322.4770, 247.4407
322.9591, 248.7426
323.4412, 249.9480
323.9233, 251.1648
324.4055, 252.4815
324.8876, 253.8630
325.3697, 255.0074
325.8518, 255.5905
326.3339, 256.3255
326.8160, 257.5653
327.2982, 259.1522
327.7803, 260.7580
328.2624, 262.2358
328.7445, 263.6347
329.2266, 265.0884
329.7087, 266.5758
330.1909, 268.1433
330.6730, 270.0326
331.1551, 271.9213
331.6372, 273.2992
332.1193, 274.0116
332.6014, 274.4748
333.0836, 275.2335
333.5657, 276.2459
334.0478, 277.8228
334.5299, 280.4587
335.0120, 283.3370
335.4941, 285.7321
335.9763, 287.5794
336.4584, 289.4105
336.9405, 291.7144
337.4226, 294.5508
337.9047, 297.3206
338.3868, 300.1425
338.8690, 302.8249
339.3511, 305.1872
339.8332, 307.3211
340.3153, 309.4259
340.7974, 311.5825
341.2795, 313.8493
341.7617, 316.6248
342.2438, 319.8241
342.7259, 323.5309
343.2080, 328.2749
343.6901, 333.4260
344.1722, 337.9082
344.6544, 341.2454
345.1365, 344.0552
345.6186, 347.6045
346.1007, 352.5349
346.5828, 357.3028
347.0649, 361.3791
347.5471, 365.5630
348.0292, 370.7275
348.5113, 376.9277
348.9934, 383.4518
349.4755, 389.3377
349.9576, 394.3679
350.4398, 399.7498
350.9219, 405.1483
351.4040, 411.1205
351.8861, 418.1265
352.3682, 425.9520
352.8503, 434.0263
353.3325, 441.9018
353.8146, 449.5723
354.2967, 457.2166
354.7788, 464.8359
355.2609, 472.4007
355.7430, 479.4141
356.2252, 486.4804
356.7073, 494.6404
357.1894, 504.3918
357.6715, 515.0443
358.1536, 524.9496
358.6357, 533.3231
359.1179, 542.1245
359.5999, 551.5832
360.0821, 561.3748
360.5642, 571.2516
361.0463, 581.1789
361.5284, 591.0853
362.0105, 600.9422
362.4926, 610.7302
362.9748, 620.5740
363.4569, 630.6019
363.9390, 640.5463
364.4211, 650.2548
364.9032, 659.8183
365.3853, 669.2434
365.8675, 678.5145
366.3496, 687.6786
366.8317, 697.1531
367.3138, 706.4163
367.7959, 716.7579
368.2780, 729.8300
368.7602, 743.5576
369.2423, 755.3111
369.7244, 763.8650
370.2065, 770.4792
370.6886, 777.5406
371.1707, 785.0984
371.6529, 792.9754
372.1350, 801.9320
372.6171, 810.6347
373.0992, 818.0721
373.5813, 824.1621
374.0634, 829.9738
374.5456, 836.8915
375.0277, 845.0195
375.5098, 851.6936
375.9919, 856.0452
376.4740, 859.7040
376.9561, 863.7343
377.4383, 867.7220
377.9204, 870.5632
378.4025, 871.2829
378.8846, 870.6382
379.3667, 870.8905
379.8488, 872.5842
380.3310, 873.7521
380.8131, 873.3826
381.2952, 872.1957
381.7773, 870.7863
382.2594, 869.2604
382.7415, 867.7357
383.2237, 866.2189
383.7058, 864.7084
384.1879, 863.7249
384.6700, 863.6317
385.1521, 863.8972
385.6342, 863.9722
386.1164, 863.8773
386.5985, 863.9678
387.0806, 864.2116
387.5627, 864.8027
388.0448, 866.3580
388.5269, 869.1315
389.0091, 872.1657
389.4912, 874.6374
389.9733, 876.8568
390.4554, 879.5572
390.9375, 883.1586
391.4196, 887.0475
391.9018, 890.4420
392.3839, 893.4699
392.8660, 897.1880
393.3481, 902.1301
393.8302, 908.0062
394.3123, 914.2689
394.7945, 921.0779
395.2766, 927.7239
395.7587, 933.4131
396.2408, 938.8735
396.7229, 945.4319
397.2050, 953.5156
397.6872, 962.0215
398.1693, 969.9057
398.6514, 977.1006
399.1335, 983.8754
399.6156, 989.8420
400.0977, 995.7755
400.5798, 1002.382
401.0620, 1009.528
401.5441, 1016.440
402.0262, 1022.519
402.5083, 1028.083
402.9904, 1034.652
403.4725, 1043.244
403.9547, 1051.433
404.4368, 1058.809
404.9189, 1065.528
405.4010, 1071.583
405.8831, 1076.982
406.3652, 1082.152
406.8474, 1087.712
407.3295, 1093.772
407.8116, 1099.837
408.2937, 1106.535
408.7758, 1112.673
409.2579, 1117.572
409.7401, 1121.312
410.2222, 1124.280
410.7043, 1126.693
411.1864, 1128.658
411.6685, 1131.219
412.1506, 1135.331
412.6328, 1138.860
413.1149, 1141.673
413.5970, 1143.681
414.0791, 1144.650
414.5612, 1144.535
415.0433, 1143.859
415.5255, 1143.461
416.0076, 1143.522
416.4897, 1143.224
416.9718, 1142.810
417.4539, 1141.756
417.9360, 1139.428
418.4182, 1136.120
418.9003, 1132.879
419.3824, 1130.602
419.8645, 1128.970
420.3466, 1126.529
420.8287, 1123.174
421.3109, 1119.199
421.7930, 1114.326
422.2751, 1109.123
422.7572, 1104.488
423.2393, 1100.896
423.7214, 1096.851
424.2036, 1090.324
424.6857, 1081.434
425.1678, 1072.987
425.6499, 1065.738
426.1320, 1058.984
426.6141, 1052.021
427.0963, 1044.896
427.5784, 1037.844
428.0605, 1031.198
428.5426, 1024.584
429.0247, 1017.196
429.5068, 1008.874
429.9890, 1001.117
430.4711, 995.2637
430.9532, 990.6376
431.4353, 984.9914
431.9174, 977.8323
432.3995, 970.3611
432.8817, 963.4004
433.3638, 956.5681
433.8459, 948.7203
434.3280, 939.3956
434.8101, 929.8892
435.2922, 922.0338
435.7744, 916.2207
436.2565, 910.7399
436.7386, 906.2656
437.2207, 901.5131
437.7028, 895.1118
438.1849, 887.4704
438.6671, 880.4073
439.1492, 875.2484
439.6313, 871.5754
440.1134, 867.0589
440.5955, 860.8421
441.0776, 854.8199
441.5598, 849.0751
442.0418, 843.7074
442.5240, 839.0342
443.0061, 835.0755
443.4882, 831.2469
443.9703, 826.7535
444.4524, 821.3401
444.9345, 816.4307
445.4167, 811.8135
445.8988, 807.9426
446.3809, 805.3289
446.8630, 803.5863
447.3451, 801.9417
447.8272, 799.9465
448.3094, 797.8606
448.7915, 796.5310
449.2736, 796.4908
449.7557, 795.6588
450.2378, 792.5632
450.7199, 789.1119
451.2021, 786.6144
451.6842, 785.2184
452.1663, 784.2925
452.6484, 783.5858
453.1305, 782.9881
453.6126, 781.9060
454.0948, 780.0172
454.5769, 778.3539
455.0590, 778.0182
455.5411, 778.3510
456.0232, 778.1251
456.5053, 776.4812
456.9875, 775.0338
457.4696, 775.4000
457.9517, 777.2302
458.4338, 778.9111
458.9159, 779.8778
459.3980, 780.5416
459.8802, 781.3468
460.3623, 782.1747
460.8444, 783.8457
461.3265, 787.0945
461.8086, 790.8375
462.2907, 794.1181
462.7729, 796.9134
463.2550, 799.6847
463.7371, 802.7897
464.2192, 806.1159
464.7013, 809.1180
465.1834, 813.1893
465.6656, 815.2078
466.1477, 813.9836
466.6298, 810.8747
467.1119, 807.0793
467.5940, 802.9854
468.0761, 798.7705
468.5583, 794.7559
469.0404, 791.1020
469.5225, 786.3823
470.0046, 778.9473
470.4867, 772.1476
470.9688, 766.9742
471.4510, 763.1450
471.9331, 760.1758
472.4152, 757.8518
472.8973, 756.1398
473.3794, 755.2092
473.8615, 755.3939
474.3437, 754.9221
474.8258, 752.7918
475.3079, 750.4402
475.7900, 748.5836
476.2721, 747.2920
476.7542, 746.5042
477.2364, 746.6178
477.7185, 747.1342
478.2006, 746.8693
478.6827, 745.7354
479.1648, 744.3186
479.6469, 742.6375
480.1291, 740.9995
480.6112, 740.0057
481.0933, 739.9466
481.5754, 739.8024
482.0575, 738.9044
482.5396, 737.6094
483.0217, 736.6277
483.5038, 736.1136
483.9860, 735.6476
484.4681, 734.9009
484.9502, 733.8487
485.4323, 732.2682
485.9144, 729.6912
486.3965, 727.1179
486.8787, 724.9407
487.3608, 723.0563
487.8429, 721.2928
488.3250, 719.5734
488.8071, 717.8409
489.2892, 716.0686
489.7714, 714.5632
490.2535, 712.1656
490.7356, 707.7623
491.2177, 703.6563
491.6998, 701.3339
492.1819, 700.3075
492.6641, 699.2009
493.1462, 697.1487
493.6283, 694.4459
494.1104, 691.9396
494.5925, 689.7020
495.0746, 687.4848
495.5568, 685.1336
496.0389, 682.8690
496.5210, 680.8007
497.0031, 678.9591
497.4852, 677.4059
497.9673, 676.4688
498.4495, 675.8467
498.9316, 674.7034
499.4137, 672.9628
499.8958, 670.8805
500.3779, 668.1202
500.8600, 665.2659
501.3422, 663.5549
501.8243, 663.4947
502.3064, 663.5914
502.7885, 663.1356
503.2706, 662.3239
503.7527, 661.4282
504.2349, 660.5067
504.7170, 659.7288
505.1991, 659.3023
505.6812, 659.2515
506.1633, 659.0486
506.6454, 658.4073
507.1276, 657.9500
507.6097, 658.0728
508.0918, 658.4805
508.5739, 658.6139
509.0560, 658.2845
509.5381, 657.9573
510.0203, 658.4828
510.5024, 660.3174
510.9845, 661.4432
511.4666, 661.0332
511.9487, 660.7298
512.4308, 661.4593
512.9130, 662.7361
513.3951, 663.4747
513.8772, 663.0189
514.3593, 662.0789
514.8414, 662.0430
515.3235, 663.0560
515.8057, 663.8635
516.2878, 664.1520
516.7699, 664.1595
517.2520, 664.0683
517.7341, 663.8854
518.2162, 663.6481
518.6984, 663.5883
519.1805, 663.3547
519.6626, 662.2064
520.1447, 660.2327
520.6268, 658.7631
521.1089, 658.5802
521.5911, 659.1055
522.0732, 659.0370
522.5553, 658.3052
523.0374, 657.3500
523.5195, 656.2149
524.0016, 654.9121
524.4838, 653.5012
524.9659, 651.9594
525.4480, 650.1093
525.9301, 647.7853
526.4122, 645.1264
526.8943, 642.8148
527.3765, 641.5868
527.8586, 639.6503
528.3407, 635.8948
528.8228, 632.0665
529.3049, 629.8419
529.7870, 629.2205
530.2692, 628.7458
530.7513, 627.1676
531.2334, 624.6434
531.7155, 621.9830
532.1976, 618.9869
532.6797, 616.3447
533.1619, 614.6604
533.6440, 613.3368
534.1261, 611.7431
534.6082, 609.7578
535.0903, 607.7753
535.5724, 606.3192
536.0546, 604.9908
536.5367, 602.6427
537.0188, 599.0405
537.5009, 595.7380
537.9830, 593.9888
538.4651, 593.5254
538.9473, 592.7405
539.4294, 591.1023
539.9115, 589.8309
540.3936, 589.7545
540.8757, 589.9945
541.3578, 589.3645
541.8400, 587.6901
542.3221, 585.7260
542.8042, 584.2020
543.2863, 583.1183
543.7684, 582.4509
544.2505, 582.4772
544.7326, 582.6227
545.2147, 582.9049
545.6968, 583.1937
546.1790, 583.4573
546.6611, 583.6606
547.1432, 583.2044
547.6253, 583.7812
548.1074, 583.9730
548.5895, 583.8082
549.0717, 581.7852
549.5538, 582.4933
550.0359, 582.3096
550.5180, 582.2282
551.0001, 583.7345
551.4822, 582.7264
551.9644, 584.4995
552.4465, 585.3647
552.9286, 586.8564
553.4107, 586.9078
553.8928, 587.8082
554.3749, 588.5690
554.8571, 589.4775
555.3392, 590.5430
555.8213, 591.9600
556.3034, 594.5838
556.7855, 596.4680
557.2676, 596.5174
557.7498, 595.8504
558.2319, 595.6945
558.7140, 596.3766
559.1961, 597.6091
559.6782, 599.2005
560.1603, 601.1520
560.6425, 602.6964
561.1246, 603.7536
561.6067, 604.4704
562.0888, 604.3060
562.5709, 604.1581
563.0530, 605.3351
563.5352, 608.1981
564.0173, 610.9667
564.4994, 611.8485
564.9815, 611.4050
565.4636, 611.4174
565.9457, 612.0526
566.4279, 613.2141
566.9100, 615.2579
567.3921, 617.7090
567.8742, 618.9323
568.3563, 618.0553
568.8384, 617.4145
569.3206, 618.0718
569.8027, 619.2587
570.2848, 620.1407
570.7669, 620.5485
571.2490, 620.5776
571.7311, 620.2511
572.2133, 619.6193
572.6954, 619.2618
573.1775, 619.4525
573.6596, 619.5463
574.1417, 619.3637
574.6238, 619.1205
575.1060, 619.1172
575.5881, 619.3214
576.0702, 619.2922
576.5523, 618.4508
577.0344, 617.1020
577.5165, 616.4900
577.9987, 616.8181
578.4808, 617.0021
578.9629, 616.5818
579.4450, 615.7600
579.9271, 614.8704
580.4092, 613.9388
580.8914, 612.7874
581.3735, 611.2214
581.8556, 609.4809
582.3377, 607.7859
582.8198, 606.1619
583.3019, 604.5556
583.7841, 602.9089
584.2662, 601.3235
584.7483, 600.1088
585.2304, 600.0195
585.7125, 599.0090
586.1946, 596.4218
586.6768, 593.5466
587.1589, 591.0320
587.6410, 588.9161
588.1231, 587.0516
588.6052, 585.3749
589.0873, 583.8406
589.5695, 582.4998
590.0516, 581.4483
590.5337, 579.8635
591.0158, 577.4830
591.4979, 574.6104
591.9800, 571.3414
592.4622, 567.8012
592.9443, 564.5237
593.4264, 562.0410
593.9085, 559.5623
594.3906, 556.2682
594.8727, 552.4847
595.3549, 549.1974
595.8370, 546.7635
596.3191, 544.4414
596.8012, 541.2584
597.2833, 537.0328
597.7654, 533.1946
598.2476, 530.1945
598.7297, 527.0046
599.2118, 523.4238
599.6939, 519.4050
600.1760, 514.6981
600.6581, 509.2987
601.1403, 503.9341
601.6224, 499.4366
602.1045, 495.7579
602.5866, 492.2615
603.0687, 489.1776
603.5508, 485.7897
604.0330, 481.7041
604.5151, 477.1232
604.9972, 472.2184
605.4793, 466.8700
605.9614, 461.7761
606.4435, 457.4006
606.9257, 453.3987
607.4078, 449.4382
607.8899, 445.4483
608.3720, 441.0871
608.8541, 436.0313
609.3362, 430.6855
609.8184, 426.3057
610.3005, 423.7264
610.7826, 420.9337
611.2647, 418.1450
611.7468, 414.9701
612.2289, 410.9477
612.7111, 406.3216
613.1932, 401.6849
613.6753, 397.3047
614.1574, 393.2977
614.6395, 389.9523
615.1216, 387.2985
615.6038, 384.6660
616.0859, 381.9356
616.5680, 379.1725
617.0501, 376.4016
617.5322, 373.6213
618.0143, 370.8474
618.4965, 367.9497
618.9786, 365.2087
619.4607, 362.8650
619.9428, 360.7789
620.4249, 358.7297
620.9070, 356.6537
621.3892, 354.4582
621.8713, 351.9773
622.3534, 349.2154
622.8355, 347.1337
623.3176, 346.5112
623.7997, 345.5816
624.2819, 343.8735
624.7640, 341.9020
625.2461, 340.0848
625.7282, 338.5069
626.2103, 337.0815
626.6924, 335.8348
627.1745, 334.6705
627.6566, 333.2876
628.1387, 331.6558
628.6208, 330.1122
629.1030, 328.4228
629.5851, 327.8083
630.0672, 328.2148
630.5493, 328.0915
631.0314, 327.4669
631.5135, 324.8394
631.9957, 324.7979
632.4778, 323.7203
632.9599, 322.6001
633.4420, 322.9229
633.9241, 318.8529
634.4063, 316.5620
634.8884, 315.4087
635.3705, 315.5575
635.8526, 315.4311
636.3347, 314.9703
636.8168, 314.2982
637.2990, 313.2065
637.7811, 312.0715
638.2632, 311.4306
638.7453, 311.4222
639.2274, 311.3844
639.7095, 310.6973
640.1917, 309.7430
640.6738, 309.2194
641.1559, 309.1646
641.6380, 309.2920
642.1201, 309.5544
642.6022, 309.7217
643.0844, 309.2303
643.5665, 307.5900
644.0486, 306.2980
644.5307, 305.3748
645.0128, 304.7792
645.4949, 304.7128
645.9771, 304.9131
646.4592, 304.8750
646.9413, 304.3703
647.4234, 303.7032
647.9055, 303.3572
648.3876, 303.3216
648.8698, 303.0421
649.3519, 302.3747
649.8340, 301.6904
650.3161, 301.1603
650.7982, 300.7883
651.2803, 300.6328
651.7625, 300.8344
652.2446, 300.8973
652.7267, 300.5915
653.2088, 300.0727
653.6909, 299.4688
654.1730, 298.8143
654.6552, 298.0982
655.1373, 297.2833
655.6194, 296.5508
656.1015, 296.4544
656.5836, 297.4204
657.0657, 297.9218
657.5479, 297.4962
658.0300, 296.9502
658.5121, 296.5536
658.9942, 296.2973
659.4763, 296.1689
659.9584, 296.2332
660.4406, 296.1890
660.9227, 295.6466
661.4048, 294.7990
661.8869, 294.1323
662.3690, 293.7194
662.8511, 293.4337
663.3333, 293.1885
663.8154, 292.9962
664.2975, 292.9113
664.7796, 293.0558
665.2617, 293.1376
665.7438, 293.0833
666.2260, 293.0244
666.7081, 293.1704
667.1902, 293.3857
667.6723, 293.2768
668.1544, 292.5884
668.6365, 291.7178
669.1187, 291.3946
669.6008, 291.5812
670.0829, 291.3786
670.5650, 290.6112
671.0471, 289.5605
671.5292, 288.1035
672.0114, 286.5540
672.4935, 286.0307
672.9756, 287.3750
673.4577, 288.2972
673.9398, 287.7821
674.4219, 286.7697
674.9041, 286.0555
675.3862, 285.7297
675.8683, 285.7117
676.3504, 286.0102
676.8325, 286.2753
677.3146, 285.4853
677.7968, 283.2757
678.2789, 281.8213
678.7610, 281.8596
679.2431, 282.0239
679.7252, 281.4104
680.2073, 280.3488
680.6895, 279.5065
681.1716, 279.0625
681.6537, 278.7404
682.1358, 278.3487
682.6179, 277.9981
683.1000, 278.0294
683.5822, 278.3617
684.0643, 278.2553
684.5464, 277.1651
685.0285, 275.5122
685.5106, 274.5349
685.9927, 274.6347
686.4749, 274.4711
686.9570, 273.5659
687.4391, 272.8248
687.9212, 272.9063
688.4033, 273.3754
688.8854, 273.3736
689.3676, 272.5515
689.8497, 271.5706
690.3318, 270.8267
690.8139, 270.3705
691.2960, 270.5206
691.7781, 271.2705
692.2603, 271.6719
692.7424, 271.0366
693.2245, 269.8752
693.7066, 269.5596
694.1887, 270.7844
694.6708, 271.4583
695.1530, 271.1366
695.6351, 270.7593
696.1172, 270.7307
696.5993, 270.9727
697.0814, 271.3520
697.5635, 271.8328
698.0457, 272.2160
698.5278, 272.1641
699.0099, 271.8566
699.4920, 271.8703
699.9741, 272.2520
700.4562, 272.8798
700.9384, 273.7639
701.4205, 274.7645
701.9026, 275.5978
702.3847, 276.2801
702.8668, 276.7203
703.3489, 276.6519
703.8311, 276.6194
704.3132, 276.8556
704.7953, 277.3212
705.2774, 277.9671
705.7595, 278.7621
706.2416, 279.5946
706.7238, 280.3524
707.2059, 281.0390
707.6880, 281.6548
708.1701, 282.1809
708.6522, 282.7211
709.1343, 283.1639
709.6164, 283.8329
710.0985, 285.4625
710.5806, 288.2891
711.0627, 290.2973
711.5449, 290.6864
712.0270, 290.9634
712.5091, 291.8868
712.9912, 293.1189
713.4733, 294.0885
713.9554, 294.6977
714.4376, 295.3594
714.9197, 296.5294
715.4018, 298.0567
715.8839, 299.3506
716.3660, 300.3699
716.8481, 301.4136
717.3303, 302.5518
717.8124, 303.7656
718.2945, 305.1096
718.7766, 306.5625
719.2587, 307.8210
719.7408, 308.5968
720.2230, 309.4798
720.7051, 310.6905
721.1872, 312.1366
721.6693, 313.7814
722.1514, 315.5660
722.6335, 317.3411
723.1157, 318.9961
723.5978, 320.5595
724.0799, 322.1091
724.5620, 323.6648
725.0441, 325.0430
725.5262, 326.0155
726.0084, 327.1387
726.4905, 328.9246
726.9726, 331.2550
727.4547, 333.6047
727.9368, 336.0605
728.4189, 338.3754
728.9011, 340.3719
729.3832, 342.2761
729.8653, 344.2831
730.3474, 346.3823
730.8295, 348.3883
731.3116, 350.1701
731.7938, 352.0511
732.2759, 354.8544
732.7580, 358.5993
733.2401, 361.4331
733.7222, 362.8691
734.2043, 364.2708
734.6865, 366.3174
735.1686, 368.9052
735.6507, 371.8298
736.1328, 375.2304
736.6149, 378.4286
737.0970, 381.0630
737.5792, 383.6732
738.0613, 386.6486
738.5434, 389.8974
739.0255, 393.2013
739.5076, 396.5070
739.9897, 399.8249
740.4719, 403.0722
740.9540, 406.3129
741.4361, 410.1668
741.9182, 414.7452
742.4003, 419.3229
742.8824, 423.7558
743.3646, 427.8966
743.8467, 431.2686
744.3288, 433.8477
744.8109, 437.2650
745.2930, 442.1821
745.7751, 447.3419
746.2573, 452.3887
746.7394, 457.3154
747.2215, 462.0541
747.7036, 466.6487
748.1857, 471.3839
748.6678, 476.4221
749.1500, 481.7581
749.6321, 487.4259
750.1142, 493.4374
750.5963, 499.4398
751.0784, 505.3437
751.5605, 511.2838
752.0427, 517.4921
752.5248, 523.8713
753.0069, 530.0092
753.4890, 535.5814
753.9711, 541.4206
754.4532, 547.6574
754.9354, 554.2009
755.4175, 561.0299
755.8996, 568.1003
756.3817, 575.3825
756.8638, 582.8883
757.3459, 590.6434
757.8281, 598.8745
758.3102, 607.3918
758.7923, 615.1409
759.2744, 622.0212
759.7565, 629.2747
760.2386, 637.5567
760.7208, 646.4651
761.2029, 655.3162
761.6850, 664.0328
762.1671, 673.1165
762.6492, 683.3240
763.1313, 692.9294
763.6135, 700.9023
764.0956, 708.2781
764.5777, 716.2562
765.0598, 724.9595
765.5419, 733.7061
766.0240, 741.8129
766.5062, 749.9303
766.9883, 759.3450
767.4704, 769.6884
767.9525, 778.9919
768.4346, 786.7803
768.9167, 794.4265
769.3989, 803.1149
769.8810, 812.7028
770.3631, 821.9045
770.8452, 830.6683
771.3273, 839.1962
771.8094, 847.6724
772.2916, 855.7689
772.7737, 863.3392
773.2558, 870.3218
773.7379, 876.6169
774.2200, 882.1723
774.7021, 887.1116
775.1843, 890.9745
775.6664, 894.5535
776.1485, 899.1488
776.6306, 904.5530
777.1127, 909.4191
777.5948, 913.1481
778.0770, 916.6899
778.5591, 921.5577
779.0412, 927.8471
779.5233, 933.4972
780.0054, 937.8378
780.4875, 942.9808
780.9697, 950.3508
781.4518, 958.2521
781.9339, 964.8817
782.4160, 970.3743
782.8981, 976.0445
783.3802, 983.5946
783.8624, 989.8053
784.3445, 994.1127
784.8266, 995.5650
785.3087, 993.1568
785.7908, 986.6650
786.2729, 975.9357
786.7551, 960.7043
787.2372, 941.9156
787.7193, 920.4425
788.2014, 896.4185
788.6835, 874.9870
789.1656, 856.8981
789.6478, 840.7178
790.1299, 825.3223
790.6120, 811.5798
791.0941, 802.0457
791.5762, 797.7384
792.0583, 794.2385
792.5404, 790.9160
793.0225, 788.7961
793.5046, 788.3568
793.9868, 789.3990
794.4689, 791.8515
794.9510, 795.5829
795.4331, 799.9395
795.9152, 805.6226
796.3973, 810.7946
796.8795, 812.9845
797.3616, 812.0170
797.8437, 807.2309
798.3258, 798.4973
798.8079, 785.0947
799.2900, 766.2464
799.7722, 742.2164
800.2543, 714.9885
800.7364, 682.6104
801.2185, 650.8478
801.7006, 619.1644
802.1827, 589.2800
802.6649, 562.3600
803.1470, 537.9477
803.6291, 515.3518
804.1112, 494.4253
804.5933, 475.6353
805.0754, 459.8860
805.5576, 446.0932
806.0397, 433.5717
806.5218, 422.0871
807.0039, 411.0905
807.4860, 400.4773
807.9681, 390.5153
808.4503, 381.6166
808.9324, 373.6409
809.4145, 365.9542
809.8966, 358.5163
810.3787, 351.4087
810.8608, 344.6695
811.3430, 338.2868
811.8251, 332.3318
812.3072, 326.7635
812.7893, 321.2270
813.2714, 315.6562
813.7535, 310.2430
814.2357, 304.8679
814.7178, 299.8118
815.1999, 295.3468
815.6820, 291.3850
816.1641, 287.8449
816.6462, 284.7238
817.1284, 281.4593
817.6105, 277.2666
818.0926, 272.7352
818.5747, 269.1678
819.0568, 266.4353
819.5389, 263.3565
820.0211, 259.4826
820.5032, 255.7314
820.9853, 253.2647
821.4674, 251.9540
821.9495, 249.8536
822.4316, 246.4785
822.9138, 243.3288
823.3959, 240.7429
823.8780, 238.3877
824.3601, 236.1427
824.8422, 233.9576
825.3243, 231.6781
825.8065, 229.1132
826.2886, 226.8811
826.7707, 225.5963
827.2528, 224.4151
827.7349, 222.4536
828.2170, 220.0161
828.6992, 217.8802
829.1813, 216.3110
829.6634, 215.0305
830.1455, 213.7843
830.6276, 212.5742
831.1097, 211.3172
831.5919, 210.0259
832.0740, 209.1645
832.5561, 208.9247
833.0382, 208.9242
833.5203, 208.8353
834.0024, 208.6581
834.4846, 208.3788
834.9667, 207.6655
835.4488, 207.4047
835.9309, 207.7700
836.4130, 208.4270
836.8951, 209.2629
837.3773, 210.2542
837.8594, 211.3173
838.3415, 212.3907
838.8236, 213.9064
839.3057, 216.2043
839.7878, 218.9589
840.2700, 221.8822
840.7521, 225.0105
841.2342, 228.3708
841.7163, 232.0079
842.1984, 236.1639
842.6805, 240.9210
843.1627, 246.4670
843.6448, 253.3302
844.1269, 261.4719
844.6090, 270.8300
845.0911, 281.2109
845.5732, 293.1887
846.0554, 306.8483
846.5375, 322.4995
847.0196, 341.0347
847.5017, 362.8427
847.9838, 386.6699
848.4659, 414.6666
848.9481, 442.1922
849.4302, 468.1788
849.9123, 492.4598
850.3944, 514.6519
850.8765, 534.8780
851.3586, 554.5442
851.8408, 573.5394
852.3229, 593.1929
852.8050, 613.9746
853.2871, 636.5986
853.7692, 662.2325
854.2513, 690.9188
854.7335, 722.5650
855.2156, 756.7919
855.6977, 794.0699
856.1798, 834.7850
856.6619, 879.0102
857.1440, 926.7660
857.6262, 977.3902
858.1083, 1034.303
858.5904, 1099.590
859.0725, 1170.575
859.5546, 1245.617
860.0367, 1325.551
860.5189, 1397.858
861.0010, 1476.967
861.4831, 1529.107
861.9652, 1556.377
862.4473, 1548.732
862.9294, 1493.685
863.4116, 1397.676
863.8937, 1276.377
864.3758, 1127.144
864.8579, 976.0963
865.3400, 830.7983
865.8221, 699.0450
866.3043, 591.2167
866.7864, 504.9767
867.2685, 436.5964
867.7506, 384.1201
868.2327, 343.1975
868.7148, 310.8263
869.1970, 285.9401
869.6791, 265.2285
870.1612, 248.7387
870.6433, 235.4398
871.1254, 225.4927
871.6075, 216.7155
872.0897, 207.3287
872.5718, 198.0812
873.0539, 191.6346
873.5360, 189.9270
874.0181, 186.5807
874.5002, 179.7733
874.9823, 173.4513
875.4644, 168.9164
875.9465, 165.5278
876.4286, 162.6832
876.9108, 160.2929
877.3929, 157.8321
877.8750, 154.7628
878.3571, 152.0170
878.8392, 150.2980
879.3214, 149.0727
879.8035, 147.7207
880.2856, 146.2262
880.7677, 144.8488
881.2498, 143.7148
881.7319, 142.7775
882.2141, 142.0266
882.6962, 141.4142
883.1783, 140.8438
883.6604, 140.2973
884.1425, 139.6282
884.6246, 138.7795
885.1068, 137.8420
885.5889, 136.8831
886.0710, 135.9374
886.5531, 135.3300
887.0352, 135.2161
887.5173, 134.9811
887.9995, 134.4741
888.4816, 133.9360
888.9637, 133.6121
889.4458, 133.3239
889.9279, 132.6456
890.4100, 131.4066
890.8922, 130.4548
891.3743, 130.1630
891.8564, 129.8834
892.3385, 129.2576
892.8206, 128.5292
893.3027, 128.0590
893.7849, 127.8075
894.2670, 127.3407
894.7491, 126.2135
895.2312, 125.2948
895.7133, 125.7678
896.1954, 126.7878
896.6776, 127.0584
897.1597, 126.5185
897.6418, 125.4824
898.1239, 124.0982
898.6060, 122.5637
899.0881, 121.0258
899.5703, 119.5669
900.0524, 118.6925
900.5345, 118.4405
901.0166, 118.0423
901.4987, 117.2721
901.9808, 116.5142
902.4630, 116.1348
902.9451, 115.9633
903.4272, 115.3684
903.9093, 113.9921
904.3914, 113.0208
904.8735, 112.7562
905.3557, 112.5230
905.8378, 112.0836
906.3199, 111.5611
906.8020, 111.1001
907.2841, 110.7035
907.7662, 110.2572
908.2484, 109.6161
908.7305, 109.0737
909.2126, 108.9035
909.6947, 108.7648
910.1768, 108.3141
910.6589, 107.6219
911.1411, 106.9243
911.6232, 106.3103
912.1053, 105.7305
912.5874, 105.0762
913.0695, 104.4671
913.5516, 104.1616
914.0338, 104.0618
914.5159, 103.8853
914.9980, 103.5552
915.4801, 103.0516
915.9622, 102.3206
916.4443, 101.5216
916.9265, 101.0430
917.4086, 100.8838
917.8907, 100.8003
918.3728, 100.8152
918.8549, 100.6566
919.3370, 100.1656
919.8192, 99.51675
920.3013, 98.93899
920.7834, 98.42943
921.2655, 97.94984
921.7476, 97.49696
922.2297, 97.07982
922.7119, 96.62727
923.1940, 96.28477
923.6761, 96.33810
924.1582, 96.51228
924.6403, 96.16230
925.1224, 95.05102
925.6046, 94.22424
926.0867, 94.12595
926.5688, 94.16570
927.0509, 94.08733
927.5330, 93.93884
928.0151, 93.75785
928.4973, 93.57774
928.9794, 93.50236
929.4615, 93.65408
929.9436, 93.72282
930.4257, 93.34058
930.9078, 92.76332
931.3900, 92.33282
931.8721, 92.05866
932.3542, 91.88435
932.8363, 91.78352
933.3184, 91.71347
933.8005, 91.65083
934.2827, 91.56802
934.7648, 91.34730
935.2469, 91.01337
935.7290, 90.84715
936.2111, 90.90598
936.6932, 90.83787
937.1754, 90.39769
937.6575, 89.84437
938.1396, 89.69056
938.6217, 89.98694
939.1038, 90.03564
939.5859, 89.78121
940.0681, 89.40968
940.5502, 88.82780
941.0323, 88.33170
941.5144, 88.21480
941.9965, 88.39146
942.4786, 88.51147
942.9608, 88.65267
943.4429, 88.58147
943.9250, 88.02356
944.4071, 87.56345
944.8892, 87.46874
945.3713, 87.57553
945.8535, 87.79391
946.3356, 88.06051
946.8177, 88.07621
947.2998, 87.48061
947.7819, 87.02061
948.2640, 87.27147
948.7462, 87.64049
949.2283, 87.53307
949.7104, 87.10661
950.1925, 86.77104
950.6746, 86.65192
951.1567, 86.63586
951.6389, 86.70455
952.1210, 86.76559
952.6031, 86.64687
953.0852, 86.44458
953.5673, 86.39249
954.0494, 86.49548
954.5316, 86.56005
955.0137, 86.47827
955.4958, 86.40015
955.9779, 86.62107
956.4600, 87.04370
956.9421, 87.12777
957.4242, 86.88773
957.9063, 86.74912
958.3884, 86.82288
958.8705, 87.00307
959.3527, 87.22147
959.8348, 87.44662
960.3169, 87.59244
960.7990, 87.66930
961.2811, 87.57683
961.7632, 87.19711
962.2454, 86.98948
962.7275, 87.22924
963.2096, 87.55894
963.6917, 87.53273
964.1738, 87.20409
964.6559, 87.17723
965.1381, 87.88923
965.6202, 88.19411
966.1023, 87.57906
966.5844, 87.10934
967.0665, 87.34292
967.5486, 87.93703
968.0308, 88.53295
968.5129, 89.09525
968.9950, 89.32095
969.4771, 88.76991
969.9592, 88.37391
970.4413, 88.55772
970.9235, 88.91819
971.4056, 89.21456
971.8877, 89.40442
972.3698, 89.40267
972.8519, 89.18429
973.3340, 89.14770
973.8162, 89.72359
974.2983, 90.35812
974.7804, 90.53561
975.2625, 90.51885
975.7446, 90.71732
976.2267, 91.10931
976.7089, 91.37408
977.1910, 91.34989
977.6731, 91.37479
978.1552, 91.99574
978.6373, 92.78374
979.1194, 92.83977
979.6016, 92.42124
980.0837, 92.43008
980.5658, 93.01079
981.0479, 93.61089
981.5300, 93.86058
982.0121, 93.88815
982.4943, 93.82864
982.9764, 93.72932
983.4585, 93.89377
983.9406, 94.32264
984.4227, 94.81120
984.9048, 95.31015
985.3870, 95.61853
985.8691, 95.49554
986.3512, 95.14626
986.8333, 95.31794
987.3154, 96.11079
987.7975, 96.56078
988.2797, 96.53332
988.7618, 96.51205
989.2439, 96.69043
989.7260, 96.94918
990.2081, 97.15522
990.6902, 97.31484
991.1724, 97.49596
991.6545, 97.73343
992.1366, 97.90844
992.6187, 97.95103
993.1008, 98.02506
993.5829, 98.17061
994.0651, 98.41309
994.5472, 98.93714
995.0293, 99.75651
995.5114, 99.96137
995.9935, 98.75027
996.4756, 98.07655
996.9578, 98.66452
997.4399, 99.35020
997.9220, 99.49499
998.4041, 99.30634
998.8862, 99.05156
999.3683, 98.75807
999.8505, 98.77649
1000.333, 99.43075
1000.815, 100.0999
1001.297, 100.6380
1001.779, 101.0241
1002.261, 101.2602
1002.743, 101.3271
1003.225, 101.0880
1003.707, 100.5036
1004.190, 100.1581
1004.672, 100.6040
1005.154, 101.0877
1005.636, 101.0661
1006.118, 100.8281
1006.600, 100.6351
1007.082, 100.5659
1007.564, 100.7516
1008.046, 101.2449
1008.529, 101.6422
1009.011, 101.5511
1009.493, 101.2695
1009.975, 101.1065
1010.457, 101.0012
1010.939, 100.7907
1011.421, 100.5065
1011.903, 100.3562
1012.385, 100.4430
1012.868, 100.6432
1013.350, 100.8986
1013.832, 101.1325
1014.314, 101.1483
1014.796, 101.0260
1015.278, 101.0672
1015.760, 101.2777
1016.242, 101.2908
1016.725, 100.8780
1017.207, 100.3297
1017.689, 100.0670
1018.171, 100.0180
1018.653, 99.94674
1019.135, 99.85188
1019.617, 99.74558
1020.099, 99.63039
1020.581, 99.47506
1021.064, 99.23802
1021.546, 99.06377
1022.028, 99.31136
1022.510, 99.92484
1022.992, 100.2256
1023.474, 100.2059
1023.956, 100.1425
1024.438, 100.1015
1024.921, 100.0727
1025.403, 100.0541
1025.885, 100.0267
1026.367, 99.93279
1026.849, 99.76437
1027.331, 99.67210
1027.813, 99.67415
1028.295, 99.66711
1028.777, 99.66037
1029.260, 99.48310
1029.742, 98.92673
1030.224, 98.19267
1030.706, 97.88706
1031.188, 98.10650
1031.670, 98.22441
1032.152, 98.19200
1032.634, 98.21803
1033.116, 98.43823
1033.599, 98.57828
1034.081, 98.35937
1034.563, 97.91448
1035.045, 97.65697
1035.527, 97.61994
1036.009, 97.66816
1036.491, 97.90151
1036.973, 98.02359
1037.456, 97.87321
1037.938, 97.68485
1038.420, 97.66131
1038.902, 97.75448
1039.384, 97.80629
1039.866, 97.82969
1040.348, 97.77239
1040.830, 97.49856
1041.313, 97.33990
1041.795, 97.45779
1042.277, 97.65372
1042.759, 97.59605
1043.241, 97.49227
1043.723, 98.08381
1044.205, 99.85965
1044.687, 100.9868
1045.169, 101.2581
1045.651, 101.0457
1046.134, 99.98509
1046.616, 98.88484
1047.098, 98.42307
1047.580, 98.45670
1048.062, 98.52056
1048.544, 98.59806
1049.026, 98.62798
1049.508, 98.67393
1049.991, 98.57825
1050.473, 98.03049
1050.955, 97.54723
1051.437, 97.63467
1051.919, 98.12670
1052.401, 98.40294
1052.883, 98.13188
1053.365, 98.75841
1053.848, 102.4265
1054.330, 104.6927
1054.812, 102.6261
1055.294, 99.52516
1055.776, 97.98119
1056.258, 97.79661
1056.740, 98.04627
1057.222, 98.63372
1057.704, 99.19210
1058.187, 99.72132
1058.669, 100.0682
1059.151, 99.92187
1059.633, 99.77634
1060.115, 100.1839
1060.597, 100.9062
1061.079, 101.3717
1061.561, 101.4615
1062.043, 101.3521
1062.526, 100.7871
1063.008, 100.4425
1063.490, 100.7778
1063.972, 101.3259
1064.454, 101.7885
1064.936, 102.1001
1065.418, 102.1607
1065.900, 101.9475
1066.383, 101.8297
1066.865, 101.9317
1067.347, 102.1852
1067.829, 102.7338
1068.311, 103.2607
1068.793, 103.4818
1069.275, 103.4763
1069.757, 103.3460
1070.240, 103.1332
1070.722, 103.1928
1071.204, 103.9863
1071.686, 104.6720
1072.168, 104.7698
1072.650, 104.6826
1073.132, 104.6507
1073.614, 104.7205
1074.096, 104.9260
1074.578, 105.2644
1075.061, 105.6672
1075.543, 106.1580
1076.025, 106.6261
1076.507, 107.0057
1076.989, 107.3529
1077.471, 107.6938
1077.953, 108.0440
1078.435, 108.4213
1078.918, 108.8270
1079.400, 109.2607
1079.882, 109.8374
1080.364, 110.2012
1080.846, 109.9171
1081.328, 109.6395
1081.810, 109.8221
1082.292, 110.3246
1082.774, 111.0078
1083.257, 111.7927
1083.739, 112.5088
1084.221, 113.1131
1084.703, 113.6087
1085.185, 113.8975
1085.667, 114.1861
1086.149, 114.6182
1086.631, 115.1201
1087.114, 115.5482
1087.596, 115.9588
1088.078, 116.6381
1088.560, 117.7796
1089.042, 118.6374
1089.524, 118.6518
1090.006, 118.6036
1090.488, 118.9069
1090.970, 119.3910
1091.453, 119.9295
1091.935, 120.4731
1092.417, 120.9247
1092.899, 121.2471
1093.381, 121.6644
1093.863, 122.3963
1094.345, 123.0652
1094.827, 123.3258
1095.309, 123.6009
1095.792, 124.3171
1096.274, 125.2977
1096.756, 126.1642
1097.238, 126.8495
1097.720, 127.5509
1098.202, 128.5366
1098.684, 129.2607
1099.166, 129.2970
1099.649, 129.2672
1100.131, 129.5988
1100.613, 130.1484
1101.095, 130.7099
1101.577, 131.2467
1102.059, 131.6858
1102.541, 131.7695
1103.023, 132.1440
1103.505, 133.1792
1103.988, 134.2933
1104.470, 135.2723
1104.952, 136.0875
1105.434, 136.7423
1105.916, 137.2248
1106.398, 137.4364
1106.880, 137.0777
1107.362, 137.1255
1107.844, 138.1601
1108.327, 139.0774
1108.809, 139.4783
1109.291, 139.5812
1109.773, 139.3992
1110.255, 139.1082
1110.737, 139.1905
1111.219, 139.7455
1111.701, 140.4134
1112.184, 141.2779
1112.666, 142.0991
1113.148, 142.9230
1113.630, 143.5938
1114.112, 143.8904
1114.594, 144.0086
1115.076, 144.3156
1115.558, 144.8296
1116.041, 145.3433
1116.523, 145.9139
1117.005, 146.3798
1117.487, 146.6242
1117.969, 146.9037
1118.451, 147.3554
1118.933, 147.8932
1119.415, 148.4292
1119.897, 148.9544
1120.380, 149.3825
1120.862, 149.5405
1121.344, 150.0534
1121.826, 151.1427
1122.308, 152.1621
1122.790, 152.8948
1123.272, 153.4553
1123.754, 153.8913
1124.236, 154.2789
1124.719, 154.9009
1125.201, 155.8314
1125.683, 156.6236
1126.165, 157.2691
1126.647, 157.8132
1127.129, 158.2681
1127.611, 158.5892
1128.093, 158.6722
1128.576, 158.7723
1129.058, 159.4210
1129.540, 160.5798
1130.022, 161.4829
1130.504, 162.1151
1130.986, 162.5422
1131.468, 162.7325
1131.950, 163.1665
1132.432, 164.1163
1132.915, 165.1053
1133.397, 165.4706
1133.879, 165.5186
1134.361, 166.5634
1134.843, 168.4702
1135.325, 169.4024
1135.807, 169.2909
1136.289, 169.4373
1136.771, 170.2564
1137.254, 171.1558
1137.736, 171.6529
1138.218, 171.9668
1138.700, 172.4181
1139.182, 173.0341
1139.664, 173.9810
1140.146, 175.1858
1140.628, 176.4065
1141.111, 177.5496
1141.593, 178.3142
1142.075, 178.5417
1142.557, 178.7411
1143.039, 179.6695
1143.521, 180.8004
1144.003, 181.0295
1144.485, 180.8796
1144.968, 181.4867
1145.450, 182.7537
1145.932, 183.9949
1146.414, 184.9753
1146.896, 185.7434
1147.378, 186.2106
1147.860, 186.7388
1148.342, 187.8104
1148.824, 189.0242
1149.307, 189.9277
1149.789, 190.6112
1150.271, 191.2362
1150.753, 191.8659
1151.235, 192.5550
1151.717, 193.3047
1152.199, 194.2303
1152.681, 195.6172
1153.163, 196.9460
1153.646, 197.8442
1154.128, 198.5319
1154.610, 199.1192
1155.092, 199.7389
1155.574, 200.6687
1156.056, 201.9743
1156.538, 203.1664
1157.020, 203.9223
1157.503, 204.8055
1157.985, 205.9687
1158.467, 207.3192
1158.949, 209.1352
1159.431, 210.8974
1159.913, 211.6240
1160.395, 211.5132
1160.877, 212.3941
1161.359, 215.1075
1161.842, 217.3261
1162.324, 218.7417
1162.806, 220.1053
1163.288, 221.6714
1163.770, 223.1620
1164.252, 224.3147
1164.734, 225.2835
1165.216, 226.3782
1165.698, 227.5862
1166.181, 229.1147
1166.663, 231.0670
1167.145, 232.9743
1167.627, 234.8500
1168.109, 236.3789
1168.591, 237.3249
1169.073, 238.1788
1169.555, 239.5473
1170.037, 241.2539
1170.520, 242.5130
1171.002, 243.3476
1171.484, 244.9702
1171.966, 247.4065
1172.448, 249.8400
1172.930, 252.0485
1173.412, 253.8358
1173.894, 255.0372
1174.377, 256.0808
1174.859, 257.6166
1175.341, 259.4986
1175.823, 261.3967
1176.305, 263.2882
1176.787, 265.0669
1177.269, 266.7696
1177.751, 268.5228
1178.234, 270.3876
1178.716, 272.4254
1179.198, 274.7755
1179.680, 277.1157
1180.162, 279.1938
1180.644, 280.9755
1181.126, 282.1045
1181.608, 283.0696
1182.090, 284.7520
1182.573, 287.1281
1183.055, 289.5860
1183.537, 291.9345
1184.019, 294.0158
1184.501, 295.5026
1184.983, 296.9915
1185.465, 298.9411
1185.947, 300.9135
1186.429, 302.3732
1186.912, 303.6567
1187.394, 305.4957
1187.876, 307.9311
1188.358, 310.0477
1188.840, 311.1523
1189.322, 312.8102
1189.804, 316.0877
1190.286, 318.7224
1190.769, 319.1891
1191.251, 319.5261
1191.733, 321.7093
1192.215, 324.9074
1192.697, 326.9014
1193.179, 327.4944
1193.661, 328.5888
1194.143, 330.4452
1194.625, 331.7377
1195.108, 332.0922
1195.590, 332.6718
1196.072, 334.1049
1196.554, 335.6761
1197.036, 336.5182
1197.518, 336.9238
1198.000, 337.8326
1198.482, 339.1782
1198.964, 340.4353
1199.447, 341.5716
1199.929, 342.4590
1200.411, 343.1247
1200.893, 344.2260
1201.375, 346.1637
1201.857, 347.9541
1202.339, 348.0973
1202.821, 347.7098
1203.304, 348.7891
1203.786, 350.5666
1204.268, 351.7084
1204.750, 352.3111
1205.232, 353.0606
1205.714, 354.0488
1206.196, 354.6330
1206.678, 354.3028
1207.161, 354.0899
1207.643, 355.0753
1208.125, 355.8984
1208.607, 355.0819
1209.089, 354.0592
1209.571, 354.6537
1210.053, 356.2298
1210.535, 356.9399
1211.017, 356.4628
1211.500, 356.3460
1211.982, 357.2797
1212.464, 357.8673
1212.946, 357.4650
1213.428, 357.2935
1213.910, 357.9224
1214.392, 358.8340
1214.874, 359.6439
1215.356, 360.2827
1215.839, 360.5414
1216.321, 360.4044
1216.803, 359.9051
1217.285, 358.9034
1217.767, 358.5242
1218.249, 358.9969
1218.731, 359.8109
1219.213, 360.7717
1219.696, 361.4702
1220.178, 361.3464
1220.660, 360.9062
1221.142, 361.4720
1221.624, 362.6854
1222.106, 363.3140
1222.588, 363.4639
1223.070, 363.5706
1223.552, 363.8300
1224.035, 364.7037
1224.517, 366.4101
1224.999, 368.0507
1225.481, 368.5445
1225.963, 368.9957
1226.445, 370.6238
1226.927, 372.5204
1227.409, 373.5487
1227.891, 374.2226
1228.374, 375.7373
1228.856, 377.9630
1229.338, 379.3925
1229.820, 379.2900
1230.302, 379.5419
1230.784, 380.8549
1231.266, 382.2043
1231.748, 382.9684
1232.231, 384.0306
1232.713, 386.2632
1233.195, 388.8355
1233.677, 390.4965
1234.159, 391.3721
1234.641, 392.5541
1235.123, 394.0659
1235.605, 395.7953
1236.088, 397.7274
1236.570, 400.0850
1237.052, 403.0009
1237.534, 405.6376
1238.016, 407.4347
1238.498, 408.8760
1238.980, 410.6098
1239.462, 412.5673
1239.944, 414.4550
1240.427, 416.4776
1240.909, 419.5493
1241.391, 423.3171
1241.873, 426.4056
1242.355, 428.6097
1242.837, 430.8822
1243.319, 433.7505
1243.801, 436.6461
1244.283, 438.8770
1244.766, 441.3221
1245.248, 444.7246
1245.730, 448.6212
1246.212, 452.7975
1246.694, 456.9763
1247.176, 460.5759
1247.658, 463.6393
1248.140, 467.2443
1248.622, 472.1642
1249.105, 476.3192
1249.587, 478.6293
1250.069, 481.7797
1250.551, 486.8830
1251.033, 492.0445
1251.515, 496.0100
1251.997, 499.5390
1252.479, 503.7768
1252.962, 508.6058
1253.444, 513.3347
1253.926, 517.9857
1254.408, 522.9894
1254.890, 528.3683
1255.372, 534.1492
1255.854, 540.2747
1256.336, 546.5964
1256.818, 552.9994
1257.301, 558.7509
1257.783, 562.2319
1258.265, 565.4932
1258.747, 571.5908
1259.229, 578.9417
1259.711, 585.5043
1260.193, 591.5410
1260.675, 597.9954
1261.157, 604.8988
1261.640, 611.5986
1262.122, 617.7818
1262.604, 624.3134
1263.086, 631.8162
1263.568, 639.2500
1264.050, 645.7354
1264.532, 652.7118
1265.014, 661.5519
1265.497, 670.7582
1265.979, 678.3429
1266.461, 684.8021
1266.943, 692.3010
1267.425, 701.0652
1267.907, 708.8904
1268.389, 715.7049
1268.871, 722.3507
1269.354, 728.9672
1269.836, 736.2770
1270.318, 744.6793
1270.800, 753.3973
1271.282, 761.7542
1271.764, 769.8228
1272.246, 777.7557
1272.728, 785.5295
1273.210, 793.0712
1273.693, 800.3992
1274.175, 807.3578
1274.657, 814.1870
1275.139, 821.5894
1275.621, 829.7637
1276.103, 837.9470
1276.585, 845.8129
1277.067, 853.7664
1277.549, 862.4304
1278.032, 870.6561
1278.514, 877.5706
1278.996, 884.1218
1279.478, 890.9590
1279.960, 898.0537
1280.442, 905.4086
1280.924, 912.9910
1281.406, 919.9421
1281.889, 926.0611
1282.371, 933.4036
1282.853, 942.2239
1283.335, 950.5180
1283.817, 957.7937
1284.299, 965.2499
1284.781, 973.6799
1285.263, 981.5984
1285.745, 987.3876
1286.228, 991.0346
##END=



