##NAMES=Wakefieldite-(Ce)
##RRUFFID=R060176
##IDEAL CHEMISTRY=Ce^3+^V^5+^O_4_
##LOCALITY=North Keremeous, British Columbia, Canada
##OWNER=RRUFF
##SOURCE=Ty Balacko
##DESCRIPTION=Blue-gray to rust-brown colored prismatic crystals
##STATUS=The identification of this mineral is confirmed by single-crystal X-ray diffraction and chemical analysis.
##URL=rruff.info/R060176
##MEASURED CHEMISTRY=(Ce_0.49_La_0.40_Nd_0.11_)_Î£=1_V_1.00_O_4_; trace amounts of Si; no Pb detected
90.26367, 19.34217
90.74579, 19.11079
91.22791, 19.27843
91.71002, 19.78812
92.19214, 20.13123
92.67426, 19.75144
93.15637, 18.86213
93.63850, 18.03157
94.12061, 17.38022
94.60273, 16.92294
95.08485, 16.79905
95.56696, 17.05736
96.04908, 17.32707
96.53120, 17.04898
97.01331, 16.26011
97.49543, 15.61033
97.97755, 15.53908
98.45966, 15.99825
98.94178, 15.98187
99.42390, 15.31165
99.90602, 14.41405
100.3881, 14.16409
100.8703, 14.72755
101.3524, 15.35126
101.8345, 15.62058
102.3166, 15.42212
102.7987, 15.36952
103.2808, 15.60896
103.7630, 16.02104
104.2451, 16.02410
104.7272, 15.34015
105.2093, 14.61455
105.6914, 14.30767
106.1735, 14.84862
106.6557, 15.06780
107.1378, 14.68156
107.6199, 13.65956
108.1020, 12.95592
108.5841, 12.79457
109.0662, 12.83021
109.5484, 12.75115
110.0305, 12.32160
110.5126, 12.01033
110.9947, 11.97290
111.4768, 12.31378
111.9590, 12.44580
112.4411, 12.17648
112.9232, 11.70301
113.4053, 11.28717
113.8874, 10.73343
114.3695, 10.43497
114.8517, 10.66063
115.3338, 11.75971
115.8159, 12.56142
116.2980, 12.42525
116.7801, 11.74008
117.2622, 11.35641
117.7444, 11.89056
118.2265, 12.65265
118.7086, 13.17360
119.1907, 13.23060
119.6728, 13.22685
120.1549, 13.42226
120.6371, 13.76187
121.1192, 14.02391
121.6013, 14.00468
122.0834, 13.86255
122.5655, 13.74862
123.0477, 13.42671
123.5298, 13.39791
124.0119, 14.38895
124.4940, 16.32710
124.9761, 18.19242
125.4582, 19.10072
125.9404, 19.34729
126.4225, 19.49868
126.9046, 19.68813
127.3867, 19.94339
127.8688, 20.38173
128.3509, 21.02779
128.8331, 21.61664
129.3152, 21.72357
129.7973, 21.45617
130.2794, 21.34959
130.7615, 21.68284
131.2436, 22.37585
131.7258, 23.25566
132.2079, 24.40562
132.6900, 25.47879
133.1721, 25.67966
133.6542, 24.99269
134.1364, 24.63010
134.6185, 25.46585
135.1006, 27.45009
135.5827, 29.07244
136.0648, 30.13719
136.5469, 30.89654
137.0291, 32.03460
137.5112, 33.65825
137.9933, 35.18557
138.4754, 36.27213
138.9575, 36.87927
139.4396, 37.19881
139.9218, 37.15040
140.4039, 36.83124
140.8860, 36.71251
141.3681, 36.82632
141.8502, 37.08721
142.3323, 37.41548
142.8145, 37.77993
143.2966, 38.32744
143.7787, 39.24123
144.2608, 40.51240
144.7429, 41.08165
145.2251, 40.43991
145.7072, 39.55906
146.1893, 39.37648
146.6714, 40.31010
147.1535, 41.31963
147.6356, 42.23700
148.1178, 43.05815
148.5999, 43.79265
149.0820, 44.33578
149.5641, 44.83353
150.0462, 45.45449
150.5283, 46.47959
151.0105, 47.34013
151.4926, 47.41442
151.9747, 46.89301
152.4568, 46.60598
152.9389, 46.79799
153.4210, 47.17845
153.9032, 47.34263
154.3853, 46.95657
154.8674, 47.14512
155.3495, 47.11605
155.8316, 46.88107
156.3138, 45.82335
156.7959, 45.82800
157.2780, 45.40692
157.7601, 44.96838
158.2422, 45.12255
158.7243, 44.18454
159.2065, 44.32925
159.6886, 44.04179
160.1707, 43.95215
160.6528, 43.87792
161.1349, 43.66881
161.6170, 43.44224
162.0992, 43.80835
162.5813, 43.08230
163.0634, 43.43903
163.5455, 43.36354
164.0276, 43.48586
164.5097, 43.17983
164.9919, 43.00609
165.4740, 43.26086
165.9561, 43.27836
166.4382, 42.92302
166.9203, 43.05792
167.4025, 42.31689
167.8846, 42.34451
168.3667, 42.70375
168.8488, 41.99179
169.3309, 42.48349
169.8130, 42.75757
170.2952, 42.82573
170.7773, 42.07121
171.2594, 42.37901
171.7415, 42.26108
172.2236, 42.12569
172.7057, 42.58301
173.1879, 41.94815
173.6700, 42.39606
174.1521, 42.41175
174.6342, 42.62526
175.1163, 42.41042
175.5984, 42.32788
176.0806, 42.67383
176.5627, 42.78252
177.0448, 42.51836
177.5269, 42.74445
178.0090, 42.09463
178.4911, 42.21342
178.9733, 42.66385
179.4554, 42.42123
179.9375, 42.65514
180.4196, 42.70757
180.9017, 41.93519
181.3839, 42.59723
181.8660, 41.94879
182.3481, 41.78381
182.8302, 41.63470
183.3123, 42.21504
183.7944, 42.57811
184.2766, 42.73561
184.7587, 42.07175
185.2408, 42.46849
185.7229, 42.44019
186.2050, 42.39446
186.6871, 42.94048
187.1693, 42.39610
187.6514, 42.93272
188.1335, 43.03783
188.6156, 43.34043
189.0977, 43.21537
189.5798, 43.22240
190.0620, 43.65724
190.5441, 43.85520
191.0262, 43.68090
191.5083, 43.99606
191.9904, 43.43673
192.4725, 43.64477
192.9547, 44.18392
193.4368, 44.03113
193.9189, 44.35410
194.4010, 44.49588
194.8831, 43.81419
195.3652, 44.56460
195.8474, 44.56742
196.3295, 45.30969
196.8116, 45.83470
197.2937, 46.15412
197.7758, 45.65220
198.2579, 46.21087
198.7401, 46.34455
199.2222, 46.46076
199.7043, 47.16870
200.1864, 46.78624
200.6685, 47.48481
201.1507, 47.75189
201.6328, 48.21643
202.1149, 48.25330
202.5970, 48.42226
203.0791, 49.01903
203.5612, 49.37892
204.0434, 49.86440
204.5255, 50.60406
205.0076, 51.13814
205.4897, 50.85088
205.9718, 51.62420
206.4539, 51.97249
206.9361, 52.30344
207.4182, 53.22604
207.9003, 53.05824
208.3824, 53.97146
208.8645, 54.45316
209.3466, 55.13235
209.8288, 55.38397
210.3109, 55.76759
210.7930, 56.57901
211.2751, 57.15356
211.7572, 57.35586
212.2393, 58.04760
212.7215, 57.60394
213.2036, 57.54902
213.6857, 58.01471
214.1678, 59.26081
214.6499, 60.11356
215.1321, 60.30485
215.6142, 60.04448
216.0963, 60.29638
216.5784, 61.29553
217.0605, 62.35481
217.5426, 62.96009
218.0248, 62.82769
218.5069, 63.09035
218.9890, 64.01450
219.4711, 65.41886
219.9532, 66.44102
220.4353, 66.95683
220.9175, 67.31192
221.3996, 67.67171
221.8817, 67.90067
222.3638, 68.52751
222.8459, 69.84802
223.3280, 71.63937
223.8102, 72.60222
224.2923, 72.32027
224.7744, 71.87611
225.2565, 72.02364
225.7386, 73.19304
226.2208, 73.88461
226.7029, 73.79017
227.1850, 73.08613
227.6671, 72.68762
228.1492, 72.67258
228.6313, 72.85078
229.1135, 73.18241
229.5956, 73.96640
230.0777, 74.22374
230.5598, 73.73503
231.0419, 72.64396
231.5240, 71.64146
232.0062, 70.76151
232.4883, 69.92536
232.9704, 69.07761
233.4525, 68.17104
233.9346, 67.37344
234.4167, 66.78541
234.8989, 66.33060
235.3810, 65.63381
235.8631, 64.53301
236.3452, 63.38944
236.8273, 62.42062
237.3095, 61.79260
237.7916, 60.95087
238.2737, 59.63277
238.7558, 58.05922
239.2379, 56.79044
239.7200, 56.69158
240.2022, 56.43534
240.6843, 56.03361
241.1664, 54.86954
241.6485, 54.82811
242.1306, 54.42128
242.6127, 54.05733
243.0949, 54.34637
243.5770, 53.60361
244.0591, 54.00396
244.5412, 54.03240
245.0233, 54.31900
245.5054, 54.23756
245.9876, 53.28123
246.4697, 53.48597
246.9518, 53.26499
247.4339, 53.02654
247.9160, 53.38080
248.3981, 52.64288
248.8803, 52.98772
249.3624, 52.90035
249.8445, 53.01080
250.3266, 52.69289
250.8087, 52.50729
251.2909, 52.35079
251.7730, 52.73417
252.2551, 52.95147
252.7372, 53.01436
253.2193, 52.30708
253.7014, 52.71157
254.1836, 52.74223
254.6657, 52.80661
255.1478, 53.51392
255.6299, 53.18199
256.1120, 53.98226
256.5941, 54.44897
257.0763, 54.89869
257.5584, 55.18247
258.0405, 55.45481
258.5226, 56.04866
259.0047, 57.11676
259.4868, 58.20898
259.9690, 59.26896
260.4511, 60.46312
260.9332, 60.80743
261.4153, 60.03827
261.8974, 58.65459
262.3795, 57.51870
262.8617, 56.74985
263.3438, 55.91107
263.8259, 54.75572
264.3080, 53.18545
264.7901, 52.06343
265.2722, 51.48238
265.7544, 51.23713
266.2365, 51.10389
266.7186, 51.16487
267.2007, 51.07813
267.6829, 50.64885
268.1650, 49.83294
268.6471, 49.41560
269.1292, 49.10388
269.6113, 49.40087
270.0934, 49.48440
270.5756, 49.36617
271.0577, 48.42947
271.5398, 48.55928
272.0219, 48.26752
272.5040, 47.96251
272.9861, 48.25435
273.4683, 47.45819
273.9504, 47.74899
274.4325, 47.61177
274.9146, 47.67653
275.3967, 47.31712
275.8788, 47.09419
276.3610, 47.30392
276.8431, 47.28057
277.3252, 46.88858
277.8073, 46.99099
278.2894, 46.22168
278.7715, 46.22517
279.2537, 46.56444
279.7358, 46.21487
280.2179, 46.34602
280.7000, 46.29985
281.1821, 45.43306
281.6642, 46.00486
282.1464, 45.96049
282.6285, 45.28336
283.1106, 45.81856
283.5927, 45.23760
284.0748, 45.06071
284.5569, 45.18895
285.0391, 44.60951
285.5212, 44.94595
286.0033, 45.06758
286.4854, 44.98608
286.9675, 44.08471
287.4496, 44.24846
287.9318, 43.98923
288.4139, 43.71538
288.8960, 44.03704
289.3781, 43.26931
289.8602, 43.58715
290.3424, 43.47554
290.8245, 43.56458
291.3066, 43.22805
291.7887, 43.02663
292.2708, 43.25650
292.7530, 43.25189
293.2351, 42.87724
293.7172, 42.99564
294.1993, 42.24092
294.6814, 42.25763
295.1635, 42.60875
295.6457, 42.26962
296.1278, 42.40983
296.6099, 42.37135
297.0920, 41.51087
297.5741, 42.08760
298.0562, 42.04678
298.5384, 41.37181
299.0205, 41.90778
299.5026, 41.32622
299.9847, 41.14735
300.4668, 41.27221
300.9489, 41.08615
301.4311, 41.39750
301.9132, 41.23516
302.3953, 41.03304
302.8774, 41.01951
303.3595, 40.48230
303.8416, 40.92461
304.3238, 40.70252
304.8059, 40.81488
305.2880, 41.00521
305.7701, 40.62276
306.2522, 40.85246
306.7343, 40.69575
307.2165, 41.04322
307.6986, 41.44124
308.1807, 41.63918
308.6628, 41.49827
309.1449, 41.27151
309.6270, 41.15877
310.1092, 40.72248
310.5913, 41.18440
311.0734, 41.43121
311.5555, 41.47459
312.0376, 40.69779
312.5197, 40.98580
313.0019, 40.85057
313.4840, 40.70038
313.9661, 41.14539
314.4482, 40.50072
314.9304, 40.94131
315.4125, 40.95218
315.8946, 41.16336
316.3767, 40.94867
316.8588, 40.86879
317.3409, 41.21989
317.8231, 41.33623
318.3052, 41.08221
318.7873, 41.32093
319.2694, 40.68624
319.7515, 40.82265
320.2336, 41.29319
320.7158, 41.07319
321.1979, 41.33221
321.6800, 41.41223
322.1621, 40.66995
322.6442, 41.36457
323.1263, 41.44135
323.6085, 40.88368
324.0906, 41.53664
324.5727, 41.07176
325.0548, 41.00927
325.5369, 41.25021
326.0190, 41.17992
326.5012, 41.60676
326.9833, 41.55958
327.4654, 41.31079
327.9475, 40.81459
328.4296, 41.43437
328.9117, 41.83655
329.3939, 42.03283
329.8760, 41.40641
330.3581, 41.84230
330.8402, 41.85248
331.3223, 41.84518
331.8044, 42.43060
332.2866, 41.92386
332.7687, 42.49988
333.2508, 42.64367
333.7329, 42.98528
334.2150, 42.89853
334.6971, 42.54951
335.1793, 43.34741
335.6614, 43.92766
336.1435, 44.30197
336.6256, 43.85363
337.1077, 44.46758
337.5899, 44.65588
338.0720, 44.82664
338.5541, 45.59013
339.0362, 45.26143
339.5183, 46.01551
340.0005, 46.33742
340.4826, 46.85710
340.9647, 46.94841
341.4468, 47.17204
341.9289, 47.82415
342.4110, 48.23901
342.8932, 48.28107
343.3753, 48.81333
343.8574, 48.46967
344.3395, 48.89464
344.8216, 49.65122
345.3037, 49.71478
345.7859, 49.94275
346.2680, 50.50849
346.7501, 51.24648
347.2322, 51.88633
347.7143, 52.20037
348.1964, 52.30048
348.6786, 52.57074
349.1607, 53.04796
349.6428, 53.58260
350.1249, 53.92944
350.6070, 54.18170
351.0891, 54.64510
351.5713, 55.51733
352.0534, 56.63041
352.5355, 57.78286
353.0176, 58.96053
353.4997, 60.16407
353.9818, 61.46132
354.4640, 62.76233
354.9461, 63.91939
355.4282, 64.71124
355.9103, 65.56174
356.3924, 66.87003
356.8745, 68.57504
357.3567, 70.39638
357.8388, 72.48921
358.3209, 74.46854
358.8030, 75.95644
359.2851, 76.70891
359.7672, 77.41954
360.2494, 78.38033
360.7315, 79.56894
361.2136, 80.92556
361.6957, 82.58050
362.1779, 84.28561
362.6600, 85.92598
363.1421, 87.48804
363.6242, 89.01071
364.1063, 90.36240
364.5884, 91.74349
365.0706, 93.34722
365.5527, 95.51902
366.0348, 97.58837
366.5169, 99.38271
366.9990, 100.9106
367.4811, 102.3844
367.9633, 103.6066
368.4454, 104.9331
368.9275, 106.5721
369.4096, 109.0947
369.8917, 111.1317
370.3738, 112.5120
370.8560, 113.4015
371.3381, 114.2146
371.8202, 114.7990
372.3023, 115.5286
372.7844, 116.6161
373.2665, 118.2359
373.7487, 119.4809
374.2308, 120.2831
374.7129, 120.7798
375.1950, 121.1739
375.6771, 121.5007
376.1592, 121.6265
376.6414, 121.5734
377.1235, 121.3133
377.6056, 120.4875
378.0877, 118.9709
378.5698, 117.2811
379.0519, 115.8904
379.5341, 114.8137
380.0162, 113.5715
380.4983, 112.1130
380.9804, 110.4182
381.4625, 108.3771
381.9446, 105.9742
382.4268, 103.7275
382.9089, 102.1507
383.3910, 100.9926
383.8731, 99.27212
384.3553, 96.82647
384.8374, 94.28578
385.3195, 92.46745
385.8016, 91.17995
386.2837, 89.82288
386.7658, 88.07378
387.2480, 86.15848
387.7301, 84.31296
388.2122, 82.54551
388.6943, 80.83041
389.1764, 79.22014
389.6585, 77.63969
390.1407, 76.00083
390.6228, 74.11197
391.1049, 72.39860
391.5870, 71.28834
392.0691, 70.62056
392.5512, 69.91160
393.0334, 68.87345
393.5155, 67.76929
393.9976, 66.75353
394.4797, 65.84483
394.9618, 65.03536
395.4439, 64.41319
395.9261, 63.86369
396.4082, 63.23716
396.8903, 62.20877
397.3724, 61.38282
397.8545, 61.05250
398.3366, 61.24902
398.8188, 61.18357
399.3009, 60.47743
399.7830, 59.70893
400.2651, 59.26867
400.7472, 59.77892
401.2293, 59.65521
401.7115, 58.47719
402.1936, 56.64446
402.6757, 55.39577
403.1578, 55.00900
403.6399, 54.72604
404.1220, 54.21509
404.6042, 53.40570
405.0863, 52.75714
405.5684, 52.27891
406.0505, 51.95610
406.5326, 51.83454
407.0147, 51.95346
407.4969, 51.97219
407.9790, 51.79651
408.4611, 51.45219
408.9432, 50.99400
409.4254, 50.41006
409.9075, 49.86414
410.3896, 49.53960
410.8717, 49.37630
411.3538, 49.07182
411.8359, 48.53313
412.3181, 47.97173
412.8002, 47.69271
413.2823, 47.65830
413.7644, 47.69564
414.2465, 47.94389
414.7286, 48.11225
415.2108, 47.62027
415.6929, 46.42274
416.1750, 45.41560
416.6571, 45.47614
417.1392, 46.09037
417.6213, 46.56946
418.1035, 46.68287
418.5856, 46.59711
419.0677, 46.25634
419.5498, 45.75093
420.0319, 45.43270
420.5140, 45.73485
420.9962, 46.05840
421.4783, 46.00772
421.9604, 45.37954
422.4425, 44.78205
422.9246, 44.30312
423.4067, 43.94599
423.8889, 43.70971
424.3710, 43.75196
424.8531, 43.75373
425.3352, 43.62683
425.8173, 43.37088
426.2994, 43.17450
426.7816, 43.17687
427.2637, 43.09892
427.7458, 42.71252
428.2279, 41.76299
428.7100, 41.12209
429.1921, 40.91079
429.6743, 40.99822
430.1564, 41.14718
430.6385, 41.41541
431.1206, 41.51809
431.6028, 41.24807
432.0849, 40.62809
432.5670, 40.25779
433.0491, 40.15597
433.5312, 40.22532
434.0133, 40.45298
434.4955, 40.80101
434.9776, 41.01170
435.4597, 41.01550
435.9418, 40.85833
436.4239, 40.54419
436.9060, 40.10460
437.3882, 39.72333
437.8703, 39.48930
438.3524, 39.39580
438.8345, 39.08889
439.3166, 39.64584
439.7987, 39.98518
440.2809, 40.11861
440.7630, 39.42936
441.2451, 39.80241
441.7272, 39.74975
442.2093, 39.67962
442.6914, 40.20220
443.1736, 39.63261
443.6557, 40.14579
444.1378, 40.22674
444.6199, 40.50551
445.1020, 40.35592
445.5841, 40.33865
446.0663, 40.74987
446.5484, 40.92382
447.0305, 40.72493
447.5126, 41.01627
447.9947, 41.18842
448.4768, 41.60322
448.9590, 41.64312
449.4411, 41.29308
449.9232, 41.36058
450.4053, 42.06798
450.8874, 42.87243
451.3695, 43.31543
451.8517, 43.26245
452.3338, 43.48430
452.8159, 44.14354
453.2980, 44.99719
453.7801, 45.54377
454.2622, 45.76081
454.7444, 45.93472
455.2265, 46.24280
455.7086, 46.61875
456.1907, 46.67703
456.6729, 46.38888
457.1550, 46.17072
457.6371, 46.36435
458.1192, 46.92167
458.6013, 47.76226
459.0834, 48.93585
459.5656, 50.24377
460.0477, 51.52746
460.5298, 52.77981
461.0119, 53.91348
461.4940, 54.79295
461.9761, 55.62813
462.4583, 56.62527
462.9404, 57.82722
463.4225, 58.93217
463.9046, 59.71340
464.3867, 60.38082
464.8688, 61.11404
465.3510, 62.65990
465.8331, 63.49653
466.3152, 63.21279
466.7973, 61.95516
467.2794, 60.25230
467.7615, 57.66305
468.2437, 55.07954
468.7258, 52.79985
469.2079, 50.92912
469.6900, 48.96997
470.1721, 46.74597
470.6542, 44.64402
471.1364, 43.10883
471.6185, 42.25484
472.1006, 41.51943
472.5827, 40.81940
473.0648, 40.16518
473.5469, 39.62476
474.0291, 39.21172
474.5112, 38.75397
474.9933, 37.99027
475.4754, 37.06487
475.9575, 36.71057
476.4396, 37.01416
476.9218, 37.41376
477.4039, 37.27797
477.8860, 36.77900
478.3681, 36.31608
478.8503, 36.03439
479.3324, 35.81702
479.8145, 35.52447
480.2966, 35.18859
480.7787, 34.93884
481.2608, 34.91025
481.7430, 34.93650
482.2251, 34.90882
482.7072, 34.81187
483.1893, 34.67632
483.6714, 34.42354
484.1535, 34.17673
484.6357, 34.05938
485.1178, 34.40872
485.5999, 34.52528
486.0820, 34.07847
486.5641, 33.27551
487.0462, 32.90036
487.5284, 33.32910
488.0105, 33.67933
488.4926, 33.52942
488.9747, 32.74308
489.4568, 32.39443
489.9389, 32.65136
490.4211, 33.04908
490.9032, 33.00487
491.3853, 32.48195
491.8674, 32.15196
492.3495, 32.20674
492.8316, 32.46615
493.3138, 32.58214
493.7959, 32.55647
494.2780, 32.39693
494.7601, 31.92563
495.2422, 31.36976
495.7243, 31.26693
496.2065, 31.65816
496.6886, 32.01481
497.1707, 31.84252
497.6528, 31.39829
498.1349, 31.03009
498.6170, 30.83488
499.0992, 30.73547
499.5813, 30.69833
500.0634, 30.72401
500.5455, 30.81251
501.0276, 31.14934
501.5097, 31.38272
501.9919, 31.34039
502.4740, 30.97250
502.9561, 30.60162
503.4382, 30.16673
503.9203, 29.79404
504.4025, 29.57300
504.8846, 29.56199
505.3667, 29.60052
505.8488, 29.74390
506.3309, 29.89211
506.8130, 29.78482
507.2952, 29.35420
507.7773, 28.97640
508.2594, 28.81641
508.7415, 28.83297
509.2236, 28.77730
509.7057, 28.64435
510.1879, 28.50494
510.6700, 28.41417
511.1521, 28.36298
511.6342, 28.31528
512.1163, 28.25661
512.5984, 28.23480
513.0806, 28.36780
513.5627, 28.57311
514.0448, 28.67826
514.5269, 28.43822
515.0090, 28.21165
515.4911, 28.32242
515.9733, 28.71085
516.4554, 28.96221
516.9375, 28.92454
517.4196, 28.69723
517.9017, 28.27457
518.3839, 27.43751
518.8660, 26.94651
519.3481, 27.22264
519.8302, 27.72989
520.3123, 27.88748
520.7944, 27.46866
521.2766, 27.11829
521.7587, 26.95247
522.2408, 26.92496
522.7229, 26.83985
523.2050, 26.67434
523.6871, 26.53757
524.1693, 26.53638
524.6514, 26.64966
525.1335, 26.56301
525.6156, 26.25000
526.0977, 25.90698
526.5798, 25.66871
527.0620, 25.55324
527.5441, 25.66071
528.0262, 26.12875
528.5083, 26.58924
528.9904, 26.52767
529.4725, 26.13816
529.9547, 25.89386
530.4368, 26.30120
530.9189, 26.71308
531.4010, 26.56847
531.8831, 25.86660
532.3652, 25.46312
532.8474, 26.04230
533.3295, 26.29701
533.8116, 26.73016
534.2937, 26.94568
534.7758, 26.95528
535.2579, 26.14222
535.7401, 26.39145
536.2222, 26.21496
536.7043, 26.02102
537.1865, 26.41977
537.6686, 25.72636
538.1507, 26.11572
538.6328, 26.07285
539.1149, 26.22780
539.5970, 25.95441
540.0792, 25.81329
540.5613, 26.10069
541.0434, 26.15083
541.5255, 25.82811
542.0076, 25.99564
542.4897, 25.28727
542.9719, 25.34749
543.4540, 25.65784
543.9361, 26.11873
544.4182, 26.36201
544.9003, 26.39936
545.3824, 25.61405
545.8646, 25.89104
546.3467, 25.74231
546.8288, 25.57612
547.3109, 26.00263
547.7930, 25.33697
548.2751, 25.75408
548.7573, 25.73896
549.2394, 25.92167
549.7215, 25.67603
550.2036, 25.56268
550.6857, 25.87783
551.1678, 25.95573
551.6500, 25.66076
552.1321, 25.85605
552.6142, 25.17542
553.0963, 25.87592
553.5784, 25.83686
554.0605, 25.46444
554.5427, 25.45564
555.0248, 25.78497
555.5069, 25.98856
555.9890, 25.57233
556.4711, 24.91576
556.9532, 24.78091
557.4354, 25.19422
557.9175, 25.59081
558.3996, 25.45078
558.8817, 25.10582
559.3638, 24.90953
559.8459, 24.95299
560.3281, 24.66428
560.8102, 25.13976
561.2923, 25.39762
561.7744, 25.44956
562.2565, 24.67883
562.7386, 24.97041
563.2208, 24.83625
563.7029, 24.68465
564.1850, 25.30927
564.6671, 25.07039
565.1492, 24.79536
565.6313, 24.76723
566.1135, 25.01509
566.5956, 25.13204
567.0777, 25.12271
567.5598, 24.56320
568.0419, 25.00063
568.5240, 25.22043
569.0062, 25.23431
569.4883, 24.42553
569.9704, 24.67905
570.4525, 24.50686
570.9346, 24.31721
571.4167, 24.72025
571.8989, 24.03111
572.3810, 23.90775
572.8631, 23.90782
573.3452, 24.34787
573.8273, 24.67109
574.3094, 24.54464
574.7916, 24.34096
575.2737, 24.27635
575.7558, 24.44878
576.2379, 24.50201
576.7200, 24.32842
577.2021, 24.11539
577.6843, 24.05267
578.1664, 24.24430
578.6485, 24.24763
579.1306, 23.92471
579.6127, 23.49341
580.0948, 23.42950
580.5770, 23.73319
581.0591, 24.02530
581.5412, 24.16961
582.0233, 24.19473
582.5054, 24.11422
582.9875, 23.94608
583.4697, 23.81973
583.9518, 24.02039
584.4340, 24.20507
584.9161, 23.45255
585.3982, 23.92108
585.8803, 24.17200
586.3624, 24.21700
586.8445, 23.43933
587.3267, 23.72397
587.8088, 23.58288
588.2909, 23.42434
588.7730, 23.85850
589.2551, 23.20048
589.7372, 23.62524
590.2194, 23.61777
590.7015, 23.80812
591.1836, 23.57012
591.6657, 22.83992
592.1478, 22.48217
592.6299, 22.45175
593.1121, 22.51373
593.5942, 22.52305
594.0763, 22.50952
594.5584, 22.61488
595.0405, 22.84785
595.5226, 23.06003
596.0048, 23.10044
596.4869, 23.04334
596.9690, 23.00654
597.4511, 23.04550
597.9332, 23.03275
598.4153, 22.78260
598.8975, 22.46453
599.3796, 22.32384
599.8617, 22.51518
600.3438, 22.42193
600.8259, 22.90990
601.3080, 23.18026
601.7902, 23.24470
602.2723, 22.48646
602.7544, 22.79054
603.2365, 22.66889
603.7186, 22.52979
604.2007, 22.98338
604.6829, 22.34480
605.1650, 22.78899
605.6471, 22.80096
606.1292, 23.01075
606.6113, 23.03273
607.0934, 23.34665
607.5756, 23.56022
608.0577, 23.59017
608.5398, 23.47447
609.0219, 23.26376
609.5040, 22.84805
609.9861, 22.51595
610.4683, 22.48187
610.9504, 22.64434
611.4325, 22.78465
611.9146, 22.99166
612.3967, 23.01807
612.8788, 22.59432
613.3610, 21.79833
613.8431, 21.59691
614.3252, 22.37399
614.8073, 23.10077
615.2894, 23.18972
615.7715, 22.59081
616.2537, 22.30408
616.7358, 22.37597
617.2179, 22.53835
617.7000, 22.54998
618.1821, 22.43065
618.6642, 22.22209
619.1464, 21.89096
619.6285, 21.61002
620.1106, 21.54522
620.5927, 21.65225
621.0748, 21.85405
621.5569, 22.43007
622.0391, 22.78425
622.5212, 22.34368
623.0033, 21.43879
623.4854, 21.08045
623.9675, 22.13300
624.4496, 23.04657
624.9318, 23.36048
625.4139, 23.08582
625.8960, 22.74167
626.3781, 22.25023
626.8602, 21.87701
627.3423, 21.82973
627.8245, 22.09858
628.3066, 22.39863
628.7887, 22.75379
629.2708, 22.93912
629.7529, 22.43088
630.2350, 21.60028
630.7172, 21.37152
631.1993, 22.14855
631.6815, 22.99552
632.1636, 23.14943
632.6457, 22.86483
633.1278, 22.55195
633.6099, 22.23162
634.0920, 22.02957
634.5742, 22.03088
635.0563, 22.19103
635.5384, 22.34288
636.0205, 22.59543
636.5026, 22.67080
636.9847, 22.41183
637.4669, 21.85194
637.9490, 21.50643
638.4311, 21.38979
638.9132, 21.40955
639.3953, 21.57965
639.8774, 21.84876
640.3596, 21.94047
640.8417, 21.83102
641.3238, 21.73343
641.8059, 21.99677
642.2880, 22.34584
642.7701, 22.32458
643.2523, 21.65300
643.7344, 21.10193
644.2165, 21.03770
644.6986, 21.33158
645.1807, 21.81220
645.6628, 22.95597
646.1450, 23.64487
646.6271, 23.55385
647.1092, 22.96001
647.5913, 22.54971
648.0734, 22.34173
648.5555, 22.26963
649.0377, 22.39022
649.5198, 22.61604
650.0019, 22.46210
650.4840, 21.93135
650.9661, 21.52158
651.4482, 21.75231
651.9304, 22.24275
652.4125, 22.21548
652.8946, 21.65217
653.3767, 21.24255
653.8588, 21.68233
654.3409, 22.32661
654.8231, 22.61785
655.3052, 22.34482
655.7873, 22.04941
656.2694, 21.84280
656.7515, 21.66929
657.2336, 21.45283
657.7158, 21.04228
658.1979, 20.93727
658.6800, 21.25576
659.1621, 21.80514
659.6442, 22.29486
660.1263, 22.72390
660.6085, 23.02930
661.0906, 23.18996
661.5727, 23.21160
662.0548, 23.03481
662.5369, 22.71111
663.0190, 22.43698
663.5012, 22.45231
663.9833, 22.45307
664.4654, 22.10058
664.9475, 21.45516
665.4296, 21.00950
665.9117, 21.05927
666.3939, 21.23331
666.8760, 21.33942
667.3581, 21.34293
667.8402, 21.50644
668.3223, 21.95721
668.8044, 22.37036
669.2866, 22.48152
669.7687, 22.28009
670.2508, 22.04399
670.7329, 21.76820
671.2150, 21.54157
671.6971, 21.45787
672.1793, 21.49957
672.6614, 21.63087
673.1435, 21.86402
673.6256, 22.13095
674.1077, 22.54646
674.5898, 22.92204
675.0720, 22.96320
675.5541, 22.14895
676.0362, 21.47156
676.5183, 21.14157
677.0004, 21.15228
677.4825, 21.53366
677.9647, 22.71467
678.4468, 23.40280
678.9290, 23.05844
679.4111, 21.95939
679.8932, 21.46389
680.3753, 21.60549
680.8574, 21.84708
681.3395, 21.86499
681.8217, 21.77077
682.3038, 21.82131
682.7859, 22.00732
683.2680, 22.16788
683.7501, 22.15299
684.2322, 22.09492
684.7144, 22.10183
685.1965, 22.19208
685.6786, 22.31497
686.1607, 22.52599
686.6428, 22.71516
687.1249, 22.80910
687.6071, 22.79534
688.0892, 22.69741
688.5713, 22.47070
689.0534, 22.23235
689.5355, 22.11852
690.0176, 22.12633
690.4998, 22.21722
690.9819, 22.40265
691.4640, 22.61595
691.9461, 22.78907
692.4282, 22.91620
692.9103, 22.98202
693.3925, 22.97865
693.8746, 22.91473
694.3567, 22.73523
694.8388, 22.49956
695.3209, 22.34768
695.8030, 22.24708
696.2852, 22.32139
696.7673, 22.72917
697.2494, 23.35526
697.7315, 23.50607
698.2136, 22.98344
698.6957, 22.65393
699.1779, 23.08484
699.6600, 24.00860
700.1421, 24.07285
700.6242, 23.32570
701.1063, 22.66931
701.5884, 22.96899
702.0706, 23.59384
702.5527, 23.65476
703.0348, 23.09312
703.5169, 22.75820
703.9990, 23.43474
704.4811, 24.23322
704.9633, 24.49550
705.4454, 23.88905
705.9275, 23.50272
706.4096, 23.43401
706.8917, 23.48321
707.3738, 23.50349
707.8560, 23.49950
708.3381, 23.40895
708.8202, 23.21075
709.3023, 22.98317
709.7844, 22.81111
710.2665, 22.68997
710.7487, 22.58344
711.2308, 22.44009
711.7129, 22.42260
712.1950, 22.88449
712.6771, 23.49642
713.1592, 23.76133
713.6414, 23.11232
714.1235, 22.57795
714.6056, 22.42595
715.0877, 22.53323
715.5698, 22.67233
716.0519, 22.81774
716.5341, 23.08768
717.0162, 23.61234
717.4983, 24.20337
717.9804, 24.21178
718.4625, 23.67884
718.9446, 23.18667
719.4268, 23.06095
719.9089, 23.10798
720.3910, 23.11362
720.8731, 23.07728
721.3552, 22.99647
721.8373, 22.88212
722.3195, 22.71287
722.8016, 22.33730
723.2837, 21.75839
723.7658, 21.71073
724.2479, 22.61466
724.7300, 23.50727
725.2122, 23.96213
725.6943, 23.97570
726.1765, 23.75051
726.6586, 23.23185
727.1407, 22.80717
727.6228, 22.89635
728.1049, 23.28289
728.5870, 23.39635
729.0692, 23.18318
729.5513, 23.07747
730.0334, 23.65232
730.5155, 24.32972
730.9976, 24.49994
731.4797, 23.84152
731.9619, 23.37828
732.4440, 23.36572
732.9261, 23.56352
733.4082, 23.85694
733.8903, 24.37708
734.3724, 24.47953
734.8546, 24.00414
735.3367, 23.41529
735.8188, 23.43786
736.3009, 23.90383
736.7830, 23.96406
737.2651, 23.31495
737.7473, 22.64553
738.2294, 22.67051
738.7115, 23.11571
739.1936, 23.58079
739.6757, 24.06670
740.1578, 24.39145
740.6400, 24.35051
741.1221, 24.15784
741.6042, 24.21609
742.0863, 24.76772
742.5684, 24.99406
743.0505, 24.62674
743.5327, 24.00528
744.0148, 23.92315
744.4969, 24.34576
744.9790, 24.82610
745.4611, 25.24878
745.9432, 25.58930
746.4254, 25.77661
746.9075, 25.85687
747.3896, 25.94682
747.8717, 26.25991
748.3538, 26.43153
748.8359, 26.15117
749.3181, 25.54698
749.8002, 25.29237
750.2823, 25.63180
750.7644, 25.92379
751.2465, 25.94632
751.7286, 25.76997
752.2108, 25.66354
752.6929, 25.62165
753.1750, 25.85084
753.6571, 26.83885
754.1392, 28.00080
754.6213, 28.20779
755.1035, 27.61426
755.5856, 27.10927
756.0677, 27.17781
756.5498, 27.47210
757.0319, 27.93022
757.5140, 28.54712
757.9962, 28.72533
758.4783, 28.03499
758.9604, 27.48184
759.4425, 27.56478
759.9246, 28.26486
760.4067, 28.87664
760.8889, 29.39831
761.3710, 29.81593
761.8531, 30.05420
762.3352, 30.20220
762.8173, 30.39898
763.2994, 30.65402
763.7816, 31.02499
764.2637, 31.58082
764.7458, 32.24220
765.2279, 32.96509
765.7100, 33.77771
766.1921, 34.53361
766.6743, 35.22929
767.1564, 35.86451
767.6385, 36.40820
768.1206, 36.84379
768.6027, 37.30960
769.0848, 37.75534
769.5670, 38.54850
770.0491, 40.27367
770.5312, 42.53573
771.0133, 44.56433
771.4954, 46.25794
771.9775, 47.81959
772.4597, 49.22371
772.9418, 50.64535
773.4240, 52.24781
773.9061, 54.08562
774.3882, 56.04990
774.8703, 58.28557
775.3524, 60.47012
775.8345, 62.10433
776.3167, 63.05683
776.7988, 65.25945
777.2809, 68.97098
777.7630, 73.10049
778.2451, 76.25342
778.7272, 79.00043
779.2094, 82.51436
779.6915, 87.06426
780.1736, 92.04355
780.6557, 97.36642
781.1378, 102.7344
781.6199, 107.8498
782.1021, 112.3827
782.5842, 117.0665
783.0663, 122.1436
783.5484, 127.1103
784.0305, 131.8000
784.5126, 136.3153
784.9948, 138.3772
785.4769, 137.6641
785.9590, 134.7651
786.4411, 129.5188
786.9232, 122.7735
787.4053, 115.7916
787.8875, 108.4611
788.3696, 102.0329
788.8517, 97.02780
789.3338, 93.16432
789.8159, 90.07311
790.2980, 87.59209
790.7802, 86.11646
791.2623, 85.80224
791.7444, 86.32618
792.2265, 87.33115
792.7086, 88.82093
793.1907, 90.71239
793.6729, 93.05482
794.1550, 95.60751
794.6371, 98.28207
795.1192, 100.9665
795.6013, 103.5458
796.0834, 106.2292
796.5656, 108.3083
797.0477, 109.7207
797.5298, 110.2916
798.0119, 109.9674
798.4940, 109.1837
798.9761, 106.3471
799.4583, 100.8398
799.9404, 94.15456
800.4225, 87.98824
800.9046, 82.30333
801.3867, 76.61909
801.8688, 70.71680
802.3510, 65.30849
802.8331, 61.39712
803.3152, 58.37304
803.7973, 55.43287
804.2794, 52.15694
804.7615, 49.26102
805.2437, 46.89888
805.7258, 44.97012
806.2079, 43.40296
806.6900, 42.23767
807.1721, 41.32349
807.6542, 40.72874
808.1364, 40.18002
808.6185, 39.21632
809.1006, 38.00003
809.5827, 37.01163
810.0648, 36.37199
810.5469, 35.93313
811.0291, 35.61017
811.5112, 35.41668
811.9933, 35.37321
812.4754, 35.75340
812.9575, 35.84497
813.4396, 35.45690
813.9218, 34.92985
814.4039, 34.70580
814.8860, 34.81622
815.3681, 34.63194
815.8502, 34.02034
816.3323, 33.38352
816.8145, 33.26073
817.2966, 33.42957
817.7787, 33.49787
818.2608, 33.36933
818.7429, 33.16575
819.2251, 32.78268
819.7072, 32.44365
820.1893, 32.40328
820.6714, 32.92863
821.1536, 33.15466
821.6357, 32.97051
822.1178, 32.68497
822.5999, 32.63017
823.0820, 32.77780
823.5641, 32.97536
824.0463, 33.22221
824.5284, 33.37810
825.0105, 33.21415
825.4926, 32.93417
825.9747, 32.77628
826.4568, 32.81187
826.9390, 32.87554
827.4211, 32.82220
827.9032, 32.87265
828.3853, 32.77841
828.8674, 33.16158
829.3495, 33.37011
829.8317, 33.41571
830.3138, 32.68165
830.7959, 33.05290
831.2780, 33.04142
831.7601, 33.05545
832.2422, 33.70521
832.7244, 33.30585
833.2065, 34.03217
833.6886, 34.36930
834.1707, 34.94725
834.6528, 35.13979
835.1349, 35.50767
835.6171, 36.34718
836.0992, 36.99223
836.5813, 37.30751
837.0634, 38.15601
837.5455, 38.17153
838.0276, 38.99874
838.5098, 40.20078
838.9919, 40.75248
839.4740, 41.82381
839.9561, 42.75665
840.4382, 42.90757
840.9203, 44.90466
841.4025, 46.29500
841.8846, 47.46642
842.3667, 48.30364
842.8488, 48.82434
843.3309, 50.04756
843.8130, 52.06654
844.2952, 54.26625
844.7773, 56.14914
845.2594, 58.00769
845.7415, 60.47944
846.2236, 63.52794
846.7057, 66.91591
847.1879, 70.48161
847.6700, 74.37830
848.1521, 78.73832
848.6342, 83.54436
849.1163, 88.62206
849.5984, 94.22112
850.0806, 99.46191
850.5627, 103.8876
851.0448, 107.7839
851.5269, 112.0241
852.0090, 116.5716
852.4911, 121.1422
852.9733, 125.4279
853.4554, 129.7719
853.9375, 134.2793
854.4196, 139.1231
854.9017, 144.7550
855.3839, 151.1642
855.8660, 158.5048
856.3481, 166.7094
856.8302, 175.8579
857.3123, 186.4926
857.7944, 198.8505
858.2766, 210.6954
858.7587, 221.5630
859.2408, 231.7052
859.7229, 241.7080
860.2050, 251.1642
860.6871, 259.2916
861.1693, 268.3878
861.6514, 272.0572
862.1335, 268.0411
862.6156, 256.7823
863.0977, 239.1744
863.5798, 212.4859
864.0620, 186.5336
864.5441, 161.2670
865.0262, 138.2740
865.5083, 118.6309
865.9904, 102.3396
866.4726, 89.43399
866.9547, 80.03989
867.4368, 72.64510
867.9189, 66.60963
868.4011, 61.69233
868.8832, 57.60630
869.3653, 54.38699
869.8474, 51.86125
870.3295, 50.22344
870.8116, 48.96444
871.2938, 47.80006
871.7759, 46.70952
872.2580, 45.49500
872.7401, 44.13516
873.2222, 42.77679
873.7043, 41.39862
874.1865, 40.16669
874.6686, 39.25578
875.1507, 38.67316
875.6328, 38.28239
876.1149, 38.20454
876.5970, 38.16172
877.0792, 38.10092
877.5613, 38.00325
878.0434, 37.59978
878.5255, 36.87750
879.0076, 36.23088
879.4897, 35.94326
879.9719, 35.84132
880.4540, 35.77429
880.9361, 35.36148
881.4182, 35.72988
881.9003, 35.88066
882.3824, 35.82553
882.8646, 34.94768
883.3467, 35.13219
883.8288, 34.89096
884.3109, 34.63228
884.7930, 34.96629
885.2751, 34.20814
885.7573, 34.53272
886.2394, 34.42513
886.7215, 34.51533
887.2036, 34.17718
887.6857, 33.97134
888.1678, 34.19400
888.6500, 33.66453
889.1321, 33.75461
889.6142, 33.70281
890.0963, 33.39947
890.5784, 33.24687
891.0605, 33.30302
891.5427, 33.43129
892.0248, 33.55059
892.5069, 33.61093
892.9890, 33.37283
893.4711, 32.76115
893.9532, 32.30204
894.4354, 32.56410
894.9175, 32.98793
895.3996, 33.09750
895.8817, 32.74876
896.3638, 32.54637
896.8459, 32.60574
897.3281, 32.57227
897.8102, 32.08355
898.2923, 31.27878
898.7744, 31.04224
899.2565, 31.32287
899.7386, 31.57255
900.2208, 31.24443
900.7029, 30.91777
901.1850, 31.19199
901.6671, 31.95059
902.1492, 32.23001
902.6313, 31.66146
903.1135, 31.07945
903.5956, 30.65343
904.0777, 30.38992
904.5598, 30.33933
905.0419, 30.48174
905.5240, 30.65991
906.0062, 30.85612
906.4883, 30.99990
906.9704, 31.04877
907.4525, 30.99745
907.9346, 30.83653
908.4167, 30.42010
908.8989, 30.08656
909.3810, 29.82939
909.8631, 29.69383
910.3452, 29.82492
910.8273, 30.19222
911.3094, 30.30784
911.7916, 30.09222
912.2737, 29.79541
912.7558, 29.60748
913.2380, 29.48653
913.7201, 29.39106
914.2022, 29.31580
914.6843, 29.26972
915.1664, 29.40822
915.6486, 29.38001
916.1307, 28.90044
916.6128, 28.01422
917.0949, 27.50977
917.5770, 27.38520
918.0591, 27.40007
918.5413, 27.55284
919.0234, 27.65089
919.5055, 27.38072
919.9876, 26.84802
920.4697, 26.50178
920.9518, 26.69758
921.4340, 26.80887
921.9161, 26.66160
922.3982, 26.36428
922.8803, 26.19749
923.3624, 26.15790
923.8445, 26.09142
924.3267, 25.93867
924.8088, 25.77985
925.2909, 25.73693
925.7730, 25.73262
926.2551, 25.65114
926.7372, 25.43143
927.2194, 25.18635
927.7015, 24.92012
928.1836, 24.64394
928.6657, 24.34253
929.1478, 24.01698
929.6299, 23.86089
930.1121, 23.89600
930.5942, 23.91274
931.0763, 23.67343
931.5584, 23.35796
932.0405, 23.16966
932.5226, 23.12806
933.0048, 23.05239
933.4869, 22.78608
933.9690, 22.62638
934.4511, 22.70228
934.9332, 22.96844
935.4153, 23.25116
935.8975, 23.54345
936.3796, 23.64505
936.8617, 23.30333
937.3438, 22.91559
937.8259, 23.00083
938.3080, 23.32223
938.7902, 23.40535
939.2723, 22.90991
939.7544, 22.44371
940.2365, 22.02865
940.7186, 21.72150
941.2007, 21.65782
941.6829, 21.81467
942.1650, 21.93062
942.6471, 21.97540
943.1292, 21.94614
943.6113, 21.74601
944.0934, 21.53091
944.5756, 21.49910
945.0577, 21.74130
945.5398, 21.75907
946.0219, 21.39678
946.5040, 21.01108
946.9861, 20.77362
947.4683, 20.66735
947.9504, 20.69412
948.4325, 20.82004
948.9146, 20.34891
949.3967, 20.78825
949.8788, 21.00998
950.3610, 21.02577
950.8431, 20.21891
951.3252, 20.47435
951.8073, 20.30407
952.2894, 20.11633
952.7715, 20.52130
953.2537, 19.83408
953.7358, 20.22965
954.2179, 20.19299
954.7000, 20.35414
955.1821, 20.08694
955.6642, 19.95206
956.1464, 20.24564
956.6285, 20.30199
957.1106, 19.98548
957.5927, 20.15921
958.0748, 19.60140
958.5569, 20.10354
959.0391, 20.58588
959.5212, 20.51545
960.0033, 20.12404
960.4855, 19.71444
960.9676, 20.18944
961.4497, 20.44682
961.9318, 20.49828
962.4139, 19.72707
962.8961, 20.01816
963.3782, 19.88354
963.8603, 19.73145
964.3424, 20.17207
964.8245, 19.52051
965.3066, 19.95173
965.7888, 19.95072
966.2709, 20.14753
966.7530, 19.91599
967.2351, 19.81674
967.7172, 20.14600
968.1993, 20.23799
968.6815, 19.95713
969.1636, 19.87295
969.6457, 19.88927
970.1278, 19.81412
970.6099, 19.74885
971.0920, 19.68914
971.5742, 19.69287
972.0563, 19.93073
972.5384, 20.16878
973.0205, 19.98705
973.5026, 19.51109
973.9847, 19.26577
974.4669, 19.62664
974.9490, 19.99570
975.4311, 20.34141
975.9132, 20.55135
976.3953, 20.32462
976.8774, 19.69074
977.3596, 19.07933
977.8417, 18.54236
978.3238, 18.25356
978.8059, 18.50689
979.2880, 19.02064
979.7701, 19.52496
980.2523, 20.03168
980.7344, 20.29759
981.2165, 20.21854
981.6986, 20.09291
982.1807, 20.14412
982.6628, 20.30208
983.1450, 20.18324
983.6271, 19.84112
984.1092, 19.61121
984.5913, 19.88576
985.0734, 20.12128
985.5555, 19.79173
986.0377, 19.22486
986.5198, 19.35446
987.0019, 20.54328
987.4840, 21.19189
987.9661, 20.98024
988.4482, 20.37273
988.9304, 19.87236
989.4125, 19.47409
989.8946, 19.18126
990.3767, 19.00117
990.8588, 18.88061
991.3409, 18.73490
991.8231, 18.71218
992.3052, 18.95586
992.7873, 19.44431
993.2694, 19.63309
993.7515, 19.51000
994.2336, 19.44459
994.7158, 19.79443
995.1979, 20.16859
995.6800, 20.03457
996.1621, 19.57828
996.6442, 19.23554
997.1263, 18.99673
997.6085, 19.12854
998.0906, 19.91918
998.5727, 20.73664
999.0548, 20.60444
999.5369, 19.70739
1000.019, 19.27425
1000.501, 19.47027
1000.983, 19.68862
1001.465, 19.38656
1001.948, 19.01170
1002.430, 18.96706
1002.912, 19.27641
1003.394, 19.31735
1003.876, 18.97161
1004.358, 18.74693
1004.840, 18.86649
1005.322, 19.18650
1005.804, 19.59780
1006.287, 19.97111
1006.769, 19.97181
1007.251, 19.03269
1007.733, 18.38845
1008.215, 18.64014
1008.697, 19.19792
1009.179, 19.57169
1009.661, 19.74756
1010.144, 19.87196
1010.626, 19.95108
1011.108, 19.97440
1011.590, 19.93295
1012.072, 19.83398
1012.554, 19.60636
1013.036, 19.29025
1013.518, 19.20022
1014.000, 19.61279
1014.483, 19.83075
1014.965, 19.58905
1015.447, 19.18930
1015.929, 19.30202
1016.411, 19.79648
1016.893, 20.21869
1017.375, 20.48899
1017.857, 20.55351
1018.340, 20.23732
1018.822, 19.79856
1019.304, 19.42060
1019.786, 19.08055
1020.268, 19.10847
1020.750, 19.58629
1021.232, 19.90689
1021.714, 19.49045
1022.196, 18.79868
1022.679, 18.56418
1023.161, 18.66107
1023.643, 18.73244
1024.125, 18.43884
1024.607, 18.43020
1025.089, 18.95375
1025.571, 19.63455
1026.053, 20.03504
1026.536, 20.13735
1027.018, 19.66087
1027.500, 18.52526
1027.982, 17.66821
1028.464, 18.16965
1028.946, 18.95478
1029.428, 19.13447
1029.910, 18.66494
1030.392, 18.41673
1030.875, 18.39398
1031.357, 18.59623
1031.839, 19.11754
1032.321, 19.72233
1032.803, 19.97792
1033.285, 19.99313
1033.767, 19.98917
1034.249, 20.03871
1034.732, 20.06644
1035.214, 20.08316
1035.696, 20.04315
1036.178, 19.87814
1036.660, 19.59170
1037.142, 19.46929
1037.624, 19.50259
1038.106, 19.39820
1038.589, 18.66360
1039.071, 17.98553
1039.553, 18.02191
1040.035, 18.55232
1040.517, 18.76027
1040.999, 18.44401
1041.481, 18.28423
1041.963, 18.42553
1042.445, 18.62397
1042.927, 18.50936
1043.410, 18.23114
1043.892, 18.08655
1044.374, 18.12807
1044.856, 18.18234
1045.338, 18.22244
1045.820, 18.20822
1046.302, 18.04764
1046.784, 17.82262
1047.267, 18.08815
1047.749, 18.78797
1048.231, 19.22483
1048.713, 18.99868
1049.195, 18.62460
1049.677, 18.40930
1050.159, 18.33481
1050.641, 18.40390
1051.124, 18.73347
1051.606, 18.83964
1052.088, 18.67289
1052.570, 18.46469
1053.052, 18.37684
1053.534, 18.37774
1054.016, 18.48266
1054.498, 18.64164
1054.980, 18.63452
1055.463, 17.94193
1055.945, 17.66874
1056.427, 18.28487
1056.909, 19.21155
1057.391, 19.45460
1057.873, 19.09464
1058.355, 18.76061
1058.837, 18.54114
1059.319, 18.42286
1059.802, 18.61140
1060.284, 18.72590
1060.766, 18.30028
1061.248, 17.38924
1061.730, 17.12761
1062.212, 17.63334
1062.694, 18.20111
1063.176, 18.63364
1063.659, 18.88644
1064.141, 18.79189
1064.623, 18.50595
1065.105, 18.29674
1065.587, 18.29624
1066.069, 18.22927
1066.551, 17.98958
1067.033, 17.80066
1067.516, 17.87963
1067.998, 18.15409
1068.480, 18.15714
1068.962, 17.95768
1069.444, 17.94438
1069.926, 18.54323
1070.408, 19.14355
1070.890, 19.62845
1071.372, 19.84278
1071.854, 19.37898
1072.337, 18.11230
1072.819, 17.50310
1073.301, 17.74379
1073.783, 18.22517
1074.265, 18.56563
1074.747, 18.72888
1075.229, 18.52822
1075.711, 18.01083
1076.194, 17.95682
1076.676, 18.71293
1077.158, 19.13961
1077.640, 18.82072
1078.122, 18.23263
1078.604, 18.28612
1079.086, 18.68292
1079.568, 18.74713
1080.051, 18.21683
1080.533, 17.83867
1081.015, 18.05211
1081.497, 18.29648
1081.979, 18.27851
1082.461, 18.05131
1082.943, 17.89272
1083.425, 17.82059
1083.907, 17.99868
1084.390, 18.82153
1084.872, 19.47068
1085.354, 19.22262
1085.836, 18.60028
1086.318, 18.29909
1086.800, 18.42310
1087.282, 18.50186
1087.764, 18.52889
1088.247, 18.50161
1088.729, 18.32544
1089.211, 18.16068
1089.693, 18.30142
1090.175, 18.63467
1090.657, 18.68439
1091.139, 18.01649
1091.621, 17.76459
1092.104, 18.20881
1092.586, 18.83825
1093.068, 18.90385
1093.550, 18.63947
1094.032, 18.61136
1094.514, 18.88695
1094.996, 19.13600
1095.478, 19.25103
1095.960, 19.26744
1096.443, 19.24508
1096.925, 19.11697
1097.407, 18.50120
1097.889, 17.50866
1098.371, 17.02353
1098.853, 17.40470
1099.335, 17.87314
1099.817, 17.76980
1100.299, 17.59074
1100.782, 17.84433
1101.264, 18.55511
1101.746, 18.95500
1102.228, 19.03542
1102.710, 18.94097
1103.192, 18.62146
1103.674, 18.32051
1104.156, 18.42665
1104.639, 18.71076
1105.121, 18.78690
1105.603, 18.37747
1106.085, 18.20053
1106.567, 18.32308
1107.049, 18.48779
1107.531, 18.51398
1108.013, 18.42688
1108.495, 18.20580
1108.978, 17.90461
1109.460, 17.72522
1109.942, 17.94434
1110.424, 17.99621
1110.906, 17.68896
1111.388, 17.30632
1111.870, 17.23004
1112.352, 17.40386
1112.834, 17.62881
1113.317, 17.88330
1113.799, 18.05558
1114.281, 17.97211
1114.763, 17.91040
1115.245, 18.08249
1115.727, 18.34497
1116.209, 18.27167
1116.691, 17.87618
1117.174, 17.62854
1117.656, 17.63992
1118.138, 17.75264
1118.620, 17.94862
1119.102, 18.09903
1119.584, 18.07114
1120.066, 17.86716
1120.548, 17.62438
1121.031, 17.32392
1121.513, 17.10428
1121.995, 16.98229
1122.477, 17.03269
1122.959, 17.68233
1123.441, 18.41610
1123.923, 18.42238
1124.405, 17.10116
1124.887, 16.45439
1125.370, 16.72242
1125.852, 17.06217
1126.334, 16.90364
1126.816, 16.53928
1127.298, 16.69181
1127.780, 17.12874
1128.262, 17.29221
1128.744, 16.61782
1129.227, 16.20641
1129.709, 16.22401
1130.191, 16.42082
1130.673, 16.60884
1131.155, 16.79329
1131.637, 17.06844
1132.119, 17.39266
1132.601, 17.52538
1133.083, 17.13853
1133.566, 16.79101
1134.048, 16.68704
1134.530, 16.70322
1135.012, 16.65565
1135.494, 16.56353
1135.976, 16.67448
1136.458, 17.00867
1136.940, 17.31772
1137.422, 17.52977
1137.905, 17.56757
1138.387, 17.24008
1138.869, 16.73009
1139.351, 16.48588
1139.833, 16.51363
1140.315, 16.61956
1140.797, 16.77043
1141.279, 16.98475
1141.762, 17.50536
1142.244, 17.92286
1142.726, 17.72982
1143.208, 16.97430
1143.690, 16.70440
1144.172, 17.01318
1144.654, 17.26873
1145.136, 17.26605
1145.619, 17.17683
1146.101, 17.20634
1146.583, 17.27307
1147.065, 17.29709
1147.547, 17.27720
1148.029, 17.08123
1148.511, 16.65370
1148.993, 16.22306
1149.475, 15.84805
1149.958, 15.58427
1150.440, 15.49830
1150.922, 15.59596
1151.404, 15.92489
1151.886, 16.72865
1152.368, 17.14966
1152.850, 16.99929
1153.332, 16.77776
1153.814, 16.80290
1154.297, 16.97648
1154.779, 17.14429
1155.261, 17.25059
1155.743, 17.13267
1156.225, 16.39519
1156.707, 15.94454
1157.189, 16.00273
1157.671, 16.17405
1158.154, 16.05038
1158.636, 15.75678
1159.118, 15.86060
1159.600, 16.30034
1160.082, 16.73399
1160.564, 17.10075
1161.046, 17.29634
1161.528, 17.25474
1162.010, 17.08360
1162.493, 16.83286
1162.975, 16.54051
1163.457, 16.49046
1163.939, 16.68023
1164.421, 16.89590
1164.903, 17.05110
1165.385, 17.16182
1165.867, 17.29646
1166.349, 17.35122
1166.832, 17.02422
1167.314, 16.36780
1167.796, 16.19707
1168.278, 16.60620
1168.760, 16.97427
1169.242, 16.74586
1169.724, 16.46124
1170.206, 16.49219
1170.689, 16.70832
1171.171, 16.84114
1171.653, 16.51101
1172.135, 16.97014
1172.617, 17.21168
1173.099, 17.24729
1173.581, 16.46022
1174.063, 16.73547
1174.546, 16.58491
1175.028, 16.41698
1175.510, 16.84174
1175.992, 16.17434
1176.474, 16.58970
1176.956, 16.57284
1177.438, 16.75381
1177.920, 16.50641
1178.402, 16.39132
1178.885, 16.70464
1179.367, 15.93303
1179.849, 15.90964
1180.331, 16.29104
1180.813, 16.59073
1181.295, 16.63627
1181.777, 16.55094
1182.259, 16.33483
1182.742, 16.13815
1183.224, 16.20583
1183.706, 16.60413
1184.188, 16.56612
1184.670, 16.00900
1185.152, 15.61406
1185.634, 15.73478
1186.116, 16.07192
1186.599, 16.38112
1187.081, 16.64829
1187.563, 16.84650
1188.045, 16.97059
1188.527, 17.06114
1189.009, 17.13826
1189.491, 17.04391
1189.973, 16.53634
1190.455, 15.99773
1190.938, 15.91523
1191.420, 16.12334
1191.902, 16.36953
1192.384, 16.64247
1192.866, 16.89863
1193.348, 17.18038
1193.830, 17.23792
1194.312, 16.64038
1194.794, 15.95007
1195.277, 16.10019
1195.759, 16.66629
1196.241, 16.74673
1196.723, 15.85114
1197.205, 15.27658
1197.687, 15.03015
1198.169, 15.13572
1198.651, 15.95386
1199.134, 16.88680
1199.616, 17.04449
1200.098, 16.67284
1200.580, 16.40241
1201.062, 16.44291
1201.544, 16.27364
1202.026, 15.78372
1202.508, 15.45366
1202.990, 15.91182
1203.473, 16.62970
1203.955, 16.94293
1204.437, 16.91415
1204.919, 16.81580
1205.401, 16.67581
1205.883, 16.49446
1206.365, 16.25013
1206.847, 16.04674
1207.329, 16.00949
1207.812, 16.05306
1208.294, 16.07075
1208.776, 16.06986
1209.258, 16.11992
1209.740, 16.34815
1210.222, 16.24958
1210.704, 15.66379
1211.186, 15.16594
1211.669, 15.53388
1212.151, 16.19259
1212.633, 16.34048
1213.115, 16.06600
1213.597, 16.13625
1214.079, 16.84210
1214.561, 17.15700
1215.043, 16.86476
1215.526, 16.47329
1216.008, 16.63636
1216.490, 16.93336
1216.972, 16.73061
1217.454, 16.11110
1217.936, 15.97115
1218.418, 16.56997
1218.900, 16.84216
1219.382, 16.53216
1219.865, 16.21707
1220.347, 16.77419
1220.829, 17.51313
1221.311, 17.53036
1221.793, 16.87794
1222.275, 16.68403
1222.757, 17.18615
1223.239, 17.23151
1223.722, 16.47042
1224.204, 15.81040
1224.686, 16.59846
1225.168, 17.74436
1225.650, 18.06685
1226.132, 17.54405
1226.614, 17.19747
1227.096, 17.01655
1227.578, 17.17744
1228.061, 17.79576
1228.543, 18.38282
1229.025, 18.31630
1229.507, 18.04148
1229.989, 18.03060
1230.471, 18.25845
1230.953, 18.16284
1231.435, 17.67983
1231.917, 17.46897
1232.400, 17.73023
1232.882, 18.05047
1233.364, 18.08681
1233.846, 17.95971
1234.328, 17.67425
1234.810, 17.30063
1235.292, 17.29924
1235.774, 17.69839
1236.257, 17.75674
1236.739, 17.20920
1237.221, 16.74609
1237.703, 17.09205
1238.185, 17.64867
1238.667, 17.98978
1239.149, 18.11600
1239.631, 17.99211
1240.114, 17.62927
1240.596, 17.23096
1241.078, 16.81219
1241.560, 16.58407
1242.042, 16.83875
1242.524, 17.22252
1243.006, 17.51111
1243.488, 17.72070
1243.970, 17.94156
1244.453, 18.16331
1244.935, 18.28329
1245.417, 18.27071
1245.899, 18.19926
1246.381, 18.12918
1246.863, 17.98145
1247.345, 17.65121
1247.827, 17.25570
1248.309, 17.22267
1248.792, 17.48605
1249.274, 17.78673
1249.756, 18.08054
1250.238, 18.29089
1250.720, 18.32185
1251.202, 18.32825
1251.684, 18.39265
1252.166, 18.46079
1252.649, 18.33713
1253.131, 18.10270
1253.613, 18.01355
1254.095, 18.14752
1254.577, 18.26117
1255.059, 18.28440
1255.541, 18.25212
1256.023, 18.12934
1256.505, 18.02027
1256.988, 18.24005
1257.470, 18.61270
1257.952, 18.77596
1258.434, 18.65936
1258.916, 18.33406
1259.398, 17.61029
1259.880, 17.17752
1260.362, 17.32752
1260.844, 17.76107
1261.327, 18.12512
1261.809, 18.37470
1262.291, 18.37247
1262.773, 18.06040
1263.255, 18.07712
1263.737, 18.61050
1264.219, 18.88410
1264.701, 18.58672
1265.184, 18.10995
1265.666, 17.82297
1266.148, 17.71729
1266.630, 17.81426
1267.112, 18.12357
1267.594, 18.54716
1268.076, 19.16156
1268.558, 19.22375
1269.041, 18.36634
1269.523, 17.48539
1270.005, 17.54927
1270.487, 17.91999
1270.969, 17.96668
1271.451, 17.75634
1271.933, 17.87231
1272.415, 18.30563
1272.897, 18.41467
1273.380, 17.97684
1273.862, 17.59236
1274.344, 17.93747
1274.826, 18.23726
1275.308, 17.90449
1275.790, 17.18297
1276.272, 16.85922
1276.754, 16.88315
1277.237, 16.99060
1277.719, 17.12723
1278.201, 17.34065
1278.683, 17.91203
1279.165, 18.21414
1279.647, 17.84803
1280.129, 17.24779
1280.611, 17.47928
1281.094, 18.21255
1281.576, 18.51625
1282.058, 18.22593
1282.540, 17.96555
1283.022, 17.95425
1283.504, 17.94477
1283.986, 17.89192
1284.468, 17.77710
1284.950, 17.43362
1285.432, 17.07526
1285.915, 17.12882
1286.397, 17.62513
1286.879, 17.94852
1287.361, 18.02129
1287.843, 17.98807
1288.325, 17.85469
1288.807, 17.72532
1289.289, 17.73576
1289.772, 17.80201
1290.254, 17.82844
1290.736, 17.82247
1291.218, 17.91244
1291.700, 18.13124
1292.182, 18.05522
1292.664, 17.57427
1293.146, 17.19895
1293.629, 17.48571
1294.111, 17.91218
1294.593, 18.15068
1295.075, 18.24272
1295.557, 18.23743
1296.039, 18.14932
1296.521, 18.19240
1297.003, 18.38923
1297.485, 18.42288
1297.968, 17.89696
1298.450, 17.41286
1298.932, 17.12835
1299.414, 17.06585
1299.896, 17.42303
1300.378, 18.00873
1300.860, 18.25699
1301.342, 18.13144
1301.824, 17.79667
1302.307, 17.25374
##END=



