##NAMES=Walpurgite
##RRUFFID=R050573
##IDEAL CHEMISTRY=Bi^3+^_4_O_4_(U^6+^O_2_)(As^5+^O_4_)_2_&#183;2H_2_O
##LOCALITY=Joachimstal, Bohemia, Czech Republic
##OWNER=RRUFF
##SOURCE=University of Arizona Mineral Museum
##DESCRIPTION=Yellow thin tabular crystals associated with metazeunerite, R060301
##STATUS=The identification of this mineral has been confirmed by single-crystal X-ray diffraction.
##URL=rruff.info/R050573
91.11523, 51.24083
91.59735, 50.13372
92.07947, 50.98169
92.56158, 53.23938
93.04370, 55.19384
93.52582, 55.43750
94.00793, 54.71603
94.49006, 54.73377
94.97218, 55.85066
95.45429, 57.32082
95.93641, 57.93379
96.41853, 57.70726
96.90064, 57.36857
97.38276, 57.45445
97.86488, 57.92210
98.34699, 58.29710
98.82911, 58.47894
99.31123, 58.52966
99.79334, 58.60937
100.2755, 58.68641
100.7576, 58.90039
101.2397, 59.45502
101.7218, 60.46130
102.2039, 61.30924
102.6861, 61.89527
103.1682, 62.22361
103.6503, 62.20086
104.1324, 61.54968
104.6145, 60.85307
105.0966, 60.84261
105.5788, 61.85091
106.0609, 62.97902
106.5430, 64.02685
107.0251, 65.01978
107.5072, 65.84431
107.9893, 66.07192
108.4715, 66.24326
108.9536, 67.32439
109.4357, 69.84528
109.9178, 72.81639
110.3999, 75.94994
110.8820, 78.93605
111.3642, 82.54568
111.8463, 86.98963
112.3284, 92.11170
112.8105, 97.49767
113.2926, 102.6492
113.7747, 108.4371
114.2569, 115.2345
114.7390, 122.8833
115.2211, 131.8416
115.7032, 142.0308
116.1853, 153.5148
116.6674, 166.5600
117.1496, 181.1834
117.6317, 197.6364
118.1138, 215.9697
118.5959, 235.4833
119.0780, 257.6448
119.5602, 283.0475
120.0423, 311.8874
120.5244, 343.5839
121.0065, 378.8807
121.4886, 416.6593
121.9707, 455.6122
122.4529, 495.8271
122.9350, 536.1918
123.4171, 575.0741
123.8992, 612.2252
124.3813, 650.2407
124.8634, 691.5140
125.3456, 735.2871
125.8277, 780.0308
126.3098, 824.3686
126.7919, 869.0040
127.2740, 914.0543
127.7561, 959.0364
128.2383, 1006.443
128.7204, 1058.675
129.2025, 1115.717
129.6846, 1177.489
130.1667, 1244.730
130.6488, 1316.133
131.1310, 1391.667
131.6131, 1471.075
132.0952, 1554.932
132.5773, 1645.468
133.0594, 1743.178
133.5415, 1842.672
134.0237, 1940.930
134.5058, 2038.588
134.9879, 2138.212
135.4700, 2241.897
135.9521, 2347.470
136.4343, 2451.642
136.9164, 2554.876
137.3985, 2656.158
137.8806, 2754.895
138.3627, 2851.276
138.8448, 2948.927
139.3270, 3049.822
139.8091, 3154.200
140.2912, 3259.001
140.7733, 3364.173
141.2554, 3471.557
141.7375, 3580.766
142.2197, 3690.944
142.7018, 3808.425
143.1839, 3935.774
143.6660, 4072.952
144.1481, 4212.751
144.6302, 4355.995
145.1124, 4500.146
145.5945, 4639.962
146.0766, 4779.669
146.5587, 4911.150
147.0408, 5034.588
147.5230, 5153.212
148.0051, 5248.875
148.4872, 5296.547
148.9693, 5290.621
149.4514, 5266.660
149.9335, 5225.714
150.4157, 5167.554
150.8978, 5093.064
151.3799, 4997.849
151.8620, 4894.852
152.3441, 4780.521
152.8262, 4658.620
153.3084, 4538.472
153.7905, 4419.776
154.2726, 4303.688
154.7547, 4188.461
155.2368, 4072.737
155.7189, 3963.002
156.2011, 3859.045
156.6832, 3760.596
157.1653, 3670.146
157.6474, 3588.247
158.1295, 3513.741
158.6116, 3446.078
159.0938, 3386.347
159.5759, 3331.284
160.0580, 3279.540
160.5401, 3231.482
161.0222, 3188.665
161.5044, 3154.293
161.9865, 3123.575
162.4686, 3093.177
162.9507, 3059.852
163.4328, 3029.345
163.9149, 3003.536
164.3971, 2981.982
164.8792, 2963.951
165.3613, 2951.659
165.8434, 2941.548
166.3255, 2930.303
166.8076, 2915.047
167.2898, 2900.191
167.7719, 2888.621
168.2540, 2880.012
168.7361, 2871.447
169.2182, 2859.628
169.7003, 2847.352
170.1825, 2837.955
170.6646, 2834.842
171.1467, 2833.552
171.6288, 2830.410
172.1109, 2825.482
172.5931, 2820.555
173.0752, 2816.613
173.5573, 2813.511
174.0394, 2811.036
174.5215, 2808.503
175.0036, 2806.810
175.4858, 2807.471
175.9679, 2810.531
176.4500, 2813.903
176.9321, 2816.015
177.4142, 2817.132
177.8963, 2817.830
178.3785, 2818.128
178.8606, 2818.260
179.3427, 2818.663
179.8248, 2819.392
180.3069, 2820.035
180.7890, 2819.892
181.2712, 2819.243
181.7533, 2818.974
182.2354, 2820.221
182.7175, 2822.043
183.1996, 2822.072
183.6818, 2819.977
184.1639, 2817.479
184.6460, 2816.325
185.1281, 2816.427
185.6102, 2817.305
186.0923, 2819.899
186.5745, 2823.228
187.0566, 2823.340
187.5387, 2819.375
188.0208, 2814.858
188.5029, 2814.985
188.9850, 2819.446
189.4672, 2824.210
189.9493, 2827.068
190.4314, 2828.458
190.9135, 2830.803
191.3956, 2834.403
191.8777, 2838.552
192.3599, 2842.923
192.8420, 2847.503
193.3241, 2850.354
193.8062, 2850.265
194.2883, 2847.348
194.7704, 2842.813
195.2526, 2836.297
195.7347, 2828.825
196.2168, 2822.365
196.6989, 2816.958
197.1810, 2811.386
197.6632, 2804.644
198.1453, 2796.650
198.6274, 2789.606
199.1095, 2783.604
199.5916, 2778.585
200.0737, 2774.581
200.5559, 2771.626
201.0380, 2769.484
201.5201, 2768.286
202.0022, 2768.139
202.4843, 2767.945
202.9664, 2767.683
203.4486, 2767.424
203.9307, 2767.257
204.4128, 2767.214
204.8949, 2767.316
205.3770, 2768.146
205.8591, 2770.148
206.3413, 2769.453
206.8234, 2765.257
207.3055, 2758.626
207.7876, 2752.041
208.2697, 2745.292
208.7519, 2739.135
209.2340, 2734.052
209.7161, 2730.233
210.1982, 2726.324
210.6803, 2722.274
211.1624, 2718.065
211.6446, 2713.489
212.1267, 2708.273
212.6088, 2703.548
213.0909, 2700.124
213.5730, 2698.530
214.0551, 2696.343
214.5373, 2693.250
215.0194, 2689.663
215.5015, 2686.519
215.9836, 2683.704
216.4657, 2681.630
216.9478, 2680.764
217.4300, 2681.850
217.9121, 2681.565
218.3942, 2679.237
218.8763, 2675.560
219.3584, 2672.438
219.8405, 2669.418
220.3227, 2667.658
220.8048, 2668.269
221.2869, 2672.951
221.7690, 2674.784
222.2511, 2672.298
222.7333, 2667.159
223.2154, 2664.374
223.6975, 2664.814
224.1796, 2666.177
224.6617, 2667.604
225.1438, 2669.636
225.6260, 2670.441
226.1081, 2669.684
226.5902, 2667.846
227.0723, 2665.918
227.5544, 2662.679
228.0365, 2661.343
228.5187, 2664.073
229.0008, 2673.951
229.4829, 2680.120
229.9650, 2681.064
230.4471, 2678.560
230.9292, 2677.199
231.4114, 2676.644
231.8935, 2677.564
232.3756, 2680.604
232.8577, 2687.648
233.3398, 2692.182
233.8220, 2693.325
234.3041, 2692.203
234.7862, 2691.560
235.2683, 2691.679
235.7504, 2691.886
236.2325, 2691.945
236.7147, 2691.890
237.1968, 2691.883
237.6789, 2692.383
238.1610, 2692.894
238.6431, 2692.164
239.1252, 2689.541
239.6074, 2686.846
240.0895, 2684.817
240.5716, 2683.784
241.0537, 2682.617
241.5358, 2681.281
242.0179, 2679.813
242.5001, 2678.102
242.9822, 2675.235
243.4643, 2673.485
243.9464, 2673.877
244.4285, 2677.248
244.9106, 2679.644
245.3928, 2680.386
245.8749, 2680.442
246.3570, 2681.664
246.8391, 2684.948
247.3212, 2687.751
247.8034, 2689.259
248.2855, 2689.323
248.7676, 2688.551
249.2497, 2686.113
249.7318, 2683.501
250.2139, 2683.116
250.6961, 2686.083
251.1782, 2689.380
251.6603, 2692.315
252.1424, 2694.962
252.6245, 2697.038
253.1066, 2698.188
253.5888, 2699.163
254.0709, 2701.011
254.5530, 2704.162
255.0351, 2707.290
255.5172, 2709.786
255.9993, 2711.476
256.4815, 2714.570
256.9636, 2719.942
257.4457, 2725.706
257.9278, 2729.550
258.4099, 2730.431
258.8921, 2731.731
259.3742, 2734.110
259.8563, 2737.543
260.3384, 2742.276
260.8205, 2748.868
261.3026, 2755.957
261.7848, 2762.074
262.2669, 2766.445
262.7490, 2771.876
263.2311, 2779.006
263.7132, 2787.774
264.1953, 2797.137
264.6775, 2807.830
265.1596, 2817.794
265.6417, 2824.555
266.1238, 2826.562
266.6059, 2830.718
267.0880, 2838.552
267.5702, 2849.618
268.0523, 2860.421
268.5344, 2871.154
269.0165, 2881.522
269.4986, 2891.261
269.9807, 2900.239
270.4629, 2909.730
270.9450, 2920.350
271.4271, 2931.538
271.9092, 2940.190
272.3913, 2945.404
272.8734, 2950.616
273.3556, 2958.281
273.8377, 2968.749
274.3198, 2979.100
274.8019, 2989.067
275.2840, 2998.832
275.7661, 3008.891
276.2483, 3019.088
276.7304, 3030.087
277.2125, 3042.628
277.6946, 3056.987
278.1768, 3069.681
278.6589, 3080.277
279.1410, 3089.463
279.6231, 3097.770
280.1052, 3104.861
280.5873, 3114.096
281.0695, 3128.353
281.5516, 3147.605
282.0337, 3164.108
282.5158, 3177.103
282.9979, 3188.544
283.4800, 3201.280
283.9622, 3215.305
284.4443, 3230.150
284.9264, 3245.986
285.4085, 3262.510
285.8906, 3278.337
286.3727, 3293.218
286.8549, 3308.114
287.3370, 3324.504
287.8191, 3342.291
288.3012, 3360.104
288.7833, 3378.720
289.2654, 3396.787
289.7476, 3408.687
290.2297, 3413.925
290.7118, 3417.089
291.1939, 3423.036
291.6760, 3431.278
292.1581, 3439.273
292.6403, 3447.744
293.1224, 3454.707
293.6045, 3454.939
294.0866, 3448.440
294.5687, 3439.173
295.0508, 3430.874
295.5330, 3422.639
296.0151, 3411.293
296.4972, 3394.973
296.9793, 3376.261
297.4614, 3360.932
297.9435, 3348.307
298.4257, 3333.780
298.9078, 3313.328
299.3899, 3288.609
299.8720, 3263.418
300.3541, 3237.713
300.8362, 3212.660
301.3184, 3190.083
301.8005, 3169.366
302.2826, 3148.940
302.7647, 3127.351
303.2469, 3105.471
303.7290, 3083.921
304.2111, 3062.820
304.6932, 3042.614
305.1753, 3024.451
305.6574, 3007.796
306.1396, 2992.119
306.6217, 2977.301
307.1038, 2963.019
307.5859, 2948.801
308.0680, 2934.431
308.5501, 2920.667
309.0323, 2907.073
309.5144, 2894.572
309.9965, 2884.680
310.4786, 2880.405
310.9607, 2877.162
311.4428, 2871.096
311.9250, 2862.293
312.4071, 2854.023
312.8892, 2849.036
313.3713, 2845.487
313.8534, 2841.400
314.3355, 2835.357
314.8177, 2829.374
315.2998, 2824.529
315.7819, 2820.685
316.2640, 2816.974
316.7461, 2811.796
317.2282, 2807.306
317.7104, 2805.316
318.1925, 2808.509
318.6746, 2810.796
319.1567, 2809.437
319.6388, 2805.504
320.1209, 2801.900
320.6031, 2798.402
321.0852, 2796.298
321.5673, 2796.536
322.0494, 2800.467
322.5315, 2803.904
323.0136, 2804.977
323.4958, 2805.232
323.9779, 2807.175
324.4600, 2813.348
324.9421, 2819.441
325.4242, 2823.796
325.9064, 2825.861
326.3885, 2828.597
326.8706, 2833.962
327.3527, 2839.431
327.8348, 2842.416
328.3170, 2839.530
328.7991, 2837.677
329.2812, 2838.543
329.7633, 2842.213
330.2454, 2844.266
330.7275, 2845.562
331.2097, 2844.421
331.6918, 2839.335
332.1739, 2826.777
332.6560, 2815.820
333.1381, 2808.126
333.6202, 2802.817
334.1024, 2795.821
334.5845, 2785.120
335.0666, 2775.793
335.5487, 2770.961
336.0308, 2772.644
336.5129, 2773.562
336.9951, 2774.905
337.4772, 2774.581
337.9593, 2766.654
338.4414, 2747.612
338.9235, 2731.384
339.4056, 2724.547
339.8878, 2728.028
340.3699, 2729.469
340.8520, 2728.537
341.3341, 2726.274
341.8162, 2723.760
342.2983, 2720.963
342.7805, 2718.228
343.2626, 2715.430
343.7447, 2712.701
344.2268, 2711.186
344.7089, 2710.938
345.1910, 2711.091
345.6732, 2710.184
346.1553, 2708.509
346.6374, 2709.172
347.1195, 2713.686
347.6016, 2719.808
348.0837, 2722.818
348.5659, 2722.910
349.0480, 2722.543
349.5301, 2723.687
350.0122, 2725.731
350.4944, 2727.043
350.9765, 2727.457
351.4586, 2727.227
351.9407, 2725.769
352.4228, 2723.727
352.9049, 2723.171
353.3871, 2726.528
353.8692, 2731.396
354.3513, 2734.315
354.8334, 2735.007
355.3155, 2735.752
355.7976, 2738.506
356.2798, 2742.447
356.7619, 2746.306
357.2440, 2749.444
357.7261, 2752.299
358.2082, 2755.533
358.6903, 2758.926
359.1725, 2761.168
359.6546, 2760.433
360.1367, 2758.750
360.6188, 2757.876
361.1009, 2758.335
361.5830, 2759.528
362.0652, 2762.553
362.5473, 2766.238
363.0294, 2767.677
363.5115, 2764.157
363.9936, 2759.531
364.4757, 2755.687
364.9579, 2752.948
365.4400, 2750.656
365.9221, 2749.706
366.4042, 2748.848
366.8863, 2746.497
367.3684, 2740.310
367.8506, 2734.832
368.3327, 2731.801
368.8148, 2731.612
369.2969, 2729.536
369.7790, 2724.249
370.2611, 2717.973
370.7433, 2712.062
371.2254, 2705.195
371.7075, 2700.923
372.1896, 2700.715
372.6717, 2703.392
373.1538, 2703.993
373.6360, 2701.338
374.1181, 2698.447
374.6002, 2696.917
375.0823, 2697.366
375.5645, 2696.734
376.0466, 2694.569
376.5287, 2691.831
377.0108, 2690.093
377.4929, 2689.511
377.9750, 2689.455
378.4572, 2690.036
378.9393, 2691.131
379.4214, 2691.221
379.9035, 2690.188
380.3856, 2688.744
380.8677, 2687.079
381.3499, 2685.315
381.8320, 2685.252
382.3141, 2687.904
382.7962, 2691.728
383.2783, 2693.389
383.7604, 2692.958
384.2426, 2692.228
384.7247, 2692.314
385.2068, 2692.941
385.6889, 2693.550
386.1710, 2694.080
386.6531, 2694.484
387.1353, 2694.570
387.6174, 2694.488
388.0995, 2694.620
388.5816, 2695.994
389.0637, 2697.222
389.5458, 2696.656
390.0280, 2694.333
390.5101, 2691.812
390.9922, 2689.688
391.4743, 2688.132
391.9564, 2687.394
392.4385, 2688.737
392.9207, 2689.479
393.4028, 2687.219
393.8849, 2683.061
394.3670, 2680.324
394.8491, 2681.539
395.3312, 2683.586
395.8134, 2684.791
396.2955, 2684.825
396.7776, 2684.267
397.2597, 2682.742
397.7418, 2680.846
398.2239, 2679.353
398.7061, 2678.327
399.1882, 2677.784
399.6703, 2678.053
400.1524, 2679.207
400.6346, 2679.650
401.1167, 2678.980
401.5988, 2677.964
402.0809, 2677.062
402.5630, 2676.106
403.0451, 2675.576
403.5273, 2675.638
404.0094, 2676.067
404.4915, 2676.196
404.9736, 2675.782
405.4557, 2675.550
405.9378, 2675.828
406.4200, 2676.640
406.9021, 2677.671
407.3842, 2679.153
407.8663, 2680.323
408.3484, 2680.061
408.8305, 2678.368
409.3127, 2676.464
409.7948, 2674.419
410.2769, 2672.638
410.7590, 2672.164
411.2411, 2673.042
411.7232, 2675.071
412.2054, 2678.922
412.6875, 2683.894
413.1696, 2687.669
413.6517, 2689.688
414.1338, 2691.375
414.6159, 2694.692
415.0981, 2699.011
415.5802, 2702.638
416.0623, 2703.235
416.5444, 2703.478
417.0265, 2706.474
417.5086, 2712.265
417.9908, 2717.869
418.4729, 2721.253
418.9550, 2723.445
419.4371, 2725.446
419.9192, 2727.045
420.4013, 2729.152
420.8835, 2732.365
421.3656, 2736.431
421.8477, 2740.632
422.3298, 2745.203
422.8119, 2749.500
423.2940, 2753.679
423.7762, 2758.592
424.2583, 2760.744
424.7404, 2757.229
425.2225, 2751.783
425.7047, 2748.575
426.1868, 2748.523
426.6689, 2749.622
427.1510, 2752.200
427.6331, 2756.022
428.1152, 2758.521
428.5974, 2759.756
429.0795, 2759.607
429.5616, 2757.722
430.0437, 2753.595
430.5258, 2750.038
431.0079, 2747.709
431.4901, 2745.295
431.9722, 2739.693
432.4543, 2730.469
432.9364, 2722.507
433.4185, 2718.238
433.9006, 2716.864
434.3828, 2715.173
434.8649, 2713.190
435.3470, 2710.647
435.8291, 2707.019
436.3112, 2702.614
436.7933, 2698.291
437.2755, 2693.934
437.7576, 2690.387
438.2397, 2689.823
438.7218, 2691.317
439.2039, 2691.704
439.6860, 2687.922
440.1682, 2682.899
440.6503, 2679.836
441.1324, 2678.939
441.6145, 2678.298
442.0966, 2676.541
442.5787, 2674.441
443.0609, 2672.820
443.5430, 2670.930
444.0251, 2670.497
444.5072, 2673.919
444.9893, 2679.663
445.4714, 2682.322
445.9536, 2676.750
446.4357, 2671.173
446.9178, 2669.656
447.3999, 2674.858
447.8820, 2677.647
448.3641, 2675.883
448.8463, 2672.870
449.3284, 2672.323
449.8105, 2676.404
450.2926, 2679.043
450.7747, 2678.340
451.2569, 2675.180
451.7390, 2675.356
452.2211, 2679.982
452.7032, 2685.006
453.1853, 2687.739
453.6674, 2687.973
454.1496, 2689.276
454.6317, 2692.027
455.1138, 2695.084
455.5959, 2696.298
456.0780, 2695.896
456.5602, 2696.671
457.0423, 2700.899
457.5244, 2706.122
458.0065, 2706.565
458.4886, 2702.668
458.9707, 2699.046
459.4529, 2699.649
459.9350, 2702.617
460.4171, 2705.255
460.8992, 2707.263
461.3813, 2708.746
461.8634, 2708.692
462.3456, 2708.345
462.8277, 2709.778
463.3098, 2714.844
463.7919, 2721.009
464.2740, 2727.477
464.7561, 2734.099
465.2383, 2739.840
465.7204, 2744.829
466.2025, 2748.469
466.6846, 2750.058
467.1667, 2746.265
467.6488, 2745.620
468.1310, 2751.208
468.6131, 2759.430
469.0952, 2764.467
469.5773, 2763.379
470.0594, 2763.863
470.5415, 2768.691
471.0237, 2777.609
471.5058, 2783.328
471.9879, 2785.055
472.4700, 2785.414
472.9521, 2786.039
473.4342, 2786.922
473.9164, 2788.524
474.3985, 2790.942
474.8806, 2794.058
475.3627, 2798.309
475.8448, 2803.496
476.3270, 2807.511
476.8091, 2808.883
477.2912, 2808.683
477.7733, 2808.694
478.2554, 2808.935
478.7375, 2809.703
479.2197, 2811.237
479.7018, 2813.439
480.1839, 2816.270
480.6660, 2819.908
481.1481, 2823.593
481.6302, 2826.974
482.1124, 2830.042
482.5945, 2832.779
483.0766, 2834.289
483.5587, 2836.292
484.0408, 2839.837
484.5229, 2844.871
485.0051, 2849.555
485.4872, 2853.341
485.9693, 2856.838
486.4514, 2860.233
486.9335, 2861.941
487.4156, 2866.446
487.8978, 2875.450
488.3799, 2886.353
488.8620, 2895.071
489.3441, 2900.292
489.8262, 2906.758
490.3083, 2916.036
490.7905, 2927.788
491.2726, 2938.869
491.7547, 2949.087
492.2368, 2959.998
492.7189, 2972.298
493.2010, 2986.130
493.6832, 3001.505
494.1653, 3018.661
494.6474, 3036.870
495.1295, 3056.013
495.6116, 3075.709
496.0938, 3095.037
496.5759, 3112.824
497.0580, 3130.698
497.5401, 3149.887
498.0222, 3170.513
498.5044, 3192.263
498.9865, 3216.368
499.4686, 3240.960
499.9507, 3264.575
500.4328, 3286.785
500.9149, 3308.828
501.3971, 3330.233
501.8792, 3352.247
502.3613, 3376.302
502.8434, 3404.997
503.3255, 3433.398
503.8076, 3460.656
504.2898, 3486.944
504.7719, 3513.261
505.2540, 3540.240
505.7361, 3566.109
506.2182, 3590.263
506.7003, 3612.385
507.1825, 3634.243
507.6646, 3656.495
508.1467, 3677.109
508.6288, 3694.186
509.1109, 3707.761
509.5930, 3717.648
510.0752, 3723.857
510.5573, 3726.431
511.0394, 3726.173
511.5215, 3722.751
512.0037, 3713.851
512.4858, 3697.068
512.9679, 3674.555
513.4500, 3648.795
513.9321, 3619.897
514.4142, 3588.740
514.8964, 3555.246
515.3785, 3519.921
515.8606, 3483.695
516.3427, 3446.362
516.8248, 3408.301
517.3069, 3368.387
517.7891, 3327.975
518.2712, 3289.433
518.7533, 3254.177
519.2354, 3220.321
519.7175, 3187.754
520.1996, 3156.317
520.6818, 3126.058
521.1639, 3095.890
521.6460, 3068.155
522.1281, 3045.101
522.6102, 3028.173
523.0923, 3009.370
523.5745, 2987.189
524.0566, 2965.189
524.5387, 2949.135
525.0208, 2938.938
525.5029, 2928.934
525.9850, 2917.464
526.4672, 2905.178
526.9493, 2893.091
527.4314, 2881.102
527.9135, 2869.417
528.3956, 2858.009
528.8777, 2846.733
529.3599, 2835.079
529.8420, 2822.784
530.3241, 2812.106
530.8062, 2805.324
531.2883, 2800.505
531.7704, 2795.613
532.2526, 2789.026
532.7347, 2783.578
533.2168, 2781.445
533.6989, 2781.057
534.1810, 2778.671
534.6631, 2771.906
535.1453, 2764.962
535.6274, 2758.903
536.1095, 2753.662
536.5916, 2749.197
537.0737, 2745.253
537.5558, 2742.415
538.0380, 2741.465
538.5201, 2742.799
539.0022, 2743.198
539.4843, 2742.482
539.9664, 2740.726
540.4485, 2737.372
540.9307, 2732.695
541.4128, 2729.011
541.8949, 2727.141
542.3770, 2726.617
542.8591, 2727.017
543.3412, 2728.185
543.8234, 2729.458
544.3055, 2731.604
544.7876, 2732.913
545.2697, 2730.986
545.7518, 2725.310
546.2339, 2720.296
546.7161, 2718.927
547.1982, 2718.802
547.6803, 2717.768
548.1624, 2714.576
548.6445, 2711.579
549.1266, 2709.464
549.6088, 2707.792
550.0909, 2705.633
550.5730, 2702.803
551.0551, 2699.920
551.5372, 2696.911
552.0193, 2693.936
552.5015, 2692.822
552.9836, 2694.103
553.4657, 2695.405
553.9478, 2694.966
554.4299, 2692.937
554.9120, 2690.869
555.3942, 2688.722
555.8763, 2687.058
556.3584, 2687.096
556.8405, 2688.099
557.3226, 2688.125
557.8047, 2685.872
558.2869, 2683.430
558.7690, 2682.949
559.2511, 2683.826
559.7332, 2684.554
560.2154, 2684.442
560.6975, 2684.066
561.1796, 2684.048
561.6617, 2684.466
562.1439, 2683.735
562.6260, 2679.797
563.1081, 2676.009
563.5902, 2674.214
564.0723, 2674.876
564.5544, 2676.747
565.0366, 2680.593
565.5187, 2684.899
566.0008, 2687.700
566.4829, 2688.960
566.9650, 2688.593
567.4471, 2685.772
567.9293, 2682.016
568.4114, 2681.515
568.8935, 2684.053
569.3756, 2687.138
569.8577, 2690.079
570.3398, 2692.359
570.8220, 2692.862
571.3041, 2691.615
571.7862, 2689.481
572.2683, 2685.605
572.7504, 2681.920
573.2325, 2680.757
573.7147, 2683.985
574.1968, 2686.070
574.6789, 2683.789
575.1610, 2679.647
575.6431, 2676.848
576.1252, 2676.887
576.6074, 2677.233
577.0895, 2677.983
577.5716, 2678.843
578.0537, 2678.388
578.5358, 2675.695
579.0179, 2673.896
579.5001, 2674.711
579.9822, 2677.900
580.4643, 2679.330
580.9464, 2678.782
581.4285, 2677.868
581.9106, 2678.227
582.3928, 2679.351
582.8749, 2679.349
583.3570, 2677.723
583.8391, 2676.138
584.3212, 2675.664
584.8033, 2676.448
585.2855, 2678.787
585.7676, 2685.101
586.2497, 2690.483
586.7318, 2691.843
587.2139, 2690.319
587.6960, 2689.168
588.1782, 2689.931
588.6603, 2690.457
589.1424, 2689.420
589.6245, 2686.629
590.1066, 2686.171
590.5887, 2689.511
591.0709, 2692.974
591.5530, 2694.139
592.0351, 2692.635
592.5172, 2691.175
592.9993, 2689.518
593.4814, 2688.854
593.9636, 2691.790
594.4457, 2697.480
594.9278, 2701.328
595.4099, 2701.671
595.8920, 2700.712
596.3741, 2701.970
596.8563, 2704.305
597.3384, 2704.638
597.8205, 2698.480
598.3026, 2692.391
598.7847, 2691.354
599.2668, 2694.877
599.7490, 2697.586
600.2311, 2697.059
600.7132, 2695.921
601.1953, 2695.523
601.6774, 2696.151
602.1595, 2696.406
602.6417, 2695.930
603.1238, 2695.361
603.6059, 2695.340
604.0880, 2695.960
604.5701, 2696.280
605.0522, 2696.003
605.5344, 2695.719
606.0165, 2696.872
606.4986, 2699.183
606.9807, 2700.685
607.4628, 2700.325
607.9449, 2699.152
608.4271, 2698.167
608.9092, 2697.548
609.3913, 2697.921
609.8735, 2701.761
610.3556, 2705.117
610.8377, 2704.393
611.3198, 2699.198
611.8019, 2695.795
612.2841, 2697.729
612.7662, 2700.594
613.2483, 2701.334
613.7304, 2697.825
614.2125, 2697.059
614.6946, 2700.769
615.1768, 2705.262
615.6589, 2705.556
616.1410, 2700.821
616.6231, 2697.821
617.1052, 2698.137
617.5873, 2700.164
618.0695, 2700.824
618.5516, 2700.345
619.0337, 2699.918
619.5158, 2700.283
619.9979, 2700.927
620.4800, 2701.144
620.9622, 2701.052
621.4443, 2701.166
621.9264, 2701.512
622.4085, 2702.343
622.8906, 2703.939
623.3727, 2706.406
623.8549, 2708.854
624.3370, 2711.450
624.8191, 2713.648
625.3012, 2715.044
625.7833, 2715.376
626.2654, 2715.305
626.7476, 2714.539
627.2297, 2713.698
627.7118, 2714.000
628.1939, 2715.503
628.6760, 2715.844
629.1581, 2714.137
629.6403, 2711.694
630.1224, 2711.063
630.6045, 2711.764
631.0866, 2711.860
631.5687, 2709.597
632.0508, 2706.977
632.5330, 2706.056
633.0151, 2706.572
633.4972, 2706.883
633.9793, 2705.859
634.4614, 2704.835
634.9435, 2704.772
635.4257, 2706.136
635.9078, 2706.054
636.3899, 2702.305
636.8720, 2699.240
637.3541, 2700.307
637.8362, 2706.663
638.3184, 2711.892
638.8005, 2715.830
639.2826, 2718.206
639.7647, 2717.655
640.2468, 2714.716
640.7289, 2713.313
641.2111, 2714.770
641.6932, 2717.327
642.1753, 2719.209
642.6574, 2720.516
643.1395, 2721.466
643.6216, 2721.667
644.1038, 2721.998
644.5859, 2723.174
645.0680, 2724.973
645.5501, 2726.379
646.0322, 2726.185
646.5143, 2726.537
646.9965, 2728.650
647.4786, 2732.755
647.9607, 2734.819
648.4428, 2734.397
648.9249, 2732.898
649.4070, 2730.892
649.8892, 2728.423
650.3713, 2726.519
650.8534, 2725.125
651.3355, 2724.829
651.8176, 2726.723
652.2997, 2730.121
652.7819, 2733.884
653.2640, 2738.429
653.7461, 2741.365
654.2282, 2739.923
654.7103, 2735.922
655.1924, 2732.087
655.6746, 2727.904
656.1567, 2725.436
656.6388, 2726.388
657.1209, 2729.510
657.6030, 2731.243
658.0851, 2730.708
658.5673, 2730.436
659.0494, 2731.197
659.5316, 2732.847
660.0137, 2734.658
660.4958, 2736.671
660.9779, 2738.271
661.4600, 2739.195
661.9421, 2739.401
662.4243, 2738.356
662.9064, 2736.083
663.3885, 2734.302
663.8706, 2734.698
664.3527, 2736.017
664.8348, 2737.033
665.3170, 2737.471
665.7991, 2737.895
666.2812, 2738.626
666.7633, 2739.347
667.2454, 2739.709
667.7275, 2738.954
668.2097, 2739.204
668.6918, 2740.911
669.1739, 2743.290
669.6560, 2745.170
670.1381, 2746.534
670.6202, 2747.854
671.1024, 2749.625
671.5845, 2750.815
672.0666, 2748.303
672.5487, 2743.174
673.0308, 2739.679
673.5129, 2741.143
673.9951, 2744.215
674.4772, 2746.629
674.9593, 2748.320
675.4414, 2749.050
675.9235, 2747.354
676.4056, 2745.927
676.8878, 2746.383
677.3699, 2748.941
677.8520, 2750.187
678.3341, 2749.143
678.8162, 2748.232
679.2983, 2748.907
679.7805, 2751.266
680.2626, 2753.983
680.7447, 2757.269
681.2268, 2759.570
681.7089, 2758.111
682.1910, 2754.510
682.6732, 2753.239
683.1553, 2755.281
683.6374, 2758.042
684.1195, 2760.315
684.6016, 2761.779
685.0837, 2762.046
685.5659, 2760.498
686.0480, 2758.488
686.5301, 2754.146
687.0122, 2750.228
687.4943, 2751.710
687.9764, 2763.203
688.4586, 2770.486
688.9407, 2769.816
689.4228, 2764.432
689.9049, 2763.104
690.3870, 2765.883
690.8691, 2768.842
691.3513, 2770.586
691.8334, 2771.245
692.3155, 2770.913
692.7976, 2769.636
693.2797, 2767.717
693.7618, 2763.616
694.2440, 2760.308
694.7261, 2760.723
695.2082, 2764.821
695.6903, 2767.593
696.1724, 2766.004
696.6545, 2764.628
697.1367, 2766.034
697.6188, 2771.013
698.1009, 2773.070
698.5830, 2770.923
699.0651, 2768.873
699.5472, 2771.143
700.0294, 2777.078
700.5115, 2781.073
700.9936, 2782.603
701.4757, 2782.873
701.9578, 2781.966
702.4399, 2780.886
702.9221, 2781.423
703.4042, 2784.591
703.8863, 2787.525
704.3684, 2788.600
704.8505, 2788.617
705.3326, 2788.522
705.8148, 2788.179
706.2969, 2788.121
706.7790, 2788.590
707.2611, 2789.277
707.7432, 2789.676
708.2253, 2789.845
708.7075, 2789.569
709.1896, 2788.575
709.6718, 2787.511
710.1539, 2787.908
710.6360, 2789.489
711.1181, 2791.013
711.6002, 2792.738
712.0823, 2793.510
712.5645, 2790.894
713.0466, 2786.163
713.5287, 2784.037
714.0108, 2788.802
714.4929, 2793.891
714.9750, 2796.592
715.4572, 2797.067
715.9393, 2797.293
716.4214, 2797.115
716.9035, 2796.897
717.3856, 2796.559
717.8677, 2796.189
718.3499, 2797.350
718.8320, 2800.099
719.3141, 2802.579
719.7962, 2803.242
720.2783, 2802.798
720.7604, 2802.276
721.2426, 2801.783
721.7247, 2801.245
722.2068, 2800.054
722.6889, 2799.223
723.1710, 2799.630
723.6531, 2801.935
724.1353, 2804.180
724.6174, 2806.756
725.0995, 2808.761
725.5816, 2808.864
726.0637, 2806.406
726.5458, 2806.828
727.0280, 2811.065
727.5101, 2816.354
727.9922, 2819.356
728.4743, 2820.573
728.9564, 2821.417
729.4385, 2821.992
729.9207, 2822.771
730.4028, 2824.329
730.8849, 2826.245
731.3670, 2827.920
731.8491, 2826.410
732.3312, 2827.995
732.8134, 2838.023
733.2955, 2850.513
733.7776, 2855.288
734.2597, 2850.040
734.7418, 2844.333
735.2239, 2839.708
735.7061, 2836.351
736.1882, 2834.922
736.6703, 2835.298
737.1524, 2836.449
737.6345, 2838.517
738.1166, 2840.613
738.5988, 2840.986
739.0809, 2840.495
739.5630, 2841.578
740.0451, 2848.557
740.5272, 2854.019
741.0093, 2852.819
741.4915, 2846.481
741.9736, 2845.079
742.4557, 2851.142
742.9378, 2857.161
743.4199, 2860.192
743.9020, 2860.896
744.3842, 2863.364
744.8663, 2867.611
745.3484, 2871.572
745.8305, 2873.327
746.3126, 2874.388
746.7947, 2877.422
747.2769, 2882.233
747.7590, 2886.490
748.2411, 2888.448
748.7232, 2889.927
749.2053, 2892.231
749.6874, 2895.658
750.1696, 2898.053
750.6517, 2897.737
751.1338, 2898.678
751.6159, 2903.922
752.0980, 2913.794
752.5801, 2919.516
753.0623, 2920.578
753.5444, 2921.380
754.0265, 2926.397
754.5086, 2933.569
754.9907, 2938.349
755.4728, 2940.154
755.9550, 2942.872
756.4371, 2950.629
756.9192, 2959.245
757.4013, 2965.124
757.8835, 2966.203
758.3656, 2968.858
758.8477, 2974.296
759.3298, 2980.521
759.8120, 2986.077
760.2941, 2990.844
760.7762, 2995.500
761.2583, 3000.039
761.7404, 3005.040
762.2225, 3011.361
762.7047, 3018.685
763.1868, 3026.065
763.6689, 3033.261
764.1510, 3040.948
764.6331, 3050.151
765.1152, 3059.829
765.5974, 3068.795
766.0795, 3076.042
766.5616, 3083.880
767.0437, 3092.073
767.5258, 3101.138
768.0079, 3112.234
768.4901, 3125.875
768.9722, 3136.545
769.4543, 3142.883
769.9364, 3147.446
770.4185, 3153.312
770.9006, 3160.180
771.3828, 3167.288
771.8649, 3173.990
772.3470, 3181.676
772.8291, 3191.870
773.3112, 3203.457
773.7933, 3214.891
774.2755, 3225.882
774.7576, 3236.672
775.2397, 3245.805
775.7218, 3255.900
776.2039, 3272.027
776.6860, 3294.944
777.1682, 3317.451
777.6503, 3337.935
778.1324, 3357.807
778.6145, 3378.016
779.0966, 3399.360
779.5787, 3424.439
780.0609, 3457.838
780.5430, 3490.072
781.0251, 3515.497
781.5072, 3535.917
781.9893, 3554.301
782.4714, 3570.873
782.9536, 3586.080
783.4357, 3600.008
783.9178, 3612.454
784.3999, 3623.571
784.8820, 3633.569
785.3641, 3639.871
785.8463, 3641.456
786.3284, 3639.685
786.8105, 3635.115
787.2926, 3628.942
787.7747, 3624.222
788.2568, 3623.908
788.7390, 3623.615
789.2211, 3622.617
789.7032, 3619.930
790.1853, 3613.029
790.6674, 3600.072
791.1495, 3585.720
791.6317, 3571.563
792.1138, 3555.880
792.5959, 3534.661
793.0780, 3507.781
793.5601, 3478.243
794.0422, 3447.031
794.5244, 3413.223
795.0065, 3372.731
795.4886, 3327.984
795.9707, 3285.856
796.4528, 3251.094
796.9349, 3216.907
797.4171, 3178.126
797.8992, 3137.719
798.3813, 3105.296
798.8634, 3083.173
799.3455, 3063.751
799.8276, 3045.610
800.3098, 3029.175
800.7919, 3016.322
801.2740, 3006.571
801.7561, 2996.538
802.2382, 2984.340
802.7203, 2972.176
803.2025, 2961.929
803.6846, 2953.536
804.1667, 2946.728
804.6488, 2942.302
805.1309, 2938.469
805.6130, 2935.534
806.0952, 2932.732
806.5773, 2927.679
807.0594, 2918.956
807.5416, 2913.176
808.0237, 2912.865
808.5058, 2915.325
808.9879, 2915.097
809.4700, 2912.545
809.9521, 2909.145
810.4343, 2903.794
810.9164, 2899.856
811.3985, 2900.813
811.8806, 2904.984
812.3627, 2908.851
812.8448, 2910.908
813.3270, 2913.459
813.8091, 2917.624
814.2912, 2922.050
814.7733, 2922.996
815.2554, 2919.954
815.7375, 2918.776
816.2197, 2921.346
816.7018, 2925.993
817.1839, 2930.569
817.6660, 2934.972
818.1481, 2938.777
818.6302, 2939.723
819.1124, 2942.718
819.5945, 2950.109
820.0766, 2961.133
820.5587, 2974.778
821.0408, 2993.739
821.5229, 3009.298
822.0051, 3018.957
822.4872, 3026.530
822.9693, 3039.602
823.4514, 3057.726
823.9335, 3075.445
824.4156, 3091.397
824.8978, 3106.596
825.3799, 3120.858
825.8620, 3135.872
826.3441, 3154.213
826.8262, 3179.807
827.3083, 3204.868
827.7905, 3225.290
828.2726, 3245.543
828.7547, 3272.557
829.2368, 3308.039
829.7189, 3340.740
830.2010, 3368.374
830.6832, 3394.272
831.1653, 3424.535
831.6474, 3456.992
832.1295, 3486.856
832.6116, 3512.707
833.0938, 3534.824
833.5759, 3553.544
834.0580, 3568.770
834.5401, 3580.590
835.0222, 3596.552
835.5043, 3596.691
835.9865, 3577.490
836.4686, 3546.979
836.9507, 3512.858
837.4328, 3475.140
837.9149, 3433.623
838.3970, 3387.506
838.8792, 3340.166
839.3613, 3292.817
839.8434, 3246.942
840.3255, 3205.479
840.8076, 3169.499
841.2897, 3134.858
841.7719, 3098.485
842.2540, 3064.696
842.7361, 3036.898
843.2182, 3016.525
843.7003, 2995.815
844.1824, 2974.200
844.6646, 2954.980
845.1467, 2943.252
845.6288, 2936.036
846.1109, 2924.718
846.5930, 2908.548
847.0751, 2893.914
847.5573, 2886.799
848.0394, 2881.614
848.5215, 2874.026
849.0036, 2863.110
849.4857, 2852.767
849.9678, 2842.765
850.4500, 2833.929
850.9321, 2826.997
851.4142, 2821.757
851.8963, 2815.554
852.3784, 2808.435
852.8605, 2802.576
853.3427, 2801.201
853.8248, 2800.841
854.3069, 2797.605
854.7890, 2791.649
855.2711, 2786.002
855.7532, 2781.999
856.2354, 2778.228
856.7175, 2773.932
857.1996, 2769.336
857.6818, 2766.296
858.1639, 2765.033
858.6460, 2763.334
859.1281, 2759.960
859.6102, 2755.559
860.0923, 2750.651
860.5745, 2745.621
861.0566, 2741.991
861.5387, 2742.172
862.0208, 2742.137
862.5029, 2740.078
862.9850, 2736.387
863.4672, 2732.619
863.9493, 2728.941
864.4314, 2724.614
864.9135, 2718.757
865.3956, 2713.104
865.8777, 2712.487
866.3599, 2715.543
866.8420, 2716.366
867.3241, 2711.843
867.8062, 2706.414
868.2883, 2702.482
868.7704, 2700.000
869.2526, 2698.981
869.7347, 2700.312
870.2168, 2701.962
870.6989, 2704.465
871.1810, 2706.396
871.6631, 2705.664
872.1453, 2702.376
872.6274, 2698.517
873.1095, 2694.240
873.5916, 2690.387
874.0737, 2688.632
874.5558, 2687.533
875.0380, 2684.958
875.5201, 2679.642
876.0022, 2675.833
876.4843, 2676.208
876.9664, 2677.110
877.4485, 2676.281
877.9307, 2673.559
878.4128, 2669.820
878.8949, 2664.759
879.3770, 2661.037
879.8591, 2662.023
880.3412, 2665.294
880.8234, 2667.052
881.3055, 2667.060
881.7876, 2666.741
882.2697, 2666.362
882.7518, 2666.146
883.2339, 2666.448
883.7161, 2667.177
884.1982, 2666.761
884.6803, 2664.941
885.1624, 2662.920
885.6445, 2660.916
886.1266, 2659.328
886.6088, 2659.719
887.0909, 2661.534
887.5730, 2662.457
888.0551, 2660.597
888.5372, 2658.313
889.0193, 2657.301
889.5015, 2656.849
889.9836, 2654.566
890.4657, 2649.663
890.9478, 2644.792
891.4299, 2640.468
891.9120, 2636.470
892.3942, 2631.619
892.8763, 2626.457
893.3584, 2623.629
893.8405, 2624.605
894.3226, 2626.258
894.8047, 2627.490
895.2869, 2627.528
895.7690, 2625.317
896.2511, 2617.305
896.7332, 2612.613
897.2153, 2612.344
897.6974, 2613.797
898.1796, 2614.981
898.6617, 2615.661
899.1438, 2613.436
899.6259, 2607.917
900.1080, 2602.446
900.5901, 2600.021
901.0723, 2598.855
901.5544, 2597.301
902.0365, 2595.108
902.5186, 2593.261
903.0007, 2592.421
903.4828, 2591.186
903.9650, 2588.687
904.4471, 2585.100
904.9292, 2581.729
905.4113, 2578.577
905.8935, 2576.683
906.3756, 2577.733
906.8577, 2579.530
907.3398, 2579.241
907.8220, 2577.627
908.3041, 2577.831
908.7862, 2584.202
909.2683, 2587.886
909.7504, 2585.975
910.2325, 2580.835
910.7147, 2578.625
911.1968, 2579.249
911.6789, 2578.897
912.1610, 2576.101
912.6431, 2572.753
913.1252, 2571.001
913.6074, 2570.126
914.0895, 2569.013
914.5716, 2566.926
915.0537, 2565.340
915.5358, 2564.866
916.0179, 2564.575
916.5001, 2563.555
916.9822, 2561.770
917.4643, 2560.191
917.9464, 2558.935
918.4285, 2557.412
918.9106, 2554.570
919.3928, 2551.473
919.8749, 2549.794
920.3570, 2549.786
920.8391, 2548.728
921.3212, 2544.514
921.8033, 2540.500
922.2855, 2538.168
922.7676, 2537.362
923.2497, 2536.485
923.7318, 2535.556
924.2139, 2534.328
924.6960, 2531.823
925.1782, 2529.627
925.6603, 2530.588
926.1424, 2533.553
926.6245, 2535.479
927.1066, 2534.452
927.5887, 2533.140
928.0709, 2531.746
928.5530, 2530.560
929.0351, 2530.402
929.5172, 2531.320
929.9993, 2531.309
930.4814, 2529.724
930.9636, 2528.134
931.4457, 2529.276
931.9278, 2531.152
932.4099, 2530.664
932.8920, 2526.019
933.3741, 2522.752
933.8563, 2523.347
934.3384, 2524.634
934.8205, 2524.701
935.3026, 2523.508
935.7847, 2521.931
936.2668, 2519.899
936.7490, 2518.716
937.2311, 2520.770
937.7132, 2523.211
938.1953, 2521.625
938.6774, 2516.759
939.1595, 2514.058
939.6417, 2518.421
940.1238, 2521.186
940.6059, 2519.808
941.0880, 2515.423
941.5701, 2510.908
942.0522, 2506.291
942.5344, 2502.207
943.0165, 2498.437
943.4986, 2496.043
943.9807, 2497.527
944.4628, 2500.691
944.9449, 2502.241
945.4271, 2500.232
945.9092, 2498.616
946.3913, 2498.805
946.8734, 2498.216
947.3555, 2493.456
947.8376, 2484.938
948.3198, 2479.063
948.8019, 2476.228
949.2840, 2475.581
949.7661, 2478.565
950.2482, 2481.885
950.7303, 2481.949
951.2125, 2478.584
951.6946, 2476.780
952.1767, 2477.860
952.6588, 2479.268
953.1409, 2480.451
953.6230, 2481.148
954.1052, 2480.395
954.5873, 2478.317
955.0695, 2475.610
955.5516, 2471.312
956.0337, 2468.261
956.5158, 2470.207
956.9979, 2474.364
957.4800, 2476.182
957.9622, 2474.340
958.4443, 2471.372
958.9264, 2466.587
959.4085, 2462.224
959.8906, 2460.485
960.3727, 2461.228
960.8549, 2465.406
961.3370, 2473.250
961.8191, 2477.919
962.3012, 2472.039
962.7833, 2463.788
963.2654, 2458.691
963.7476, 2457.057
964.2297, 2456.415
964.7118, 2457.264
965.1939, 2457.552
965.6760, 2456.368
966.1581, 2454.128
966.6403, 2451.103
967.1224, 2447.743
967.6045, 2445.242
968.0866, 2445.488
968.5687, 2445.191
969.0508, 2442.031
969.5330, 2438.207
970.0151, 2437.127
970.4972, 2439.882
970.9793, 2439.328
971.4614, 2434.066
971.9435, 2428.910
972.4257, 2429.999
972.9078, 2434.064
973.3899, 2436.286
973.8720, 2435.993
974.3541, 2435.173
974.8362, 2434.461
975.3184, 2433.254
975.8005, 2430.686
976.2826, 2427.258
976.7647, 2427.863
977.2468, 2432.433
977.7289, 2434.746
978.2111, 2430.192
978.6932, 2424.193
979.1753, 2423.590
979.6574, 2425.730
980.1395, 2425.556
980.6216, 2418.622
981.1038, 2413.970
981.5859, 2412.942
982.0680, 2413.391
982.5501, 2413.155
983.0322, 2412.256
983.5143, 2410.379
983.9965, 2407.448
984.4786, 2405.349
984.9607, 2405.855
985.4428, 2407.452
985.9249, 2409.580
986.4070, 2412.097
986.8892, 2412.228
987.3713, 2408.921
987.8534, 2405.892
988.3355, 2404.321
988.8176, 2404.111
989.2997, 2406.278
989.7819, 2409.696
990.2640, 2410.969
990.7461, 2406.896
991.2282, 2403.230
991.7103, 2403.402
992.1924, 2404.594
992.6746, 2403.449
993.1567, 2399.422
993.6388, 2395.956
994.1209, 2393.206
994.6030, 2391.051
995.0851, 2389.705
995.5673, 2388.716
996.0494, 2387.338
996.5315, 2385.598
997.0136, 2384.399
997.4957, 2384.501
997.9778, 2384.661
998.4600, 2384.740
998.9421, 2384.487
999.4242, 2382.551
999.9063, 2379.198
1000.388, 2377.231
1000.871, 2377.942
1001.353, 2379.262
1001.835, 2379.642
1002.317, 2379.413
1002.799, 2379.062
1003.281, 2379.237
1003.763, 2377.595
1004.245, 2373.394
1004.728, 2369.169
1005.210, 2366.564
1005.692, 2365.553
1006.174, 2367.317
1006.656, 2371.189
1007.138, 2372.496
1007.620, 2365.144
1008.102, 2358.544
1008.584, 2358.592
1009.067, 2362.286
1009.549, 2362.287
1010.031, 2357.940
1010.513, 2355.318
1010.995, 2355.997
1011.477, 2357.411
1011.959, 2356.083
1012.441, 2353.661
1012.924, 2352.473
1013.406, 2353.147
1013.888, 2354.050
1014.370, 2355.742
1014.852, 2356.371
1015.334, 2354.503
1015.816, 2350.704
1016.298, 2348.717
1016.780, 2348.262
1017.263, 2347.064
1017.745, 2342.062
1018.227, 2337.813
1018.709, 2338.250
1019.191, 2341.280
1019.673, 2342.744
1020.155, 2341.956
1020.637, 2341.323
1021.120, 2341.315
1021.602, 2340.567
1022.084, 2336.654
1022.566, 2331.273
1023.048, 2327.495
1023.530, 2325.640
1024.012, 2324.613
1024.494, 2324.121
1024.976, 2324.370
1025.458, 2326.059
1025.941, 2328.412
1026.423, 2327.614
1026.905, 2323.862
1027.387, 2320.916
1027.869, 2320.290
1028.351, 2320.508
1028.833, 2320.981
1029.316, 2321.096
1029.798, 2319.967
1030.280, 2316.582
1030.762, 2313.825
1031.244, 2311.571
1031.726, 2310.265
1032.208, 2311.183
1032.690, 2313.085
1033.172, 2311.938
1033.655, 2308.336
1034.137, 2305.700
1034.619, 2308.000
1035.101, 2309.020
1035.583, 2305.157
1036.065, 2299.184
1036.547, 2296.457
1037.029, 2297.153
1037.511, 2296.492
1037.994, 2293.559
1038.476, 2290.030
1038.958, 2286.894
1039.440, 2284.550
1039.922, 2283.870
1040.404, 2285.229
1040.886, 2285.393
1041.368, 2283.534
1041.851, 2282.085
1042.333, 2282.547
1042.815, 2283.722
1043.297, 2281.606
1043.779, 2277.489
1044.261, 2275.286
1044.743, 2276.517
1045.225, 2279.882
1045.708, 2288.753
1046.190, 2296.751
1046.672, 2297.047
1047.154, 2288.688
1047.636, 2282.261
1048.118, 2277.934
1048.600, 2275.204
1049.082, 2274.402
1049.564, 2274.385
1050.047, 2274.035
1050.529, 2273.451
1051.011, 2273.467
1051.493, 2274.731
1051.975, 2275.321
1052.457, 2274.849
1052.939, 2273.676
1053.421, 2272.345
1053.903, 2270.780
1054.386, 2268.460
1054.868, 2265.139
1055.350, 2262.643
1055.832, 2263.270
1056.314, 2263.522
1056.796, 2261.248
1057.278, 2256.877
1057.760, 2253.733
1058.243, 2251.794
1058.725, 2250.830
1059.207, 2251.601
1059.689, 2251.946
1060.171, 2248.473
1060.653, 2243.909
1061.135, 2242.482
1061.617, 2247.343
1062.099, 2248.740
1062.582, 2245.771
1063.064, 2242.093
1063.546, 2240.884
1064.028, 2240.952
1064.510, 2239.737
1064.992, 2237.473
1065.474, 2235.754
1065.956, 2235.927
1066.438, 2235.854
1066.921, 2235.277
1067.403, 2233.966
1067.885, 2230.551
1068.367, 2225.519
1068.849, 2224.167
1069.331, 2227.618
1069.813, 2230.679
1070.295, 2228.973
1070.778, 2225.800
1071.260, 2223.223
1071.742, 2221.398
1072.224, 2221.743
1072.706, 2224.961
1073.188, 2225.797
1073.670, 2221.179
1074.152, 2215.474
1074.635, 2215.625
1075.117, 2218.506
1075.599, 2218.772
1076.081, 2212.475
1076.563, 2210.024
1077.045, 2213.432
1077.527, 2218.286
1078.009, 2222.789
1078.491, 2226.146
1078.974, 2223.685
1079.456, 2216.627
1079.938, 2211.242
1080.420, 2212.600
1080.902, 2213.817
1081.384, 2211.146
1081.866, 2207.451
1082.348, 2206.663
1082.831, 2208.973
1083.313, 2209.623
1083.795, 2208.210
1084.277, 2205.654
1084.759, 2201.536
1085.241, 2197.592
1085.723, 2195.783
1086.205, 2195.837
1086.688, 2194.397
1087.170, 2190.637
1087.652, 2187.993
1088.134, 2187.438
1088.616, 2187.950
1089.098, 2189.251
1089.580, 2190.143
1090.062, 2187.741
1090.544, 2180.308
1091.026, 2176.702
1091.509, 2181.839
1091.991, 2186.100
1092.473, 2184.489
1092.955, 2179.036
1093.437, 2177.235
1093.919, 2178.274
1094.401, 2178.817
1094.883, 2177.533
1095.366, 2175.485
1095.848, 2171.478
1096.330, 2168.165
1096.812, 2168.617
1097.294, 2173.510
1097.776, 2174.532
1098.258, 2171.615
1098.740, 2169.013
1099.223, 2170.312
1099.705, 2172.413
1100.187, 2173.309
1100.669, 2172.888
1101.151, 2170.835
1101.633, 2166.167
1102.115, 2163.038
1102.597, 2162.025
1103.079, 2161.625
1103.562, 2160.353
1104.044, 2158.629
1104.526, 2156.859
1105.008, 2155.151
1105.490, 2154.296
1105.972, 2155.981
1106.454, 2156.136
1106.936, 2153.409
1107.418, 2149.298
1107.901, 2146.307
1108.383, 2144.353
1108.865, 2143.456
1109.347, 2143.807
1109.829, 2144.002
1110.311, 2142.590
1110.793, 2141.747
1111.275, 2143.150
1111.758, 2146.031
1112.240, 2145.404
1112.722, 2141.664
1113.204, 2138.900
1113.686, 2139.218
1114.168, 2139.792
1114.650, 2138.640
1115.132, 2136.726
1115.615, 2135.067
1116.097, 2133.746
1116.579, 2132.216
1117.061, 2130.417
1117.543, 2129.483
1118.025, 2131.199
1118.507, 2133.300
1118.989, 2133.345
1119.471, 2131.950
1119.953, 2130.479
1120.436, 2129.467
1120.918, 2127.311
1121.400, 2123.331
1121.882, 2120.186
1122.364, 2121.995
1122.846, 2125.564
1123.328, 2125.041
1123.810, 2120.823
1124.293, 2117.058
1124.775, 2115.477
1125.257, 2113.713
1125.739, 2111.101
1126.221, 2108.630
1126.703, 2107.708
1127.185, 2108.201
1127.667, 2110.539
1128.150, 2114.854
1128.632, 2116.889
1129.114, 2112.216
1129.596, 2107.497
1130.078, 2105.933
1130.560, 2106.115
1131.042, 2102.814
1131.524, 2096.879
1132.006, 2094.204
1132.489, 2096.992
1132.971, 2100.260
1133.453, 2101.105
1133.935, 2100.611
1134.417, 2099.203
1134.899, 2096.996
1135.381, 2096.480
1135.863, 2097.631
1136.346, 2098.502
1136.828, 2098.478
1137.310, 2097.448
1137.792, 2094.018
1138.274, 2090.140
1138.756, 2088.814
1139.238, 2091.124
1139.720, 2091.020
1140.203, 2088.159
1140.685, 2085.195
1141.167, 2084.170
1141.649, 2083.704
1142.131, 2081.919
1142.613, 2079.392
1143.095, 2077.225
1143.577, 2075.156
1144.059, 2074.669
1144.542, 2076.258
1145.024, 2078.075
1145.506, 2078.939
1145.988, 2078.611
1146.470, 2075.590
1146.952, 2070.723
1147.434, 2067.749
1147.916, 2068.962
1148.398, 2070.798
1148.881, 2073.432
1149.363, 2075.360
1149.845, 2074.292
1150.327, 2071.063
1150.809, 2067.008
1151.291, 2062.453
1151.773, 2059.651
1152.255, 2061.327
1152.738, 2062.839
1153.220, 2062.926
1153.702, 2062.022
1154.184, 2060.620
1154.666, 2058.939
1155.148, 2058.064
1155.630, 2058.263
1156.112, 2057.914
1156.594, 2055.773
1157.077, 2053.087
1157.559, 2050.069
1158.041, 2047.131
1158.523, 2046.225
1159.005, 2047.042
1159.487, 2047.264
1159.969, 2046.153
1160.451, 2044.787
1160.933, 2043.755
1161.416, 2042.946
1161.898, 2042.442
1162.380, 2042.193
1162.862, 2041.178
1163.344, 2039.461
1163.826, 2038.149
1164.308, 2038.243
1164.790, 2037.772
1165.273, 2033.840
1165.755, 2029.399
1166.237, 2027.854
1166.719, 2029.609
1167.201, 2029.926
1167.683, 2028.677
1168.165, 2027.738
1168.647, 2028.457
1169.130, 2029.423
1169.612, 2029.132
1170.094, 2028.280
1170.576, 2028.062
1171.058, 2029.069
1171.540, 2028.748
1172.022, 2026.989
1172.504, 2024.840
1172.986, 2022.678
1173.469, 2020.815
1173.951, 2019.776
1174.433, 2019.311
1174.915, 2018.839
1175.397, 2018.311
1175.879, 2017.892
1176.361, 2017.712
1176.843, 2017.029
1177.326, 2014.347
1177.808, 2011.347
1178.290, 2010.689
1178.772, 2011.668
1179.254, 2011.055
1179.736, 2006.723
1180.218, 2005.285
1180.700, 2008.162
1181.182, 2011.487
1181.665, 2010.390
1182.147, 2007.486
1182.629, 2007.223
1183.111, 2009.269
1183.593, 2009.254
1184.075, 2005.061
1184.557, 2001.898
1185.039, 2000.843
1185.521, 2000.611
1186.004, 1999.782
1186.486, 1998.494
1186.968, 1996.745
1187.450, 1994.583
1187.932, 1992.996
1188.414, 1992.599
1188.896, 1991.910
1189.378, 1990.465
1189.861, 1988.750
1190.343, 1987.168
1190.825, 1986.042
1191.307, 1986.343
1191.789, 1988.340
1192.271, 1989.497
1192.753, 1989.138
1193.235, 1988.189
1193.718, 1986.814
1194.200, 1985.244
1194.682, 1983.619
1195.164, 1982.218
1195.646, 1981.826
1196.128, 1982.876
1196.610, 1983.154
1197.092, 1981.778
1197.574, 1980.285
1198.057, 1979.298
1198.539, 1978.491
1199.021, 1976.517
1199.503, 1974.227
1199.985, 1973.913
1200.467, 1977.110
1200.949, 1978.661
1201.431, 1977.267
1201.913, 1974.643
1202.396, 1970.814
1202.878, 1966.986
1203.360, 1966.689
1203.842, 1968.849
1204.324, 1970.743
1204.806, 1971.639
1205.288, 1972.154
1205.770, 1972.779
1206.253, 1972.404
1206.735, 1969.723
1207.217, 1965.957
1207.699, 1965.035
1208.181, 1965.917
1208.663, 1965.680
1209.145, 1962.176
1209.627, 1959.866
1210.109, 1959.846
1210.592, 1960.244
1211.074, 1959.908
1211.556, 1959.000
1212.038, 1957.180
1212.520, 1955.222
1213.002, 1955.449
1213.484, 1962.487
1213.966, 1965.360
1214.448, 1961.504
1214.931, 1956.173
1215.413, 1953.028
1215.895, 1951.728
1216.377, 1952.185
1216.859, 1953.594
1217.341, 1953.412
1217.823, 1948.014
1218.305, 1945.143
1218.788, 1946.361
1219.270, 1948.524
1219.752, 1949.048
1220.234, 1948.446
1220.716, 1947.585
1221.198, 1946.702
1221.680, 1946.523
1222.162, 1948.649
1222.645, 1949.344
1223.127, 1947.903
1223.609, 1945.873
1224.091, 1944.660
1224.573, 1943.976
1225.055, 1943.027
1225.537, 1942.014
1226.019, 1941.743
1226.501, 1943.905
1226.984, 1944.607
1227.466, 1943.342
1227.948, 1941.083
1228.430, 1938.042
1228.912, 1935.056
1229.394, 1933.735
1229.876, 1933.916
1230.358, 1934.657
1230.841, 1936.831
1231.323, 1937.138
1231.805, 1934.643
1232.287, 1932.120
1232.769, 1933.394
1233.251, 1935.976
1233.733, 1936.148
1234.215, 1934.032
1234.698, 1930.809
1235.180, 1925.739
1235.662, 1921.917
1236.144, 1919.650
1236.626, 1918.789
1237.108, 1920.533
1237.590, 1922.682
1238.072, 1921.843
1238.554, 1918.642
1239.036, 1917.202
1239.519, 1918.494
1240.001, 1919.187
1240.483, 1918.732
1240.965, 1918.239
1241.447, 1919.095
1241.929, 1920.279
1242.411, 1920.600
1242.893, 1920.196
1243.376, 1920.275
1243.858, 1921.300
1244.340, 1920.547
1244.822, 1917.386
1245.304, 1914.371
1245.786, 1913.733
1246.268, 1914.461
1246.750, 1916.830
1247.233, 1919.781
1247.715, 1918.991
1248.197, 1913.823
1248.679, 1910.701
1249.161, 1910.609
1249.643, 1911.650
1250.125, 1912.888
1250.607, 1913.987
1251.089, 1914.979
1251.572, 1915.528
1252.054, 1914.486
1252.536, 1911.834
1253.018, 1909.339
1253.500, 1907.154
1253.982, 1906.346
1254.464, 1910.362
1254.946, 1913.165
1255.428, 1909.416
1255.911, 1902.756
1256.393, 1901.273
1256.875, 1904.290
1257.357, 1904.963
1257.839, 1902.342
1258.321, 1899.737
1258.803, 1899.435
1259.285, 1899.436
1259.768, 1899.152
1260.250, 1898.464
1260.732, 1896.396
1261.214, 1893.672
1261.696, 1893.898
1262.178, 1897.479
1262.660, 1899.811
1263.142, 1897.010
1263.625, 1895.118
1264.107, 1896.860
1264.589, 1898.851
1265.071, 1893.408
1265.553, 1884.339
1266.035, 1881.953
1266.517, 1886.989
1266.999, 1891.441
1267.481, 1892.737
1267.964, 1893.163
1268.446, 1892.797
1268.928, 1892.529
1269.410, 1893.993
1269.892, 1896.232
1270.374, 1898.440
1270.856, 1900.321
1271.338, 1898.915
1271.820, 1892.497
1272.303, 1887.260
1272.785, 1884.266
1273.267, 1883.025
1273.749, 1884.264
1274.231, 1886.043
1274.713, 1886.037
1275.195, 1884.286
1275.677, 1882.556
1276.160, 1880.768
1276.642, 1879.540
1277.124, 1878.968
1277.606, 1879.094
1278.088, 1881.121
1278.570, 1882.856
1279.052, 1882.217
1279.534, 1879.778
1280.016, 1877.282
1280.499, 1874.719
1280.981, 1873.016
1281.463, 1872.301
1281.945, 1871.791
1282.427, 1871.473
1282.909, 1870.533
1283.391, 1867.857
1283.873, 1864.674
1284.356, 1863.021
1284.838, 1862.845
1285.320, 1864.431
1285.802, 1867.684
1286.284, 1870.082
1286.766, 1869.886
1287.248, 1868.964
1287.730, 1867.847
1288.213, 1866.508
1288.695, 1864.523
1289.177, 1862.344
1289.659, 1861.133
1290.141, 1860.954
1290.623, 1861.407
1291.105, 1863.293
1291.587, 1864.344
1292.069, 1864.257
1292.552, 1863.252
1293.034, 1861.206
1293.516, 1858.616
1293.998, 1856.008
1294.480, 1853.507
1294.962, 1851.619
1295.444, 1850.518
1295.926, 1849.247
1296.408, 1847.575
1296.891, 1846.631
1297.373, 1848.025
1297.855, 1850.025
1298.337, 1851.566
1298.819, 1852.451
1299.301, 1851.945
1299.783, 1849.850
1300.265, 1848.770
1300.748, 1848.921
1301.230, 1848.745
1301.712, 1846.387
1302.194, 1844.405
1302.676, 1844.395
##END=



