##NAMES=Walstromite
##RRUFFID=R070634
##IDEAL CHEMISTRY=BaCa_2_Si_3_O_9_
##LOCALITY=Esquire number 8 mine, Big Creek, Fresno County, California, USA
##OWNER=RRUFF
##SOURCE=Michael Scott
##DESCRIPTION=Colorless massive with pronounced cleavage, strong orange-pink fluorescence under long-wave ultraviolet light
##STATUS=The identification of this mineral is confirmed by single-crystal X-ray diffraction and chemical analysis.
##URL=rruff.info/R070634
##MEASURED CHEMISTRY=(Ba_0.96_Sr_0.02_Ca_0.02_)_Σ=1_(Ca_1.98_Mn_0.02_)_Σ=2_Si_3.00_O_9_; trace amounts of Ti
109.3990, 1173.401
109.8811, 1200.075
110.3632, 1215.382
110.8453, 1205.814
111.3275, 1192.183
111.8096, 1196.050
112.2917, 1226.886
112.7738, 1275.143
113.2559, 1305.565
113.7380, 1291.370
114.2201, 1290.306
114.7023, 1327.112
115.1844, 1387.491
115.6665, 1438.209
116.1486, 1455.564
116.6307, 1442.573
117.1128, 1437.998
117.5950, 1444.753
118.0771, 1457.119
118.5592, 1470.361
119.0413, 1483.999
119.5234, 1501.960
120.0055, 1530.803
120.4877, 1567.254
120.9698, 1602.815
121.4519, 1634.523
121.9340, 1663.530
122.4161, 1693.448
122.8982, 1728.015
123.3804, 1757.573
123.8625, 1773.568
124.3446, 1778.358
124.8267, 1783.514
125.3088, 1800.172
125.7909, 1829.592
126.2731, 1853.057
126.7552, 1871.866
127.2373, 1881.136
127.7194, 1872.323
128.2015, 1845.550
128.6837, 1814.430
129.1658, 1799.861
129.6479, 1811.589
130.1300, 1821.915
130.6121, 1828.494
131.0942, 1832.899
131.5764, 1833.894
132.0585, 1830.936
132.5406, 1828.327
133.0227, 1841.502
133.5048, 1892.440
133.9869, 1936.225
134.4691, 1970.115
134.9512, 1993.256
135.4333, 2004.214
135.9154, 2001.531
136.3975, 1985.446
136.8796, 1964.197
137.3618, 1929.381
137.8439, 1897.962
138.3260, 1877.733
138.8081, 1868.674
139.2902, 1867.982
139.7723, 1878.630
140.2545, 1899.357
140.7366, 1900.906
141.2187, 1863.434
141.7008, 1814.240
142.1829, 1780.638
142.6650, 1765.841
143.1472, 1767.844
143.6293, 1794.397
144.1114, 1840.039
144.5935, 1881.003
145.0756, 1904.794
145.5577, 1915.755
146.0398, 1928.901
146.5220, 1949.337
147.0041, 1968.971
147.4862, 1977.883
147.9683, 1976.952
148.4504, 1980.975
148.9325, 2007.163
149.4147, 2058.641
149.8968, 2100.759
150.3789, 2115.282
150.8610, 2125.699
151.3431, 2145.612
151.8252, 2177.900
152.3074, 2214.052
152.7895, 2239.061
153.2716, 2243.134
153.7537, 2257.743
154.2358, 2290.193
154.7179, 2331.048
155.2001, 2374.871
155.6822, 2419.625
156.1643, 2462.157
156.6464, 2492.377
157.1285, 2481.856
157.6106, 2492.362
158.0928, 2555.337
158.5749, 2638.073
159.0570, 2693.472
159.5391, 2691.283
160.0212, 2638.193
160.5033, 2608.492
160.9855, 2617.300
161.4676, 2630.156
161.9497, 2638.051
162.4318, 2641.389
162.9139, 2643.640
163.3960, 2647.135
163.8782, 2652.019
164.3603, 2658.370
164.8424, 2667.562
165.3245, 2677.032
165.8066, 2687.613
166.2887, 2698.853
166.7709, 2704.357
167.2530, 2696.848
167.7351, 2676.143
168.2172, 2653.204
168.6993, 2628.633
169.1814, 2602.543
169.6636, 2576.203
170.1457, 2550.787
170.6278, 2521.237
171.1099, 2473.959
171.5920, 2412.976
172.0741, 2365.525
172.5563, 2348.752
173.0384, 2354.143
173.5205, 2358.994
174.0026, 2364.034
174.4847, 2360.831
174.9668, 2340.150
175.4490, 2303.324
175.9311, 2267.104
176.4132, 2244.080
176.8953, 2233.767
177.3774, 2222.696
177.8595, 2203.549
178.3417, 2187.355
178.8238, 2179.911
179.3059, 2181.939
179.7880, 2192.812
180.2701, 2218.692
180.7522, 2268.764
181.2344, 2294.852
181.7165, 2259.394
182.1986, 2217.704
182.6807, 2208.679
183.1628, 2242.021
183.6449, 2290.943
184.1271, 2306.896
184.6092, 2261.707
185.0913, 2239.656
185.5734, 2262.470
186.0555, 2301.214
186.5376, 2330.827
187.0198, 2341.206
187.5019, 2340.740
187.9840, 2352.099
188.4661, 2393.244
188.9482, 2423.778
189.4303, 2430.968
189.9125, 2429.173
190.3946, 2435.148
190.8767, 2457.709
191.3588, 2493.625
191.8409, 2528.609
192.3230, 2562.817
192.8052, 2595.809
193.2873, 2624.889
193.7694, 2652.658
194.2515, 2683.266
194.7336, 2719.306
195.2157, 2760.407
195.6979, 2805.220
196.1800, 2858.905
196.6621, 2910.077
197.1442, 2952.693
197.6263, 2988.865
198.1084, 3025.384
198.5906, 3067.371
199.0727, 3114.215
199.5548, 3158.175
200.0369, 3194.865
200.5190, 3232.316
201.0011, 3277.398
201.4833, 3329.340
201.9654, 3379.553
202.4475, 3421.811
202.9296, 3456.103
203.4117, 3489.709
203.8938, 3520.935
204.3760, 3552.805
204.8581, 3589.323
205.3402, 3631.166
205.8223, 3671.552
206.3044, 3703.751
206.7865, 3729.813
207.2687, 3756.656
207.7508, 3786.004
208.2329, 3816.582
208.7150, 3849.328
209.1971, 3886.744
209.6792, 3916.666
210.1614, 3920.997
210.6435, 3909.372
211.1256, 3903.630
211.6077, 3918.627
212.0898, 3944.138
212.5719, 3956.497
213.0541, 3949.385
213.5362, 3939.571
214.0183, 3946.200
214.5004, 3960.750
214.9825, 3960.335
215.4646, 3922.043
215.9468, 3856.111
216.4289, 3807.660
216.9110, 3789.749
217.3931, 3773.025
217.8752, 3736.105
218.3573, 3685.595
218.8395, 3640.863
219.3216, 3622.391
219.8037, 3627.045
220.2858, 3612.797
220.7679, 3561.396
221.2500, 3509.183
221.7322, 3476.435
222.2143, 3458.366
222.6964, 3438.014
223.1785, 3398.055
223.6606, 3337.137
224.1427, 3287.219
224.6249, 3262.358
225.1070, 3236.765
225.5891, 3196.883
226.0712, 3145.975
226.5533, 3097.732
227.0354, 3067.959
227.5176, 3061.142
227.9997, 3042.014
228.4818, 2999.933
228.9639, 2954.046
229.4460, 2906.226
229.9281, 2860.113
230.4103, 2823.259
230.8924, 2807.046
231.3745, 2819.049
231.8566, 2816.902
232.3387, 2789.190
232.8208, 2758.080
233.3030, 2732.208
233.7851, 2712.653
234.2672, 2697.056
234.7493, 2683.577
235.2314, 2674.114
235.7135, 2659.640
236.1957, 2639.984
236.6778, 2616.484
237.1599, 2583.615
237.6420, 2544.624
238.1241, 2513.408
238.6062, 2508.961
239.0884, 2546.474
239.5705, 2560.032
240.0526, 2535.620
240.5347, 2502.993
241.0168, 2477.036
241.4989, 2460.531
241.9811, 2450.624
242.4632, 2444.720
242.9453, 2445.792
243.4274, 2441.120
243.9095, 2424.427
244.3916, 2407.517
244.8738, 2398.099
245.3559, 2397.013
245.8380, 2399.725
246.3201, 2401.394
246.8022, 2402.386
247.2843, 2400.392
247.7665, 2397.522
248.2486, 2390.584
248.7307, 2374.116
249.2128, 2348.769
249.6949, 2323.418
250.1770, 2307.772
250.6592, 2303.784
251.1413, 2306.290
251.6234, 2322.591
252.1055, 2340.065
252.5876, 2348.701
253.0697, 2347.451
253.5519, 2342.947
254.0340, 2342.929
254.5161, 2349.880
254.9982, 2349.942
255.4803, 2334.373
255.9624, 2317.824
256.4445, 2312.282
256.9267, 2319.122
257.4088, 2331.358
257.8909, 2342.996
258.3730, 2354.453
258.8551, 2360.051
259.3372, 2349.494
259.8194, 2339.677
260.3015, 2348.645
260.7836, 2377.331
261.2657, 2405.884
261.7478, 2412.437
262.2299, 2392.229
262.7121, 2387.809
263.1942, 2414.204
263.6763, 2447.061
264.1584, 2467.395
264.6405, 2473.311
265.1227, 2472.623
265.6048, 2472.623
266.0869, 2473.149
266.5690, 2465.872
267.0511, 2433.406
267.5332, 2404.488
268.0154, 2410.386
268.4975, 2451.508
268.9796, 2492.334
269.4617, 2502.501
269.9438, 2481.221
270.4259, 2464.198
270.9081, 2449.927
271.3902, 2441.800
271.8723, 2445.947
272.3544, 2461.863
272.8365, 2477.479
273.3186, 2484.100
273.8008, 2481.647
274.2829, 2477.895
274.7650, 2469.320
275.2471, 2462.179
275.7292, 2461.462
276.2113, 2467.047
276.6935, 2475.736
277.1756, 2486.742
277.6577, 2499.241
278.1398, 2508.154
278.6219, 2506.242
279.1040, 2506.601
279.5862, 2524.563
280.0683, 2557.196
280.5504, 2579.215
281.0325, 2569.604
281.5146, 2537.436
281.9967, 2523.489
282.4789, 2541.232
282.9610, 2564.361
283.4431, 2578.897
283.9252, 2585.337
284.4073, 2585.411
284.8894, 2576.767
285.3716, 2564.030
285.8537, 2560.632
286.3358, 2567.796
286.8179, 2582.109
287.3000, 2607.167
287.7821, 2639.632
288.2643, 2665.274
288.7464, 2676.819
289.2285, 2678.007
289.7106, 2679.488
290.1927, 2682.425
290.6748, 2683.681
291.1570, 2678.016
291.6391, 2668.828
292.1212, 2667.692
292.6033, 2681.498
293.0854, 2702.592
293.5675, 2716.189
294.0497, 2723.436
294.5318, 2723.192
295.0139, 2705.013
295.4960, 2679.078
295.9781, 2670.767
296.4602, 2691.517
296.9424, 2726.362
297.4245, 2749.109
297.9066, 2758.245
298.3887, 2767.417
298.8708, 2779.769
299.3529, 2795.123
299.8351, 2814.361
300.3172, 2838.712
300.7993, 2863.490
301.2814, 2882.501
301.7635, 2896.139
302.2456, 2905.031
302.7278, 2900.709
303.2099, 2894.639
303.6920, 2907.667
304.1741, 2945.946
304.6562, 2983.729
305.1383, 2985.920
305.6205, 2949.772
306.1026, 2930.497
306.5847, 2953.587
307.0668, 2987.133
307.5489, 2995.545
308.0310, 2974.405
308.5132, 2947.765
308.9953, 2937.563
309.4774, 2944.816
309.9595, 2950.221
310.4416, 2949.948
310.9237, 2949.800
311.4059, 2957.524
311.8880, 2972.231
312.3701, 2981.691
312.8522, 2974.515
313.3343, 2951.808
313.8164, 2937.798
314.2986, 2942.729
314.7807, 2946.920
315.2628, 2935.576
315.7449, 2912.187
316.2270, 2893.411
316.7091, 2891.799
317.1913, 2902.665
317.6734, 2898.536
318.1555, 2869.477
318.6376, 2838.683
319.1197, 2812.151
319.6018, 2790.317
320.0840, 2773.933
320.5661, 2763.738
321.0482, 2758.722
321.5303, 2756.284
322.0124, 2757.956
322.4945, 2759.648
322.9767, 2762.280
323.4588, 2764.017
323.9409, 2760.540
324.4230, 2749.730
324.9051, 2736.986
325.3872, 2733.251
325.8694, 2742.629
326.3515, 2754.056
326.8336, 2770.920
327.3157, 2787.463
327.7978, 2796.636
328.2799, 2796.855
328.7621, 2793.759
329.2442, 2795.070
329.7263, 2802.853
330.2084, 2810.454
330.6905, 2817.366
331.1726, 2824.437
331.6548, 2835.032
332.1369, 2848.067
332.6190, 2855.386
333.1011, 2845.869
333.5832, 2812.180
334.0653, 2805.221
334.5475, 2843.218
335.0296, 2885.768
335.5117, 2916.943
335.9938, 2935.693
336.4759, 2945.236
336.9580, 2946.420
337.4402, 2939.532
337.9223, 2943.902
338.4044, 2972.486
338.8865, 2997.830
339.3686, 3003.838
339.8507, 3002.911
340.3329, 3019.616
340.8150, 3069.968
341.2971, 3142.607
341.7792, 3188.602
342.2613, 3181.167
342.7434, 3178.981
343.2256, 3189.199
343.7077, 3207.387
344.1898, 3231.295
344.6719, 3259.800
345.1540, 3286.895
345.6361, 3298.849
346.1183, 3282.597
346.6004, 3276.474
347.0825, 3287.518
347.5646, 3304.756
348.0467, 3321.518
348.5288, 3335.911
349.0110, 3348.977
349.4931, 3362.338
349.9752, 3376.980
350.4573, 3388.090
350.9394, 3393.558
351.4215, 3397.158
351.9037, 3400.167
352.3858, 3402.778
352.8679, 3404.561
353.3500, 3402.166
353.8321, 3396.068
354.3142, 3404.765
354.7964, 3444.529
355.2785, 3479.542
355.7606, 3492.314
356.2427, 3490.530
356.7248, 3489.890
357.2069, 3499.395
357.6891, 3515.977
358.1712, 3529.874
358.6533, 3537.278
359.1354, 3551.057
359.6175, 3580.678
360.0996, 3617.339
360.5818, 3652.598
361.0639, 3685.387
361.5460, 3711.874
362.0281, 3720.965
362.5102, 3709.369
362.9923, 3710.869
363.4745, 3745.747
363.9566, 3793.111
364.4387, 3833.090
364.9208, 3863.407
365.4029, 3889.296
365.8850, 3913.955
366.3672, 3937.330
366.8493, 3958.535
367.3314, 3973.709
367.8135, 3992.289
368.2956, 4022.865
368.7777, 4064.600
369.2599, 4115.205
369.7420, 4182.549
370.2241, 4255.441
370.7062, 4312.740
371.1883, 4350.338
371.6704, 4383.182
372.1526, 4423.679
372.6347, 4470.701
373.1168, 4517.215
373.5989, 4554.941
374.0810, 4597.460
374.5631, 4656.813
375.0453, 4732.457
375.5274, 4815.999
376.0095, 4903.280
376.4916, 4995.124
376.9737, 5094.527
377.4558, 5207.700
377.9380, 5320.843
378.4201, 5427.693
378.9022, 5531.380
379.3843, 5636.246
379.8664, 5743.582
380.3485, 5854.651
380.8307, 5969.105
381.3128, 6075.413
381.7949, 6208.343
382.2770, 6386.656
382.7591, 6583.954
383.2412, 6769.586
383.7234, 6939.901
384.2055, 7117.265
384.6876, 7328.479
385.1697, 7584.326
385.6518, 7830.818
386.1339, 8048.831
386.6161, 8276.874
387.0982, 8533.998
387.5803, 8818.465
388.0624, 9118.142
388.5445, 9427.279
389.0266, 9745.132
389.5088, 10056.28
389.9909, 10340.76
390.4730, 10641.94
390.9551, 10969.92
391.4372, 11316.52
391.9193, 11668.21
392.4015, 12018.67
392.8836, 12378.90
393.3657, 12781.95
393.8478, 13252.24
394.3299, 13697.31
394.8120, 14086.63
395.2942, 14460.95
395.7763, 14848.50
396.2584, 15253.64
396.7405, 15657.06
397.2226, 16052.21
397.7047, 16437.85
398.1869, 16776.51
398.6690, 17030.93
399.1511, 17278.24
399.6332, 17588.86
400.1153, 17931.41
400.5974, 18216.27
401.0796, 18374.60
401.5617, 18449.54
402.0438, 18546.35
402.5259, 18681.70
403.0080, 18773.75
403.4901, 18762.85
403.9723, 18682.63
404.4544, 18579.98
404.9365, 18468.26
405.4186, 18325.78
405.9007, 18135.35
406.3828, 17899.17
406.8650, 17623.31
407.3471, 17300.72
407.8292, 16951.92
408.3113, 16604.69
408.7934, 16260.48
409.2755, 15918.38
409.7577, 15592.31
410.2398, 15264.76
410.7219, 14908.34
411.2040, 14518.75
411.6861, 14123.86
412.1682, 13750.67
412.6504, 13403.25
413.1325, 13060.67
413.6146, 12724.91
414.0967, 12391.16
414.5788, 12049.80
415.0609, 11706.27
415.5431, 11374.95
416.0252, 11064.87
416.5073, 10773.36
416.9894, 10482.21
417.4715, 10165.44
417.9536, 9879.376
418.4358, 9646.236
418.9179, 9439.079
419.4000, 9228.875
419.8821, 9006.648
420.3642, 8780.993
420.8463, 8562.581
421.3285, 8348.331
421.8106, 8152.995
422.2927, 7981.802
422.7748, 7824.359
423.2569, 7680.421
423.7390, 7547.009
424.2212, 7416.819
424.7033, 7285.269
425.1854, 7152.701
425.6675, 7016.724
426.1496, 6875.261
426.6317, 6735.285
427.1139, 6589.161
427.5960, 6449.207
428.0781, 6333.601
428.5602, 6254.629
429.0423, 6187.826
429.5244, 6102.287
430.0066, 5997.581
430.4887, 5893.563
430.9708, 5789.869
431.4529, 5695.470
431.9350, 5623.119
432.4171, 5574.035
432.8993, 5521.080
433.3814, 5446.294
433.8635, 5360.404
434.3456, 5280.239
434.8277, 5207.693
435.3098, 5145.406
435.7920, 5100.155
436.2741, 5070.000
436.7562, 5029.016
437.2383, 4967.167
437.7204, 4902.805
438.2025, 4845.758
438.6847, 4794.844
439.1668, 4744.571
439.6489, 4691.668
440.1310, 4639.322
440.6131, 4596.500
441.0952, 4570.958
441.5774, 4543.847
442.0595, 4514.954
442.5416, 4483.574
443.0237, 4449.330
443.5058, 4412.039
443.9879, 4371.412
444.4701, 4325.826
444.9522, 4273.635
445.4343, 4229.532
445.9164, 4197.210
446.3985, 4169.563
446.8806, 4149.685
447.3628, 4132.527
447.8449, 4109.335
448.3270, 4074.534
448.8091, 4032.599
449.2912, 3994.883
449.7733, 3964.413
450.2555, 3929.933
450.7376, 3874.353
451.2197, 3822.589
451.7018, 3800.453
452.1839, 3811.827
452.6660, 3820.461
453.1481, 3791.116
453.6302, 3732.483
454.1124, 3685.650
454.5945, 3657.066
455.0766, 3636.025
455.5587, 3617.193
456.0408, 3599.328
456.5229, 3578.461
457.0051, 3547.807
457.4872, 3518.053
457.9693, 3504.874
458.4514, 3503.924
458.9335, 3489.049
459.4156, 3444.143
459.8978, 3382.037
460.3799, 3337.119
460.8620, 3311.630
461.3441, 3295.403
461.8262, 3298.138
462.3083, 3303.264
462.7905, 3290.113
463.2726, 3256.383
463.7547, 3218.798
464.2368, 3194.399
464.7189, 3184.361
465.2010, 3177.657
465.6832, 3183.228
466.1653, 3182.461
466.6474, 3163.473
467.1295, 3135.281
467.6116, 3113.017
468.0938, 3104.782
468.5759, 3104.472
469.0580, 3099.006
469.5401, 3087.594
470.0222, 3073.166
470.5043, 3051.994
470.9865, 3031.096
471.4686, 3014.400
471.9507, 3002.416
472.4328, 2993.905
472.9149, 2992.042
473.3970, 2993.412
473.8792, 2983.108
474.3613, 2955.708
474.8434, 2931.141
475.3255, 2930.006
475.8076, 2940.073
476.2897, 2934.780
476.7719, 2898.308
477.2540, 2860.844
477.7361, 2843.306
478.2182, 2841.610
478.7003, 2845.217
479.1824, 2851.952
479.6646, 2857.446
480.1467, 2853.396
480.6288, 2834.044
481.1109, 2823.894
481.5930, 2833.908
482.0751, 2845.926
482.5573, 2846.257
483.0394, 2835.835
483.5215, 2822.555
484.0036, 2810.909
484.4857, 2802.312
484.9678, 2806.617
485.4500, 2836.171
485.9321, 2862.767
486.4142, 2886.931
486.8963, 2904.235
487.3784, 2906.210
487.8605, 2892.189
488.3427, 2877.568
488.8248, 2882.185
489.3069, 2907.051
489.7890, 2927.521
490.2711, 2941.008
490.7532, 2951.663
491.2354, 2959.680
491.7175, 2967.055
492.1996, 2978.745
492.6817, 2998.123
493.1638, 3021.066
493.6459, 3044.569
494.1281, 3068.364
494.6102, 3087.273
495.0923, 3097.032
495.5744, 3103.678
496.0565, 3118.479
496.5386, 3142.904
497.0208, 3166.744
497.5029, 3187.929
497.9850, 3207.213
498.4671, 3222.634
498.9492, 3235.398
499.4313, 3253.601
499.9135, 3284.794
500.3956, 3327.519
500.8777, 3363.924
501.3598, 3396.858
501.8419, 3419.733
502.3240, 3424.447
502.8062, 3421.592
503.2883, 3421.347
503.7704, 3427.196
504.2525, 3438.812
504.7346, 3457.563
505.2167, 3484.768
505.6989, 3509.236
506.1810, 3530.081
506.6631, 3548.617
507.1452, 3565.345
507.6273, 3580.407
508.1094, 3593.696
508.5916, 3602.974
509.0737, 3613.165
509.5558, 3629.932
510.0379, 3653.218
510.5200, 3684.921
511.0021, 3730.029
511.4843, 3778.734
511.9664, 3817.105
512.4485, 3845.615
512.9306, 3865.945
513.4127, 3867.527
513.8948, 3868.038
514.3770, 3886.170
514.8591, 3921.863
515.3412, 3964.004
515.8233, 4006.592
516.3054, 4048.002
516.7875, 4076.545
517.2697, 4061.725
517.7518, 4072.256
518.2339, 4142.843
518.7160, 4225.877
519.1981, 4270.480
519.6802, 4269.245
520.1624, 4258.110
520.6445, 4278.285
521.1266, 4330.741
521.6087, 4374.466
522.0908, 4404.402
522.5729, 4432.442
523.0551, 4464.509
523.5372, 4498.087
524.0193, 4528.772
524.5014, 4554.531
524.9835, 4579.016
525.4656, 4604.756
525.9478, 4631.970
526.4299, 4664.544
526.9120, 4706.674
527.3941, 4745.779
527.8762, 4762.174
528.3583, 4754.486
528.8405, 4760.026
529.3226, 4797.931
529.8047, 4836.253
530.2868, 4850.604
530.7689, 4847.727
531.2510, 4850.131
531.7332, 4869.905
532.2153, 4897.512
532.6974, 4908.991
533.1795, 4893.528
533.6616, 4881.154
534.1437, 4874.093
534.6259, 4868.586
535.1080, 4863.621
535.5901, 4858.295
536.0722, 4850.957
536.5543, 4840.406
537.0364, 4827.037
537.5186, 4812.307
538.0007, 4796.450
538.4828, 4778.137
538.9649, 4754.215
539.4470, 4729.227
539.9291, 4708.486
540.4113, 4692.636
540.8934, 4678.902
541.3755, 4674.014
541.8576, 4667.320
542.3397, 4638.141
542.8218, 4584.847
543.3040, 4529.274
543.7861, 4487.287
544.2682, 4457.313
544.7503, 4426.285
545.2324, 4394.296
545.7145, 4361.209
546.1967, 4322.538
546.6788, 4285.315
547.1609, 4259.482
547.6430, 4246.071
548.1251, 4234.973
548.6072, 4216.502
549.0894, 4190.696
549.5715, 4154.067
550.0536, 4094.732
550.5357, 4041.577
551.0178, 4006.496
551.4999, 3982.563
551.9821, 3960.425
552.4642, 3937.677
552.9463, 3915.707
553.4284, 3900.560
553.9105, 3888.159
554.3926, 3859.468
554.8748, 3807.196
555.3569, 3752.215
555.8390, 3714.968
556.3211, 3695.121
556.8032, 3670.359
557.2853, 3635.882
557.7675, 3600.811
558.2496, 3565.161
558.7317, 3532.853
559.2138, 3514.169
559.6959, 3512.328
560.1780, 3513.281
560.6602, 3492.846
561.1423, 3440.682
561.6244, 3408.818
562.1065, 3419.996
562.5886, 3430.050
563.0707, 3423.392
563.5529, 3404.864
564.0350, 3384.506
564.5171, 3366.442
564.9992, 3348.834
565.4813, 3330.878
565.9634, 3312.234
566.4456, 3284.613
566.9277, 3238.466
567.4098, 3196.085
567.8919, 3190.646
568.3740, 3217.250
568.8561, 3225.873
569.3383, 3196.650
569.8204, 3158.836
570.3025, 3122.870
570.7846, 3093.706
571.2667, 3086.190
571.7488, 3107.126
572.2310, 3135.724
572.7131, 3132.430
573.1952, 3078.958
573.6773, 3042.863
574.1594, 3039.984
574.6415, 3037.772
575.1237, 3013.822
575.6058, 2980.649
576.0879, 2969.028
576.5700, 3000.230
577.0521, 3042.766
577.5342, 3042.664
578.0164, 2999.606
578.4985, 2965.255
578.9806, 2952.140
579.4627, 2950.690
579.9448, 2958.535
580.4269, 2973.733
580.9091, 2972.202
581.3912, 2927.297
581.8733, 2884.246
582.3554, 2881.824
582.8375, 2906.210
583.3196, 2920.931
583.8018, 2910.781
584.2839, 2884.658
584.7660, 2855.627
585.2481, 2816.269
585.7302, 2795.981
586.2123, 2811.292
586.6945, 2827.905
587.1766, 2832.218
587.6587, 2827.093
588.1408, 2819.532
588.6229, 2811.769
589.1050, 2806.035
589.5872, 2808.439
590.0693, 2818.439
590.5514, 2819.554
591.0335, 2804.004
591.5156, 2786.662
591.9977, 2781.738
592.4799, 2788.078
592.9620, 2800.384
593.4441, 2826.004
593.9262, 2849.464
594.4083, 2860.334
594.8904, 2862.648
595.3726, 2862.304
595.8547, 2861.618
596.3368, 2865.579
596.8189, 2883.841
597.3010, 2922.518
597.7831, 2945.939
598.2653, 2933.964
598.7474, 2927.364
599.2295, 2945.152
599.7116, 2974.691
600.1937, 2995.618
600.6758, 2999.678
601.1580, 2998.599
601.6401, 3004.729
602.1222, 3016.589
602.6043, 3026.652
603.0864, 3033.330
603.5685, 3039.859
604.0507, 3050.268
604.5328, 3063.505
605.0149, 3070.543
605.4970, 3063.475
605.9791, 3059.555
606.4612, 3073.499
606.9434, 3090.054
607.4255, 3084.214
607.9076, 3053.214
608.3897, 3022.213
608.8718, 3018.973
609.3539, 3042.886
609.8361, 3067.034
610.3182, 3099.389
610.8003, 3118.326
611.2824, 3110.939
611.7645, 3090.765
612.2466, 3068.636
612.7288, 3045.742
613.2109, 3031.613
613.6930, 3040.462
614.1751, 3059.803
614.6572, 3066.025
615.1393, 3057.291
615.6215, 3045.433
616.1036, 3037.500
616.5857, 3032.173
617.0678, 3024.441
617.5499, 3013.496
618.0320, 3001.294
618.5142, 2980.046
618.9963, 2963.591
619.4784, 2969.274
619.9605, 2991.173
620.4426, 3005.069
620.9247, 2991.989
621.4069, 2962.742
621.8890, 2945.619
622.3711, 2941.969
622.8532, 2942.871
623.3353, 2949.012
623.8174, 2955.893
624.2996, 2958.287
624.7817, 2956.551
625.2638, 2956.243
625.7459, 2958.339
626.2280, 2962.843
626.7101, 2970.662
627.1923, 2980.874
627.6744, 2992.768
628.1565, 3006.121
628.6386, 3016.367
629.1207, 3014.373
629.6028, 2994.558
630.0850, 2985.141
630.5671, 2994.722
631.0492, 3006.336
631.5313, 3016.803
632.0134, 3025.272
632.4955, 3030.690
632.9777, 3032.489
633.4598, 3032.571
633.9419, 3024.867
634.4240, 3016.436
634.9061, 3036.400
635.3882, 3091.951
635.8704, 3149.971
636.3525, 3187.998
636.8346, 3207.495
637.3167, 3217.578
637.7988, 3201.574
638.2809, 3199.408
638.7631, 3221.902
639.2452, 3258.313
639.7273, 3305.354
640.2094, 3358.025
640.6915, 3402.597
641.1736, 3427.146
641.6558, 3436.744
642.1379, 3447.581
642.6200, 3459.658
643.1021, 3472.203
643.5842, 3477.335
644.0663, 3490.468
644.5485, 3529.077
645.0306, 3592.492
645.5127, 3659.102
645.9948, 3729.425
646.4769, 3795.157
646.9590, 3844.703
647.4412, 3883.982
647.9233, 3931.143
648.4054, 3993.112
648.8875, 4053.638
649.3696, 4087.648
649.8517, 4090.663
650.3339, 4088.813
650.8160, 4084.648
651.2981, 4072.023
651.7802, 4047.667
652.2623, 4014.376
652.7444, 3975.876
653.2266, 3932.906
653.7087, 3885.291
654.1908, 3831.003
654.6729, 3772.167
655.1550, 3708.406
655.6371, 3640.059
656.1193, 3586.961
656.6014, 3566.111
657.0835, 3566.996
657.5656, 3550.458
658.0477, 3497.175
658.5298, 3452.432
659.0120, 3424.228
659.4941, 3398.003
659.9762, 3362.236
660.4583, 3319.074
660.9404, 3278.749
661.4225, 3247.558
661.9047, 3220.211
662.3868, 3185.733
662.8689, 3144.398
663.3510, 3108.517
663.8331, 3080.084
664.3152, 3059.526
664.7974, 3050.802
665.2795, 3053.087
665.7616, 3047.847
666.2437, 3032.073
666.7258, 3011.771
667.2079, 2987.315
667.6901, 2960.494
668.1722, 2935.424
668.6543, 2911.793
669.1364, 2881.333
669.6185, 2831.035
670.1006, 2767.389
670.5828, 2733.783
671.0649, 2741.157
671.5470, 2742.273
672.0291, 2720.813
672.5112, 2686.092
672.9933, 2646.283
673.4755, 2601.260
673.9576, 2562.253
674.4397, 2530.556
674.9218, 2507.721
675.4039, 2500.028
675.8860, 2501.702
676.3682, 2500.897
676.8503, 2492.963
677.3324, 2477.459
677.8145, 2451.512
678.2966, 2412.649
678.7787, 2383.534
679.2609, 2368.636
679.7430, 2357.383
680.2251, 2346.609
680.7072, 2336.512
681.1893, 2327.815
681.6714, 2320.932
682.1536, 2313.223
682.6357, 2305.776
683.1178, 2295.327
683.5999, 2274.071
684.0820, 2243.975
684.5641, 2219.009
685.0463, 2207.184
685.5284, 2202.715
686.0105, 2191.647
686.4926, 2168.502
686.9747, 2151.782
687.4568, 2146.836
687.9390, 2142.915
688.4211, 2131.960
688.9032, 2119.724
689.3853, 2119.211
689.8674, 2138.119
690.3495, 2155.924
690.8317, 2156.180
691.3138, 2142.443
691.7959, 2117.737
692.2780, 2083.407
692.7601, 2055.677
693.2422, 2046.809
693.7244, 2052.730
694.2065, 2058.329
694.6886, 2071.003
695.1707, 2070.780
695.6528, 2038.663
696.1349, 2011.090
696.6171, 2014.041
697.0992, 2039.988
697.5813, 2066.341
698.0634, 2085.056
698.5455, 2094.922
699.0276, 2090.364
699.5098, 2075.344
699.9919, 2063.785
700.4740, 2058.296
700.9561, 2056.725
701.4382, 2058.118
701.9203, 2061.910
702.4025, 2063.565
702.8846, 2061.000
703.3667, 2059.029
703.8488, 2056.442
704.3309, 2055.780
704.8130, 2064.073
705.2952, 2076.878
705.7773, 2077.479
706.2594, 2049.339
706.7415, 2015.584
707.2236, 2012.927
707.7057, 2036.202
708.1879, 2053.712
708.6700, 2057.773
709.1521, 2058.269
709.6342, 2065.122
710.1163, 2077.771
710.5984, 2082.480
711.0806, 2068.761
711.5627, 2061.363
712.0448, 2075.000
712.5269, 2088.383
713.0090, 2075.936
713.4911, 2042.645
713.9733, 2021.212
714.4554, 2039.054
714.9375, 2072.421
715.4196, 2083.034
715.9017, 2073.124
716.3839, 2058.140
716.8660, 2039.896
717.3481, 2027.613
717.8302, 2033.651
718.3123, 2057.879
718.7944, 2066.090
719.2766, 2039.114
719.7587, 2022.339
720.2408, 2029.168
720.7229, 2045.667
721.2050, 2063.104
721.6871, 2078.238
722.1693, 2085.872
722.6514, 2077.531
723.1335, 2065.181
723.6156, 2073.754
724.0977, 2099.246
724.5798, 2110.559
725.0620, 2097.740
725.5441, 2077.440
726.0262, 2065.448
726.5083, 2061.754
726.9904, 2062.677
727.4725, 2071.315
727.9547, 2080.405
728.4368, 2088.321
728.9189, 2096.539
729.4010, 2104.681
729.8831, 2113.885
730.3652, 2128.805
730.8474, 2156.462
731.3295, 2186.944
731.8116, 2206.474
732.2937, 2216.054
732.7758, 2218.872
733.2579, 2214.853
733.7401, 2211.693
734.2222, 2217.798
734.7043, 2232.632
735.1864, 2243.277
735.6685, 2244.530
736.1506, 2248.391
736.6328, 2255.006
737.1149, 2265.594
737.5970, 2284.778
738.0791, 2309.841
738.5612, 2328.998
739.0433, 2333.731
739.5255, 2332.912
740.0076, 2333.068
740.4897, 2335.999
740.9718, 2349.672
741.4539, 2375.946
741.9360, 2403.698
742.4182, 2423.527
742.9003, 2435.725
743.3824, 2441.461
743.8645, 2431.249
744.3466, 2431.046
744.8287, 2455.958
745.3109, 2480.994
745.7930, 2487.386
746.2751, 2478.800
746.7572, 2472.484
747.2393, 2477.122
747.7214, 2482.989
748.2036, 2483.112
748.6857, 2478.479
749.1678, 2470.040
749.6499, 2458.332
750.1320, 2445.537
750.6141, 2432.703
751.0963, 2421.020
751.5784, 2417.245
752.0605, 2428.631
752.5426, 2427.110
753.0247, 2399.081
753.5068, 2367.921
753.9890, 2347.924
754.4711, 2336.025
754.9532, 2323.612
755.4353, 2308.158
755.9174, 2293.023
756.3995, 2281.642
756.8817, 2270.497
757.3638, 2252.726
757.8459, 2230.092
758.3280, 2214.091
758.8101, 2213.082
759.2922, 2216.411
759.7744, 2195.987
760.2565, 2147.445
760.7386, 2121.919
761.2207, 2135.269
761.7028, 2150.186
762.1849, 2142.406
762.6671, 2119.280
763.1492, 2100.040
763.6313, 2086.137
764.1134, 2073.600
764.5955, 2060.625
765.0776, 2049.476
765.5598, 2043.726
766.0419, 2040.933
766.5240, 2035.266
767.0061, 2024.163
767.4882, 2010.904
767.9703, 1996.980
768.4525, 1983.888
768.9346, 1983.049
769.4167, 1996.836
769.8988, 2008.317
770.3809, 2010.057
770.8630, 2003.084
771.3452, 1987.914
771.8273, 1957.888
772.3094, 1939.316
772.7915, 1937.652
773.2736, 1940.780
773.7557, 1947.498
774.2379, 1954.423
774.7200, 1957.053
775.2021, 1954.509
775.6842, 1951.167
776.1663, 1950.344
776.6484, 1950.725
777.1306, 1948.429
777.6127, 1944.792
778.0948, 1947.197
778.5769, 1958.394
779.0590, 1975.168
779.5411, 1995.515
780.0233, 2019.782
780.5054, 2028.681
780.9875, 2011.047
781.4696, 1996.345
781.9517, 1992.863
782.4338, 1994.030
782.9160, 1996.045
783.3981, 1998.313
783.8802, 1998.915
784.3623, 1994.637
784.8444, 1991.206
785.3265, 1994.541
785.8087, 2000.219
786.2908, 2000.348
786.7729, 1994.378
787.2550, 1988.765
787.7371, 1988.591
788.2192, 1992.393
788.7014, 1995.995
789.1835, 1999.215
789.6656, 2004.925
790.1477, 2016.510
790.6298, 2024.205
791.1119, 2017.544
791.5941, 2000.395
792.0762, 1990.907
792.5583, 1991.718
793.0404, 1995.737
793.5225, 2009.720
794.0046, 2019.716
794.4868, 2012.041
794.9689, 1992.802
795.4510, 1976.757
795.9331, 1970.046
796.4152, 1968.453
796.8973, 1970.126
797.3795, 1973.037
797.8616, 1972.973
798.3437, 1969.415
798.8258, 1958.148
799.3079, 1935.095
799.7900, 1910.720
800.2722, 1905.459
800.7543, 1924.926
801.2364, 1937.578
801.7185, 1947.218
802.2006, 1944.289
802.6827, 1912.888
803.1649, 1875.964
803.6470, 1861.650
804.1291, 1872.548
804.6112, 1880.201
805.0933, 1866.940
805.5754, 1853.439
806.0576, 1860.860
806.5397, 1877.085
807.0218, 1876.527
807.5039, 1855.813
807.9860, 1838.590
808.4681, 1849.081
808.9503, 1876.028
809.4324, 1883.428
809.9145, 1870.541
810.3966, 1848.901
810.8787, 1815.635
811.3608, 1788.858
811.8430, 1787.525
812.3251, 1807.436
812.8072, 1817.422
813.2893, 1814.050
813.7714, 1806.122
814.2535, 1789.378
814.7357, 1772.840
815.2178, 1759.429
815.6999, 1751.390
816.1820, 1755.350
816.6641, 1777.611
817.1462, 1793.921
817.6284, 1773.568
818.1105, 1739.806
818.5926, 1732.508
819.0747, 1750.570
819.5568, 1772.779
820.0389, 1789.533
820.5211, 1801.005
821.0032, 1806.472
821.4853, 1805.541
821.9674, 1805.402
822.4495, 1806.300
822.9316, 1807.380
823.4137, 1808.628
823.8958, 1809.637
824.3779, 1809.988
824.8600, 1809.707
825.3422, 1808.489
825.8243, 1799.861
826.3064, 1797.973
826.7885, 1815.441
827.2706, 1837.848
827.7527, 1847.501
828.2349, 1845.011
828.7170, 1846.145
829.1991, 1862.578
829.6812, 1883.745
830.1633, 1895.673
830.6454, 1900.528
831.1276, 1902.524
831.6097, 1902.813
832.0918, 1911.283
832.5739, 1936.275
833.0560, 1970.147
833.5381, 1990.404
834.0203, 1990.662
834.5024, 2000.075
834.9845, 2029.492
835.4666, 2053.846
835.9487, 2051.140
836.4308, 2039.645
836.9130, 2047.550
837.3951, 2080.137
837.8772, 2111.195
838.3593, 2136.824
838.8414, 2156.406
839.3235, 2167.108
839.8057, 2172.578
840.2878, 2177.164
840.7699, 2182.287
841.2520, 2188.699
841.7341, 2196.617
842.2162, 2206.543
842.6984, 2219.635
843.1805, 2235.642
843.6626, 2255.931
844.1447, 2281.167
844.6268, 2297.065
845.1089, 2289.546
845.5911, 2264.570
846.0732, 2248.484
846.5553, 2240.540
847.0374, 2244.255
847.5195, 2269.899
848.0016, 2295.256
848.4838, 2308.904
848.9659, 2313.144
849.4480, 2311.804
849.9301, 2304.610
850.4122, 2293.813
850.8943, 2277.625
851.3765, 2260.335
851.8586, 2242.089
852.3407, 2225.854
852.8228, 2217.532
853.3049, 2218.216
853.7870, 2220.580
854.2692, 2219.479
854.7513, 2215.183
855.2334, 2208.171
855.7155, 2198.410
856.1976, 2184.671
856.6797, 2166.579
857.1619, 2148.781
857.6440, 2135.199
858.1261, 2125.623
858.6082, 2120.436
859.0903, 2124.896
859.5724, 2115.729
860.0546, 2079.868
860.5367, 2043.690
861.0188, 2024.474
861.5009, 2017.870
861.9830, 2014.528
862.4651, 2017.621
862.9473, 2015.166
863.4294, 2001.092
863.9115, 1984.822
864.3936, 1971.337
864.8757, 1959.713
865.3578, 1948.863
865.8400, 1938.203
866.3221, 1925.089
866.8042, 1904.562
867.2863, 1882.446
867.7684, 1865.696
868.2505, 1854.189
868.7327, 1848.678
869.2148, 1848.813
869.6969, 1848.793
870.1790, 1843.454
870.6611, 1834.165
871.1432, 1825.496
871.6254, 1817.455
872.1075, 1810.320
872.5896, 1805.167
873.0717, 1797.837
873.5538, 1782.726
874.0359, 1764.810
874.5181, 1758.342
875.0002, 1770.946
875.4823, 1778.116
875.9644, 1777.745
876.4465, 1774.196
876.9286, 1767.935
877.4108, 1760.196
877.8929, 1752.169
878.3750, 1744.065
878.8571, 1736.225
879.3392, 1730.408
879.8214, 1723.233
880.3035, 1706.974
880.7856, 1689.634
881.2677, 1687.384
881.7498, 1699.800
882.2319, 1710.402
882.7141, 1708.163
883.1962, 1697.114
883.6783, 1681.246
884.1604, 1662.132
884.6425, 1650.956
885.1246, 1649.317
885.6068, 1648.522
886.0889, 1643.651
886.5710, 1637.645
887.0531, 1637.144
887.5352, 1644.915
888.0173, 1641.578
888.4995, 1618.476
888.9816, 1599.048
889.4637, 1592.646
889.9458, 1591.505
890.4279, 1589.621
890.9100, 1586.693
891.3922, 1580.314
891.8743, 1561.545
892.3564, 1550.457
892.8385, 1560.548
893.3206, 1575.056
893.8027, 1581.182
894.2849, 1578.588
894.7670, 1570.149
895.2491, 1556.014
895.7312, 1542.009
896.2133, 1531.877
896.6954, 1525.572
897.1776, 1526.311
897.6597, 1531.146
898.1418, 1528.249
898.6239, 1513.828
899.1060, 1500.064
899.5881, 1502.096
900.0703, 1515.515
900.5524, 1519.802
901.0345, 1514.617
901.5166, 1507.516
901.9987, 1499.516
902.4808, 1492.659
902.9630, 1489.463
903.4451, 1488.306
903.9272, 1481.588
904.4093, 1459.798
904.8914, 1452.527
905.3735, 1477.295
905.8557, 1496.733
906.3378, 1493.294
906.8199, 1476.197
907.3020, 1454.495
907.7841, 1427.128
908.2662, 1414.030
908.7484, 1434.912
909.2305, 1453.725
909.7126, 1449.020
910.1947, 1434.891
910.6768, 1427.858
911.1589, 1429.081
911.6411, 1430.412
912.1232, 1426.393
912.6053, 1423.371
913.0874, 1430.284
913.5695, 1441.368
914.0516, 1446.993
914.5338, 1446.640
915.0159, 1442.584
915.4980, 1435.833
915.9801, 1429.397
916.4622, 1427.229
916.9443, 1429.064
917.4265, 1434.284
917.9086, 1443.109
918.3907, 1449.955
918.8728, 1453.707
919.3549, 1452.646
919.8370, 1444.052
920.3192, 1429.417
920.8013, 1418.709
921.2834, 1411.607
921.7655, 1409.283
922.2476, 1414.475
922.7297, 1421.115
923.2119, 1426.711
923.6940, 1431.269
924.1761, 1435.077
924.6582, 1438.789
925.1403, 1438.883
925.6224, 1431.139
926.1046, 1424.083
926.5867, 1421.404
927.0688, 1421.279
927.5509, 1423.370
928.0330, 1426.311
928.5151, 1424.307
928.9973, 1408.507
929.4794, 1397.426
929.9615, 1410.753
930.4436, 1432.646
930.9257, 1443.087
931.4078, 1442.823
931.8900, 1442.425
932.3721, 1446.434
932.8542, 1447.987
933.3363, 1433.836
933.8184, 1412.869
934.3005, 1410.735
934.7827, 1424.926
935.2648, 1437.965
935.7469, 1445.037
936.2290, 1449.729
936.7111, 1455.053
937.1932, 1460.837
937.6754, 1465.775
938.1575, 1469.198
938.6396, 1478.146
939.1217, 1495.713
939.6038, 1511.454
940.0859, 1521.061
940.5681, 1523.692
941.0502, 1515.384
941.5323, 1490.955
942.0144, 1482.850
942.4965, 1505.769
942.9786, 1524.023
943.4608, 1527.562
943.9429, 1525.724
944.4250, 1525.529
944.9071, 1526.591
945.3892, 1525.921
945.8713, 1521.426
946.3535, 1518.059
946.8356, 1516.440
947.3177, 1516.982
947.7998, 1521.321
948.2819, 1527.487
948.7640, 1532.638
949.2462, 1536.044
949.7283, 1537.689
950.2104, 1534.446
950.6925, 1532.466
951.1746, 1539.529
951.6567, 1550.562
952.1389, 1556.511
952.6210, 1557.275
953.1031, 1559.334
953.5852, 1566.554
954.0673, 1576.353
954.5494, 1584.324
955.0316, 1592.390
955.5137, 1608.828
955.9958, 1631.828
956.4779, 1646.335
956.9600, 1646.767
957.4421, 1642.557
957.9243, 1643.183
958.4064, 1648.739
958.8885, 1662.240
959.3706, 1684.484
959.8527, 1696.960
960.3348, 1694.114
960.8170, 1693.546
961.2991, 1708.300
961.7812, 1730.635
962.2633, 1741.804
962.7454, 1738.524
963.2275, 1738.796
963.7097, 1741.784
964.1918, 1750.256
964.6739, 1769.289
965.1560, 1790.056
965.6381, 1802.697
966.1202, 1807.927
966.6024, 1815.352
967.0845, 1829.995
967.5666, 1839.427
968.0487, 1831.146
968.5308, 1829.065
969.0129, 1854.564
969.4951, 1891.731
969.9772, 1913.374
970.4593, 1914.164
970.9414, 1915.465
971.4235, 1924.034
971.9056, 1935.009
972.3878, 1949.286
972.8699, 1962.265
973.3520, 1965.523
973.8341, 1962.508
974.3162, 1968.065
974.7983, 1991.094
975.2805, 2014.155
975.7626, 2021.362
976.2447, 2023.311
976.7268, 2030.546
977.2089, 2043.442
977.6910, 2061.261
978.1732, 2083.452
978.6553, 2107.898
979.1374, 2133.883
979.6195, 2159.902
980.1016, 2183.404
980.5837, 2204.987
981.0659, 2225.065
981.5480, 2244.426
982.0301, 2267.405
982.5122, 2296.458
982.9943, 2326.868
983.4764, 2352.325
983.9586, 2373.011
984.4407, 2386.241
984.9228, 2392.411
985.4049, 2417.319
985.8870, 2470.911
986.3691, 2509.825
986.8513, 2495.438
987.3334, 2445.886
987.8155, 2418.547
988.2976, 2419.128
988.7797, 2401.110
989.2618, 2355.557
989.7440, 2315.239
990.2261, 2297.360
990.7082, 2283.316
991.1903, 2246.734
991.6724, 2188.555
992.1545, 2150.570
992.6367, 2140.442
993.1188, 2135.656
993.6009, 2141.759
994.0830, 2142.264
994.5651, 2123.881
995.0472, 2094.539
995.5294, 2069.630
996.0115, 2048.922
996.4936, 2033.671
996.9757, 2022.769
997.4578, 2018.962
997.9399, 2034.017
998.4221, 2047.342
998.9042, 2036.349
999.3863, 2008.113
999.8684, 1991.728
1000.351, 2000.263
1000.833, 2002.139
1001.315, 1980.662
1001.797, 1958.537
1002.279, 1948.425
1002.761, 1946.441
1003.243, 1946.845
1003.725, 1948.650
1004.207, 1952.893
1004.690, 1960.736
1005.172, 1970.067
1005.654, 1984.527
1006.136, 1995.965
1006.618, 1991.433
1007.100, 1977.904
1007.582, 1973.476
1008.064, 1983.400
1008.547, 1992.336
1009.029, 1987.027
1009.511, 1977.225
1009.993, 1969.644
1010.475, 1966.196
1010.957, 1973.097
1011.439, 1987.753
1011.921, 1997.206
1012.403, 1994.507
1012.886, 1989.666
1013.368, 1992.662
1013.850, 2001.592
1014.332, 2017.611
1014.814, 2036.261
1015.296, 2041.955
1015.778, 2032.683
1016.260, 2023.943
1016.742, 2027.869
1017.225, 2036.889
1017.707, 2035.354
1018.189, 2027.704
1018.671, 2031.732
1019.153, 2047.221
1019.635, 2062.973
1020.117, 2074.859
1020.599, 2081.665
1021.082, 2080.632
1021.564, 2075.550
1022.046, 2080.440
1022.528, 2094.400
1023.010, 2104.770
1023.492, 2109.847
1023.974, 2111.477
1024.456, 2109.700
1024.938, 2110.165
1025.421, 2122.947
1025.903, 2146.508
1026.385, 2160.892
1026.867, 2165.094
1027.349, 2170.010
1027.831, 2178.389
1028.313, 2184.672
1028.795, 2184.384
1029.278, 2180.874
1029.760, 2181.073
1030.242, 2184.761
1030.724, 2195.588
1031.206, 2217.724
1031.688, 2230.461
1032.170, 2221.112
1032.652, 2217.205
1033.135, 2248.109
1033.617, 2300.905
1034.099, 2325.458
1034.581, 2310.966
1035.063, 2297.591
1035.545, 2275.689
1036.027, 2276.262
1036.509, 2323.521
1036.991, 2382.212
1037.474, 2415.982
1037.956, 2426.274
1038.438, 2428.480
1038.920, 2415.003
1039.402, 2408.139
1039.884, 2410.863
1040.366, 2417.608
1040.848, 2425.100
1041.330, 2435.775
1041.813, 2454.783
1042.295, 2482.722
1042.777, 2505.795
1043.259, 2520.802
1043.741, 2535.560
1044.223, 2555.524
1044.705, 2570.552
1045.187, 2566.390
1045.670, 2557.061
1046.152, 2568.196
1046.634, 2603.491
1047.116, 2637.930
1047.598, 2672.547
1048.080, 2701.942
1048.562, 2722.629
1049.044, 2739.802
1049.526, 2753.944
1050.009, 2768.145
1050.491, 2789.896
1050.973, 2822.092
1051.455, 2852.315
1051.937, 2885.383
1052.419, 2907.743
1052.901, 2906.152
1053.383, 2899.056
1053.865, 2898.547
1054.348, 2906.735
1054.830, 2926.233
1055.312, 2958.462
1055.794, 2998.904
1056.276, 3056.381
1056.758, 3110.026
1057.240, 3149.829
1057.722, 3180.720
1058.205, 3201.958
1058.687, 3218.828
1059.169, 3251.880
1059.651, 3320.668
1060.133, 3370.434
1060.615, 3370.496
1061.097, 3361.458
1061.579, 3357.227
1062.062, 3363.897
1062.544, 3392.743
1063.026, 3439.962
1063.508, 3480.612
1063.990, 3504.270
1064.472, 3524.772
1064.954, 3543.725
1065.436, 3564.988
1065.918, 3590.446
1066.401, 3620.335
1066.883, 3658.646
1067.365, 3703.624
1067.847, 3738.465
1068.329, 3745.503
1068.811, 3759.400
1069.293, 3804.378
1069.775, 3853.043
1070.257, 3884.899
1070.740, 3905.094
1071.222, 3923.220
1071.704, 3941.410
1072.186, 3960.199
1072.668, 3983.198
1073.150, 4002.567
1073.632, 4015.980
1074.114, 4022.854
1074.596, 4015.684
1075.079, 4004.201
1075.561, 4005.555
1076.043, 4023.109
1076.525, 4046.055
1077.007, 4067.773
1077.489, 4096.091
1077.971, 4147.605
1078.453, 4196.551
1078.936, 4214.900
1079.418, 4213.887
1079.900, 4218.291
1080.382, 4233.871
1080.864, 4253.738
1081.346, 4288.161
1081.828, 4309.484
1082.310, 4279.728
1082.792, 4249.833
1083.275, 4271.410
1083.757, 4331.244
1084.239, 4396.698
1084.721, 4460.427
1085.203, 4508.944
1085.685, 4529.923
1086.167, 4542.063
1086.649, 4549.276
1087.131, 4557.475
1087.614, 4573.297
1088.096, 4594.339
1088.578, 4613.032
1089.060, 4627.128
1089.542, 4645.788
1090.024, 4671.294
1090.506, 4704.252
1090.988, 4754.720
1091.471, 4804.896
1091.953, 4833.912
1092.435, 4849.302
1092.917, 4872.495
1093.399, 4909.591
1093.881, 4943.320
1094.363, 4960.578
1094.845, 4981.357
1095.328, 5016.957
1095.810, 5059.036
1096.292, 5103.428
1096.774, 5146.804
1097.256, 5182.366
1097.738, 5207.733
1098.220, 5232.481
1098.702, 5246.962
1099.184, 5277.327
1099.667, 5357.368
1100.149, 5438.818
1100.631, 5465.107
1101.113, 5460.182
1101.595, 5493.422
1102.077, 5586.508
1102.559, 5661.329
1103.041, 5677.767
1103.523, 5699.877
1104.006, 5757.536
1104.488, 5825.225
1104.970, 5880.308
1105.452, 5928.001
1105.934, 5982.958
1106.416, 6046.592
1106.898, 6121.120
1107.380, 6224.338
1107.863, 6315.236
1108.345, 6370.096
1108.827, 6418.605
1109.309, 6488.389
1109.791, 6567.927
1110.273, 6623.285
1110.755, 6640.010
1111.237, 6690.499
1111.719, 6814.827
1112.202, 6927.049
1112.684, 6991.631
1113.166, 7053.741
1113.648, 7147.301
1114.130, 7261.272
1114.612, 7371.716
1115.094, 7480.398
1115.576, 7574.819
1116.058, 7634.146
1116.541, 7712.163
1117.023, 7835.328
1117.505, 7958.307
1117.987, 8045.005
1118.469, 8116.645
1118.951, 8216.147
1119.433, 8348.551
1119.915, 8472.776
1120.398, 8581.847
1120.880, 8698.590
1121.362, 8832.166
1121.844, 8961.718
1122.326, 9062.855
1122.808, 9163.874
1123.290, 9320.221
1123.772, 9535.150
1124.255, 9723.554
1124.737, 9876.693
1125.219, 10028.52
1125.701, 10182.90
1126.183, 10341.19
1126.665, 10504.17
1127.147, 10671.28
1127.629, 10841.42
1128.111, 11015.00
1128.594, 11203.85
1129.076, 11407.96
1129.558, 11632.02
1130.040, 11881.21
1130.522, 12133.41
1131.004, 12377.01
1131.486, 12616.86
1131.968, 12853.66
1132.450, 13093.68
1132.933, 13372.05
1133.415, 13687.80
1133.897, 13957.22
1134.379, 14168.88
1134.861, 14418.83
1135.343, 14749.40
1135.825, 15103.55
1136.307, 15415.70
1136.790, 15707.26
1137.272, 16046.29
1137.754, 16424.25
1138.236, 16794.30
1138.718, 17154.51
1139.200, 17524.21
1139.682, 17910.39
1140.164, 18311.87
1140.646, 18730.32
1141.129, 19157.80
1141.611, 19574.91
1142.093, 19995.86
1142.575, 20450.74
1143.057, 20942.58
1143.539, 21475.93
1144.021, 22046.53
1144.503, 22609.61
1144.985, 23125.95
1145.468, 23640.55
1145.950, 24199.39
1146.432, 24796.32
1146.914, 25416.46
1147.396, 26064.57
1147.878, 26749.65
1148.360, 27475.05
1148.842, 28248.05
1149.325, 29078.65
1149.807, 29931.82
1150.289, 30760.46
1150.771, 31612.62
1151.253, 32548.42
1151.735, 33527.80
1152.217, 34484.05
1152.699, 35423.47
1153.182, 36386.50
1153.664, 37390.53
1154.146, 38416.23
1154.628, 39464.77
1155.110, 40515.12
1155.592, 41531.44
1156.074, 42563.81
1156.556, 43693.55
1157.038, 44868.22
1157.521, 45952.71
1158.003, 46917.55
1158.485, 47833.98
1158.967, 48710.14
1159.449, 49549.52
1159.931, 50326.92
1160.413, 51087.55
1160.895, 51881.79
1161.377, 52674.76
1161.860, 53401.77
1162.342, 54058.61
1162.824, 54699.82
1163.306, 55342.93
1163.788, 55940.36
1164.270, 56467.66
1164.752, 56983.37
1165.234, 57527.78
1165.717, 58063.27
1166.199, 58537.62
1166.681, 58958.44
1167.163, 59392.62
1167.645, 59849.50
1168.127, 60284.71
1168.609, 60687.85
1169.091, 61101.05
1169.573, 61546.85
1170.056, 61985.19
1170.538, 62395.04
1171.020, 62733.24
1171.502, 62835.75
1171.984, 62717.92
1172.466, 62660.81
1172.948, 62669.88
1173.430, 62662.14
1173.912, 62611.46
1174.395, 62416.11
1174.877, 61995.18
1175.359, 61443.80
1175.841, 60932.23
1176.323, 60400.00
1176.805, 59663.35
1177.287, 58768.45
1177.769, 57885.97
1178.252, 57028.53
1178.734, 56099.25
1179.216, 55045.98
1179.698, 53960.43
1180.180, 52926.84
1180.662, 51898.29
1181.144, 50808.28
1181.626, 49688.18
1182.109, 48582.47
1182.591, 47490.93
1183.073, 46409.39
1183.555, 45337.63
1184.037, 44271.49
1184.519, 43188.91
1185.001, 42136.63
1185.483, 41141.68
1185.965, 40182.72
1186.448, 39229.54
1186.930, 38304.76
1187.412, 37451.50
1187.894, 36662.25
1188.376, 35840.77
1188.858, 34901.57
1189.340, 34053.91
1189.822, 33380.22
1190.304, 32732.99
1190.787, 32046.40
1191.269, 31368.21
1191.751, 30750.94
1192.233, 30174.02
1192.715, 29575.16
1193.197, 28941.18
1193.679, 28349.81
1194.161, 27806.52
1194.644, 27288.55
1195.126, 26794.07
1195.608, 26314.03
1196.090, 25837.72
1196.572, 25378.32
1197.054, 24955.25
1197.536, 24565.44
1198.018, 24180.65
1198.500, 23802.38
1198.983, 23408.52
1199.465, 22998.87
1199.947, 22644.29
1200.429, 22370.66
1200.911, 22100.50
1201.393, 21745.49
1201.875, 21368.41
1202.357, 21097.49
1202.839, 20888.41
1203.322, 20648.88
1203.804, 20384.18
1204.286, 20130.00
1204.768, 19894.67
1205.250, 19676.42
1205.732, 19477.92
1206.214, 19277.96
1206.696, 19045.43
1207.179, 18817.32
1207.661, 18621.77
1208.143, 18454.83
1208.625, 18328.61
1209.107, 18222.74
1209.589, 18076.71
1210.071, 17866.74
1210.553, 17697.37
1211.036, 17634.17
1211.518, 17564.69
1212.000, 17458.17
1212.482, 17330.71
1212.964, 17175.52
1213.446, 17015.38
1213.928, 16885.06
1214.410, 16782.92
1214.892, 16680.16
1215.375, 16567.04
1215.857, 16483.43
1216.339, 16446.88
1216.821, 16392.12
1217.303, 16288.96
1217.785, 16185.15
1218.267, 16123.98
1218.749, 16092.45
1219.231, 16062.94
1219.714, 16034.50
1220.196, 15993.88
1220.678, 15941.23
1221.160, 15876.33
1221.642, 15801.35
1222.124, 15740.01
1222.606, 15705.17
1223.088, 15680.88
1223.571, 15660.05
1224.053, 15627.41
1224.535, 15537.30
1225.017, 15430.55
1225.499, 15383.55
1225.981, 15381.52
1226.463, 15371.34
1226.945, 15340.13
1227.427, 15306.47
1227.910, 15270.44
1228.392, 15254.54
1228.874, 15307.17
1229.356, 15343.49
1229.838, 15281.68
1230.320, 15191.92
1230.802, 15165.48
1231.284, 15185.46
1231.766, 15165.93
1232.249, 15079.33
1232.731, 15022.33
1233.213, 15002.72
1233.695, 15006.91
1234.177, 15058.72
1234.659, 15084.05
1235.141, 15025.79
1235.623, 14946.00
##END=



