##NAMES=Warwickite
##RRUFFID=R120161
##IDEAL CHEMISTRY=(Mg,Ti^4+^,Fe^3+^,Cr^3+^,Al)_2_O(BO_3_)
##LOCALITY=South Baptiste Lake roadcut, Bancroft, Ontario, Canada
##OWNER=RRUFF
##SOURCE=Michael J. Bainbridge
##DESCRIPTION=Black prismatic crystals
##STATUS=The identification of this mineral has been confirmed only by single crystal X-ray diffraction.
##URL=rruff.info/R120161
135.9146, 848.3105
136.3968, 849.9081
136.8789, 851.6940
137.3610, 853.5521
137.8431, 855.3700
138.3252, 857.1794
138.8073, 858.6967
139.2895, 859.5832
139.7716, 860.2957
140.2537, 861.4020
140.7358, 863.0611
141.2179, 864.9567
141.7000, 866.6740
142.1821, 868.2241
142.6643, 869.8384
143.1464, 871.7769
143.6285, 873.8946
144.1106, 875.6251
144.5927, 876.5500
145.0748, 877.3829
145.5570, 878.7510
146.0391, 880.6594
146.5212, 882.7875
147.0033, 884.9141
147.4854, 887.0472
147.9675, 889.1272
148.4497, 890.7311
148.9318, 892.5709
149.4139, 895.3523
149.8960, 899.1458
150.3781, 903.0704
150.8602, 905.6503
151.3424, 906.0374
151.8245, 906.9514
152.3066, 908.7548
152.7887, 911.0193
153.2708, 913.5971
153.7529, 916.3924
154.2351, 919.1706
154.7172, 921.3359
155.1993, 922.6429
155.6814, 923.5019
156.1635, 923.1213
156.6456, 922.5447
157.1278, 923.1345
157.6099, 925.6179
158.0920, 929.5030
158.5741, 932.7191
159.0562, 935.3795
159.5383, 937.3777
160.0205, 938.0490
160.5026, 937.9643
160.9847, 938.5731
161.4668, 940.9671
161.9489, 944.5219
162.4310, 946.4393
162.9131, 945.5956
163.3953, 944.3460
163.8774, 944.0013
164.3595, 944.4895
164.8416, 945.1291
165.3237, 945.6389
165.8058, 945.9682
166.2880, 946.0284
166.7701, 945.5905
167.2522, 945.0539
167.7343, 945.0164
168.2164, 945.6451
168.6985, 945.9765
169.1807, 944.8732
169.6628, 943.2614
170.1449, 942.3473
170.6270, 942.9336
171.1091, 944.2897
171.5912, 944.7325
172.0734, 943.9902
172.5555, 942.7413
173.0376, 941.0659
173.5197, 939.1864
174.0018, 937.4128
174.4839, 935.9564
174.9661, 934.7610
175.4482, 933.4960
175.9303, 932.1533
176.4124, 930.7434
176.8945, 929.0573
177.3766, 927.3207
177.8588, 926.0106
178.3409, 925.5964
178.8230, 926.0916
179.3051, 925.4596
179.7872, 922.2748
180.2693, 919.3631
180.7515, 917.7133
181.2336, 917.0834
181.7157, 916.7448
182.1978, 916.1503
182.6799, 915.3441
183.1620, 913.6412
183.6441, 909.7359
184.1263, 906.2706
184.6084, 904.9579
185.0905, 905.5674
185.5726, 906.4267
186.0547, 906.0314
186.5368, 904.1745
187.0190, 902.1838
187.5011, 900.1684
187.9832, 897.9772
188.4653, 895.3011
188.9474, 892.1555
189.4296, 889.1568
189.9117, 886.9130
190.3938, 885.4451
190.8759, 884.2877
191.3580, 884.1843
191.8401, 884.0185
192.3223, 882.2520
192.8044, 878.4738
193.2865, 874.3251
193.7686, 871.2520
194.2507, 869.0321
194.7328, 867.3231
195.2150, 866.8736
195.6971, 866.7236
196.1792, 864.5941
196.6613, 859.3507
197.1434, 854.2227
197.6255, 851.7060
198.1077, 851.1302
198.5898, 851.0195
199.0719, 851.0480
199.5540, 851.0238
200.0361, 850.0350
200.5182, 847.4400
201.0004, 844.6910
201.4825, 842.6395
201.9646, 841.0872
202.4467, 839.5486
202.9288, 837.7059
203.4109, 835.5715
203.8930, 833.3426
204.3752, 830.5311
204.8573, 828.1959
205.3394, 827.0742
205.8215, 826.7956
206.3036, 826.4564
206.7857, 825.3019
207.2679, 823.2900
207.7500, 821.3040
208.2321, 819.1318
208.7142, 817.1832
209.1963, 815.6675
209.6784, 814.5126
210.1606, 813.5372
210.6427, 812.6434
211.1248, 811.9058
211.6069, 810.5927
212.0890, 807.6457
212.5711, 805.1514
213.0533, 804.2996
213.5354, 804.7652
214.0175, 805.2880
214.4996, 804.6720
214.9817, 802.6765
215.4638, 801.2141
215.9460, 800.7288
216.4281, 800.2574
216.9102, 799.2635
217.3923, 797.7957
217.8744, 796.2553
218.3565, 795.0089
218.8387, 794.0984
219.3208, 793.2010
219.8029, 792.4767
220.2850, 791.6332
220.7671, 790.5782
221.2492, 789.2717
221.7314, 787.5211
222.2135, 784.9210
222.6956, 781.4437
223.1777, 779.2244
223.6598, 779.2982
224.1419, 779.8477
224.6240, 779.6505
225.1062, 778.6255
225.5883, 777.1124
226.0704, 775.2825
226.5525, 773.1473
227.0346, 770.9066
227.5167, 768.0799
227.9989, 765.4656
228.4810, 764.1292
228.9631, 764.1645
229.4452, 764.0961
229.9273, 762.7755
230.4094, 760.5082
230.8916, 758.1486
231.3737, 755.8243
231.8558, 753.4747
232.3379, 750.9238
232.8200, 748.1075
233.3021, 745.5374
233.7843, 743.6777
234.2664, 742.2523
234.7485, 740.8897
235.2306, 739.5721
235.7127, 738.2137
236.1948, 736.6498
236.6770, 734.8142
237.1591, 733.0102
237.6412, 731.4117
238.1233, 729.9210
238.6054, 728.4079
239.0875, 726.7780
239.5697, 725.1887
240.0518, 723.9281
240.5339, 723.0711
241.0160, 722.2943
241.4981, 721.8820
241.9802, 721.3176
242.4624, 719.9275
242.9445, 717.3342
243.4266, 714.2982
243.9087, 712.1312
244.3908, 711.0568
244.8729, 710.2753
245.3550, 709.7907
245.8372, 709.3615
246.3193, 708.8036
246.8014, 708.0549
247.2835, 707.1262
247.7656, 705.9609
248.2477, 704.3698
248.7299, 703.0069
249.2120, 701.8562
249.6941, 701.0178
250.1762, 700.8016
250.6583, 701.2659
251.1404, 701.8041
251.6226, 701.2508
252.1047, 698.8093
252.5868, 697.1105
253.0689, 696.6697
253.5510, 696.7438
254.0331, 697.0394
254.5153, 697.3998
254.9974, 697.5118
255.4795, 696.7643
255.9616, 694.4310
256.4437, 692.8377
256.9258, 692.6068
257.4080, 692.5724
257.8901, 691.7842
258.3722, 690.1688
258.8543, 688.5283
259.3364, 688.0440
259.8185, 689.4788
260.3007, 690.1381
260.7828, 689.5695
261.2649, 688.7517
261.7470, 688.2772
262.2291, 688.2060
262.7112, 688.2345
263.1934, 688.0060
263.6755, 687.4235
264.1576, 686.9217
264.6397, 686.1924
265.1218, 685.7711
265.6039, 686.4604
266.0861, 687.9576
266.5682, 688.9009
267.0503, 687.7703
267.5324, 684.0110
268.0145, 681.8114
268.4966, 682.0793
268.9788, 682.7308
269.4609, 683.0499
269.9430, 682.8899
270.4251, 682.1187
270.9072, 680.4684
271.3893, 677.8801
271.8715, 676.6073
272.3536, 677.8086
272.8357, 678.8914
273.3178, 678.4730
273.7999, 676.9746
274.2820, 675.7693
274.7642, 675.8748
275.2463, 677.1223
275.7284, 677.3943
276.2105, 676.1359
276.6926, 674.7599
277.1747, 673.5862
277.6568, 672.6448
278.1389, 671.9560
278.6211, 671.5349
279.1032, 671.3666
279.5853, 671.4199
280.0674, 671.8355
280.5495, 672.2593
281.0316, 672.9864
281.5138, 673.6224
281.9959, 673.3154
282.4780, 671.5961
282.9601, 669.0701
283.4422, 667.3304
283.9243, 666.6239
284.4065, 666.0686
284.8886, 665.5549
285.3707, 665.0726
285.8528, 664.6038
286.3349, 664.1409
286.8170, 663.6968
287.2992, 663.2443
287.7813, 662.6611
288.2634, 662.4658
288.7455, 663.1490
289.2276, 664.1021
289.7097, 664.5732
290.1919, 664.3859
290.6740, 663.8547
291.1561, 663.2592
291.6382, 662.5611
292.1203, 662.1578
292.6024, 662.4037
293.0846, 662.7836
293.5667, 662.7017
294.0488, 662.0904
294.5309, 661.5102
295.0130, 661.6146
295.4951, 662.3915
295.9773, 662.5116
296.4594, 661.0572
296.9415, 659.5563
297.4236, 659.5408
297.9057, 660.9128
298.3878, 661.9440
298.8700, 661.2420
299.3521, 659.0978
299.8342, 657.7449
300.3163, 657.8976
300.7984, 658.1795
301.2805, 657.7663
301.7627, 656.7692
302.2448, 655.7021
302.7269, 654.7681
303.2090, 653.9979
303.6911, 653.4262
304.1732, 653.0012
304.6554, 652.8232
305.1375, 653.3703
305.6196, 654.2347
306.1017, 654.1934
306.5838, 652.5436
307.0659, 650.2367
307.5481, 649.1709
308.0302, 649.4926
308.5123, 650.0353
308.9944, 650.7574
309.4765, 651.3934
309.9586, 651.3815
310.4408, 650.5032
310.9229, 649.2794
311.4050, 648.3093
311.8871, 647.5605
312.3692, 647.1311
312.8513, 647.2193
313.3335, 647.5517
313.8156, 647.8870
314.2977, 648.1970
314.7798, 648.3112
315.2619, 647.9974
315.7440, 647.2754
316.2262, 646.6152
316.7083, 646.1821
317.1904, 645.7309
317.6725, 644.9100
318.1546, 643.7559
318.6367, 642.8791
319.1188, 642.8025
319.6010, 643.3424
320.0831, 643.5045
320.5652, 642.9982
321.0473, 642.4195
321.5294, 641.9910
322.0115, 641.7377
322.4937, 641.8282
322.9758, 642.5050
323.4579, 643.3789
323.9400, 643.4084
324.4221, 642.2854
324.9042, 641.1722
325.3864, 640.4082
325.8685, 639.9428
326.3506, 639.8028
326.8327, 640.0963
327.3148, 640.3439
327.7969, 639.5244
328.2791, 637.3180
328.7612, 636.0313
329.2433, 637.0369
329.7254, 638.7490
330.2075, 639.2331
330.6896, 638.1561
331.1718, 636.5623
331.6539, 635.2476
332.1360, 634.2513
332.6181, 634.2786
333.1002, 636.5809
333.5823, 638.9819
334.0645, 639.6534
334.5466, 638.7168
335.0287, 637.7912
335.5108, 638.1180
335.9929, 639.4197
336.4750, 639.6597
336.9572, 637.6635
337.4393, 635.9592
337.9214, 635.9105
338.4035, 636.9721
338.8856, 637.8125
339.3677, 637.7870
339.8499, 637.2296
340.3320, 637.0745
340.8141, 637.7715
341.2962, 638.0046
341.7783, 637.3578
342.2604, 636.1692
342.7426, 634.7194
343.2247, 633.0927
343.7068, 631.6062
344.1889, 630.7161
344.6710, 630.6336
345.1531, 630.6726
345.6353, 631.1208
346.1174, 631.4938
346.5995, 631.4168
347.0816, 630.8703
347.5637, 630.0169
348.0458, 628.9346
348.5280, 627.5958
349.0101, 626.7250
349.4922, 626.7090
349.9743, 626.6904
350.4564, 626.3688
350.9385, 625.7630
351.4207, 624.8937
351.9028, 623.7252
352.3849, 622.4191
352.8670, 621.6783
353.3491, 622.2662
353.8312, 622.4747
354.3134, 621.7044
354.7955, 620.6055
355.2776, 620.0724
355.7597, 620.3944
356.2418, 620.9338
356.7239, 620.5745
357.2061, 618.6534
357.6882, 617.1461
358.1703, 616.0069
358.6524, 615.2616
359.1345, 615.2558
359.6166, 615.8094
360.0987, 616.0961
360.5808, 615.1995
361.0630, 612.9107
361.5451, 611.4560
362.0272, 611.6013
362.5093, 611.7265
362.9914, 611.1152
363.4735, 610.0988
363.9557, 609.4138
364.4378, 609.5324
364.9199, 610.2433
365.4020, 610.6508
365.8841, 610.6713
366.3662, 610.4661
366.8484, 609.7539
367.3305, 608.9940
367.8126, 608.7657
368.2947, 609.2156
368.7768, 609.8053
369.2589, 609.6057
369.7411, 608.1707
370.2232, 607.1647
370.7053, 606.8070
371.1874, 606.7177
371.6695, 606.7894
372.1516, 606.9633
372.6338, 607.1624
373.1159, 607.3835
373.5980, 607.6144
374.0801, 607.4330
374.5622, 606.3083
375.0443, 605.4194
375.5265, 605.3613
376.0086, 605.7302
376.4907, 605.9047
376.9728, 605.5743
377.4549, 604.9005
377.9370, 604.2066
378.4192, 603.4554
378.9013, 602.7940
379.3834, 602.0413
379.8655, 601.5255
380.3476, 601.6809
380.8297, 602.5822
381.3119, 603.5413
381.7940, 603.7952
382.2761, 603.3620
382.7582, 603.0823
383.2403, 603.3586
383.7224, 603.4387
384.2046, 602.6098
384.6867, 601.1307
385.1688, 599.9200
385.6509, 599.6960
386.1330, 600.0513
386.6151, 599.9397
387.0973, 599.1438
387.5794, 598.6642
388.0615, 599.5673
388.5436, 601.0115
389.0257, 601.7474
389.5078, 601.2522
389.9900, 600.5226
390.4721, 600.5029
390.9542, 601.0928
391.4363, 601.5383
391.9184, 601.6290
392.4005, 601.4111
392.8827, 600.9788
393.3648, 600.3488
393.8469, 599.4870
394.3290, 598.1238
394.8111, 596.6083
395.2932, 595.5237
395.7754, 594.9633
396.2575, 594.6584
396.7396, 594.3944
397.2217, 594.1913
397.7038, 594.1380
398.1859, 594.5382
398.6681, 594.8295
399.1501, 594.4555
399.6323, 593.6113
400.1144, 593.0498
400.5965, 593.2020
401.0786, 593.7879
401.5607, 593.9904
402.0428, 593.6155
402.5250, 593.2592
403.0071, 592.9796
403.4892, 592.7872
403.9713, 592.8484
404.4534, 593.1586
404.9355, 593.2352
405.4177, 592.4067
405.8998, 590.3443
406.3819, 589.0904
406.8640, 589.3640
407.3461, 589.6592
407.8282, 589.0488
408.3104, 587.8337
408.7925, 586.9842
409.2746, 587.1699
409.7567, 588.0248
410.2388, 587.8366
410.7209, 585.1829
411.2031, 583.3120
411.6852, 582.7606
412.1673, 582.9420
412.6494, 583.5657
413.1315, 584.4406
413.6136, 585.0538
414.0958, 584.5589
414.5779, 582.5201
415.0600, 581.1205
415.5421, 581.0265
416.0242, 580.9775
416.5063, 580.3293
416.9885, 579.3248
417.4706, 578.6606
417.9527, 578.8806
418.4348, 579.6703
418.9169, 579.9438
419.3990, 579.5535
419.8812, 578.9583
420.3633, 578.1511
420.8454, 577.2994
421.3275, 576.6101
421.8096, 576.1400
422.2917, 575.6178
422.7739, 574.6521
423.2560, 573.2750
423.7381, 572.2042
424.2202, 571.7646
424.7023, 571.3458
425.1844, 570.3785
425.6666, 569.0126
426.1487, 567.7934
426.6308, 567.0846
427.1129, 566.5895
427.5950, 565.7766
428.0771, 564.6064
428.5593, 563.7261
429.0414, 563.6882
429.5235, 564.0690
430.0056, 563.9072
430.4877, 563.0200
430.9698, 562.0098
431.4520, 561.3465
431.9341, 560.7520
432.4162, 559.4598
432.8983, 557.1877
433.3804, 554.9349
433.8625, 554.0403
434.3447, 554.7658
434.8268, 554.6693
435.3089, 552.9756
435.7910, 551.0268
436.2731, 549.6496
436.7552, 548.7930
437.2374, 548.0891
437.7195, 547.3342
438.2016, 546.5525
438.6837, 545.8536
439.1658, 545.1100
439.6479, 544.6189
440.1301, 544.8188
440.6122, 545.0477
441.0943, 544.6555
441.5764, 543.5338
442.0585, 542.0018
442.5406, 540.3063
443.0227, 538.2938
443.5049, 537.2311
443.9870, 538.3781
444.4691, 539.1839
444.9512, 538.6796
445.4333, 537.3409
445.9154, 535.9901
446.3976, 535.0485
446.8797, 534.3499
447.3618, 533.4841
447.8439, 532.2985
448.3260, 531.4010
448.8081, 531.0873
449.2903, 530.9588
449.7724, 530.8250
450.2545, 530.6509
450.7366, 530.4241
451.2187, 530.1545
451.7008, 529.8263
452.1830, 529.4005
452.6651, 528.9172
453.1472, 528.2331
453.6293, 526.8499
454.1114, 525.3083
454.5935, 524.4693
455.0757, 524.7496
455.5578, 525.3085
456.0399, 525.5574
456.5220, 525.5169
457.0041, 525.2404
457.4862, 524.6695
457.9684, 524.0222
458.4505, 523.6391
458.9326, 523.5249
459.4147, 523.2342
459.8968, 522.3578
460.3789, 521.5169
460.8611, 521.4290
461.3432, 521.9778
461.8253, 522.3378
462.3074, 521.9498
462.7895, 521.0430
463.2716, 520.5615
463.7538, 521.3179
464.2359, 521.4130
464.7180, 519.8774
465.2001, 517.9849
465.6822, 517.1590
466.1643, 517.6030
466.6465, 518.3898
467.1286, 518.4767
467.6107, 517.7535
468.0928, 517.3774
468.5749, 517.7272
469.0570, 518.0177
469.5392, 517.9628
470.0213, 517.7341
470.5034, 517.5698
470.9855, 517.5698
471.4676, 517.7475
471.9497, 518.3209
472.4319, 519.5759
472.9140, 519.9573
473.3961, 518.1713
473.8782, 516.3578
474.3603, 515.9156
474.8424, 516.6119
475.3246, 517.2068
475.8067, 516.7957
476.2888, 515.8533
476.7709, 515.4315
477.2530, 515.5978
477.7351, 515.8925
478.2173, 516.2646
478.6994, 516.5454
479.1815, 516.4134
479.6636, 515.6994
480.1457, 515.1464
480.6278, 515.3278
481.1100, 515.8685
481.5920, 515.9533
482.0742, 515.4113
482.5563, 515.0411
483.0384, 515.6663
483.5205, 517.2674
484.0026, 518.3653
484.4847, 518.7963
484.9669, 518.9338
485.4490, 518.7445
485.9311, 518.4028
486.4132, 518.1752
486.8953, 518.1608
487.3774, 518.3256
487.8596, 518.6436
488.3417, 519.2701
488.8238, 519.6183
489.3059, 519.6136
489.7880, 519.4554
490.2701, 519.1050
490.7523, 518.6853
491.2344, 518.4541
491.7165, 518.5988
492.1986, 518.9468
492.6807, 518.9520
493.1628, 518.3624
493.6450, 518.1318
494.1271, 518.8194
494.6092, 519.6780
495.0913, 520.2914
495.5734, 520.6082
496.0555, 520.6910
496.5377, 520.3260
497.0198, 519.7776
497.5019, 519.8529
497.9840, 520.6837
498.4661, 521.6020
498.9482, 522.3920
499.4304, 522.9751
499.9125, 523.1677
500.3946, 522.7469
500.8767, 522.4650
501.3588, 522.6682
501.8409, 523.2682
502.3231, 524.2379
502.8052, 525.5773
503.2873, 526.8800
503.7694, 527.8196
504.2515, 528.3876
504.7336, 528.3762
505.2158, 527.0225
505.6979, 526.0083
506.1800, 526.1162
506.6621, 526.8917
507.1442, 527.6548
507.6263, 528.1546
508.1085, 528.5417
508.5906, 529.0682
509.0727, 529.8360
509.5548, 530.3680
510.0369, 530.4795
510.5190, 530.5332
511.0012, 530.7360
511.4833, 530.9705
511.9654, 530.9091
512.4475, 530.2869
512.9296, 529.6315
513.4117, 530.1115
513.8939, 531.9460
514.3760, 533.2405
514.8581, 533.4186
515.3402, 533.0684
515.8223, 532.5847
516.3044, 532.0062
516.7866, 531.5270
517.2687, 531.2645
517.7508, 531.1244
518.2329, 531.0495
518.7150, 531.0235
519.1971, 530.8460
519.6793, 530.3810
520.1614, 529.7562
520.6435, 529.2910
521.1256, 529.0809
521.6077, 528.7133
522.0898, 528.0984
522.5720, 527.3132
523.0541, 526.2335
523.5362, 524.9904
524.0183, 524.1334
524.5004, 524.1446
524.9825, 524.7620
525.4647, 524.5984
525.9468, 522.9886
526.4289, 521.5168
526.9110, 520.2185
527.3931, 519.1711
527.8752, 518.6230
528.3574, 518.4835
528.8395, 518.2088
529.3216, 517.2499
529.8037, 515.7316
530.2858, 514.4765
530.7679, 513.7753
531.2501, 512.6671
531.7322, 510.0243
532.2143, 507.1051
532.6964, 505.3595
533.1785, 505.1689
533.6606, 504.9860
534.1428, 503.7895
534.6249, 501.8782
535.1070, 499.6774
535.5891, 497.1874
536.0712, 495.1538
536.5533, 494.3568
537.0355, 494.5303
537.5176, 493.9839
537.9997, 491.9385
538.4818, 490.1919
538.9639, 489.7039
539.4460, 489.5807
539.9282, 488.6844
540.4103, 486.8012
540.8924, 484.4557
541.3745, 482.1548
541.8566, 479.8933
542.3387, 477.8406
542.8209, 476.0826
543.3029, 474.4632
543.7850, 472.9949
544.2672, 471.6324
544.7493, 470.4400
545.2314, 469.4089
545.7135, 468.1941
546.1956, 466.3000
546.6777, 463.7918
547.1599, 461.4686
547.6420, 459.2363
548.1241, 457.4863
548.6062, 457.0230
549.0883, 457.0929
549.5704, 456.3989
550.0526, 454.4005
550.5347, 452.3244
551.0168, 450.8098
551.4989, 449.7887
551.9810, 449.3079
552.4631, 449.3958
552.9453, 449.3252
553.4274, 448.3907
553.9095, 446.5806
554.3916, 444.7435
554.8737, 442.6130
555.3558, 440.7722
555.8380, 439.5551
556.3201, 438.6245
556.8022, 437.5233
557.2843, 436.1563
557.7664, 434.8889
558.2485, 434.2368
558.7307, 434.2430
559.2128, 433.7122
559.6949, 432.1801
560.1770, 430.7773
560.6591, 429.8988
561.1412, 429.3365
561.6234, 428.8893
562.1055, 428.5270
562.5876, 428.0803
563.0697, 427.2977
563.5518, 426.3048
564.0339, 425.5312
564.5161, 425.0407
564.9982, 424.6826
565.4803, 424.3764
565.9624, 424.1182
566.4445, 423.8740
566.9266, 423.6025
567.4088, 423.4023
567.8909, 423.4810
568.3730, 423.5670
568.8551, 423.2241
569.3372, 422.4293
569.8193, 421.5936
570.3015, 421.0885
570.7836, 420.9064
571.2657, 420.9542
571.7478, 421.5673
572.2299, 421.9550
572.7120, 421.8040
573.1942, 421.5036
573.6763, 421.4243
574.1584, 421.6158
574.6405, 421.8617
575.1226, 422.0674
575.6047, 422.1821
576.0869, 421.8989
576.5690, 421.0832
577.0511, 420.4405
577.5332, 420.4392
578.0153, 420.7385
578.4974, 420.7189
578.9796, 420.2470
579.4617, 420.0194
579.9438, 420.7596
580.4259, 421.6098
580.9080, 421.3332
581.3901, 420.0382
581.8723, 419.0083
582.3544, 419.0954
582.8365, 419.9668
583.3186, 420.4885
583.8007, 420.4317
584.2828, 420.3622
584.7650, 420.3382
585.2471, 420.2693
585.7292, 419.9030
586.2113, 419.4199
586.6934, 419.3833
587.1755, 420.2576
587.6577, 421.5848
588.1398, 422.2991
588.6219, 422.3293
589.1040, 422.1874
589.5861, 421.6733
590.0682, 421.3912
590.5504, 422.1096
591.0325, 423.6463
591.5146, 424.8089
591.9967, 424.8776
592.4788, 424.7279
592.9609, 425.1460
593.4431, 425.9608
593.9252, 426.6961
594.4073, 427.1945
594.8894, 427.3640
595.3715, 426.9700
595.8536, 425.7028
596.3358, 425.3088
596.8179, 426.2827
597.3000, 427.4436
597.7821, 428.6451
598.2642, 429.6788
598.7463, 430.1787
599.2285, 430.0446
599.7106, 429.8465
600.1927, 430.3482
600.6748, 431.5217
601.1569, 432.6089
601.6390, 433.7227
602.1212, 434.4274
602.6033, 433.8934
603.0854, 432.9612
603.5675, 433.1077
604.0496, 435.0222
604.5317, 436.4740
605.0139, 435.7796
605.4960, 434.1810
605.9781, 433.4514
606.4602, 433.7885
606.9423, 434.6001
607.4244, 435.5194
607.9066, 436.5104
608.3887, 437.4118
608.8708, 438.0219
609.3529, 438.8393
609.8350, 440.3286
610.3171, 441.6661
610.7993, 442.1544
611.2814, 441.9300
611.7635, 441.5999
612.2456, 441.4576
612.7277, 441.5915
613.2098, 442.3802
613.6920, 443.9212
614.1741, 444.9240
614.6562, 444.6972
615.1383, 444.3311
615.6204, 445.2001
616.1025, 447.0440
616.5847, 448.2307
617.0668, 447.9893
617.5489, 447.4292
618.0310, 447.1193
618.5131, 447.0296
618.9952, 447.0619
619.4774, 447.1884
619.9595, 447.4615
620.4416, 447.9370
620.9237, 448.6161
621.4058, 449.5308
621.8879, 451.2827
622.3701, 452.5189
622.8522, 452.6691
623.3343, 452.3422
623.8164, 452.0623
624.2985, 451.9642
624.7806, 452.0830
625.2628, 452.4784
625.7448, 453.1078
626.2269, 453.9658
626.7090, 455.0934
627.1912, 455.9188
627.6733, 456.0273
628.1554, 455.8341
628.6375, 456.2544
629.1196, 457.5151
629.6017, 458.2169
630.0839, 457.5941
630.5660, 456.8482
631.0481, 456.7890
631.5302, 457.2905
632.0123, 457.9522
632.4944, 458.5883
632.9766, 459.1618
633.4587, 459.5316
633.9408, 459.5809
634.4229, 460.0759
634.9050, 461.5877
635.3871, 462.7974
635.8693, 462.7921
636.3514, 462.2618
636.8335, 462.2661
637.3156, 463.1045
637.7977, 464.2617
638.2798, 465.7696
638.7620, 467.2183
639.2441, 467.7191
639.7262, 467.1949
640.2083, 466.3980
640.6904, 465.7566
641.1725, 465.2706
641.6547, 464.9327
642.1368, 464.5016
642.6189, 464.6138
643.1010, 465.6982
643.5831, 466.9369
644.0652, 467.8442
644.5474, 468.4654
645.0295, 469.1047
645.5116, 469.9547
645.9937, 470.7198
646.4758, 470.7276
646.9579, 469.9886
647.4401, 469.8553
647.9222, 470.8643
648.4043, 471.7886
648.8864, 471.3978
649.3685, 470.1689
649.8506, 469.6072
650.3328, 470.1052
650.8149, 470.8543
651.2970, 471.8875
651.7791, 472.8144
652.2612, 473.0616
652.7433, 472.6442
653.2255, 472.0625
653.7076, 471.6706
654.1897, 471.4334
654.6718, 471.1828
655.1539, 470.7497
655.6360, 470.7103
656.1182, 471.6209
656.6003, 472.5334
657.0824, 472.7457
657.5645, 472.5068
658.0466, 472.6954
658.5287, 474.0499
659.0109, 475.2938
659.4930, 474.6957
659.9751, 473.0340
660.4572, 472.7544
660.9393, 474.4222
661.4214, 476.1566
661.9036, 476.2161
662.3857, 474.8075
662.8678, 474.1626
663.3499, 475.0123
663.8320, 475.6805
664.3141, 475.9215
664.7963, 476.0181
665.2784, 476.0651
665.7605, 476.1691
666.2426, 476.6037
666.7247, 477.6928
667.2068, 478.9540
667.6890, 479.4529
668.1711, 479.2118
668.6532, 478.9605
669.1353, 478.8364
669.6174, 478.8006
670.0995, 478.8873
670.5817, 479.0604
671.0638, 479.0078
671.5459, 478.1182
672.0280, 477.7438
672.5101, 478.8874
672.9922, 480.4200
673.4744, 481.0729
673.9565, 480.7547
674.4386, 480.1498
674.9207, 479.6916
675.4028, 479.4798
675.8849, 479.9740
676.3671, 481.4151
676.8492, 482.4592
677.3313, 482.4517
677.8134, 482.4240
678.2955, 483.4526
678.7776, 485.1805
679.2598, 486.2938
679.7419, 486.0176
680.2240, 485.6711
680.7061, 486.1734
681.1882, 487.0533
681.6703, 487.4697
682.1525, 487.3383
682.6346, 487.3039
683.1167, 487.8976
683.5988, 489.0258
684.0809, 490.2836
684.5630, 491.9198
685.0452, 493.1360
685.5273, 493.2563
686.0094, 493.4205
686.4915, 494.3450
686.9736, 495.8644
687.4557, 497.4100
687.9379, 498.7720
688.4200, 500.0750
688.9021, 501.2701
689.3842, 502.5065
689.8663, 504.1983
690.3484, 506.4201
690.8306, 508.7912
691.3127, 511.0899
691.7948, 513.2534
692.2769, 515.0040
692.7590, 516.2127
693.2411, 517.1985
693.7233, 517.7318
694.2054, 518.2913
694.6875, 519.0455
695.1696, 520.0827
695.6517, 521.5810
696.1339, 523.7216
696.6160, 526.0320
697.0981, 527.9156
697.5802, 529.5266
698.0623, 531.4694
698.5444, 533.8338
699.0266, 536.3295
699.5087, 538.7626
699.9908, 541.1571
700.4729, 543.5730
700.9550, 545.7036
701.4371, 548.3187
701.9193, 551.9586
702.4014, 555.5888
702.8835, 558.5576
703.3656, 561.0141
703.8477, 563.3327
704.3298, 565.6187
704.8120, 568.1710
705.2941, 571.5242
705.7762, 575.4810
706.2583, 579.0634
706.7404, 582.1282
707.2225, 585.1407
707.7046, 588.3640
708.1867, 591.7413
708.6688, 595.1158
709.1509, 598.3350
709.6331, 601.9338
710.1152, 606.6422
710.5973, 611.0822
711.0794, 614.2304
711.5615, 616.5677
712.0436, 618.8293
712.5258, 621.3199
713.0079, 624.3587
713.4900, 628.7721
713.9721, 634.1829
714.4542, 638.5336
714.9363, 641.6341
715.4185, 644.3151
715.9006, 646.6119
716.3827, 648.9996
716.8648, 652.4734
717.3469, 657.2516
717.8290, 661.6237
718.3112, 665.4744
718.7933, 668.8458
719.2754, 671.5687
719.7575, 673.9004
720.2396, 676.0898
720.7217, 678.2516
721.2039, 680.6251
721.6860, 683.4929
722.1681, 686.7568
722.6502, 690.1810
723.1323, 693.9006
723.6144, 696.7356
724.0966, 697.8788
724.5787, 698.6337
725.0608, 700.7185
725.5429, 704.1113
726.0250, 706.6317
726.5071, 707.4467
726.9893, 708.2590
727.4714, 709.5687
727.9535, 711.2728
728.4356, 713.4743
728.9177, 715.9939
729.3998, 718.1945
729.8820, 719.6594
730.3641, 720.4069
730.8462, 720.2239
731.3283, 719.0605
731.8104, 718.3859
732.2925, 718.5918
732.7747, 719.0905
733.2568, 719.6381
733.7389, 720.0873
734.2210, 719.7957
734.7031, 718.4272
735.1852, 716.8393
735.6674, 714.9053
736.1495, 713.0440
736.6316, 711.6095
737.1137, 710.5464
737.5958, 709.8101
738.0779, 709.4528
738.5601, 708.6034
739.0422, 705.4379
739.5243, 700.2955
740.0064, 696.4674
740.4885, 694.4047
740.9706, 692.9094
741.4528, 691.6987
741.9349, 690.3848
742.4170, 687.9724
742.8991, 684.0934
743.3812, 680.5113
743.8633, 677.3515
744.3455, 674.5441
744.8276, 672.6564
745.3097, 670.8693
745.7918, 667.7709
746.2739, 663.0733
746.7560, 658.0737
747.2382, 653.9995
747.7203, 650.6262
748.2024, 647.3996
748.6845, 644.3231
749.1666, 640.9935
749.6487, 637.1944
750.1309, 633.2946
750.6130, 629.6680
751.0951, 626.3397
751.5772, 623.0993
752.0593, 620.0438
752.5414, 616.9354
753.0236, 613.5038
753.5057, 610.1263
753.9878, 607.4540
754.4699, 605.2277
754.9520, 602.2335
755.4341, 597.4581
755.9163, 592.2375
756.3984, 588.4783
756.8805, 585.9156
757.3626, 583.5973
757.8447, 581.3936
758.3268, 578.9785
758.8090, 576.1228
759.2911, 572.8832
759.7732, 569.3899
760.2553, 565.0029
760.7374, 561.5566
761.2195, 560.0320
761.7017, 558.3800
762.1838, 555.5289
762.6659, 551.9632
763.1480, 548.4278
763.6301, 545.1287
764.1122, 542.0687
764.5944, 539.2628
765.0765, 536.6896
765.5586, 534.4954
766.0407, 532.5490
766.5228, 530.1102
767.0049, 526.8320
767.4871, 523.6126
767.9692, 521.7929
768.4513, 521.4487
768.9334, 520.0269
769.4155, 516.6855
769.8976, 513.6080
770.3798, 511.5921
770.8619, 509.7415
771.3440, 507.3335
771.8261, 504.4424
772.3082, 501.6577
772.7903, 499.2021
773.2725, 496.8925
773.7546, 494.7057
774.2367, 492.5534
774.7188, 490.2530
775.2009, 487.8177
775.6830, 485.4995
776.1652, 483.4824
776.6473, 481.5465
777.1294, 479.0580
777.6115, 475.8490
778.0936, 473.2875
778.5757, 472.0101
779.0579, 470.3626
779.5400, 467.1333
780.0221, 463.1066
780.5042, 459.5600
780.9863, 456.5013
781.4684, 453.9200
781.9506, 452.2939
782.4327, 450.6625
782.9148, 448.4604
783.3969, 445.7934
783.8790, 442.6970
784.3611, 439.2914
784.8433, 436.2320
785.3254, 434.3243
785.8075, 433.0953
786.2896, 431.0459
786.7717, 428.1683
787.2538, 425.5323
787.7360, 423.4608
788.2181, 421.5185
788.7002, 419.2640
789.1823, 416.7733
789.6644, 414.7705
790.1465, 414.3527
790.6286, 412.8137
791.1107, 409.0211
791.5928, 404.9133
792.0750, 401.6750
792.5571, 399.1158
793.0392, 396.5959
793.5213, 393.9052
794.0034, 391.1427
794.4855, 388.0998
794.9677, 385.1625
795.4498, 383.3307
795.9319, 382.4581
796.4140, 381.3495
796.8961, 379.5045
797.3782, 377.2072
797.8604, 374.8036
798.3425, 372.2680
798.8246, 369.9196
799.3067, 367.8856
799.7888, 365.7890
800.2709, 363.2656
800.7531, 360.8670
801.2352, 359.2183
801.7173, 358.1377
802.1994, 356.7313
802.6815, 354.5841
803.1636, 352.3342
803.6458, 350.2655
804.1279, 348.3255
804.6100, 346.3824
805.0921, 344.5056
805.5742, 343.0227
806.0563, 342.1558
806.5385, 341.3414
807.0206, 339.5096
807.5027, 336.7627
807.9848, 334.6518
808.4669, 333.3809
808.9490, 331.9187
809.4312, 329.5912
809.9133, 327.1522
810.3954, 325.8716
810.8775, 326.0310
811.3596, 325.4921
811.8417, 323.9671
812.3239, 322.1308
812.8060, 319.6840
813.2881, 317.3578
813.7702, 316.0218
814.2523, 315.5313
814.7344, 314.9390
815.2166, 313.6824
815.6987, 312.3427
816.1808, 311.7658
816.6629, 311.5130
817.1450, 310.4508
817.6271, 308.5475
818.1093, 306.7861
818.5914, 305.7343
819.0735, 305.0933
819.5556, 304.2822
820.0377, 303.2467
820.5198, 302.3740
821.0020, 301.7567
821.4841, 301.1072
821.9662, 300.2920
822.4483, 299.4104
822.9304, 298.4830
823.4125, 297.5248
823.8947, 296.9269
824.3768, 297.4724
824.8589, 297.5553
825.3410, 295.6965
825.8231, 293.5210
826.3052, 293.2494
826.7874, 294.5585
827.2695, 295.2605
827.7516, 294.0688
828.2337, 292.0478
828.7158, 290.4732
829.1979, 289.3474
829.6801, 288.8260
830.1622, 288.9276
830.6443, 288.9471
831.1264, 288.5562
831.6085, 287.8299
832.0906, 286.8407
832.5728, 285.5291
833.0549, 284.4035
833.5370, 283.3887
834.0191, 282.6883
834.5012, 282.5409
834.9833, 282.5538
835.4655, 282.4858
835.9476, 282.2982
836.4297, 281.9131
836.9118, 281.1774
837.3939, 280.4513
837.8760, 279.9296
838.3582, 279.5231
838.8403, 279.1978
839.3224, 278.8909
839.8045, 278.3865
840.2866, 277.5811
840.7687, 276.8499
841.2509, 276.8860
841.7330, 277.5015
842.2151, 277.6173
842.6972, 277.2066
843.1793, 276.3451
843.6614, 274.8535
844.1436, 273.5276
844.6257, 273.4210
845.1078, 274.4916
845.5899, 274.9950
846.0720, 274.6570
846.5541, 274.1258
847.0363, 273.1590
847.5184, 272.2999
848.0005, 271.9777
848.4826, 272.0056
848.9647, 271.9197
849.4468, 271.5693
849.9290, 271.2531
850.4111, 271.1340
850.8932, 271.1275
851.3753, 271.3590
851.8574, 271.5944
852.3395, 271.2171
852.8217, 270.1024
853.3038, 268.8771
853.7859, 268.1451
854.2680, 267.7991
854.7501, 267.5303
855.2322, 267.3389
855.7144, 267.2751
856.1965, 267.3954
856.6786, 267.4343
857.1607, 267.1618
857.6428, 266.6795
858.1249, 266.3088
858.6071, 266.0588
859.0892, 265.9022
859.5713, 266.0554
860.0534, 266.0439
860.5355, 265.3991
861.0176, 264.6668
861.4998, 264.6531
861.9819, 265.3932
862.4640, 265.8461
862.9461, 265.3985
863.4282, 264.7395
863.9103, 264.2670
864.3925, 263.9164
864.8746, 263.6591
865.3567, 263.4377
865.8388, 263.0399
866.3209, 262.3059
866.8030, 261.6232
867.2852, 261.8571
867.7673, 262.7347
868.2494, 262.6215
868.7315, 261.3897
869.2136, 260.4011
869.6957, 260.2758
870.1779, 260.4283
870.6600, 260.0710
871.1421, 259.1983
871.6242, 258.4474
872.1063, 257.7131
872.5884, 257.2855
873.0705, 257.3750
873.5526, 257.6405
874.0347, 257.9867
874.5168, 258.3392
874.9990, 258.5010
875.4811, 258.3149
875.9632, 258.3215
876.4453, 259.1531
876.9274, 259.8174
877.4095, 259.3831
877.8917, 258.3337
878.3738, 257.5090
878.8559, 257.1158
879.3380, 256.8690
879.8201, 256.5584
880.3022, 256.2554
880.7844, 256.0641
881.2665, 255.9803
881.7486, 256.0670
882.2307, 256.3124
882.7128, 256.3053
883.1949, 255.7202
883.6771, 255.0102
884.1592, 255.3052
884.6413, 256.8803
885.1234, 257.2721
885.6055, 255.9132
886.0876, 254.7765
886.5698, 254.7033
887.0519, 254.9776
887.5340, 254.7555
888.0161, 254.0819
888.4982, 253.6645
888.9803, 253.5668
889.4625, 253.6636
889.9446, 254.2492
890.4267, 254.7271
890.9088, 254.7012
891.3909, 254.2529
891.8730, 253.4958
892.3552, 252.4359
892.8373, 251.6054
893.3194, 251.5064
893.8015, 251.6704
894.2836, 251.6369
894.7657, 251.4674
895.2479, 251.3231
895.7300, 251.2365
896.2121, 251.1681
896.6942, 251.1176
897.1763, 250.9655
897.6584, 250.2057
898.1406, 248.9780
898.6227, 248.8990
899.1048, 250.2243
899.5869, 251.2759
900.0690, 251.1930
900.5511, 250.6509
901.0333, 250.7189
901.5154, 251.4549
901.9975, 251.4165
902.4796, 249.8608
902.9617, 248.9157
903.4438, 249.4411
903.9260, 250.2457
904.4081, 250.6889
904.8902, 250.7698
905.3723, 250.4022
905.8544, 249.2692
906.3365, 248.5765
906.8187, 248.9759
907.3008, 249.5186
907.7829, 249.8281
908.2650, 249.8264
908.7471, 249.2465
909.2292, 248.2014
909.7114, 247.5095
910.1935, 247.8166
910.6756, 248.4202
911.1577, 248.6049
911.6398, 248.5747
912.1219, 248.8301
912.6041, 249.2915
913.0862, 249.2854
913.5683, 248.4927
914.0504, 247.5414
914.5325, 247.3182
915.0146, 247.6868
915.4968, 247.8553
915.9789, 247.8214
916.4610, 247.6604
916.9431, 247.3295
917.4252, 247.2000
917.9073, 247.6867
918.3895, 248.5233
918.8716, 248.6895
919.3537, 247.7584
919.8358, 247.2607
920.3179, 247.5902
920.8000, 247.7876
921.2822, 247.3251
921.7643, 246.6338
922.2464, 246.0749
922.7285, 245.6688
923.2106, 245.6504
923.6927, 246.5874
924.1749, 247.1886
924.6570, 246.7101
925.1391, 246.1028
925.6212, 246.2207
926.1033, 246.7785
926.5854, 247.0093
927.0676, 246.6789
927.5497, 246.4527
928.0318, 247.0047
928.5139, 247.6659
928.9960, 247.6677
929.4781, 247.3034
929.9603, 247.2041
930.4424, 247.4253
930.9245, 247.5372
931.4066, 247.2448
931.8887, 246.8296
932.3708, 246.7671
932.8530, 246.9673
933.3351, 247.0045
933.8172, 246.8750
934.2993, 246.9559
934.7814, 247.3930
935.2635, 248.0248
935.7457, 248.7388
936.2278, 249.4531
936.7099, 249.6202
937.1920, 249.0689
937.6741, 248.7123
938.1563, 248.6809
938.6384, 248.8028
939.1205, 249.0964
939.6026, 249.3959
940.0847, 249.3916
940.5668, 249.0335
941.0490, 248.6698
941.5311, 247.9316
942.0132, 247.6922
942.4953, 248.5570
942.9774, 249.5799
943.4595, 250.0423
943.9417, 250.1090
944.4238, 250.3010
944.9059, 250.7755
945.3880, 251.1638
945.8701, 251.3298
946.3522, 251.3769
946.8344, 251.1664
947.3165, 250.9939
947.7986, 251.4562
948.2807, 252.4325
948.7628, 252.9435
949.2449, 252.2578
949.7271, 251.4711
950.2092, 251.7558
950.6913, 252.5424
951.1734, 253.0582
951.6555, 253.2473
952.1376, 253.1529
952.6198, 252.8135
953.1019, 252.4191
953.5840, 252.0786
954.0661, 251.9025
954.5482, 252.3533
955.0303, 253.2835
955.5124, 253.5633
955.9945, 253.0387
956.4766, 252.8186
956.9587, 253.5395
957.4409, 254.6619
957.9230, 255.3522
958.4051, 255.6177
958.8872, 255.6776
959.3693, 255.5657
959.8514, 254.9947
960.3336, 253.5529
960.8157, 252.4700
961.2978, 252.8743
961.7799, 254.2036
962.2620, 254.8785
962.7441, 254.7161
963.2263, 254.4584
963.7084, 253.8049
964.1905, 253.4714
964.6726, 253.9281
965.1547, 254.5448
965.6368, 254.9216
966.1190, 255.0045
966.6011, 254.6045
967.0832, 253.3634
967.5653, 252.3220
968.0474, 251.7307
968.5295, 251.3642
969.0117, 251.4278
969.4938, 251.4516
969.9759, 250.6425
970.4580, 249.0569
970.9401, 247.8387
971.4222, 247.7951
971.9044, 247.7536
972.3865, 246.8273
972.8686, 245.6454
973.3507, 244.8396
973.8328, 244.3609
974.3149, 243.9491
974.7971, 243.5267
975.2792, 243.1987
975.7613, 243.1748
976.2434, 243.1523
976.7255, 242.5967
977.2076, 241.7752
977.6898, 241.4282
978.1719, 241.4662
978.6540, 240.8934
979.1361, 239.2373
979.6182, 237.5372
980.1003, 237.2621
980.5825, 237.9158
981.0646, 237.8598
981.5467, 237.1605
982.0288, 236.2528
982.5109, 235.2280
982.9930, 234.4373
983.4752, 234.1418
983.9573, 234.0850
984.4394, 233.7984
984.9215, 233.2823
985.4036, 232.5913
985.8857, 231.6559
986.3679, 230.9553
986.8500, 230.6031
987.3321, 230.5783
987.8142, 230.9920
988.2963, 231.6009
988.7784, 231.5967
989.2606, 230.7368
989.7427, 230.1189
990.2248, 229.8021
990.7069, 229.6189
991.1890, 229.6013
991.6711, 229.6049
992.1533, 229.5443
992.6354, 229.3962
993.1175, 229.0068
993.5996, 228.0515
994.0817, 227.4434
994.5638, 227.3076
995.0460, 227.3845
995.5281, 227.8051
996.0102, 228.2306
996.4923, 228.3152
996.9744, 228.0609
997.4565, 227.6261
997.9387, 226.8434
998.4208, 226.2119
998.9029, 225.8118
999.3850, 225.6494
999.8671, 225.8451
1000.349, 226.2245
1000.831, 226.6485
1001.313, 227.0475
1001.796, 227.1326
1002.278, 226.6046
1002.760, 226.0079
1003.242, 225.6822
1003.724, 225.3857
1004.206, 224.6993
1004.688, 223.9260
1005.170, 223.7905
1005.653, 224.3931
1006.135, 224.8638
1006.617, 224.5030
1007.099, 223.9868
1007.581, 224.0664
1008.063, 224.3172
1008.545, 223.9858
1009.027, 223.2769
1009.509, 223.0494
1009.992, 223.5582
1010.474, 224.0009
1010.956, 223.5468
1011.438, 222.7583
1011.920, 222.4582
1012.402, 222.4960
1012.884, 222.5790
1013.366, 222.6425
1013.849, 222.5806
1014.331, 222.3534
1014.813, 222.2140
1015.295, 222.5663
1015.777, 223.1215
1016.259, 223.1217
1016.741, 222.6592
1017.223, 222.0331
1017.705, 221.3410
1018.188, 221.0987
1018.670, 221.5948
1019.152, 222.2539
1019.634, 222.2577
1020.116, 221.7462
1020.598, 221.3838
1021.080, 221.1679
1021.562, 220.9697
1022.044, 220.7579
1022.527, 220.8022
1023.009, 221.3189
1023.491, 221.8668
1023.973, 221.6498
1024.455, 220.7385
1024.937, 220.3806
1025.419, 220.6633
1025.901, 220.7368
1026.384, 220.3766
1026.866, 220.1284
1027.348, 220.3892
1027.830, 220.8445
1028.312, 220.9006
1028.794, 220.5409
1029.276, 220.2175
1029.758, 219.9509
1030.240, 219.6384
1030.723, 219.2249
1031.205, 218.8355
1031.687, 218.5039
1032.169, 218.3053
1032.651, 218.4261
1033.133, 218.9202
1033.615, 219.2699
1034.097, 219.4489
1034.579, 219.5270
1035.062, 219.4459
1035.544, 219.3766
1036.026, 219.5222
1036.508, 219.6988
1036.990, 219.4591
1037.472, 218.6593
1037.954, 218.2538
1038.436, 218.5988
1038.919, 218.7673
1039.401, 218.4663
1039.883, 218.0934
1040.365, 217.8301
1040.847, 217.6980
1041.329, 217.8054
1041.811, 218.2576
1042.293, 218.4019
1042.776, 218.0575
1043.258, 217.6470
1043.740, 216.9898
1044.222, 216.5489
1044.704, 216.7932
1045.186, 217.4102
1045.668, 217.8305
1046.150, 218.0273
1046.632, 217.9519
1047.115, 217.3077
1047.597, 216.7921
1048.079, 216.5830
1048.561, 216.5496
1049.043, 216.5368
1049.525, 216.6533
1050.007, 217.3028
1050.489, 218.6319
1050.971, 219.1788
1051.454, 217.8186
1051.936, 216.7875
1052.418, 217.0477
1052.900, 217.5746
1053.382, 217.7605
1053.864, 217.6152
1054.346, 217.1307
1054.828, 216.2907
1055.311, 215.7958
1055.793, 216.0699
1056.275, 216.3939
1056.757, 216.5621
1057.239, 216.6535
1057.721, 216.8336
1058.203, 216.9370
1058.685, 216.5528
1059.167, 215.6404
1059.650, 215.0390
1060.132, 215.3259
1060.614, 215.5595
1061.096, 215.3466
1061.578, 214.9805
1062.060, 214.6008
1062.542, 214.2634
1063.024, 214.0010
1063.506, 213.8269
1063.989, 213.8252
1064.471, 214.2564
1064.953, 214.5361
1065.435, 214.2594
1065.917, 213.9022
1066.399, 213.7895
1066.881, 213.8625
1067.363, 214.0147
1067.846, 214.2184
1068.328, 214.4486
1068.810, 214.8380
1069.292, 215.0057
1069.774, 214.5398
1070.256, 214.0363
1070.738, 213.9502
1071.220, 214.1110
1071.703, 214.3676
1072.185, 214.6098
1072.667, 214.4387
1073.149, 213.3717
1073.631, 212.6491
1074.113, 213.2977
1074.595, 214.0274
1075.077, 213.7935
1075.559, 213.1367
1076.042, 212.7674
1076.524, 212.7589
1077.006, 212.9202
1077.488, 213.3058
1077.970, 213.4668
1078.452, 212.8753
1078.934, 212.3401
1079.416, 212.5667
1079.898, 213.0508
1080.380, 213.2016
1080.863, 213.0077
1081.345, 212.6763
1081.827, 212.2047
1082.309, 211.9374
1082.791, 212.1944
1083.273, 212.5075
1083.755, 212.5159
1084.237, 212.4863
1084.720, 212.8035
1085.202, 213.3273
1085.684, 213.5795
1086.166, 213.3984
1086.648, 213.3112
1087.130, 213.6539
1087.612, 214.0036
1088.094, 214.2734
1088.577, 214.3364
1089.059, 213.9160
1089.541, 213.2534
1090.023, 212.7887
1090.505, 212.6102
1090.987, 212.8015
1091.469, 213.7523
1091.951, 214.6063
1092.433, 215.1308
1092.916, 215.2931
1093.398, 214.8290
1093.880, 214.0946
1094.362, 213.6593
1094.844, 213.5947
1095.326, 213.5793
1095.808, 213.5375
1096.290, 213.4953
1096.772, 213.5530
1097.255, 213.5143
1097.737, 213.1544
1098.219, 212.6810
1098.701, 212.4025
1099.183, 212.3076
1099.665, 212.0735
1100.147, 211.2920
1100.629, 211.0660
1101.112, 212.3101
1101.594, 213.4236
1102.076, 213.5144
1102.558, 213.1587
1103.040, 212.8944
1103.522, 212.7569
1104.004, 212.7088
1104.486, 212.8445
1104.969, 212.7449
1105.451, 211.9005
1105.933, 211.3771
1106.415, 211.8014
1106.897, 212.4535
1107.379, 212.9084
1107.861, 213.0989
1108.343, 212.8261
1108.825, 211.9171
1109.307, 211.4737
1109.790, 211.8733
1110.272, 212.3443
1110.754, 212.8765
1111.236, 213.2867
1111.718, 213.5534
1112.200, 213.5912
1112.682, 213.1073
1113.164, 212.0530
1113.647, 211.5431
1114.129, 211.8673
1114.611, 212.2655
1115.093, 212.8181
1115.575, 213.2671
1116.057, 213.5826
1116.539, 213.6582
1117.021, 213.1700
1117.504, 212.2744
1117.986, 212.1813
1118.468, 213.4654
1118.950, 214.1533
1119.432, 213.8881
1119.914, 213.7078
1120.396, 213.9641
1120.878, 214.3773
1121.360, 214.7832
1121.843, 215.1093
1122.325, 215.0997
1122.807, 214.6568
1123.289, 214.4832
1123.771, 214.6284
1124.253, 214.8993
1124.735, 215.3130
1125.217, 215.6681
1125.699, 215.8248
1126.182, 215.8741
1126.664, 215.9689
1127.146, 216.1055
1127.628, 216.2158
1128.110, 216.2972
1128.592, 216.3842
1129.074, 216.4959
1129.556, 216.4578
1130.039, 216.1591
1130.521, 215.8576
1131.003, 215.8454
1131.485, 216.0705
1131.967, 216.3235
1132.449, 216.6176
1132.931, 217.3221
1133.413, 218.4396
1133.896, 219.1174
1134.378, 219.0963
1134.860, 218.8987
1135.342, 218.9436
1135.824, 218.9807
1136.306, 218.3137
1136.788, 217.2777
1137.270, 217.3233
1137.752, 218.2418
1138.234, 219.0278
1138.717, 219.4644
1139.199, 219.5073
1139.681, 219.1327
1140.163, 218.7279
1140.645, 218.7028
1141.127, 218.9565
1141.609, 219.5914
1142.091, 220.2439
1142.574, 219.7493
1143.056, 218.4922
1143.538, 218.1898
1144.020, 219.2737
1144.502, 220.4130
1144.984, 220.6307
1145.466, 220.6102
1145.948, 221.2403
1146.431, 221.9076
1146.913, 221.6834
1147.395, 220.9719
1147.877, 220.5568
1148.359, 220.5302
1148.841, 220.5725
1149.323, 220.5574
1149.805, 220.5379
1150.287, 220.4334
1150.770, 220.4654
1151.252, 221.0479
1151.734, 221.6460
1152.216, 221.5519
1152.698, 221.0256
1153.180, 220.7287
1153.662, 220.8021
1154.144, 221.1194
1154.626, 221.9993
1155.109, 222.6069
1155.591, 222.4773
1156.073, 222.2034
1156.555, 222.1118
1157.037, 222.1214
1157.519, 222.1819
1158.001, 222.2431
1158.483, 221.9957
1158.966, 220.9082
1159.448, 220.5874
1159.930, 221.9007
1160.412, 222.9364
1160.894, 223.1418
1161.376, 222.9552
1161.858, 222.5880
1162.340, 222.1109
1162.822, 221.6359
1163.305, 221.1266
1163.787, 221.0266
1164.269, 221.5093
1164.751, 221.9004
1165.233, 222.1090
1165.715, 222.2119
1166.197, 222.2053
1166.679, 222.2222
1167.161, 222.4557
1167.644, 222.8068
1168.126, 222.8109
1168.608, 222.4486
1169.090, 222.3602
1169.572, 222.5792
1170.054, 222.8335
1170.536, 223.0496
1171.018, 223.2469
1171.500, 223.4431
1171.983, 223.6001
1172.465, 223.6736
1172.947, 223.6532
1173.429, 223.4061
1173.911, 223.0359
1174.393, 223.0426
1174.875, 223.3720
1175.357, 223.3703
1175.840, 222.8216
1176.322, 222.2999
1176.804, 222.3062
1177.286, 222.5061
1177.768, 222.4950
1178.250, 222.4041
1178.732, 222.4840
1179.214, 222.6097
1179.697, 222.3662
1180.179, 221.8607
1180.661, 221.7671
1181.143, 222.3745
1181.625, 223.3091
1182.107, 224.9105
1182.589, 226.0761
1183.071, 225.8569
1183.553, 225.0543
1184.036, 224.1851
1184.518, 223.4387
1185.000, 223.0590
1185.482, 223.0600
1185.964, 223.0407
1186.446, 222.9254
1186.928, 222.7606
1187.410, 222.3368
1187.892, 222.1384
1188.375, 222.6991
1188.857, 223.2878
1189.339, 223.1226
1189.821, 222.4868
1190.303, 222.1933
1190.785, 222.2882
1191.267, 222.4889
1191.749, 222.9411
1192.232, 223.0665
1192.714, 222.6954
1193.196, 222.1847
1193.678, 221.6438
1194.160, 221.2398
1194.642, 221.1814
1195.124, 221.4297
1195.606, 221.9771
1196.089, 222.7910
1196.571, 222.8289
1197.053, 222.0981
1197.535, 221.8945
1198.017, 222.4982
1198.499, 222.7211
1198.981, 221.7874
1199.463, 220.7007
1199.945, 221.0107
1200.427, 221.9389
1200.910, 221.8932
1201.392, 221.2558
1201.874, 220.7031
1202.356, 220.3886
1202.838, 220.5790
1203.320, 221.2427
1203.802, 221.6739
1204.284, 221.3763
1204.767, 220.9882
1205.249, 221.0846
1205.731, 221.1925
1206.213, 220.8468
1206.695, 220.3382
1207.177, 219.9542
1207.659, 219.7471
1208.141, 219.8008
1208.624, 220.1586
1209.106, 220.2958
1209.588, 219.9537
1210.070, 219.5797
1210.552, 219.1064
1211.034, 218.8090
1211.516, 218.9016
1211.998, 219.1704
1212.480, 219.4603
1212.963, 219.7395
1213.445, 219.9052
1213.927, 219.9985
1214.409, 219.6595
1214.891, 218.6224
1215.373, 218.3385
1215.855, 219.3015
1216.337, 219.9205
1216.819, 219.3060
1217.302, 218.2014
1217.784, 217.4539
1218.266, 217.0426
1218.748, 217.0107
1219.230, 217.2643
1219.712, 217.2783
1220.194, 217.0906
1220.676, 217.1263
1221.159, 217.4120
1221.641, 217.3910
1222.123, 216.7483
1222.605, 216.0770
1223.087, 215.9161
1223.569, 216.0964
1224.051, 216.5394
1224.533, 217.1141
1225.016, 217.7693
1225.498, 218.3592
1225.980, 218.6513
1226.462, 218.6140
1226.944, 218.3470
1227.426, 217.7842
1227.908, 217.2843
1228.390, 217.1101
1228.872, 216.8388
1229.354, 215.9015
1229.837, 215.1828
1230.319, 215.6585
1230.801, 216.6896
1231.283, 217.1275
1231.765, 216.9901
1232.247, 216.8311
1232.729, 216.7862
1233.211, 216.2001
1233.694, 214.7083
1234.176, 213.9666
1234.658, 214.6313
1235.140, 215.4499
1235.622, 215.5187
1236.104, 215.2055
1236.586, 215.1292
1237.068, 215.2161
1237.551, 215.1959
1238.033, 215.0558
1238.515, 214.6620
1238.997, 214.0740
1239.479, 213.6528
1239.961, 213.4680
1240.443, 213.1379
1240.925, 212.3509
1241.407, 211.7134
1241.890, 211.9420
1242.372, 212.4619
1242.854, 212.7268
1243.336, 212.9352
1243.818, 213.2192
1244.300, 213.7169
1244.782, 214.9767
1245.264, 216.9369
1245.746, 217.7084
1246.229, 216.0975
1246.711, 214.5707
1247.193, 213.3358
1247.675, 212.5304
1248.157, 212.4900
1248.639, 212.5372
1249.121, 212.2013
1249.603, 211.6382
1250.085, 211.0788
1250.568, 210.5408
1251.050, 210.3765
1251.532, 210.6295
1252.014, 210.7370
1252.496, 210.6465
1252.978, 210.7145
1253.460, 211.0472
1253.942, 211.4228
1254.425, 211.6836
1254.907, 211.9438
1255.389, 212.5211
1255.871, 213.0806
1256.353, 212.8408
1256.835, 212.1946
1257.317, 211.8447
1257.799, 211.7559
1258.281, 211.6615
1258.764, 211.4995
1259.246, 211.3325
1259.728, 211.2040
1260.210, 211.0135
1260.692, 210.6086
1261.174, 210.2711
1261.656, 210.2374
1262.138, 210.2153
1262.620, 209.8226
1263.103, 209.3855
1263.585, 209.5575
1264.067, 210.2225
1264.549, 210.3376
1265.031, 209.5501
1265.513, 209.4861
1265.995, 210.3790
1266.477, 210.9810
1266.960, 211.0088
1267.442, 210.6865
1267.924, 210.0991
1268.406, 209.6077
1268.888, 209.7490
1269.370, 210.0878
1269.852, 209.4086
1270.334, 208.2136
1270.817, 207.7507
1271.299, 207.8996
1271.781, 208.2605
1272.263, 208.6565
1272.745, 208.8226
1273.227, 208.6574
1273.709, 208.4381
1274.191, 208.4536
1274.673, 208.2878
1275.156, 207.2632
1275.638, 206.5163
1276.120, 207.3209
1276.602, 208.4023
1277.084, 208.0294
1277.566, 206.7209
1278.048, 206.4355
1278.530, 207.3608
1279.012, 207.5457
1279.495, 206.6379
1279.977, 206.2773
1280.459, 206.7486
1280.941, 207.2285
1281.423, 207.4219
1281.905, 207.5366
1282.387, 207.7554
1282.869, 207.9061
1283.352, 207.5696
1283.834, 206.9924
1284.316, 206.6878
1284.798, 206.6658
##END=



