##NAMES=Warwickite
##RRUFFID=R050674
##IDEAL CHEMISTRY=(Mg,Ti^4+^,Fe^3+^,Cr^3+^,Al)_2_O(BO_3_)
##LOCALITY=Edenville, Orange County, New York, USA
##OWNER=RRUFF
##SOURCE=University of Arizona Mineral Museum
##DESCRIPTION=Black prismatic crystals embedded in matrix
##STATUS=The identification of this mineral has been confirmed by X-ray diffraction and chemical analysis
##URL=rruff.info/R050674
##MEASURED CHEMISTRY=(Mg_1.23_Ti_0.39_Fe^2+^_0.17_Al_0.19_Fe^3+^_0.02_)_Î£=2_O(BO_3_) ; B not measured but estimated by difference and charge balance
93.78320, 38.60564
94.26532, 38.29769
94.74744, 38.57453
95.22955, 39.34245
95.71167, 40.14286
96.19379, 39.92057
96.67590, 38.38213
97.15803, 37.20998
97.64014, 36.95771
98.12226, 37.16961
98.60438, 37.02368
99.08649, 36.16668
99.56861, 34.98811
100.0507, 34.07167
100.5328, 33.35336
101.0150, 32.80150
101.4971, 32.47454
101.9792, 32.38263
102.4613, 32.24148
102.9434, 31.82111
103.4255, 31.35444
103.9077, 31.00794
104.3898, 30.83202
104.8719, 30.78322
105.3540, 30.80329
105.8361, 31.01755
106.3182, 31.06714
106.8004, 30.86967
107.2825, 30.49409
107.7646, 29.99005
108.2467, 29.36747
108.7288, 28.64576
109.2109, 28.11477
109.6931, 27.87955
110.1752, 27.71777
110.6573, 27.60513
111.1394, 27.52263
111.6215, 27.44829
112.1037, 27.36782
112.5858, 27.28170
113.0679, 27.14997
113.5500, 26.88424
114.0321, 26.63665
114.5142, 26.55852
114.9964, 26.67298
115.4785, 26.80270
115.9606, 26.71257
116.4427, 26.41693
116.9248, 26.14499
117.4069, 25.90728
117.8891, 25.73176
118.3712, 25.70725
118.8533, 25.94650
119.3354, 26.18937
119.8175, 26.16756
120.2996, 25.90376
120.7818, 25.62255
121.2639, 25.49634
121.7460, 25.53103
122.2281, 25.55506
122.7102, 25.50614
123.1923, 25.46077
123.6745, 25.48555
124.1566, 25.58463
124.6387, 25.67632
125.1208, 25.63669
125.6029, 25.40538
126.0850, 25.15888
126.5672, 24.84510
127.0493, 24.55940
127.5314, 24.40249
128.0135, 24.41033
128.4956, 24.51685
128.9778, 24.53584
129.4599, 24.34581
129.9420, 24.19776
130.4241, 24.13163
130.9062, 24.11500
131.3883, 24.10678
131.8705, 24.08986
132.3526, 24.05613
132.8347, 23.95928
133.3168, 23.71807
133.7989, 23.50848
134.2810, 23.40973
134.7632, 23.41094
135.2453, 23.45144
135.7274, 23.50473
136.2095, 23.56757
136.6916, 23.62635
137.1737, 23.69727
137.6559, 23.75385
138.1380, 23.75761
138.6201, 23.69644
139.1022, 23.63941
139.5843, 23.64809
140.0664, 23.68796
140.5486, 23.71018
141.0307, 23.68658
141.5128, 23.63235
141.9949, 23.58983
142.4770, 23.55174
142.9591, 23.54015
143.4413, 23.60187
143.9234, 23.69278
144.4055, 23.72619
144.8876, 23.60630
145.3697, 23.33138
145.8518, 23.20579
146.3340, 23.44022
146.8161, 23.64745
147.2982, 23.69227
147.7803, 23.59784
148.2624, 23.46974
148.7445, 23.41449
149.2267, 23.46081
149.7088, 23.46154
150.1909, 23.41019
150.6730, 23.33064
151.1551, 23.17302
151.6372, 22.95949
152.1194, 22.83267
152.6015, 22.99523
153.0836, 23.64039
153.5657, 24.04404
154.0478, 24.06071
154.5300, 23.90679
155.0121, 23.78785
155.4942, 23.75631
155.9763, 23.75504
156.4584, 23.69589
156.9405, 23.57697
157.4227, 23.45484
157.9048, 23.29586
158.3869, 23.14588
158.8690, 23.12924
159.3511, 23.34549
159.8332, 23.59772
160.3154, 23.63354
160.7975, 23.45067
161.2796, 23.24515
161.7617, 23.12337
162.2438, 23.08224
162.7259, 23.09468
163.2081, 23.22347
163.6902, 23.34826
164.1723, 23.35293
164.6544, 23.22826
165.1365, 23.10291
165.6186, 23.15143
166.1008, 23.43710
166.5829, 23.60823
167.0650, 23.47467
167.5471, 23.29626
168.0292, 23.24788
168.5113, 23.36942
168.9935, 23.55202
169.4756, 23.60676
169.9577, 23.43978
170.4398, 23.32062
170.9219, 23.30788
171.4040, 23.32314
171.8862, 23.30259
172.3683, 23.22241
172.8504, 23.10218
173.3325, 22.98675
173.8146, 22.86417
174.2967, 22.76464
174.7789, 22.69168
175.2610, 22.64076
175.7431, 22.61236
176.2252, 22.60750
176.7073, 22.61612
177.1894, 22.60443
177.6716, 22.55391
178.1537, 22.50819
178.6358, 22.49625
179.1179, 22.49392
179.6000, 22.44477
180.0822, 22.30793
180.5643, 22.12410
181.0464, 22.01756
181.5285, 21.99497
182.0106, 22.01936
182.4927, 22.11270
182.9749, 22.25387
183.4570, 22.34632
183.9391, 22.33736
184.4212, 22.24699
184.9033, 22.12922
185.3854, 21.94383
185.8676, 21.79841
186.3497, 21.82699
186.8318, 22.03619
187.3139, 22.18589
187.7960, 22.13427
188.2781, 21.97566
188.7603, 21.80563
189.2424, 21.63999
189.7245, 21.47087
190.2066, 21.26312
190.6887, 20.98047
191.1708, 20.79499
191.6530, 20.80747
192.1351, 20.92118
192.6172, 21.08463
193.0993, 21.29183
193.5814, 21.49088
194.0635, 21.58089
194.5457, 21.55966
195.0278, 21.41569
195.5099, 21.00587
195.9920, 20.55727
196.4741, 20.30959
196.9562, 20.37566
197.4384, 20.65115
197.9205, 20.83959
198.4026, 20.90368
198.8847, 20.91609
199.3668, 20.85785
199.8489, 20.76753
200.3311, 20.69217
200.8132, 20.65649
201.2953, 20.64182
201.7774, 20.57470
202.2595, 20.31927
202.7417, 20.16300
203.2238, 20.24106
203.7059, 20.41293
204.1880, 20.46160
204.6701, 20.26168
205.1522, 19.88935
205.6344, 19.69016
206.1165, 19.78830
206.5986, 19.89322
207.0807, 19.95613
207.5628, 19.98310
208.0449, 19.98894
208.5271, 19.98134
209.0092, 19.95777
209.4913, 19.90402
209.9734, 19.69897
210.4555, 19.60824
210.9376, 19.83654
211.4198, 20.27030
211.9019, 20.59178
212.3840, 20.62305
212.8661, 20.44424
213.3482, 20.30071
213.8303, 20.18878
214.3125, 20.11286
214.7946, 20.12058
215.2767, 20.18814
215.7588, 20.17548
216.2409, 19.97022
216.7230, 19.68225
217.2052, 19.51233
217.6873, 19.49245
218.1694, 19.53016
218.6515, 19.56648
219.1336, 19.60175
219.6157, 19.64392
220.0979, 19.72570
220.5800, 19.79429
221.0621, 19.78325
221.5442, 19.67064
222.0263, 19.53871
222.5084, 19.45433
222.9906, 19.41643
223.4727, 19.43660
223.9548, 19.62523
224.4369, 19.80882
224.9190, 19.83533
225.4011, 19.67099
225.8833, 19.45335
226.3654, 19.36239
226.8475, 19.43830
227.3296, 19.44782
227.8117, 19.23957
228.2939, 19.01511
228.7760, 18.90314
229.2581, 18.92877
229.7402, 19.02514
230.2223, 19.12321
230.7044, 19.24941
231.1866, 19.28903
231.6687, 19.16913
232.1508, 19.00922
232.6329, 18.86585
233.1150, 18.75536
233.5971, 18.67941
234.0793, 18.65321
234.5614, 18.72423
235.0435, 18.72434
235.5256, 18.55207
236.0077, 18.38917
236.4898, 18.36344
236.9720, 18.48882
237.4541, 18.67727
237.9362, 18.81133
238.4183, 18.86731
238.9004, 18.92083
239.3825, 19.00528
239.8647, 19.06372
240.3468, 19.04185
240.8289, 18.94169
241.3110, 18.82394
241.7931, 18.76900
242.2752, 18.82565
242.7574, 18.79835
243.2395, 18.61194
243.7216, 18.41099
244.2037, 18.27803
244.6858, 18.22705
245.1679, 18.23728
245.6501, 18.30048
246.1322, 18.45605
246.6143, 18.47973
247.0964, 18.23781
247.5785, 17.97905
248.0606, 17.87763
248.5428, 17.94178
249.0249, 18.06326
249.5070, 18.15193
249.9891, 18.20737
250.4712, 18.17295
250.9533, 17.95831
251.4355, 17.72966
251.9176, 17.60840
252.3997, 17.59424
252.8818, 17.59412
253.3639, 17.52324
253.8461, 17.38196
254.3282, 17.30738
254.8103, 17.31631
255.2924, 17.37585
255.7745, 17.52376
256.2566, 17.73929
256.7387, 17.85084
257.2209, 17.69132
257.7030, 17.30771
258.1851, 17.06669
258.6672, 17.07875
259.1493, 17.14417
259.6314, 17.11127
260.1136, 16.99219
260.5957, 16.91135
261.0778, 16.94588
261.5599, 17.07828
262.0420, 17.22870
262.5241, 17.47012
263.0063, 17.64254
263.4884, 17.57391
263.9705, 17.29448
264.4526, 17.07332
264.9348, 17.06281
265.4169, 17.17510
265.8990, 17.22665
266.3811, 17.19674
266.8632, 17.14694
267.3453, 17.11777
267.8275, 17.10711
268.3096, 17.09875
268.7917, 17.09341
269.2738, 17.08143
269.7559, 17.03818
270.2380, 16.95095
270.7202, 16.90027
271.2023, 16.99488
271.6844, 17.20302
272.1665, 17.29833
272.6486, 17.16665
273.1307, 16.95801
273.6129, 16.81274
274.0950, 16.73065
274.5771, 16.69794
275.0592, 16.73214
275.5413, 16.81870
276.0234, 16.86852
276.5056, 16.84374
276.9877, 16.81170
277.4698, 16.82446
277.9519, 16.87611
278.4340, 16.93661
278.9161, 17.01119
279.3983, 17.08594
279.8804, 17.08310
280.3625, 16.92481
280.8446, 16.80649
281.3267, 16.87582
281.8088, 17.07046
282.2910, 17.24642
282.7731, 17.32682
283.2552, 17.32875
283.7373, 17.30519
284.2194, 17.24864
284.7015, 17.17880
285.1837, 17.10419
285.6658, 17.02396
286.1479, 16.93395
286.6300, 16.82658
287.1121, 16.71449
287.5942, 16.61892
288.0764, 16.52271
288.5585, 16.48798
289.0406, 16.56428
289.5227, 16.69630
290.0048, 16.84534
290.4869, 17.01203
290.9691, 17.14475
291.4512, 17.12444
291.9333, 16.87813
292.4154, 16.71351
292.8975, 16.83227
293.3796, 16.99220
293.8618, 16.97902
294.3439, 16.73875
294.8260, 16.45122
295.3081, 16.37945
295.7902, 16.58831
296.2723, 16.70431
296.7545, 16.50496
297.2366, 16.30972
297.7187, 16.33860
298.2008, 16.59337
298.6829, 16.87551
299.1650, 16.98710
299.6472, 16.91745
300.1293, 16.77790
300.6114, 16.40030
301.0935, 16.11157
301.5756, 16.10772
302.0577, 16.33657
302.5399, 16.59694
303.0220, 16.72109
303.5041, 16.71658
303.9862, 16.76476
304.4683, 16.95512
304.9504, 17.09255
305.4326, 17.09407
305.9147, 16.99670
306.3968, 16.86929
306.8789, 16.74817
307.3610, 16.63232
307.8431, 16.51205
308.3253, 16.33904
308.8074, 16.24575
309.2895, 16.32182
309.7716, 16.46701
310.2537, 16.54775
310.7358, 16.49689
311.2180, 16.39549
311.7001, 16.44259
312.1822, 16.74403
312.6643, 16.95861
313.1465, 17.01400
313.6286, 16.97362
314.1107, 16.85340
314.5928, 16.66348
315.0749, 16.47673
315.5570, 16.41349
316.0392, 16.51787
316.5213, 16.58472
317.0034, 16.56911
317.4855, 16.52947
317.9676, 16.48091
318.4497, 16.43280
318.9319, 16.40586
319.4140, 16.43157
319.8961, 16.51764
320.3782, 16.58052
320.8603, 16.62845
321.3424, 16.64087
321.8246, 16.59403
322.3067, 16.50405
322.7888, 16.40551
323.2709, 16.31431
323.7530, 16.23524
324.2351, 16.20777
324.7173, 16.24973
325.1994, 16.32412
325.6815, 16.46113
326.1636, 16.60871
326.6457, 16.69394
327.1278, 16.67580
327.6100, 16.58782
328.0921, 16.50632
328.5742, 16.42658
329.0563, 16.36465
329.5384, 16.32410
330.0205, 16.30026
330.5027, 16.29415
330.9848, 16.30584
331.4669, 16.32277
331.9490, 16.34336
332.4311, 16.38691
332.9132, 16.34878
333.3954, 16.03884
333.8775, 15.77166
334.3596, 15.78070
334.8417, 16.04794
335.3238, 16.32570
335.8059, 16.34850
336.2881, 16.11150
336.7702, 15.98148
337.2523, 16.01457
337.7344, 16.11114
338.2165, 16.28182
338.6986, 16.47836
339.1808, 16.59499
339.6629, 16.53514
340.1450, 16.35370
340.6271, 16.25975
341.1092, 16.28848
341.5913, 16.34036
342.0735, 16.40040
342.5556, 16.45082
343.0377, 16.47059
343.5198, 16.45244
344.0019, 16.39894
344.4840, 16.29080
344.9662, 16.09853
345.4483, 15.97807
345.9304, 16.05071
346.4125, 16.17231
346.8946, 16.23835
347.3767, 16.23289
347.8589, 16.22633
348.3410, 16.31251
348.8231, 16.48757
349.3052, 16.57865
349.7873, 16.51956
350.2694, 16.41376
350.7516, 16.32047
351.2337, 16.24203
351.7158, 16.18266
352.1979, 16.15468
352.6800, 16.14807
353.1621, 16.13046
353.6443, 16.09991
354.1264, 16.06138
354.6085, 15.98008
355.0906, 15.89890
355.5727, 15.90095
356.0548, 16.06067
356.5370, 16.25848
357.0191, 16.33028
357.5012, 16.26733
357.9833, 16.16957
358.4654, 16.01431
358.9475, 15.88558
359.4297, 15.89407
359.9118, 16.06995
360.3939, 16.28477
360.8760, 16.49022
361.3581, 16.66892
361.8402, 16.71929
362.3224, 16.56578
362.8045, 16.35621
363.2866, 16.23590
363.7687, 16.19756
364.2509, 16.19761
364.7330, 16.25437
365.2151, 16.32774
365.6972, 16.33734
366.1793, 16.26533
366.6614, 16.19854
367.1436, 16.22042
367.6257, 16.30047
368.1078, 16.34317
368.5899, 16.29100
369.0720, 16.23532
369.5541, 16.27576
370.0363, 16.39428
370.5184, 16.46463
371.0005, 16.41127
371.4826, 16.28766
371.9647, 16.21769
372.4468, 16.21768
372.9290, 16.22295
373.4111, 16.20647
373.8932, 16.17880
374.3753, 16.16573
374.8574, 16.17739
375.3395, 16.18218
375.8217, 16.12887
376.3038, 16.00706
376.7859, 15.92319
377.2680, 15.93059
377.7501, 15.95023
378.2322, 15.88886
378.7144, 15.75473
379.1965, 15.66255
379.6786, 15.71011
380.1607, 15.88178
380.6428, 15.98712
381.1249, 15.99250
381.6071, 15.97908
382.0892, 15.96888
382.5713, 15.96082
383.0534, 15.95427
383.5355, 15.94998
384.0176, 15.93918
384.4998, 15.90061
384.9819, 15.78747
385.4640, 15.72515
385.9461, 15.74264
386.4282, 15.79592
386.9103, 15.86007
387.3925, 15.92494
387.8746, 15.97486
388.3567, 15.98768
388.8388, 15.95318
389.3209, 15.95702
389.8030, 16.08611
390.2852, 16.15946
390.7673, 16.05789
391.2494, 15.85087
391.7315, 15.68169
392.2136, 15.63609
392.6957, 15.68374
393.1779, 15.70880
393.6600, 15.68243
394.1421, 15.67406
394.6242, 15.70408
395.1063, 15.74537
395.5884, 15.77900
396.0706, 15.79807
396.5527, 15.79813
397.0348, 15.76302
397.5169, 15.67270
397.9990, 15.62792
398.4811, 15.71016
398.9633, 15.76436
399.4454, 15.68352
399.9275, 15.51898
400.4096, 15.40306
400.8917, 15.42611
401.3738, 15.56892
401.8560, 15.77155
402.3381, 16.12792
402.8202, 16.35862
403.3023, 16.31050
403.7844, 16.14494
404.2665, 16.01622
404.7487, 15.96898
405.2308, 15.97147
405.7129, 16.00129
406.1950, 16.06170
406.6771, 16.09266
407.1592, 16.07044
407.6414, 16.02732
408.1235, 15.99030
408.6056, 15.95647
409.0877, 15.90698
409.5698, 15.79926
410.0519, 15.67295
410.5341, 15.62596
411.0162, 15.67162
411.4983, 15.75603
411.9804, 15.90514
412.4626, 16.05688
412.9447, 16.09739
413.4268, 15.97560
413.9089, 15.79506
414.3910, 15.59160
414.8731, 15.38497
415.3553, 15.28154
415.8374, 15.33990
416.3195, 15.47509
416.8016, 15.57063
417.2837, 15.62784
417.7658, 15.67007
418.2480, 15.71461
418.7301, 15.74152
419.2122, 15.70755
419.6943, 15.61269
420.1764, 15.53910
420.6585, 15.56181
421.1407, 15.66958
421.6228, 15.72330
422.1049, 15.69336
422.5870, 15.64849
423.0691, 15.59525
423.5512, 15.54904
424.0334, 15.53744
424.5155, 15.57190
424.9976, 15.64068
425.4797, 15.72664
425.9618, 15.87409
426.4439, 15.94232
426.9261, 15.90627
427.4082, 15.81456
427.8903, 15.66550
428.3724, 15.48347
428.8545, 15.33658
429.3366, 15.28193
429.8188, 15.31628
430.3009, 15.36944
430.7830, 15.50842
431.2651, 15.59041
431.7472, 15.56769
432.2293, 15.48494
432.7115, 15.38277
433.1936, 15.27829
433.6757, 15.19117
434.1578, 15.15652
434.6399, 15.18315
435.1220, 15.23046
435.6042, 15.37092
436.0863, 15.46609
436.5684, 15.41509
437.0505, 15.25123
437.5326, 15.09378
438.0147, 15.02891
438.4969, 15.03192
438.9790, 15.01369
439.4611, 14.96211
439.9432, 14.92008
440.4253, 14.92740
440.9074, 14.94339
441.3896, 14.92022
441.8717, 14.84285
442.3538, 14.75643
442.8359, 14.70243
443.3180, 14.67556
443.8001, 14.64692
444.2823, 14.61096
444.7644, 14.57195
445.2465, 14.53340
445.7286, 14.49501
446.2107, 14.45692
446.6928, 14.44121
447.1750, 14.41098
447.6571, 14.30414
448.1392, 14.13153
448.6213, 13.99568
449.1034, 13.95752
449.5855, 13.98689
450.0677, 13.99835
450.5498, 13.97409
451.0319, 13.97166
451.5140, 14.05412
451.9961, 14.14416
452.4782, 14.13490
452.9604, 14.01049
453.4425, 13.84592
453.9246, 13.71105
454.4067, 13.60491
454.8888, 13.54583
455.3709, 13.56188
455.8531, 13.58571
456.3352, 13.61098
456.8173, 13.62374
457.2994, 13.59509
457.7815, 13.51125
458.2636, 13.40721
458.7458, 13.36096
459.2279, 13.41564
459.7100, 13.43825
460.1921, 13.36509
460.6742, 13.31304
461.1564, 13.37963
461.6385, 13.53936
462.1206, 13.68237
462.6027, 13.72679
463.0848, 13.68398
463.5670, 13.59944
464.0491, 13.42396
464.5312, 13.30955
465.0133, 13.35502
465.4954, 13.45854
465.9775, 13.52547
466.4597, 13.53467
466.9418, 13.50636
467.4239, 13.44487
467.9060, 13.35655
468.3881, 13.28382
468.8702, 13.23476
469.3524, 13.19816
469.8345, 13.15760
470.3166, 13.12024
470.7987, 13.11291
471.2808, 13.19985
471.7629, 13.27500
472.2451, 13.19340
472.7272, 12.99540
473.2093, 12.89645
473.6914, 13.00370
474.1735, 13.22562
474.6556, 13.40296
475.1378, 13.55501
475.6199, 13.61275
476.1020, 13.46415
476.5841, 13.28622
477.0662, 13.25737
477.5483, 13.37219
478.0305, 13.48953
478.5126, 13.50207
478.9947, 13.42079
479.4768, 13.34252
479.9589, 13.26301
480.4410, 13.19066
480.9232, 13.07727
481.4053, 12.99711
481.8874, 13.08156
482.3695, 13.33662
482.8516, 13.57062
483.3337, 13.51009
483.8159, 13.09884
484.2980, 12.87639
484.7801, 13.01350
485.2622, 13.15497
485.7443, 13.16230
486.2264, 13.09640
486.7086, 13.06506
487.1907, 13.11903
487.6728, 13.20345
488.1549, 13.24141
488.6370, 13.23085
489.1191, 13.20265
489.6013, 13.14704
490.0834, 13.09453
490.5655, 13.06333
491.0476, 13.05468
491.5297, 13.07826
492.0118, 13.16060
492.4940, 13.26463
492.9761, 13.35483
493.4582, 13.42885
493.9403, 13.45768
494.4224, 13.41220
494.9045, 13.32484
495.3867, 13.28512
495.8688, 13.32614
496.3509, 13.32470
496.8330, 13.19696
497.3151, 13.04419
497.7972, 12.97913
498.2794, 13.01056
498.7615, 13.07386
499.2436, 13.11340
499.7257, 13.13203
500.2078, 13.18646
500.6899, 13.38919
501.1721, 13.49056
501.6542, 13.36928
502.1363, 13.04384
502.6184, 13.22045
503.1005, 13.32820
503.5826, 13.37081
504.0648, 13.15313
504.5469, 13.27155
505.0290, 13.25528
505.5111, 13.23348
505.9932, 13.39921
506.4753, 13.21939
506.9575, 13.38215
507.4396, 13.40815
507.9217, 13.49674
508.4038, 13.44981
508.8859, 13.44473
509.3680, 13.57522
509.8502, 13.63065
510.3323, 13.56812
510.8144, 13.66069
511.2965, 13.47613
511.7787, 13.53476
512.2607, 13.69830
512.7429, 13.64258
513.2250, 13.73763
513.7071, 13.77525
514.1892, 13.55192
514.6713, 13.78242
515.1534, 13.81665
515.6356, 13.64937
516.1177, 13.68979
516.5998, 13.78037
517.0819, 13.83035
517.5640, 13.78163
518.0461, 13.73579
518.5283, 13.77318
519.0104, 13.87921
519.4925, 13.99507
519.9746, 14.08723
520.4567, 14.14578
520.9388, 14.12086
521.4210, 13.91488
521.9031, 13.81077
522.3852, 13.90810
522.8673, 14.05392
523.3494, 14.14124
523.8315, 14.16584
524.3137, 14.18857
524.7958, 14.27432
525.2779, 14.39208
525.7600, 14.41047
526.2421, 14.29072
526.7242, 14.21970
527.2064, 14.34936
527.6885, 14.53488
528.1706, 14.57162
528.6527, 14.41290
529.1348, 14.28899
529.6169, 14.35869
530.0991, 14.52405
530.5812, 14.62974
531.0633, 14.65672
531.5454, 14.64445
532.0275, 14.61613
532.5096, 14.57339
532.9918, 14.52782
533.4739, 14.50226
533.9560, 14.44615
534.4381, 14.29075
534.9202, 14.13067
535.4024, 14.07736
535.8845, 14.14572
536.3666, 14.26915
536.8488, 14.39337
537.3309, 14.51852
537.8130, 14.55287
538.2951, 14.40236
538.7772, 14.28192
539.2593, 14.28166
539.7415, 14.31357
540.2236, 14.27182
540.7057, 14.13137
541.1878, 13.97839
541.6699, 13.89153
542.1520, 13.86700
542.6342, 13.89816
543.1163, 14.02996
543.5984, 14.10541
544.0805, 13.94539
544.5626, 13.67354
545.0447, 13.52651
545.5269, 13.58639
546.0090, 13.67707
546.4911, 13.70240
546.9732, 13.68594
547.4553, 13.70123
547.9374, 13.76479
548.4196, 13.73865
548.9017, 13.44307
549.3838, 12.86525
549.8659, 12.60134
550.3480, 12.90447
550.8301, 13.15947
551.3123, 13.15692
551.7944, 13.03095
552.2765, 12.96047
552.7586, 12.98956
553.2407, 13.02280
553.7228, 12.92411
554.2050, 12.68013
554.6871, 12.55872
555.1692, 12.67229
555.6513, 12.75017
556.1334, 12.64911
556.6155, 12.47873
557.0977, 12.39350
557.5798, 12.44493
558.0619, 12.50030
558.5440, 12.42086
559.0261, 12.24350
559.5082, 12.09626
559.9904, 11.99192
560.4725, 11.94310
560.9546, 11.99484
561.4367, 12.11589
561.9188, 12.14995
562.4009, 12.06490
562.8831, 11.93133
563.3652, 11.69427
563.8473, 11.45696
564.3294, 11.39561
564.8115, 11.53237
565.2936, 11.70400
565.7758, 11.74986
566.2579, 11.66973
566.7400, 11.56686
567.2221, 11.34810
567.7042, 11.22308
568.1863, 11.30962
568.6685, 11.46040
569.1506, 11.51598
569.6327, 11.44719
570.1148, 11.35948
570.5969, 11.38482
571.0790, 11.49288
571.5612, 11.46714
572.0433, 11.24610
572.5254, 11.06126
573.0075, 11.04470
573.4896, 11.13261
573.9717, 11.23966
574.4539, 11.37107
574.9360, 11.48003
575.4181, 11.51892
575.9002, 11.53394
576.3823, 11.61884
576.8644, 11.77202
577.3466, 11.85728
577.8287, 11.76200
578.3108, 11.53207
578.7929, 11.39365
579.2750, 11.43646
579.7571, 11.45566
580.2393, 11.41699
580.7214, 11.36903
581.2035, 11.33766
581.6856, 11.33276
582.1677, 11.37148
582.6498, 11.48442
583.1320, 11.63234
583.6141, 11.66034
584.0962, 11.52197
584.5783, 11.42399
585.0604, 11.45873
585.5425, 11.52857
586.0247, 11.54431
586.5068, 11.50880
586.9889, 11.49267
587.4710, 11.54922
587.9531, 11.62631
588.4352, 11.66009
588.9174, 11.65603
589.3995, 11.65180
589.8816, 11.66153
590.3637, 11.68583
590.8458, 11.73029
591.3279, 11.81538
591.8101, 11.85879
592.2922, 11.81721
592.7743, 11.77724
593.2564, 11.80295
593.7385, 11.86140
594.2206, 11.87308
594.7028, 11.80098
595.1849, 11.71176
595.6670, 11.73583
596.1491, 11.89726
596.6312, 11.98690
597.1133, 11.80249
597.5955, 11.97003
598.0776, 12.06936
598.5597, 12.10414
599.0418, 11.88104
599.5239, 11.99094
600.0060, 11.96739
600.4882, 11.93837
600.9703, 12.09513
601.4524, 11.90954
601.9345, 12.06336
602.4166, 12.08170
602.8987, 12.16204
603.3809, 12.10811
603.8630, 12.09565
604.3451, 12.21751
604.8272, 12.26499
605.3093, 12.19560
605.7914, 12.27988
606.2736, 12.08961
606.7557, 12.14026
607.2378, 12.29486
607.7199, 12.23223
608.2020, 12.31896
608.6841, 12.34881
609.1663, 12.35885
609.6484, 12.46233
610.1305, 12.43739
610.6126, 12.37639
611.0947, 12.35069
611.5768, 12.36374
612.0590, 12.40062
612.5411, 12.47701
613.0232, 12.55916
613.5053, 12.61098
613.9874, 12.63410
614.4695, 12.63853
614.9517, 12.62535
615.4338, 12.60770
615.9159, 12.60380
616.3980, 12.60608
616.8801, 12.65252
617.3622, 12.85138
617.8444, 12.97514
618.3265, 12.85881
618.8086, 12.62517
619.2907, 12.46527
619.7728, 12.44849
620.2549, 12.51108
620.7371, 12.58701
621.2192, 12.67523
621.7013, 12.75147
622.1834, 12.81823
622.6655, 12.86425
623.1476, 12.86932
623.6298, 12.85307
624.1119, 12.84769
624.5940, 12.86023
625.0761, 12.87063
625.5582, 12.87809
626.0403, 12.87394
626.5225, 12.82702
627.0046, 12.74742
627.4867, 12.70421
627.9688, 12.74307
628.4509, 12.84704
628.9330, 12.96587
629.4152, 13.13787
629.8973, 13.25212
630.3794, 13.30997
630.8615, 13.31409
631.3436, 13.19395
631.8257, 13.02446
632.3079, 12.99668
632.7900, 13.24498
633.2721, 13.55839
633.7542, 13.61893
634.2364, 13.45452
634.7185, 13.30804
635.2006, 13.21357
635.6827, 13.18142
636.1649, 13.23994
636.6470, 13.37912
637.1291, 13.49980
637.6112, 13.61872
638.0933, 13.69717
638.5754, 13.69571
639.0576, 13.66094
639.5397, 13.64092
640.0218, 13.64496
640.5039, 13.66435
640.9860, 13.69593
641.4681, 13.73307
641.9503, 13.74199
642.4324, 13.71221
642.9145, 13.67989
643.3966, 13.60305
643.8787, 13.56710
644.3608, 13.69122
644.8430, 13.93029
645.3251, 14.05722
645.8072, 13.85506
646.2893, 13.61130
646.7714, 13.65886
647.2535, 13.91305
647.7357, 14.10245
648.2178, 14.14732
648.6999, 14.11526
649.1820, 14.06617
649.6641, 13.99566
650.1462, 14.00114
650.6284, 14.17327
651.1105, 14.30485
651.5926, 14.32953
652.0747, 14.30916
652.5568, 14.30860
653.0389, 14.33477
653.5211, 14.34559
654.0032, 14.28848
654.4853, 14.19907
654.9674, 14.18950
655.4495, 14.26797
655.9316, 14.33504
656.4138, 14.36567
656.8959, 14.35975
657.3780, 14.28569
657.8601, 14.14486
658.3422, 14.08392
658.8243, 14.21176
659.3065, 14.33233
659.7886, 14.29266
660.2707, 14.18728
660.7528, 14.19213
661.2349, 14.35052
661.7170, 14.54358
662.1992, 14.63918
662.6813, 14.64049
663.1634, 14.61239
663.6455, 14.50504
664.1276, 14.46674
664.6097, 14.61219
665.0919, 14.80433
665.5740, 14.93854
666.0561, 15.00602
666.5382, 15.01645
667.0203, 14.87983
667.5024, 14.75855
667.9846, 14.89142
668.4667, 15.19915
668.9488, 15.38280
669.4309, 15.32691
669.9130, 15.19208
670.3951, 15.19714
670.8773, 15.36631
671.3594, 15.47848
671.8415, 15.53963
672.3236, 15.53318
672.8057, 15.33936
673.2878, 15.14341
673.7700, 15.18712
674.2521, 15.48455
674.7342, 15.75757
675.2163, 15.77073
675.6984, 15.62426
676.1805, 15.49099
676.6627, 15.37365
677.1448, 15.35108
677.6269, 15.47885
678.1090, 15.65341
678.5911, 15.73793
679.0732, 15.72182
679.5554, 15.65426
680.0375, 15.38574
680.5196, 15.23762
681.0017, 15.45379
681.4838, 15.79980
681.9659, 15.97082
682.4481, 15.90485
682.9302, 15.77097
683.4123, 15.56763
683.8944, 15.76002
684.3765, 15.87319
684.8586, 15.91084
685.3408, 15.67783
685.8229, 15.77056
686.3050, 15.71822
686.7871, 15.64999
687.2692, 15.75892
687.7513, 15.51193
688.2335, 15.59712
688.7156, 15.53522
689.1977, 15.52553
689.6798, 15.36994
690.1619, 15.45579
690.6440, 15.35414
691.1262, 15.21122
691.6083, 15.16637
692.0904, 15.21010
692.5725, 15.29227
693.0546, 15.45478
693.5367, 15.53071
694.0189, 15.42447
694.5010, 15.25356
694.9831, 15.10224
695.4652, 14.97613
695.9473, 14.90172
696.4294, 14.93359
696.9116, 14.97313
697.3937, 14.91118
697.8758, 14.82056
698.3579, 14.87627
698.8400, 15.10022
699.3221, 15.29134
699.8043, 15.23948
700.2864, 14.98968
700.7685, 14.89322
701.2506, 15.02644
701.7327, 15.15057
702.2148, 15.25337
702.6970, 15.30396
703.1791, 15.21413
703.6612, 15.03966
704.1433, 15.00145
704.6254, 15.32174
705.1075, 15.61732
705.5897, 15.48702
706.0718, 15.12057
706.5539, 14.90766
707.0360, 14.92110
707.5181, 15.04093
708.0002, 15.18241
708.4824, 15.33553
708.9645, 15.44971
709.4466, 15.51067
709.9287, 15.56041
710.4108, 15.59060
710.8929, 15.62252
711.3751, 15.66590
711.8572, 15.72098
712.3393, 15.78609
712.8214, 15.86275
713.3035, 15.94421
713.7856, 16.01085
714.2678, 16.08101
714.7499, 16.21543
715.2320, 16.41541
715.7141, 16.57963
716.1962, 16.62786
716.6783, 16.61656
717.1605, 16.72621
717.6426, 17.10927
718.1247, 17.31167
718.6068, 17.16419
719.0889, 17.02151
719.5710, 17.04866
720.0532, 17.18832
720.5353, 17.33993
721.0174, 17.47815
721.4995, 17.58311
721.9816, 17.58295
722.4637, 17.55766
722.9459, 17.69101
723.4280, 17.98229
723.9101, 18.27575
724.3922, 18.50438
724.8743, 18.66613
725.3564, 18.74756
725.8386, 18.71114
726.3207, 18.73044
726.8028, 18.83902
727.2849, 18.96324
727.7670, 19.06386
728.2491, 19.17722
728.7313, 19.37658
729.2134, 19.66814
729.6955, 19.91019
730.1776, 19.93336
730.6597, 19.88457
731.1418, 20.04423
731.6240, 20.36708
732.1061, 20.54497
732.5882, 20.45179
733.0704, 20.12521
733.5525, 20.36724
734.0346, 20.54042
734.5167, 20.64845
734.9988, 20.49618
735.4810, 20.68005
735.9631, 20.72919
736.4452, 20.77282
736.9273, 21.00397
737.4094, 20.88957
737.8915, 21.11774
738.3737, 21.20919
738.8558, 21.36319
739.3379, 21.49168
739.8200, 21.80167
740.3021, 21.96194
740.7842, 21.90984
741.2664, 21.77037
741.7485, 21.62478
742.2306, 21.48991
742.7127, 21.45594
743.1948, 21.62065
743.6769, 21.70754
744.1591, 21.68222
744.6412, 21.59980
745.1233, 21.46284
745.6054, 21.29444
746.0875, 21.13044
746.5696, 20.97803
747.0518, 20.85271
747.5339, 20.77734
748.0160, 20.73381
748.4981, 20.70000
748.9802, 20.67065
749.4623, 20.62677
749.9445, 20.55509
750.4266, 20.48297
750.9087, 20.47007
751.3908, 20.54505
751.8729, 20.54423
752.3550, 20.45183
752.8372, 20.30006
753.3193, 20.01525
753.8014, 19.72926
754.2835, 19.63363
754.7656, 19.74104
755.2477, 19.76110
755.7299, 19.49465
756.2120, 19.13280
756.6941, 18.80164
757.1762, 18.52788
757.6583, 18.38623
758.1404, 18.38960
758.6226, 18.43097
759.1047, 18.40745
759.5868, 18.32660
760.0689, 18.23879
760.5510, 18.15162
761.0331, 18.03784
761.5153, 17.87313
761.9974, 17.69874
762.4795, 17.50741
762.9616, 17.32879
763.4437, 17.26707
763.9258, 17.43481
764.4080, 17.55941
764.8901, 17.49965
765.3722, 17.33356
765.8543, 17.11489
766.3364, 16.87310
766.8185, 16.64956
767.3007, 16.46349
767.7828, 16.34884
768.2649, 16.41989
768.7470, 16.68955
769.2291, 16.75184
769.7112, 16.50445
770.1934, 16.28113
770.6755, 16.28681
771.1576, 16.38110
771.6397, 16.30689
772.1218, 16.03104
772.6039, 15.83510
773.0861, 15.82123
773.5682, 15.83624
774.0503, 15.84575
774.5324, 15.81234
775.0145, 15.64372
775.4966, 15.35186
775.9788, 15.12221
776.4609, 15.14119
776.9430, 15.29902
777.4251, 15.33164
777.9072, 15.24163
778.3893, 15.13672
778.8715, 15.03562
779.3536, 14.94279
779.8357, 14.85079
780.3178, 14.76906
780.7999, 14.76337
781.2820, 14.99449
781.7642, 15.06713
782.2463, 14.80744
782.7284, 14.52892
783.2105, 14.44221
783.6926, 14.48625
784.1747, 14.50462
784.6569, 14.44023
785.1390, 14.36450
785.6211, 14.36630
786.1032, 14.39140
786.5853, 14.30984
787.0674, 14.13316
787.5496, 13.99588
788.0317, 13.95815
788.5138, 13.97600
788.9959, 13.99634
789.4780, 14.02357
789.9601, 13.98738
790.4423, 13.84398
790.9244, 13.70724
791.4065, 13.61477
791.8886, 13.53055
792.3707, 13.39708
792.8528, 13.23488
793.3350, 13.16005
793.8171, 13.28830
794.2992, 13.40922
794.7813, 13.39943
795.2634, 13.29946
795.7455, 13.12539
796.2277, 12.90936
796.7098, 12.74960
797.1919, 12.70656
797.6740, 12.74267
798.1561, 12.82418
798.6382, 12.95858
799.1204, 12.90550
799.6025, 12.57615
800.0846, 12.27425
800.5667, 12.14881
801.0488, 12.13885
801.5309, 12.15073
802.0131, 12.19138
802.4952, 12.20735
802.9773, 12.17769
803.4594, 12.14111
803.9415, 12.10055
804.4236, 12.07000
804.9058, 12.09451
805.3879, 12.15881
805.8700, 12.15372
806.3521, 11.97222
806.8342, 11.73056
807.3163, 11.60077
807.7985, 11.56676
808.2806, 11.58141
808.7627, 11.63763
809.2448, 11.65045
809.7269, 11.54390
810.2090, 11.37418
810.6912, 11.32486
811.1733, 11.49016
811.6554, 11.55064
812.1375, 11.42635
812.6196, 11.28610
813.1017, 11.18828
813.5839, 11.11410
814.0660, 11.03310
814.5481, 10.93990
815.0302, 10.87415
815.5123, 10.86783
815.9944, 10.88120
816.4766, 10.88295
816.9587, 10.88113
817.4408, 10.90506
817.9229, 10.95310
818.4050, 10.97442
818.8871, 10.92546
819.3693, 10.82227
819.8514, 10.68218
820.3335, 10.50029
820.8156, 10.42548
821.2977, 10.51729
821.7798, 10.60113
822.2620, 10.53102
822.7441, 10.38106
823.2262, 10.37949
823.7083, 10.63774
824.1904, 10.78459
824.6725, 10.70578
825.1547, 10.62968
825.6368, 10.69730
826.1189, 10.81054
826.6010, 10.82588
827.0831, 10.72175
827.5652, 10.60357
828.0474, 10.52975
828.5295, 10.48556
829.0116, 10.47523
829.4937, 10.47788
829.9758, 10.41939
830.4579, 10.29185
830.9401, 10.20076
831.4222, 10.23800
831.9044, 10.34323
832.3865, 10.30679
832.8686, 10.07089
833.3507, 10.00145
833.8328, 10.22365
834.3149, 10.43172
834.7971, 10.44309
835.2792, 10.34286
835.7613, 10.27501
836.2434, 10.23548
836.7255, 10.25320
837.2076, 10.44294
837.6898, 10.56711
838.1719, 10.42867
838.6540, 10.20691
839.1361, 10.13930
839.6182, 10.23987
840.1003, 10.33312
840.5825, 10.28872
841.0646, 10.21306
841.5467, 10.29606
842.0288, 10.46822
842.5109, 10.46902
842.9930, 10.27304
843.4752, 10.11869
843.9573, 10.15789
844.4394, 10.30336
844.9215, 10.37002
845.4036, 10.34235
845.8857, 10.31391
846.3679, 10.27805
846.8500, 10.25280
847.3321, 10.24033
847.8142, 10.24519
848.2963, 10.29138
848.7784, 10.37384
849.2606, 10.40022
849.7427, 10.27640
850.2248, 10.18891
850.7069, 10.25142
851.1890, 10.35645
851.6711, 10.42485
852.1533, 10.43249
852.6354, 10.33937
853.1175, 10.11176
853.5996, 9.882765
854.0817, 9.819930
854.5638, 9.869619
855.0460, 9.896848
855.5281, 9.895484
856.0102, 9.887958
856.4923, 9.880195
856.9744, 9.903016
857.4565, 10.01631
857.9387, 10.21167
858.4208, 10.22430
858.9029, 9.942446
859.3850, 9.748686
859.8671, 9.755565
860.3492, 9.829256
860.8314, 9.900290
861.3135, 9.958355
861.7956, 9.968669
862.2777, 9.894881
862.7598, 9.850826
863.2419, 9.919555
863.7241, 9.974866
864.2062, 9.895414
864.6883, 9.755889
865.1704, 9.706161
865.6525, 9.774258
866.1346, 9.819975
866.6168, 9.703414
867.0989, 9.522378
867.5810, 9.413605
868.0631, 9.372666
868.5452, 9.399475
869.0273, 9.490598
869.5095, 9.601004
869.9916, 9.705031
870.4737, 9.783209
870.9558, 9.766877
871.4379, 9.626074
871.9200, 9.567141
872.4022, 9.633328
872.8843, 9.700274
873.3664, 9.708986
873.8485, 9.692822
874.3306, 9.718502
874.8127, 9.791755
875.2949, 9.774426
875.7770, 9.530411
876.2591, 9.359910
876.7412, 9.405031
877.2233, 9.514879
877.7054, 9.584155
878.1876, 9.597643
878.6697, 9.549407
879.1518, 9.419772
879.6339, 9.307882
880.1160, 9.322803
880.5981, 9.384691
881.0803, 9.374856
881.5624, 9.308440
882.0445, 9.263364
882.5266, 9.265461
883.0087, 9.277349
883.4908, 9.257863
883.9730, 9.218098
884.4551, 9.213071
884.9372, 9.247255
885.4193, 9.227321
885.9014, 9.117579
886.3835, 9.022098
886.8657, 9.027946
887.3478, 9.088439
887.8299, 9.070520
888.3120, 8.927378
888.7941, 8.831475
889.2762, 8.810716
889.7584, 8.802753
890.2405, 8.788373
890.7226, 8.778528
891.2047, 8.799533
891.6868, 8.844051
892.1689, 8.847653
892.6511, 8.744149
893.1332, 8.655999
893.6153, 8.682044
894.0974, 8.727734
894.5795, 8.650637
895.0616, 8.502855
895.5438, 8.474137
896.0259, 8.642297
896.5080, 8.833132
896.9901, 8.841314
897.4722, 8.740369
897.9543, 8.709515
898.4365, 8.734344
898.9186, 8.698974
899.4007, 8.570811
899.8828, 8.459133
900.3649, 8.464605
900.8470, 8.553350
901.3292, 8.605472
901.8113, 8.617357
902.2934, 8.605929
902.7755, 8.558918
903.2576, 8.521032
903.7397, 8.539554
904.2219, 8.560865
904.7040, 8.474736
905.1861, 8.253778
905.6682, 8.140590
906.1503, 8.228139
906.6324, 8.306256
907.1146, 8.302695
907.5967, 8.288610
908.0788, 8.333819
908.5609, 8.418690
909.0430, 8.474084
909.5251, 8.473786
910.0073, 8.461783
910.4894, 8.450962
910.9715, 8.450947
911.4536, 8.496161
911.9357, 8.552766
912.4178, 8.538454
912.9000, 8.442289
913.3821, 8.349750
913.8642, 8.334014
914.3463, 8.358603
914.8284, 8.354300
915.3105, 8.329259
915.7927, 8.325929
916.2748, 8.349063
916.7569, 8.362310
917.2390, 8.345794
917.7211, 8.307331
918.2032, 8.248219
918.6854, 8.165113
919.1675, 8.182820
919.6496, 8.364308
920.1317, 8.440508
920.6138, 8.264472
921.0959, 8.079838
921.5781, 8.128972
922.0602, 8.352108
922.5423, 8.454126
923.0244, 8.370945
923.5065, 8.292794
923.9886, 8.217295
924.4708, 8.159164
924.9529, 8.129283
925.4350, 8.117872
925.9171, 8.111752
926.3992, 8.110228
926.8813, 8.124830
927.3635, 8.187324
927.8456, 8.234648
928.3277, 8.206524
928.8098, 8.161524
929.2919, 8.167802
929.7740, 8.217242
930.2562, 8.270824
930.7383, 8.312381
931.2205, 8.339766
931.7026, 8.340857
932.1847, 8.331596
932.6668, 8.357769
933.1489, 8.401272
933.6310, 8.382183
934.1132, 8.287067
934.5953, 8.187651
935.0774, 8.136376
935.5595, 8.120727
936.0416, 8.101042
936.5237, 8.076486
937.0059, 8.166187
937.4880, 8.412704
937.9701, 8.546740
938.4522, 8.436293
938.9343, 8.224932
939.4164, 8.059538
939.8986, 7.943847
940.3807, 7.954367
940.8628, 8.210516
941.3449, 8.355013
941.8270, 8.247621
942.3091, 8.148294
942.7913, 8.252466
943.2734, 8.426349
943.7555, 8.438403
944.2376, 8.253283
944.7197, 8.113634
945.2018, 8.039213
945.6840, 8.041840
946.1661, 8.232408
946.6482, 8.416911
947.1303, 8.364863
947.6124, 8.151919
948.0945, 8.050327
948.5767, 8.170853
949.0588, 8.311236
949.5409, 8.366920
950.0230, 8.364392
950.5051, 8.269472
950.9872, 8.158735
951.4694, 8.213163
951.9515, 8.431937
952.4336, 8.583120
952.9157, 8.489488
953.3978, 8.301671
953.8799, 8.227510
954.3621, 8.234488
954.8442, 8.239922
955.3263, 8.237598
955.8084, 8.239264
956.2905, 8.249594
956.7726, 8.275954
957.2548, 8.338350
957.7369, 8.414742
958.2190, 8.384873
958.7011, 8.239826
959.1832, 8.184286
959.6653, 8.263188
960.1475, 8.357160
960.6296, 8.397016
961.1117, 8.411660
961.5938, 8.458734
962.0759, 8.546365
962.5580, 8.583289
963.0402, 8.528800
963.5223, 8.511260
964.0044, 8.594224
964.4865, 8.678800
964.9686, 8.697100
965.4507, 8.656674
965.9329, 8.580271
966.4150, 8.452203
966.8971, 8.331118
967.3792, 8.147615
967.8613, 8.061725
968.3434, 8.231154
968.8256, 8.452026
969.3077, 8.512922
969.7898, 8.428999
970.2719, 8.353695
970.7540, 8.333838
971.2361, 8.316180
971.7183, 8.292787
972.2004, 8.249264
972.6825, 8.114306
973.1646, 7.978707
973.6467, 8.019201
974.1288, 8.242589
974.6110, 8.435907
975.0931, 8.470291
975.5752, 8.432637
976.0573, 8.407060
976.5394, 8.359067
977.0215, 8.210577
977.5037, 7.991285
977.9858, 7.795885
978.4679, 7.660888
978.9500, 7.592654
979.4321, 7.614055
979.9142, 7.690063
980.3964, 7.775678
980.8785, 7.855130
981.3606, 7.849871
981.8427, 7.759199
982.3248, 7.694955
982.8069, 7.718724
983.2891, 7.770714
983.7712, 7.764441
984.2533, 7.706682
984.7354, 7.625880
985.2175, 7.518780
985.6996, 7.536112
986.1818, 7.736702
986.6639, 7.877787
987.1460, 7.766488
987.6281, 7.531664
988.1102, 7.475766
988.5923, 7.631459
989.0745, 7.717391
989.5566, 7.709482
990.0387, 7.703959
990.5208, 7.730015
991.0029, 7.761148
991.4850, 7.770686
991.9672, 7.767467
992.4493, 7.792607
992.9314, 7.908587
993.4135, 7.899567
993.8956, 7.620839
994.3777, 7.412152
994.8599, 7.425451
995.3420, 7.519103
995.8241, 7.586901
996.3062, 7.622891
996.7883, 7.606420
997.2704, 7.466096
997.7526, 7.398204
998.2347, 7.443348
998.7168, 7.550575
999.1989, 7.819868
999.6810, 8.059650
1000.163, 7.969498
1000.645, 7.578067
1001.127, 7.312750
1001.609, 7.373587
1002.092, 7.462795
1002.574, 7.455533
1003.056, 7.436471
1003.538, 7.471260
1004.020, 7.541636
1004.502, 7.635180
1004.984, 7.735611
1005.466, 7.750506
1005.949, 7.542264
1006.431, 7.358676
1006.913, 7.449339
1007.395, 7.614968
1007.877, 7.613330
1008.359, 7.483391
1008.841, 7.348730
1009.323, 7.257362
1009.805, 7.263375
1010.288, 7.497337
1010.770, 7.745036
1011.252, 7.712004
1011.734, 7.520553
1012.216, 7.361459
1012.698, 7.266022
1013.180, 7.243147
1013.662, 7.293432
1014.145, 7.354152
1014.627, 7.353892
1015.109, 7.327188
1015.591, 7.352677
1016.073, 7.410415
1016.555, 7.420161
1017.037, 7.382649
1017.519, 7.397464
1018.001, 7.515968
1018.484, 7.636131
1018.966, 7.602265
1019.448, 7.470591
1019.930, 7.468727
1020.412, 7.576393
1020.894, 7.593423
1021.376, 7.486700
1021.858, 7.374091
1022.341, 7.320985
1022.823, 7.313180
1023.305, 7.333839
1023.787, 7.379908
1024.269, 7.424019
1024.751, 7.466877
1025.233, 7.499238
1025.715, 7.520590
1026.198, 7.519310
1026.680, 7.483050
1027.162, 7.434717
1027.644, 7.420864
1028.126, 7.442731
1028.608, 7.436302
1029.090, 7.387450
1029.572, 7.384284
1030.054, 7.462793
1030.536, 7.540627
1031.019, 7.565593
1031.501, 7.546394
1031.983, 7.492914
1032.465, 7.393564
1032.947, 7.365465
1033.429, 7.472489
1033.911, 7.472811
1034.393, 7.245294
1034.876, 7.019709
1035.358, 6.955390
1035.840, 7.012428
1036.322, 7.107988
1036.804, 7.266006
1037.286, 7.346114
1037.768, 7.301798
1038.250, 7.263595
1038.733, 7.270088
1039.215, 7.276278
1039.697, 7.219208
1040.179, 7.147240
1040.661, 7.201973
1041.143, 7.453198
1041.625, 7.572320
1042.107, 7.419938
1042.589, 7.327384
1043.072, 7.421299
1043.554, 7.535909
1044.036, 7.547143
1044.518, 7.493866
1045.000, 7.481538
1045.482, 7.542180
1045.964, 7.527758
1046.446, 7.327801
1046.928, 7.187678
1047.411, 7.208933
1047.893, 7.274682
1048.375, 7.312288
1048.857, 7.324210
1049.339, 7.318827
1049.821, 7.287556
1050.303, 7.288089
1050.785, 7.377781
1051.268, 7.436300
1051.750, 7.408728
1052.232, 7.350590
1052.714, 7.290487
1053.196, 7.238487
1053.678, 7.210702
1054.160, 7.211618
1054.642, 7.222044
1055.125, 7.269499
1055.607, 7.283963
1056.089, 7.186923
1056.571, 7.094055
1057.053, 7.129222
1057.535, 7.234442
1058.017, 7.268364
1058.499, 7.198542
1058.981, 7.142972
1059.464, 7.128379
1059.946, 7.146619
1060.428, 7.240707
1060.910, 7.324728
1061.392, 7.305997
1061.874, 7.228256
1062.356, 7.191068
1062.838, 7.215192
1063.320, 7.239942
1063.803, 7.239298
1064.285, 7.240456
1064.767, 7.275398
1065.249, 7.299136
1065.731, 7.248024
1066.213, 7.165071
1066.695, 7.146037
1067.177, 7.208366
1067.660, 7.252527
1068.142, 7.217598
1068.624, 7.183806
1069.106, 7.226076
1069.588, 7.250387
1070.070, 7.133780
1070.552, 6.958168
1071.034, 6.888681
1071.516, 6.949932
1071.999, 6.999257
1072.481, 6.938015
1072.963, 6.904139
1073.445, 6.974849
1073.927, 7.086153
1074.409, 7.218926
1074.891, 7.338807
1075.373, 7.400954
1075.855, 7.398326
1076.338, 7.348511
1076.820, 7.199351
1077.302, 7.102334
1077.784, 7.176305
1078.266, 7.285419
1078.748, 7.354656
1079.230, 7.371336
1079.713, 7.294965
1080.195, 7.146629
1080.677, 7.064470
1081.159, 7.111967
1081.641, 7.209342
1082.123, 7.373839
1082.605, 7.517539
1083.087, 7.586289
1083.569, 7.587568
1084.052, 7.526321
1084.534, 7.411669
1085.016, 7.265819
1085.498, 7.071885
1085.980, 6.919883
1086.462, 6.809110
1086.944, 6.796953
1087.426, 7.024650
1087.908, 7.299557
1088.391, 7.393762
1088.873, 7.319081
1089.355, 7.189218
1089.837, 6.998727
1090.319, 6.923301
1090.801, 7.198644
1091.283, 7.411226
1091.765, 7.228376
1092.248, 6.949403
1092.730, 6.887805
1093.212, 7.001237
1093.694, 7.106413
1094.176, 7.167228
1094.658, 7.169643
1095.140, 7.038056
1095.622, 6.936593
1096.104, 6.955999
1096.587, 7.021902
1097.069, 7.079558
1097.551, 7.128319
1098.033, 7.195358
1098.515, 7.288287
1098.997, 7.303344
1099.479, 7.136324
1099.961, 6.988770
1100.443, 6.938048
1100.926, 6.920250
1101.408, 6.906170
1101.890, 6.886697
1102.372, 6.843012
1102.854, 6.776462
1103.336, 6.743624
1103.818, 6.777330
1104.300, 6.816263
1104.783, 6.865770
1105.265, 6.896190
1105.747, 6.894921
1106.229, 6.863258
1106.711, 6.776369
1107.193, 6.650805
1107.675, 6.602114
1108.157, 6.679687
1108.640, 6.766410
1109.122, 6.905637
1109.604, 6.979376
1110.086, 6.868840
1110.568, 6.731305
1111.050, 6.737918
1111.532, 6.848429
1112.014, 6.886970
1112.496, 6.793561
1112.979, 6.772214
1113.461, 6.908566
1113.943, 7.011452
1114.425, 7.012532
1114.907, 6.988984
1115.389, 7.011499
1115.871, 7.042548
1116.353, 6.979070
1116.835, 6.785452
1117.318, 6.712326
1117.800, 6.842093
1118.282, 6.940763
1118.764, 6.965308
1119.246, 6.963480
1119.728, 6.937705
1120.210, 6.925460
1120.692, 7.005106
1121.175, 7.172778
1121.657, 7.213800
1122.139, 7.087309
1122.621, 6.936333
1123.103, 6.727810
1123.585, 6.613038
1124.067, 6.698256
1124.549, 6.820803
1125.031, 6.788566
1125.514, 6.645144
1125.996, 6.596541
1126.478, 6.654889
1126.960, 6.761082
1127.442, 6.945675
1127.924, 7.016377
1128.406, 6.890892
1128.888, 6.729926
1129.370, 6.652288
1129.853, 6.647918
1130.335, 6.707255
1130.817, 6.830261
1131.299, 6.907678
1131.781, 6.938212
1132.263, 6.959142
1132.745, 6.977022
1133.227, 7.009501
1133.710, 7.070668
1134.192, 7.121608
1134.674, 7.098686
1135.156, 7.022513
1135.638, 6.981675
1136.120, 6.969740
1136.602, 6.910653
1137.084, 6.808442
1137.567, 6.835919
1138.049, 7.055846
1138.531, 7.216577
1139.013, 7.044976
1139.495, 6.743890
1139.977, 6.739375
1140.459, 6.921062
1140.941, 6.966845
1141.423, 6.897545
1141.906, 6.882467
1142.388, 6.955397
1142.870, 7.020665
1143.352, 7.018101
1143.834, 6.988032
1144.316, 6.987352
1144.798, 6.983069
1145.280, 6.879465
1145.762, 6.752771
1146.245, 6.774575
1146.727, 6.929763
1147.209, 7.085205
1147.691, 7.189011
1148.173, 7.248742
1148.655, 7.247829
1149.137, 7.231514
1149.619, 7.267086
1150.102, 7.287042
1150.584, 7.155133
1151.066, 6.966085
1151.548, 6.950835
1152.030, 7.126527
1152.512, 7.229710
1152.994, 7.088923
1153.476, 6.970279
1153.958, 7.035460
1154.441, 7.131027
1154.923, 7.168336
1155.405, 7.166408
1155.887, 7.155856
1156.369, 7.134569
1156.851, 7.067771
1157.333, 6.911399
1157.815, 6.857768
1158.297, 7.059691
1158.780, 7.218808
1159.262, 7.229148
1159.744, 7.175840
1160.226, 7.066754
1160.708, 6.959388
1161.190, 6.977842
1161.672, 7.135407
1162.154, 7.216588
1162.637, 7.190126
1163.119, 7.139847
1163.601, 7.006478
1164.083, 6.974450
1164.565, 7.208365
1165.047, 7.441053
1165.529, 7.362344
1166.011, 7.062918
1166.494, 6.906719
1166.976, 6.907784
1167.458, 7.004002
1167.940, 7.234818
1168.422, 7.347319
1168.904, 7.257617
1169.386, 7.174053
1169.868, 7.245966
1170.350, 7.354752
1170.833, 7.279276
1171.315, 7.071010
1171.797, 7.061394
1172.279, 7.228021
1172.761, 7.315888
1173.243, 7.298606
1173.725, 7.245529
1174.207, 7.185266
1174.689, 7.147591
1175.172, 7.160764
1175.654, 7.208369
1176.136, 7.280068
1176.618, 7.356593
1177.100, 7.377751
1177.582, 7.367068
1178.064, 7.422455
1178.547, 7.534826
1179.029, 7.558421
1179.511, 7.417032
1179.993, 7.257768
1180.475, 7.197321
1180.957, 7.188240
1181.439, 7.214118
1181.921, 7.239539
1182.403, 7.183768
1182.885, 7.104078
1183.368, 7.150689
1183.850, 7.340398
1184.332, 7.491483
1184.814, 7.540871
1185.296, 7.517364
1185.778, 7.362350
1186.260, 7.218199
1186.742, 7.157141
1187.225, 7.162914
1187.707, 7.252400
1188.189, 7.388007
1188.671, 7.446027
1189.153, 7.391841
1189.635, 7.351127
1190.117, 7.343028
1190.599, 7.331191
1191.082, 7.308835
1191.564, 7.281990
1192.046, 7.239035
1192.528, 7.212450
1193.010, 7.263327
1193.492, 7.373815
1193.974, 7.382758
1194.456, 7.261144
1194.938, 7.192157
1195.421, 7.189666
1195.903, 7.205083
1196.385, 7.220816
1196.867, 7.286941
1197.349, 7.457383
1197.831, 7.627717
1198.313, 7.563699
1198.795, 7.338939
1199.277, 7.347533
1199.760, 7.533296
1200.242, 7.593230
1200.724, 7.508243
1201.206, 7.439703
1201.688, 7.446312
1202.170, 7.442573
1202.652, 7.344287
1203.134, 7.237103
1203.617, 7.227309
1204.099, 7.277827
1204.581, 7.355677
1205.063, 7.443621
1205.545, 7.550225
1206.027, 7.642831
1206.509, 7.604116
1206.991, 7.379892
1207.474, 7.179095
1207.956, 7.072246
1208.438, 7.070625
1208.920, 7.301406
1209.402, 7.518388
1209.884, 7.470086
1210.366, 7.310787
1210.848, 7.310053
1211.330, 7.464544
1211.813, 7.524019
1212.295, 7.375578
1212.777, 7.309928
1213.259, 7.423307
1213.741, 7.469003
1214.223, 7.320869
1214.705, 7.195342
1215.187, 7.271502
1215.669, 7.424830
1216.152, 7.417235
1216.634, 7.261775
1217.116, 7.172728
1217.598, 7.150612
1218.080, 7.203528
1218.562, 7.336287
1219.044, 7.482673
1219.526, 7.622620
1220.009, 7.672301
1220.491, 7.552922
1220.973, 7.361402
1221.455, 7.251649
1221.937, 7.206647
1222.419, 7.193359
1222.901, 7.204569
1223.383, 7.229573
1223.865, 7.262240
1224.348, 7.276092
1224.830, 7.268353
1225.312, 7.322795
1225.794, 7.563178
1226.276, 7.758158
1226.758, 7.685960
1227.240, 7.536781
1227.722, 7.460062
1228.204, 7.424270
1228.687, 7.378632
1229.169, 7.322156
1229.651, 7.265339
1230.133, 7.198897
1230.615, 7.201035
1231.097, 7.418480
1231.579, 7.507246
1232.061, 7.236478
1232.544, 7.035090
1233.026, 7.144635
1233.508, 7.363988
1233.990, 7.484787
1234.472, 7.518127
1234.954, 7.503448
1235.436, 7.435160
1235.918, 7.336347
1236.401, 7.193255
1236.883, 7.192108
1237.365, 7.269660
1237.847, 7.430205
1238.329, 7.521899
1238.811, 7.548442
1239.293, 7.314700
1239.775, 7.417062
1240.257, 7.384729
1240.740, 7.346879
1241.222, 7.496547
1241.704, 7.300663
1242.186, 7.447357
1242.668, 7.457299
1243.150, 7.529830
1243.632, 7.466832
1244.114, 7.445696
1244.596, 7.560129
1245.079, 7.599504
1245.561, 7.520905
1246.043, 7.597414
1246.525, 7.396796
1247.007, 7.439360
1247.489, 7.586847
1247.971, 7.515063
1248.453, 7.594050
1248.936, 7.615622
1249.418, 7.376229
1249.900, 7.590668
1250.382, 7.608839
1250.864, 7.341101
1251.346, 7.265549
1251.828, 7.275107
1252.310, 7.354333
1252.792, 7.511750
1253.275, 7.690546
1253.757, 7.603844
1254.239, 7.284094
1254.721, 7.172958
1255.203, 7.257943
1255.685, 7.220110
1256.167, 7.017556
1256.649, 6.960468
1257.131, 7.211902
1257.614, 7.488334
1258.096, 7.486404
1258.578, 7.391457
1259.060, 7.409941
1259.542, 7.470965
1260.024, 7.507967
1260.506, 7.510590
1260.988, 7.438920
1261.471, 7.326012
1261.953, 7.323693
1262.435, 7.508787
1262.917, 7.629425
1263.399, 7.609275
1263.881, 7.536239
1264.363, 7.351404
1264.845, 7.220534
1265.328, 7.250579
1265.810, 7.347202
1266.292, 7.403954
1266.774, 7.436745
1267.256, 7.531441
1267.738, 7.709365
1268.220, 7.691748
1268.702, 7.470653
1269.184, 7.315409
1269.667, 7.273907
1270.149, 7.263782
1270.631, 7.246725
1271.113, 7.219647
1271.595, 7.177431
1272.077, 7.128633
1272.559, 7.032402
1273.041, 6.979514
1273.523, 7.192820
1274.006, 7.504509
1274.488, 7.609774
1274.970, 7.522978
1275.452, 7.423108
1275.934, 7.358444
1276.416, 7.285478
1276.898, 7.126702
1277.380, 7.051204
1277.863, 7.151069
1278.345, 7.286605
1278.827, 7.466360
1279.309, 7.576789
1279.791, 7.488637
1280.273, 7.292434
1280.755, 7.192926
1281.237, 7.188581
1281.719, 7.128161
1282.202, 6.999595
1282.684, 7.014154
1283.166, 7.191255
1283.648, 7.332390
1284.130, 7.375206
##END=



