##NAMES=Warwickite
##RRUFFID=R050674
##IDEAL CHEMISTRY=(Mg,Ti^4+^,Fe^3+^,Cr^3+^,Al)_2_O(BO_3_)
##LOCALITY=Edenville, Orange County, New York, USA
##OWNER=RRUFF
##SOURCE=University of Arizona Mineral Museum
##DESCRIPTION=Black prismatic crystals embedded in matrix
##STATUS=The identification of this mineral has been confirmed by X-ray diffraction and chemical analysis
##URL=rruff.info/R050674
##MEASURED CHEMISTRY=(Mg_1.23_Ti_0.39_Fe^2+^_0.17_Al_0.19_Fe^3+^_0.02_)_Î£=2_O(BO_3_) ; B not measured but estimated by difference and charge balance
91.00781, 5.632405
91.48993, 5.622130
91.97205, 5.618195
92.45416, 5.624807
92.93628, 5.637560
93.41840, 5.640265
93.90051, 5.618177
94.38263, 5.605834
94.86475, 5.681981
95.34686, 5.845634
95.82898, 6.003005
96.31110, 6.101464
96.79321, 6.139028
97.27533, 6.072662
97.75745, 5.850139
98.23956, 5.522356
98.72168, 5.296135
99.20380, 5.170579
99.68591, 5.155642
100.1680, 5.296486
100.6501, 5.624452
101.1323, 5.950548
101.6144, 6.228974
102.0965, 6.461039
102.5786, 6.619669
103.0607, 6.674997
103.5428, 6.684483
104.0250, 6.723946
104.5071, 6.724623
104.9892, 6.871428
105.4713, 7.254405
105.9534, 8.006001
106.4355, 8.701809
106.9177, 9.324980
107.3998, 9.891578
107.8819, 10.47383
108.3640, 11.07213
108.8461, 11.67899
109.3282, 12.29947
109.8104, 12.90943
110.2925, 13.54619
110.7746, 14.19026
111.2567, 14.84613
111.7388, 15.57800
112.2209, 16.44906
112.7031, 17.35951
113.1852, 18.25059
113.6673, 19.13729
114.1494, 19.97005
114.6315, 20.67594
115.1136, 21.25244
115.5958, 21.96614
116.0779, 23.04579
116.5600, 24.26431
117.0421, 25.36243
117.5242, 26.03831
118.0063, 26.74148
118.4885, 27.76510
118.9706, 29.18890
119.4527, 30.63202
119.9348, 31.84867
120.4169, 32.93473
120.8990, 34.08620
121.3812, 35.49571
121.8633, 36.96442
122.3454, 38.35546
122.8275, 39.76038
123.3096, 40.82647
123.7917, 41.01155
124.2739, 40.51260
124.7560, 40.05246
125.2381, 40.11662
125.7202, 40.52435
126.2023, 40.95954
126.6844, 41.32324
127.1666, 41.72791
127.6487, 42.39965
128.1308, 43.32451
128.6129, 44.22210
129.0950, 44.76575
129.5771, 45.07217
130.0593, 45.57822
130.5414, 46.50978
131.0235, 47.67954
131.5056, 48.54890
131.9877, 48.91493
132.4698, 48.94985
132.9520, 49.00409
133.4341, 49.08390
133.9162, 49.37074
134.3983, 50.02422
134.8804, 50.97506
135.3625, 51.66350
135.8447, 52.01376
136.3268, 52.30979
136.8089, 52.95916
137.2910, 53.99854
137.7731, 55.16762
138.2552, 56.56837
138.7374, 58.32470
139.2195, 59.19999
139.7016, 58.98453
140.1837, 58.12148
140.6658, 57.50214
141.1479, 57.15702
141.6301, 56.95404
142.1122, 56.80940
142.5943, 56.64986
143.0764, 56.75308
143.5585, 57.21970
144.0406, 57.93799
144.5228, 58.53656
145.0049, 58.96371
145.4870, 59.33161
145.9691, 59.70121
146.4512, 60.14380
146.9333, 60.47907
147.4155, 60.64724
147.8976, 60.67459
148.3797, 60.78523
148.8618, 60.94243
149.3439, 61.20895
149.8260, 61.62278
150.3082, 62.30695
150.7903, 63.00393
151.2724, 63.79254
151.7545, 64.67805
152.2366, 65.26464
152.7188, 65.12992
153.2009, 64.89180
153.6830, 65.04778
154.1651, 66.28374
154.6472, 67.29074
155.1293, 67.64840
155.6115, 67.25766
156.0936, 67.00298
156.5757, 67.19641
157.0578, 67.54501
157.5399, 67.72603
158.0220, 67.41746
158.5042, 67.14620
158.9863, 67.12195
159.4684, 67.39673
159.9505, 67.73710
160.4326, 68.07902
160.9147, 68.44150
161.3969, 68.85229
161.8790, 69.42287
162.3611, 69.97217
162.8432, 70.39429
163.3253, 70.64146
163.8074, 70.85359
164.2896, 71.10641
164.7717, 71.36763
165.2538, 71.57346
165.7359, 71.63953
166.2180, 71.66888
166.7001, 71.73546
167.1823, 71.85049
167.6644, 72.00362
168.1465, 72.21720
168.6286, 72.46871
169.1107, 72.69579
169.5928, 73.03772
170.0750, 73.26633
170.5571, 73.07364
171.0392, 72.10809
171.5213, 71.18035
172.0034, 71.11115
172.4855, 71.73656
172.9677, 72.32933
173.4498, 72.44189
173.9319, 72.23518
174.4140, 71.92146
174.8961, 71.48844
175.3782, 71.04877
175.8604, 70.70373
176.3425, 70.44934
176.8246, 70.26632
177.3067, 70.20847
177.7888, 70.20592
178.2709, 70.11736
178.7531, 69.88535
179.2352, 69.55746
179.7173, 69.19160
180.1994, 68.78693
180.6815, 68.35715
181.1636, 67.85696
181.6458, 67.33116
182.1279, 66.92898
182.6100, 66.69335
183.0921, 66.60975
183.5742, 66.71052
184.0563, 67.00391
184.5385, 67.28033
185.0206, 67.34624
185.5027, 67.21700
185.9848, 66.96061
186.4669, 66.54444
186.9490, 66.02426
187.4312, 65.52993
187.9133, 65.06371
188.3954, 64.66275
188.8775, 64.38210
189.3596, 64.21798
189.8417, 64.13117
190.3239, 64.14693
190.8060, 64.23898
191.2881, 64.28020
191.7702, 64.27240
192.2523, 64.20955
192.7344, 64.08968
193.2166, 63.91365
193.6987, 63.65963
194.1808, 63.26742
194.6629, 62.75756
195.1450, 62.35104
195.6271, 62.05585
196.1093, 61.84271
196.5914, 61.67589
197.0735, 61.55564
197.5556, 61.47340
198.0377, 61.47631
198.5198, 61.56569
199.0020, 61.44259
199.4841, 61.02473
199.9662, 60.53740
200.4483, 60.40268
200.9304, 60.68900
201.4125, 60.90904
201.8947, 60.78075
202.3768, 60.26161
202.8589, 59.96828
203.3410, 59.98717
203.8231, 60.12296
204.3052, 59.95402
204.7874, 59.38446
205.2695, 58.91164
205.7516, 58.81197
206.2337, 59.15751
206.7158, 59.38825
207.1979, 59.49151
207.6801, 59.48596
208.1622, 59.38383
208.6443, 59.14619
209.1264, 58.93107
209.6085, 58.85536
210.0906, 58.99501
210.5728, 58.89989
211.0549, 58.47153
211.5370, 57.87247
212.0191, 57.49612
212.5012, 57.41335
212.9833, 57.37157
213.4655, 57.22085
213.9476, 56.87474
214.4297, 56.76646
214.9118, 57.02653
215.3939, 57.46624
215.8760, 57.59202
216.3581, 57.26746
216.8403, 56.90731
217.3224, 56.72122
217.8045, 56.77555
218.2866, 56.79639
218.7687, 56.78657
219.2508, 56.73528
219.7330, 56.60566
220.2151, 56.36316
220.6972, 56.10368
221.1793, 55.85075
221.6614, 55.53481
222.1435, 55.42578
222.6257, 55.64208
223.1078, 56.03210
223.5899, 56.16198
224.0720, 55.89771
224.5541, 55.58855
225.0362, 55.38081
225.5184, 55.27881
226.0005, 55.29081
226.4826, 55.51020
226.9647, 55.82092
227.4468, 55.88081
227.9289, 55.54953
228.4111, 55.18502
228.8932, 54.94871
229.3753, 54.44939
229.8574, 54.94564
230.3395, 55.20899
230.8216, 55.25196
231.3038, 54.41447
231.7859, 54.71391
232.2680, 54.55772
232.7501, 54.38284
233.2322, 54.84230
233.7143, 54.13287
234.1965, 54.58226
234.6786, 54.56908
235.1607, 54.76760
235.6428, 54.50769
236.1249, 54.38937
236.6070, 54.72964
237.0892, 54.81598
237.5713, 54.50330
238.0534, 54.71528
238.5355, 53.98984
239.0176, 54.08700
239.4997, 54.53908
239.9819, 54.24944
240.4640, 54.46980
240.9461, 54.49593
241.4282, 53.63933
241.9103, 54.31788
242.3924, 54.33253
242.8746, 53.66549
243.3567, 54.29144
243.8388, 53.71838
244.3209, 53.57330
244.8030, 53.75029
245.2851, 53.59153
245.7673, 53.96211
246.2494, 53.82274
246.7315, 53.63780
247.2136, 53.63883
247.6957, 53.19865
248.1778, 53.38331
248.6600, 53.31757
249.1421, 53.24155
249.6242, 53.51416
250.1063, 53.14436
250.5884, 53.41143
251.0705, 53.42428
251.5527, 53.55348
252.0348, 53.43073
252.5169, 53.38580
252.9990, 53.59290
253.4811, 53.66045
253.9632, 53.50869
254.4454, 53.64529
254.9275, 53.26669
255.4096, 53.34018
255.8917, 53.60873
256.3738, 53.46965
256.8560, 53.61085
257.3381, 53.64530
257.8202, 53.19462
258.3023, 53.58764
258.7844, 53.61578
259.2665, 53.26928
259.7487, 53.63339
260.2308, 53.33854
260.7129, 53.27890
261.1950, 53.39626
261.6771, 53.32910
262.1592, 53.55287
262.6414, 53.49637
263.1235, 53.41482
263.6056, 53.44256
264.0877, 53.16063
264.5698, 53.45319
265.0519, 53.35332
265.5341, 53.44852
266.0162, 53.58794
266.4983, 53.38881
266.9804, 53.54809
267.4625, 53.15156
267.9446, 53.22009
268.4268, 53.23855
268.9089, 53.55428
269.3910, 53.16045
269.8731, 53.21606
270.3552, 53.46305
270.8373, 53.44226
271.3195, 53.53344
271.8016, 53.29317
272.2837, 53.36427
272.7658, 53.34954
273.2479, 53.63137
273.7300, 53.43827
274.2122, 53.60112
274.6943, 53.70830
275.1764, 53.71135
275.6585, 53.63066
276.1406, 53.58263
276.6227, 53.58581
277.1049, 53.56217
277.5870, 53.40140
278.0691, 53.08009
278.5512, 52.90520
279.0333, 52.95911
279.5154, 53.17567
279.9976, 53.36643
280.4797, 53.54571
280.9618, 53.62571
281.4439, 53.50021
281.9260, 53.16678
282.4081, 52.87279
282.8903, 52.63143
283.3724, 52.46580
283.8545, 52.46102
284.3366, 52.62939
284.8187, 52.82793
285.3008, 52.95907
285.7830, 53.03091
286.2651, 53.13545
286.7472, 53.29939
287.2293, 53.46544
287.7114, 53.54029
288.1935, 53.52381
288.6757, 53.42247
289.1578, 53.13019
289.6399, 52.71842
290.1220, 52.60826
290.6041, 52.87245
291.0862, 53.27306
291.5684, 53.47783
292.0505, 53.50338
292.5326, 53.50148
293.0147, 53.58563
293.4968, 53.70154
293.9789, 53.65527
294.4611, 53.42123
294.9432, 53.15578
295.4253, 53.03492
295.9074, 53.03898
296.3895, 53.08335
296.8716, 53.15137
297.3538, 53.23185
297.8359, 53.29260
298.3180, 53.33256
298.8001, 53.39032
299.2822, 53.56091
299.7643, 53.78448
300.2465, 53.89686
300.7286, 53.74374
301.2107, 53.51312
301.6928, 53.47894
302.1749, 53.63124
302.6570, 53.81242
303.1392, 53.89559
303.6213, 53.92274
304.1034, 53.96672
304.5855, 54.07009
305.0676, 54.17397
305.5497, 54.23729
306.0319, 54.25651
306.5140, 54.21593
306.9961, 53.99324
307.4782, 53.74588
307.9603, 53.67402
308.4424, 53.88446
308.9246, 54.16615
309.4067, 54.40194
309.8888, 54.58364
310.3709, 54.69196
310.8530, 54.62860
311.3351, 54.53334
311.8173, 54.52963
312.2994, 54.65473
312.7815, 54.81721
313.2636, 55.08027
313.7457, 55.33419
314.2278, 55.37997
314.7100, 54.80093
315.1921, 54.22849
315.6742, 54.12328
316.1563, 54.61805
316.6384, 55.03006
317.1205, 54.92672
317.6027, 54.60669
318.0848, 54.44839
318.5669, 54.78848
319.0490, 55.11744
319.5311, 55.16821
320.0132, 54.91408
320.4954, 54.79493
320.9775, 55.10362
321.4596, 55.51877
321.9417, 55.76314
322.4238, 55.64329
322.9059, 55.48970
323.3881, 55.35508
323.8702, 55.24346
324.3523, 55.16712
324.8344, 55.20039
325.3165, 55.22270
325.7986, 55.16333
326.2808, 54.80712
326.7629, 54.61705
327.2450, 54.69510
327.7271, 54.98080
328.2092, 55.23481
328.6913, 55.44505
329.1735, 55.63218
329.6556, 55.81044
330.1377, 56.00729
330.6198, 56.14381
331.1019, 56.23370
331.5840, 56.25795
332.0662, 56.16295
332.5483, 55.79005
333.0304, 55.20505
333.5125, 55.62605
333.9946, 55.87062
334.4767, 55.94825
334.9589, 55.35889
335.4410, 55.63080
335.9231, 55.55755
336.4052, 55.47015
336.8873, 55.86328
337.3694, 55.37093
337.8516, 55.75644
338.3336, 55.79152
338.8158, 55.98699
339.2979, 55.83517
339.7800, 55.79061
340.2621, 56.09345
340.7442, 56.20393
341.2263, 56.01213
341.7085, 56.21779
342.1906, 55.71331
342.6727, 55.83199
343.1548, 56.21953
343.6369, 56.04519
344.1190, 56.25720
344.6012, 56.32207
345.0833, 55.71823
345.5654, 56.27734
346.0475, 56.33350
346.5296, 55.87327
347.0117, 56.39253
347.4939, 56.00349
347.9760, 55.93865
348.4581, 56.11781
348.9402, 56.04261
349.4223, 56.36842
349.9044, 56.30791
350.3866, 56.21289
350.8687, 56.26850
351.3508, 55.89727
351.8329, 56.31791
352.3150, 56.19763
352.7971, 56.34623
353.2793, 56.55578
353.7614, 56.29868
354.2435, 56.53560
354.7256, 56.00640
355.2077, 56.11825
355.6898, 56.16107
356.1720, 56.61364
356.6541, 56.08817
357.1362, 56.18221
357.6183, 56.54002
358.1004, 56.52875
358.5826, 56.67179
359.0647, 56.35800
359.5468, 56.47337
360.0289, 56.47045
360.5110, 56.87630
360.9931, 56.95944
361.4753, 56.65340
361.9574, 56.34901
362.4395, 56.78428
362.9216, 56.51849
363.4037, 56.63091
363.8858, 56.35272
364.3680, 56.41180
364.8501, 56.46553
365.3322, 56.69214
365.8143, 56.39451
366.2964, 56.77691
366.7785, 56.76627
367.2607, 56.87141
367.7428, 56.96367
368.2249, 56.52850
368.7070, 56.52570
369.1891, 57.14156
369.6712, 56.81392
370.1534, 56.67672
370.6355, 56.67488
371.1176, 57.31194
371.5997, 57.35515
372.0818, 56.68855
372.5639, 57.29745
373.0461, 57.12164
373.5282, 56.69047
374.0103, 56.79115
374.4924, 57.09298
374.9745, 57.24174
375.4566, 57.19580
375.9388, 57.12539
376.4209, 57.04637
376.9030, 56.96847
377.3851, 57.09759
377.8672, 57.50695
378.3493, 57.90234
378.8315, 57.92162
379.3136, 57.55632
379.7957, 57.37909
380.2778, 57.53662
380.7599, 57.90398
381.2420, 58.24361
381.7242, 58.55008
382.2063, 58.71801
382.6884, 58.59850
383.1705, 58.26929
383.6526, 57.96260
384.1347, 57.66979
384.6169, 57.52014
385.0990, 57.84771
385.5811, 58.49743
386.0632, 58.95350
386.5453, 58.80453
387.0274, 58.40162
387.5096, 58.21342
387.9917, 58.24585
388.4738, 58.31881
388.9559, 58.25007
389.4380, 58.15102
389.9201, 58.17286
390.4023, 58.42073
390.8844, 58.73910
391.3665, 59.12678
391.8486, 59.52988
392.3307, 59.73421
392.8128, 59.43948
393.2950, 59.04088
393.7771, 58.82021
394.2592, 58.90144
394.7413, 58.94600
395.2234, 58.74974
395.7055, 58.46723
396.1877, 58.33795
396.6698, 58.56923
397.1519, 58.81329
397.6340, 58.95285
398.1161, 58.96757
398.5982, 59.02667
399.0804, 59.22720
399.5625, 59.42526
400.0446, 59.51300
400.5267, 59.37118
401.0088, 59.29894
401.4909, 59.35950
401.9731, 59.51327
402.4552, 59.58466
402.9373, 59.49712
403.4194, 59.45327
403.9015, 59.57613
404.3836, 59.93621
404.8658, 60.17303
405.3479, 60.24999
405.8300, 60.24850
406.3121, 60.29507
406.7942, 60.39970
407.2763, 60.47169
407.7585, 60.45412
408.2406, 60.37529
408.7227, 60.42266
409.2048, 60.61071
409.6869, 60.79579
410.1690, 60.81488
410.6512, 60.70686
411.1333, 60.67817
411.6154, 60.80409
412.0975, 60.95880
412.5796, 60.87633
413.0617, 60.61875
413.5439, 60.49051
414.0260, 60.84642
414.5081, 61.36799
414.9902, 61.54248
415.4723, 61.30282
415.9544, 61.06369
416.4366, 61.31343
416.9187, 61.75006
417.4008, 61.92045
417.8829, 61.23468
418.3650, 60.59552
418.8471, 60.65849
419.3293, 61.30393
419.8114, 61.81164
420.2935, 61.79977
420.7756, 61.58872
421.2577, 61.37048
421.7398, 61.09196
422.2220, 60.96775
422.7041, 61.10294
423.1862, 61.41277
423.6683, 61.74283
424.1504, 62.28190
424.6325, 62.63619
425.1147, 62.63114
425.5968, 62.21090
426.0789, 61.95176
426.5610, 61.98246
427.0431, 62.05727
427.5252, 61.95707
428.0074, 61.55055
428.4895, 61.28362
428.9716, 61.25817
429.4537, 61.38816
429.9358, 61.38326
430.4179, 61.19481
430.9001, 61.04165
431.3822, 61.09782
431.8643, 61.36951
432.3464, 61.36131
432.8285, 60.99285
433.3106, 60.60290
433.7928, 60.72626
434.2749, 61.28923
434.7570, 61.65830
435.2391, 61.55610
435.7212, 61.20640
436.2033, 61.06713
436.6855, 61.11641
437.1676, 61.11831
437.6497, 60.81414
438.1318, 60.38209
438.6139, 60.10603
439.0960, 60.05608
439.5782, 60.07303
440.0603, 60.06406
440.5424, 60.02544
441.0245, 59.95101
441.5066, 59.77068
441.9887, 59.60837
442.4709, 59.57536
442.9530, 59.66626
443.4351, 59.68586
443.9172, 59.47951
444.3993, 59.22020
444.8814, 59.04026
445.3636, 59.10815
445.8457, 59.05639
446.3278, 58.66048
446.8099, 58.10992
447.2920, 57.87153
447.7741, 58.29848
448.2563, 58.65330
448.7384, 58.68377
449.2205, 58.33515
449.7026, 58.12812
450.1847, 58.17296
450.6668, 58.22539
451.1490, 57.98654
451.6311, 57.29657
452.1132, 56.98479
452.5953, 57.33394
453.0774, 58.01418
453.5595, 58.07276
454.0417, 57.44572
454.5238, 56.78741
455.0059, 56.43817
455.4880, 56.35990
455.9701, 56.37793
456.4522, 56.50391
456.9344, 56.61327
457.4165, 56.55729
457.8986, 56.37511
458.3807, 56.17190
458.8628, 55.94348
459.3449, 55.74961
459.8271, 55.69823
460.3092, 55.75502
460.7913, 55.77119
461.2734, 55.55409
461.7555, 55.32286
462.2376, 55.27800
462.7198, 55.47819
463.2019, 55.72039
463.6840, 55.98092
464.1661, 56.20548
464.6482, 56.32830
465.1303, 56.31113
465.6125, 56.21117
466.0946, 55.96689
466.5767, 55.60621
467.0588, 55.40071
467.5409, 55.46435
468.0230, 55.60421
468.5052, 55.74791
468.9873, 55.92069
469.4694, 56.03566
469.9515, 56.08622
470.4336, 56.08600
470.9157, 56.03741
471.3979, 55.91234
471.8800, 55.84614
472.3621, 55.90858
472.8442, 56.05451
473.3263, 56.01757
473.8084, 55.76512
474.2906, 55.58198
474.7727, 55.72151
475.2548, 56.12169
475.7369, 56.51311
476.2190, 56.89073
476.7011, 57.16968
477.1833, 57.19524
477.6654, 57.03707
478.1475, 56.88727
478.6296, 56.87889
479.1117, 56.88063
479.5938, 56.70402
480.0760, 56.38336
480.5581, 56.15284
481.0402, 56.16450
481.5223, 56.30866
482.0044, 56.51692
482.4865, 56.81440
482.9687, 57.06892
483.4508, 57.22423
483.9329, 57.31339
484.4150, 57.38171
484.8971, 57.48326
485.3792, 57.51733
485.8614, 57.41082
486.3435, 57.17926
486.8256, 57.05353
487.3077, 57.07162
487.7898, 57.15183
488.2719, 57.26890
488.7541, 57.45918
489.2362, 57.55317
489.7183, 57.51562
490.2004, 57.42701
490.6825, 57.38227
491.1646, 57.37486
491.6468, 57.49202
492.1289, 57.82085
492.6110, 58.26018
493.0931, 58.53467
493.5752, 58.64581
494.0573, 58.67146
494.5395, 58.67686
495.0216, 58.63676
495.5037, 58.41883
495.9858, 57.95440
496.4679, 57.64190
496.9500, 58.07136
497.4322, 58.86743
497.9143, 59.39978
498.3964, 59.12221
498.8785, 58.78112
499.3606, 58.85262
499.8427, 59.24796
500.3249, 59.54150
500.8070, 59.44724
501.2891, 59.32427
501.7712, 59.37090
502.2533, 59.67650
502.7354, 59.95113
503.2176, 60.12859
503.6997, 60.28653
504.1818, 60.51378
504.6639, 60.90398
505.1460, 61.18488
505.6281, 61.29496
506.1103, 61.26970
506.5924, 61.22004
507.0745, 61.11656
507.5566, 61.08958
508.0387, 61.20430
508.5208, 61.45805
509.0030, 61.86407
509.4851, 62.46135
509.9672, 62.99020
510.4493, 63.05244
510.9314, 62.79679
511.4135, 62.73688
511.8957, 63.04775
512.3778, 63.52818
512.8599, 64.05658
513.3420, 64.58020
513.8242, 64.94125
514.3063, 64.90594
514.7884, 64.78990
515.2705, 64.83850
515.7526, 65.06871
516.2347, 65.33131
516.7169, 65.59779
517.1990, 65.85421
517.6811, 66.08884
518.1632, 66.26868
518.6453, 66.46679
519.1274, 66.66332
519.6096, 66.88774
520.0917, 67.19202
520.5738, 67.58031
521.0559, 68.04633
521.5380, 68.66029
522.0201, 69.39836
522.5023, 69.78081
522.9844, 69.68987
523.4665, 69.58256
523.9486, 69.82619
524.4307, 70.40218
524.9128, 70.91439
525.3950, 71.32985
525.8771, 71.66760
526.3592, 71.92713
526.8413, 72.12077
527.3234, 72.29914
527.8055, 72.43485
528.2877, 72.60400
528.7698, 72.96810
529.2519, 73.46790
529.7340, 73.86671
530.2161, 73.97079
530.6982, 73.96264
531.1804, 73.95055
531.6625, 73.93246
532.1446, 74.01029
532.6267, 74.43188
533.1088, 74.86086
533.5909, 74.98087
534.0731, 74.24932
534.5552, 73.84007
535.0373, 74.02132
535.5194, 74.55051
536.0015, 74.81413
536.4836, 74.69971
536.9658, 74.53819
537.4479, 74.40659
537.9300, 74.30923
538.4121, 74.42441
538.8942, 74.81683
539.3763, 75.14201
539.8585, 75.02649
540.3406, 74.55433
540.8227, 74.23265
541.3048, 74.15303
541.7869, 74.12289
542.2690, 73.92583
542.7512, 73.58990
543.2333, 73.18462
543.7154, 72.68530
544.1975, 72.17355
544.6796, 71.68046
545.1617, 71.21826
545.6439, 70.86103
546.1260, 70.76728
546.6081, 70.69254
547.0902, 70.46940
547.5723, 70.02859
548.0544, 69.66903
548.5366, 69.54323
549.0187, 69.45052
549.5008, 69.21594
549.9829, 68.79394
550.4650, 68.30284
550.9471, 67.69263
551.4293, 67.05251
551.9114, 66.61983
552.3935, 66.45428
552.8756, 66.20757
553.3577, 65.72554
553.8398, 65.05533
554.3220, 64.39379
554.8041, 63.73751
555.2862, 63.11886
555.7683, 62.56626
556.2504, 62.06367
556.7325, 61.54933
557.2147, 61.00010
557.6968, 60.52356
558.1789, 60.34167
558.6610, 60.25701
559.1431, 59.98051
559.6252, 59.19552
560.1074, 58.41931
560.5895, 57.84972
561.0716, 57.44890
561.5537, 57.10057
562.0358, 56.89954
562.5179, 56.62691
563.0001, 56.16401
563.4822, 55.48148
563.9643, 54.95477
564.4464, 54.63181
564.9285, 54.39729
565.4106, 54.17487
565.8928, 53.96791
566.3749, 53.74796
566.8570, 53.51204
567.3391, 53.25951
567.8212, 52.97062
568.3033, 52.65195
568.7855, 52.36979
569.2676, 52.13707
569.7497, 51.95875
570.2318, 51.93309
570.7139, 51.99906
571.1960, 51.88743
571.6782, 51.10445
572.1603, 50.30483
572.6424, 50.13104
573.1245, 50.67791
573.6066, 51.12263
574.0887, 51.08486
574.5709, 50.86011
575.0530, 50.67821
575.5351, 50.53513
576.0172, 50.48717
576.4993, 50.60529
576.9814, 50.78520
577.4636, 50.85975
577.9457, 50.81379
578.4278, 50.68917
578.9099, 50.43713
579.3920, 50.13403
579.8741, 50.10719
580.3563, 50.37359
580.8384, 50.69270
581.3205, 50.97343
581.8026, 51.19510
582.2847, 51.23751
582.7668, 51.09406
583.2490, 50.97669
583.7311, 51.15899
584.2132, 51.43705
584.6953, 51.50672
585.1774, 51.15434
585.6595, 50.92713
586.1416, 51.24360
586.6237, 51.83259
587.1058, 52.28782
587.5880, 52.51049
588.0701, 52.59402
588.5522, 52.43958
589.0343, 52.13014
589.5164, 52.07003
589.9985, 52.42628
590.4807, 52.74980
590.9628, 52.83959
591.4449, 52.68982
591.9270, 52.58474
592.4091, 52.52058
592.8912, 52.51487
593.3734, 52.61760
593.8555, 52.80205
594.3376, 52.91846
594.8197, 52.92033
595.3018, 52.95678
595.7839, 53.29155
596.2661, 53.76904
596.7482, 54.08770
597.2303, 53.99648
597.7124, 53.85451
598.1945, 53.87779
598.6766, 54.02030
599.1588, 54.14787
599.6409, 54.24418
600.1230, 54.29677
600.6051, 54.28727
601.0872, 54.21228
601.5693, 54.13739
602.0515, 54.00776
602.5336, 53.95261
603.0157, 54.07471
603.4978, 54.41082
603.9799, 54.69900
604.4620, 54.92910
604.9442, 55.12339
605.4263, 55.37622
605.9084, 55.64571
606.3905, 55.61774
606.8726, 55.06270
607.3547, 54.49013
607.8369, 54.65849
608.3190, 55.31871
608.8011, 55.84070
609.2832, 55.77960
609.7653, 55.60276
610.2474, 55.57243
610.7296, 55.68352
611.2117, 55.83543
611.6938, 56.11602
612.1759, 56.33371
612.6580, 56.37960
613.1401, 56.21576
613.6223, 56.03778
614.1044, 55.78277
614.5865, 55.60022
615.0686, 55.67675
615.5507, 56.05851
616.0328, 56.27636
616.5150, 56.24952
616.9971, 56.13118
617.4792, 56.12185
617.9613, 56.21593
618.4434, 56.40468
618.9255, 56.80569
619.4077, 57.15275
619.8898, 57.01218
620.3719, 56.54007
620.8540, 56.22598
621.3361, 56.48737
621.8182, 56.82992
622.3004, 56.96769
622.7825, 56.88876
623.2646, 56.84229
623.7467, 56.80523
624.2288, 56.87426
624.7109, 57.13078
625.1931, 57.68900
625.6752, 58.03485
626.1573, 58.12336
626.6394, 58.07729
627.1215, 57.99114
627.6036, 57.86310
628.0858, 57.79071
628.5679, 57.79549
629.0500, 57.84313
629.5321, 57.84264
630.0142, 57.83566
630.4963, 57.96025
630.9785, 58.40487
631.4606, 58.87286
631.9427, 59.06620
632.4248, 59.06276
632.9069, 59.11058
633.3890, 59.42793
633.8712, 59.71451
634.3533, 59.81122
634.8354, 59.69493
635.3175, 59.62735
635.7996, 59.58494
636.2817, 59.62831
636.7639, 59.82686
637.2460, 60.24084
637.7281, 60.47817
638.2102, 60.50473
638.6923, 60.45268
639.1744, 60.44747
639.6566, 60.48641
640.1387, 60.55678
640.6208, 60.65536
641.1029, 60.78260
641.5850, 60.87502
642.0671, 61.00173
642.5493, 61.30432
643.0314, 62.29247
643.5135, 63.02997
643.9956, 62.74546
644.4777, 61.78429
644.9598, 61.22453
645.4420, 61.63848
645.9241, 62.15765
646.4062, 62.57160
646.8883, 62.87828
647.3704, 63.02456
647.8525, 62.96130
648.3347, 62.84326
648.8168, 62.74269
649.2989, 62.65895
649.7810, 62.64642
650.2631, 62.71511
650.7452, 62.76870
651.2274, 62.65339
651.7095, 62.46387
652.1916, 62.39959
652.6737, 62.51165
653.1558, 62.69875
653.6379, 62.98480
654.1201, 63.26952
654.6022, 63.42309
655.0843, 63.39600
655.5664, 63.24681
656.0485, 62.80433
656.5306, 62.26975
657.0128, 62.09710
657.4949, 62.45618
657.9770, 62.86975
658.4591, 63.28347
658.9412, 63.65200
659.4233, 63.70301
659.9055, 63.40259
660.3876, 63.16333
660.8697, 63.31665
661.3518, 63.67751
661.8339, 63.75387
662.3160, 63.56049
662.7982, 63.36076
663.2803, 63.38918
663.7624, 63.47447
664.2445, 63.43933
664.7266, 63.24085
665.2087, 63.05063
665.6909, 62.86418
666.1730, 62.74665
666.6551, 62.76331
667.1372, 63.05034
667.6193, 63.22091
668.1014, 63.20977
668.5836, 63.14502
669.0657, 63.22049
669.5478, 63.45112
670.0299, 63.63197
670.5120, 63.71022
670.9941, 63.73840
671.4763, 63.80959
671.9584, 63.91215
672.4405, 64.00120
672.9226, 64.06884
673.4047, 64.10577
673.8868, 64.09165
674.3690, 64.03739
674.8511, 63.98107
675.3332, 63.91926
675.8153, 63.87526
676.2974, 63.85472
676.7795, 63.85830
677.2617, 63.90240
677.7438, 64.03416
678.2259, 64.13465
678.7080, 64.14291
679.1901, 64.05495
679.6722, 63.89827
680.1544, 63.65289
680.6365, 63.44331
681.1186, 63.39012
681.6007, 63.46036
682.0828, 63.60348
682.5649, 63.83524
683.0471, 63.99396
683.5292, 63.81460
684.0113, 63.53403
684.4934, 63.44548
684.9755, 63.75502
685.4576, 64.06113
685.9398, 64.25892
686.4219, 64.39582
686.9040, 64.57242
687.3861, 64.92165
687.8682, 65.02126
688.3503, 64.70506
688.8325, 64.17297
689.3146, 63.95952
689.7967, 64.06904
690.2788, 64.23119
690.7609, 64.39163
691.2430, 64.49612
691.7252, 64.34338
692.2073, 64.00938
692.6894, 63.84411
693.1715, 64.27055
693.6536, 64.76142
694.1357, 64.90829
694.6179, 64.70544
695.1000, 64.54208
695.5821, 64.46775
696.0642, 64.49828
696.5463, 64.67400
697.0284, 65.03846
697.5106, 65.24771
697.9927, 65.26693
698.4748, 65.21396
698.9569, 65.14835
699.4390, 65.08202
699.9211, 65.11415
700.4033, 65.25448
700.8854, 65.48042
701.3675, 65.85463
701.8496, 66.27517
702.3317, 66.56558
702.8138, 66.62927
703.2960, 66.69984
703.7781, 66.84360
704.2602, 67.07882
704.7423, 67.42776
705.2244, 68.14587
705.7065, 68.63610
706.1887, 68.74751
706.6708, 68.66905
707.1529, 68.73946
707.6350, 68.96545
708.1171, 69.30859
708.5992, 69.80254
709.0814, 70.35413
709.5635, 70.73343
710.0456, 70.98829
710.5277, 71.33667
711.0098, 71.99532
711.4919, 72.70858
711.9741, 73.22768
712.4562, 73.59804
712.9383, 74.02334
713.4204, 74.57310
713.9025, 75.19949
714.3846, 75.91579
714.8668, 76.72002
715.3489, 77.46584
715.8310, 78.15397
716.3131, 78.79247
716.7952, 79.34165
717.2773, 79.81593
717.7595, 80.53838
718.2416, 81.51905
718.7237, 82.52592
719.2058, 83.36546
719.6879, 84.11409
720.1700, 84.85544
720.6522, 85.60177
721.1343, 86.39964
721.6164, 87.37383
722.0985, 88.35572
722.5806, 89.21079
723.0627, 89.78491
723.5449, 90.53436
724.0270, 91.58889
724.5091, 92.72787
724.9912, 93.71833
725.4733, 94.51866
725.9554, 95.53008
726.4376, 96.84968
726.9197, 98.20982
727.4018, 99.15833
727.8839, 99.82403
728.3660, 100.6222
728.8481, 101.7168
729.3303, 102.8629
729.8124, 103.8410
730.2945, 104.7290
730.7766, 105.6357
731.2587, 106.5540
731.7408, 107.5540
732.2230, 108.7236
732.7051, 109.9686
733.1872, 111.1256
733.6693, 112.1861
734.1514, 113.1468
734.6335, 113.9894
735.1157, 114.7471
735.5978, 115.5214
736.0799, 116.3019
736.5620, 116.9961
737.0441, 117.5224
737.5262, 117.9723
738.0084, 118.3926
738.4905, 118.8206
738.9726, 119.3819
739.4547, 120.4451
739.9368, 121.3511
740.4189, 121.7391
740.9011, 121.6257
741.3832, 121.5665
741.8653, 121.5010
742.3474, 120.6338
742.8295, 121.9515
743.3116, 122.8572
743.7938, 123.3717
744.2759, 122.4029
744.7580, 123.2880
745.2401, 123.3927
745.7222, 123.4397
746.2043, 124.5091
746.6865, 123.6184
747.1686, 124.6177
747.6507, 124.8251
748.1328, 125.3559
748.6149, 125.1016
749.0970, 125.0548
749.5792, 125.7397
750.0613, 125.9779
750.5434, 125.5292
751.0255, 125.9217
751.5076, 124.7367
751.9897, 124.8857
752.4719, 125.5949
752.9540, 125.0506
753.4361, 125.3230
753.9182, 125.2474
754.4003, 124.9378
754.8824, 125.3629
755.3646, 125.4062
755.8467, 124.3558
756.3288, 122.9002
756.8109, 121.7507
757.2930, 121.4169
757.7751, 120.5137
758.2573, 118.7676
758.7394, 116.6210
759.2215, 114.4051
759.7036, 112.0481
760.1857, 109.3020
760.6678, 108.9566
761.1500, 108.2255
761.6321, 107.1303
762.1142, 104.5787
762.5963, 103.9076
763.0784, 102.4828
763.5605, 101.0273
764.0427, 100.6206
764.5248, 98.28088
765.0069, 97.85783
765.4890, 96.66962
765.9711, 95.83160
766.4532, 94.23542
766.9354, 92.87299
767.4175, 92.26958
767.8996, 91.24600
768.3817, 89.29762
768.8638, 88.31631
769.3459, 87.46697
769.8281, 86.69901
770.3102, 86.00899
770.7923, 85.38676
771.2744, 84.83179
771.7565, 84.33791
772.2386, 83.93542
772.7208, 83.57814
773.2029, 83.18579
773.6850, 82.76174
774.1671, 82.26869
774.6492, 81.69170
775.1313, 81.04898
775.6135, 80.36663
776.0956, 79.64332
776.5777, 78.92167
777.0598, 78.19359
777.5419, 77.50260
778.0240, 76.91129
778.5062, 76.41164
778.9883, 75.97860
779.4704, 75.72328
779.9525, 75.41353
780.4346, 74.89009
780.9167, 74.20686
781.3989, 73.48593
781.8810, 72.51089
782.3631, 71.81630
782.8452, 71.65318
783.3273, 71.78745
783.8094, 71.48478
784.2916, 70.70104
784.7737, 69.90207
785.2558, 69.20133
785.7379, 68.62614
786.2200, 68.30663
786.7021, 68.17305
787.1843, 68.00680
787.6664, 67.76994
788.1485, 67.39973
788.6306, 66.78999
789.1127, 66.00378
789.5948, 65.29400
790.0770, 64.61624
790.5591, 64.11945
791.0412, 63.92773
791.5233, 63.91418
792.0054, 63.58241
792.4875, 62.92815
792.9697, 62.25273
793.4518, 61.65269
793.9339, 61.14572
794.4160, 60.89550
794.8981, 60.79355
795.3802, 60.47951
795.8624, 59.53511
796.3445, 58.58432
796.8266, 57.91953
797.3087, 57.51491
797.7908, 57.16007
798.2729, 56.89742
798.7551, 56.59397
799.2372, 56.17222
799.7193, 55.69323
800.2014, 55.40772
800.6835, 55.30184
801.1656, 55.16002
801.6478, 54.87902
802.1299, 54.50200
802.6120, 54.04823
803.0941, 53.53581
803.5762, 53.01310
804.0583, 52.49083
804.5405, 51.97561
805.0226, 51.43117
805.5047, 50.88845
805.9868, 50.49273
806.4689, 50.29091
806.9510, 50.10478
807.4332, 49.89506
807.9153, 49.64455
808.3974, 49.29137
808.8795, 48.84954
809.3616, 48.39655
809.8438, 47.88703
810.3259, 47.46271
810.8080, 47.33239
811.2901, 47.39857
811.7722, 47.33595
812.2543, 46.89998
812.7365, 46.51105
813.2186, 46.29417
813.7007, 46.19682
814.1828, 46.02613
814.6649, 45.76889
815.1470, 45.53420
815.6292, 45.37380
816.1113, 45.24984
816.5934, 45.13554
817.0755, 45.00414
817.5576, 44.77107
818.0397, 44.22364
818.5219, 43.73787
819.0040, 43.60540
819.4861, 43.69802
819.9682, 43.58352
820.4503, 43.07814
820.9324, 42.64089
821.4146, 42.36636
821.8967, 42.22834
822.3788, 42.23259
822.8609, 42.36353
823.3430, 42.36126
823.8251, 42.03057
824.3073, 41.65738
824.7894, 41.63586
825.2715, 41.82825
825.7536, 41.93374
826.2357, 41.81318
826.7178, 41.62113
827.2000, 41.32328
827.6821, 41.00237
828.1642, 40.82795
828.6463, 40.83726
829.1284, 40.86058
829.6105, 40.87419
830.0927, 40.86514
830.5748, 40.81538
831.0569, 40.72352
831.5390, 40.57108
832.0211, 40.26577
832.5032, 40.03986
832.9854, 40.15912
833.4675, 40.43547
833.9496, 40.58152
834.4317, 40.37816
834.9138, 40.27131
835.3959, 40.35602
835.8781, 40.48541
836.3602, 40.39944
836.8423, 40.09991
837.3244, 39.89293
837.8065, 39.85286
838.2886, 39.86691
838.7708, 39.78113
839.2529, 39.66364
839.7350, 39.62269
840.2171, 39.68383
840.6992, 39.83306
841.1813, 40.22153
841.6635, 40.60448
842.1456, 40.71958
842.6277, 40.47601
843.1098, 40.21885
843.5919, 39.93663
844.0740, 39.72290
844.5562, 39.71599
845.0383, 39.86961
845.5204, 40.08973
846.0025, 40.38666
846.4846, 40.56577
846.9667, 40.43730
847.4489, 40.15322
847.9310, 39.83382
848.4131, 39.42498
848.8952, 39.19049
849.3773, 39.19799
849.8594, 39.28682
850.3416, 39.33222
850.8237, 39.33659
851.3058, 39.41269
851.7879, 39.56863
852.2700, 39.74100
852.7521, 39.97733
853.2343, 40.14740
853.7164, 40.00305
854.1985, 39.50637
854.6806, 39.21240
855.1627, 39.57888
855.6448, 39.94031
856.1270, 39.93269
856.6091, 39.54610
857.0912, 39.29201
857.5733, 39.18059
858.0554, 39.15411
858.5375, 39.23763
859.0197, 39.36167
859.5018, 39.35822
859.9839, 39.24337
860.4660, 39.12276
860.9481, 38.94802
861.4302, 38.88195
861.9124, 39.10165
862.3945, 39.56741
862.8766, 39.81724
863.3587, 39.76633
863.8408, 39.68789
864.3229, 39.67973
864.8051, 39.70690
865.2872, 39.66243
865.7693, 39.55428
866.2514, 39.43013
866.7335, 39.31431
867.2156, 39.19208
867.6978, 39.05394
868.1799, 38.90253
868.6620, 38.74150
869.1441, 38.40425
869.6262, 38.30143
870.1083, 38.60102
870.5905, 39.07690
871.0726, 39.23676
871.5547, 39.09307
872.0368, 39.07486
872.5189, 39.35540
873.0010, 39.61235
873.4832, 39.37038
873.9653, 38.87935
874.4474, 38.54425
874.9295, 38.48159
875.4116, 38.57418
875.8937, 38.92567
876.3759, 39.33584
876.8580, 39.62463
877.3401, 39.78440
877.8222, 39.86558
878.3043, 39.87387
878.7864, 39.79116
879.2686, 39.53606
879.7507, 39.19530
880.2328, 38.91187
880.7149, 38.70298
881.1970, 38.58862
881.6791, 38.62851
882.1613, 38.73015
882.6434, 38.85149
883.1255, 39.00813
883.6076, 39.03809
884.0897, 38.90601
884.5718, 38.76323
885.0540, 38.71220
885.5361, 38.73066
886.0182, 38.77299
886.5003, 38.83028
886.9824, 38.83825
887.4645, 38.67576
887.9467, 38.52409
888.4288, 38.51951
888.9109, 38.64989
889.3930, 38.71733
889.8751, 38.66420
890.3572, 38.66431
890.8394, 38.80309
891.3215, 39.00810
891.8036, 39.09495
892.2857, 39.06532
892.7678, 38.92268
893.2499, 38.53402
893.7321, 38.19909
894.2142, 38.15478
894.6963, 38.31943
895.1784, 38.53891
895.6605, 38.94575
896.1426, 39.16319
896.6248, 39.11597
897.1069, 38.91929
897.5890, 38.71611
898.0711, 38.51001
898.5532, 38.34333
899.0353, 38.21322
899.5175, 38.16683
899.9996, 38.26808
900.4817, 38.46842
900.9638, 38.74239
901.4459, 39.19466
901.9280, 39.39066
902.4102, 39.12621
902.8923, 38.79997
903.3744, 38.69999
903.8565, 38.83073
904.3386, 38.92728
904.8207, 38.98952
905.3029, 38.95274
905.7850, 38.65639
906.2671, 38.30515
906.7492, 38.08453
907.2313, 38.01246
907.7134, 38.10955
908.1956, 38.64698
908.6777, 39.05501
909.1598, 39.10393
909.6419, 38.87474
910.1240, 38.75471
910.6061, 38.74504
911.0883, 38.79368
911.5704, 38.93124
912.0525, 39.05242
912.5346, 38.96458
913.0167, 38.76213
913.4988, 38.64994
913.9810, 38.81828
914.4631, 38.93331
914.9452, 38.89884
915.4273, 38.79679
915.9094, 38.72959
916.3915, 38.69581
916.8737, 38.74490
917.3558, 38.90632
917.8379, 39.04793
918.3200, 38.96429
918.8021, 38.78594
919.2842, 38.72070
919.7664, 38.84193
920.2485, 38.91630
920.7306, 38.79047
921.2127, 38.66692
921.6948, 38.67870
922.1769, 38.83751
922.6591, 38.95900
923.1412, 39.04673
923.6233, 39.05948
924.1054, 38.90251
924.5875, 38.69161
925.0696, 38.57936
925.5518, 38.56273
926.0339, 38.59707
926.5160, 38.68434
926.9981, 38.80226
927.4802, 38.97218
927.9623, 39.15822
928.4445, 39.24344
928.9266, 39.22140
929.4087, 39.17129
929.8908, 39.09307
930.3729, 39.04548
930.8550, 39.13441
931.3372, 39.30488
931.8193, 39.46072
932.3014, 39.60963
932.7835, 39.68183
933.2656, 39.66248
933.7477, 39.55928
934.2299, 39.32697
934.7120, 38.93299
935.1941, 38.75092
935.6762, 38.80976
936.1583, 38.98893
936.6404, 39.28344
937.1226, 39.57425
937.6047, 39.67455
938.0868, 39.56811
938.5689, 39.46154
939.0510, 39.39426
939.5331, 39.37257
940.0153, 39.43586
940.4974, 39.55259
940.9795, 39.45288
941.4616, 39.13051
941.9437, 38.93045
942.4258, 39.10884
942.9080, 39.38097
943.3901, 39.36149
943.8722, 39.17792
944.3543, 39.10327
944.8364, 39.39273
945.3185, 39.56455
945.8007, 39.47230
946.2828, 39.30908
946.7649, 39.36618
947.2470, 39.63588
947.7291, 39.79314
948.2112, 39.78499
948.6934, 39.73913
949.1755, 39.79364
949.6576, 39.86644
950.1397, 39.85130
950.6218, 39.71072
951.1039, 39.63058
951.5861, 39.65356
952.0682, 39.70978
952.5503, 39.76331
953.0324, 39.82013
953.5145, 39.97224
953.9966, 40.20198
954.4788, 40.30524
954.9609, 39.98988
955.4430, 39.66164
955.9251, 39.71280
956.4072, 40.00563
956.8893, 40.16183
957.3715, 39.99196
957.8536, 39.92661
958.3357, 40.06859
958.8178, 40.26444
959.2999, 40.23008
959.7820, 40.02461
960.2642, 39.92469
960.7463, 39.99213
961.2284, 40.10563
961.7105, 40.25858
962.1926, 40.36316
962.6747, 40.29119
963.1569, 39.94740
963.6390, 39.93428
964.1211, 40.41681
964.6032, 40.77811
965.0853, 40.46844
965.5674, 39.79063
966.0496, 39.67997
966.5317, 40.03766
967.0138, 40.38483
967.4959, 40.46894
967.9780, 40.48023
968.4601, 40.53112
968.9423, 40.56596
969.4244, 40.41011
969.9065, 39.95641
970.3886, 39.80479
970.8707, 40.12975
971.3528, 40.56780
971.8350, 40.62821
972.3171, 40.45353
972.7992, 40.30031
973.2813, 40.22112
973.7634, 40.14453
974.2455, 40.02875
974.7277, 39.92245
975.2098, 39.88077
975.6919, 39.90615
976.1740, 39.74937
976.6561, 39.40030
977.1382, 39.08851
977.6204, 38.98560
978.1025, 38.97374
978.5846, 38.94361
979.0667, 38.88702
979.5488, 38.78213
980.0309, 38.55245
980.5131, 38.36768
980.9952, 38.25560
981.4773, 38.19839
981.9594, 38.17788
982.4415, 38.18988
982.9236, 38.22540
983.4058, 38.30024
983.8879, 38.27974
984.3700, 37.88935
984.8521, 37.45401
985.3342, 37.32027
985.8163, 37.62499
986.2985, 37.73452
986.7806, 37.58394
987.2627, 37.37392
987.7448, 37.19112
988.2269, 37.03492
988.7090, 36.88484
989.1912, 36.75471
989.6733, 36.70088
990.1554, 36.88369
990.6375, 37.00626
991.1196, 36.83373
991.6017, 36.54290
992.0839, 36.45320
992.5660, 36.62345
993.0481, 36.73161
993.5302, 36.73541
994.0123, 36.69473
994.4944, 36.62958
994.9766, 36.58546
995.4587, 36.68030
995.9408, 36.94155
996.4229, 37.07213
996.9050, 36.77700
997.3871, 36.54240
997.8693, 36.62581
998.3514, 36.94666
998.8335, 36.99191
999.3156, 36.77692
999.7977, 36.55880
1000.280, 36.41524
1000.762, 36.37038
1001.244, 36.55436
1001.726, 36.82464
1002.208, 36.93721
1002.690, 36.69685
1003.173, 36.56740
1003.655, 36.60480
1004.137, 36.66998
1004.619, 36.58720
1005.101, 36.41327
1005.583, 36.37729
1006.065, 36.48479
1006.547, 36.55745
1007.029, 36.46972
1007.512, 36.33320
1007.994, 36.15693
1008.476, 35.97698
1008.958, 35.99705
1009.440, 36.26360
1009.922, 36.42291
1010.404, 36.32214
1010.886, 36.16814
1011.369, 36.29805
1011.851, 36.56370
1012.333, 36.70942
1012.815, 36.62490
1013.297, 36.52797
1013.779, 36.39301
1014.261, 36.33731
1014.743, 36.52356
1015.225, 36.92644
1015.708, 36.95167
1016.190, 36.62029
1016.672, 36.27362
1017.154, 36.08652
1017.636, 36.01451
1018.118, 36.10952
1018.600, 36.29652
1019.082, 36.32274
1019.565, 36.06222
1020.047, 35.96049
1020.529, 36.12797
1021.011, 36.37635
1021.493, 36.42626
1021.975, 36.36768
1022.457, 36.42852
1022.939, 36.67447
1023.421, 36.78535
1023.904, 36.44779
1024.386, 36.10772
1024.868, 35.98567
1025.350, 36.06520
1025.832, 36.22258
1026.314, 36.45692
1026.796, 36.66862
1027.278, 36.83157
1027.760, 36.92619
1028.243, 36.92595
1028.725, 36.84792
1029.207, 36.71725
1029.689, 36.48842
1030.171, 36.28761
1030.653, 36.10772
1031.135, 35.97307
1031.617, 35.90026
1032.100, 35.89339
1032.582, 36.01080
1033.064, 36.23734
1033.546, 36.37320
1034.028, 36.25468
1034.510, 36.07841
1034.992, 35.88311
1035.474, 35.71069
1035.957, 35.71082
1036.439, 35.89376
1036.921, 36.06335
1037.403, 36.16782
1037.885, 36.26744
1038.367, 36.50179
1038.849, 36.73457
1039.331, 36.76747
1039.813, 36.50303
1040.296, 36.30838
1040.778, 36.20525
1041.260, 36.17422
1041.742, 36.22921
1042.224, 36.34026
1042.706, 36.44178
1043.188, 36.51358
1043.670, 36.48186
1044.152, 36.13557
1044.635, 35.88085
1045.117, 35.92574
1045.599, 36.13833
1046.081, 36.39692
1046.563, 36.73824
1047.045, 36.80860
1047.527, 36.56911
1048.009, 36.26739
1048.492, 36.08874
1048.974, 35.98948
1049.456, 35.92173
1049.938, 35.88586
1050.420, 35.93013
1050.902, 36.12032
1051.384, 36.27282
1051.866, 36.37005
1052.349, 36.36586
1052.831, 36.03823
1053.313, 35.54341
1053.795, 35.33997
1054.277, 35.60157
1054.759, 35.90133
1055.241, 36.13738
1055.723, 36.25103
1056.205, 36.16630
1056.688, 35.89189
1057.170, 35.82094
1057.652, 35.95356
1058.134, 36.06194
1058.616, 35.94736
1059.098, 35.84280
1059.580, 36.06151
1060.062, 36.42295
1060.544, 36.57790
1061.027, 36.35323
1061.509, 36.17659
1061.991, 36.06275
1062.473, 36.00209
1062.955, 36.02584
1063.437, 36.08344
1063.919, 36.03678
1064.401, 35.89665
1064.884, 35.81406
1065.366, 35.92149
1065.848, 36.01820
1066.330, 36.02774
1066.812, 35.99592
1067.294, 36.03612
1067.776, 36.13831
1068.258, 36.20194
1068.740, 36.20753
1069.223, 36.16303
1069.705, 36.01488
1070.187, 35.86311
1070.669, 35.80582
1071.151, 35.85187
1071.633, 35.88400
1072.115, 35.91606
1072.597, 35.85070
1073.079, 35.54936
1073.562, 35.25429
1074.044, 35.43892
1074.526, 35.87528
1075.008, 36.13768
1075.490, 35.94896
1075.972, 35.85099
1076.454, 35.90886
1076.936, 36.03065
1077.419, 36.18612
1077.901, 36.34754
1078.383, 36.33878
1078.865, 36.18993
1079.347, 36.11718
1079.829, 36.36218
1080.311, 36.57482
1080.793, 36.55859
1081.275, 36.42580
1081.758, 36.33064
1082.240, 36.27053
1082.722, 36.30497
1083.204, 36.45480
1083.686, 36.56635
1084.168, 36.41887
1084.650, 36.23499
1085.132, 36.25778
1085.615, 36.49126
1086.097, 36.58883
1086.579, 36.48360
1087.061, 36.43309
1087.543, 36.53146
1088.025, 36.67749
1088.507, 36.75527
1088.989, 36.74881
1089.471, 36.60944
1089.953, 36.28358
1090.436, 35.98333
1090.918, 35.66758
1091.400, 35.50863
1091.882, 35.65577
1092.364, 36.02246
1092.846, 36.22765
1093.328, 36.28911
1093.810, 36.30022
1094.293, 36.27124
1094.775, 36.24432
1095.257, 36.27212
1095.739, 36.28852
1096.221, 36.19785
1096.703, 35.97052
1097.185, 35.92617
1097.667, 36.07518
1098.150, 36.22035
1098.632, 36.16436
1099.114, 36.08419
1099.596, 36.13662
1100.078, 36.29195
1100.560, 36.45650
1101.042, 36.68445
1101.524, 36.71823
1102.006, 36.48540
1102.489, 36.18499
1102.971, 36.01317
1103.453, 35.93251
1103.935, 35.87949
1104.417, 35.84968
1104.899, 35.91620
1105.381, 36.27753
1105.863, 36.45233
1106.345, 36.25324
1106.828, 35.87186
1107.310, 35.69341
1107.792, 35.67979
1108.274, 35.72011
1108.756, 35.78589
1109.238, 35.91901
1109.720, 36.30284
1110.202, 36.58778
1110.685, 36.52428
1111.167, 36.17850
1111.649, 36.07793
1112.131, 36.19656
1112.613, 36.26986
1113.095, 36.14873
1113.577, 36.00988
1114.059, 35.98450
1114.542, 36.00857
1115.024, 35.98357
1115.506, 35.85425
1115.988, 36.01458
1116.470, 36.50769
1116.952, 36.85441
1117.434, 36.57372
1117.916, 36.10751
1118.398, 35.87774
1118.880, 35.84983
1119.363, 35.94737
1119.845, 36.29051
1120.327, 36.44706
1120.809, 36.34314
1121.291, 36.19285
1121.773, 36.23684
1122.255, 36.36865
1122.737, 36.37394
1123.220, 36.26944
1123.702, 36.24065
1124.184, 36.46891
1124.666, 36.60434
1125.148, 36.53527
1125.630, 36.42074
1126.112, 36.56490
1126.594, 36.87241
1127.077, 37.04216
1127.559, 37.02893
1128.041, 36.98542
1128.523, 36.97092
1129.005, 36.96166
1129.487, 36.95669
1129.969, 36.94466
1130.451, 36.83508
1130.933, 36.65949
1131.416, 36.68850
1131.898, 37.04203
1132.380, 37.40730
1132.862, 37.62184
1133.344, 37.71992
1133.826, 37.69946
1134.308, 37.57294
1134.790, 37.52242
1135.272, 37.54867
1135.755, 37.62518
1136.237, 37.77100
1136.719, 37.91035
1137.201, 37.95580
1137.683, 37.96008
1138.165, 37.98999
1138.647, 38.05352
1139.129, 38.13368
1139.612, 38.23431
1140.094, 38.32780
1140.576, 38.43987
1141.058, 38.49823
1141.540, 38.35131
1142.022, 38.08992
1142.504, 37.90337
1142.986, 37.78264
1143.469, 37.84996
1143.951, 38.15393
1144.433, 38.50817
1144.915, 38.81690
1145.397, 39.03673
1145.879, 39.05265
1146.361, 38.90205
1146.843, 38.74448
1147.325, 38.54222
1147.807, 38.47439
1148.290, 38.59019
1148.772, 38.79348
1149.254, 39.01134
1149.736, 39.21469
1150.218, 39.29551
1150.700, 39.26310
1151.182, 39.30944
1151.664, 39.63892
1152.147, 39.90283
1152.629, 39.99170
1153.111, 39.97797
1153.593, 40.00752
1154.075, 40.05186
1154.557, 39.94810
1155.039, 39.65786
1155.521, 39.48799
1156.004, 39.72827
1156.486, 40.00044
1156.968, 40.11137
1157.450, 40.12397
1157.932, 40.30646
1158.414, 40.60778
1158.896, 40.58441
1159.378, 40.02835
1159.860, 39.63517
1160.343, 40.09051
1160.825, 40.68086
1161.307, 40.90164
1161.789, 40.79648
1162.271, 40.68648
1162.753, 40.57545
1163.235, 40.56862
1163.717, 40.75187
1164.199, 40.92806
1164.682, 40.87877
1165.164, 40.78080
1165.646, 40.82825
1166.128, 41.03481
1166.610, 41.13076
1167.092, 41.11116
1167.574, 41.08939
1168.056, 41.13540
1168.539, 41.18089
1169.021, 41.10296
1169.503, 41.01546
1169.985, 41.11079
1170.467, 41.47371
1170.949, 41.63322
1171.431, 41.57171
1171.913, 41.46151
1172.396, 41.36516
1172.878, 41.31971
1173.360, 41.41102
1173.842, 41.56911
1174.324, 41.65296
1174.806, 41.60830
1175.288, 41.59419
1175.770, 41.60340
1176.252, 41.69751
1176.734, 42.07444
1177.217, 42.45179
1177.699, 42.37165
1178.181, 41.99868
1178.663, 41.84008
1179.145, 42.08274
1179.627, 42.23158
1180.109, 42.22694
1180.591, 42.22381
1181.074, 42.42831
1181.556, 42.68917
1182.038, 42.82349
1182.520, 42.82456
1183.002, 42.68852
1183.484, 42.18915
1183.966, 42.10394
1184.448, 42.64651
1184.931, 43.25972
1185.413, 43.20910
1185.895, 42.86119
1186.377, 42.86764
1186.859, 43.20872
1187.341, 43.31171
1187.823, 42.87933
1188.305, 42.59169
1188.787, 42.59780
1189.270, 42.73514
1189.752, 42.79682
1190.234, 42.82581
1190.716, 42.91860
1191.198, 43.08044
1191.680, 43.16357
1192.162, 43.09113
1192.644, 43.02359
1193.126, 42.98864
1193.609, 42.99746
1194.091, 43.09686
1194.573, 43.24256
1195.055, 42.39820
1195.537, 43.46288
1196.019, 44.05978
1196.501, 44.21402
1196.983, 42.59982
1197.466, 43.26920
1197.948, 43.02342
1198.430, 42.74012
1198.912, 43.73090
1199.394, 42.37391
1199.876, 43.34449
1200.358, 43.38595
1200.840, 43.85264
1201.323, 43.39852
1201.805, 43.22881
1202.287, 43.98021
1202.769, 44.22158
1203.251, 43.66147
1203.733, 44.15520
1204.215, 42.76604
1204.697, 43.02914
1205.179, 44.00511
1205.661, 43.49129
1206.144, 44.00185
1206.626, 44.12227
1207.108, 42.46967
1207.590, 43.90053
1208.072, 43.99789
1208.554, 42.72606
1209.036, 43.42950
1209.518, 43.78944
1210.001, 44.02852
1210.483, 43.90980
1210.965, 43.64103
1211.447, 43.77268
1211.929, 44.14083
1212.411, 44.40204
1212.893, 44.48277
1213.375, 44.34133
1213.858, 43.82610
1214.340, 43.43584
1214.822, 43.51881
1215.304, 43.86718
1215.786, 44.02579
1216.268, 44.04290
1216.750, 44.01619
1217.232, 43.95647
1217.714, 43.87383
1218.197, 43.69085
1218.679, 43.66642
1219.161, 44.14679
1219.643, 44.76878
1220.125, 44.65701
1220.607, 44.08025
1221.089, 43.65931
1221.571, 43.62287
1222.053, 43.70488
1222.536, 43.94664
1223.018, 44.15319
1223.500, 44.21378
1223.982, 44.14049
1224.464, 43.83820
1224.946, 43.43632
1225.428, 43.22895
1225.910, 43.43151
1226.393, 43.64691
1226.875, 43.90018
1227.357, 44.06782
1227.839, 43.95432
1228.321, 43.76265
1228.803, 43.91406
1229.285, 44.24369
1229.767, 44.36493
1230.250, 44.01995
1230.732, 43.79512
1231.214, 43.71015
1231.696, 43.69060
1232.178, 43.65984
1232.660, 43.67552
1233.142, 43.87879
1233.624, 44.18323
1234.106, 44.38686
1234.589, 44.49009
1235.071, 44.39500
1235.553, 44.06161
1236.035, 43.73513
1236.517, 43.58858
1236.999, 43.56691
1237.481, 43.66325
1237.963, 43.82636
1238.445, 43.94309
1238.928, 43.99380
1239.410, 44.05353
1239.892, 44.13300
1240.374, 44.14752
1240.856, 43.98731
1241.338, 43.77544
1241.820, 43.58947
1242.302, 43.44562
1242.785, 43.35946
1243.267, 43.31342
1243.749, 43.45192
1244.231, 43.79128
1244.713, 44.06250
1245.195, 44.00330
1245.677, 43.87059
1246.159, 43.85149
1246.641, 43.89281
1247.124, 43.87519
1247.606, 43.78413
1248.088, 43.81532
1248.570, 43.97496
1249.052, 44.15821
1249.534, 44.45357
1250.016, 44.57959
1250.498, 44.13372
1250.980, 43.55634
1251.463, 43.50826
1251.945, 43.97680
1252.427, 43.98720
1252.909, 43.54569
1253.391, 43.17458
1253.873, 43.18120
1254.355, 43.35261
1254.837, 43.74702
1255.320, 44.13147
1255.802, 44.25340
1256.284, 44.13161
1256.766, 43.73299
1257.248, 43.13026
1257.730, 42.81590
1258.212, 43.37994
1258.694, 43.81497
1259.177, 43.84066
1259.659, 43.67090
1260.141, 43.41495
1260.623, 43.15968
1261.105, 43.31977
1261.587, 43.79593
1262.069, 44.06998
1262.551, 43.68646
1263.033, 43.44635
1263.516, 43.50467
1263.998, 43.61003
1264.480, 43.45194
1264.962, 43.19176
1265.444, 43.22317
1265.926, 43.46210
1266.408, 43.56885
1266.890, 43.37983
1267.372, 43.16864
1267.855, 42.91750
1268.337, 42.75846
1268.819, 42.88877
1269.301, 43.11982
1269.783, 43.22479
1270.265, 43.20916
1270.747, 43.07987
1271.229, 42.75932
1271.712, 42.61884
1272.194, 42.69129
1272.676, 42.81365
1273.158, 42.92394
1273.640, 42.96541
1274.122, 42.83255
1274.604, 42.60903
1275.086, 42.44884
1275.568, 42.34628
1276.051, 42.41014
1276.533, 42.64489
1277.015, 42.76151
1277.497, 42.31284
1277.979, 41.97478
1278.461, 42.42995
1278.943, 43.05751
1279.425, 43.01078
1279.907, 42.30789
1280.390, 42.09760
1280.872, 42.33479
1281.354, 42.50073
1281.836, 42.11812
1282.318, 41.87530
1282.800, 42.19958
1283.282, 42.55508
1283.764, 42.39300
1284.247, 41.85779
1284.729, 41.72092
1285.211, 41.88227
1285.693, 41.95668
1286.175, 41.62227
1286.657, 41.45637
1287.139, 41.60899
1287.621, 41.75211
1288.104, 41.54971
1288.586, 41.20902
1289.068, 41.19866
1289.550, 41.39857
1290.032, 41.52827
1290.514, 41.42874
1290.996, 41.46186
1291.478, 41.69491
1291.960, 41.77349
1292.443, 41.23716
1292.925, 40.67366
1293.407, 41.05590
1293.889, 41.80828
1294.371, 41.88698
1294.853, 41.05470
1295.335, 40.76185
1295.817, 41.02081
1296.299, 41.26427
1296.782, 41.18175
1297.264, 41.01033
1297.746, 40.84410
1298.228, 40.74907
1298.710, 40.82269
1299.192, 41.04641
1299.674, 41.03239
1300.156, 40.82079
1300.639, 40.67233
1301.121, 40.73549
1301.603, 40.77875
1302.085, 40.64335
1302.567, 40.52716
1303.049, 40.52146
1303.531, 40.61947
##END=



