##NAMES=Wavellite
##RRUFFID=R050219
##IDEAL CHEMISTRY=Al_3_(PO_4_)_2_(OH)_3_&#183;5H_2_O
##LOCALITY=Kapunda Quarry, South Australia, Australia
##OWNER=RRUFF
##SOURCE=Marcus Origlieri
##DESCRIPTION=Radial aggregate of colorless acicular crystals
##STATUS=The identification of this mineral is confirmed by single-crystal X-ray diffraction and chemical analysis.
##URL=rruff.info/R050219
##MEASURED CHEMISTRY=(Al_2.96_Fe^3+^_0.04_)_Σ=3_(P_1.00_O_4_)_2_((OH)_2.02_F_0.98_)_Σ=3_·5H_2_O
92.29974, 0.0000000E+00
92.78186, 0.0000000E+00
93.26398, 0.0000000E+00
93.74609, 62.88653
94.22821, 60.41361
94.71033, 61.36974
95.19244, 65.29929
95.67456, 70.36280
96.15668, 75.84400
96.63879, 81.82531
97.12091, 88.67904
97.60303, 96.48463
98.08514, 105.0930
98.56726, 113.9125
99.04938, 122.9346
99.53149, 133.2111
100.0136, 145.3656
100.4957, 159.3583
100.9778, 174.3259
101.4600, 190.0865
101.9421, 206.7799
102.4242, 224.3250
102.9063, 242.8958
103.3884, 262.2151
103.8705, 282.2227
104.3527, 303.9265
104.8348, 323.9066
105.3169, 341.5249
105.7990, 356.9210
106.2811, 373.6296
106.7632, 392.6261
107.2454, 411.8458
107.7275, 429.1393
108.2096, 442.7813
108.6917, 457.1866
109.1738, 473.2080
109.6559, 491.2322
110.1381, 509.2565
110.6202, 525.2599
111.1023, 542.1630
111.5844, 563.0360
112.0665, 592.1620
112.5486, 621.5945
113.0308, 649.2938
113.5129, 674.5974
113.9950, 700.9449
114.4771, 729.0981
114.9592, 758.4098
115.4413, 788.3321
115.9235, 819.6339
116.4056, 850.7206
116.8877, 880.6360
117.3698, 910.3240
117.8519, 937.7587
118.3340, 961.4488
118.8162, 982.2971
119.2983, 1002.434
119.7804, 1023.504
120.2625, 1044.116
120.7446, 1063.010
121.2267, 1079.799
121.7089, 1095.228
122.1910, 1109.033
122.6731, 1121.571
123.1552, 1134.428
123.6373, 1148.336
124.1194, 1163.118
124.6016, 1178.924
125.0837, 1196.543
125.5658, 1214.217
126.0479, 1229.222
126.5300, 1241.756
127.0121, 1255.174
127.4943, 1272.223
127.9764, 1292.170
128.4585, 1313.806
128.9406, 1335.378
129.4227, 1358.531
129.9048, 1388.994
130.3869, 1427.755
130.8691, 1464.038
131.3512, 1483.491
131.8333, 1488.435
132.3154, 1492.719
132.7975, 1501.471
133.2796, 1514.408
133.7618, 1530.394
134.2439, 1546.615
134.7260, 1556.891
135.2081, 1562.626
135.6902, 1567.548
136.1723, 1571.535
136.6545, 1574.261
137.1366, 1575.754
137.6187, 1577.669
138.1008, 1580.427
138.5829, 1583.238
139.0650, 1584.127
139.5472, 1582.565
140.0293, 1581.233
140.5114, 1580.960
140.9935, 1581.191
141.4756, 1585.709
141.9577, 1597.026
142.4399, 1612.160
142.9220, 1619.147
143.4041, 1614.342
143.8862, 1608.256
144.3683, 1607.611
144.8504, 1614.944
145.3326, 1621.546
145.8147, 1626.170
146.2968, 1629.157
146.7789, 1633.116
147.2610, 1640.190
147.7431, 1646.133
148.2253, 1647.755
148.7074, 1641.109
149.1895, 1635.833
149.6716, 1633.512
150.1537, 1634.180
150.6358, 1634.555
151.1180, 1633.177
151.6001, 1632.287
152.0822, 1633.768
152.5643, 1641.344
153.0464, 1647.364
153.5285, 1650.243
154.0107, 1649.555
154.4928, 1649.071
154.9749, 1648.065
155.4570, 1647.744
155.9391, 1649.283
156.4212, 1656.415
156.9034, 1662.099
157.3855, 1663.542
157.8676, 1659.484
158.3497, 1657.098
158.8318, 1658.717
159.3139, 1662.442
159.7961, 1665.861
160.2782, 1667.356
160.7603, 1669.223
161.2424, 1672.993
161.7245, 1679.737
162.2066, 1684.696
162.6888, 1683.870
163.1709, 1680.477
163.6530, 1679.752
164.1351, 1686.240
164.6172, 1694.103
165.0993, 1700.203
165.5815, 1704.178
166.0636, 1706.124
166.5457, 1705.227
167.0278, 1702.364
167.5099, 1699.356
167.9920, 1696.480
168.4742, 1694.136
168.9563, 1692.822
169.4384, 1693.058
169.9205, 1693.356
170.4026, 1693.003
170.8847, 1691.997
171.3669, 1690.282
171.8490, 1686.287
172.3311, 1682.220
172.8132, 1680.682
173.2953, 1683.158
173.7774, 1686.521
174.2596, 1688.402
174.7417, 1688.920
175.2238, 1688.464
175.7059, 1686.161
176.1880, 1683.294
176.6701, 1681.738
177.1523, 1682.132
177.6344, 1683.622
178.1165, 1685.242
178.5986, 1687.055
179.0807, 1689.434
179.5628, 1693.149
180.0450, 1697.611
180.5271, 1701.654
181.0092, 1705.226
181.4913, 1708.069
181.9734, 1709.669
182.4555, 1710.075
182.9377, 1709.746
183.4198, 1708.049
183.9019, 1705.777
184.3840, 1705.436
184.8661, 1708.497
185.3482, 1713.164
185.8304, 1715.679
186.3125, 1716.021
186.7946, 1716.669
187.2767, 1720.391
187.7588, 1726.527
188.2409, 1731.903
188.7231, 1735.698
189.2052, 1738.200
189.6873, 1739.895
190.1694, 1740.721
190.6515, 1741.523
191.1336, 1743.140
191.6158, 1745.494
192.0979, 1748.013
192.5800, 1750.765
193.0621, 1753.533
193.5442, 1755.930
194.0263, 1758.148
194.5085, 1759.060
194.9906, 1756.536
195.4727, 1750.748
195.9548, 1746.302
196.4369, 1745.043
196.9190, 1746.253
197.4012, 1746.256
197.8833, 1744.892
198.3654, 1743.042
198.8475, 1741.408
199.3296, 1739.950
199.8117, 1739.478
200.2939, 1740.594
200.7760, 1743.013
201.2581, 1744.466
201.7402, 1744.668
202.2223, 1744.644
202.7044, 1745.557
203.1866, 1747.470
203.6687, 1749.771
204.1508, 1752.564
204.6329, 1755.761
205.1150, 1757.594
205.5971, 1757.394
206.0793, 1757.277
206.5614, 1760.326
207.0435, 1767.368
207.5256, 1773.184
208.0077, 1775.825
208.4898, 1775.370
208.9720, 1776.568
209.4541, 1779.865
209.9362, 1784.000
210.4183, 1787.713
210.9004, 1791.111
211.3825, 1793.523
211.8647, 1794.518
212.3468, 1794.067
212.8289, 1794.290
213.3110, 1795.708
213.7931, 1797.070
214.2752, 1796.410
214.7574, 1792.553
215.2395, 1790.279
215.7216, 1791.507
216.2037, 1796.434
216.6858, 1799.077
217.1679, 1798.775
217.6500, 1797.048
218.1322, 1795.428
218.6143, 1793.459
219.0964, 1792.756
219.5785, 1794.255
220.0606, 1798.144
220.5427, 1800.066
221.0249, 1799.080
221.5070, 1797.143
221.9891, 1796.586
222.4712, 1798.037
222.9533, 1799.427
223.4354, 1800.380
223.9176, 1800.930
224.3997, 1800.463
224.8818, 1798.011
225.3639, 1795.609
225.8460, 1795.860
226.3281, 1800.768
226.8103, 1804.083
227.2924, 1803.630
227.7745, 1799.095
228.2566, 1797.460
228.7387, 1800.143
229.2208, 1804.230
229.7030, 1806.502
230.1851, 1805.877
230.6672, 1805.629
231.1493, 1806.596
231.6314, 1808.836
232.1135, 1810.421
232.5957, 1811.120
233.0778, 1811.395
233.5599, 1811.691
234.0420, 1812.096
234.5241, 1812.342
235.0062, 1812.343
235.4884, 1812.097
235.9705, 1811.823
236.4526, 1811.270
236.9347, 1810.942
237.4168, 1811.302
237.8989, 1812.476
238.3811, 1814.111
238.8632, 1816.491
239.3453, 1819.590
239.8274, 1821.222
240.3095, 1820.184
240.7916, 1819.011
241.2738, 1820.172
241.7559, 1825.826
242.2380, 1829.413
242.7201, 1829.187
243.2022, 1825.443
243.6843, 1823.349
244.1665, 1823.681
244.6486, 1824.785
245.1307, 1825.377
245.6128, 1825.083
246.0949, 1825.081
246.5770, 1825.262
247.0592, 1825.754
247.5413, 1828.005
248.0234, 1833.524
248.5055, 1838.869
248.9876, 1841.303
249.4697, 1839.002
249.9519, 1837.829
250.4340, 1838.706
250.9161, 1841.242
251.3982, 1843.193
251.8803, 1844.303
252.3624, 1845.089
252.8446, 1845.646
253.3267, 1845.262
253.8088, 1846.438
254.2909, 1850.219
254.7730, 1855.721
255.2551, 1859.016
255.7373, 1859.082
256.2194, 1858.647
256.7015, 1859.202
257.1836, 1861.060
257.6657, 1863.190
258.1478, 1865.864
258.6299, 1868.719
259.1121, 1870.637
259.5942, 1871.300
260.0763, 1871.633
260.5584, 1871.964
261.0405, 1872.047
261.5226, 1872.964
262.0048, 1875.083
262.4869, 1877.864
262.9690, 1879.908
263.4511, 1880.592
263.9332, 1881.837
264.4153, 1884.825
264.8975, 1890.440
265.3796, 1894.076
265.8617, 1894.650
266.3438, 1894.201
266.8259, 1897.033
267.3080, 1904.533
267.7902, 1911.536
268.2723, 1915.698
268.7544, 1916.638
269.2365, 1917.810
269.7186, 1918.966
270.2007, 1920.678
270.6829, 1924.191
271.1650, 1930.176
271.6471, 1935.544
272.1292, 1939.110
272.6113, 1940.861
273.0934, 1942.094
273.5756, 1942.614
274.0577, 1942.948
274.5398, 1943.700
275.0219, 1944.867
275.5040, 1946.445
275.9861, 1948.666
276.4683, 1951.425
276.9504, 1953.335
277.4325, 1954.277
277.9146, 1954.666
278.3967, 1954.704
278.8788, 1954.291
279.3610, 1954.502
279.8431, 1956.032
280.3252, 1958.402
280.8073, 1958.992
281.2894, 1957.529
281.7715, 1955.439
282.2537, 1953.852
282.7358, 1952.773
283.2179, 1952.029
283.7000, 1951.569
284.1821, 1951.434
284.6642, 1952.298
285.1464, 1954.397
285.6285, 1955.426
286.1106, 1952.500
286.5927, 1946.026
287.0748, 1941.938
287.5569, 1941.450
288.0391, 1943.296
288.5212, 1945.117
289.0033, 1946.932
289.4854, 1948.352
289.9675, 1949.027
290.4496, 1949.054
290.9318, 1949.116
291.4139, 1949.470
291.8960, 1949.445
292.3781, 1947.590
292.8602, 1944.051
293.3423, 1940.555
293.8245, 1937.571
294.3066, 1935.291
294.7887, 1934.656
295.2708, 1935.964
295.7529, 1937.784
296.2350, 1938.457
296.7172, 1938.093
297.1993, 1937.273
297.6814, 1935.535
298.1635, 1933.633
298.6456, 1933.572
299.1277, 1935.491
299.6099, 1937.615
300.0920, 1937.571
300.5741, 1936.223
301.0562, 1935.849
301.5383, 1937.823
302.0204, 1940.967
302.5026, 1943.737
302.9847, 1946.155
303.4668, 1948.155
303.9489, 1948.889
304.4310, 1949.282
304.9131, 1951.161
305.3953, 1956.109
305.8774, 1961.588
306.3595, 1964.690
306.8416, 1965.743
307.3237, 1966.539
307.8058, 1967.926
308.2880, 1969.850
308.7701, 1972.294
309.2522, 1975.467
309.7343, 1978.855
310.2164, 1982.120
310.6985, 1985.326
311.1807, 1988.520
311.6628, 1991.103
312.1449, 1994.073
312.6270, 1998.808
313.1091, 2006.416
313.5912, 2012.609
314.0734, 2014.239
314.5555, 2012.770
315.0376, 2010.908
315.5197, 2009.211
316.0018, 2007.822
316.4839, 2007.241
316.9661, 2007.697
317.4482, 2007.098
317.9303, 2003.165
318.4124, 1998.127
318.8945, 1994.550
319.3766, 1995.285
319.8588, 1995.871
320.3409, 1994.451
320.8230, 1991.023
321.3051, 1987.367
321.7872, 1983.061
322.2693, 1979.283
322.7515, 1976.966
323.2336, 1977.603
323.7157, 1978.355
324.1978, 1978.571
324.6799, 1978.360
325.1620, 1978.414
325.6442, 1979.505
326.1263, 1980.361
326.6084, 1980.281
327.0905, 1977.990
327.5726, 1976.371
328.0547, 1975.548
328.5369, 1975.495
329.0190, 1976.151
329.5011, 1978.281
329.9832, 1980.376
330.4653, 1981.999
330.9474, 1983.189
331.4296, 1983.881
331.9117, 1984.156
332.3938, 1983.943
332.8759, 1983.032
333.3580, 1980.537
333.8401, 1978.716
334.3223, 1978.125
334.8044, 1978.797
335.2865, 1980.522
335.7686, 1984.386
336.2507, 1988.042
336.7328, 1988.723
337.2150, 1984.726
337.6971, 1982.324
338.1792, 1982.949
338.6613, 1986.083
339.1434, 1988.602
339.6255, 1990.371
340.1076, 1991.811
340.5898, 1992.964
341.0719, 1993.614
341.5540, 1995.516
342.0361, 1999.274
342.5182, 2003.881
343.0003, 2006.886
343.4825, 2008.106
343.9646, 2008.805
344.4467, 2009.737
344.9288, 2010.823
345.4109, 2010.978
345.8930, 2009.951
346.3752, 2008.652
346.8573, 2008.108
347.3394, 2008.342
347.8215, 2009.684
348.3036, 2013.105
348.7857, 2017.636
349.2679, 2020.441
349.7500, 2021.496
350.2321, 2021.580
350.7142, 2020.717
351.1963, 2019.394
351.6784, 2019.140
352.1606, 2021.112
352.6427, 2023.589
353.1248, 2023.777
353.6069, 2022.027
354.0890, 2020.544
354.5711, 2020.991
355.0533, 2022.601
355.5354, 2024.539
356.0175, 2027.017
356.4996, 2028.812
356.9817, 2028.420
357.4638, 2026.525
357.9460, 2024.742
358.4281, 2022.851
358.9102, 2022.066
359.3923, 2024.025
359.8744, 2029.190
360.3565, 2033.995
360.8387, 2035.775
361.3208, 2036.157
361.8029, 2037.139
362.2850, 2041.325
362.7671, 2044.463
363.2492, 2043.718
363.7314, 2039.417
364.2135, 2036.182
364.6956, 2035.238
365.1777, 2036.101
365.6598, 2038.517
366.1419, 2044.826
366.6241, 2049.776
367.1062, 2051.717
367.5883, 2051.523
368.0704, 2051.689
368.5525, 2052.669
369.0346, 2053.965
369.5168, 2055.421
369.9989, 2057.087
370.4810, 2058.869
370.9631, 2061.149
371.4452, 2063.418
371.9273, 2064.912
372.4095, 2064.692
372.8916, 2065.067
373.3737, 2066.663
373.8558, 2069.530
374.3379, 2072.282
374.8200, 2074.757
375.3022, 2077.378
375.7843, 2080.494
376.2664, 2084.243
376.7485, 2088.123
377.2306, 2092.049
377.7127, 2096.063
378.1949, 2100.397
378.6770, 2105.153
379.1591, 2109.645
379.6412, 2113.314
380.1233, 2116.173
380.6054, 2118.968
381.0876, 2121.598
381.5697, 2124.427
382.0518, 2128.067
382.5339, 2132.454
383.0160, 2137.273
383.4981, 2142.672
383.9803, 2148.346
384.4624, 2153.024
384.9445, 2156.678
385.4266, 2160.402
385.9087, 2165.533
386.3908, 2171.557
386.8730, 2177.250
387.3551, 2182.646
387.8372, 2187.232
388.3193, 2189.479
388.8014, 2190.073
389.2835, 2191.779
389.7657, 2197.319
390.2478, 2204.378
390.7299, 2210.019
391.2120, 2213.361
391.6941, 2217.497
392.1762, 2225.628
392.6584, 2235.691
393.1405, 2244.553
393.6226, 2250.264
394.1047, 2255.018
394.5868, 2259.451
395.0689, 2263.634
395.5511, 2268.543
396.0332, 2276.280
396.5153, 2283.891
396.9974, 2289.113
397.4795, 2288.754
397.9616, 2289.164
398.4438, 2291.245
398.9259, 2294.902
399.4080, 2299.813
399.8901, 2307.995
400.3722, 2315.677
400.8543, 2321.390
401.3365, 2324.630
401.8186, 2327.427
402.3007, 2329.238
402.7828, 2330.919
403.2649, 2333.603
403.7470, 2337.940
404.2292, 2342.051
404.7113, 2345.591
405.1934, 2348.578
405.6755, 2350.894
406.1576, 2352.209
406.6397, 2353.569
407.1219, 2356.208
407.6040, 2360.518
408.0861, 2362.778
408.5682, 2362.252
409.0503, 2360.139
409.5324, 2358.438
410.0146, 2357.164
410.4967, 2356.568
410.9788, 2356.854
411.4609, 2357.931
411.9430, 2359.768
412.4251, 2362.486
412.9073, 2364.746
413.3894, 2364.965
413.8715, 2363.596
414.3536, 2362.178
414.8357, 2361.699
415.3178, 2360.614
415.8000, 2356.643
416.2821, 2350.128
416.7642, 2342.951
417.2463, 2336.064
417.7284, 2329.211
418.2105, 2322.120
418.6927, 2314.541
419.1748, 2307.473
419.6569, 2302.461
420.1390, 2298.136
420.6211, 2292.531
421.1032, 2283.769
421.5854, 2274.602
422.0675, 2265.912
422.5496, 2257.712
423.0317, 2250.660
423.5138, 2245.413
423.9959, 2240.998
424.4781, 2236.698
424.9602, 2232.859
425.4423, 2228.676
425.9244, 2223.823
426.4065, 2218.569
426.8886, 2213.415
427.3708, 2207.004
427.8529, 2202.341
428.3350, 2201.033
428.8171, 2203.897
429.2992, 2204.205
429.7813, 2200.903
430.2635, 2196.471
430.7456, 2193.172
431.2277, 2191.091
431.7098, 2190.039
432.1919, 2190.536
432.6740, 2191.705
433.1562, 2190.734
433.6383, 2187.486
434.1204, 2183.051
434.6025, 2177.042
435.0846, 2169.995
435.5667, 2165.561
436.0489, 2164.128
436.5310, 2163.953
437.0131, 2163.628
437.4952, 2162.927
437.9773, 2160.998
438.4594, 2156.825
438.9415, 2151.860
439.4236, 2148.043
439.9058, 2145.268
440.3879, 2142.773
440.8700, 2139.528
441.3521, 2136.550
441.8342, 2135.282
442.3163, 2136.750
442.7985, 2137.638
443.2806, 2135.033
443.7627, 2130.762
444.2448, 2127.693
444.7269, 2127.868
445.2090, 2128.465
445.6912, 2128.216
446.1733, 2127.052
446.6554, 2126.470
447.1375, 2127.568
447.6196, 2128.778
448.1017, 2129.114
448.5839, 2127.486
449.0660, 2126.338
449.5481, 2125.838
450.0302, 2125.797
450.5123, 2125.812
450.9944, 2125.813
451.4766, 2126.044
451.9587, 2126.743
452.4408, 2127.971
452.9229, 2128.482
453.4050, 2128.074
453.8871, 2127.464
454.3693, 2127.137
454.8514, 2127.076
455.3335, 2127.948
455.8156, 2130.296
456.2977, 2132.991
456.7798, 2133.376
457.2620, 2131.624
457.7441, 2130.065
458.2262, 2130.295
458.7083, 2131.534
459.1904, 2131.784
459.6725, 2130.921
460.1547, 2130.583
460.6368, 2133.340
461.1189, 2137.352
461.6010, 2139.498
462.0831, 2137.904
462.5652, 2135.542
463.0474, 2134.380
463.5295, 2134.164
464.0116, 2134.216
464.4937, 2134.558
464.9758, 2134.829
465.4579, 2134.530
465.9401, 2133.337
466.4222, 2133.239
466.9043, 2136.466
467.3864, 2140.191
467.8685, 2141.749
468.3506, 2137.266
468.8328, 2134.921
469.3149, 2136.526
469.7970, 2140.973
470.2791, 2144.078
470.7612, 2145.061
471.2433, 2145.867
471.7255, 2147.434
472.2076, 2150.022
472.6897, 2151.692
473.1718, 2152.304
473.6539, 2152.299
474.1360, 2152.091
474.6182, 2151.656
475.1003, 2151.134
475.5824, 2150.346
476.0645, 2149.667
476.5466, 2149.995
477.0287, 2151.282
477.5109, 2153.126
477.9930, 2156.112
478.4751, 2159.273
478.9572, 2160.377
479.4393, 2159.120
479.9214, 2157.626
480.4036, 2157.644
480.8857, 2158.684
481.3678, 2160.126
481.8499, 2163.143
482.3320, 2164.969
482.8141, 2163.101
483.2963, 2158.561
483.7784, 2154.481
484.2605, 2150.576
484.7426, 2148.714
485.2247, 2150.998
485.7068, 2159.385
486.1890, 2164.299
486.6711, 2161.055
487.1532, 2155.630
487.6353, 2153.621
488.1174, 2157.592
488.5995, 2160.992
489.0817, 2163.115
489.5638, 2164.198
490.0459, 2165.118
490.5280, 2165.924
491.0101, 2166.305
491.4922, 2165.618
491.9744, 2163.788
492.4565, 2164.282
492.9386, 2167.462
493.4207, 2171.264
493.9028, 2173.264
494.3849, 2173.760
494.8671, 2174.778
495.3492, 2177.023
495.8313, 2179.523
496.3134, 2180.764
496.7955, 2180.995
497.2776, 2181.136
497.7598, 2182.725
498.2419, 2183.957
498.7240, 2182.147
499.2061, 2177.220
499.6882, 2173.219
500.1703, 2173.014
500.6525, 2174.667
501.1346, 2176.412
501.6167, 2178.060
502.0988, 2179.457
502.5809, 2180.178
503.0630, 2180.611
503.5452, 2181.566
504.0273, 2183.972
504.5094, 2185.930
504.9915, 2186.822
505.4736, 2186.573
505.9557, 2186.191
506.4379, 2185.519
506.9200, 2184.852
507.4021, 2184.334
507.8842, 2183.897
508.3663, 2184.024
508.8484, 2184.887
509.3306, 2186.176
509.8127, 2187.598
510.2948, 2189.177
510.7769, 2190.188
511.2590, 2190.049
511.7411, 2189.397
512.2233, 2189.968
512.7054, 2191.664
513.1875, 2193.111
513.6696, 2193.133
514.1517, 2192.370
514.6339, 2191.479
515.1160, 2190.363
515.5981, 2189.968
516.0802, 2190.791
516.5623, 2192.707
517.0444, 2195.557
517.5266, 2201.232
518.0087, 2205.773
518.4908, 2206.867
518.9729, 2205.310
519.4550, 2204.836
519.9371, 2206.553
520.4193, 2209.040
520.9014, 2212.125
521.3835, 2216.482
521.8656, 2218.413
522.3477, 2216.590
522.8298, 2213.823
523.3120, 2212.621
523.7941, 2213.005
524.2762, 2215.304
524.7583, 2220.413
525.2404, 2226.576
525.7225, 2229.499
526.2047, 2229.235
526.6868, 2228.185
527.1689, 2226.286
527.6510, 2224.667
528.1331, 2227.206
528.6152, 2233.815
529.0974, 2239.972
529.5795, 2241.473
530.0616, 2240.618
530.5437, 2240.539
531.0258, 2241.930
531.5079, 2244.002
531.9901, 2246.474
532.4722, 2249.286
532.9543, 2252.304
533.4364, 2255.366
533.9185, 2258.751
534.4006, 2263.207
534.8828, 2268.427
535.3649, 2272.015
535.8470, 2272.155
536.3291, 2272.084
536.8112, 2272.926
537.2933, 2274.548
537.7755, 2277.766
538.2576, 2283.522
538.7397, 2289.465
539.2218, 2292.677
539.7039, 2292.851
540.1860, 2293.039
540.6682, 2293.895
541.1503, 2294.921
541.6324, 2294.675
542.1145, 2293.358
542.5966, 2292.875
543.0787, 2295.444
543.5609, 2299.016
544.0430, 2299.912
544.5251, 2298.237
545.0072, 2296.375
545.4893, 2295.865
545.9714, 2296.148
546.4536, 2297.017
546.9357, 2299.357
547.4178, 2299.858
547.8999, 2294.019
548.3820, 2286.439
548.8641, 2283.470
549.3463, 2291.999
549.8284, 2298.888
550.3105, 2301.198
550.7926, 2299.616
551.2747, 2297.506
551.7568, 2293.726
552.2390, 2291.225
552.7211, 2292.008
553.2032, 2296.569
553.6853, 2298.051
554.1674, 2295.853
554.6495, 2292.452
555.1317, 2289.683
555.6138, 2287.736
556.0959, 2288.248
556.5780, 2292.636
557.0601, 2296.812
557.5422, 2292.927
558.0244, 2283.920
558.5065, 2278.308
558.9886, 2283.392
559.4707, 2291.237
559.9528, 2295.580
560.4349, 2296.723
560.9171, 2296.785
561.3992, 2296.123
561.8813, 2295.063
562.3634, 2293.560
562.8455, 2291.067
563.3276, 2289.694
563.8098, 2290.093
564.2919, 2291.390
564.7740, 2292.948
565.2561, 2295.357
565.7382, 2296.629
566.2203, 2296.048
566.7025, 2294.518
567.1846, 2294.597
567.6667, 2296.598
568.1488, 2298.124
568.6309, 2298.297
569.1130, 2297.306
569.5952, 2295.429
570.0773, 2292.695
570.5594, 2290.116
571.0415, 2288.364
571.5236, 2287.272
572.0057, 2286.787
572.4879, 2287.043
572.9700, 2286.988
573.4521, 2285.431
573.9342, 2283.270
574.4163, 2281.590
574.8984, 2280.009
575.3806, 2279.713
575.8627, 2282.083
576.3448, 2286.005
576.8269, 2288.457
577.3090, 2289.182
577.7911, 2288.356
578.2733, 2285.139
578.7554, 2279.657
579.2375, 2276.951
579.7196, 2277.696
580.2017, 2279.575
580.6838, 2281.318
581.1660, 2282.907
581.6481, 2283.953
582.1302, 2284.439
582.6123, 2284.301
583.0944, 2283.031
583.5765, 2281.056
584.0587, 2279.565
584.5408, 2278.895
585.0229, 2278.882
585.5050, 2280.160
585.9871, 2282.021
586.4692, 2282.709
586.9513, 2279.985
587.4334, 2277.268
587.9155, 2276.208
588.3976, 2276.847
588.8798, 2278.383
589.3619, 2282.852
589.8440, 2286.304
590.3261, 2286.301
590.8082, 2280.956
591.2903, 2278.666
591.7725, 2280.527
592.2546, 2283.873
592.7367, 2282.101
593.2188, 2286.565
593.7009, 2289.365
594.1830, 2290.590
594.6652, 2285.523
595.1473, 2288.581
595.6294, 2288.383
596.1115, 2288.052
596.5936, 2292.253
597.0757, 2288.102
597.5579, 2292.231
598.0400, 2293.055
598.5221, 2295.391
599.0042, 2294.452
599.4863, 2294.525
599.9684, 2297.874
600.4506, 2298.334
600.9327, 2300.650
601.4148, 2301.775
601.8969, 2301.907
602.3790, 2301.068
602.8611, 2297.380
603.3433, 2296.344
603.8254, 2298.976
604.3075, 2303.482
604.7896, 2307.137
605.2717, 2309.915
605.7538, 2311.946
606.2360, 2312.868
606.7181, 2313.361
607.2002, 2315.610
607.6823, 2319.265
608.1644, 2321.687
608.6465, 2319.288
609.1287, 2315.809
609.6108, 2316.966
610.0929, 2322.614
610.5750, 2327.689
611.0571, 2328.865
611.5392, 2328.627
612.0214, 2328.918
612.5035, 2330.297
612.9856, 2331.548
613.4677, 2331.375
613.9498, 2331.587
614.4319, 2334.208
614.9141, 2341.611
615.3962, 2346.744
615.8783, 2348.326
616.3604, 2347.723
616.8425, 2347.618
617.3246, 2347.970
617.8068, 2348.963
618.2889, 2350.452
618.7710, 2352.688
619.2531, 2356.846
619.7352, 2362.706
620.2173, 2368.270
620.6995, 2372.769
621.1816, 2375.980
621.6637, 2377.292
622.1458, 2376.677
622.6279, 2375.616
623.1100, 2374.201
623.5922, 2373.078
624.0743, 2372.851
624.5564, 2374.359
625.0385, 2375.322
625.5206, 2374.059
626.0027, 2373.036
626.4849, 2375.741
626.9670, 2385.198
627.4491, 2390.300
627.9312, 2388.041
628.4133, 2381.767
628.8954, 2379.311
629.3776, 2380.711
629.8597, 2383.283
630.3418, 2386.702
630.8239, 2390.146
631.3060, 2391.500
631.7881, 2391.103
632.2703, 2391.131
632.7524, 2394.047
633.2345, 2397.282
633.7166, 2398.221
634.1987, 2396.416
634.6808, 2395.115
635.1630, 2395.793
635.6451, 2397.158
636.1272, 2398.368
636.6093, 2400.094
637.0914, 2400.070
637.5735, 2396.972
638.0557, 2393.317
638.5378, 2392.750
639.0199, 2396.041
639.5020, 2397.745
639.9841, 2396.380
640.4662, 2393.708
640.9484, 2393.440
641.4305, 2395.213
641.9126, 2396.594
642.3947, 2396.269
642.8768, 2395.164
643.3589, 2394.058
643.8411, 2393.047
644.3232, 2392.583
644.8053, 2393.312
645.2874, 2394.295
645.7695, 2394.943
646.2516, 2395.147
646.7338, 2395.505
647.2159, 2396.827
647.6980, 2397.674
648.1801, 2397.238
648.6622, 2395.247
649.1443, 2392.462
649.6265, 2388.345
650.1086, 2384.444
650.5907, 2383.185
651.0728, 2384.325
651.5549, 2384.236
652.0370, 2382.034
652.5192, 2379.048
653.0013, 2377.310
653.4834, 2376.274
653.9655, 2374.642
654.4476, 2371.102
654.9297, 2367.642
655.4119, 2365.576
655.8940, 2364.618
656.3761, 2363.832
656.8582, 2363.890
657.3403, 2363.160
657.8224, 2360.636
658.3046, 2356.467
658.7867, 2353.246
659.2688, 2351.377
659.7509, 2349.650
660.2330, 2347.038
660.7151, 2343.529
661.1973, 2342.370
661.6794, 2343.858
662.1615, 2345.480
662.6436, 2344.565
663.1257, 2342.083
663.6078, 2340.208
664.0900, 2339.315
664.5721, 2338.848
665.0542, 2338.324
665.5363, 2337.994
666.0184, 2338.181
666.5005, 2339.702
666.9827, 2340.780
667.4648, 2340.713
667.9469, 2339.954
668.4290, 2339.336
668.9111, 2338.513
669.3932, 2338.483
669.8754, 2339.940
670.3575, 2342.035
670.8396, 2341.344
671.3217, 2337.585
671.8038, 2335.165
672.2859, 2337.438
672.7681, 2341.906
673.2502, 2342.980
673.7323, 2341.015
674.2144, 2338.562
674.6965, 2336.883
675.1786, 2335.785
675.6608, 2335.630
676.1429, 2336.574
676.6250, 2336.182
677.1071, 2332.062
677.5892, 2327.571
678.0714, 2324.946
678.5535, 2324.575
679.0356, 2325.237
679.5177, 2327.940
679.9998, 2330.226
680.4819, 2328.815
680.9641, 2323.579
681.4462, 2319.780
681.9283, 2318.221
682.4104, 2317.830
682.8925, 2317.367
683.3746, 2316.896
683.8568, 2316.667
684.3389, 2317.191
684.8210, 2317.367
685.3031, 2316.049
685.7852, 2313.839
686.2673, 2311.999
686.7495, 2309.760
687.2316, 2309.194
687.7137, 2312.880
688.1958, 2319.135
688.6779, 2320.423
689.1600, 2313.893
689.6422, 2308.732
690.1243, 2308.968
690.6064, 2313.701
691.0885, 2316.857
691.5706, 2318.400
692.0527, 2319.263
692.5349, 2320.354
693.0170, 2321.094
693.4991, 2319.643
693.9812, 2315.952
694.4633, 2313.885
694.9454, 2318.458
695.4276, 2324.079
695.9097, 2325.731
696.3918, 2320.690
696.8739, 2317.763
697.3560, 2319.916
697.8381, 2323.286
698.3203, 2324.881
698.8024, 2324.204
699.2845, 2323.411
699.7666, 2322.671
700.2487, 2321.816
700.7308, 2320.292
701.2130, 2318.318
701.6951, 2317.263
702.1772, 2317.667
702.6593, 2318.687
703.1414, 2319.581
703.6235, 2320.350
704.1057, 2320.985
704.5878, 2321.411
705.0699, 2321.798
705.5520, 2322.171
706.0341, 2322.567
706.5162, 2323.124
706.9984, 2324.673
707.4805, 2325.092
707.9626, 2323.054
708.4447, 2319.437
708.9268, 2319.376
709.4089, 2323.292
709.8911, 2327.263
710.3732, 2329.058
710.8553, 2329.434
711.3374, 2330.511
711.8195, 2332.156
712.3016, 2333.372
712.7838, 2333.413
713.2659, 2332.766
713.7480, 2331.687
714.2301, 2330.170
714.7122, 2328.829
715.1943, 2327.758
715.6765, 2326.999
716.1586, 2326.545
716.6407, 2326.352
717.1228, 2326.910
717.6049, 2328.650
718.0870, 2330.343
718.5692, 2330.794
719.0513, 2330.104
719.5334, 2328.942
720.0155, 2327.230
720.4976, 2325.922
720.9797, 2325.997
721.4619, 2327.129
721.9440, 2328.957
722.4261, 2331.840
722.9082, 2334.222
723.3903, 2335.190
723.8724, 2335.299
724.3546, 2335.291
724.8367, 2335.220
725.3188, 2335.059
725.8009, 2334.811
726.2830, 2334.441
726.7651, 2333.856
727.2473, 2333.015
727.7294, 2332.181
728.2115, 2331.300
728.6936, 2330.626
729.1757, 2330.458
729.6578, 2330.886
730.1400, 2332.221
730.6221, 2336.678
731.1042, 2340.271
731.5863, 2339.447
732.0684, 2335.353
732.5505, 2331.772
733.0327, 2329.358
733.5148, 2328.049
733.9969, 2328.055
734.4790, 2329.220
734.9611, 2330.467
735.4432, 2331.903
735.9254, 2333.118
736.4075, 2333.802
736.8896, 2334.130
737.3717, 2335.117
737.8538, 2336.656
738.3359, 2337.351
738.8181, 2334.613
739.3002, 2331.566
739.7823, 2331.979
740.2644, 2336.003
740.7465, 2339.558
741.2286, 2340.546
741.7108, 2341.000
742.1929, 2342.406
742.6750, 2345.287
743.1571, 2345.746
743.6392, 2342.358
744.1213, 2339.234
744.6035, 2340.318
745.0856, 2345.181
745.5677, 2347.110
746.0498, 2345.510
746.5319, 2343.562
747.0140, 2344.805
747.4962, 2347.400
747.9783, 2348.418
748.4604, 2347.026
748.9425, 2345.871
749.4246, 2346.799
749.9067, 2348.300
750.3889, 2349.041
750.8710, 2349.113
751.3531, 2348.062
751.8352, 2345.337
752.3173, 2342.217
752.7994, 2339.913
753.2816, 2338.389
753.7637, 2338.822
754.2458, 2341.789
754.7279, 2345.154
755.2100, 2345.540
755.6921, 2344.458
756.1743, 2345.206
756.6564, 2350.243
757.1385, 2354.495
757.6206, 2354.753
758.1027, 2352.720
758.5848, 2350.853
759.0670, 2349.191
759.5491, 2348.172
760.0312, 2347.916
760.5133, 2348.290
760.9954, 2349.159
761.4775, 2350.578
761.9597, 2351.921
762.4418, 2353.106
762.9239, 2354.013
763.4060, 2354.255
763.8881, 2354.020
764.3702, 2353.820
764.8524, 2353.594
765.3345, 2353.743
765.8166, 2354.772
766.2987, 2356.332
766.7808, 2357.526
767.2629, 2357.560
767.7451, 2358.117
768.2272, 2359.975
768.7093, 2362.421
769.1914, 2363.084
769.6735, 2361.820
770.1556, 2360.405
770.6378, 2359.372
771.1199, 2358.746
771.6020, 2358.851
772.0841, 2359.464
772.5662, 2359.796
773.0483, 2358.530
773.5305, 2357.677
774.0126, 2359.168
774.4947, 2362.391
774.9768, 2363.983
775.4589, 2361.055
775.9410, 2359.718
776.4232, 2362.770
776.9053, 2368.964
777.3874, 2370.109
777.8695, 2365.798
778.3516, 2361.751
778.8337, 2361.217
779.3159, 2362.815
779.7980, 2364.082
780.2801, 2365.061
780.7622, 2366.017
781.2443, 2367.673
781.7264, 2368.837
782.2086, 2368.302
782.6907, 2366.162
783.1728, 2365.120
783.6548, 2365.211
784.1370, 2366.699
784.6191, 2370.647
785.1012, 2376.423
785.5833, 2377.604
786.0654, 2373.893
786.5475, 2370.021
787.0297, 2368.885
787.5118, 2369.616
787.9939, 2371.235
788.4760, 2373.558
788.9581, 2375.465
789.4402, 2377.117
789.9224, 2377.492
790.4045, 2375.230
790.8866, 2370.079
791.3687, 2366.976
791.8508, 2367.083
792.3329, 2367.584
792.8151, 2366.867
793.2972, 2365.191
793.7793, 2365.941
794.2614, 2369.190
794.7435, 2372.452
795.2256, 2373.335
795.7078, 2373.487
796.1899, 2375.566
796.6720, 2379.491
797.1541, 2382.361
797.6362, 2382.154
798.1183, 2381.062
798.6005, 2380.389
799.0826, 2380.259
799.5647, 2378.560
800.0468, 2373.810
800.5289, 2370.750
801.0110, 2373.322
801.4932, 2380.396
801.9753, 2383.560
802.4574, 2382.910
802.9395, 2381.680
803.4216, 2382.468
803.9037, 2383.732
804.3859, 2383.592
804.8680, 2381.975
805.3501, 2380.979
805.8322, 2382.299
806.3143, 2383.495
806.7964, 2383.353
807.2786, 2381.846
807.7607, 2379.940
808.2428, 2377.220
808.7249, 2375.736
809.2070, 2377.576
809.6891, 2381.685
810.1713, 2384.876
810.6534, 2387.066
811.1355, 2388.148
811.6176, 2387.145
812.0997, 2385.671
812.5818, 2384.984
813.0640, 2385.180
813.5461, 2385.260
814.0282, 2383.662
814.5103, 2383.541
814.9924, 2387.101
815.4745, 2394.114
815.9567, 2396.731
816.4388, 2394.622
816.9209, 2391.740
817.4030, 2390.222
817.8851, 2389.875
818.3672, 2390.690
818.8494, 2392.538
819.3315, 2394.469
819.8136, 2397.082
820.2957, 2398.734
820.7778, 2397.776
821.2599, 2394.108
821.7421, 2392.556
822.2242, 2393.978
822.7063, 2395.913
823.1884, 2397.260
823.6705, 2398.201
824.1526, 2400.282
824.6348, 2403.363
825.1169, 2405.088
825.5990, 2402.438
826.0811, 2398.730
826.5632, 2397.207
827.0453, 2397.700
827.5275, 2398.672
828.0096, 2400.228
828.4917, 2401.501
828.9738, 2402.499
829.4559, 2403.068
829.9380, 2401.721
830.4202, 2398.023
830.9023, 2394.791
831.3844, 2393.138
831.8665, 2392.947
832.3486, 2394.910
832.8307, 2398.391
833.3129, 2400.450
833.7950, 2397.893
834.2771, 2395.014
834.7592, 2394.149
835.2413, 2395.104
835.7234, 2396.796
836.2056, 2399.591
836.6877, 2402.214
837.1698, 2404.412
837.6519, 2406.102
838.1340, 2406.971
838.6161, 2407.041
839.0983, 2406.951
839.5804, 2406.886
840.0625, 2406.836
840.5446, 2406.504
841.0267, 2406.163
841.5089, 2406.524
841.9910, 2408.569
842.4731, 2410.510
842.9552, 2411.971
843.4373, 2412.978
843.9194, 2413.648
844.4016, 2414.142
844.8837, 2413.467
845.3658, 2410.965
845.8479, 2408.017
846.3300, 2406.962
846.8121, 2407.468
847.2943, 2408.688
847.7764, 2411.228
848.2585, 2413.015
848.7406, 2412.076
849.2227, 2409.843
849.7048, 2408.585
850.1870, 2409.427
850.6691, 2409.627
851.1512, 2408.736
851.6333, 2407.419
852.1154, 2406.503
852.5975, 2406.010
853.0797, 2406.216
853.5618, 2407.259
854.0439, 2408.658
854.5260, 2409.808
855.0081, 2411.062
855.4902, 2412.997
855.9724, 2416.385
856.4545, 2419.096
856.9366, 2420.706
857.4187, 2421.450
857.9008, 2421.120
858.3829, 2419.322
858.8651, 2419.364
859.3472, 2421.825
859.8293, 2424.057
860.3114, 2422.519
860.7935, 2419.061
861.2756, 2416.933
861.7578, 2416.569
862.2399, 2417.452
862.7220, 2421.339
863.2041, 2424.911
863.6862, 2425.351
864.1683, 2422.063
864.6505, 2419.440
865.1326, 2417.387
865.6147, 2416.429
866.0968, 2417.530
866.5789, 2420.126
867.0610, 2421.795
867.5432, 2422.561
868.0253, 2423.259
868.5074, 2424.894
868.9895, 2426.347
869.4716, 2426.449
869.9537, 2425.182
870.4359, 2424.655
870.9180, 2425.547
871.4001, 2426.315
871.8822, 2426.131
872.3643, 2425.328
872.8464, 2426.063
873.3286, 2428.224
873.8107, 2429.916
874.2928, 2429.852
874.7749, 2428.951
875.2570, 2427.361
875.7391, 2425.661
876.2213, 2425.706
876.7034, 2431.395
877.1855, 2434.829
877.6676, 2432.847
878.1497, 2428.005
878.6318, 2427.355
879.1140, 2431.548
879.5961, 2433.510
880.0782, 2430.565
880.5603, 2426.231
881.0424, 2425.617
881.5245, 2427.485
882.0067, 2429.351
882.4888, 2430.928
882.9709, 2431.550
883.4530, 2429.355
883.9351, 2426.918
884.4172, 2427.648
884.8994, 2432.749
885.3815, 2436.931
885.8636, 2439.868
886.3457, 2441.313
886.8278, 2439.716
887.3099, 2436.523
887.7921, 2435.287
888.2742, 2436.733
888.7563, 2439.142
889.2384, 2442.470
889.7205, 2445.620
890.2026, 2447.442
890.6848, 2447.301
891.1669, 2448.590
891.6490, 2452.240
892.1311, 2455.119
892.6132, 2453.997
893.0953, 2450.112
893.5775, 2449.095
894.0596, 2450.882
894.5417, 2452.508
895.0238, 2451.750
895.5059, 2450.327
895.9880, 2449.056
896.4702, 2448.073
896.9523, 2448.611
897.4344, 2452.012
897.9165, 2454.526
898.3986, 2454.586
898.8807, 2452.925
899.3629, 2451.911
899.8450, 2451.511
900.3271, 2451.536
900.8092, 2452.541
901.2913, 2453.264
901.7734, 2451.285
902.2556, 2448.395
902.7377, 2448.339
903.2198, 2455.933
903.7019, 2461.200
904.1840, 2462.890
904.6661, 2462.054
905.1483, 2459.498
905.6304, 2455.414
906.1125, 2453.772
906.5946, 2455.659
907.0767, 2458.661
907.5588, 2461.611
908.0410, 2463.584
908.5231, 2462.845
909.0052, 2456.545
909.4873, 2454.325
909.9694, 2460.467
910.4515, 2467.498
910.9337, 2469.700
911.4158, 2466.799
911.8979, 2465.193
912.3800, 2464.980
912.8621, 2465.564
913.3442, 2467.023
913.8264, 2468.651
914.3085, 2469.628
914.7906, 2469.927
915.2727, 2470.001
915.7548, 2470.132
916.2369, 2469.885
916.7191, 2468.856
917.2012, 2467.329
917.6833, 2466.802
918.1654, 2467.299
918.6475, 2468.400
919.1296, 2470.249
919.6118, 2472.284
920.0939, 2474.246
920.5760, 2475.810
921.0581, 2476.171
921.5402, 2473.032
922.0223, 2471.319
922.5045, 2472.948
922.9866, 2475.769
923.4687, 2476.263
923.9508, 2474.158
924.4329, 2473.307
924.9150, 2474.314
925.3972, 2476.538
925.8793, 2480.681
926.3614, 2484.980
926.8435, 2486.474
927.3256, 2483.814
927.8077, 2481.600
928.2899, 2481.482
928.7720, 2481.904
929.2541, 2481.995
929.7362, 2481.728
930.2183, 2481.802
930.7004, 2482.239
931.1826, 2483.110
931.6647, 2485.499
932.1468, 2487.793
932.6289, 2487.476
933.1110, 2484.970
933.5931, 2482.817
934.0753, 2481.740
934.5574, 2481.468
935.0395, 2482.053
935.5216, 2483.339
936.0037, 2484.865
936.4858, 2486.661
936.9680, 2488.059
937.4501, 2488.596
937.9322, 2489.080
938.4143, 2490.057
938.8964, 2491.744
939.3785, 2494.601
939.8607, 2500.041
940.3428, 2504.324
940.8249, 2505.978
941.3070, 2506.961
941.7891, 2509.705
942.2712, 2514.334
942.7534, 2515.390
943.2355, 2512.264
943.7176, 2508.675
944.1997, 2508.338
944.6818, 2509.080
945.1639, 2508.022
945.6461, 2504.910
946.1282, 2503.608
946.6103, 2507.247
947.0924, 2510.354
947.5745, 2511.023
948.0566, 2509.636
948.5388, 2507.816
949.0209, 2505.615
949.5030, 2503.406
949.9851, 2500.770
950.4672, 2498.901
950.9493, 2499.935
951.4315, 2502.477
951.9136, 2503.732
952.3957, 2500.877
952.8778, 2499.681
953.3599, 2500.848
953.8420, 2503.542
954.3242, 2507.482
954.8063, 2512.252
955.2884, 2514.628
955.7705, 2513.961
956.2526, 2512.504
956.7347, 2511.582
957.2169, 2511.129
957.6990, 2511.112
958.1811, 2511.567
958.6632, 2512.241
959.1453, 2513.177
959.6274, 2514.170
960.1096, 2515.292
960.5917, 2516.336
961.0738, 2515.850
961.5559, 2514.204
962.0380, 2513.696
962.5201, 2517.020
963.0023, 2520.416
963.4844, 2521.938
963.9665, 2521.790
964.4486, 2520.497
964.9307, 2517.249
965.4128, 2515.260
965.8950, 2515.368
966.3771, 2516.161
966.8592, 2514.991
967.3413, 2512.951
967.8234, 2513.367
968.3055, 2517.501
968.7877, 2520.754
969.2698, 2519.326
969.7519, 2517.005
970.2340, 2517.105
970.7161, 2520.172
971.1982, 2520.160
971.6804, 2516.393
972.1625, 2513.075
972.6446, 2513.126
973.1267, 2515.215
973.6088, 2517.087
974.0909, 2518.802
974.5731, 2520.630
975.0552, 2522.997
975.5373, 2525.102
976.0194, 2527.366
976.5015, 2528.862
976.9836, 2526.522
977.4658, 2519.891
977.9479, 2518.526
978.4300, 2525.282
978.9121, 2533.474
979.3942, 2535.341
979.8763, 2534.297
980.3585, 2534.853
980.8406, 2538.197
981.3226, 2541.750
981.8047, 2545.917
982.2869, 2549.271
982.7690, 2551.043
983.2511, 2551.315
983.7332, 2549.958
984.2153, 2547.182
984.6974, 2545.683
985.1796, 2548.348
985.6617, 2551.732
986.1438, 2553.082
986.6259, 2552.978
987.1080, 2553.284
987.5901, 2554.217
988.0723, 2555.423
988.5544, 2556.830
989.0365, 2558.472
989.5186, 2560.847
990.0007, 2563.502
990.4828, 2564.677
990.9650, 2563.764
991.4471, 2563.385
991.9292, 2564.837
992.4113, 2567.665
992.8934, 2572.215
993.3755, 2578.700
993.8577, 2582.156
994.3398, 2582.088
994.8219, 2581.646
995.3040, 2581.728
995.7861, 2583.118
996.2682, 2589.038
996.7504, 2597.488
997.2325, 2602.793
997.7146, 2597.371
998.1967, 2595.561
998.6788, 2603.424
999.1609, 2614.168
999.6431, 2616.501
1000.125, 2610.517
1000.607, 2610.166
1001.089, 2617.799
1001.572, 2626.819
1002.054, 2630.762
1002.536, 2633.222
1003.018, 2638.176
1003.500, 2646.360
1003.982, 2653.462
1004.464, 2658.641
1004.946, 2663.729
1005.428, 2669.316
1005.911, 2675.418
1006.393, 2681.548
1006.875, 2688.054
1007.357, 2696.095
1007.839, 2707.823
1008.321, 2719.222
1008.803, 2727.999
1009.285, 2735.392
1009.768, 2743.527
1010.250, 2753.180
1010.732, 2760.149
1011.214, 2763.360
1011.696, 2767.780
1012.178, 2780.758
1012.660, 2796.823
1013.142, 2807.304
1013.624, 2811.759
1014.107, 2816.734
1014.589, 2824.914
1015.071, 2833.600
1015.553, 2842.180
1016.035, 2850.486
1016.517, 2857.648
1016.999, 2863.757
1017.481, 2870.131
1017.964, 2877.065
1018.446, 2884.579
1018.928, 2895.526
1019.410, 2905.770
1019.892, 2909.542
1020.374, 2902.023
1020.856, 2898.654
1021.338, 2900.427
1021.820, 2903.706
1022.303, 2906.677
1022.785, 2908.757
1023.267, 2908.335
1023.749, 2905.525
1024.231, 2901.126
1024.713, 2895.353
1025.195, 2888.262
1025.677, 2879.869
1026.160, 2870.216
1026.642, 2858.433
1027.124, 2844.308
1027.606, 2831.922
1028.088, 2822.152
1028.570, 2813.726
1029.052, 2806.282
1029.534, 2798.743
1030.016, 2789.380
1030.499, 2777.330
1030.981, 2767.041
1031.463, 2759.770
1031.945, 2752.221
1032.427, 2742.127
1032.909, 2730.798
1033.391, 2722.443
1033.873, 2716.673
1034.355, 2711.691
1034.838, 2706.948
1035.320, 2702.370
1035.802, 2697.498
1036.284, 2693.049
1036.766, 2690.216
1037.248, 2689.402
1037.730, 2687.796
1038.212, 2685.143
1038.695, 2682.426
1039.177, 2680.489
1039.659, 2679.075
1040.141, 2677.908
1040.623, 2676.961
1041.105, 2676.373
1041.587, 2677.341
1042.069, 2676.606
1042.552, 2672.455
1043.034, 2666.940
1043.516, 2665.092
1043.998, 2666.113
1044.480, 2666.853
1044.962, 2666.329
1045.444, 2665.836
1045.926, 2667.775
1046.408, 2668.873
1046.891, 2665.469
1047.373, 2656.583
1047.855, 2653.145
1048.337, 2655.784
1048.819, 2658.373
1049.301, 2656.423
1049.783, 2652.700
1050.265, 2649.163
1050.747, 2646.702
1051.230, 2647.618
1051.712, 2657.914
1052.194, 2663.644
1052.676, 2662.200
1053.158, 2657.926
1053.640, 2656.058
1054.122, 2656.075
1054.604, 2656.156
1055.087, 2656.097
1055.569, 2655.862
1056.051, 2655.267
1056.533, 2654.642
1057.015, 2653.910
1057.497, 2653.293
1057.979, 2654.352
1058.461, 2657.361
1058.943, 2658.810
1059.426, 2657.352
1059.908, 2654.484
1060.390, 2650.266
1060.872, 2646.477
1061.354, 2646.007
1061.836, 2652.023
1062.318, 2653.958
1062.800, 2649.582
1063.282, 2645.029
1063.765, 2644.315
1064.247, 2646.547
1064.729, 2649.600
1065.211, 2653.095
1065.693, 2655.380
1066.175, 2655.385
1066.657, 2654.333
1067.139, 2651.917
1067.622, 2649.148
1068.104, 2647.280
1068.586, 2646.333
1069.068, 2646.102
1069.550, 2646.652
1070.032, 2646.621
1070.514, 2643.224
1070.996, 2639.940
1071.479, 2640.823
1071.961, 2645.660
1072.443, 2646.896
1072.925, 2642.990
1073.407, 2639.441
1073.889, 2637.907
1074.371, 2637.196
1074.853, 2634.822
1075.335, 2631.920
1075.818, 2630.738
1076.300, 2632.297
1076.782, 2634.096
1077.264, 2636.276
1077.746, 2637.626
1078.228, 2637.356
1078.710, 2635.644
1079.192, 2632.731
1079.674, 2628.993
1080.156, 2627.000
1080.639, 2630.181
1081.121, 2633.181
1081.603, 2632.194
1082.085, 2629.402
1082.567, 2628.319
1083.049, 2629.463
1083.531, 2629.193
1084.013, 2626.919
1084.496, 2626.224
1084.978, 2632.712
1085.460, 2640.827
1085.942, 2644.294
1086.424, 2643.354
1086.906, 2641.371
1087.388, 2637.216
1087.870, 2635.616
1088.353, 2638.193
1088.835, 2642.537
1089.317, 2645.285
1089.799, 2646.559
1090.281, 2646.345
1090.763, 2644.493
1091.245, 2642.438
1091.727, 2639.954
1092.209, 2638.292
1092.692, 2638.130
1093.174, 2639.229
1093.656, 2640.504
1094.138, 2641.960
1094.620, 2643.843
1095.102, 2646.554
1095.584, 2649.085
1096.066, 2651.657
1096.548, 2653.060
1097.031, 2651.384
1097.513, 2645.359
1097.995, 2643.304
1098.477, 2645.828
1098.959, 2647.760
1099.441, 2643.180
1099.923, 2637.751
1100.405, 2639.525
1100.888, 2646.093
1101.370, 2650.372
1101.852, 2648.854
1102.334, 2648.606
1102.816, 2650.669
1103.298, 2653.150
1103.780, 2653.777
1104.262, 2653.172
1104.745, 2652.844
1105.227, 2652.867
1105.709, 2652.539
1106.191, 2651.093
1106.673, 2649.738
1107.155, 2648.556
1107.637, 2647.976
1108.119, 2649.757
1108.601, 2653.371
1109.083, 2655.230
1109.566, 2654.395
1110.048, 2652.663
1110.530, 2649.848
1111.012, 2647.799
1111.494, 2648.115
1111.976, 2650.623
1112.458, 2653.454
1112.940, 2656.659
1113.423, 2659.362
1113.905, 2661.368
1114.387, 2662.437
1114.869, 2660.816
1115.351, 2658.717
1115.833, 2659.705
1116.315, 2666.450
1116.797, 2669.544
1117.280, 2668.265
1117.762, 2666.091
1118.244, 2665.447
1118.726, 2665.573
1119.208, 2664.776
1119.690, 2663.623
1120.172, 2663.769
1120.654, 2667.726
1121.136, 2670.083
1121.619, 2669.918
1122.101, 2668.672
1122.583, 2667.719
1123.065, 2667.005
1123.547, 2666.104
1124.029, 2665.083
1124.511, 2665.153
1124.993, 2669.355
1125.475, 2671.685
1125.958, 2668.865
1126.440, 2663.905
1126.922, 2663.516
1127.404, 2667.038
1127.886, 2668.563
1128.368, 2666.908
1128.850, 2664.872
1129.332, 2664.167
1129.815, 2664.128
1130.297, 2664.337
1130.779, 2664.765
1131.261, 2665.458
1131.743, 2666.412
1132.225, 2667.435
1132.707, 2668.528
1133.189, 2669.434
1133.672, 2669.593
1134.154, 2669.599
1134.636, 2670.098
1135.118, 2671.132
1135.600, 2672.831
1136.082, 2675.343
1136.564, 2677.888
1137.046, 2680.180
1137.528, 2682.214
1138.010, 2683.948
1138.493, 2685.454
1138.975, 2686.832
1139.457, 2688.084
1139.939, 2689.242
1140.421, 2690.359
1140.903, 2691.253
1141.385, 2691.254
1141.867, 2691.139
1142.350, 2693.114
1142.832, 2696.634
1143.314, 2699.624
1143.796, 2701.091
1144.278, 2702.092
1144.760, 2702.700
1145.242, 2703.125
1145.724, 2703.690
1146.207, 2704.286
1146.689, 2704.210
1147.171, 2703.533
1147.653, 2703.630
1148.135, 2706.761
1148.617, 2708.930
1149.099, 2708.272
1149.581, 2706.207
1150.063, 2705.442
1150.546, 2705.843
1151.028, 2706.752
1151.510, 2708.135
1151.992, 2708.826
1152.474, 2706.376
1152.956, 2704.594
1153.438, 2706.572
1153.920, 2711.126
1154.402, 2713.656
1154.885, 2714.181
1155.367, 2713.563
1155.849, 2711.805
1156.331, 2709.900
1156.813, 2708.649
1157.295, 2707.712
1157.777, 2706.857
1158.259, 2706.089
1158.742, 2705.106
1159.224, 2703.911
1159.706, 2702.980
1160.188, 2702.881
1160.670, 2702.488
1161.152, 2699.415
1161.634, 2695.868
1162.116, 2695.163
1162.599, 2698.665
1163.081, 2700.331
1163.563, 2699.880
1164.045, 2698.907
1164.527, 2697.707
1165.009, 2697.079
1165.491, 2699.330
1165.973, 2702.656
1166.455, 2703.345
1166.938, 2698.324
1167.420, 2695.480
1167.902, 2695.296
1168.384, 2695.945
1168.866, 2696.949
1169.348, 2697.272
1169.830, 2694.294
1170.312, 2689.092
1170.794, 2685.200
1171.277, 2684.192
1171.759, 2683.800
1172.241, 2683.886
1172.723, 2684.468
1173.205, 2685.845
1173.687, 2687.599
1174.169, 2688.961
1174.651, 2689.917
1175.134, 2690.764
1175.616, 2691.681
1176.098, 2692.318
1176.580, 2692.500
1177.062, 2692.554
1177.544, 2693.346
1178.026, 2694.298
1178.508, 2693.500
1178.990, 2690.805
1179.473, 2689.265
1179.955, 2691.626
1180.437, 2693.280
1180.919, 2692.532
1181.401, 2690.837
1181.883, 2690.941
1182.365, 2692.520
1182.847, 2695.144
1183.329, 2699.022
1183.812, 2700.947
1184.294, 2697.484
1184.776, 2693.986
1185.258, 2692.534
1185.740, 2692.597
1186.222, 2692.739
1186.704, 2692.979
1187.186, 2693.255
1187.669, 2693.372
1188.151, 2694.296
1188.633, 2697.710
1189.115, 2700.776
1189.597, 2702.068
1190.079, 2701.728
1190.561, 2699.281
1191.043, 2695.494
1191.526, 2694.746
1192.008, 2700.368
1192.490, 2704.809
1192.972, 2702.950
1193.454, 2699.751
1193.936, 2698.375
1194.418, 2698.733
1194.900, 2701.029
1195.382, 2704.692
1195.865, 2706.045
1196.347, 2702.284
1196.829, 2697.800
1197.311, 2692.859
1197.793, 2689.826
1198.275, 2691.891
1198.757, 2698.858
1199.239, 2699.700
1199.721, 2695.106
1200.204, 2691.403
1200.686, 2692.339
1201.168, 2694.628
1201.650, 2697.604
1202.132, 2700.478
1202.614, 2702.435
1203.096, 2703.456
1203.578, 2703.344
1204.061, 2702.227
1204.543, 2701.928
1205.025, 2703.862
1205.507, 2706.561
1205.989, 2710.346
1206.471, 2713.758
1206.953, 2714.180
1207.435, 2711.699
1207.917, 2712.195
1208.400, 2715.805
1208.882, 2718.676
1209.364, 2717.754
1209.846, 2715.843
1210.328, 2713.645
1210.810, 2711.885
1211.292, 2711.856
1211.774, 2713.507
1212.256, 2715.766
1212.739, 2718.539
1213.221, 2720.133
1213.703, 2718.365
1214.185, 2716.196
1214.667, 2714.747
1215.149, 2714.312
1215.631, 2716.223
1216.113, 2720.241
1216.596, 2721.832
1217.078, 2720.350
1217.560, 2719.292
1218.042, 2722.131
1218.524, 2724.930
1219.006, 2725.463
1219.488, 2724.371
1219.970, 2722.413
1220.453, 2719.793
1220.935, 2719.197
1221.417, 2721.181
1221.899, 2723.220
1222.381, 2722.942
1222.863, 2723.114
1223.345, 2726.086
1223.827, 2730.289
1224.309, 2731.199
1224.792, 2729.177
1225.274, 2726.919
1225.756, 2724.857
1226.238, 2723.311
1226.720, 2722.473
1227.202, 2722.221
1227.684, 2722.383
1228.166, 2722.989
1228.648, 2724.424
1229.131, 2726.470
1229.613, 2728.053
1230.095, 2728.899
1230.577, 2729.308
1231.059, 2729.793
1231.541, 2729.358
1232.023, 2726.917
1232.505, 2723.598
1232.988, 2723.903
1233.470, 2726.744
1233.952, 2727.138
1234.434, 2723.118
1234.916, 2719.978
1235.398, 2721.347
1235.880, 2723.246
1236.362, 2724.423
1236.844, 2724.445
1237.327, 2720.083
1237.809, 2713.246
1238.291, 2710.807
1238.773, 2716.081
1239.255, 2720.552
1239.737, 2720.412
1240.219, 2719.470
1240.701, 2719.034
1241.183, 2719.191
1241.666, 2720.065
1242.148, 2721.756
1242.630, 2724.928
1243.112, 2730.938
1243.594, 2734.347
1244.076, 2732.263
1244.558, 2730.267
1245.040, 2731.364
1245.523, 2734.085
1246.005, 2734.809
1246.487, 2734.201
1246.969, 2733.707
1247.451, 2733.233
1247.933, 2734.444
1248.415, 2738.084
1248.897, 2741.963
1249.380, 2745.323
1249.862, 2747.776
1250.344, 2748.008
1250.826, 2746.772
1251.308, 2745.392
1251.790, 2743.883
1252.272, 2743.159
1252.754, 2743.143
1253.236, 2744.378
1253.719, 2748.450
1254.201, 2752.521
1254.683, 2751.092
1255.165, 2746.849
1255.647, 2744.252
1256.129, 2744.626
1256.611, 2745.711
1257.093, 2747.690
1257.575, 2749.505
1258.058, 2750.742
1258.540, 2751.230
1259.022, 2749.220
1259.504, 2746.936
1259.986, 2748.485
1260.468, 2755.370
1260.950, 2759.228
1261.432, 2759.888
1261.915, 2759.194
1262.397, 2757.524
1262.879, 2755.798
1263.361, 2754.121
1263.843, 2753.379
1264.325, 2755.169
1264.807, 2760.069
1265.289, 2762.153
1265.771, 2761.505
1266.254, 2760.118
1266.736, 2758.703
1267.218, 2757.444
1267.700, 2756.801
1268.182, 2756.086
1268.664, 2754.107
1269.146, 2750.910
1269.628, 2750.469
1270.110, 2752.654
1270.593, 2756.645
1271.075, 2764.333
1271.557, 2770.404
1272.039, 2771.472
1272.521, 2770.657
1273.003, 2770.234
1273.485, 2769.938
1273.967, 2766.656
1274.450, 2761.561
1274.932, 2759.711
1275.414, 2766.515
1275.896, 2771.686
1276.378, 2772.965
1276.860, 2772.487
1277.342, 2770.915
1277.824, 2769.058
1278.306, 2769.605
1278.789, 2771.922
1279.271, 2774.288
1279.753, 2776.945
1280.235, 2777.677
1280.717, 2775.515
1281.199, 2773.639
1281.681, 2774.432
1282.163, 2776.753
1282.646, 2779.476
1283.128, 2781.968
1283.610, 2782.922
1284.092, 2781.679
1284.574, 2779.679
1285.056, 2776.698
1285.538, 2774.298
1286.020, 2773.289
1286.502, 2773.542
1286.984, 2776.214
1287.467, 2779.433
1287.949, 2779.790
1288.431, 2776.175
1288.913, 2776.150
1289.395, 2779.784
1289.877, 2783.399
1290.359, 2785.655
1290.841, 2786.143
1291.324, 2781.854
1291.806, 2777.645
1292.288, 2779.458
1292.770, 2787.181
1293.252, 2790.136
1293.734, 2788.880
1294.216, 2787.894
1294.698, 2789.765
1295.181, 2791.440
1295.663, 2791.296
1296.145, 2790.749
1296.627, 2790.432
1297.109, 2790.495
1297.591, 2792.226
1298.073, 2794.992
1298.555, 2796.694
1299.037, 2795.933
1299.520, 2795.530
1300.002, 2796.011
1300.484, 2797.020
1300.966, 2798.028
1301.448, 2799.079
1301.930, 2801.610
1302.412, 2804.441
1302.894, 2804.863
1303.376, 2800.272
1303.859, 2798.799
1304.341, 2800.825
1304.823, 2802.717
1305.305, 2802.045
1305.787, 2799.213
##END=



