##NAMES=Weddellite
##RRUFFID=R050242
##IDEAL CHEMISTRY=Ca(C_2_)^6+^O_4_&#183;2H_2_O
##LOCALITY=Biggs, Wasco County, Oregon, USA
##OWNER=RRUFF
##SOURCE=Marcus Origlieri
##DESCRIPTION=Isolated yellowish brown crystal
##STATUS=The identification of this mineral has been confirmed by X-ray diffraction and chemical analysis
##URL=rruff.info/R050242
##MEASURED CHEMISTRY=Ca_1.00_(C_2_O_4_)Â·2H_2_O ; C not measured
92.29974, 0.0000000E+00
92.78186, 0.0000000E+00
93.26398, 0.0000000E+00
93.74609, 776.7883
94.22821, 755.4067
94.71033, 758.8644
95.19244, 786.2720
95.67456, 834.0670
96.15668, 908.9247
96.63879, 1004.429
97.12091, 1096.668
97.60303, 1183.640
98.08514, 1273.562
98.56726, 1376.442
99.04938, 1492.708
99.53149, 1621.626
100.0136, 1762.807
100.4957, 1915.640
100.9778, 2076.964
101.4600, 2242.298
101.9421, 2417.960
102.4242, 2618.413
102.9063, 2849.335
103.3884, 3094.397
103.8705, 3335.999
104.3527, 3566.094
104.8348, 3827.811
105.3169, 4144.288
105.7990, 4505.605
106.2811, 4833.229
106.7632, 5111.042
107.2454, 5367.973
107.7275, 5622.929
108.2096, 5873.909
108.6917, 6130.506
109.1738, 6398.593
109.6559, 6684.276
110.1381, 6956.539
110.6202, 7196.828
111.1023, 7432.553
111.5844, 7692.848
112.0665, 7987.284
112.5486, 8301.082
113.0308, 8630.021
113.5129, 8973.745
113.9950, 9343.790
114.4771, 9746.158
114.9592, 10173.38
115.4413, 10620.46
115.9235, 11100.02
116.4056, 11587.26
116.8877, 12063.98
117.3698, 12533.66
117.8519, 12999.01
118.3340, 13468.45
118.8162, 13935.60
119.2983, 14382.88
119.7804, 14808.99
120.2625, 15215.56
120.7446, 15602.14
121.2267, 15980.65
121.7089, 16327.81
122.1910, 16616.52
122.6731, 16855.92
123.1552, 17086.85
123.6373, 17332.11
124.1194, 17582.66
124.6016, 17831.82
125.0837, 18072.55
125.5658, 18309.04
126.0479, 18538.75
126.5300, 18762.60
127.0121, 18996.40
127.4943, 19266.52
127.9764, 19556.11
128.4585, 19833.63
128.9406, 20060.91
129.4227, 20273.81
129.9048, 20531.70
130.3869, 20835.18
130.8691, 21177.78
131.3512, 21578.21
131.8333, 22024.73
132.3154, 22449.21
132.7975, 22799.45
133.2796, 23096.73
133.7618, 23419.47
134.2439, 23721.58
134.7260, 23925.98
135.2081, 24087.21
135.6902, 24263.49
136.1723, 24411.50
136.6545, 24500.51
137.1366, 24531.46
137.6187, 24574.85
138.1008, 24638.99
138.5829, 24710.43
139.0650, 24763.49
139.5472, 24797.82
140.0293, 24817.84
140.5114, 24818.73
140.9935, 24791.51
141.4756, 24791.94
141.9577, 24833.60
142.4399, 24901.74
142.9220, 24938.34
143.4041, 24926.96
143.8862, 24914.48
144.3683, 24930.46
144.8504, 24983.90
145.3326, 25043.87
145.8147, 25112.34
146.2968, 25187.04
146.7789, 25239.80
147.2610, 25255.81
147.7431, 25264.86
148.2253, 25288.49
148.7074, 25335.52
149.1895, 25383.24
149.6716, 25423.69
150.1537, 25456.07
150.6358, 25507.72
151.1180, 25626.03
151.6001, 25737.42
152.0822, 25779.21
152.5643, 25649.43
153.0464, 25558.52
153.5285, 25549.65
154.0107, 25633.94
154.4928, 25712.19
154.9749, 25791.96
155.4570, 25858.97
155.9391, 25899.40
156.4212, 25869.43
156.9034, 25852.90
157.3855, 25884.94
157.8676, 25981.75
158.3497, 26047.62
158.8318, 26039.90
159.3139, 25998.13
159.7961, 25972.63
160.2782, 25979.94
160.7603, 26002.01
161.2424, 26036.09
161.7245, 26087.13
162.2066, 26127.89
162.6888, 26138.26
163.1709, 26133.27
163.6530, 26137.50
164.1351, 26172.56
164.6172, 26210.37
165.0993, 26230.29
165.5815, 26219.99
166.0636, 26220.02
166.5457, 26263.50
167.0278, 26332.15
167.5099, 26387.87
167.9920, 26396.92
168.4742, 26395.27
168.9563, 26414.47
169.4384, 26469.94
169.9205, 26524.99
170.4026, 26561.32
170.8847, 26579.42
171.3669, 26579.17
171.8490, 26542.59
172.3311, 26495.43
172.8132, 26463.00
173.2953, 26447.46
173.7774, 26453.38
174.2596, 26487.83
174.7417, 26547.86
175.2238, 26623.22
175.7059, 26739.87
176.1880, 26858.68
176.6701, 26916.49
177.1523, 26872.18
177.6344, 26799.90
178.1165, 26783.85
178.5986, 26817.17
179.0807, 26861.06
179.5628, 26884.93
180.0450, 26899.97
180.5271, 26931.70
181.0092, 27000.32
181.4913, 27073.32
181.9734, 27096.75
182.4555, 27073.55
182.9377, 27038.88
183.4198, 27008.56
183.9019, 26987.21
184.3840, 26991.50
184.8661, 27040.14
185.3482, 27105.10
185.8304, 27127.38
186.3125, 27106.69
186.7946, 27082.83
187.2767, 27097.57
187.7588, 27141.79
188.2409, 27169.45
188.7231, 27149.98
189.2052, 27115.11
189.6873, 27161.78
190.1694, 27296.14
190.6515, 27437.39
191.1336, 27510.23
191.6158, 27519.27
192.0979, 27504.78
192.5800, 27469.22
193.0621, 27419.93
193.5442, 27381.06
194.0263, 27352.27
194.5085, 27334.45
194.9906, 27337.07
195.4727, 27359.21
195.9548, 27365.94
196.4369, 27338.08
196.9190, 27286.49
197.4012, 27272.12
197.8833, 27303.03
198.3654, 27339.47
198.8475, 27327.69
199.3296, 27264.47
199.8117, 27222.66
200.2939, 27233.65
200.7760, 27287.36
201.2581, 27300.32
201.7402, 27260.28
202.2223, 27212.13
202.7044, 27208.26
203.1866, 27252.87
203.6687, 27310.76
204.1508, 27386.91
204.6329, 27476.63
205.1150, 27495.86
205.5971, 27424.09
206.0793, 27326.36
206.5614, 27273.88
207.0435, 27270.11
207.5256, 27296.73
208.0077, 27359.06
208.4898, 27455.80
208.9720, 27529.46
209.4541, 27578.83
209.9362, 27606.71
210.4183, 27609.44
210.9004, 27576.57
211.3825, 27556.47
211.8647, 27566.91
212.3468, 27608.63
212.8289, 27631.58
213.3110, 27626.36
213.7931, 27616.35
214.2752, 27631.96
214.7574, 27682.53
215.2395, 27732.50
215.7216, 27773.42
216.2037, 27804.89
216.6858, 27838.52
217.1679, 27881.15
217.6500, 27917.72
218.1322, 27924.60
218.6143, 27884.31
219.0964, 27858.97
219.5785, 27869.96
220.0606, 27919.67
220.5427, 27947.65
221.0249, 27937.54
221.5070, 27923.55
221.9891, 27952.59
222.4712, 28056.74
222.9533, 28129.97
223.4354, 28134.24
223.9176, 28063.74
224.3997, 28030.66
224.8818, 28047.74
225.3639, 28088.21
225.8460, 28125.78
226.3281, 28163.47
226.8103, 28191.63
227.2924, 28203.99
227.7745, 28199.54
228.2566, 28207.39
228.7387, 28233.50
229.2208, 28265.66
229.7030, 28288.79
230.1851, 28292.64
230.6672, 28309.05
231.1493, 28352.82
231.6314, 28425.94
232.1135, 28464.71
232.5957, 28453.63
233.0778, 28424.34
233.5599, 28406.78
234.0420, 28402.33
234.5241, 28406.68
235.0062, 28418.54
235.4884, 28437.78
235.9705, 28470.92
236.4526, 28531.29
236.9347, 28592.13
237.4168, 28628.08
237.8989, 28628.63
238.3811, 28623.50
238.8632, 28609.88
239.3453, 28588.01
239.8274, 28599.51
240.3095, 28667.78
240.7916, 28742.90
241.2738, 28781.77
241.7559, 28768.29
242.2380, 28749.39
242.7201, 28722.59
243.2022, 28690.44
243.6843, 28701.06
244.1665, 28789.54
244.6486, 28880.65
245.1307, 28909.95
245.6128, 28831.95
246.0949, 28787.66
246.5770, 28808.07
247.0592, 28884.70
247.5413, 28931.90
248.0234, 28930.53
248.5055, 28923.41
248.9876, 28942.54
249.4697, 29005.90
249.9519, 29054.81
250.4340, 29080.68
250.9161, 29085.99
251.3982, 29085.01
251.8803, 29067.58
252.3624, 29057.00
252.8446, 29070.10
253.3267, 29119.04
253.8088, 29161.14
254.2909, 29189.54
254.7730, 29208.74
255.2551, 29239.59
255.7373, 29294.74
256.2194, 29341.54
256.7015, 29359.16
257.1836, 29335.85
257.6657, 29315.96
258.1478, 29300.46
258.6299, 29290.54
259.1121, 29289.96
259.5942, 29302.27
260.0763, 29318.18
260.5584, 29333.85
261.0405, 29349.13
261.5226, 29363.90
262.0048, 29376.16
262.4869, 29388.91
262.9690, 29408.97
263.4511, 29434.82
263.9332, 29470.66
264.4153, 29523.98
264.8975, 29606.70
265.3796, 29658.80
265.8617, 29671.84
266.3438, 29661.93
266.8259, 29656.99
267.3080, 29655.36
267.7902, 29663.38
268.2723, 29687.42
268.7544, 29731.91
269.2365, 29759.77
269.7186, 29762.55
270.2007, 29759.70
270.6829, 29787.44
271.1650, 29858.84
271.6471, 29913.55
272.1292, 29924.27
272.6113, 29889.91
273.0934, 29868.60
273.5756, 29861.75
274.0577, 29865.79
274.5398, 29876.87
275.0219, 29894.97
275.5040, 29919.83
275.9861, 29955.35
276.4683, 29999.75
276.9504, 30028.92
277.4325, 30040.20
277.9146, 30043.04
278.3967, 30042.64
278.8788, 30037.01
279.3610, 30046.22
279.8431, 30078.53
280.3252, 30129.57
280.8073, 30183.52
281.2894, 30244.54
281.7715, 30291.80
282.2537, 30295.08
282.7358, 30253.04
283.2179, 30235.26
283.7000, 30265.14
284.1821, 30322.12
284.6642, 30338.83
285.1464, 30311.96
285.6285, 30275.03
286.1106, 30246.33
286.5927, 30226.48
287.0748, 30226.42
287.5569, 30250.20
288.0391, 30291.52
288.5212, 30342.25
289.0033, 30402.86
289.4854, 30456.14
289.9675, 30491.73
290.4496, 30510.74
290.9318, 30516.22
291.4139, 30505.91
291.8960, 30489.30
292.3781, 30478.14
292.8602, 30472.78
293.3423, 30477.85
293.8245, 30510.52
294.3066, 30556.92
294.7887, 30565.81
295.2708, 30528.41
295.7529, 30480.19
296.2350, 30458.20
296.7172, 30461.86
297.1993, 30487.62
297.6814, 30545.74
298.1635, 30623.07
298.6456, 30694.86
299.1277, 30761.81
299.6099, 30816.07
300.0920, 30846.94
300.5741, 30858.10
301.0562, 30857.19
301.5383, 30838.21
302.0204, 30813.98
302.5026, 30800.71
302.9847, 30798.30
303.4668, 30808.45
303.9489, 30843.96
304.4310, 30891.05
304.9131, 30926.12
305.3953, 30936.24
305.8774, 30937.26
306.3595, 30938.99
306.8416, 30943.35
307.3237, 30961.07
307.8058, 31021.27
308.2880, 31091.15
308.7701, 31125.96
309.2522, 31099.63
309.7343, 31069.53
310.2164, 31090.10
310.6985, 31145.71
311.1807, 31190.96
311.6628, 31192.53
312.1449, 31178.24
312.6270, 31171.57
313.1091, 31176.75
313.5912, 31186.13
314.0734, 31185.79
314.5555, 31186.72
315.0376, 31208.96
315.5197, 31290.43
316.0018, 31373.38
316.4839, 31414.68
316.9661, 31405.13
317.4482, 31400.21
317.9303, 31431.91
318.4124, 31478.42
318.8945, 31514.75
319.3766, 31521.81
319.8588, 31527.50
320.3409, 31546.91
320.8230, 31580.50
321.3051, 31605.07
321.7872, 31613.98
322.2693, 31612.19
322.7515, 31603.63
323.2336, 31566.13
323.7157, 31547.12
324.1978, 31570.42
324.6799, 31626.90
325.1620, 31664.21
325.6442, 31646.82
326.1263, 31627.36
326.6084, 31632.69
327.0905, 31680.71
327.5726, 31730.94
328.0547, 31784.37
328.5369, 31837.93
329.0190, 31885.67
329.5011, 31946.35
329.9832, 31982.95
330.4653, 31976.27
330.9474, 31896.56
331.4296, 31852.02
331.9117, 31860.81
332.3938, 31897.60
332.8759, 31925.39
333.3580, 31932.08
333.8401, 31950.15
334.3223, 31996.62
334.8044, 32077.63
335.2865, 32118.42
335.7686, 32105.16
336.2507, 32066.49
336.7328, 32020.81
337.2150, 31944.93
337.6971, 31926.63
338.1792, 32003.97
338.6613, 32154.57
339.1434, 32238.06
339.6255, 32235.27
340.1076, 32209.75
340.5898, 32199.57
341.0719, 32203.72
341.5540, 32232.90
342.0361, 32293.96
342.5182, 32373.87
343.0003, 32448.98
343.4825, 32521.18
343.9646, 32569.17
344.4467, 32562.99
344.9288, 32508.93
345.4109, 32500.40
345.8930, 32550.56
346.3752, 32615.36
346.8573, 32622.87
347.3394, 32578.48
347.8215, 32548.25
348.3036, 32570.38
348.7857, 32625.20
349.2679, 32658.24
349.7500, 32669.52
350.2321, 32664.19
350.7142, 32637.70
351.1963, 32597.60
351.6784, 32563.45
352.1606, 32534.82
352.6427, 32522.29
353.1248, 32550.50
353.6069, 32613.95
354.0890, 32676.13
354.5711, 32717.89
355.0533, 32740.99
355.5354, 32741.22
356.0175, 32705.36
356.4996, 32680.16
356.9817, 32719.77
357.4638, 32802.56
357.9460, 32876.60
358.4281, 32915.08
358.9102, 32934.84
359.3923, 32945.89
359.8744, 32948.33
360.3565, 32949.61
360.8387, 32949.25
361.3208, 32951.13
361.8029, 32960.14
362.2850, 32978.36
362.7671, 33002.68
363.2492, 33032.32
363.7314, 33066.71
364.2135, 33103.86
364.6956, 33144.89
365.1777, 33186.53
365.6598, 33226.45
366.1419, 33264.98
366.6241, 33301.10
367.1062, 33356.26
367.5883, 33412.13
368.0704, 33413.16
368.5525, 33265.00
369.0346, 33136.13
369.5168, 33096.85
369.9989, 33198.29
370.4810, 33275.53
370.9631, 33330.86
371.4452, 33362.06
371.9273, 33362.07
372.4095, 33290.57
372.8916, 33248.14
373.3737, 33268.05
373.8558, 33353.25
374.3379, 33406.71
374.8200, 33422.35
375.3022, 33415.33
375.7843, 33390.34
376.2664, 33331.84
376.7485, 33308.59
377.2306, 33336.88
377.7127, 33402.87
378.1949, 33462.61
378.6770, 33514.86
379.1591, 33563.55
379.6412, 33612.71
380.1233, 33662.67
380.6054, 33697.30
381.0876, 33713.87
381.5697, 33719.28
382.0518, 33713.97
382.5339, 33699.61
383.0160, 33708.79
383.4981, 33783.19
383.9803, 33886.55
384.4624, 33892.74
384.9445, 33798.98
385.4266, 33697.94
385.9087, 33669.66
386.3908, 33698.53
386.8730, 33747.15
387.3551, 33819.03
387.8372, 33888.95
388.3193, 33927.47
388.8014, 33937.78
389.2835, 33931.79
389.7657, 33892.90
390.2478, 33853.00
390.7299, 33852.07
391.2120, 33901.72
391.6941, 33959.59
392.1762, 33996.09
392.6584, 34020.88
393.1405, 34050.07
393.6226, 34100.31
394.1047, 34147.34
394.5868, 34170.12
395.0689, 34169.32
395.5511, 34183.48
396.0332, 34271.09
396.5153, 34354.05
396.9974, 34372.22
397.4795, 34221.32
397.9616, 34112.27
398.4438, 34098.16
398.9259, 34156.09
399.4080, 34214.19
399.8901, 34285.58
400.3722, 34338.46
400.8543, 34354.85
401.3365, 34312.51
401.8186, 34299.80
402.3007, 34333.38
402.7828, 34386.14
403.2649, 34424.80
403.7470, 34441.70
404.2292, 34458.75
404.7113, 34481.05
405.1934, 34507.94
405.6755, 34529.00
406.1576, 34540.67
406.6397, 34554.51
407.1219, 34583.12
407.6040, 34630.16
408.0861, 34661.31
408.5682, 34669.04
409.0503, 34666.68
409.5324, 34683.96
410.0146, 34721.84
410.4967, 34754.07
410.9788, 34765.48
411.4609, 34760.14
411.9430, 34751.40
412.4251, 34737.30
412.9073, 34731.97
413.3894, 34753.78
413.8715, 34795.43
414.3536, 34835.50
414.8357, 34863.74
415.3178, 34891.16
415.8000, 34939.50
416.2821, 35002.70
416.7642, 35051.59
417.2463, 35050.89
417.7284, 35034.98
418.2105, 35046.41
418.6927, 35101.62
419.1748, 35143.68
419.6569, 35125.11
420.1390, 35074.58
420.6211, 35036.55
421.1032, 35040.21
421.5854, 35048.38
422.0675, 35034.82
422.5496, 35001.34
423.0317, 34999.62
423.5138, 35093.52
423.9959, 35191.37
424.4781, 35233.33
424.9602, 35134.89
425.4423, 35078.69
425.9244, 35124.53
426.4065, 35217.07
426.8886, 35228.78
427.3708, 35058.42
427.8529, 34933.54
428.3350, 34941.25
428.8171, 35108.30
429.2992, 35215.99
429.7813, 35236.23
430.2635, 35234.43
430.7456, 35281.42
431.2277, 35393.44
431.7098, 35485.19
432.1919, 35541.63
432.6740, 35568.10
433.1562, 35577.92
433.6383, 35569.43
434.1204, 35555.02
434.6025, 35540.73
435.0846, 35526.09
435.5667, 35505.58
436.0489, 35475.20
436.5310, 35454.72
437.0131, 35484.18
437.4952, 35547.35
437.9773, 35587.09
438.4594, 35560.75
438.9415, 35517.64
439.4236, 35528.22
439.9058, 35586.99
440.3879, 35652.34
440.8700, 35704.36
441.3521, 35746.30
441.8342, 35785.27
442.3163, 35829.86
442.7985, 35850.02
443.2806, 35801.49
443.7627, 35721.80
444.2448, 35670.01
444.7269, 35680.43
445.2090, 35709.80
445.6912, 35748.00
446.1733, 35793.90
446.6554, 35829.97
447.1375, 35850.11
447.6196, 35860.14
448.1017, 35863.25
448.5839, 35832.74
449.0660, 35832.06
449.5481, 35881.03
450.0302, 35955.31
450.5123, 36003.40
450.9944, 36021.23
451.4766, 36019.12
451.9587, 35991.25
452.4408, 35935.08
452.9229, 35913.94
453.4050, 35934.21
453.8871, 35973.74
454.3693, 36010.73
454.8514, 36044.50
455.3335, 36103.21
455.8156, 36208.71
456.2977, 36316.58
456.7798, 36314.05
457.2620, 36210.01
457.7441, 36125.32
458.2262, 36141.64
458.7083, 36219.87
459.1904, 36278.25
459.6725, 36313.63
460.1547, 36338.21
460.6368, 36347.88
461.1189, 36357.16
461.6010, 36393.57
462.0831, 36494.75
462.5652, 36583.73
463.0474, 36589.11
463.5295, 36534.48
464.0116, 36485.68
464.4937, 36468.31
464.9758, 36468.98
465.4579, 36486.77
465.9401, 36526.31
466.4222, 36553.53
466.9043, 36528.91
467.3864, 36502.57
467.8685, 36521.73
468.3506, 36666.38
468.8328, 36766.71
469.3149, 36786.10
469.7970, 36746.63
470.2791, 36732.14
470.7612, 36755.27
471.2433, 36784.84
471.7255, 36805.86
472.2076, 36814.38
472.6897, 36844.85
473.1718, 36908.48
473.6539, 36972.77
474.1360, 36993.59
474.6182, 36968.41
475.1003, 36951.50
475.5824, 36952.84
476.0645, 36971.30
476.5466, 37012.04
477.0287, 37072.95
477.5109, 37128.16
477.9930, 37160.71
478.4751, 37176.32
478.9572, 37183.53
479.4393, 37182.18
479.9214, 37180.40
480.4036, 37196.20
480.8857, 37214.01
481.3678, 37208.50
481.8499, 37141.56
482.3320, 37084.08
482.8141, 37088.18
483.2963, 37138.92
483.7784, 37189.63
484.2605, 37232.22
484.7426, 37263.01
485.2247, 37276.16
485.7068, 37265.15
486.1890, 37264.24
486.6711, 37261.43
487.1532, 37280.36
487.6353, 37345.56
488.1174, 37505.47
488.5995, 37631.59
489.0817, 37697.77
489.5638, 37722.29
490.0459, 37772.28
490.5280, 37862.80
491.0101, 37939.16
491.4922, 37967.02
491.9744, 37944.77
492.4565, 37960.62
492.9386, 38017.78
493.4207, 38096.02
493.9028, 38183.22
494.3849, 38276.01
494.8671, 38347.72
495.3492, 38387.18
495.8313, 38413.76
496.3134, 38455.93
496.7955, 38511.05
497.2776, 38569.57
497.7598, 38633.59
498.2419, 38694.93
498.7240, 38731.57
499.2061, 38743.87
499.6882, 38786.21
500.1703, 38931.15
500.6525, 39101.98
501.1346, 39226.09
501.6167, 39270.44
502.0988, 39293.34
502.5809, 39301.49
503.0630, 39299.48
503.5452, 39296.80
504.0273, 39255.00
504.5094, 39253.12
504.9915, 39333.51
505.4736, 39500.22
505.9557, 39594.28
506.4379, 39590.52
506.9200, 39545.37
507.4021, 39489.72
507.8842, 39414.90
508.3663, 39377.98
508.8484, 39404.36
509.3306, 39434.63
509.8127, 39342.65
510.2948, 39132.97
510.7769, 38965.68
511.2590, 38920.16
511.7411, 38949.77
512.2233, 38948.80
512.7054, 38919.67
513.1875, 38883.42
513.6696, 38856.53
514.1517, 38831.26
514.6339, 38793.72
515.1160, 38738.31
515.5981, 38685.85
516.0802, 38639.52
516.5623, 38606.51
517.0444, 38596.63
517.5266, 38656.59
518.0087, 38694.53
518.4908, 38660.25
518.9729, 38570.06
519.4550, 38500.39
519.9371, 38472.09
520.4193, 38459.97
520.9014, 38456.09
521.3835, 38462.41
521.8656, 38467.95
522.3477, 38471.44
522.8298, 38475.76
523.3120, 38482.77
523.7941, 38491.32
524.2762, 38510.64
524.7583, 38548.36
525.2404, 38591.21
525.7225, 38606.96
526.2047, 38596.16
526.6868, 38575.89
527.1689, 38541.81
527.6510, 38506.75
528.1331, 38512.59
528.6152, 38558.40
529.0974, 38600.95
529.5795, 38592.82
530.0616, 38565.53
530.5437, 38571.39
531.0258, 38639.51
531.5079, 38686.66
531.9901, 38635.20
532.4722, 38535.48
532.9543, 38466.33
533.4364, 38461.01
533.9185, 38480.53
534.4006, 38524.38
534.8828, 38587.80
535.3649, 38635.38
535.8470, 38638.92
536.3291, 38649.41
536.8112, 38696.52
537.2933, 38804.61
537.7755, 38843.70
538.2576, 38778.05
538.7397, 38692.14
539.2218, 38688.14
539.7039, 38774.65
540.1860, 38854.93
540.6682, 38916.68
541.1503, 38954.42
541.6324, 38946.48
542.1145, 38897.14
542.5966, 38847.86
543.0787, 38810.22
543.5609, 38790.38
544.0430, 38813.14
544.5251, 38875.54
545.0072, 38923.31
545.4893, 38886.16
545.9714, 38830.32
546.4536, 38831.92
546.9357, 38933.92
547.4178, 39021.27
547.8999, 39035.50
548.3820, 39010.22
548.8641, 38991.74
549.3463, 38999.56
549.8284, 39002.30
550.3105, 38978.11
550.7926, 38938.32
551.2747, 38949.87
551.7568, 39051.35
552.2390, 39140.69
552.7211, 39166.70
553.2032, 39122.43
553.6853, 39097.64
554.1674, 39095.31
554.6495, 39103.23
555.1317, 39107.98
555.6138, 39111.32
556.0959, 39128.84
556.5780, 39169.34
557.0601, 39211.13
557.5422, 39218.30
558.0244, 39201.81
558.5065, 39192.73
558.9886, 39218.73
559.4707, 39249.29
559.9528, 39245.16
560.4349, 39215.20
560.9171, 39214.60
561.3992, 39316.16
561.8813, 39419.49
562.3634, 39447.58
562.8455, 39351.61
563.3276, 39309.76
563.8098, 39386.12
564.2919, 39500.11
564.7740, 39582.36
565.2561, 39620.05
565.7382, 39649.33
566.2203, 39673.18
566.7025, 39691.09
567.1846, 39705.52
567.6667, 39719.80
568.1488, 39710.64
568.6309, 39655.81
569.1130, 39573.75
569.5952, 39531.95
570.0773, 39530.34
570.5594, 39547.15
571.0415, 39574.77
571.5236, 39608.00
572.0057, 39637.91
572.4879, 39663.81
572.9700, 39687.20
573.4521, 39704.76
573.9342, 39721.98
574.4163, 39745.33
574.8984, 39796.55
575.3806, 39830.53
575.8627, 39814.26
576.3448, 39769.81
576.8269, 39759.63
577.3090, 39833.37
577.7911, 39888.08
578.2733, 39882.46
578.7554, 39818.66
579.2375, 39819.24
579.7196, 39907.41
580.2017, 40003.75
580.6838, 40049.48
581.1660, 40045.25
581.6481, 40053.17
582.1302, 40077.80
582.6123, 40107.59
583.0944, 40137.29
583.5765, 40161.60
584.0587, 40160.90
584.5408, 40114.44
585.0229, 40067.80
585.5050, 40075.11
585.9871, 40118.61
586.4692, 40154.46
586.9513, 40151.54
587.4334, 40147.71
587.9155, 40162.39
588.3976, 40195.77
588.8798, 40233.84
589.3619, 40299.34
589.8440, 40346.68
590.3261, 40343.61
590.8082, 40256.79
591.2903, 40237.24
591.7725, 40314.69
592.2546, 40417.65
592.7367, 40472.87
593.2188, 40477.10
593.7009, 40454.99
594.1830, 40397.02
594.6652, 40338.12
595.1473, 40351.64
595.6294, 40423.52
596.1115, 40480.72
596.5936, 40475.11
597.0757, 40449.35
597.5579, 40459.03
598.0400, 40498.17
598.5221, 40535.57
599.0042, 40557.50
599.4863, 40570.22
599.9684, 40573.27
600.4506, 40563.30
600.9327, 40568.06
601.4148, 40618.55
601.8969, 40670.35
602.3790, 40689.17
602.8611, 40657.73
603.3433, 40622.64
603.8254, 40574.44
604.3075, 40532.30
604.7896, 40533.67
605.2717, 40584.38
605.7538, 40631.46
606.2360, 40658.82
606.7181, 40674.46
607.2002, 40704.50
607.6823, 40744.46
608.1644, 40760.47
608.6465, 40695.55
609.1287, 40614.30
609.6108, 40613.31
610.0929, 40690.65
610.5750, 40767.59
611.0571, 40804.09
611.5392, 40819.65
612.0214, 40827.16
612.5035, 40823.87
612.9856, 40827.93
613.4677, 40847.88
613.9498, 40875.01
614.4319, 40900.29
614.9141, 40921.88
615.3962, 40948.09
615.8783, 40987.71
616.3604, 41026.20
616.8425, 41022.96
617.3246, 40972.64
617.8068, 40932.04
618.2889, 40922.21
618.7710, 40935.66
619.2531, 40954.27
619.7352, 40978.69
620.2173, 41015.52
620.6995, 41091.01
621.1816, 41169.17
621.6637, 41198.25
622.1458, 41174.70
622.6279, 41158.41
623.1100, 41192.68
623.5922, 41239.59
624.0743, 41271.44
624.5564, 41292.71
625.0385, 41280.69
625.5206, 41195.99
626.0027, 41100.12
626.4849, 41067.03
626.9670, 41122.97
627.4491, 41177.96
627.9312, 41229.66
628.4133, 41263.75
628.8954, 41226.39
629.3776, 41117.66
629.8597, 41035.19
630.3418, 41030.54
630.8239, 41071.52
631.3060, 41089.09
631.7881, 41089.95
632.2703, 41117.21
632.7524, 41258.75
633.2345, 41398.93
633.7166, 41409.47
634.1987, 41266.94
634.6808, 41173.03
635.1630, 41249.94
635.6451, 41368.64
636.1272, 41434.29
636.6093, 41399.43
637.0914, 41384.71
637.5735, 41400.32
638.0557, 41427.08
638.5378, 41440.00
639.0199, 41436.20
639.5020, 41434.11
639.9841, 41432.37
640.4662, 41441.36
640.9484, 41502.37
641.4305, 41603.40
641.9126, 41666.91
642.3947, 41629.81
642.8768, 41558.50
643.3589, 41524.93
643.8411, 41525.83
644.3232, 41546.84
644.8053, 41606.66
645.2874, 41662.70
645.7695, 41675.77
646.2516, 41634.84
646.7338, 41642.54
647.2159, 41775.36
647.6980, 41909.58
648.1801, 41976.42
648.6622, 41954.90
649.1443, 41929.44
649.6265, 41898.40
650.1086, 41865.82
650.5907, 41832.34
651.0728, 41798.88
651.5549, 41785.87
652.0370, 41801.72
652.5192, 41827.05
653.0013, 41835.04
653.4834, 41831.81
653.9655, 41831.24
654.4476, 41845.23
654.9297, 41858.41
655.4119, 41850.45
655.8940, 41832.96
656.3761, 41840.59
656.8582, 41941.63
657.3403, 42010.76
657.8224, 41979.96
658.3046, 41857.43
658.7867, 41805.34
659.2688, 41850.44
659.7509, 41914.55
660.2330, 41960.48
660.7151, 41988.11
661.1973, 42004.07
661.6794, 42007.39
662.1615, 42005.53
662.6436, 41998.52
663.1257, 41992.43
663.6078, 42005.55
664.0900, 42045.36
664.5721, 42081.04
665.0542, 42071.69
665.5363, 42051.60
666.0184, 42062.99
666.5005, 42141.83
666.9827, 42221.16
667.4648, 42297.19
667.9469, 42360.42
668.4290, 42390.57
668.9111, 42353.06
669.3932, 42347.75
669.8754, 42403.11
670.3575, 42498.66
670.8396, 42577.09
671.3217, 42639.02
671.8038, 42664.93
672.2859, 42613.92
672.7681, 42534.00
673.2502, 42550.90
673.7323, 42650.10
674.2144, 42724.32
674.6965, 42674.22
675.1786, 42588.63
675.6608, 42543.48
676.1429, 42548.52
676.6250, 42557.35
677.1071, 42544.22
677.5892, 42539.17
678.0714, 42565.95
678.5535, 42644.98
679.0356, 42699.16
679.5177, 42722.15
679.9998, 42728.06
680.4819, 42727.42
680.9641, 42719.78
681.4462, 42717.70
681.9283, 42722.61
682.4104, 42733.80
682.8925, 42762.52
683.3746, 42797.36
683.8568, 42804.31
684.3389, 42752.80
684.8210, 42700.09
685.3031, 42689.00
685.7852, 42707.75
686.2673, 42730.38
686.7495, 42769.60
687.2316, 42790.68
687.7137, 42768.30
688.1958, 42716.86
688.6779, 42694.71
689.1600, 42709.91
689.6422, 42736.38
690.1243, 42764.49
690.6064, 42795.21
691.0885, 42839.04
691.5706, 42896.57
692.0527, 42946.04
692.5349, 42967.97
693.0170, 42973.82
693.4991, 42978.63
693.9812, 42983.21
694.4633, 43000.24
694.9454, 43066.29
695.4276, 43129.38
695.9097, 43138.55
696.3918, 43055.53
696.8739, 43012.73
697.3560, 43044.07
697.8381, 43110.08
698.3203, 43192.09
698.8024, 43316.99
699.2845, 43358.52
699.7666, 43284.83
700.2487, 43176.73
700.7308, 43149.67
701.2130, 43192.47
701.6951, 43234.47
702.1772, 43257.41
702.6593, 43275.93
703.1414, 43318.14
703.6235, 43367.02
704.1057, 43389.37
704.5878, 43354.20
705.0699, 43308.94
705.5520, 43253.77
706.0341, 43201.68
706.5162, 43194.82
706.9984, 43261.87
707.4805, 43334.92
707.9626, 43404.97
708.4447, 43468.45
708.9268, 43508.14
709.4089, 43523.49
709.8911, 43513.59
710.3732, 43441.53
710.8553, 43351.41
711.3374, 43388.03
711.8195, 43536.25
712.3016, 43668.45
712.7838, 43677.68
713.2659, 43648.38
713.7480, 43652.73
714.2301, 43699.12
714.7122, 43743.85
715.1943, 43799.63
715.6765, 43830.46
716.1586, 43811.27
716.6407, 43724.64
717.1228, 43655.91
717.6049, 43602.71
718.0870, 43572.59
718.5692, 43586.91
719.0513, 43639.44
719.5334, 43655.09
720.0155, 43619.52
720.4976, 43590.24
720.9797, 43654.93
721.4619, 43758.37
721.9440, 43807.57
722.4261, 43752.22
722.9082, 43698.25
723.3903, 43689.15
723.8724, 43711.00
724.3546, 43745.82
724.8367, 43785.43
725.3188, 43850.46
725.8009, 43975.25
726.2830, 44103.79
726.7651, 44107.70
727.2473, 43970.62
727.7294, 43887.78
728.2115, 43926.54
728.6936, 44021.97
729.1757, 44064.39
729.6578, 44062.54
730.1400, 44046.80
730.6221, 44025.37
731.1042, 44001.11
731.5863, 43969.81
732.0684, 43936.78
732.5505, 43918.90
733.0327, 43928.08
733.5148, 43946.18
733.9969, 43969.98
734.4790, 43998.71
734.9611, 44028.74
735.4432, 44063.43
735.9254, 44089.06
736.4075, 44096.79
736.8896, 44090.67
737.3717, 44080.72
737.8538, 44068.20
738.3359, 44068.04
738.8181, 44099.04
739.3002, 44142.14
739.7823, 44179.26
740.2644, 44209.07
740.7465, 44235.27
741.2286, 44245.85
741.7108, 44263.70
742.1929, 44312.97
742.6750, 44408.20
743.1571, 44438.84
743.6392, 44369.80
744.1213, 44303.26
744.6035, 44329.64
745.0856, 44440.83
745.5677, 44519.65
746.0498, 44558.19
746.5319, 44574.00
747.0140, 44572.22
747.4962, 44561.94
747.9783, 44556.48
748.4604, 44558.80
748.9425, 44564.75
749.4246, 44597.21
749.9067, 44619.59
750.3889, 44594.78
750.8710, 44455.65
751.3531, 44391.07
751.8352, 44432.89
752.3173, 44510.82
752.7994, 44537.92
753.2816, 44513.11
753.7637, 44504.47
754.2458, 44522.39
754.7279, 44553.98
755.2100, 44584.50
755.6921, 44616.18
756.1743, 44657.50
756.6564, 44725.00
757.1385, 44774.57
757.6206, 44772.16
758.1027, 44740.46
758.5848, 44712.08
759.0670, 44664.18
759.5491, 44663.39
760.0312, 44745.47
760.5133, 44856.48
760.9954, 44883.69
761.4775, 44821.07
761.9597, 44776.73
762.4418, 44784.18
762.9239, 44812.86
763.4060, 44804.88
763.8881, 44777.10
764.3702, 44774.67
764.8524, 44840.25
765.3345, 44913.73
765.8166, 44973.33
766.2987, 45016.50
766.7808, 45034.77
767.2629, 45003.05
767.7451, 44976.10
768.2272, 44957.69
768.7093, 44952.52
769.1914, 44985.62
769.6735, 45062.44
770.1556, 45114.82
770.6378, 45104.19
771.1199, 45064.48
771.6020, 45056.18
772.0841, 45074.14
772.5662, 45099.72
773.0483, 45132.04
773.5305, 45160.81
774.0126, 45179.07
774.4947, 45187.99
774.9768, 45194.21
775.4589, 45191.87
775.9410, 45196.79
776.4232, 45219.65
776.9053, 45254.39
777.3874, 45261.64
777.8695, 45239.99
778.3516, 45211.23
778.8337, 45175.78
779.3159, 45146.01
779.7980, 45144.34
780.2801, 45170.24
780.7622, 45220.36
781.2443, 45324.14
781.7264, 45423.71
782.2086, 45482.59
782.6907, 45500.65
783.1728, 45511.96
783.6548, 45524.33
784.1370, 45522.27
784.6191, 45485.11
785.1012, 45422.28
785.5833, 45443.71
786.0654, 45555.66
786.5475, 45646.45
787.0297, 45606.49
787.5118, 45513.01
787.9939, 45522.47
788.4760, 45620.74
788.9581, 45681.44
789.4402, 45597.83
789.9224, 45486.91
790.4045, 45401.95
790.8866, 45346.84
791.3687, 45360.35
791.8508, 45488.05
792.3329, 45608.95
792.8151, 45666.20
793.2972, 45664.23
793.7793, 45636.28
794.2614, 45581.70
794.7435, 45534.89
795.2256, 45508.61
795.7078, 45511.08
796.1899, 45574.21
796.6720, 45692.95
797.1541, 45783.80
797.6362, 45795.16
798.1183, 45778.20
798.6005, 45749.19
799.0826, 45706.34
799.5647, 45703.43
800.0468, 45762.31
800.5289, 45810.63
801.0110, 45788.01
801.4932, 45711.50
801.9753, 45717.60
802.4574, 45803.99
802.9395, 45892.39
803.4216, 45924.72
803.9037, 45930.95
804.3859, 45941.78
804.8680, 45959.30
805.3501, 45968.65
805.8322, 45964.86
806.3143, 45951.58
806.7964, 45921.74
807.2786, 45873.45
807.7607, 45879.63
808.2428, 45955.32
808.7249, 46031.36
809.2070, 46057.30
809.6891, 46048.59
810.1713, 46061.77
810.6534, 46094.65
811.1355, 46111.30
811.6176, 46059.71
812.0997, 46003.45
812.5818, 45994.66
813.0640, 46037.58
813.5461, 46082.32
814.0282, 46128.09
814.5103, 46164.47
814.9924, 46183.90
815.4745, 46186.55
815.9567, 46189.71
816.4388, 46192.16
816.9209, 46202.76
817.4030, 46233.69
817.8851, 46274.29
818.3672, 46309.19
818.8494, 46337.18
819.3315, 46352.56
819.8136, 46340.15
820.2957, 46325.83
820.7778, 46323.44
821.2599, 46334.88
821.7421, 46355.96
822.2242, 46391.07
822.7063, 46427.98
823.1884, 46460.96
823.6705, 46491.12
824.1526, 46537.24
824.6348, 46596.48
825.1169, 46621.18
825.5990, 46529.84
826.0811, 46424.54
826.5632, 46423.27
827.0453, 46510.89
827.5275, 46578.09
828.0096, 46569.35
828.4917, 46552.95
828.9738, 46553.82
829.4559, 46569.61
829.9380, 46584.86
830.4202, 46602.29
830.9023, 46607.36
831.3844, 46590.26
831.8665, 46559.82
832.3486, 46523.79
832.8307, 46489.00
833.3129, 46482.68
833.7950, 46562.42
834.2771, 46635.38
834.7592, 46631.85
835.2413, 46569.86
835.7234, 46539.34
836.2056, 46552.89
836.6877, 46587.48
837.1698, 46649.52
837.6519, 46721.09
838.1340, 46735.68
838.6161, 46697.00
839.0983, 46676.04
839.5804, 46710.05
840.0625, 46767.45
840.5446, 46822.95
841.0267, 46872.34
841.5089, 46903.80
841.9910, 46889.06
842.4731, 46883.97
842.9552, 46908.01
843.4373, 46951.51
843.9194, 46999.20
844.4016, 47055.78
844.8837, 47098.38
845.3658, 47124.27
845.8479, 47129.25
846.3300, 47091.60
846.8121, 47026.29
847.2943, 46974.85
847.7764, 46955.63
848.2585, 46948.98
848.7406, 46949.30
849.2227, 46953.46
849.7048, 46955.96
850.1870, 46944.82
850.6691, 46954.00
851.1512, 46995.97
851.6333, 47046.38
852.1154, 47058.76
852.5975, 47039.32
853.0797, 47057.86
853.5618, 47138.84
854.0439, 47216.71
854.5260, 47201.78
855.0081, 47152.70
855.4902, 47150.71
855.9724, 47249.12
856.4545, 47322.60
856.9366, 47338.37
857.4187, 47325.92
857.9008, 47289.58
858.3829, 47210.00
858.8651, 47266.52
859.3472, 47499.97
859.8293, 47716.43
860.3114, 47665.26
860.7935, 47471.50
861.2756, 47363.14
861.7578, 47375.38
862.2399, 47417.21
862.7220, 47479.18
863.2041, 47526.88
863.6862, 47528.19
864.1683, 47474.52
864.6505, 47432.01
865.1326, 47395.95
865.6147, 47386.79
866.0968, 47431.68
866.5789, 47517.39
867.0610, 47598.54
867.5432, 47673.53
868.0253, 47715.25
868.5074, 47669.01
868.9895, 47612.78
869.4716, 47615.53
869.9537, 47679.13
870.4359, 47709.73
870.9180, 47670.77
871.4001, 47642.66
871.8822, 47662.66
872.3643, 47716.90
872.8464, 47728.39
873.3286, 47699.16
873.8107, 47675.50
874.2928, 47680.08
874.7749, 47704.17
875.2570, 47756.70
875.7391, 47822.58
876.2213, 47854.96
876.7034, 47793.56
877.1855, 47751.37
877.6676, 47765.68
878.1497, 47812.91
878.6318, 47836.62
879.1140, 47836.54
879.5961, 47814.60
880.0782, 47760.75
880.5603, 47709.00
881.0424, 47710.48
881.5245, 47751.44
882.0067, 47804.38
882.4888, 47872.61
882.9709, 47932.93
883.4530, 47984.18
883.9351, 48019.60
884.4172, 48026.25
884.8994, 47986.90
885.3815, 47978.58
885.8636, 48011.68
886.3457, 48061.64
886.8278, 48096.24
887.3099, 48124.26
887.7921, 48175.27
888.2742, 48259.46
888.7563, 48326.96
889.2384, 48325.57
889.7205, 48308.68
890.2026, 48327.20
890.6848, 48403.45
891.1669, 48429.16
891.6490, 48387.74
892.1311, 48335.95
892.6132, 48307.37
893.0953, 48302.30
893.5775, 48329.38
894.0596, 48386.95
894.5417, 48441.04
895.0238, 48457.61
895.5059, 48472.99
895.9880, 48520.43
896.4702, 48598.60
896.9523, 48654.04
897.4344, 48668.52
897.9165, 48689.48
898.3986, 48740.20
898.8807, 48805.56
899.3629, 48816.52
899.8450, 48782.48
900.3271, 48774.98
900.8092, 48855.73
901.2913, 48946.38
901.7734, 48966.01
902.2556, 48947.15
902.7377, 48958.50
903.2198, 49050.19
903.7019, 49126.05
904.1840, 49161.42
904.6661, 49191.83
905.1483, 49299.20
905.6304, 49476.96
906.1125, 49570.21
906.5946, 49529.98
907.0767, 49484.44
907.5588, 49592.03
908.0410, 49758.20
908.5231, 49861.83
909.0052, 49841.22
909.4873, 49851.99
909.9694, 49940.25
910.4515, 50037.25
910.9337, 50094.87
911.4158, 50111.30
911.8979, 50118.85
912.3800, 50118.02
912.8621, 50101.46
913.3442, 50064.39
913.8264, 50007.70
914.3085, 49917.75
914.7906, 49798.45
915.2727, 49712.16
915.7548, 49740.10
916.2369, 49734.93
916.7191, 49626.16
917.2012, 49440.62
917.6833, 49318.07
918.1654, 49259.21
918.6475, 49247.57
919.1296, 49303.70
919.6118, 49373.29
920.0939, 49387.08
920.5760, 49358.65
921.0581, 49319.36
921.5402, 49266.44
922.0223, 49220.97
922.5045, 49184.77
922.9866, 49158.55
923.4687, 49142.06
923.9508, 49134.41
924.4329, 49148.85
924.9150, 49191.69
925.3972, 49233.97
925.8793, 49223.65
926.3614, 49198.77
926.8435, 49224.72
927.3256, 49333.67
927.8077, 49406.83
928.2899, 49388.28
928.7720, 49339.68
929.2541, 49289.13
929.7362, 49235.59
930.2183, 49201.38
930.7004, 49187.00
931.1826, 49189.93
931.6647, 49224.47
932.1468, 49267.03
932.6289, 49287.32
933.1110, 49287.84
933.5931, 49283.27
934.0753, 49262.32
934.5574, 49259.58
935.0395, 49295.05
935.5216, 49353.66
936.0037, 49375.47
936.4858, 49358.92
936.9680, 49374.94
937.4501, 49467.07
937.9322, 49554.39
938.4143, 49489.41
938.8964, 49359.00
939.3785, 49313.32
939.8607, 49462.82
940.3428, 49591.71
940.8249, 49662.18
941.3070, 49700.47
941.7891, 49723.99
942.2712, 49730.95
942.7534, 49755.07
943.2355, 49800.11
943.7176, 49842.05
944.1997, 49867.01
944.6818, 49873.96
945.1639, 49858.35
945.6461, 49820.26
946.1282, 49779.00
946.6103, 49715.78
947.0924, 49681.38
947.5745, 49700.92
948.0566, 49765.39
948.5388, 49839.30
949.0209, 49920.71
949.5030, 49962.38
949.9851, 49924.05
950.4672, 49856.64
950.9493, 49791.44
951.4315, 49737.82
951.9136, 49715.17
952.3957, 49766.04
952.8778, 49793.86
953.3599, 49778.66
953.8420, 49751.50
954.3242, 49754.68
954.8063, 49785.10
955.2884, 49818.91
955.7705, 49851.80
956.2526, 49894.41
956.7347, 49977.35
957.2169, 50059.70
957.6990, 50097.13
958.1811, 50072.78
958.6632, 50070.69
959.1453, 50112.65
959.6274, 50138.39
960.1096, 50102.99
960.5917, 50027.16
961.0738, 50007.09
961.5559, 50034.36
962.0380, 50060.95
962.5201, 50068.31
963.0023, 50059.01
963.4844, 50001.03
963.9665, 49931.02
964.4486, 49951.51
964.9307, 50125.30
965.4128, 50233.59
965.8950, 50234.18
966.3771, 50181.43
966.8592, 50145.62
967.3413, 50120.14
967.8234, 50080.94
968.3055, 50018.53
968.7877, 49974.63
969.2698, 49978.58
969.7519, 50007.27
970.2340, 50045.34
970.7161, 50093.45
971.1982, 50150.93
971.6804, 50228.02
972.1625, 50265.36
972.6446, 50187.89
973.1267, 50063.75
973.6088, 50013.75
974.0909, 50028.84
974.5731, 50075.16
975.0552, 50164.85
975.5373, 50252.60
976.0194, 50339.96
976.5015, 50408.79
976.9836, 50414.61
977.4658, 50352.91
977.9479, 50296.37
978.4300, 50251.71
978.9121, 50244.10
979.3942, 50336.21
979.8763, 50466.66
980.3585, 50553.48
980.8406, 50571.00
981.3226, 50587.59
981.8047, 50625.03
982.2869, 50651.36
982.7690, 50648.32
983.2511, 50618.25
983.7332, 50563.54
984.2153, 50488.59
984.6974, 50451.27
985.1796, 50515.25
985.6617, 50602.98
986.1438, 50670.61
986.6259, 50713.71
987.1080, 50718.13
987.5901, 50657.70
988.0723, 50613.04
988.5544, 50597.09
989.0365, 50597.96
989.5186, 50593.86
990.0007, 50591.84
990.4828, 50619.77
990.9650, 50688.16
991.4471, 50750.89
991.9292, 50776.79
992.4113, 50789.84
992.8934, 50813.63
993.3755, 50851.68
993.8577, 50846.41
994.3398, 50788.31
994.8219, 50741.98
995.3040, 50742.34
995.7861, 50778.27
996.2682, 50860.59
996.7504, 50963.58
997.2325, 51014.54
997.7146, 50923.63
998.1967, 50854.64
998.6788, 50849.30
999.1609, 50879.36
999.6431, 50911.84
1000.125, 50946.12
1000.607, 50959.91
1001.089, 50948.38
1001.572, 50932.26
1002.054, 50917.61
1002.536, 50917.13
1003.018, 50952.33
1003.500, 51030.84
1003.982, 51084.86
1004.464, 51103.89
1004.946, 51110.16
1005.428, 51106.98
1005.911, 51100.71
1006.393, 51109.61
1006.875, 51132.93
1007.357, 51169.07
1007.839, 51247.50
1008.321, 51298.77
1008.803, 51246.52
1009.285, 51164.41
1009.768, 51168.33
1010.250, 51300.98
1010.732, 51346.76
1011.214, 51278.78
1011.696, 51199.99
1012.178, 51223.55
1012.660, 51297.48
1013.142, 51350.10
1013.624, 51375.74
1014.107, 51385.35
1014.589, 51373.93
1015.071, 51357.41
1015.553, 51336.02
1016.035, 51315.96
1016.517, 51326.16
1016.999, 51362.34
1017.481, 51376.50
1017.964, 51339.21
1018.446, 51304.04
1018.928, 51328.13
1019.410, 51375.32
1019.892, 51399.32
1020.374, 51378.15
1020.856, 51376.15
1021.338, 51402.50
1021.820, 51423.14
1022.303, 51388.30
1022.785, 51333.66
1023.267, 51370.31
1023.749, 51482.75
1024.231, 51570.95
1024.713, 51580.41
1025.195, 51561.00
1025.677, 51503.56
1026.160, 51442.02
1026.642, 51454.34
1027.124, 51545.14
1027.606, 51627.37
1028.088, 51686.63
1028.570, 51723.79
1029.052, 51731.42
1029.534, 51723.12
1030.016, 51710.82
1030.499, 51693.02
1030.981, 51692.74
1031.463, 51718.40
1031.945, 51747.00
1032.427, 51767.80
1032.909, 51782.52
1033.391, 51800.27
1033.873, 51818.52
1034.355, 51826.91
1034.838, 51809.61
1035.320, 51794.41
1035.802, 51775.33
1036.284, 51776.08
1036.766, 51842.50
1037.248, 51999.86
1037.730, 52057.84
1038.212, 51992.49
1038.695, 51914.75
1039.177, 51941.45
1039.659, 52006.15
1040.141, 52023.12
1040.623, 51990.82
1041.105, 51974.29
1041.587, 51984.38
1042.069, 52015.16
1042.552, 52073.20
1043.034, 52142.95
1043.516, 52194.25
1043.998, 52227.24
1044.480, 52237.41
1044.962, 52218.23
1045.444, 52195.71
1045.926, 52198.31
1046.408, 52195.04
1046.891, 52148.50
1047.373, 52046.87
1047.855, 52025.29
1048.337, 52093.00
1048.819, 52161.20
1049.301, 52161.84
1049.783, 52139.98
1050.265, 52146.59
1050.747, 52177.13
1051.230, 52219.23
1051.712, 52295.16
1052.194, 52340.77
1052.676, 52337.31
1053.158, 52321.22
1053.640, 52340.69
1054.122, 52387.09
1054.604, 52431.11
1055.087, 52469.61
1055.569, 52497.61
1056.051, 52504.65
1056.533, 52507.88
1057.015, 52515.80
1057.497, 52528.75
1057.979, 52553.70
1058.461, 52594.07
1058.943, 52604.58
1059.426, 52558.11
1059.908, 52506.96
1060.390, 52528.12
1060.872, 52575.99
1061.354, 52586.23
1061.836, 52524.36
1062.318, 52483.33
1062.800, 52474.69
1063.282, 52470.07
1063.765, 52435.17
1064.247, 52392.59
1064.729, 52435.75
1065.211, 52544.52
1065.693, 52634.54
1066.175, 52641.48
1066.657, 52649.96
1067.139, 52708.08
1067.622, 52774.63
1068.104, 52788.17
1068.586, 52746.52
1069.068, 52733.21
1069.550, 52759.61
1070.032, 52769.43
1070.514, 52670.98
1070.996, 52567.11
1071.479, 52552.26
1071.961, 52629.34
1072.443, 52708.05
1072.925, 52792.79
1073.407, 52857.93
1073.889, 52897.06
1074.371, 52913.21
1074.853, 52908.32
1075.335, 52886.59
1075.818, 52852.27
1076.300, 52799.13
1076.782, 52760.20
1077.264, 52725.10
1077.746, 52732.77
1078.228, 52835.83
1078.710, 53006.07
1079.192, 53035.29
1079.674, 52941.97
1080.156, 52860.46
1080.639, 52879.64
1081.121, 52909.58
1081.603, 52888.52
1082.085, 52850.85
1082.567, 52853.05
1083.049, 52908.26
1083.531, 52929.71
1084.013, 52906.83
1084.496, 52896.41
1084.978, 52966.61
1085.460, 53064.49
1085.942, 53146.43
1086.424, 53205.60
1086.906, 53208.57
1087.388, 53104.52
1087.870, 53041.30
1088.353, 53057.91
1088.835, 53110.98
1089.317, 53134.45
1089.799, 53137.32
1090.281, 53140.82
1090.763, 53149.90
1091.245, 53150.21
1091.727, 53120.51
1092.209, 53095.68
1092.692, 53089.15
1093.174, 53100.98
1093.656, 53143.17
1094.138, 53210.80
1094.620, 53261.78
1095.102, 53265.38
1095.584, 53273.46
1096.066, 53367.90
1096.548, 53460.78
1097.031, 53432.79
1097.513, 53236.40
1097.995, 53151.80
1098.477, 53188.95
1098.959, 53264.02
1099.441, 53355.68
1099.923, 53425.97
1100.405, 53406.27
1100.888, 53329.27
1101.370, 53287.17
1101.852, 53297.10
1102.334, 53362.63
1102.816, 53522.67
1103.298, 53653.86
1103.780, 53555.79
1104.262, 53335.96
1104.745, 53259.13
1105.227, 53337.95
1105.709, 53415.02
1106.191, 53418.45
1106.673, 53413.65
1107.155, 53417.33
1107.637, 53431.91
1108.119, 53471.66
1108.601, 53531.08
1109.083, 53570.05
1109.566, 53577.36
1110.048, 53579.23
1110.530, 53595.07
1111.012, 53611.27
1111.494, 53606.39
1111.976, 53584.35
1112.458, 53636.66
1112.940, 53769.01
1113.423, 53853.51
1113.905, 53820.78
1114.387, 53744.16
1114.869, 53661.04
1115.351, 53601.06
1115.833, 53619.46
1116.315, 53775.25
1116.797, 53848.86
1117.280, 53822.58
1117.762, 53781.52
1118.244, 53785.67
1118.726, 53815.22
1119.208, 53860.41
1119.690, 53903.30
1120.172, 53891.90
1120.654, 53694.51
1121.136, 53620.17
1121.619, 53745.12
1122.101, 53918.52
1122.583, 53967.77
1123.065, 53926.89
1123.547, 53881.70
1124.029, 53842.93
1124.511, 53860.08
1124.993, 54078.77
1125.475, 54206.86
1125.958, 54093.70
1126.440, 53869.77
1126.922, 53808.55
1127.404, 53889.87
1127.886, 53941.55
1128.368, 53932.57
1128.850, 53905.90
1129.332, 53879.61
1129.815, 53858.78
1130.297, 53842.16
1130.779, 53832.30
1131.261, 53847.23
1131.743, 53886.66
1132.225, 53962.13
1132.707, 54106.36
1133.189, 54210.14
1133.672, 54104.60
1134.154, 53936.95
1134.636, 53890.94
1135.118, 54017.28
1135.600, 54042.68
1136.082, 53937.55
1136.564, 53874.76
1137.046, 53976.04
1137.528, 54136.29
1138.010, 54210.93
1138.493, 54229.30
1138.975, 54244.48
1139.457, 54294.55
1139.939, 54290.79
1140.421, 54207.63
1140.903, 54128.73
1141.385, 54128.21
1141.867, 54175.55
1142.350, 54205.26
1142.832, 54220.85
1143.314, 54241.65
1143.796, 54274.91
1144.278, 54314.75
1144.760, 54361.76
1145.242, 54411.73
1145.724, 54475.06
1146.207, 54536.31
1146.689, 54517.98
1147.171, 54423.48
1147.653, 54362.37
1148.135, 54422.01
1148.617, 54495.27
1149.099, 54557.23
1149.581, 54597.38
1150.063, 54579.08
1150.546, 54513.67
1151.028, 54483.28
1151.510, 54502.82
1151.992, 54539.84
1152.474, 54577.39
1152.956, 54621.27
1153.438, 54683.17
1153.920, 54753.22
1154.402, 54790.26
1154.885, 54794.73
1155.367, 54789.54
1155.849, 54782.32
1156.331, 54763.63
1156.813, 54705.66
1157.295, 54647.12
1157.777, 54630.50
1158.259, 54655.47
1158.742, 54674.66
1159.224, 54687.16
1159.706, 54711.35
1160.188, 54757.95
1160.670, 54814.42
1161.152, 54897.60
1161.634, 54967.83
1162.116, 54952.75
1162.599, 54795.75
1163.081, 54779.29
1163.563, 54930.29
1164.045, 55065.65
1164.527, 55036.36
1165.009, 54961.68
1165.491, 55007.34
1165.973, 55124.92
1166.455, 55219.23
1166.938, 55290.43
1167.420, 55291.71
1167.902, 55203.50
1168.384, 55112.83
1168.866, 55100.84
1169.348, 55128.33
1169.830, 55127.53
1170.312, 55108.78
1170.794, 55109.72
1171.277, 55183.65
1171.759, 55200.04
1172.241, 55121.71
1172.723, 55045.45
1173.205, 55091.31
1173.687, 55207.04
1174.169, 55313.16
1174.651, 55396.86
1175.134, 55414.20
1175.616, 55248.85
1176.098, 55162.51
1176.580, 55225.29
1177.062, 55340.34
1177.544, 55376.15
1178.026, 55351.01
1178.508, 55289.75
1178.990, 55197.50
1179.473, 55151.68
1179.955, 55201.44
1180.437, 55285.89
1180.919, 55410.52
1181.401, 55533.84
1181.883, 55563.40
1182.365, 55525.72
1182.847, 55501.30
1183.329, 55506.57
1183.812, 55507.37
1184.294, 55493.38
1184.776, 55463.80
1185.258, 55405.26
1185.740, 55340.38
1186.222, 55332.46
1186.704, 55376.52
1187.186, 55466.78
1187.669, 55626.02
1188.151, 55734.19
1188.633, 55695.18
1189.115, 55621.32
1189.597, 55554.22
1190.079, 55505.89
1190.561, 55560.83
1191.043, 55693.54
1191.526, 55773.36
1192.008, 55729.25
1192.490, 55682.40
1192.972, 55698.55
1193.454, 55726.82
1193.936, 55735.06
1194.418, 55724.16
1194.900, 55685.88
1195.382, 55630.21
1195.865, 55621.51
1196.347, 55748.62
1196.829, 55833.90
1197.311, 55727.32
1197.793, 55594.87
1198.275, 55590.98
1198.757, 55711.74
1199.239, 55748.71
1199.721, 55710.67
1200.204, 55677.63
1200.686, 55688.07
1201.168, 55720.16
1201.650, 55781.96
1202.132, 55847.07
1202.614, 55885.54
1203.096, 55897.09
1203.578, 55910.22
1204.061, 55924.42
1204.543, 55931.11
1205.025, 55893.23
1205.507, 55881.18
1205.989, 55974.95
1206.471, 56091.20
1206.953, 56100.89
1207.435, 56007.07
1207.917, 56017.54
1208.400, 56136.57
1208.882, 56213.12
1209.364, 56071.25
1209.846, 55937.79
1210.328, 55973.31
1210.810, 56082.01
1211.292, 56121.80
1211.774, 56095.36
1212.256, 56084.92
1212.739, 56097.57
1213.221, 56136.09
1213.703, 56259.64
1214.185, 56349.77
1214.667, 56297.51
1215.149, 56187.58
1215.631, 56182.21
1216.113, 56273.83
1216.596, 56325.18
1217.078, 56317.63
1217.560, 56328.66
1218.042, 56453.22
1218.524, 56568.02
1219.006, 56601.50
1219.488, 56576.89
1219.970, 56527.91
1220.453, 56459.20
1220.935, 56429.90
1221.417, 56451.97
1221.899, 56478.04
1222.381, 56476.41
1222.863, 56471.79
1223.345, 56483.64
1223.827, 56501.17
1224.309, 56474.82
1224.792, 56416.93
1225.274, 56444.14
1225.756, 56590.18
1226.238, 56709.70
1226.720, 56698.52
1227.202, 56646.21
1227.684, 56590.13
1228.166, 56538.30
1228.648, 56527.12
1229.131, 56546.51
1229.613, 56533.14
1230.095, 56459.86
1230.577, 56431.19
1231.059, 56567.89
1231.541, 56696.41
1232.023, 56723.28
1232.505, 56679.37
1232.988, 56666.71
1233.470, 56675.53
1233.952, 56657.35
1234.434, 56589.32
1234.916, 56545.83
1235.398, 56604.09
1235.880, 56650.12
1236.362, 56622.04
1236.844, 56549.48
1237.327, 56540.59
1237.809, 56572.33
1238.291, 56556.90
1238.773, 56445.42
1239.255, 56382.46
1239.737, 56475.90
1240.219, 56563.85
1240.701, 56568.55
1241.183, 56522.10
1241.666, 56508.12
1242.148, 56523.14
1242.630, 56561.87
1243.112, 56633.73
1243.594, 56690.83
1244.076, 56716.32
1244.558, 56733.64
1245.040, 56745.23
1245.523, 56763.74
1246.005, 56847.75
1246.487, 56960.34
1246.969, 57014.63
1247.451, 56964.14
1247.933, 56917.10
1248.415, 56875.99
1248.897, 56862.25
1249.380, 56891.07
1249.862, 56950.55
1250.344, 57029.23
1250.826, 57114.71
1251.308, 57185.73
1251.790, 57240.80
1252.272, 57261.69
1252.754, 57238.04
1253.236, 57216.00
1253.719, 57232.22
1254.201, 57253.46
1254.683, 57209.99
1255.165, 57140.06
1255.647, 57109.80
1256.129, 57151.80
1256.611, 57173.40
1257.093, 57165.88
1257.575, 57183.03
1258.058, 57281.64
1258.540, 57386.47
1259.022, 57416.22
1259.504, 57386.83
1259.986, 57303.28
1260.468, 57134.63
1260.950, 57102.73
1261.432, 57219.70
1261.915, 57321.12
1262.397, 57275.25
1262.879, 57227.75
1263.361, 57369.48
1263.843, 57555.47
1264.325, 57578.23
1264.807, 57407.58
1265.289, 57331.42
1265.771, 57348.25
1266.254, 57396.59
1266.736, 57470.65
1267.218, 57527.47
1267.700, 57504.67
1268.182, 57475.15
1268.664, 57526.38
1269.146, 57655.07
1269.628, 57715.27
1270.110, 57714.13
1270.593, 57714.63
1271.075, 57760.33
1271.557, 57795.13
1272.039, 57776.00
1272.521, 57751.10
1273.003, 57757.05
1273.485, 57789.39
1273.967, 57832.25
1274.450, 57877.68
1274.932, 57887.86
1275.414, 57789.33
1275.896, 57752.50
1276.378, 57845.97
1276.860, 57954.30
1277.342, 58000.80
1277.824, 57996.54
1278.306, 57944.33
1278.789, 57871.89
1279.271, 57858.26
1279.753, 57982.96
1280.235, 58071.06
1280.717, 58107.80
1281.199, 58114.61
1281.681, 58090.34
1282.163, 58057.48
1282.646, 58066.38
1283.128, 58095.53
1283.610, 58096.22
1284.092, 58021.89
1284.574, 58023.30
1285.056, 58117.25
1285.538, 58199.85
1286.020, 58204.36
1286.502, 58167.36
1286.984, 58087.63
1287.467, 58013.71
1287.949, 58034.33
1288.431, 58176.21
1288.913, 58248.37
1289.395, 58249.04
1289.877, 58263.98
1290.359, 58368.73
1290.841, 58465.34
1291.324, 58471.86
1291.806, 58440.91
1292.288, 58428.13
1292.770, 58433.28
1293.252, 58459.21
1293.734, 58501.33
1294.216, 58527.63
1294.698, 58508.73
1295.181, 58493.37
1295.663, 58512.40
1296.145, 58533.25
1296.627, 58533.81
1297.109, 58517.46
1297.591, 58488.22
1298.073, 58455.91
1298.555, 58452.72
1299.037, 58504.70
1299.520, 58561.84
1300.002, 58625.13
1300.484, 58682.31
1300.966, 58727.55
1301.448, 58748.03
1301.930, 58704.71
1302.412, 58631.18
1302.894, 58593.06
1303.376, 58612.79
1303.859, 58658.51
1304.341, 58731.02
1304.823, 58787.08
1305.305, 58789.72
1305.787, 58747.22
##END=



