##NAMES=Weddellite
##RRUFFID=R110123
##IDEAL CHEMISTRY=Ca(C_2_)^6+^O_4_&#183;2H_2_O
##LOCALITY=Tucson, Arizona, USA
##OWNER=RRUFF
##SOURCE=Gordie Downs
##DESCRIPTION=White to colorless spheroidal crystals found in the pith of a living Saguaro cactus
##STATUS=The identification of this mineral has been confirmed by single-crystal X-ray diffraction.
##URL=rruff.info/R110123
136.4404, 328.9456
136.9225, 331.9272
137.4046, 335.1194
137.8867, 338.3405
138.3688, 341.1798
138.8510, 343.3731
139.3331, 345.2745
139.8152, 348.0453
140.2973, 352.0649
140.7794, 356.1852
141.2615, 360.0777
141.7437, 363.7121
142.2258, 366.9571
142.7079, 369.3516
143.1900, 371.5029
143.6721, 374.6615
144.1542, 379.3727
144.6364, 384.5123
145.1185, 388.9157
145.6006, 392.4443
146.0827, 396.0708
146.5648, 400.5913
147.0469, 405.4088
147.5291, 409.9176
148.0112, 413.8457
148.4933, 417.4085
148.9754, 421.0812
149.4575, 424.9694
149.9396, 428.8303
150.4218, 432.8164
150.9039, 436.7094
151.3860, 440.0898
151.8681, 442.5713
152.3502, 444.3698
152.8323, 447.2113
153.3145, 452.5649
153.7966, 457.6162
154.2787, 461.9248
154.7608, 465.5117
155.2429, 468.5428
155.7250, 471.1112
156.2072, 473.1652
156.6893, 475.4041
157.1714, 477.7167
157.6535, 480.2697
158.1356, 483.5082
158.6177, 487.2062
159.0999, 490.5715
159.5820, 492.9052
160.0641, 494.0534
160.5462, 494.4505
161.0283, 494.1979
161.5104, 493.1914
161.9926, 491.4102
162.4747, 488.8552
162.9568, 485.3575
163.4389, 480.5176
163.9210, 474.3832
164.4031, 467.9542
164.8853, 461.3891
165.3674, 454.6232
165.8495, 447.5800
166.3316, 440.0864
166.8137, 432.6729
167.2958, 425.5123
167.7780, 418.6662
168.2601, 412.7956
168.7422, 408.3602
169.2243, 405.1932
169.7064, 402.6926
170.1885, 400.6991
170.6707, 399.6452
171.1528, 399.8028
171.6349, 401.0311
172.1170, 402.7413
172.5991, 404.2886
173.0812, 405.6143
173.5634, 408.0271
174.0455, 412.6664
174.5276, 417.6662
175.0097, 421.9904
175.4918, 425.7929
175.9739, 430.0532
176.4561, 435.9902
176.9382, 444.3097
177.4203, 452.0814
177.9024, 458.3514
178.3845, 464.8517
178.8666, 472.5924
179.3488, 481.6001
179.8309, 491.2433
180.3130, 500.5410
180.7951, 509.1966
181.2772, 518.1478
181.7593, 527.6713
182.2415, 537.2486
182.7236, 546.7319
183.2057, 556.0040
183.6878, 564.5951
184.1699, 571.7360
184.6520, 576.6078
185.1342, 581.4508
185.6163, 587.2332
186.0984, 592.5978
186.5805, 596.1710
187.0626, 597.5513
187.5447, 597.0683
188.0269, 594.9815
188.5090, 591.3336
188.9911, 586.5220
189.4732, 580.5637
189.9553, 573.4941
190.4374, 565.3156
190.9196, 555.7508
191.4017, 545.4514
191.8838, 535.3057
192.3659, 525.4318
192.8480, 515.0914
193.3301, 503.5864
193.8123, 491.2576
194.2944, 479.2913
194.7765, 468.0763
195.2586, 457.2733
195.7407, 446.3544
196.2228, 435.3388
196.7050, 424.6591
197.1871, 414.5287
197.6692, 404.9557
198.1513, 396.1003
198.6334, 388.2191
199.1155, 380.9784
199.5977, 374.2540
200.0798, 367.9978
200.5619, 361.9865
201.0440, 355.8807
201.5261, 349.5468
202.0082, 343.8012
202.4904, 339.0277
202.9725, 334.6735
203.4546, 330.4594
203.9367, 326.3607
204.4188, 322.5337
204.9009, 319.2975
205.3831, 316.9572
205.8652, 314.2788
206.3473, 310.9453
206.8294, 307.5034
207.3115, 304.1270
207.7936, 300.9218
208.2758, 298.0385
208.7579, 295.7441
209.2400, 294.2963
209.7221, 292.9325
210.2042, 291.8723
210.6863, 290.7379
211.1685, 289.1143
211.6506, 286.9887
212.1327, 284.8298
212.6148, 283.3122
213.0969, 282.7875
213.5790, 282.2778
214.0612, 282.1328
214.5433, 281.7969
215.0254, 280.5910
215.5075, 278.4292
215.9896, 276.0871
216.4717, 274.7310
216.9539, 275.0221
217.4360, 274.7301
217.9181, 273.4614
218.4002, 271.7719
218.8823, 270.1502
219.3644, 268.7178
219.8466, 267.3928
220.3287, 266.0988
220.8108, 264.8520
221.2929, 263.5063
221.7750, 262.1210
222.2571, 260.5964
222.7393, 258.7342
223.2214, 256.4578
223.7035, 254.0806
224.1856, 252.0900
224.6677, 250.4621
225.1498, 248.6146
225.6320, 246.1986
226.1141, 243.5206
226.5962, 241.1345
227.0783, 239.2125
227.5604, 237.3288
228.0425, 234.9723
228.5247, 232.2634
229.0068, 229.5730
229.4889, 227.0854
229.9710, 224.7330
230.4531, 222.3482
230.9352, 219.9205
231.4174, 217.4692
231.8995, 214.9545
232.3816, 212.4237
232.8637, 210.0268
233.3458, 207.9241
233.8279, 206.0190
234.3101, 203.9514
234.7922, 201.6688
235.2743, 199.3189
235.7564, 196.7614
236.2385, 194.2046
236.7206, 192.0792
237.2028, 190.7805
237.6849, 190.1294
238.1670, 189.3544
238.6491, 188.4825
239.1312, 187.4193
239.6133, 186.0804
240.0955, 184.5604
240.5776, 182.9788
241.0597, 181.3637
241.5418, 179.7586
242.0239, 178.4150
242.5060, 177.4306
242.9882, 176.6012
243.4703, 175.9578
243.9524, 175.3909
244.4345, 174.6424
244.9166, 173.4511
245.3987, 172.0931
245.8809, 172.0079
246.3630, 175.0360
246.8451, 176.9445
247.3272, 176.1720
247.8093, 174.0415
248.2914, 172.2652
248.7736, 171.7831
249.2557, 172.2695
249.7378, 172.4155
250.2199, 172.1253
250.7020, 171.5555
251.1841, 170.3948
251.6663, 169.0861
252.1484, 168.1511
252.6305, 167.8386
253.1126, 168.0160
253.5947, 168.2652
254.0768, 168.6599
254.5590, 169.0432
255.0411, 169.3234
255.5232, 169.6194
256.0053, 170.0368
256.4874, 170.6206
256.9695, 171.3935
257.4517, 172.4105
257.9338, 174.2332
258.4159, 175.6209
258.8980, 176.1944
259.3801, 176.4914
259.8622, 177.1322
260.3444, 178.3238
260.8265, 179.7426
261.3086, 180.7838
261.7907, 181.3179
262.2728, 181.6164
262.7549, 181.5922
263.2371, 181.3784
263.7192, 181.1168
264.2013, 180.8436
264.6834, 180.4837
265.1655, 179.9373
265.6476, 179.2243
266.1298, 178.1963
266.6119, 176.4792
267.0940, 174.6463
267.5761, 173.3504
268.0582, 172.6923
268.5403, 172.1011
269.0225, 170.8460
269.5046, 168.6908
269.9867, 166.9760
270.4688, 166.2291
270.9509, 165.6301
271.4330, 164.3882
271.9152, 162.4372
272.3973, 160.3586
272.8794, 158.6283
273.3615, 157.2945
273.8436, 156.4072
274.3257, 156.5816
274.8079, 156.7636
275.2900, 156.0432
275.7721, 154.4078
276.2542, 152.5497
276.7363, 150.9237
277.2184, 149.5322
277.7006, 148.1316
278.1827, 146.3609
278.6648, 144.8792
279.1469, 144.5073
279.6290, 145.0794
280.1111, 145.2288
280.5933, 143.9474
281.0754, 141.6599
281.5575, 139.9805
282.0396, 139.1144
282.5217, 138.5958
283.0038, 138.2754
283.4860, 138.1111
283.9681, 137.8625
284.4502, 137.3697
284.9323, 136.7714
285.4144, 136.3733
285.8965, 136.2667
286.3787, 136.1309
286.8608, 135.7163
287.3429, 135.1109
287.8250, 134.6673
288.3071, 134.6097
288.7892, 134.6074
289.2714, 134.1076
289.7535, 133.0407
290.2356, 132.1112
290.7177, 131.7199
291.1998, 131.7161
291.6819, 131.7277
292.1641, 131.7236
292.6462, 131.6143
293.1283, 131.2331
293.6104, 130.6174
294.0925, 130.0691
294.5746, 129.6238
295.0568, 129.3422
295.5389, 129.4644
296.0210, 130.1843
296.5031, 130.8100
296.9852, 130.5532
297.4673, 129.6980
297.9495, 128.9793
298.4316, 128.6734
298.9137, 128.6258
299.3958, 128.6443
299.8779, 128.7399
300.3600, 128.8248
300.8422, 128.8478
301.3243, 128.8180
301.8064, 128.7404
302.2885, 128.5907
302.7706, 128.4167
303.2527, 128.2816
303.7349, 128.1892
304.2170, 128.0697
304.6991, 127.8414
305.1812, 127.5920
305.6633, 127.4635
306.1454, 127.5325
306.6276, 127.5776
307.1097, 127.3467
307.5918, 126.8602
308.0739, 126.4623
308.5560, 126.2598
309.0381, 126.2163
309.5203, 126.3374
310.0024, 126.6506
310.4845, 126.8413
310.9666, 126.5718
311.4487, 125.9527
311.9308, 125.5588
312.4130, 125.6180
312.8951, 125.7629
313.3772, 125.6098
313.8593, 125.2067
314.3414, 124.8756
314.8235, 124.8147
315.3057, 124.9414
315.7878, 125.0343
316.2699, 125.0488
316.7520, 125.0953
317.2341, 125.4184
317.7162, 125.8436
318.1984, 125.9485
318.6805, 125.3145
319.1626, 124.3960
319.6447, 123.9605
320.1268, 124.1021
320.6089, 124.2557
321.0911, 123.9829
321.5732, 123.5598
322.0553, 123.3873
322.5374, 123.6286
323.0195, 124.0038
323.5016, 124.2834
323.9838, 124.4702
324.4659, 124.4653
324.9480, 124.0665
325.4301, 123.5689
325.9122, 123.3566
326.3943, 123.4929
326.8765, 123.6746
327.3586, 123.6531
327.8407, 123.4731
328.3228, 123.3900
328.8049, 123.4936
329.2870, 123.6704
329.7692, 123.8271
330.2513, 123.9618
330.7334, 124.0313
331.2155, 124.0041
331.6976, 123.8972
332.1797, 123.7520
332.6619, 123.5773
333.1440, 123.3498
333.6261, 122.9289
334.1082, 122.4263
334.5903, 122.1393
335.0724, 122.2561
335.5546, 122.5886
336.0367, 122.9654
336.5188, 123.4018
337.0009, 123.6904
337.4830, 123.6350
337.9651, 123.3672
338.4473, 123.1286
338.9294, 122.9118
339.4115, 122.7811
339.8936, 122.8516
340.3757, 123.0914
340.8578, 123.2652
341.3400, 123.3040
341.8221, 123.2071
342.3042, 122.9278
342.7863, 122.3981
343.2684, 122.0488
343.7505, 122.2041
344.2327, 122.6912
344.7148, 123.1431
345.1969, 123.5352
345.6790, 123.7363
346.1611, 123.4017
346.6432, 122.6282
347.1254, 122.0933
347.6075, 122.1031
348.0896, 122.3823
348.5717, 122.6407
349.0538, 122.8574
349.5359, 122.9960
350.0181, 123.0122
350.5002, 122.9198
350.9823, 122.8114
351.4644, 122.7236
351.9465, 122.5942
352.4286, 122.2822
352.9108, 121.8529
353.3929, 121.6299
353.8750, 121.8162
354.3571, 122.2654
354.8392, 122.6325
355.3214, 122.9857
355.8035, 123.1374
356.2856, 122.8901
356.7677, 122.4186
357.2498, 122.0108
357.7319, 121.7390
358.2141, 121.6009
358.6962, 121.6556
359.1783, 121.9657
359.6604, 122.0698
360.1425, 121.8134
360.6246, 121.3924
361.1068, 120.8874
361.5889, 120.3355
362.0710, 119.9827
362.5531, 120.0940
363.0352, 120.6607
363.5173, 120.9600
363.9995, 120.8528
364.4816, 120.6466
364.9637, 120.4173
365.4458, 120.2008
365.9279, 120.0901
366.4100, 120.1524
366.8922, 120.3072
367.3743, 120.2825
367.8564, 119.7858
368.3385, 119.5319
368.8206, 119.7584
369.3027, 120.2119
369.7849, 120.6564
370.2670, 121.0135
370.7491, 121.2359
371.2312, 121.2337
371.7133, 120.8823
372.1954, 120.6847
372.6776, 120.7380
373.1597, 120.8509
373.6418, 120.9454
374.1239, 120.9973
374.6060, 120.9740
375.0881, 120.8335
375.5703, 120.5833
376.0524, 120.4590
376.5345, 120.5665
377.0166, 120.6754
377.4987, 120.7371
377.9808, 120.7681
378.4630, 120.8198
378.9451, 120.9171
379.4272, 120.9938
379.9093, 120.8761
380.3914, 120.3426
380.8735, 119.9852
381.3557, 119.8209
381.8378, 119.8192
382.3199, 120.0337
382.8020, 120.4274
383.2841, 120.8209
383.7662, 121.0047
384.2484, 120.9479
384.7305, 120.8990
385.2126, 120.9579
385.6947, 120.9234
386.1768, 120.5651
386.6589, 120.0723
387.1411, 119.7909
387.6232, 119.9153
388.1053, 120.4212
388.5874, 121.3546
389.0695, 123.4002
389.5516, 124.5257
390.0338, 123.6422
390.5159, 122.1154
390.9980, 121.1635
391.4801, 121.1245
391.9622, 121.5322
392.4443, 121.9392
392.9265, 122.3797
393.4086, 122.4751
393.8907, 121.7909
394.3728, 121.1104
394.8549, 120.9449
395.3370, 121.2004
395.8192, 121.4501
396.3013, 121.3778
396.7834, 121.0926
397.2655, 120.9845
397.7476, 121.1455
398.2297, 121.2438
398.7119, 120.9354
399.1940, 120.5100
399.6761, 120.3777
400.1582, 120.7304
400.6403, 121.2003
401.1224, 121.4370
401.6046, 121.4495
402.0867, 121.3616
402.5688, 121.1712
403.0509, 120.9333
403.5330, 120.6915
404.0151, 120.4425
404.4973, 120.2688
404.9794, 120.2758
405.4615, 120.3621
405.9436, 120.3453
406.4257, 120.1980
406.9078, 120.0036
407.3900, 119.8051
407.8721, 119.6141
408.3542, 119.4761
408.8363, 119.3559
409.3184, 119.3255
409.8005, 119.5508
410.2827, 119.9323
410.7648, 120.0948
411.2469, 119.8306
411.7290, 119.3396
412.2111, 119.0693
412.6932, 119.0445
413.1754, 119.1282
413.6575, 119.3906
414.1396, 119.6999
414.6217, 119.9364
415.1038, 120.0737
415.5859, 120.1208
416.0681, 120.0812
416.5502, 119.9482
417.0323, 119.7782
417.5144, 119.4020
417.9965, 119.1675
418.4786, 119.2828
418.9608, 119.6360
419.4429, 120.0190
419.9250, 120.3279
420.4071, 120.5719
420.8892, 120.7752
421.3713, 120.9330
421.8535, 121.0505
422.3356, 120.9159
422.8177, 120.8893
423.2998, 121.4419
423.7819, 122.5135
424.2640, 123.4629
424.7462, 123.5805
425.2283, 122.8036
425.7104, 122.1307
426.1925, 121.5724
426.6746, 121.1200
427.1567, 120.7585
427.6389, 120.5022
428.1210, 120.3821
428.6031, 120.4172
429.0852, 120.5760
429.5673, 120.8536
430.0494, 121.3484
430.5316, 121.6119
431.0137, 121.1786
431.4958, 120.7230
431.9779, 120.7388
432.4600, 121.2310
432.9421, 121.7608
433.4243, 122.0090
433.9064, 122.0210
434.3885, 121.9913
434.8706, 121.9251
435.3527, 121.8248
435.8348, 121.5919
436.3170, 121.3402
436.7991, 121.2980
437.2812, 121.6647
437.7633, 122.0547
438.2454, 122.0221
438.7275, 121.6389
439.2097, 121.4229
439.6918, 121.5896
440.1739, 121.9435
440.6560, 122.2359
441.1381, 122.4856
441.6202, 122.5902
442.1024, 122.4086
442.5845, 122.1282
443.0666, 121.9738
443.5487, 121.9602
444.0308, 121.9421
444.5129, 121.7792
444.9951, 121.5092
445.4772, 121.4731
445.9593, 121.7042
446.4414, 122.0894
446.9235, 122.8413
447.4056, 123.6556
447.8878, 124.0518
448.3699, 123.8704
448.8520, 123.3617
449.3341, 122.8750
449.8162, 122.3363
450.2983, 122.0605
450.7805, 122.2171
451.2626, 122.4382
451.7447, 122.5745
452.2268, 122.6129
452.7089, 122.5726
453.1910, 122.4552
453.6732, 122.2904
454.1553, 122.2065
454.6374, 122.2497
455.1195, 122.2990
455.6016, 122.3383
456.0837, 122.3718
456.5659, 122.3694
457.0480, 122.3391
457.5301, 122.3782
458.0122, 122.6175
458.4943, 123.0536
458.9764, 123.4768
459.4586, 123.9882
459.9407, 124.3112
460.4228, 124.1723
460.9049, 123.7914
461.3870, 123.5708
461.8691, 123.7055
462.3513, 123.9660
462.8334, 124.1047
463.3155, 124.1227
463.7976, 124.0404
464.2797, 123.8269
464.7618, 123.5575
465.2440, 123.2835
465.7261, 122.9964
466.2082, 122.8677
466.6903, 123.0565
467.1724, 123.3793
467.6545, 123.6572
468.1367, 123.8675
468.6188, 123.9268
469.1009, 123.6895
469.5830, 123.2795
470.0651, 123.3206
470.5472, 124.2493
471.0294, 125.0100
471.5115, 125.2904
471.9936, 125.2746
472.4757, 125.1260
472.9578, 124.9062
473.4399, 124.7331
473.9221, 124.7644
474.4042, 125.0522
474.8863, 125.2392
475.3684, 125.1532
475.8505, 125.1610
476.3326, 125.4905
476.8148, 125.9880
477.2969, 126.3890
477.7790, 126.5624
478.2611, 126.5905
478.7432, 126.5953
479.2253, 126.4607
479.7075, 126.6389
480.1896, 127.5702
480.6717, 128.5037
481.1538, 128.9611
481.6359, 129.0120
482.1180, 129.0902
482.6002, 129.5036
483.0823, 130.1501
483.5644, 130.7649
484.0465, 131.3500
484.5286, 131.8816
485.0107, 132.2458
485.4929, 132.6051
485.9750, 133.2033
486.4571, 134.1193
486.9392, 134.9702
487.4213, 135.4603
487.9034, 135.7272
488.3856, 136.0135
488.8677, 136.3354
489.3498, 136.8732
489.8319, 137.8544
490.3140, 139.2504
490.7961, 140.4743
491.2783, 141.3660
491.7604, 142.2679
492.2425, 143.2155
492.7246, 144.3098
493.2067, 145.8313
493.6888, 147.8729
494.1710, 150.0605
494.6531, 151.7597
495.1352, 152.7139
495.6173, 153.9899
496.0994, 155.6400
496.5815, 157.5080
497.0637, 159.6385
497.5458, 161.9131
498.0279, 164.0961
498.5100, 166.0452
498.9921, 167.8839
499.4742, 169.9698
499.9564, 172.3642
500.4385, 174.8454
500.9206, 177.4915
501.4027, 180.1435
501.8848, 182.8328
502.3669, 185.4755
502.8491, 187.7020
503.3312, 189.0538
503.8133, 189.8567
504.2954, 191.1237
504.7775, 193.0459
505.2596, 194.4985
505.7418, 194.7666
506.2239, 194.3380
506.7060, 194.0058
507.1881, 193.9316
507.6702, 193.4280
508.1523, 192.1493
508.6345, 190.2200
509.1166, 187.7267
509.5987, 184.6713
510.0808, 181.4434
510.5629, 178.2888
511.0450, 175.2361
511.5272, 172.4214
512.0093, 170.0643
512.4914, 167.6339
512.9735, 164.8677
513.4556, 161.9750
513.9377, 159.1667
514.4199, 156.5325
514.9020, 154.0755
515.3841, 151.8510
515.8662, 149.8928
516.3483, 147.9599
516.8304, 145.8788
517.3126, 144.0216
517.7947, 142.7558
518.2768, 141.7090
518.7589, 140.2831
519.2410, 138.2239
519.7231, 135.9941
520.2053, 134.1972
520.6874, 132.8458
521.1695, 131.8354
521.6516, 131.3720
522.1337, 130.9760
522.6158, 130.2894
523.0980, 129.4022
523.5801, 128.5667
524.0622, 127.8307
524.5443, 127.2279
525.0264, 126.8675
525.5085, 126.7051
525.9907, 126.5029
526.4728, 126.1874
526.9549, 125.7741
527.4370, 125.2722
527.9191, 124.6685
528.4012, 124.0443
528.8834, 123.3631
529.3655, 122.7025
529.8476, 122.1055
530.3297, 121.5733
530.8118, 121.0945
531.2939, 120.6589
531.7761, 120.2916
532.2582, 120.0692
532.7403, 120.1201
533.2224, 120.0774
533.7045, 119.9721
534.1866, 119.7517
534.6688, 119.2997
535.1509, 118.6943
535.6330, 118.1495
536.1151, 117.8013
536.5972, 117.6124
537.0793, 117.5043
537.5615, 117.5065
538.0436, 117.4689
538.5257, 117.2816
539.0078, 117.0931
539.4899, 117.0948
539.9720, 117.2745
540.4542, 117.3191
540.9363, 116.9441
541.4184, 116.4116
541.9005, 116.0586
542.3826, 115.8998
542.8647, 115.9491
543.3469, 116.2953
543.8290, 116.7709
544.3111, 116.9268
544.7932, 116.6669
545.2753, 116.3702
545.7574, 115.9176
546.2396, 115.5684
546.7217, 115.6584
547.2038, 116.1053
547.6859, 116.4909
548.1680, 116.5168
548.6501, 116.2584
549.1323, 116.0490
549.6144, 115.9245
550.0965, 115.7893
550.5786, 115.5760
551.0607, 115.3919
551.5428, 115.2756
552.0250, 115.2541
552.5071, 115.4032
552.9892, 115.9110
553.4713, 116.5860
553.9534, 116.8310
554.4355, 116.5679
554.9177, 116.2507
555.3998, 115.9455
555.8819, 115.7673
556.3640, 115.9324
556.8461, 116.5090
557.3282, 116.8873
557.8104, 116.5777
558.2925, 115.0684
558.7746, 116.5485
559.2567, 117.3961
559.7388, 117.6453
560.2209, 115.5034
560.7031, 116.4490
561.1852, 116.1573
561.6673, 115.8149
562.1494, 117.1951
562.6315, 115.4009
563.1136, 116.7538
563.5958, 116.8505
564.0779, 117.5221
564.5600, 116.9487
565.0421, 116.7598
565.5242, 117.8164
566.0063, 118.1833
566.4885, 117.4666
566.9706, 118.1748
567.4527, 117.7823
567.9348, 117.2237
568.4169, 117.5091
568.8990, 117.6201
569.3812, 117.7168
569.8633, 117.9732
570.3454, 118.2148
570.8275, 118.0916
571.3096, 117.6362
571.7917, 117.3324
572.2739, 117.3894
572.7560, 117.6963
573.2381, 118.1154
573.7202, 118.7460
574.2023, 119.1067
574.6844, 118.9929
575.1666, 118.7368
575.6487, 118.4808
576.1308, 118.2761
576.6129, 118.2010
577.0950, 118.2998
577.5771, 118.5022
578.0593, 118.6726
578.5414, 118.8575
579.0235, 118.8811
579.5056, 118.5023
579.9877, 118.1750
580.4698, 118.0889
580.9520, 118.2165
581.4341, 118.4768
581.9162, 117.1525
582.3983, 119.3988
582.8804, 120.8378
583.3625, 121.5105
583.8447, 119.2658
584.3268, 120.6779
584.8089, 120.5570
585.2910, 120.3270
585.7731, 122.1159
586.2552, 120.0474
586.7374, 121.7073
587.2195, 121.8113
587.7016, 122.5572
588.1837, 121.7608
588.6658, 121.3777
589.1479, 122.4409
589.6301, 122.6283
590.1122, 121.4672
590.5943, 121.9677
591.0764, 120.9136
591.5585, 121.1030
592.0406, 121.2179
592.5228, 121.2002
593.0049, 121.1153
593.4870, 121.0268
593.9691, 120.9525
594.4512, 120.9055
594.9333, 120.9301
595.4155, 120.9978
595.8976, 120.9746
596.3797, 120.8384
596.8618, 120.6871
597.3439, 120.6452
597.8260, 120.5952
598.3082, 120.2287
598.7903, 119.3136
599.2724, 118.6700
599.7545, 118.7519
600.2366, 119.1174
600.7188, 119.3598
601.2009, 119.4198
601.6830, 119.3305
602.1651, 119.0994
602.6472, 118.7720
603.1293, 118.5166
603.6115, 118.3545
604.0936, 118.2279
604.5757, 118.1886
605.0578, 118.1310
605.5399, 117.9753
606.0220, 117.7418
606.5042, 117.5025
606.9863, 117.2865
607.4684, 117.1056
607.9505, 117.0756
608.4326, 117.1850
608.9147, 116.9118
609.3969, 115.9317
609.8790, 114.8760
610.3611, 114.4911
610.8432, 114.7174
611.3253, 114.8857
611.8074, 115.0034
612.2896, 114.9675
612.7717, 114.6251
613.2538, 114.1198
613.7359, 113.6893
614.2180, 113.4032
614.7001, 113.1794
615.1823, 112.9215
615.6644, 112.6271
616.1465, 112.3400
616.6286, 112.0597
617.1107, 111.7888
617.5928, 111.5311
618.0750, 111.2818
618.5571, 111.0224
619.0392, 110.7530
619.5213, 110.5321
620.0034, 110.4314
620.4855, 110.4043
620.9677, 110.3463
621.4498, 110.2528
621.9319, 110.1647
622.4140, 110.1261
622.8961, 110.0816
623.3782, 109.9077
623.8604, 109.5963
624.3425, 109.2054
624.8246, 108.4767
625.3067, 107.9058
625.7888, 108.0129
626.2709, 108.5445
626.7531, 108.8363
627.2352, 108.5561
627.7173, 108.0046
628.1994, 107.7751
628.6815, 107.9751
629.1636, 107.8662
629.6458, 107.0415
630.1279, 106.3859
630.6100, 106.4995
631.0921, 107.0214
631.5742, 107.3069
632.0563, 107.1503
632.5385, 106.8763
633.0206, 106.6658
633.5027, 106.5180
633.9848, 106.4637
634.4669, 106.5038
634.9490, 106.5117
635.4312, 106.4032
635.9133, 106.1842
636.3954, 105.8755
636.8775, 105.2205
637.3596, 104.8321
637.8417, 104.9041
638.3239, 105.1080
638.8060, 105.2843
639.2881, 105.3826
639.7702, 105.3441
640.2523, 105.1060
640.7344, 104.7831
641.2166, 104.5792
641.6987, 104.4937
642.1808, 104.5494
642.6629, 104.8598
643.1450, 105.1350
643.6271, 105.0916
644.1093, 104.7921
644.5914, 104.4327
645.0735, 103.9397
645.5556, 103.5086
646.0377, 103.2640
646.5198, 103.1234
647.0020, 102.9467
647.4841, 102.7219
647.9662, 102.5763
648.4483, 102.6300
648.9304, 102.8602
649.4125, 103.1377
649.8947, 103.6432
650.3768, 103.8424
650.8589, 103.3138
651.3410, 102.7257
651.8231, 102.6037
652.3052, 102.8892
652.7874, 103.1117
653.2695, 103.0509
653.7516, 102.7959
654.2337, 102.3264
654.7158, 101.7235
655.1979, 101.3758
655.6801, 101.4063
656.1622, 101.6670
656.6443, 102.0882
657.1264, 102.7041
657.6085, 102.7707
658.0906, 101.4996
658.5728, 100.7427
659.0549, 101.5342
659.5370, 102.6931
660.0191, 102.8586
660.5012, 101.9379
660.9833, 100.9715
661.4655, 100.8404
661.9476, 101.2938
662.4297, 101.6006
662.9118, 101.7628
663.3939, 101.7477
663.8760, 101.4569
664.3582, 101.0893
664.8403, 100.8614
665.3224, 100.7640
665.8045, 100.7633
666.2866, 100.9616
666.7687, 101.1427
667.2509, 101.1958
667.7330, 101.1474
668.2151, 101.0462
668.6972, 100.9048
669.1793, 100.6929
669.6614, 100.3325
670.1436, 99.85408
670.6257, 99.70724
671.1078, 100.0463
671.5899, 100.3968
672.0720, 100.6264
672.5541, 100.8198
673.0363, 101.1446
673.5184, 101.5609
674.0005, 101.6609
674.4826, 100.8572
674.9647, 99.98989
675.4468, 100.0699
675.9290, 100.7918
676.4111, 101.1904
676.8932, 100.9620
677.3753, 100.5099
677.8574, 100.2908
678.3395, 100.3121
678.8217, 100.3862
679.3038, 100.7167
679.7859, 100.8325
680.2680, 100.3536
680.7501, 99.83204
681.2322, 99.87293
681.7144, 100.4554
682.1965, 100.9560
682.6786, 100.8775
683.1607, 100.5325
683.6428, 100.5266
684.1249, 100.7913
684.6071, 100.6439
685.0892, 99.76276
685.5713, 98.83232
686.0534, 98.66841
686.5355, 99.32703
687.0176, 99.79998
687.4998, 99.98595
687.9819, 100.1298
688.4640, 100.3587
688.9461, 100.5332
689.4282, 100.4622
689.9103, 100.1602
690.3925, 99.84760
690.8746, 99.69653
691.3567, 99.64736
691.8388, 99.55423
692.3209, 99.41467
692.8030, 99.30168
693.2852, 99.21988
693.7673, 99.19937
694.2494, 99.28099
694.7315, 99.46282
695.2136, 99.67619
695.6957, 100.0552
696.1779, 100.3020
696.6600, 100.2067
697.1421, 99.98961
697.6242, 99.90367
698.1063, 99.96939
698.5884, 100.0483
699.0706, 100.0481
699.5527, 99.96317
700.0348, 99.72279
700.5169, 99.27383
700.9990, 99.02153
701.4811, 99.10014
701.9633, 99.31593
702.4454, 99.60802
702.9275, 99.91659
703.4096, 100.0193
703.8917, 99.68662
704.3738, 99.41914
704.8560, 99.55090
705.3381, 98.62299
705.8202, 100.1325
706.3023, 101.0096
706.7844, 101.2881
707.2665, 99.17558
707.7487, 100.1506
708.2308, 99.88832
708.7129, 99.57527
709.1950, 100.9849
709.6771, 99.22014
710.1592, 100.6024
710.6414, 100.7285
711.1235, 101.4295
711.6056, 100.8855
712.0877, 100.7260
712.5698, 101.8120
713.0519, 102.2083
713.5341, 101.5210
714.0162, 102.2585
714.4983, 100.4503
714.9804, 100.8760
715.4625, 102.2656
715.9446, 101.6409
716.4268, 102.4012
716.9089, 102.6340
717.3910, 100.4696
717.8731, 102.4742
718.3552, 102.6758
718.8373, 101.0262
719.3195, 102.8880
719.8016, 101.4936
720.2837, 101.2614
720.7658, 101.9039
721.2479, 101.6346
721.7300, 102.8029
722.2122, 102.5863
722.6943, 102.2459
723.1764, 102.4455
723.6585, 102.1471
724.1406, 102.6232
724.6227, 102.1923
725.1049, 102.7253
725.5870, 103.4768
726.0691, 102.5553
726.5512, 103.4050
727.0333, 102.2315
727.5154, 101.6102
727.9976, 101.1294
728.4797, 100.8238
728.9618, 100.6496
729.4439, 100.5925
729.9260, 100.6567
730.4081, 100.9609
730.8903, 101.3759
731.3724, 101.5604
731.8545, 101.4274
732.3366, 101.2513
732.8187, 101.3479
733.3008, 101.6774
733.7830, 101.7301
734.2651, 101.3140
734.7472, 101.0378
735.2293, 101.1729
735.7114, 101.3823
736.1935, 101.4447
736.6757, 101.3735
737.1578, 101.2669
737.6399, 101.0820
738.1220, 100.9658
738.6041, 101.1627
739.0862, 101.4333
739.5684, 101.3190
740.0505, 100.8079
740.5326, 100.2878
741.0147, 100.0197
741.4968, 100.0020
741.9789, 100.3233
742.4611, 101.2057
742.9432, 101.5785
743.4253, 100.9543
743.9074, 100.2880
744.3895, 100.2092
744.8716, 100.4412
745.3538, 100.4649
745.8359, 100.1469
746.3180, 99.79655
746.8001, 99.46992
747.2822, 99.24105
747.7643, 99.22657
748.2465, 99.38309
748.7286, 99.57055
749.2107, 99.72515
749.6928, 99.86271
750.1749, 100.0712
750.6570, 100.3726
751.1392, 100.1826
751.6213, 99.13341
752.1034, 98.45156
752.5855, 98.98906
753.0676, 99.88946
753.5497, 100.0417
754.0319, 99.40828
754.5140, 98.92933
754.9961, 98.93102
755.4782, 99.04178
755.9603, 99.01452
756.4424, 98.95982
756.9246, 99.14723
757.4067, 99.57645
757.8888, 99.85585
758.3709, 99.59546
758.8530, 98.98887
759.3351, 98.72932
759.8173, 98.86880
760.2994, 98.89612
760.7815, 98.61874
761.2636, 98.36285
761.7457, 98.47405
762.2278, 98.85683
762.7100, 99.03108
763.1921, 98.77538
763.6742, 98.64097
764.1563, 98.92244
764.6384, 99.23756
765.1205, 99.22482
765.6027, 98.97300
766.0848, 98.79005
766.5669, 98.81902
767.0490, 98.95441
767.5311, 99.12135
768.0132, 99.28799
768.4954, 99.22541
768.9775, 98.88528
769.4596, 98.63150
769.9417, 98.68905
770.4238, 98.85396
770.9059, 98.73906
771.3881, 98.21231
771.8702, 97.94421
772.3523, 98.13840
772.8344, 98.33706
773.3165, 98.37219
773.7986, 98.33533
774.2808, 98.31473
774.7629, 98.33511
775.2450, 98.42245
775.7271, 98.71636
776.2092, 98.96803
776.6913, 98.63487
777.1735, 97.90376
777.6556, 97.63465
778.1377, 98.04020
778.6198, 98.47949
779.1019, 98.38258
779.5840, 97.87418
780.0662, 97.60074
780.5483, 97.73450
781.0304, 97.77621
781.5125, 97.62563
781.9946, 97.44927
782.4767, 97.28664
782.9589, 97.16576
783.4410, 97.15161
783.9231, 97.28593
784.4052, 97.39232
784.8873, 97.33011
785.3694, 97.20555
785.8516, 97.15611
786.3337, 97.16531
786.8158, 97.12682
787.2979, 96.99966
787.7800, 96.89157
788.2621, 96.97011
788.7443, 97.22520
789.2264, 97.31618
789.7085, 97.15565
790.1906, 97.07390
790.6727, 97.16748
791.1548, 97.37953
791.6370, 97.79069
792.1191, 98.33168
792.6012, 98.47089
793.0833, 97.75542
793.5654, 97.09362
794.0475, 96.75491
794.5297, 96.68640
795.0118, 96.92884
795.4939, 97.39497
795.9760, 97.87132
796.4581, 98.25467
796.9402, 98.49983
797.4224, 98.46841
797.9045, 98.21097
798.3866, 98.07201
798.8687, 98.08619
799.3508, 98.16163
799.8329, 98.26237
800.3151, 98.38463
800.7972, 98.55671
801.2793, 98.88768
801.7614, 98.82823
802.2435, 97.83736
802.7256, 97.15705
803.2078, 97.25964
803.6899, 97.77712
804.1720, 98.48399
804.6541, 99.25639
805.1362, 99.73714
805.6183, 99.53423
806.1005, 99.18847
806.5826, 99.33318
807.0647, 99.75027
807.5468, 99.95108
808.0289, 99.85742
808.5110, 99.60634
808.9932, 99.26034
809.4753, 98.93779
809.9574, 99.01424
810.4395, 99.63878
810.9216, 99.98293
811.4037, 99.90043
811.8859, 99.70979
812.3680, 99.55973
812.8501, 99.39883
813.3322, 99.07322
813.8143, 98.50674
814.2964, 98.30030
814.7786, 98.97372
815.2607, 99.63603
815.7428, 99.73431
816.2249, 99.51134
816.7070, 99.30067
817.1891, 99.18376
817.6713, 99.10239
818.1534, 99.00842
818.6355, 98.98476
819.1176, 98.97594
819.5997, 98.99032
820.0818, 99.06129
820.5640, 99.12182
821.0461, 99.24826
821.5282, 99.51625
822.0103, 99.86575
822.4924, 100.1226
822.9745, 100.3444
823.4567, 100.3449
823.9388, 99.86196
824.4209, 99.45997
824.9030, 99.46788
825.3851, 99.60335
825.8672, 99.38126
826.3494, 98.75119
826.8315, 98.48234
827.3136, 99.35896
827.7957, 100.3409
828.2778, 100.5326
828.7599, 100.1993
829.2421, 99.72733
829.7242, 99.26476
830.2063, 99.05552
830.6884, 99.33286
831.1705, 99.85510
831.6526, 99.95326
832.1348, 99.60452
832.6169, 99.57169
833.0990, 100.0840
833.5811, 100.4348
834.0632, 100.1024
834.5453, 99.41230
835.0275, 99.08816
835.5096, 99.29092
835.9917, 99.38925
836.4738, 99.19134
836.9559, 99.10941
837.4380, 99.48820
837.9202, 99.94352
838.4023, 100.0099
838.8844, 99.66839
839.3665, 99.28618
839.8486, 99.00939
840.3307, 98.84187
840.8129, 98.79784
841.2950, 98.86348
841.7771, 99.05914
842.2592, 99.35819
842.7413, 99.59390
843.2234, 99.65230
843.7056, 99.63200
844.1877, 99.78061
844.6698, 99.72737
845.1519, 100.1729
845.6340, 99.73418
846.1161, 99.42260
846.5983, 99.50649
847.0804, 99.83386
847.5625, 100.2887
848.0446, 100.8990
848.5267, 101.1700
849.0089, 100.7578
849.4910, 100.4210
849.9731, 100.3393
850.4552, 100.4464
850.9373, 100.7319
851.4194, 101.1460
851.9016, 101.5913
852.3837, 102.0531
852.8658, 102.4423
853.3479, 102.6740
853.8300, 102.7837
854.3121, 102.8443
854.7943, 102.8476
855.2764, 102.6713
855.7585, 102.2603
856.2406, 101.8730
856.7227, 101.8764
857.2048, 102.2343
857.6870, 102.5198
858.1691, 102.7885
858.6512, 102.7126
859.1333, 102.0089
859.6154, 101.2530
860.0975, 100.9071
860.5797, 100.9435
861.0618, 101.1650
861.5439, 101.6460
862.0260, 102.1816
862.5081, 102.7480
862.9902, 103.3695
863.4724, 104.2522
863.9545, 105.1261
864.4366, 105.3987
864.9187, 104.9576
865.4008, 104.8375
865.8829, 106.0419
866.3651, 107.6686
866.8472, 108.6815
867.3293, 109.2881
867.8114, 110.0258
868.2935, 111.0105
868.7756, 112.1704
869.2578, 113.5331
869.7399, 114.7569
870.2220, 114.9390
870.7041, 114.0455
871.1862, 112.6900
871.6683, 110.7922
872.1505, 108.8998
872.6326, 107.2291
873.1147, 105.8056
873.5968, 104.6583
874.0789, 103.7899
874.5610, 103.2009
875.0432, 103.1959
875.5253, 103.0613
876.0074, 102.5060
876.4895, 101.8634
876.9716, 101.3493
877.4537, 101.0007
877.9359, 100.8275
878.4180, 100.8284
878.9001, 101.0152
879.3822, 101.6834
879.8643, 102.3337
880.3464, 102.2616
880.8286, 101.6798
881.3107, 101.2401
881.7928, 101.1869
882.2749, 101.3716
882.7570, 101.6744
883.2391, 102.0741
883.7213, 102.5316
884.2034, 103.0400
884.6855, 103.4764
885.1676, 103.8111
885.6497, 104.0546
886.1318, 104.1722
886.6140, 104.2559
887.0961, 104.6536
887.5782, 105.6013
888.0603, 106.2399
888.5424, 106.1994
889.0245, 106.3531
889.5067, 107.1795
889.9888, 108.3032
890.4709, 109.3472
890.9530, 110.2953
891.4351, 111.1240
891.9172, 111.4885
892.3994, 112.1616
892.8815, 113.5871
893.3636, 115.3697
893.8457, 117.1871
894.3278, 118.9969
894.8099, 120.8269
895.2921, 122.6802
895.7742, 124.6370
896.2563, 126.6361
896.7384, 128.8553
897.2205, 131.5403
897.7026, 134.7044
898.1848, 138.3364
898.6669, 142.4387
899.1490, 146.7992
899.6311, 151.1834
900.1132, 155.7522
900.5953, 161.1138
901.0775, 167.2988
901.5596, 173.7947
902.0417, 180.4609
902.5238, 187.6314
903.0059, 195.5822
903.4880, 204.0696
903.9702, 212.6450
904.4523, 221.2104
904.9344, 230.1792
905.4165, 240.1441
905.8986, 249.7391
906.3807, 258.9138
906.8629, 267.4967
907.3450, 275.3174
907.8271, 282.4167
908.3092, 288.9408
908.7913, 295.5645
909.2734, 300.4261
909.7556, 302.7772
910.2377, 302.9805
910.7198, 301.1745
911.2019, 297.5490
911.6840, 292.3551
912.1661, 285.6813
912.6483, 277.4580
913.1304, 267.2408
913.6125, 255.7812
914.0946, 244.0638
914.5767, 232.1983
915.0588, 220.4732
915.5410, 208.9782
916.0231, 198.2755
916.5052, 188.6674
916.9873, 179.9860
917.4694, 171.7334
917.9515, 163.8764
918.4337, 157.1842
918.9158, 151.8647
919.3979, 146.6100
919.8800, 140.7427
920.3621, 135.3136
920.8442, 131.6787
921.3264, 129.6168
921.8085, 126.9138
922.2906, 122.6365
922.7727, 119.2329
923.2548, 117.3294
923.7369, 115.7115
924.2191, 113.8220
924.7012, 111.8636
925.1833, 110.1636
925.6654, 108.7600
926.1475, 107.5491
926.6296, 106.6911
927.1118, 105.8012
927.5939, 104.4913
928.0760, 103.1786
928.5581, 102.3945
929.0402, 102.0491
929.5223, 101.6834
930.0045, 101.0968
930.4866, 100.4146
930.9687, 99.57021
931.4508, 98.80593
931.9329, 98.65911
932.4150, 98.92948
932.8972, 98.96239
933.3793, 98.57835
933.8614, 97.98240
934.3435, 97.31350
934.8256, 96.64892
935.3077, 96.19540
935.7899, 95.94182
936.2720, 95.71862
936.7541, 95.50949
937.2362, 95.33430
937.7183, 95.20737
938.2004, 95.10334
938.6826, 94.96846
939.1647, 94.79871
939.6468, 94.81347
940.1289, 95.13811
940.6110, 95.34628
941.0931, 95.37894
941.5753, 95.24426
942.0574, 94.78121
942.5395, 94.18446
943.0216, 94.01187
943.5037, 94.47013
943.9858, 94.72386
944.4680, 94.58621
944.9501, 94.38218
945.4322, 94.22841
945.9143, 94.07069
946.3964, 93.80477
946.8785, 93.46595
947.3607, 93.24014
947.8428, 93.21870
948.3249, 93.25026
948.8070, 93.22276
949.2891, 93.23654
949.7712, 93.51277
950.2534, 93.86543
950.7355, 93.86814
951.2176, 93.44776
951.6997, 93.01237
952.1818, 92.88976
952.6639, 92.89318
953.1461, 92.68703
953.6282, 92.43136
954.1103, 92.64037
954.5924, 93.25645
955.0745, 93.57105
955.5566, 93.22847
956.0388, 92.71948
956.5209, 92.76679
957.0030, 93.22610
957.4851, 93.31818
957.9672, 93.04642
958.4493, 92.85103
958.9315, 92.82998
959.4136, 92.92000
959.8957, 93.10405
960.3778, 93.30737
960.8599, 93.31876
961.3420, 93.08511
961.8242, 92.92461
962.3063, 92.83102
962.7884, 92.83395
963.2705, 92.99845
963.7526, 93.19106
964.2347, 93.27552
964.7169, 93.26614
965.1990, 93.26939
965.6811, 93.25874
966.1632, 93.30267
966.6453, 93.47446
967.1274, 93.61702
967.6096, 93.68228
968.0917, 93.67161
968.5738, 93.54115
969.0559, 93.30379
969.5380, 93.18474
970.0201, 93.35110
970.5023, 93.49236
970.9844, 93.57828
971.4665, 93.52489
971.9486, 93.10072
972.4307, 92.53509
972.9128, 92.30669
973.3950, 92.53404
973.8771, 92.78371
974.3592, 92.83745
974.8413, 92.76572
975.3234, 92.51060
975.8055, 92.23685
976.2877, 92.25217
976.7698, 92.49841
977.2519, 92.64131
977.7340, 92.52296
978.2161, 92.31615
978.6982, 92.17702
979.1804, 92.09336
979.6625, 92.09418
980.1446, 92.13116
980.6267, 91.98938
981.1088, 91.65477
981.5909, 91.41985
982.0731, 91.49329
982.5552, 91.73414
983.0373, 91.91930
983.5194, 92.04624
984.0015, 92.12310
984.4836, 92.14921
984.9658, 91.95068
985.4479, 91.44125
985.9300, 90.99223
986.4121, 90.96786
986.8942, 91.24162
987.3763, 91.29967
987.8585, 91.04457
988.3406, 91.31049
988.8227, 92.37179
989.3048, 93.14742
989.7869, 93.14233
990.2690, 92.73859
990.7512, 92.32948
991.2333, 91.92493
991.7154, 91.66308
992.1975, 91.56710
992.6796, 91.57386
993.1617, 91.82928
993.6439, 91.97543
994.1260, 91.63933
994.6081, 91.21642
995.0902, 91.38659
995.5723, 92.18326
996.0544, 92.56968
996.5366, 92.18859
997.0187, 91.85494
997.5008, 91.65398
997.9829, 91.58272
998.4650, 91.80595
998.9471, 92.08738
999.4293, 91.92283
999.9114, 91.21171
1000.393, 90.87151
1000.876, 91.65768
1001.358, 92.22327
1001.840, 91.70896
1002.322, 90.98306
1002.804, 90.83281
1003.286, 91.11625
1003.768, 91.34148
1004.250, 91.37027
1004.733, 91.41182
1005.215, 91.70495
1005.697, 91.91548
1006.179, 91.61829
1006.661, 91.19970
1007.143, 91.16801
1007.625, 91.50571
1008.107, 91.98915
1008.589, 92.55009
1009.072, 92.88771
1009.554, 92.59875
1010.036, 92.07149
1010.518, 91.68948
1011.000, 91.45661
1011.482, 91.35985
1011.964, 91.38486
1012.446, 91.52207
1012.929, 91.78296
1013.411, 91.99951
1013.893, 91.92391
1014.375, 91.68315
1014.857, 91.45890
1015.339, 91.30378
1015.821, 91.43300
1016.303, 91.85098
1016.785, 92.18517
1017.268, 92.16525
1017.750, 92.03319
1018.232, 92.28336
1018.714, 92.76446
1019.196, 92.77157
1019.678, 92.34529
1020.160, 92.04562
1020.642, 92.02554
1021.125, 92.06657
1021.607, 91.99207
1022.089, 91.86253
1022.571, 91.80477
1023.053, 91.81814
1023.535, 91.92269
1024.017, 92.12447
1024.499, 92.29375
1024.981, 92.39834
1025.464, 92.39967
1025.946, 92.25661
1026.428, 91.99486
1026.910, 91.62790
1027.392, 91.10457
1027.874, 91.05054
1028.356, 91.62153
1028.838, 91.97404
1029.321, 91.74211
1029.803, 91.41708
1030.285, 91.49951
1030.767, 91.87875
1031.249, 92.06124
1031.731, 92.01640
1032.213, 91.87503
1032.695, 91.57973
1033.177, 91.33434
1033.660, 91.17416
1034.142, 91.16353
1034.624, 91.41264
1035.106, 91.87151
1035.588, 92.22482
1036.070, 92.48737
1036.552, 92.60561
1037.034, 92.53719
1037.516, 92.38989
1037.999, 92.11748
1038.481, 91.87717
1038.963, 91.88508
1039.445, 92.09576
1039.927, 92.15180
1040.409, 91.87283
1040.891, 91.75858
1041.373, 91.86722
1041.855, 92.06977
1042.338, 92.40244
1042.820, 92.74593
1043.302, 93.04113
1043.784, 93.26141
1044.266, 93.20789
1044.748, 92.51218
1045.230, 92.15528
1045.712, 92.49801
1046.195, 92.81543
1046.677, 92.72697
1047.159, 92.53711
1047.641, 92.65207
1048.123, 93.01012
1048.605, 93.10273
1049.087, 92.63246
1049.569, 92.33815
1050.052, 92.54005
1050.534, 92.68494
1051.016, 92.39597
1051.498, 92.00512
1051.980, 91.95462
1052.462, 92.18534
1052.944, 92.18722
1053.426, 91.65134
1053.908, 91.32818
1054.391, 91.53458
1054.873, 91.82175
1055.355, 92.11861
1055.837, 92.26622
1056.319, 91.91946
1056.801, 91.22722
1057.283, 90.99435
1057.765, 91.69750
1058.248, 92.18259
1058.730, 91.86577
1059.212, 91.52682
1059.694, 91.71262
1060.176, 92.03484
1060.658, 91.94254
1061.140, 91.52314
1061.622, 91.35752
1062.104, 91.65804
1062.587, 92.06078
1063.069, 92.64322
1063.551, 93.05346
1064.033, 93.05878
1064.515, 92.79780
1064.997, 92.25309
1065.479, 91.59654
1065.961, 91.37429
1066.443, 91.88297
1066.926, 92.32808
1067.408, 92.24129
1067.890, 92.16169
1068.372, 92.50928
1068.854, 92.96843
1069.336, 93.15824
1069.818, 93.11288
1070.300, 93.08395
1070.782, 93.14072
1071.265, 93.23161
1071.747, 93.37847
1072.229, 93.50157
1072.711, 93.65044
1073.193, 93.67716
1073.675, 93.27322
1074.157, 92.62435
1074.639, 92.26505
1075.122, 92.36263
1075.604, 92.60977
1076.086, 93.14455
1076.568, 93.45845
1077.050, 92.91837
1077.532, 92.27462
1078.014, 92.48089
1078.496, 93.22079
1078.979, 93.49099
1079.461, 93.00945
1079.943, 92.57278
1080.425, 92.56837
1080.907, 92.67793
1081.389, 92.75586
1081.871, 92.84032
1082.353, 92.94346
1082.835, 93.09439
1083.318, 93.39588
1083.800, 93.86546
1084.282, 94.17641
1084.764, 94.05374
1085.246, 93.91039
1085.728, 93.95781
1086.210, 94.06808
1086.692, 94.15120
1087.175, 94.20402
1087.657, 94.25594
1088.139, 94.30572
1088.621, 94.26987
1089.103, 93.96231
1089.585, 93.77650
1090.067, 93.95991
1090.549, 94.25146
1091.031, 94.53890
1091.514, 94.75195
1091.996, 94.76714
1092.478, 94.60045
1092.960, 94.48489
1093.442, 94.48017
1093.924, 94.56998
1094.406, 94.86561
1094.888, 95.12791
1095.370, 95.25999
1095.853, 95.22926
1096.335, 94.86935
1096.817, 94.28931
1097.299, 94.07048
1097.781, 94.64864
1098.263, 94.86852
1098.745, 93.85341
1099.227, 92.99422
1099.709, 93.28028
1100.192, 93.89651
1100.674, 93.91801
1101.156, 93.46920
1101.638, 93.23894
1102.120, 93.43123
1102.602, 93.55615
1103.084, 93.39007
1103.566, 93.26687
1104.049, 93.39511
1104.531, 93.54996
1105.013, 93.54816
1105.495, 93.41537
1105.977, 93.21152
1106.459, 92.91295
1106.941, 92.75037
1107.423, 92.77092
1107.906, 92.91954
1108.388, 93.33039
1108.870, 93.71383
1109.352, 93.82362
1109.834, 93.80264
1110.316, 93.97928
1110.798, 93.86351
1111.280, 93.61694
1111.762, 93.63496
1112.245, 93.04678
1112.727, 92.82225
1113.209, 92.79276
1113.691, 93.00035
1114.173, 93.28059
1114.655, 93.43857
1115.137, 93.47806
1115.619, 93.46165
1116.102, 93.12663
1116.584, 93.21765
1117.066, 94.27544
1117.548, 94.95931
1118.030, 94.55919
1118.512, 93.86143
1118.994, 93.58251
1119.476, 93.63340
1119.958, 93.65951
1120.441, 93.65000
1120.923, 93.63557
1121.405, 93.51448
1121.887, 93.65858
1122.369, 94.43591
1122.851, 94.97206
1123.333, 94.45573
1123.815, 93.42238
1124.297, 93.08968
1124.780, 93.52901
1125.262, 93.72427
1125.744, 93.55001
1126.226, 93.64970
1126.708, 94.27141
1127.190, 94.69853
1127.672, 94.49313
1128.154, 93.97714
1128.636, 93.57193
1129.119, 93.29704
1129.601, 93.40076
1130.083, 93.94412
1130.565, 94.17006
1131.047, 93.97795
1131.529, 93.65334
1132.011, 93.27625
1132.493, 93.07680
1132.976, 93.34465
1133.458, 93.15452
1133.940, 93.20528
1134.422, 93.38073
1134.904, 93.34621
1135.386, 93.75219
1135.868, 94.11675
1136.350, 94.30530
1136.833, 94.24380
1137.315, 93.84832
1137.797, 93.38248
1138.279, 93.30837
1138.761, 93.52854
1139.243, 93.81267
1139.725, 94.08836
1140.207, 93.95092
1140.689, 93.42384
1141.172, 93.08574
1141.654, 93.21008
1142.136, 93.55425
1142.618, 93.92561
1143.100, 94.27695
1143.582, 94.60720
1144.064, 94.81993
1144.546, 94.59614
1145.029, 94.07403
1145.511, 93.77866
1145.993, 93.82659
1146.475, 93.77910
1146.957, 93.22625
1147.439, 92.74722
1147.921, 93.07439
1148.403, 93.66296
1148.885, 93.93507
1149.368, 93.93469
1149.850, 93.70911
1150.332, 93.36397
1150.814, 93.21780
1151.296, 93.44875
1151.778, 93.60781
1152.260, 93.20483
1152.742, 92.89537
1153.224, 93.38597
1153.707, 93.98938
1154.189, 93.79230
1154.671, 93.14160
1155.153, 93.02417
1155.635, 93.64483
1156.117, 94.10880
1156.599, 94.13939
1157.081, 93.96597
1157.563, 93.30552
1158.046, 92.84928
1158.528, 93.26360
1159.010, 93.98734
1159.492, 94.25107
1159.974, 94.07082
1160.456, 93.98604
1160.938, 94.21575
1161.420, 94.19282
1161.903, 93.60320
1162.385, 93.17620
1162.867, 93.18050
1163.349, 93.33532
1163.831, 93.45930
1164.313, 93.55447
1164.795, 93.63138
1165.277, 93.69886
1165.760, 93.66006
1166.242, 93.45905
1166.724, 93.34084
1167.206, 93.37412
1167.688, 93.38618
1168.170, 93.26795
1168.652, 93.14928
1169.134, 93.20977
1169.616, 93.40261
1170.099, 93.47948
1170.581, 93.43770
1171.063, 93.61032
1171.545, 94.02084
1172.027, 94.15775
1172.509, 93.86213
1172.991, 93.51368
1173.473, 93.40366
1173.956, 93.39474
1174.438, 93.24703
1174.920, 93.00684
1175.402, 92.74678
1175.884, 92.53658
1176.366, 92.72131
1176.848, 93.24898
1177.330, 93.59300
1177.813, 93.53522
1178.295, 93.39402
1178.777, 93.44966
1179.259, 93.57601
1179.741, 93.68942
1180.223, 93.72063
1180.705, 93.43349
1181.187, 93.03199
1181.669, 92.99886
1182.151, 93.35389
1182.634, 93.66606
1183.116, 93.73927
1183.598, 93.74221
1184.080, 93.81023
1184.562, 93.79692
1185.044, 93.40182
1185.526, 93.04308
1186.008, 93.34370
1186.490, 93.98615
1186.973, 94.09683
1187.455, 93.49571
1187.937, 93.08343
1188.419, 93.09634
1188.901, 93.22055
1189.383, 93.53233
1189.865, 93.78134
1190.347, 93.88242
1190.830, 93.81841
1191.312, 93.42858
1191.794, 92.84920
1192.276, 92.79661
1192.758, 93.55669
1193.240, 93.83191
1193.722, 93.40180
1194.204, 93.16570
1194.687, 93.40005
1195.169, 93.63117
1195.651, 93.54184
1196.133, 93.32954
1196.615, 93.30822
1197.097, 93.44948
1197.579, 93.60181
1198.061, 93.76152
1198.543, 93.83379
1199.026, 93.81393
1199.508, 93.75745
1199.990, 93.68559
1200.472, 93.63839
1200.954, 93.66529
1201.436, 93.64802
1201.918, 93.33760
1202.400, 92.89326
1202.883, 92.53621
1203.365, 92.34727
1203.847, 92.63920
1204.329, 93.26289
1204.811, 93.60010
1205.293, 93.42728
1205.775, 93.10840
1206.257, 92.80284
1206.740, 92.56452
1207.222, 92.35179
1207.704, 92.30262
1208.186, 92.65212
1208.668, 93.18393
1209.150, 93.61244
1209.632, 93.90490
1210.114, 94.14281
1210.596, 94.40452
1211.078, 94.40749
1211.561, 93.82132
1212.043, 93.34774
1212.525, 93.15820
1213.007, 93.19530
1213.489, 93.56954
1213.971, 94.02596
1214.453, 94.12662
1214.935, 93.90000
1215.417, 93.88511
1215.900, 94.12286
1216.382, 94.47953
1216.864, 95.07092
1217.346, 95.13854
1217.828, 94.32310
1218.310, 93.60364
1218.792, 93.76331
1219.274, 94.31695
1219.757, 94.36044
1220.239, 94.00853
1220.721, 93.72678
1221.203, 93.55150
1221.685, 93.76090
1222.167, 94.29666
1222.649, 94.70858
1223.131, 94.83089
1223.614, 94.70000
1224.096, 94.24733
1224.578, 93.85220
1225.060, 94.05849
1225.542, 93.89874
1226.024, 94.43320
1226.506, 94.28991
1226.988, 94.59398
1227.470, 95.16447
1227.953, 95.21528
1228.435, 94.50403
1228.917, 94.02813
1229.399, 94.50487
1229.881, 94.79575
1230.363, 94.19370
1230.845, 93.68159
1231.327, 94.03468
1231.810, 94.64498
1232.292, 94.74416
1232.774, 94.46001
1233.256, 94.32283
1233.738, 94.35632
1234.220, 94.43853
1234.702, 94.57954
1235.184, 94.73906
1235.667, 94.91805
1236.149, 95.09779
1236.631, 95.28771
1237.113, 95.37597
1237.595, 95.19563
1238.077, 95.21766
1238.559, 95.09945
1239.041, 94.90847
1239.523, 94.79358
1240.005, 94.48953
1240.488, 94.20147
1240.970, 94.02221
1241.452, 94.23406
1241.934, 94.98325
1242.416, 95.65282
1242.898, 95.58349
1243.380, 95.26751
1243.862, 95.22147
1244.344, 95.17866
1244.827, 94.61596
1245.309, 93.94899
1245.791, 94.04663
1246.273, 94.82101
1246.755, 95.22746
1247.237, 94.84612
1247.719, 94.63148
1248.201, 94.89896
1248.684, 95.21921
1249.166, 95.64751
1249.648, 95.87432
1250.130, 95.55749
1250.612, 95.11537
1251.094, 95.14088
1251.576, 95.54585
1252.058, 95.74709
1252.541, 95.70998
1253.023, 95.74422
1253.505, 95.87411
1253.987, 95.82175
1254.469, 95.51521
1254.951, 95.39021
1255.433, 95.70619
1255.915, 96.15818
1256.397, 96.39258
1256.880, 96.48908
1257.362, 96.63696
1257.844, 96.74445
1258.326, 96.41590
1258.808, 95.95863
1259.290, 96.30823
1259.772, 97.37797
1260.254, 98.01099
1260.737, 97.70596
1261.219, 97.19585
1261.701, 96.53283
1262.183, 96.20889
1262.665, 96.80938
1263.147, 97.46711
1263.629, 97.43994
1264.111, 97.14982
1264.594, 97.27714
1265.076, 97.74051
1265.558, 97.96552
1266.040, 97.94234
1266.522, 97.67038
1267.004, 97.01228
1267.486, 96.60348
1267.968, 96.60210
1268.450, 96.68234
1268.932, 96.68235
1269.415, 96.66623
1269.897, 96.70397
1270.379, 96.78405
1270.861, 96.91419
1271.343, 97.05270
1271.825, 97.02344
1272.307, 96.89854
1272.789, 96.92289
1273.271, 97.09974
1273.754, 97.26651
1274.236, 97.36018
1274.718, 97.38168
1275.200, 97.15482
1275.682, 97.12569
1276.164, 97.94328
1276.646, 98.62528
1277.128, 98.23538
1277.611, 97.49641
1278.093, 97.18893
1278.575, 97.28562
1279.057, 97.59711
1279.539, 98.17992
1280.021, 98.44124
1280.503, 98.26163
1280.985, 98.02464
1281.468, 97.75864
1281.950, 97.58009
1282.432, 97.52158
1282.914, 97.60830
1283.396, 97.87429
1283.878, 98.25736
1284.360, 98.71207
1284.842, 99.12070
1285.324, 99.16716
##END=



