##NAMES=Weeksite
##RRUFFID=R050330
##IDEAL CHEMISTRY=K_2_(U^6+^O_2_)_2_(Si_5_O_13_)&#183;4H_2_O
##LOCALITY=Anderson mine, Yavapai County, Arizona, USA
##OWNER=RRUFF
##SOURCE=Lloyd Twaites
##DESCRIPTION=Yellowish green flattened plates, associated with reddish-orange carnotite, R070647. Sample was used in the Fejfarova et al (2012) study.
##STATUS=The identification of this mineral is confirmed by single-crystal X-ray diffraction and chemical analysis.
##URL=rruff.info/R050330
##MEASURED CHEMISTRY=(K_1.84_Ba_0.06_Ca_0.02_)_Σ=1.92_(U_1.00_O_2_)_2_(Si_5.00_O_13_)·1.2H_2_O
183.9297, 50498.28
184.4118, 50511.99
184.8940, 50611.02
185.3761, 50782.52
185.8582, 50938.38
186.3403, 51026.30
186.8224, 51065.14
187.3046, 51132.63
187.7867, 51234.01
188.2688, 51354.94
188.7509, 51482.41
189.2330, 51615.91
189.7151, 51739.59
190.1973, 51849.11
190.6794, 51943.40
191.1615, 52015.92
191.6436, 52062.88
192.1257, 52094.45
192.6078, 52122.46
193.0900, 52145.49
193.5721, 52187.52
194.0542, 52276.75
194.5363, 52411.02
195.0184, 52525.85
195.5005, 52607.02
195.9826, 52666.32
196.4648, 52740.81
196.9469, 52833.14
197.4290, 52923.57
197.9111, 52996.13
198.3932, 53049.32
198.8753, 53097.39
199.3575, 53135.41
199.8396, 53170.25
200.3217, 53251.35
200.8038, 53395.38
201.2859, 53534.50
201.7680, 53586.95
202.2502, 53534.72
202.7323, 53509.21
203.2144, 53548.00
203.6965, 53647.78
204.1786, 53745.83
204.6607, 53841.49
205.1429, 53934.75
205.6250, 54032.44
206.1071, 54142.52
206.5892, 54219.91
207.0713, 54234.15
207.5534, 54177.18
208.0356, 54176.87
208.5177, 54247.02
208.9998, 54357.55
209.4819, 54465.38
209.9640, 54569.13
210.4461, 54674.83
210.9282, 54791.23
211.4104, 54929.82
211.8925, 55023.86
212.3746, 55062.00
212.8567, 55063.47
213.3388, 55068.46
213.8209, 55080.20
214.3031, 55088.30
214.7852, 55079.35
215.2673, 55032.11
215.7494, 55039.41
216.2315, 55119.45
216.7136, 55250.55
217.1958, 55372.33
217.6779, 55489.36
218.1600, 55590.77
218.6421, 55674.03
219.1242, 55744.97
219.6063, 55777.23
220.0885, 55741.49
220.5706, 55665.09
221.0527, 55676.29
221.5348, 55821.93
222.0169, 55986.00
222.4990, 56095.50
222.9812, 56130.25
223.4633, 56152.66
223.9454, 56155.37
224.4275, 56145.55
224.9096, 56183.36
225.3917, 56288.11
225.8739, 56417.05
226.3560, 56543.79
226.8381, 56688.86
227.3202, 56789.73
227.8023, 56825.50
228.2844, 56798.63
228.7665, 56788.82
229.2487, 56798.18
229.7308, 56822.50
230.2129, 56859.34
230.6950, 56911.66
231.1771, 56970.93
231.6592, 57041.21
232.1414, 57123.41
232.6235, 57186.47
233.1056, 57217.72
233.5877, 57240.96
234.0698, 57282.03
234.5519, 57353.76
235.0341, 57419.50
235.5162, 57465.50
235.9983, 57485.69
236.4804, 57539.58
236.9625, 57650.80
237.4446, 57777.08
237.9268, 57869.63
238.4089, 57922.30
238.8910, 57951.77
239.3731, 57948.82
239.8552, 57896.35
240.3373, 57909.33
240.8195, 58033.23
241.3016, 58192.01
241.7837, 58274.28
242.2658, 58230.52
242.7479, 58192.25
243.2300, 58194.97
243.7122, 58242.54
244.1943, 58320.73
244.6764, 58462.53
245.1585, 58615.47
245.6406, 58686.30
246.1227, 58612.47
246.6048, 58559.65
247.0870, 58591.09
247.5691, 58743.52
248.0512, 58856.59
248.5333, 58911.45
249.0154, 58936.37
249.4975, 58986.27
249.9797, 59077.13
250.4618, 59166.53
250.9439, 59237.16
251.4260, 59280.18
251.9081, 59333.45
252.3902, 59412.88
252.8724, 59496.08
253.3545, 59522.47
253.8366, 59443.13
254.3187, 59392.77
254.8008, 59441.06
255.2829, 59652.11
255.7651, 59784.92
256.2472, 59816.64
256.7293, 59780.63
257.2114, 59750.08
257.6935, 59709.68
258.1756, 59702.81
258.6577, 59762.29
259.1399, 59931.46
259.6220, 60037.31
260.1041, 60049.71
260.5862, 60009.07
261.0683, 60029.02
261.5504, 60138.57
262.0326, 60250.47
262.5147, 60319.09
262.9968, 60325.98
263.4789, 60349.98
263.9610, 60397.28
264.4431, 60461.77
264.9253, 60527.00
265.4074, 60595.71
265.8895, 60658.82
266.3716, 60710.81
266.8537, 60748.27
267.3358, 60787.04
267.8180, 60829.57
268.3001, 60873.21
268.7822, 60906.62
269.2643, 60919.11
269.7464, 60948.42
270.2285, 61028.91
270.7107, 61178.28
271.1928, 61282.66
271.6749, 61324.67
272.1570, 61323.68
272.6391, 61327.32
273.1212, 61331.71
273.6034, 61353.30
274.0855, 61412.66
274.5676, 61518.15
275.0497, 61591.05
275.5318, 61615.89
276.0139, 61612.25
276.4961, 61630.80
276.9782, 61674.65
277.4603, 61727.63
277.9424, 61787.52
278.4245, 61856.30
278.9066, 61893.09
279.3888, 61881.50
279.8709, 61849.03
280.3530, 61869.90
280.8351, 61951.41
281.3172, 62039.77
281.7993, 62095.94
282.2815, 62121.06
282.7636, 62162.01
283.2457, 62226.34
283.7278, 62304.70
284.2099, 62377.57
284.6920, 62444.63
285.1741, 62510.36
285.6563, 62577.03
286.1384, 62644.96
286.6205, 62714.28
287.1026, 62790.89
287.5847, 62859.96
288.0668, 62875.17
288.5490, 62836.68
289.0311, 62821.30
289.5132, 62897.43
289.9953, 63044.13
290.4774, 63167.53
290.9595, 63257.41
291.4417, 63321.29
291.9238, 63368.51
292.4059, 63399.06
292.8880, 63417.54
293.3701, 63423.50
293.8522, 63419.13
294.3344, 63406.30
294.8165, 63378.86
295.2986, 63359.55
295.7807, 63382.11
296.2628, 63443.05
296.7449, 63522.92
297.2271, 63622.13
297.7092, 63729.79
298.1913, 63832.40
298.6734, 63935.18
299.1555, 64007.04
299.6376, 63976.08
300.1198, 63870.33
300.6019, 63793.73
301.0840, 63822.75
301.5661, 63913.87
302.0482, 64006.61
302.5303, 64099.07
303.0125, 64177.91
303.4946, 64222.85
303.9767, 64243.05
304.4588, 64264.69
304.9409, 64300.02
305.4230, 64344.38
305.9052, 64394.20
306.3873, 64448.92
306.8694, 64507.81
307.3515, 64586.30
307.8336, 64667.73
308.3157, 64719.86
308.7979, 64679.41
309.2800, 64630.55
309.7621, 64656.78
310.2442, 64775.80
310.7263, 64893.47
311.2084, 64955.88
311.6906, 64978.09
312.1727, 64985.07
312.6548, 64957.08
313.1369, 64938.96
313.6190, 64969.15
314.1011, 65055.60
314.5833, 65135.47
315.0654, 65166.47
315.5475, 65177.19
316.0296, 65203.02
316.5117, 65288.30
316.9938, 65364.31
317.4760, 65390.07
317.9580, 65359.55
318.4402, 65341.45
318.9223, 65355.50
319.4044, 65393.98
319.8865, 65449.07
320.3686, 65565.41
320.8507, 65653.63
321.3329, 65665.48
321.8150, 65597.29
322.2971, 65564.19
322.7792, 65586.12
323.2613, 65653.27
323.7434, 65757.58
324.2256, 66005.84
324.7077, 66177.24
325.1898, 66196.18
325.6719, 66065.53
326.1540, 65983.85
326.6361, 65975.87
327.1183, 66011.40
327.6004, 66071.66
328.0825, 66204.73
328.5646, 66303.66
329.0467, 66344.33
329.5288, 66335.52
330.0110, 66347.77
330.4931, 66412.98
330.9752, 66468.76
331.4573, 66471.90
331.9394, 66355.63
332.4215, 66311.15
332.9037, 66376.67
333.3858, 66522.98
333.8679, 66639.52
334.3500, 66722.96
334.8321, 66783.56
335.3142, 66825.59
335.7964, 66845.66
336.2785, 66853.55
336.7606, 66835.05
337.2427, 66813.07
337.7248, 66854.74
338.2069, 66980.63
338.6891, 67107.02
339.1712, 67199.89
339.6533, 67258.30
340.1354, 67275.20
340.6175, 67231.59
341.0996, 67175.52
341.5818, 67201.50
342.0639, 67317.38
342.5460, 67433.85
343.0281, 67513.23
343.5102, 67557.34
343.9923, 67591.34
344.4745, 67612.16
344.9566, 67632.36
345.4387, 67671.71
345.9208, 67727.62
346.4029, 67781.01
346.8850, 67838.45
347.3672, 67886.41
347.8493, 67858.98
348.3314, 67748.63
348.8135, 67655.54
349.2956, 67704.79
349.7777, 67859.31
350.2599, 68008.22
350.7419, 68131.52
351.2241, 68218.08
351.7062, 68226.21
352.1883, 68161.55
352.6704, 68112.73
353.1525, 68169.55
353.6346, 68285.27
354.1168, 68386.58
354.5989, 68454.33
355.0810, 68497.78
355.5631, 68512.79
356.0452, 68505.02
356.5273, 68501.89
357.0095, 68523.39
357.4916, 68555.88
357.9737, 68588.59
358.4558, 68629.79
358.9379, 68652.03
359.4200, 68606.44
359.9022, 68526.32
360.3843, 68499.42
360.8664, 68605.23
361.3485, 68745.61
361.8306, 68865.06
362.3127, 68958.49
362.7949, 69025.44
363.2770, 69041.09
363.7591, 69033.58
364.2412, 69050.23
364.7233, 69131.75
365.2054, 69212.84
365.6876, 69266.98
366.1697, 69284.84
366.6518, 69307.41
367.1339, 69349.18
367.6160, 69393.49
368.0981, 69420.68
368.5803, 69401.00
369.0624, 69397.46
369.5445, 69429.27
370.0266, 69499.60
370.5087, 69549.60
370.9908, 69561.80
371.4730, 69569.20
371.9551, 69598.28
372.4372, 69650.14
372.9193, 69724.37
373.4014, 69835.58
373.8835, 69971.74
374.3657, 70062.32
374.8478, 70102.66
375.3299, 70105.53
375.8120, 70066.44
376.2941, 69973.95
376.7762, 69909.23
377.2584, 69879.89
377.7405, 69883.52
378.2226, 69924.34
378.7047, 70007.28
379.1868, 70088.25
379.6689, 70137.12
380.1511, 70158.20
380.6332, 70193.48
381.1153, 70244.45
381.5974, 70311.77
382.0795, 70413.93
382.5616, 70542.98
383.0438, 70637.61
383.5259, 70646.21
384.0080, 70605.20
384.4901, 70587.19
384.9722, 70592.58
385.4543, 70628.29
385.9364, 70739.02
386.4185, 70884.16
386.9007, 70976.93
387.3828, 70934.82
387.8649, 70864.52
388.3470, 70884.02
388.8291, 70983.66
389.3112, 71082.70
389.7934, 71121.77
390.2755, 71134.38
390.7576, 71155.25
391.2397, 71201.02
391.7218, 71246.70
392.2039, 71272.22
392.6861, 71285.80
393.1682, 71312.88
393.6503, 71378.92
394.1324, 71450.28
394.6145, 71508.30
395.0966, 71548.41
395.5788, 71579.39
396.0609, 71588.45
396.5430, 71591.91
397.0251, 71617.20
397.5072, 71691.22
397.9893, 71765.70
398.4715, 71838.85
398.9536, 71923.55
399.4357, 71941.70
399.9178, 71818.93
400.3999, 71676.91
400.8820, 71637.95
401.3642, 71756.86
401.8463, 71887.38
402.3284, 72019.48
402.8105, 72149.20
403.2926, 72226.19
403.7747, 72235.88
404.2569, 72219.53
404.7390, 72188.91
405.2211, 72127.08
405.7032, 72156.87
406.1853, 72323.25
406.6674, 72555.86
407.1496, 72680.24
407.6317, 72688.63
408.1138, 72664.98
408.5959, 72647.77
409.0780, 72636.55
409.5602, 72622.46
410.0423, 72599.91
410.5244, 72595.55
411.0065, 72667.91
411.4886, 72798.15
411.9707, 72898.98
412.4529, 72904.86
412.9350, 72868.30
413.4171, 72877.92
413.8992, 72933.09
414.3813, 72996.77
414.8634, 73054.02
415.3456, 73098.46
415.8277, 73116.49
416.3098, 73067.14
416.7919, 73033.66
417.2740, 73090.26
417.7561, 73217.95
418.2382, 73343.52
418.7203, 73438.32
419.2025, 73513.33
419.6846, 73576.82
420.1667, 73638.60
420.6488, 73671.32
421.1309, 73631.54
421.6130, 73562.45
422.0952, 73539.34
422.5773, 73633.12
423.0594, 73722.52
423.5415, 73766.14
424.0236, 73749.52
424.5057, 73746.36
424.9879, 73768.53
425.4700, 73797.56
425.9521, 73813.98
426.4342, 73788.52
426.9163, 73804.04
427.3984, 73893.88
427.8806, 74041.70
428.3627, 74119.56
428.8448, 74094.80
429.3269, 74069.03
429.8090, 74118.64
430.2911, 74257.35
430.7733, 74358.61
431.2554, 74408.73
431.7375, 74424.88
432.2196, 74434.13
432.7017, 74436.28
433.1838, 74437.98
433.6660, 74426.84
434.1481, 74416.01
434.6302, 74470.76
435.1123, 74599.06
435.5944, 74723.51
436.0765, 74746.16
436.5587, 74702.09
437.0408, 74681.27
437.5229, 74729.59
438.0050, 74799.89
438.4871, 74838.61
438.9692, 74851.64
439.4514, 74871.49
439.9335, 74928.69
440.4156, 74996.81
440.8977, 75047.62
441.3798, 75061.32
441.8619, 75088.20
442.3441, 75175.45
442.8262, 75289.83
443.3083, 75369.70
443.7904, 75348.88
444.2725, 75330.82
444.7546, 75367.52
445.2368, 75476.88
445.7189, 75549.75
446.2010, 75556.02
446.6831, 75529.39
447.1652, 75497.55
447.6473, 75434.11
448.1295, 75403.13
448.6116, 75413.46
449.0937, 75462.69
449.5758, 75546.86
450.0579, 75699.80
450.5400, 75823.80
451.0221, 75842.00
451.5042, 75723.27
451.9864, 75691.05
452.4685, 75774.43
452.9506, 75911.88
453.4327, 76011.50
453.9148, 76072.96
454.3969, 76106.49
454.8791, 76100.36
455.3612, 76070.47
455.8433, 76064.89
456.3254, 76083.66
456.8075, 76127.07
457.2896, 76229.27
457.7718, 76354.28
458.2539, 76412.05
458.7360, 76345.79
459.2181, 76260.80
459.7002, 76258.19
460.1823, 76324.74
460.6645, 76418.29
461.1466, 76552.13
461.6287, 76680.59
462.1108, 76762.30
462.5929, 76783.88
463.0750, 76805.59
463.5572, 76862.59
464.0393, 76929.81
464.5214, 76977.22
465.0035, 76978.00
465.4856, 76978.32
465.9677, 76998.31
466.4499, 77036.05
466.9320, 77040.40
467.4141, 76944.75
467.8962, 76873.97
468.3783, 76902.26
468.8604, 77101.02
469.3426, 77245.98
469.8247, 77319.34
470.3068, 77349.41
470.7889, 77394.49
471.2710, 77461.71
471.7531, 77516.66
472.2353, 77542.37
472.7174, 77542.16
473.1995, 77550.70
473.6816, 77569.23
474.1637, 77588.81
474.6458, 77593.66
475.1280, 77589.38
475.6101, 77603.48
476.0922, 77645.05
476.5743, 77703.34
477.0564, 77776.11
477.5385, 77856.75
478.0207, 77914.00
478.5028, 77925.35
478.9849, 77907.16
479.4670, 77859.84
479.9491, 77775.08
480.4312, 77728.91
480.9134, 77800.19
481.3955, 77924.88
481.8776, 78027.02
482.3597, 78056.91
482.8418, 78085.71
483.3239, 78144.53
483.8060, 78227.40
484.2881, 78288.23
484.7703, 78284.83
485.2524, 78284.50
485.7345, 78323.43
486.2166, 78447.54
486.6987, 78511.66
487.1808, 78475.42
487.6630, 78405.65
488.1451, 78416.26
488.6272, 78543.93
489.1093, 78646.43
489.5914, 78670.35
490.0735, 78631.51
490.5557, 78665.88
491.0378, 78787.63
491.5199, 78904.11
492.0020, 78929.13
492.4841, 78876.78
492.9662, 78826.30
493.4484, 78779.80
493.9305, 78762.61
494.4126, 78838.37
494.8947, 78980.61
495.3768, 79096.37
495.8589, 79105.11
496.3411, 79085.23
496.8232, 79137.30
497.3053, 79261.52
497.7874, 79352.25
498.2695, 79299.29
498.7516, 79205.20
499.2338, 79168.16
499.7159, 79272.27
500.1980, 79356.85
500.6801, 79341.73
501.1622, 79270.92
501.6443, 79254.90
502.1265, 79368.68
502.6086, 79482.84
503.0907, 79556.60
503.5728, 79583.46
504.0549, 79609.42
504.5370, 79622.92
505.0192, 79648.48
505.5013, 79720.34
505.9834, 79860.35
506.4655, 79954.30
506.9476, 79975.88
507.4297, 79949.64
507.9119, 79935.89
508.3940, 79934.89
508.8761, 79941.10
509.3582, 79951.44
509.8403, 79966.53
510.3224, 79982.40
510.8046, 79997.02
511.2867, 80033.95
511.7688, 80135.96
512.2509, 80273.81
512.7330, 80396.93
513.2151, 80499.85
513.6973, 80569.65
514.1794, 80586.44
514.6615, 80560.02
515.1436, 80521.99
515.6257, 80436.82
516.1078, 80381.48
516.5900, 80416.60
517.0721, 80577.14
517.5542, 80703.27
518.0363, 80753.71
518.5184, 80765.37
519.0005, 80776.69
519.4827, 80805.35
519.9648, 80802.60
520.4469, 80730.80
520.9290, 80625.09
521.4111, 80640.10
521.8932, 80821.41
522.3754, 80998.49
522.8575, 81074.04
523.3396, 81048.34
523.8217, 81050.48
524.3038, 81087.84
524.7859, 81125.90
525.2681, 81100.98
525.7502, 81036.44
526.2323, 81038.45
526.7144, 81172.57
527.1965, 81339.96
527.6786, 81398.45
528.1608, 81372.74
528.6429, 81357.40
529.1250, 81438.45
529.6071, 81532.04
530.0892, 81553.85
530.5714, 81481.87
531.0535, 81441.50
531.5356, 81532.74
532.0176, 81659.02
532.4998, 81724.77
532.9819, 81630.38
533.4640, 81571.70
533.9461, 81602.75
534.4282, 81692.27
534.9103, 81729.36
535.3925, 81659.79
535.8746, 81623.41
536.3567, 81688.64
536.8388, 81866.74
537.3209, 82003.54
537.8030, 82094.73
538.2852, 82152.88
538.7673, 82189.42
539.2494, 82204.18
539.7315, 82195.17
540.2136, 82154.30
540.6957, 82102.77
541.1779, 82063.37
541.6600, 82039.88
542.1421, 82048.09
542.6242, 82132.98
543.1063, 82233.70
543.5884, 82281.97
544.0706, 82274.05
544.5527, 82254.14
545.0348, 82210.38
545.5169, 82184.83
545.9990, 82218.36
546.4811, 82384.69
546.9633, 82521.65
547.4454, 82586.07
547.9275, 82597.05
548.4096, 82600.44
548.8917, 82576.64
549.3738, 82573.50
549.8560, 82609.72
550.3381, 82685.47
550.8202, 82748.70
551.3023, 82798.30
551.7844, 82838.01
552.2665, 82876.20
552.7487, 82912.76
553.2308, 82907.45
553.7129, 82838.37
554.1950, 82774.01
554.6771, 82848.55
555.1592, 83027.95
555.6414, 83164.38
556.1235, 83159.12
556.6056, 83103.30
557.0877, 83095.52
557.5698, 83130.96
558.0519, 83179.26
558.5341, 83249.91
559.0162, 83309.78
559.4983, 83324.48
559.9804, 83269.77
560.4625, 83231.73
560.9446, 83215.35
561.4268, 83233.97
561.9089, 83306.45
562.3910, 83513.48
562.8731, 83664.77
563.3552, 83711.19
563.8373, 83680.92
564.3195, 83704.63
564.8016, 83806.47
565.2837, 83895.83
565.7658, 83911.81
566.2479, 83857.85
566.7300, 83861.99
567.2122, 83934.59
567.6943, 84009.84
568.1764, 84020.23
568.6585, 83977.90
569.1406, 83906.84
569.6227, 83779.41
570.1049, 83689.25
570.5870, 83781.05
571.0691, 83989.97
571.5512, 84161.36
572.0333, 84198.89
572.5154, 84196.67
572.9976, 84196.28
573.4797, 84200.48
573.9618, 84219.46
574.4439, 84277.72
574.9260, 84336.23
575.4081, 84367.46
575.8903, 84336.54
576.3724, 84346.95
576.8545, 84418.79
577.3366, 84515.89
577.8187, 84586.72
578.3008, 84632.40
578.7830, 84641.05
579.2651, 84588.02
579.7472, 84507.91
580.2293, 84525.19
580.7114, 84636.38
581.1935, 84742.49
581.6757, 84755.48
582.1578, 84725.05
582.6399, 84753.27
583.1220, 84851.09
583.6041, 84940.76
584.0862, 84965.00
584.5684, 84946.45
585.0505, 84908.42
585.5326, 84810.32
586.0147, 84758.13
586.4968, 84833.54
586.9789, 84979.09
587.4611, 85063.14
587.9432, 84989.92
588.4253, 84941.81
588.9074, 84980.02
589.3895, 85102.66
589.8716, 85147.75
590.3538, 85077.34
590.8359, 85010.45
591.3180, 85054.84
591.8001, 85210.71
592.2822, 85257.19
592.7643, 85157.46
593.2465, 85031.55
593.7286, 85040.67
594.2107, 85154.53
594.6928, 85268.35
595.1749, 85359.41
595.6570, 85424.23
596.1392, 85451.59
596.6213, 85448.20
597.1034, 85436.16
597.5854, 85377.23
598.0676, 85352.36
598.5497, 85441.43
599.0318, 85670.77
599.5139, 85806.91
599.9960, 85711.12
600.4781, 85583.73
600.9603, 85557.76
601.4424, 85692.95
601.9245, 85797.09
602.4066, 85856.54
602.8887, 85889.79
603.3708, 85932.88
603.8530, 85988.30
604.3351, 86011.09
604.8172, 85971.55
605.2993, 85902.86
605.7814, 85876.50
606.2635, 85891.12
606.7457, 85937.01
607.2278, 86042.02
607.7099, 86157.27
608.1920, 86212.45
608.6741, 86198.59
609.1563, 86198.85
609.6384, 86306.99
610.1205, 86423.87
610.6026, 86458.95
611.0847, 86291.20
611.5668, 86186.80
612.0490, 86206.85
612.5311, 86299.14
613.0132, 86384.13
613.4953, 86463.04
613.9774, 86536.09
614.4595, 86612.67
614.9417, 86682.89
615.4238, 86678.54
615.9059, 86591.68
616.3880, 86507.69
616.8701, 86471.48
617.3522, 86479.68
617.8344, 86540.30
618.3165, 86656.38
618.7986, 86752.52
619.2807, 86739.97
619.7628, 86676.39
620.2449, 86631.68
620.7271, 86606.66
621.2092, 86635.35
621.6913, 86812.46
622.1734, 87037.79
622.6555, 87143.06
623.1376, 86966.86
623.6198, 86814.59
624.1019, 86733.94
624.5840, 86722.61
625.0661, 86777.40
625.5482, 86927.77
626.0303, 87074.83
626.5125, 87175.51
626.9946, 87230.40
627.4767, 87247.76
627.9588, 87224.96
628.4409, 87184.52
628.9230, 87146.04
629.4052, 87106.63
629.8873, 87047.90
630.3694, 86947.05
630.8515, 86884.90
631.3336, 86957.35
631.8157, 87104.63
632.2979, 87230.84
632.7800, 87288.35
633.2621, 87334.97
633.7442, 87394.87
634.2263, 87461.75
634.7084, 87499.00
635.1906, 87471.98
635.6727, 87461.70
636.1548, 87513.19
636.6369, 87630.47
637.1190, 87651.30
637.6011, 87547.59
638.0833, 87447.83
638.5654, 87481.17
639.0475, 87619.43
639.5296, 87720.88
640.0117, 87769.21
640.4938, 87782.16
640.9760, 87744.79
641.4581, 87691.85
641.9402, 87686.44
642.4223, 87797.52
642.9044, 87903.83
643.3865, 87945.17
643.8687, 87934.26
644.3508, 87904.60
644.8329, 87817.54
645.3150, 87761.86
645.7971, 87769.25
646.2792, 87837.64
646.7614, 87894.55
647.2435, 87922.00
647.7256, 87976.91
648.2077, 88125.80
648.6898, 88368.12
649.1719, 88492.16
649.6541, 88487.71
650.1362, 88412.41
650.6183, 88285.33
651.1004, 88136.77
651.5825, 88036.12
652.0646, 87996.94
652.5468, 88015.45
653.0289, 88127.05
653.5110, 88287.25
653.9931, 88421.18
654.4752, 88525.88
654.9573, 88580.55
655.4395, 88556.46
655.9216, 88468.63
656.4037, 88397.36
656.8858, 88332.69
657.3679, 88302.45
657.8500, 88333.69
658.3322, 88422.50
658.8143, 88446.36
659.2964, 88396.16
659.7785, 88335.46
660.2606, 88305.61
660.7427, 88306.18
661.2249, 88347.85
661.7070, 88439.12
662.1891, 88519.93
662.6712, 88517.35
663.1533, 88478.63
663.6354, 88469.59
664.1175, 88549.35
664.5996, 88604.92
665.0817, 88576.08
665.5638, 88500.20
666.0460, 88451.41
666.5281, 88434.49
667.0102, 88443.43
667.4923, 88485.73
667.9744, 88553.48
668.4565, 88610.98
668.9387, 88661.18
669.4208, 88687.29
669.9029, 88669.52
670.3850, 88620.23
670.8671, 88580.95
671.3492, 88551.70
671.8314, 88536.25
672.3135, 88537.55
672.7956, 88554.10
673.2777, 88589.34
673.7598, 88649.52
674.2419, 88701.27
674.7241, 88748.95
675.2062, 88772.11
675.6883, 88749.07
676.1704, 88587.03
676.6525, 88510.94
677.1346, 88573.30
677.6168, 88698.78
678.0989, 88741.17
678.5810, 88685.63
679.0631, 88633.20
679.5452, 88610.99
680.0273, 88610.52
680.5095, 88615.70
680.9916, 88625.47
681.4737, 88632.59
681.9558, 88623.08
682.4379, 88615.22
682.9200, 88628.88
683.4022, 88664.00
683.8843, 88706.98
684.3664, 88775.77
684.8485, 88832.90
685.3306, 88855.74
685.8127, 88834.05
686.2949, 88795.63
686.7770, 88716.20
687.2591, 88646.21
687.7412, 88645.60
688.2233, 88730.75
688.7054, 88745.30
689.1876, 88657.57
689.6697, 88544.73
690.1518, 88517.75
690.6339, 88560.20
691.1160, 88616.44
691.5981, 88675.27
692.0803, 88731.81
692.5624, 88788.32
693.0445, 88839.02
693.5266, 88870.74
694.0087, 88837.51
694.4908, 88826.10
694.9730, 88885.02
695.4551, 89005.14
695.9372, 89099.72
696.4193, 89185.20
696.9014, 89215.38
697.3835, 89148.98
697.8657, 88991.27
698.3478, 88902.43
698.8299, 88887.21
699.3120, 88901.92
699.7941, 88929.59
700.2762, 88957.81
700.7584, 88951.69
701.2405, 88903.45
701.7226, 88860.54
702.2047, 88865.46
702.6868, 88891.01
703.1689, 88908.23
703.6511, 88903.71
704.1332, 88902.84
704.6153, 88912.95
705.0974, 88927.95
705.5795, 88939.12
706.0616, 88940.60
706.5438, 88954.84
707.0259, 88989.65
707.5080, 89034.29
707.9901, 89073.91
708.4722, 89106.81
708.9543, 89106.88
709.4365, 89051.55
709.9186, 88966.69
710.4007, 88862.48
710.8828, 88754.39
711.3649, 88701.05
711.8470, 88765.02
712.3292, 88864.67
712.8113, 88978.45
713.2934, 89105.66
713.7755, 89158.43
714.2576, 89063.04
714.7397, 88970.58
715.2219, 88962.80
715.7040, 89055.48
716.1861, 89096.13
716.6682, 89081.90
717.1503, 89026.04
717.6324, 88895.92
718.1146, 88731.30
718.5967, 88677.09
719.0788, 88767.24
719.5609, 88880.05
720.0430, 88908.20
720.5251, 88896.63
721.0073, 88901.97
721.4894, 88952.57
721.9715, 89002.05
722.4536, 89031.13
722.9357, 89053.99
723.4178, 89097.99
723.9000, 89194.23
724.3821, 89236.93
724.8642, 89189.51
725.3463, 89092.76
725.8284, 89040.40
726.3105, 89031.84
726.7927, 89055.69
727.2748, 89136.61
727.7569, 89223.68
728.2390, 89231.39
728.7211, 89175.33
729.2032, 89118.19
729.6853, 89075.23
730.1674, 89055.07
730.6495, 89070.13
731.1317, 89121.01
731.6138, 89168.22
732.0959, 89230.76
732.5780, 89261.95
733.0601, 89228.69
733.5422, 89124.72
734.0244, 89059.11
734.5065, 89034.87
734.9886, 89027.59
735.4707, 89009.95
735.9528, 88993.18
736.4349, 89013.52
736.9171, 89078.55
737.3992, 89144.90
737.8813, 89197.77
738.3634, 89224.69
738.8455, 89202.13
739.3276, 89058.99
739.8098, 88995.38
740.2919, 89124.41
740.7740, 89306.02
741.2561, 89390.55
741.7382, 89347.55
742.2203, 89305.57
742.7025, 89281.24
743.1846, 89263.25
743.6667, 89226.63
744.1488, 89176.57
744.6309, 89141.52
745.1130, 89132.71
745.5952, 89141.71
746.0773, 89164.38
746.5594, 89198.59
747.0415, 89238.81
747.5236, 89333.21
748.0057, 89381.48
748.4879, 89303.34
748.9700, 89136.73
749.4521, 89068.93
749.9342, 89147.59
750.4163, 89220.01
750.8984, 89226.40
751.3806, 89182.77
751.8627, 89170.05
752.3448, 89187.73
752.8269, 89207.73
753.3090, 89198.63
753.7911, 89188.04
754.2733, 89229.50
754.7554, 89319.04
755.2375, 89375.23
755.7196, 89326.60
756.2017, 89257.70
756.6838, 89221.80
757.1660, 89234.14
757.6481, 89227.70
758.1302, 89189.92
758.6123, 89152.22
759.0944, 89135.90
759.5765, 89141.28
760.0587, 89156.95
760.5408, 89184.20
761.0229, 89210.37
761.5050, 89225.87
761.9871, 89231.31
762.4692, 89227.41
762.9514, 89213.73
763.4335, 89193.43
763.9156, 89134.05
764.3977, 89085.99
764.8798, 89101.27
765.3619, 89271.92
765.8441, 89384.28
766.3262, 89433.70
766.8083, 89427.55
767.2904, 89344.00
767.7725, 89175.98
768.2546, 89110.09
768.7368, 89210.73
769.2189, 89357.28
769.7010, 89376.25
770.1831, 89308.04
770.6652, 89244.90
771.1473, 89207.16
771.6295, 89200.59
772.1116, 89246.43
772.5937, 89323.69
773.0758, 89389.16
773.5579, 89456.26
774.0400, 89480.70
774.5222, 89431.02
775.0043, 89343.85
775.4864, 89342.87
775.9685, 89436.19
776.4506, 89496.26
776.9327, 89455.70
777.4149, 89370.28
777.8970, 89314.43
778.3791, 89293.41
778.8612, 89326.53
779.3433, 89511.98
779.8254, 89674.13
780.3076, 89686.73
780.7897, 89569.45
781.2718, 89498.88
781.7539, 89508.75
782.2360, 89537.90
782.7181, 89570.20
783.2003, 89605.08
783.6824, 89642.43
784.1645, 89683.88
784.6466, 89698.88
785.1287, 89635.13
785.6108, 89545.40
786.0930, 89523.75
786.5751, 89568.38
787.0572, 89631.02
787.5393, 89690.45
788.0214, 89753.85
788.5035, 89844.55
788.9857, 89976.73
789.4678, 90012.65
789.9499, 89887.78
790.4320, 89758.33
790.9141, 89707.34
791.3962, 89735.66
791.8784, 89824.31
792.3605, 89980.66
792.8426, 90106.03
793.3247, 90076.85
793.8068, 89981.30
794.2889, 89956.76
794.7711, 90023.42
795.2531, 90099.86
795.7352, 90166.98
796.2173, 90213.45
796.6995, 90218.05
797.1816, 90137.58
797.6637, 90153.76
798.1458, 90300.16
798.6279, 90488.53
799.1100, 90650.90
799.5922, 90787.34
800.0743, 90901.45
800.5564, 90995.19
801.0385, 91046.30
801.5206, 90964.88
802.0027, 90856.09
802.4849, 90882.70
802.9670, 91135.52
803.4491, 91328.45
803.9312, 91309.88
804.4133, 91218.08
804.8954, 91185.43
805.3776, 91241.29
805.8597, 91280.44
806.3418, 91297.49
806.8239, 91300.97
807.3060, 91288.04
807.7881, 91267.38
808.2703, 91291.12
808.7524, 91382.74
809.2345, 91459.34
809.7166, 91432.48
810.1987, 91351.24
810.6808, 91276.99
811.1630, 91227.77
811.6451, 91181.70
812.1272, 91141.27
812.6093, 91097.90
813.0914, 91041.34
813.5735, 90969.58
814.0557, 90893.75
814.5378, 90814.84
815.0199, 90735.02
815.5020, 90661.40
815.9841, 90590.32
816.4662, 90515.92
816.9484, 90444.73
817.4305, 90349.80
817.9126, 90203.42
818.3947, 90028.20
818.8768, 89854.02
819.3589, 89621.84
819.8411, 89494.12
820.3232, 89533.35
820.8053, 89628.16
821.2874, 89589.03
821.7695, 89415.34
822.2516, 89300.59
822.7338, 89299.74
823.2159, 89321.73
823.6980, 89241.89
824.1801, 89101.91
824.6622, 88977.46
825.1443, 88864.86
825.6265, 88812.04
826.1086, 88910.00
826.5907, 89052.65
827.0728, 89065.41
827.5549, 88867.70
828.0370, 88737.30
828.5192, 88718.99
829.0013, 88763.42
829.4834, 88812.07
829.9655, 88856.73
830.4476, 88844.52
830.9297, 88729.89
831.4119, 88624.70
831.8940, 88663.33
832.3761, 88767.37
832.8582, 88817.74
833.3403, 88710.13
833.8224, 88639.84
834.3046, 88653.98
834.7867, 88699.96
835.2688, 88704.70
835.7509, 88667.63
836.2330, 88578.12
836.7151, 88406.73
837.1973, 88251.59
837.6794, 88287.17
838.1615, 88439.61
838.6436, 88541.84
839.1257, 88515.78
839.6078, 88470.51
840.0900, 88453.82
840.5721, 88451.36
841.0542, 88441.28
841.5363, 88421.27
842.0184, 88393.88
842.5005, 88350.73
842.9827, 88312.74
843.4648, 88316.79
843.9469, 88358.15
844.4290, 88409.76
844.9111, 88472.81
845.3932, 88520.98
845.8754, 88523.42
846.3575, 88496.52
846.8396, 88463.02
847.3217, 88427.12
847.8038, 88387.67
848.2859, 88346.78
848.7681, 88301.29
849.2502, 88238.70
849.7323, 88151.59
850.2144, 88106.20
850.6965, 88115.50
851.1786, 88154.27
851.6608, 88204.12
852.1429, 88256.15
852.6250, 88298.72
853.1071, 88339.39
853.5892, 88341.33
854.0714, 88233.84
854.5535, 88104.13
855.0356, 88055.37
855.5177, 88143.52
855.9998, 88196.30
856.4819, 88203.02
856.9641, 88187.00
857.4462, 88170.53
857.9283, 88154.52
858.4104, 88148.67
858.8925, 88157.98
859.3746, 88155.25
859.8568, 88097.34
860.3389, 88025.45
860.8210, 87985.63
861.3030, 87998.99
861.7852, 88014.13
862.2673, 88028.25
862.7494, 88039.98
863.2315, 88040.77
863.7136, 88028.47
864.1957, 88072.38
864.6779, 88186.98
865.1600, 88269.04
865.6421, 88160.23
866.1242, 87978.56
866.6063, 87902.74
867.0884, 87970.73
867.5706, 88053.31
868.0527, 88140.25
868.5348, 88191.37
869.0169, 88178.14
869.4990, 88088.41
869.9811, 87996.89
870.4633, 87896.47
870.9454, 87817.46
871.4275, 87791.67
871.9096, 87804.70
872.3917, 87836.72
872.8738, 87884.67
873.3560, 87899.95
873.8381, 87823.07
874.3202, 87725.44
874.8023, 87645.59
875.2844, 87584.74
875.7665, 87582.23
876.2487, 87670.21
876.7308, 87752.66
877.2129, 87773.43
877.6950, 87745.16
878.1771, 87732.30
878.6592, 87735.08
879.1414, 87754.10
879.6235, 87814.65
880.1056, 87872.20
880.5877, 87892.60
881.0698, 87875.50
881.5519, 87831.30
882.0341, 87700.65
882.5162, 87623.96
882.9983, 87667.77
883.4804, 87794.57
883.9625, 87805.51
884.4446, 87701.43
884.9268, 87637.42
885.4089, 87719.17
885.8910, 87852.91
886.3731, 87961.95
886.8552, 88031.74
887.3373, 88021.56
887.8195, 87821.50
888.3016, 87648.91
888.7837, 87555.80
889.2658, 87530.03
889.7479, 87564.44
890.2300, 87672.16
890.7122, 87727.82
891.1943, 87685.89
891.6764, 87600.72
892.1585, 87533.96
892.6406, 87492.16
893.1227, 87494.63
893.6049, 87613.98
894.0870, 87684.14
894.5691, 87592.52
895.0512, 87437.31
895.5333, 87359.66
896.0154, 87386.74
896.4976, 87402.69
896.9797, 87390.77
897.4618, 87377.48
897.9439, 87403.70
898.4260, 87456.24
898.9081, 87504.96
899.3903, 87548.13
899.8724, 87569.55
900.3545, 87551.17
900.8366, 87511.67
901.3187, 87464.97
901.8008, 87395.87
902.2830, 87369.44
902.7651, 87397.71
903.2472, 87440.55
903.7293, 87468.57
904.2114, 87482.40
904.6935, 87477.01
905.1757, 87452.48
905.6578, 87435.70
906.1399, 87490.67
906.6220, 87527.12
907.1041, 87455.98
907.5862, 87254.63
908.0684, 87113.56
908.5505, 87050.45
909.0326, 87026.20
909.5147, 87030.67
909.9968, 87057.87
910.4789, 87070.41
910.9611, 87071.98
911.4432, 87097.15
911.9253, 87213.82
912.4074, 87322.13
912.8895, 87340.52
913.3716, 87281.66
913.8538, 87208.19
914.3359, 87075.18
914.8180, 87016.73
915.3001, 87082.67
915.7822, 87228.73
916.2643, 87364.02
916.7465, 87480.59
917.2286, 87513.66
917.7107, 87398.59
918.1928, 87261.16
918.6749, 87201.63
919.1570, 87203.16
919.6392, 87238.06
920.1213, 87358.34
920.6034, 87425.97
921.0855, 87406.28
921.5676, 87359.69
922.0497, 87392.76
922.5319, 87493.92
923.0140, 87458.67
923.4961, 87232.84
923.9782, 87018.94
924.4603, 87035.64
924.9424, 87151.60
925.4246, 87226.45
925.9067, 87231.66
926.3888, 87202.88
926.8708, 87109.69
927.3530, 87029.21
927.8351, 87026.34
928.3172, 87099.05
928.7993, 87094.12
929.2814, 87010.91
929.7635, 86952.57
930.2457, 87021.62
930.7278, 87137.91
931.2099, 87248.23
931.6920, 87342.71
932.1741, 87347.42
932.6563, 87120.79
933.1384, 86960.37
933.6205, 86975.96
934.1026, 87120.07
934.5847, 87199.66
935.0668, 87217.42
935.5490, 87222.99
936.0311, 87239.57
936.5132, 87251.20
936.9953, 87249.72
937.4774, 87229.87
937.9595, 87180.91
938.4417, 86994.88
938.9238, 86934.42
939.4059, 87097.49
939.8880, 87325.09
940.3701, 87359.16
940.8522, 87213.29
941.3344, 87119.13
941.8165, 87122.47
942.2986, 87153.05
942.7807, 87155.70
943.2628, 87141.70
943.7449, 87121.88
944.2271, 87093.91
944.7092, 87073.59
945.1913, 87066.60
945.6734, 87060.87
946.1555, 87044.62
946.6376, 87019.66
947.1198, 87022.91
947.6019, 87053.16
948.0840, 87055.57
948.5661, 86945.20
949.0482, 86824.91
949.5303, 86804.52
950.0125, 86874.81
950.4946, 86886.28
950.9767, 86780.22
951.4588, 86684.80
951.9409, 86639.30
952.4230, 86627.45
952.9052, 86592.73
953.3873, 86542.44
953.8694, 86527.53
954.3515, 86595.39
954.8336, 86663.11
955.3157, 86652.72
955.7979, 86605.68
956.2800, 86589.81
956.7621, 86635.86
957.2442, 86679.41
957.7263, 86730.34
958.2084, 86753.47
958.6906, 86676.29
959.1727, 86531.37
959.6548, 86459.08
960.1369, 86484.26
960.6190, 86508.52
961.1011, 86475.88
961.5833, 86404.48
962.0654, 86280.10
962.5475, 86081.05
963.0296, 86034.38
963.5117, 86193.28
963.9938, 86357.58
964.4760, 86410.97
964.9581, 86385.96
965.4402, 86360.05
965.9223, 86336.39
966.4044, 86329.20
966.8865, 86375.10
967.3687, 86409.20
967.8508, 86386.21
968.3329, 86328.90
968.8150, 86304.95
969.2971, 86330.08
969.7792, 86318.51
970.2614, 86244.64
970.7435, 86149.18
971.2256, 86066.07
971.7077, 86010.06
972.1898, 86021.23
972.6719, 86146.16
973.1541, 86233.10
973.6362, 86208.18
974.1183, 86135.91
974.6004, 86052.88
975.0825, 85945.49
975.5646, 85932.13
976.0468, 86022.74
976.5289, 86114.80
977.0110, 86118.52
977.4931, 86082.83
977.9752, 86081.45
978.4573, 86108.19
978.9395, 86093.59
979.4216, 85957.67
979.9037, 85844.66
980.3858, 85797.30
980.8679, 85798.78
981.3500, 85809.84
981.8322, 85828.63
982.3143, 85815.02
982.7964, 85727.35
983.2785, 85659.19
983.7606, 85774.01
984.2427, 85941.77
984.7249, 85976.82
985.2070, 85640.70
985.6891, 85498.74
986.1712, 85633.95
986.6533, 85834.24
987.1354, 85886.23
987.6176, 85822.46
988.0997, 85802.88
988.5818, 85837.02
989.0639, 85873.95
989.5460, 85889.72
990.0281, 85886.78
990.5103, 85866.36
990.9924, 85827.67
991.4745, 85762.07
991.9566, 85648.11
992.4387, 85580.19
992.9208, 85608.33
993.4029, 85684.84
993.8850, 85718.83
994.3671, 85720.41
994.8492, 85715.93
995.3314, 85728.74
995.8135, 85718.46
996.2956, 85625.30
996.7777, 85530.11
997.2598, 85541.89
997.7419, 85686.86
998.2241, 85727.03
998.7062, 85634.42
999.1883, 85530.38
999.6704, 85563.17
1000.153, 85631.91
1000.635, 85590.36
1001.117, 85424.62
1001.599, 85315.16
1002.081, 85327.10
1002.563, 85380.21
1003.045, 85469.85
1003.527, 85574.04
1004.009, 85576.05
1004.492, 85492.24
1004.974, 85453.17
1005.456, 85557.16
1005.938, 85664.02
1006.420, 85652.38
1006.902, 85581.55
1007.384, 85551.50
1007.866, 85613.45
1008.349, 85620.42
1008.831, 85559.20
1009.313, 85459.87
1009.795, 85328.08
1010.277, 85188.48
1010.759, 85095.02
1011.241, 85053.03
1011.723, 85069.28
1012.205, 85228.01
1012.688, 85367.13
1013.170, 85390.22
1013.652, 85316.75
1014.134, 85257.34
1014.616, 85211.15
1015.098, 85199.27
1015.580, 85251.43
1016.062, 85308.95
1016.544, 85278.59
1017.027, 85205.34
1017.509, 85166.43
1017.991, 85230.19
1018.473, 85264.71
1018.955, 85264.98
1019.437, 85230.35
1019.919, 85139.55
1020.401, 85006.16
1020.884, 84930.25
1021.366, 84917.86
1021.848, 84904.76
1022.330, 84824.10
1022.812, 84746.19
1023.294, 84718.65
1023.776, 84742.20
1024.258, 84793.30
1024.740, 84889.75
1025.223, 84939.57
1025.705, 84904.02
1026.187, 84822.84
1026.669, 84746.14
1027.151, 84677.93
1027.633, 84624.23
1028.115, 84561.25
1028.597, 84564.37
1029.079, 84759.79
1029.562, 84930.06
1030.044, 84852.81
1030.526, 84524.02
1031.008, 84420.35
1031.490, 84551.96
1031.972, 84704.70
1032.454, 84737.06
1032.936, 84714.16
1033.419, 84674.41
1033.901, 84624.51
1034.383, 84589.55
1034.865, 84574.53
1035.347, 84566.94
1035.829, 84570.90
1036.311, 84568.77
1036.793, 84511.27
1037.276, 84425.27
1037.758, 84383.91
1038.240, 84421.11
1038.722, 84446.61
1039.204, 84408.47
1039.686, 84355.79
1040.168, 84319.23
1040.650, 84299.05
1041.132, 84300.11
1041.615, 84323.04
1042.097, 84335.37
1042.579, 84294.76
1043.061, 84251.77
1043.543, 84274.97
1044.025, 84336.24
1044.507, 84347.34
1044.989, 84239.72
1045.471, 84192.92
1045.954, 84249.33
1046.436, 84334.65
1046.918, 84353.19
1047.400, 84315.98
1047.882, 84227.97
1048.364, 84080.50
1048.846, 84005.61
1049.328, 84157.27
1049.811, 84321.95
1050.293, 84383.91
1050.775, 84347.86
1051.257, 84238.56
1051.739, 84053.59
1052.221, 83907.12
1052.703, 83859.08
1053.185, 83860.24
1053.667, 83882.55
1054.150, 83910.84
1054.632, 83919.09
1055.114, 83865.66
1055.596, 83856.36
1056.078, 83906.34
1056.560, 83971.21
1057.042, 84019.16
1057.524, 84045.95
1058.006, 84036.68
1058.489, 83992.46
1058.971, 83933.05
1059.453, 83814.56
1059.935, 83744.73
1060.417, 83805.55
1060.899, 83936.05
1061.381, 83937.76
1061.863, 83811.09
1062.346, 83770.98
1062.828, 83897.96
1063.310, 84039.05
1063.792, 84045.36
1064.274, 83978.82
1064.756, 83898.84
1065.238, 83798.73
1065.720, 83747.84
1066.203, 83761.74
1066.685, 83777.54
1067.167, 83734.40
1067.649, 83676.98
1068.131, 83758.69
1068.613, 83924.98
1069.095, 83991.25
1069.577, 83764.20
1070.059, 83576.24
1070.542, 83519.91
1071.024, 83530.54
1071.506, 83533.11
1071.988, 83528.27
1072.470, 83528.88
1072.952, 83536.45
1073.434, 83544.42
1073.916, 83568.34
1074.398, 83573.59
1074.881, 83512.70
1075.363, 83392.33
1075.845, 83336.32
1076.327, 83357.85
1076.809, 83387.41
1077.291, 83400.67
1077.773, 83416.66
1078.255, 83481.19
1078.738, 83562.84
1079.220, 83612.02
1079.702, 83622.79
1080.184, 83574.63
1080.666, 83434.18
1081.148, 83290.95
1081.630, 83195.35
1082.112, 83148.34
1082.594, 83184.42
1083.077, 83287.05
1083.559, 83352.65
1084.041, 83274.12
1084.523, 83199.38
1085.005, 83202.04
1085.487, 83250.87
1085.969, 83308.55
1086.451, 83381.89
1086.933, 83382.63
1087.416, 83290.32
1087.898, 83207.74
1088.380, 83276.45
1088.862, 83369.34
1089.344, 83344.20
1089.826, 83192.63
1090.308, 83090.70
1090.790, 83068.66
1091.272, 83030.63
1091.755, 82921.72
1092.237, 82822.09
1092.719, 82942.41
1093.201, 83170.80
1093.683, 83253.02
1094.165, 83050.23
1094.647, 82906.89
1095.129, 82957.23
1095.612, 83034.45
1096.094, 83040.95
1096.576, 82984.16
1097.058, 82897.73
1097.540, 82794.23
1098.022, 82765.12
1098.504, 82980.24
1098.986, 83154.05
1099.469, 83100.91
1099.951, 82924.22
1100.433, 82792.41
1100.915, 82707.41
1101.397, 82644.60
1101.879, 82599.43
1102.361, 82597.09
1102.843, 82719.98
1103.325, 82852.08
1103.807, 82868.06
1104.290, 82768.70
1104.772, 82673.55
1105.254, 82573.42
1105.736, 82527.98
1106.218, 82567.71
1106.700, 82636.45
1107.182, 82633.25
1107.664, 82596.67
1108.147, 82613.97
1108.629, 82730.08
1109.111, 82775.67
1109.593, 82666.16
1110.075, 82528.83
1110.557, 82406.74
1111.039, 82308.51
1111.521, 82282.55
1112.004, 82315.93
1112.486, 82342.96
1112.968, 82284.19
1113.450, 82282.92
1113.932, 82509.27
1114.414, 82757.47
1114.896, 82787.66
1115.378, 82575.77
1115.860, 82428.52
1116.343, 82352.85
1116.825, 82320.90
1117.307, 82344.59
1117.789, 82372.63
1118.271, 82353.80
1118.753, 82303.72
1119.235, 82284.21
1119.717, 82307.45
1120.199, 82326.13
1120.682, 82336.05
1121.164, 82328.63
1121.646, 82261.78
1122.128, 82188.93
1122.610, 82194.88
1123.092, 82292.53
1123.574, 82361.30
1124.056, 82389.95
1124.539, 82377.78
1125.021, 82306.26
1125.503, 82218.06
1125.985, 82211.44
1126.467, 82259.20
1126.949, 82298.10
1127.431, 82313.68
1127.913, 82311.16
1128.396, 82306.91
1128.878, 82265.92
1129.360, 82134.48
1129.842, 81943.48
1130.324, 81913.36
1130.806, 82019.13
1131.288, 82113.27
1131.770, 82103.72
1132.252, 82082.93
1132.734, 82101.61
1133.217, 82126.56
1133.699, 82115.18
1134.181, 82063.77
1134.663, 82030.56
1135.145, 82017.96
1135.627, 82005.86
1136.109, 81957.73
1136.591, 81923.36
1137.074, 81983.59
1137.556, 82089.17
1138.038, 82059.50
1138.520, 81847.16
1139.002, 81711.38
1139.484, 81699.36
1139.966, 81740.88
1140.448, 81792.86
1140.931, 81835.77
1141.413, 81839.06
1141.895, 81799.72
1142.377, 81774.51
1142.859, 81776.06
1143.341, 81765.40
1143.823, 81721.45
1144.305, 81677.38
1144.787, 81711.45
1145.270, 81779.24
1145.752, 81792.35
1146.234, 81709.24
1146.716, 81662.01
1147.198, 81696.20
1147.680, 81721.07
1148.162, 81678.55
1148.644, 81599.18
1149.126, 81577.69
1149.609, 81599.91
1150.091, 81622.33
1150.573, 81631.14
1151.055, 81633.71
1151.537, 81648.52
1152.019, 81639.98
1152.501, 81556.20
1152.983, 81412.41
1153.466, 81361.12
1153.948, 81392.59
1154.430, 81417.36
1154.912, 81385.02
1155.394, 81335.74
1155.876, 81264.81
1156.358, 81199.77
1156.840, 81171.63
1157.322, 81180.61
1157.805, 81269.28
1158.287, 81442.38
1158.769, 81557.87
1159.251, 81439.13
1159.733, 81292.99
1160.215, 81277.14
1160.697, 81349.52
1161.179, 81369.99
1161.661, 81334.65
1162.144, 81307.48
1162.626, 81302.20
1163.108, 81295.74
1163.590, 81264.77
1164.072, 81222.98
1164.554, 81178.34
1165.036, 81132.63
1165.518, 81119.95
1166.000, 81154.97
1166.483, 81120.82
1166.965, 80942.28
1167.447, 80775.55
1167.929, 80861.27
1168.411, 81047.22
1168.893, 81141.43
1169.375, 81089.99
1169.857, 81043.99
1170.340, 81005.09
1170.822, 80963.84
1171.304, 80912.20
1171.786, 80860.05
1172.268, 80810.51
1172.750, 80774.96
1173.232, 80775.96
1173.714, 80853.07
1174.197, 80905.38
1174.679, 80936.73
1175.161, 80928.72
1175.643, 80830.34
1176.125, 80701.23
1176.607, 80675.23
1177.089, 80721.27
1177.571, 80748.29
1178.053, 80720.38
1178.536, 80676.38
1179.018, 80611.83
1179.500, 80548.70
1179.982, 80514.73
1180.464, 80496.90
1180.946, 80447.25
1181.428, 80376.37
1181.910, 80357.54
1182.392, 80515.10
1182.875, 80585.31
1183.357, 80479.90
1183.839, 80333.45
1184.321, 80360.39
1184.803, 80494.80
1185.285, 80536.68
1185.767, 80468.97
1186.249, 80409.62
1186.732, 80403.39
1187.214, 80431.29
1187.696, 80523.63
1188.178, 80606.21
1188.660, 80467.22
1189.142, 80188.28
1189.624, 80054.98
1190.106, 80128.74
1190.589, 80247.72
1191.071, 80442.18
1191.553, 80536.87
1192.035, 80416.88
1192.517, 80174.73
1192.999, 80119.22
1193.481, 80202.29
1193.963, 80204.57
1194.445, 80026.25
1194.927, 79922.06
1195.410, 80127.54
1195.892, 80329.26
1196.374, 80338.73
1196.856, 80198.16
1197.338, 80121.27
1197.820, 80096.85
1198.302, 80061.19
1198.784, 79966.82
1199.267, 79907.36
1199.749, 79973.10
1200.231, 80052.66
1200.713, 80068.03
1201.195, 80023.22
1201.677, 79949.33
1202.159, 79853.54
1202.641, 79784.18
1203.124, 79776.79
1203.606, 79786.70
1204.088, 79818.48
1204.570, 79838.76
1205.052, 79814.63
1205.534, 79746.70
1206.016, 79658.38
1206.498, 79554.27
1206.980, 79483.72
1207.463, 79491.83
1207.945, 79519.75
1208.427, 79529.29
1208.909, 79551.36
1209.391, 79644.77
1209.873, 79802.46
1210.355, 79868.02
1210.837, 79836.85
1211.319, 79764.77
1211.802, 79629.69
1212.284, 79527.34
1212.766, 79539.13
1213.248, 79591.77
1213.730, 79574.05
1214.212, 79491.45
1214.694, 79442.51
1215.176, 79435.16
1215.659, 79425.36
1216.141, 79353.11
1216.623, 79305.19
1217.105, 79354.41
1217.587, 79442.13
1218.069, 79443.66
1218.551, 79369.41
1219.033, 79328.26
1219.516, 79336.66
1219.998, 79362.05
1220.480, 79444.34
1220.962, 79467.58
1221.444, 79322.32
1221.926, 79101.92
1222.408, 79062.95
1222.890, 79181.56
1223.372, 79244.01
1223.854, 79204.25
1224.337, 79167.43
1224.819, 79280.56
1225.301, 79320.02
1225.783, 79107.51
1226.265, 78761.59
1226.747, 78711.43
1227.229, 78904.48
1227.711, 79035.57
1228.193, 79018.16
1228.676, 78995.12
1229.158, 79076.12
1229.640, 79140.56
1230.122, 79103.38
1230.604, 79006.42
1231.086, 79036.02
1231.568, 79158.55
1232.050, 79208.47
1232.533, 79123.45
1233.015, 79016.20
1233.497, 78922.81
1233.979, 78841.05
1234.461, 78768.52
1234.943, 78706.52
1235.425, 78659.55
1235.907, 78628.95
1236.390, 78622.30
1236.872, 78658.02
1237.354, 78676.88
1237.836, 78627.44
1238.318, 78589.13
1238.800, 78617.84
1239.282, 78688.65
1239.764, 78703.49
1240.246, 78674.19
1240.729, 78638.33
1241.211, 78593.45
1241.693, 78581.02
1242.175, 78638.20
1242.657, 78688.43
1243.139, 78676.41
1243.621, 78621.16
1244.103, 78590.16
1244.585, 78572.27
1245.068, 78533.20
1245.550, 78427.27
1246.032, 78359.20
1246.514, 78345.35
1246.996, 78359.63
1247.478, 78387.82
1247.960, 78428.52
1248.442, 78506.05
1248.925, 78592.01
1249.407, 78607.00
1249.889, 78442.27
1250.371, 78333.03
1250.853, 78299.85
1251.335, 78301.20
1251.817, 78311.54
1252.299, 78329.61
1252.781, 78374.09
1253.264, 78423.20
1253.746, 78416.77
1254.228, 78296.80
1254.710, 78190.61
1255.192, 78091.88
1255.674, 78044.14
1256.156, 78154.34
1256.638, 78289.39
1257.120, 78232.17
1257.603, 78049.26
1258.085, 77936.18
1258.567, 77936.30
1259.049, 77950.00
1259.531, 77974.67
1260.013, 77998.43
1260.495, 77992.91
1260.977, 77996.90
1261.460, 78087.03
1261.942, 78213.45
1262.424, 78238.87
1262.906, 78139.73
1263.388, 78023.45
1263.870, 77891.16
1264.352, 77819.79
1264.834, 77947.35
1265.317, 78088.09
1265.799, 78067.46
1266.281, 77953.80
1266.763, 77912.27
1267.245, 77949.23
1267.727, 77960.66
1268.209, 77938.75
1268.691, 77904.26
1269.173, 77895.73
1269.656, 77853.91
1270.138, 77682.91
1270.620, 77487.43
1271.102, 77444.01
1271.584, 77539.05
1272.066, 77600.04
1272.548, 77613.43
1273.030, 77608.80
1273.512, 77587.52
1273.995, 77572.92
1274.477, 77587.20
1274.959, 77598.69
1275.441, 77528.13
1275.923, 77412.62
1276.405, 77440.71
1276.887, 77611.30
1277.369, 77734.52
1277.852, 77709.47
1278.334, 77642.23
1278.816, 77543.73
1279.298, 77439.88
1279.780, 77360.10
1280.262, 77302.11
1280.744, 77263.10
1281.226, 77242.91
1281.708, 77245.13
1282.191, 77281.88
1282.673, 77323.88
1283.155, 77372.36
1283.637, 77410.72
1284.119, 77424.52
1284.601, 77412.94
1285.083, 77364.44
1285.565, 77285.46
1286.047, 77218.84
1286.530, 77169.33
1287.012, 77125.73
1287.494, 77085.38
1287.976, 77057.20
1288.458, 77043.67
1288.940, 77051.77
1289.422, 77112.84
1289.904, 77202.31
1290.386, 77227.27
1290.869, 77185.10
1291.351, 77081.12
1291.833, 76910.02
1292.315, 76786.87
1292.797, 76875.34
1293.279, 76971.97
1293.761, 76900.19
1294.243, 76757.32
1294.726, 76745.83
1295.208, 76849.02
1295.690, 76845.97
1296.172, 76716.84
1296.654, 76647.04
1297.136, 76821.27
1297.618, 76987.68
1298.100, 77076.02
1298.583, 77086.02
1299.065, 76971.15
1299.547, 76784.71
1300.029, 76699.38
1300.511, 76720.44
1300.993, 76727.73
1301.475, 76641.01
1301.957, 76589.13
1302.439, 76599.84
1302.922, 76635.09
1303.404, 76674.87
1303.886, 76691.34
1304.368, 76597.57
1304.850, 76418.05
1305.332, 76366.62
1305.814, 76533.00
1306.296, 76590.70
1306.778, 76480.17
1307.261, 76344.38
1307.743, 76327.73
1308.225, 76349.27
1308.707, 76309.02
1309.189, 76241.92
1309.671, 76304.41
1310.153, 76521.41
1310.635, 76531.36
1311.118, 76288.68
1311.600, 76066.41
1312.082, 76101.45
1312.564, 76179.00
1313.046, 76160.52
1313.528, 76113.23
1314.010, 76161.25
1314.492, 76281.59
1314.974, 76305.66
1315.457, 76227.48
1315.939, 76135.10
##END=



