##NAMES=Weloganite
##RRUFFID=R050217
##IDEAL CHEMISTRY=Na_2_Sr_3_Zr^4+^(C^4+^O_3_)_6_&#183;3H_2_O
##LOCALITY=Francon Quarry, Montréal, Québec, Canada
##OWNER=RRUFF
##SOURCE=Marcus Origlieri
##DESCRIPTION=Tan colored tapered hexagonal single crystals
##STATUS=The identification of this mineral has been confirmed by X-ray diffraction and chemical analysis
##URL=rruff.info/R050217
##MEASURED CHEMISTRY=Na_2.00_(Sr_2.93_Ca_0.07_)_Σ=3_(Zr_0.90_Hf_0.10_)_Σ=1_(CO_3_)_6_·3H_2_O
92.35352, 314.0861
92.83563, 317.9564
93.31775, 319.5778
93.79987, 320.8477
94.28198, 317.4583
94.76410, 311.9987
95.24622, 305.2931
95.72833, 298.0455
96.21045, 290.5803
96.69257, 282.8095
97.17468, 275.2560
97.65680, 267.7699
98.13892, 260.8710
98.62103, 255.1591
99.10315, 250.6470
99.58527, 246.6899
100.0674, 242.1524
100.5495, 235.5748
101.0316, 230.2617
101.5137, 227.1064
101.9958, 225.3610
102.4780, 223.8887
102.9601, 221.8329
103.4422, 219.1083
103.9243, 217.3276
104.4064, 216.8770
104.8885, 216.6551
105.3707, 216.3638
105.8528, 215.8883
106.3349, 214.9753
106.8170, 213.2276
107.2991, 210.4968
107.7813, 207.8576
108.2634, 205.2820
108.7455, 202.8420
109.2276, 200.5989
109.7097, 198.5351
110.1918, 196.7417
110.6740, 195.3608
111.1561, 194.3354
111.6382, 193.4500
112.1203, 192.6026
112.6024, 191.7959
113.0845, 191.0512
113.5666, 190.0657
114.0488, 189.4492
114.5309, 189.6515
115.0130, 190.7142
115.4951, 192.2446
115.9772, 193.6284
116.4593, 194.4254
116.9415, 196.4282
117.4236, 200.3230
117.9057, 205.0409
118.3878, 209.8873
118.8699, 214.5715
119.3520, 219.2909
119.8342, 224.5071
120.3163, 230.6886
120.7984, 236.9269
121.2805, 243.6096
121.7626, 250.2268
122.2447, 255.9023
122.7269, 260.0326
123.2090, 262.9112
123.6911, 267.0812
124.1732, 273.3463
124.6553, 279.7380
125.1374, 285.3133
125.6196, 290.2729
126.1017, 295.5380
126.5838, 301.6316
127.0659, 308.6973
127.5480, 316.5760
128.0302, 325.6454
128.5123, 335.2811
128.9944, 344.9774
129.4765, 354.8210
129.9586, 364.3520
130.4407, 373.3181
130.9229, 381.7950
131.4050, 389.6943
131.8871, 396.6905
132.3692, 403.0664
132.8513, 409.6325
133.3334, 416.5916
133.8155, 423.5436
134.2977, 430.2250
134.7798, 436.7228
135.2619, 443.2627
135.7440, 449.8723
136.2261, 456.5170
136.7082, 463.8778
137.1904, 472.4414
137.6725, 481.3891
138.1546, 490.4821
138.6367, 499.7001
139.1188, 509.0154
139.6009, 518.5246
140.0831, 529.0518
140.5652, 537.5906
141.0473, 544.0218
141.5294, 548.9623
142.0115, 552.9216
142.4936, 555.9866
142.9758, 557.6360
143.4579, 556.7725
143.9400, 551.2838
144.4221, 546.8279
144.9042, 543.7236
145.3863, 541.8030
145.8685, 540.8223
146.3506, 540.6657
146.8327, 541.5111
147.3148, 544.1594
147.7969, 549.2753
148.2790, 553.9454
148.7612, 557.5438
149.2433, 559.9102
149.7254, 560.3978
150.2075, 558.5401
150.6896, 554.5040
151.1717, 549.1914
151.6539, 542.4402
152.1360, 534.7937
152.6181, 526.4690
153.1002, 517.3275
153.5823, 508.4187
154.0644, 500.6879
154.5466, 493.1943
155.0287, 485.3671
155.5108, 477.2042
155.9929, 468.1713
156.4750, 457.3233
156.9571, 444.2443
157.4393, 430.1129
157.9214, 415.3715
158.4035, 399.8364
158.8856, 383.1342
159.3677, 364.9644
159.8498, 345.8536
160.3320, 327.7086
160.8141, 309.7108
161.2962, 293.8674
161.7783, 280.8219
162.2604, 269.9517
162.7425, 260.4386
163.2247, 251.7186
163.7068, 243.8313
164.1889, 237.8897
164.6710, 234.6319
165.1531, 232.3630
165.6352, 231.2320
166.1174, 230.8116
166.5995, 230.3082
167.0816, 229.1456
167.5637, 227.3119
168.0458, 225.2929
168.5279, 222.8017
169.0101, 220.4107
169.4922, 218.6664
169.9743, 217.4845
170.4564, 216.0139
170.9385, 213.3546
171.4206, 209.6464
171.9028, 206.6898
172.3849, 205.0361
172.8670, 203.9155
173.3491, 202.3769
173.8312, 200.2377
174.3133, 198.6431
174.7955, 199.4202
175.2776, 201.5729
175.7597, 202.8045
176.2418, 201.6989
176.7239, 199.3367
177.2060, 197.8503
177.6882, 197.5647
178.1703, 197.6437
178.6524, 197.7592
179.1345, 197.8155
179.6166, 197.5714
180.0987, 196.4688
180.5809, 194.7935
181.0630, 194.3506
181.5451, 196.0655
182.0272, 197.9863
182.5093, 199.3344
182.9914, 200.2112
183.4736, 200.9188
183.9557, 201.6840
184.4378, 202.5126
184.9199, 203.2103
185.4020, 203.5540
185.8841, 203.9585
186.3663, 204.3634
186.8484, 204.9079
187.3305, 205.9509
187.8126, 208.0394
188.2947, 211.6172
188.7768, 213.5084
189.2590, 212.2840
189.7411, 210.8752
190.2232, 210.5391
190.7053, 211.3202
191.1874, 212.6121
191.6695, 213.8805
192.1517, 215.3142
192.6338, 215.7271
193.1159, 214.3107
193.5980, 212.6442
194.0801, 211.6430
194.5622, 211.4423
195.0444, 211.6958
195.5265, 212.0127
196.0086, 212.3413
196.4907, 213.1658
196.9728, 215.1259
197.4549, 217.2243
197.9371, 218.4210
198.4192, 218.5245
198.9013, 218.3739
199.3834, 218.8670
199.8655, 220.0010
200.3476, 221.4693
200.8298, 223.4641
201.3119, 225.6934
201.7940, 227.6208
202.2761, 229.0373
202.7582, 230.6563
203.2403, 233.4169
203.7225, 237.0896
204.2046, 240.8246
204.6867, 244.5738
205.1688, 248.1785
205.6509, 251.1851
206.1330, 253.2359
206.6152, 255.2967
207.0973, 258.2599
207.5794, 261.9117
208.0615, 265.4863
208.5436, 268.5610
209.0257, 271.2072
209.5079, 273.7049
209.9900, 275.7413
210.4721, 278.0977
210.9542, 281.3144
211.4363, 285.1841
211.9184, 289.1136
212.4006, 292.7037
212.8827, 295.9633
213.3648, 299.0709
213.8469, 301.8887
214.3290, 304.6678
214.8111, 307.4085
215.2933, 310.1861
215.7754, 313.1805
216.2575, 316.6882
216.7396, 320.7565
217.2217, 324.1879
217.7038, 325.8561
218.1859, 327.8860
218.6681, 331.0133
219.1502, 335.1050
219.6323, 339.6833
220.1144, 344.4235
220.5965, 349.3807
221.0786, 353.8692
221.5608, 357.9785
222.0429, 361.6282
222.5250, 364.7383
223.0071, 367.3532
223.4892, 369.5418
223.9713, 371.3334
224.4535, 372.6787
224.9356, 374.1565
225.4177, 376.5672
225.8998, 378.3631
226.3819, 378.7876
226.8640, 377.9583
227.3462, 376.4739
227.8283, 374.8747
228.3104, 373.1970
228.7925, 370.3900
229.2746, 366.0334
229.7567, 361.1646
230.2389, 356.2296
230.7210, 351.2487
231.2031, 346.1165
231.6852, 340.6494
232.1673, 334.8973
232.6494, 329.7880
233.1316, 325.5679
233.6137, 321.7452
234.0958, 317.9659
234.5779, 314.2745
235.0600, 311.0791
235.5421, 308.8282
236.0243, 307.4073
236.5064, 305.4500
236.9885, 302.7193
237.4706, 299.6809
237.9527, 296.7408
238.4348, 293.8557
238.9170, 290.4917
239.3991, 286.1145
239.8812, 280.9501
240.3633, 276.0509
240.8454, 271.4002
241.3275, 267.0108
241.8097, 262.9627
242.2918, 259.2308
242.7739, 255.5503
243.2560, 251.6916
243.7381, 247.8095
244.2202, 244.2245
244.7024, 241.0772
245.1845, 238.0858
245.6666, 235.0088
246.1487, 231.8581
246.6308, 228.6698
247.1129, 225.6235
247.5951, 222.4626
248.0772, 218.8268
248.5593, 214.5391
249.0414, 210.1001
249.5235, 205.9326
250.0056, 202.0340
250.4878, 198.4358
250.9699, 195.1665
251.4520, 192.2395
251.9341, 189.7098
252.4162, 187.5770
252.8983, 185.8446
253.3805, 184.5191
253.8626, 183.5931
254.3447, 183.1031
254.8268, 183.4243
255.3089, 183.9771
255.7910, 184.4490
256.2732, 184.7854
256.7553, 184.9806
257.2374, 184.9536
257.7195, 184.6510
258.2016, 184.5046
258.6837, 184.9057
259.1659, 185.2486
259.6480, 185.2566
260.1301, 184.8889
260.6122, 184.2155
261.0943, 183.1705
261.5764, 181.6553
262.0586, 180.4696
262.5407, 179.7307
263.0228, 179.3008
263.5049, 179.3559
263.9870, 179.7648
264.4691, 180.0780
264.9513, 179.8281
265.4334, 178.9350
265.9155, 178.0917
266.3976, 177.0637
266.8797, 176.3060
267.3618, 176.2811
267.8440, 176.7353
268.3261, 176.9568
268.8082, 176.2128
269.2903, 174.4427
269.7724, 173.3463
270.2545, 173.5578
270.7367, 173.8869
271.2188, 174.0636
271.7009, 174.1049
272.1830, 174.1099
272.6651, 174.1295
273.1472, 174.1729
273.6294, 174.4168
274.1115, 175.1397
274.5936, 175.7912
275.0757, 176.2951
275.5578, 176.6434
276.0399, 176.8679
276.5221, 177.0011
277.0042, 176.9996
277.4863, 176.6084
277.9684, 175.5770
278.4505, 174.3746
278.9326, 173.0939
279.4148, 171.6538
279.8969, 169.9120
280.3790, 167.7839
280.8611, 165.3651
281.3432, 162.9607
281.8253, 160.7851
282.3075, 158.3274
282.7896, 155.3443
283.2717, 152.1589
283.7538, 149.0695
284.2359, 146.2013
284.7180, 143.5431
285.2002, 141.1099
285.6823, 139.1945
286.1644, 137.1067
286.6465, 134.6110
287.1286, 132.0809
287.6107, 129.9625
288.0929, 128.3326
288.5750, 126.7532
289.0571, 124.4656
289.5392, 120.6534
290.0213, 118.0933
290.5034, 117.7484
290.9856, 117.9041
291.4677, 117.2755
291.9498, 115.7249
292.4319, 113.9661
292.9140, 112.8264
293.3961, 112.4786
293.8783, 112.0683
294.3604, 111.4720
294.8425, 110.9230
295.3246, 110.5808
295.8067, 110.4322
296.2888, 110.3353
296.7710, 110.1404
297.2531, 109.8310
297.7352, 109.9064
298.2173, 110.6425
298.6994, 111.4119
299.1815, 111.8110
299.6637, 111.9981
300.1458, 112.4701
300.6279, 113.6051
301.1100, 115.2906
301.5921, 116.6149
302.0742, 117.5549
302.5564, 118.2355
303.0385, 118.3757
303.5206, 118.3114
304.0027, 118.6741
304.4848, 119.8005
304.9669, 121.4408
305.4491, 122.8584
305.9312, 124.0287
306.4133, 125.0351
306.8954, 125.6758
307.3775, 126.2298
307.8596, 127.1530
308.3418, 128.6052
308.8239, 130.1848
309.3060, 131.1248
309.7881, 130.8619
310.2702, 131.1563
310.7523, 132.5538
311.2345, 134.2749
311.7166, 135.6231
312.1987, 136.4487
312.6808, 136.9633
313.1629, 137.3471
313.6451, 137.4936
314.1272, 138.0428
314.6093, 139.4119
315.0914, 140.8387
315.5735, 141.6986
316.0556, 142.0371
316.5378, 142.4603
317.0199, 143.5397
317.5020, 145.2908
317.9841, 146.5315
318.4662, 146.7479
318.9483, 147.0398
319.4305, 147.9717
319.9126, 149.3953
320.3947, 150.8831
320.8768, 152.2145
321.3589, 153.3739
321.8410, 154.2462
322.3232, 154.6975
322.8053, 155.0867
323.2874, 155.3523
323.7695, 155.6372
324.2516, 156.1681
324.7337, 157.0366
325.2159, 158.1660
325.6980, 159.3949
326.1801, 160.8074
326.6622, 162.1644
327.1443, 163.4190
327.6264, 164.6289
328.1086, 165.6626
328.5907, 166.5289
329.0728, 167.7543
329.5549, 170.0619
330.0370, 173.8752
330.5191, 177.5683
331.0013, 180.8528
331.4834, 184.2254
331.9655, 188.0299
332.4476, 192.2740
332.9297, 196.7483
333.4118, 201.2922
333.8940, 205.8980
334.3761, 210.8005
334.8582, 215.9698
335.3403, 221.3966
335.8224, 227.5409
336.3045, 233.9548
336.7867, 239.6863
337.2688, 244.0742
337.7509, 247.4471
338.2330, 251.3224
338.7151, 256.2576
339.1972, 261.0026
339.6793, 265.1358
340.1614, 269.0757
340.6436, 273.3131
341.1257, 278.0738
341.6078, 283.2740
342.0899, 288.8159
342.5720, 295.1770
343.0541, 301.0322
343.5363, 305.9588
344.0184, 310.7049
344.5005, 315.9628
344.9826, 321.7846
345.4647, 327.6349
345.9468, 332.8782
346.4290, 337.3554
346.9111, 342.0811
347.3932, 347.3885
347.8753, 352.5497
348.3574, 357.2690
348.8395, 361.5487
349.3217, 365.5153
349.8038, 369.2426
350.2859, 372.7317
350.7680, 375.8261
351.2501, 379.1434
351.7322, 381.3475
352.2144, 382.0609
352.6965, 381.5476
353.1786, 380.2072
353.6607, 378.2224
354.1428, 375.3991
354.6249, 371.2524
355.1071, 365.6525
355.5892, 358.7513
356.0713, 350.1953
356.5534, 340.7715
357.0355, 331.0153
357.5176, 321.0611
357.9998, 310.7588
358.4819, 299.6817
358.9640, 287.2165
359.4461, 276.5492
359.9282, 268.6148
360.4103, 261.3719
360.8925, 254.2256
361.3746, 247.0700
361.8567, 239.9631
362.3388, 232.8117
362.8209, 225.7197
363.3030, 219.6890
363.7852, 215.5902
364.2673, 211.5481
364.7494, 207.2469
365.2315, 202.7362
365.7136, 198.0766
366.1957, 193.2892
366.6779, 188.4857
367.1600, 183.9265
367.6421, 179.6184
368.1242, 175.5685
368.6063, 171.8643
369.0884, 168.3380
369.5706, 164.9633
370.0527, 161.6996
370.5348, 158.4382
371.0169, 155.0376
371.4990, 151.5104
371.9811, 147.9559
372.4633, 144.3129
372.9454, 140.7213
373.4275, 137.1166
373.9096, 133.5948
374.3917, 130.3239
374.8738, 127.5223
375.3560, 125.0056
375.8381, 122.1914
376.3202, 118.8578
376.8023, 115.7288
377.2844, 113.2625
377.7665, 111.0748
378.2487, 108.7649
378.7308, 106.1947
379.2129, 103.5475
379.6950, 100.9555
380.1771, 98.40843
380.6592, 96.18291
381.1414, 94.59673
381.6235, 93.12519
382.1056, 91.19070
382.5877, 88.81582
383.0698, 86.70383
383.5519, 85.44185
384.0341, 84.76745
384.5162, 83.86169
384.9983, 82.59331
385.4804, 81.24088
385.9625, 79.97309
386.4446, 78.77492
386.9268, 77.65805
387.4089, 76.57935
387.8910, 75.61784
388.3731, 74.98614
388.8552, 74.66793
389.3373, 74.11766
389.8195, 72.86348
390.3016, 71.38364
390.7837, 70.65907
391.2658, 70.99805
391.7479, 71.17738
392.2300, 70.33718
392.7122, 68.93701
393.1943, 68.01691
393.6764, 67.88334
394.1585, 68.03483
394.6406, 67.90322
395.1227, 67.48418
395.6049, 67.04258
396.0870, 66.61962
396.5691, 66.18285
397.0512, 65.67276
397.5333, 65.10220
398.0154, 64.58406
398.4976, 64.19485
398.9797, 63.92144
399.4618, 63.66436
399.9439, 63.34774
400.4260, 63.12999
400.9081, 63.21504
401.3903, 63.39228
401.8724, 63.24498
402.3545, 62.61650
402.8366, 61.87195
403.3187, 61.66589
403.8008, 62.46895
404.2830, 62.75673
404.7651, 62.16453
405.2472, 61.35882
405.7293, 60.72992
406.2114, 60.33421
406.6935, 60.09320
407.1757, 59.95423
407.6578, 59.91566
408.1399, 59.88293
408.6220, 59.84901
409.1041, 59.82894
409.5862, 59.97361
410.0684, 60.08650
410.5505, 59.78115
411.0326, 58.89827
411.5147, 57.89317
411.9968, 57.79336
412.4789, 59.38023
412.9611, 60.11572
413.4432, 59.25384
413.9253, 58.12130
414.4074, 57.51714
414.8895, 57.44958
415.3716, 57.44010
415.8538, 57.01018
416.3359, 56.20326
416.8180, 55.78190
417.3001, 56.04134
417.7822, 56.28119
418.2643, 56.27514
418.7465, 56.10101
419.2286, 55.83151
419.7107, 55.46344
420.1928, 55.13196
420.6749, 55.08701
421.1570, 55.37710
421.6392, 55.60146
422.1213, 55.64326
422.6034, 55.59645
423.0855, 55.56641
423.5676, 55.54553
424.0497, 55.39474
424.5319, 54.87869
425.0140, 54.17174
425.4961, 53.79196
425.9782, 53.84516
426.4603, 53.97304
426.9424, 53.95736
427.4246, 53.83470
427.9067, 53.66815
428.3888, 53.47405
428.8709, 53.23246
429.3530, 52.86078
429.8351, 52.40526
430.3173, 52.10723
430.7994, 52.10554
431.2815, 52.21325
431.7636, 52.07244
432.2457, 51.63940
432.7278, 51.33362
433.2100, 51.42328
433.6921, 51.58794
434.1742, 51.44640
434.6563, 50.97983
435.1384, 50.46276
435.6205, 50.08390
436.1027, 49.85046
436.5848, 49.83516
437.0669, 50.29711
437.5490, 50.64441
438.0311, 50.61099
438.5132, 50.36586
438.9954, 50.16010
439.4775, 50.08889
439.9596, 50.10734
440.4417, 50.14742
440.9238, 50.25496
441.4059, 50.27053
441.8881, 50.07124
442.3702, 49.89936
442.8523, 49.94416
443.3344, 50.15173
443.8165, 50.31454
444.2986, 50.26295
444.7808, 50.04679
445.2629, 50.00052
445.7450, 50.40375
446.2271, 50.54140
446.7092, 50.10016
447.1913, 49.45950
447.6735, 49.00100
448.1556, 48.82278
448.6377, 48.70045
449.1198, 48.27659
449.6019, 47.51491
450.0840, 47.14424
450.5662, 47.54224
451.0483, 47.95671
451.5304, 47.83838
452.0125, 47.41465
452.4946, 47.26760
452.9767, 47.84198
453.4589, 48.65792
453.9410, 48.92003
454.4231, 48.59266
454.9052, 48.18010
455.3873, 47.76904
455.8694, 47.46027
456.3516, 47.42043
456.8337, 47.70507
457.3158, 47.90736
457.7979, 47.71498
458.2800, 47.34938
458.7621, 47.22917
459.2443, 47.42835
459.7264, 47.65228
460.2085, 47.65969
460.6906, 47.46256
461.1727, 47.29224
461.6548, 47.21056
462.1370, 47.09156
462.6191, 46.74435
463.1012, 46.33601
463.5833, 46.27688
464.0654, 46.73512
464.5475, 47.32508
465.0297, 47.35562
465.5118, 46.37323
465.9939, 45.98600
466.4760, 46.75331
466.9581, 47.58426
467.4402, 47.82133
467.9224, 47.53762
468.4045, 47.11903
468.8866, 46.80544
469.3687, 46.59882
469.8508, 46.50965
470.3329, 46.64410
470.8151, 46.72799
471.2972, 46.68761
471.7793, 46.61289
472.2614, 46.60148
472.7435, 46.65885
473.2256, 46.68198
473.7078, 46.52886
474.1899, 46.20525
474.6720, 45.98456
475.1541, 45.89596
475.6362, 45.87107
476.1183, 45.91396
476.6005, 45.98177
477.0826, 46.00461
477.5647, 45.94930
478.0468, 45.86776
478.5289, 45.77866
479.0110, 45.69323
479.4932, 45.76374
479.9753, 46.16037
480.4574, 46.51814
480.9395, 46.26331
481.4216, 45.46928
481.9037, 44.96149
482.3859, 45.20543
482.8680, 45.65712
483.3501, 45.78885
483.8322, 45.62075
484.3143, 45.44848
484.7964, 45.43402
485.2786, 45.52494
485.7607, 45.56347
486.2428, 45.53987
486.7249, 45.48797
487.2070, 45.40266
487.6891, 45.29593
488.1713, 45.16451
488.6534, 45.01660
489.1355, 44.89309
489.6176, 44.84315
490.0997, 44.86218
490.5818, 44.77717
491.0640, 44.28643
491.5461, 44.04548
492.0282, 44.39176
492.5103, 44.93619
492.9924, 45.21481
493.4745, 45.09787
493.9567, 44.86257
494.4388, 44.91914
494.9209, 45.31753
495.4030, 45.42836
495.8851, 45.03309
496.3672, 44.57617
496.8494, 44.19328
497.3315, 43.92297
497.8136, 43.85717
498.2957, 44.11555
498.7778, 44.44932
499.2599, 44.50734
499.7421, 44.30708
500.2242, 44.19639
500.7063, 44.32149
501.1884, 44.50867
501.6705, 44.52123
502.1526, 44.36949
502.6348, 44.26358
503.1169, 44.30451
503.5990, 44.38049
504.0811, 44.41532
504.5632, 44.39450
505.0453, 44.25701
505.5274, 43.93615
506.0096, 43.53134
506.4917, 43.34519
506.9738, 43.55037
507.4559, 43.68993
507.9380, 43.71045
508.4201, 43.67389
508.9023, 43.60992
509.3844, 43.53568
509.8665, 43.49147
510.3486, 43.52721
510.8307, 43.61785
511.3128, 43.51313
511.7950, 42.80492
512.2771, 42.52714
512.7592, 43.40332
513.2413, 44.42071
513.7234, 44.47789
514.2056, 43.43172
514.6877, 42.28077
515.1698, 42.11891
515.6519, 42.80728
516.1340, 43.05117
516.6161, 42.59485
517.0983, 42.15490
517.5804, 42.26576
518.0625, 42.61476
518.5446, 42.71418
519.0267, 42.33070
519.5089, 42.02523
519.9910, 42.41455
520.4731, 43.20089
520.9552, 43.49707
521.4373, 43.04832
521.9194, 42.44448
522.4016, 42.23516
522.8837, 42.44951
523.3658, 42.78531
523.8479, 43.51482
524.3300, 44.07756
524.8121, 44.16757
525.2943, 43.92657
525.7764, 43.51502
526.2585, 43.00592
526.7406, 42.62783
527.2227, 42.81364
527.7048, 43.87147
528.1870, 44.38268
528.6691, 43.81215
529.1512, 43.27412
529.6333, 43.24706
530.1154, 43.54884
530.5975, 43.82290
531.0797, 43.90710
531.5618, 43.85450
532.0439, 43.66369
532.5260, 43.27578
533.0081, 43.26770
533.4902, 44.16895
533.9724, 44.97199
534.4545, 44.74052
534.9366, 43.76717
535.4187, 43.16826
535.9008, 43.60958
536.3829, 44.43577
536.8651, 45.07922
537.3472, 45.51338
537.8293, 45.42096
538.3114, 44.51466
538.7935, 43.39991
539.2756, 43.10010
539.7578, 43.78896
540.2399, 44.33862
540.7220, 44.66572
541.2041, 44.80729
541.6862, 44.73864
542.1683, 44.50402
542.6505, 44.15921
543.1326, 43.71914
543.6147, 43.30631
544.0968, 43.24986
544.5789, 43.81698
545.0610, 44.19703
545.5432, 44.28761
546.0253, 44.28233
546.5074, 44.28522
546.9895, 44.28474
547.4716, 44.20647
547.9537, 43.97881
548.4359, 43.69158
548.9180, 43.55479
549.4001, 43.59085
549.8822, 43.62436
550.3643, 43.65081
550.8464, 43.61080
551.3286, 43.33222
551.8107, 42.85720
552.2928, 42.69721
552.7749, 43.47233
553.2570, 44.37116
553.7391, 44.40803
554.2213, 43.68928
554.7034, 42.93612
555.1855, 42.42186
555.6676, 42.19168
556.1497, 42.40000
556.6318, 43.48863
557.1140, 43.95896
557.5961, 43.28215
558.0782, 42.42073
558.5603, 41.91619
559.0424, 41.76346
559.5245, 41.81486
560.0067, 42.00169
560.4888, 42.23510
560.9709, 42.27060
561.4530, 42.00953
561.9351, 41.82945
562.4172, 41.91181
562.8994, 41.96646
563.3815, 41.88205
563.8636, 41.64384
564.3457, 41.22090
564.8278, 40.44314
565.3099, 39.64458
565.7921, 39.39613
566.2742, 39.67426
566.7563, 39.94749
567.2384, 40.04160
567.7205, 40.08095
568.2026, 40.27989
568.6848, 40.64016
569.1669, 40.80343
569.6490, 40.59722
570.1311, 40.28517
570.6132, 39.97088
571.0953, 39.69661
571.5775, 39.55575
572.0596, 39.59219
572.5417, 39.69833
573.0238, 39.69834
573.5059, 39.60687
573.9880, 39.35739
574.4702, 38.64384
574.9523, 38.09849
575.4344, 38.11583
575.9165, 38.44652
576.3986, 38.62875
576.8807, 38.45084
577.3629, 38.15992
577.8450, 38.17124
578.3271, 38.47873
578.8092, 38.50608
579.2913, 38.02000
579.7734, 37.50730
580.2556, 37.34252
580.7377, 37.44108
581.2198, 37.62974
581.7019, 37.99072
582.1840, 38.28640
582.6661, 38.38828
583.1483, 38.31653
583.6304, 38.00043
584.1125, 37.42761
584.5946, 37.02261
585.0767, 37.30607
585.5588, 38.31979
586.0409, 38.79596
586.5230, 38.34872
587.0051, 37.87179
587.4872, 37.43512
587.9694, 37.13155
588.4515, 37.09902
588.9336, 37.33966
589.4157, 37.65630
589.8978, 37.86129
590.3799, 37.96299
590.8621, 38.03973
591.3442, 38.08454
591.8263, 38.12296
592.3084, 38.23019
592.7905, 38.30145
593.2726, 38.19757
593.7548, 37.88915
594.2369, 37.54148
594.7190, 37.18966
595.2011, 36.87226
595.6832, 36.62922
596.1653, 36.46937
596.6475, 36.42759
597.1296, 36.53306
597.6117, 36.76115
598.0938, 37.04828
598.5759, 37.57695
599.0580, 37.86203
599.5402, 37.75331
600.0223, 37.53038
600.5044, 37.30326
600.9865, 37.12129
601.4686, 37.06202
601.9507, 37.19100
602.4329, 37.39152
602.9150, 37.35050
603.3971, 36.99129
603.8792, 36.90646
604.3613, 37.40718
604.8434, 37.95573
605.3256, 38.09853
605.8077, 37.95972
606.2898, 37.95313
606.7719, 38.35777
607.2540, 38.74679
607.7361, 38.60584
608.2183, 38.19255
608.7004, 38.30111
609.1825, 39.16259
609.6646, 39.99068
610.1467, 39.85548
610.6288, 38.69259
611.1110, 38.10149
611.5931, 38.61297
612.0752, 38.99394
612.5573, 38.83202
613.0394, 38.47900
613.5215, 38.35624
614.0037, 38.52248
614.4858, 38.67912
614.9679, 38.48265
615.4500, 38.02853
615.9321, 37.87893
616.4142, 38.10284
616.8964, 38.40000
617.3785, 38.69708
617.8606, 38.98525
618.3427, 39.25438
618.8248, 39.50460
619.3069, 39.74592
619.7891, 40.10796
620.2712, 40.37335
620.7533, 40.17384
621.2354, 39.64339
621.7175, 39.38612
622.1996, 39.70907
622.6818, 40.26083
623.1639, 40.35722
623.6460, 39.74100
624.1281, 39.41636
624.6102, 39.62181
625.0923, 39.83482
625.5745, 39.75895
626.0566, 39.58045
626.5387, 39.64632
627.0208, 40.09024
627.5029, 40.61739
627.9850, 40.90392
628.4672, 40.96975
628.9493, 40.92479
629.4314, 40.73018
629.9135, 40.59252
630.3956, 40.64218
630.8777, 40.84901
631.3599, 41.11121
631.8420, 41.47343
632.3241, 41.78959
632.8062, 42.05247
633.2883, 42.22110
633.7704, 42.23263
634.2526, 42.10207
634.7347, 41.87726
635.2168, 41.56787
635.6989, 41.26587
636.1810, 41.26899
636.6631, 41.74788
637.1453, 42.09558
637.6274, 42.27240
638.1095, 42.29461
638.5916, 42.02655
639.0737, 41.61663
639.5558, 41.40212
640.0380, 41.54856
640.5201, 41.84979
641.0022, 42.10831
641.4843, 42.34792
641.9664, 42.71662
642.4485, 43.27434
642.9307, 43.66247
643.4128, 43.48828
643.8949, 42.84734
644.3770, 42.61695
644.8591, 43.20746
645.3412, 43.60158
645.8234, 43.38486
646.3055, 43.08356
646.7876, 43.24977
647.2697, 43.82800
647.7518, 44.34053
648.2339, 44.44182
648.7161, 44.25816
649.1982, 44.10583
649.6803, 43.98891
650.1624, 43.87841
650.6445, 43.75264
651.1266, 43.65160
651.6088, 43.55451
652.0909, 43.49480
652.5730, 43.63207
653.0551, 44.36185
653.5372, 44.89750
654.0193, 44.53704
654.5015, 43.73658
654.9836, 43.26925
655.4657, 43.30129
655.9478, 43.56342
656.4299, 43.79362
656.9120, 44.02462
657.3942, 44.62186
657.8763, 46.06052
658.3584, 47.05713
658.8405, 46.93714
659.3226, 46.74417
659.8047, 47.27361
660.2869, 48.48106
660.7690, 49.81090
661.2511, 50.90228
661.7332, 52.02962
662.2153, 53.69712
662.6974, 55.78817
663.1796, 57.70436
663.6617, 59.30519
664.1438, 60.59392
664.6259, 61.51970
665.1080, 62.07495
665.5901, 62.71960
666.0723, 63.56811
666.5544, 64.35191
667.0365, 64.95280
667.5186, 65.49352
668.0007, 66.05230
668.4828, 66.66968
668.9650, 67.41640
669.4471, 68.36485
669.9292, 69.46667
670.4113, 70.57812
670.8934, 71.69535
671.3755, 72.86650
671.8577, 74.11916
672.3398, 75.39709
672.8219, 76.55320
673.3040, 77.64400
673.7861, 79.00037
674.2682, 80.69060
674.7504, 82.63602
675.2325, 84.76049
675.7146, 87.12678
676.1967, 90.03999
676.6788, 93.42238
677.1609, 96.54417
677.6431, 98.73678
678.1252, 100.0887
678.6073, 101.2267
679.0894, 102.5893
679.5715, 102.6277
680.0536, 100.4094
680.5358, 97.22728
681.0179, 93.74684
681.5000, 90.02830
681.9821, 86.04341
682.4642, 81.35446
682.9464, 76.90837
683.4285, 73.54568
683.9106, 70.97185
684.3927, 68.45161
684.8748, 65.83370
685.3569, 63.44652
685.8391, 61.59657
686.3212, 60.22701
686.8033, 58.87248
687.2854, 57.33000
687.7675, 56.14272
688.2496, 55.57901
688.7318, 55.17043
689.2139, 54.60136
689.6960, 53.90406
690.1781, 53.27638
690.6602, 52.80224
691.1423, 52.45701
691.6245, 52.26757
692.1066, 52.19317
692.5887, 52.07912
693.0708, 51.89647
693.5529, 51.66713
694.0350, 51.41593
694.5172, 51.13185
694.9993, 50.73235
695.4814, 49.98107
695.9635, 49.44913
696.4456, 49.34158
696.9277, 49.31847
697.4099, 49.16390
697.8920, 48.88068
698.3741, 48.56114
698.8562, 48.25599
699.3383, 47.91098
699.8204, 47.43453
700.3026, 46.83984
700.7847, 46.22361
701.2668, 45.59771
701.7489, 44.95520
702.2310, 44.26836
702.7131, 43.57094
703.1953, 42.96824
703.6774, 42.38207
704.1595, 42.02280
704.6416, 42.17525
705.1237, 42.34033
705.6058, 42.03270
706.0880, 41.45412
706.5701, 41.11287
707.0522, 41.25002
707.5343, 41.67907
708.0164, 42.16517
708.4985, 42.70834
708.9807, 43.26034
709.4628, 43.73512
709.9449, 44.50972
710.4270, 45.85524
710.9091, 47.60481
711.3912, 49.44032
711.8734, 51.44330
712.3555, 53.25184
712.8376, 55.04219
713.3197, 56.39714
713.8018, 56.77366
714.2839, 56.55365
714.7661, 56.40472
715.2482, 56.59192
715.7303, 57.11994
716.2124, 57.97194
716.6945, 59.15641
717.1766, 60.89874
717.6588, 63.39040
718.1409, 65.78197
718.6230, 67.59953
719.1051, 69.25385
719.5872, 71.39637
720.0693, 74.06133
720.5515, 76.29930
721.0336, 77.48032
721.5157, 78.63233
721.9978, 80.37961
722.4799, 82.49596
722.9620, 84.55278
723.4442, 86.46777
723.9263, 88.48794
724.4084, 90.83952
724.8905, 93.52833
725.3726, 96.74925
725.8547, 100.7332
726.3369, 104.2843
726.8190, 107.3426
727.3011, 109.5809
727.7832, 110.6587
728.2653, 110.6795
728.7474, 109.9804
729.2296, 108.0946
729.7117, 106.1146
730.1938, 104.0023
730.6759, 102.3637
731.1580, 102.0708
731.6401, 103.0901
732.1223, 104.6890
732.6044, 106.3978
733.0865, 108.2215
733.5686, 110.2886
734.0507, 112.7108
734.5328, 114.6411
735.0150, 116.1922
735.4971, 116.8885
735.9792, 116.1944
736.4613, 114.4502
736.9434, 112.1756
737.4255, 109.1389
737.9077, 106.2814
738.3898, 103.6943
738.8719, 101.5869
739.3540, 100.1618
739.8361, 99.36253
740.3182, 99.01713
740.8004, 99.04616
741.2825, 99.38454
741.7646, 99.87885
742.2467, 100.5297
742.7288, 101.7534
743.2109, 103.6099
743.6931, 105.8788
744.1752, 108.5270
744.6573, 111.5129
745.1394, 114.7681
745.6215, 118.2980
746.1036, 121.9596
746.5858, 126.2050
747.0679, 130.0471
747.5500, 133.3501
748.0321, 135.6876
748.5142, 136.5207
748.9963, 135.7286
749.4785, 133.4702
749.9606, 129.6729
750.4427, 124.6997
750.9248, 119.6782
751.4069, 114.5719
751.8890, 109.8002
752.3712, 105.3844
752.8533, 101.4514
753.3354, 98.14335
753.8175, 95.43965
754.2996, 93.11681
754.7817, 90.82951
755.2639, 89.38995
755.7460, 89.43606
756.2281, 90.05947
756.7102, 90.41591
757.1923, 90.63602
757.6744, 91.36008
758.1566, 92.92007
758.6387, 95.00785
759.1208, 97.42411
759.6029, 100.0719
760.0850, 102.1199
760.5671, 103.5538
761.0493, 104.2314
761.5314, 104.3385
762.0135, 103.3752
762.4956, 100.2361
762.9777, 94.37534
763.4598, 88.18633
763.9420, 81.28731
764.4241, 74.57030
764.9062, 68.08327
765.3883, 62.19231
765.8704, 57.38441
766.3525, 53.71238
766.8347, 50.71731
767.3168, 48.17010
767.7989, 46.00861
768.2810, 44.08226
768.7631, 42.40137
769.2452, 41.10346
769.7274, 40.23504
770.2095, 39.62706
770.6916, 39.16112
771.1737, 38.81530
771.6558, 38.42141
772.1379, 37.89454
772.6201, 37.44386
773.1022, 37.10686
773.5843, 36.82414
774.0664, 36.55273
774.5485, 36.30664
775.0306, 36.13808
775.5128, 36.08171
775.9949, 36.02108
776.4770, 35.83996
776.9591, 35.60027
777.4412, 35.40791
777.9233, 35.26705
778.4055, 35.14016
778.8876, 35.00764
779.3697, 34.89996
779.8518, 34.88586
780.3339, 34.99311
780.8160, 34.91800
781.2982, 34.44557
781.7803, 34.14402
782.2624, 34.30472
782.7445, 34.60972
783.2266, 34.82797
783.7087, 34.93925
784.1909, 34.93855
784.6730, 34.70952
785.1551, 34.49003
785.6372, 34.56984
786.1193, 34.69422
786.6014, 34.34803
787.0836, 33.57409
787.5657, 33.00082
788.0478, 33.08846
788.5299, 33.54008
789.0120, 33.65581
789.4941, 33.39998
789.9763, 33.23002
790.4584, 33.17846
790.9405, 33.24136
791.4226, 33.50531
791.9047, 33.83975
792.3868, 33.97251
792.8690, 33.87131
793.3511, 33.71735
793.8332, 33.45512
794.3153, 33.23361
794.7974, 33.06968
795.2795, 33.02470
795.7617, 33.33842
796.2438, 33.96415
796.7259, 34.28229
797.2080, 33.55185
797.6901, 32.38359
798.1722, 32.10369
798.6544, 32.61421
799.1365, 33.06713
799.6186, 33.26661
800.1007, 33.41561
800.5828, 33.70257
801.0649, 34.07345
801.5471, 34.26081
802.0292, 34.21319
802.5113, 34.06184
802.9934, 33.70692
803.4755, 33.36485
803.9576, 33.07672
804.4398, 32.89499
804.9219, 32.96287
805.4040, 33.33937
805.8861, 33.60974
806.3682, 33.40406
806.8503, 33.04369
807.3325, 32.92052
807.8146, 32.96889
808.2967, 32.92779
808.7788, 32.72301
809.2609, 32.53442
809.7430, 32.55114
810.2252, 32.74757
810.7073, 32.99220
811.1894, 33.33032
811.6715, 33.52468
812.1536, 33.46653
812.6357, 33.34259
813.1179, 33.29804
813.6000, 33.30342
814.0821, 33.24772
814.5642, 32.96288
815.0463, 32.95081
815.5284, 33.75697
816.0106, 34.47915
816.4927, 34.29149
816.9748, 33.57579
817.4569, 33.13221
817.9390, 33.22253
818.4211, 33.51576
818.9033, 33.84007
819.3854, 34.08511
819.8675, 33.84454
820.3496, 33.18270
820.8317, 32.84832
821.3138, 33.10678
821.7960, 33.42421
822.2781, 33.22622
822.7602, 32.60071
823.2423, 32.32973
823.7244, 32.60941
824.2065, 32.88654
824.6887, 33.09895
825.1708, 33.31416
825.6529, 33.70840
826.1350, 34.09345
826.6171, 34.01766
827.0992, 33.25316
827.5814, 32.72482
828.0635, 33.16018
828.5456, 33.80094
829.0277, 33.86821
829.5098, 33.57471
829.9919, 33.55182
830.4741, 33.95688
830.9562, 34.29547
831.4383, 34.00118
831.9204, 33.32252
832.4025, 33.20833
832.8846, 33.70219
833.3668, 33.94809
833.8489, 33.69706
834.3310, 33.38750
834.8131, 33.35056
835.2952, 33.53391
835.7773, 33.73525
836.2595, 34.08116
836.7416, 34.21553
837.2237, 33.91012
837.7058, 33.63583
838.1879, 33.65442
838.6700, 33.82283
839.1522, 33.93645
839.6343, 33.95253
840.1164, 33.93142
840.5985, 33.88176
841.0806, 33.83585
841.5627, 33.84183
842.0449, 33.87510
842.5270, 33.92511
843.0091, 33.96577
843.4912, 33.78978
843.9733, 33.16964
844.4554, 32.44579
844.9376, 32.68516
845.4197, 34.02989
845.9018, 34.75950
846.3839, 34.59262
846.8660, 34.15163
847.3481, 33.58668
847.8303, 33.07874
848.3124, 33.03221
848.7945, 33.57883
849.2766, 33.86946
849.7587, 33.63675
850.2408, 33.43073
850.7230, 33.51095
851.2051, 33.65400
851.6872, 33.56177
852.1693, 33.28757
852.6514, 33.19612
853.1335, 33.53600
853.6157, 33.95858
854.0978, 34.13206
854.5799, 34.15821
855.0620, 34.18589
855.5441, 34.24688
856.0262, 34.43092
856.5084, 34.78703
856.9905, 35.10664
857.4726, 35.03335
857.9547, 34.57911
858.4368, 34.22833
858.9189, 33.96700
859.4011, 33.87458
859.8832, 34.03085
860.3653, 34.28429
860.8474, 34.52868
861.3295, 34.75107
861.8116, 34.85500
862.2938, 34.64852
862.7759, 34.60478
863.2580, 34.86084
863.7401, 35.21293
864.2222, 35.64240
864.7043, 36.04290
865.1865, 36.19850
865.6686, 36.05294
866.1507, 35.96935
866.6328, 36.40265
867.1149, 36.86409
867.5970, 36.61208
868.0792, 35.94035
868.5613, 35.62382
869.0434, 35.81257
869.5255, 36.13256
870.0076, 36.32284
870.4897, 36.33156
870.9719, 35.95662
871.4540, 35.17794
871.9361, 34.54338
872.4182, 34.17762
872.9003, 33.66520
873.3824, 32.67178
873.8646, 31.54508
874.3467, 30.90061
874.8288, 30.84361
875.3109, 30.72828
875.7930, 30.54175
876.2751, 30.31862
876.7573, 29.96777
877.2394, 29.66332
877.7215, 29.59952
878.2036, 29.71392
878.6857, 29.76853
879.1678, 29.67836
879.6500, 29.53110
880.1321, 29.25036
880.6142, 29.03622
881.0963, 29.30727
881.5784, 29.81880
882.0605, 29.82525
882.5427, 29.11199
883.0248, 28.33623
883.5069, 28.17207
883.9890, 28.45447
884.4711, 28.75954
884.9532, 29.08148
885.4354, 29.30157
885.9175, 29.38942
886.3996, 29.43483
886.8817, 29.51603
887.3638, 29.58201
887.8459, 29.46039
888.3281, 29.00521
888.8102, 28.82055
889.2923, 29.16401
889.7744, 29.41371
890.2565, 29.24121
890.7386, 28.95021
891.2208, 28.87205
891.7029, 28.99389
892.1850, 29.00978
892.6671, 28.68188
893.1492, 28.46597
893.6313, 28.64429
894.1135, 28.90987
894.5956, 29.06458
895.0777, 29.05347
895.5598, 28.73010
896.0419, 28.03181
896.5240, 27.51841
897.0062, 27.91631
897.4883, 28.69058
897.9704, 29.01337
898.4525, 28.93160
898.9346, 28.59927
899.4167, 28.08420
899.8989, 27.67276
900.3810, 27.60920
900.8631, 27.79260
901.3452, 28.00449
901.8273, 28.27007
902.3094, 28.18300
902.7916, 27.57925
903.2737, 27.09186
903.7558, 27.05031
904.2379, 27.25165
904.7200, 27.41888
905.2021, 27.55954
905.6843, 27.59079
906.1664, 27.29159
906.6485, 27.18939
907.1306, 27.50814
907.6127, 27.91197
908.0948, 28.24125
908.5770, 28.46026
909.0591, 28.50778
909.5412, 28.33799
910.0233, 28.13776
910.5054, 27.95792
910.9875, 27.80941
911.4697, 27.69199
911.9518, 27.61606
912.4339, 27.59022
912.9160, 27.62024
913.3981, 27.73209
913.8802, 27.97660
914.3624, 28.23498
914.8445, 28.34293
915.3265, 28.32785
915.8087, 28.27011
916.2908, 28.17363
916.7729, 27.96713
917.2550, 27.60956
917.7371, 27.24832
918.2192, 27.07938
918.7014, 27.09549
919.1835, 27.25435
919.6656, 27.61449
920.1477, 27.79187
920.6298, 27.63913
921.1119, 27.44007
921.5941, 27.38046
922.0762, 27.44762
922.5583, 27.63424
923.0404, 28.15502
923.5225, 28.24959
924.0046, 27.40171
924.4868, 26.78987
924.9689, 27.02363
925.4510, 27.47509
925.9331, 27.45372
926.4152, 27.01850
926.8973, 26.79542
927.3795, 27.03930
927.8616, 27.37143
928.3437, 27.71978
928.8258, 28.00675
929.3079, 28.25068
929.7900, 28.35261
930.2722, 28.02325
930.7543, 27.23106
931.2364, 26.56758
931.7185, 26.61654
932.2006, 26.93074
932.6827, 26.85952
933.1649, 26.57606
933.6470, 26.50972
934.1291, 26.70627
934.6112, 26.99179
935.0933, 27.27431
935.5754, 27.49640
936.0576, 27.54255
936.5397, 27.43085
937.0218, 27.36920
937.5039, 27.36897
937.9860, 27.18149
938.4681, 26.66215
938.9503, 26.28373
939.4324, 26.54349
939.9145, 27.22583
940.3966, 27.44803
940.8787, 27.01569
941.3608, 26.64269
941.8430, 26.27314
942.3251, 26.06843
942.8072, 26.18622
943.2893, 26.43572
943.7714, 26.60109
944.2535, 26.68537
944.7357, 26.75354
945.2178, 26.92771
945.6999, 26.91994
946.1820, 26.43579
946.6641, 25.98507
947.1462, 25.93836
947.6284, 26.15213
948.1105, 26.38284
948.5926, 26.57519
949.0747, 26.66651
949.5568, 26.46245
950.0389, 26.32205
950.5211, 26.68136
951.0032, 27.16026
951.4853, 27.14365
951.9674, 26.73098
952.4495, 26.55944
952.9316, 26.94412
953.4138, 27.31885
953.8959, 26.92264
954.3780, 26.17834
954.8601, 25.85037
955.3422, 25.90747
955.8243, 26.22782
956.3065, 26.74761
956.7886, 27.18713
957.2707, 27.33770
957.7528, 27.27226
958.2349, 27.08516
958.7170, 26.79135
959.1992, 26.71377
959.6813, 26.88970
960.1634, 27.02659
960.6455, 27.02193
961.1276, 26.91333
961.6097, 26.71553
962.0919, 26.45696
962.5740, 26.33697
963.0561, 26.36449
963.5382, 26.51375
964.0203, 26.85718
964.5024, 27.19900
964.9846, 27.53297
965.4667, 27.74534
965.9488, 27.58736
966.4309, 27.01807
966.9130, 26.72686
967.3951, 26.83315
967.8773, 27.05095
968.3594, 27.59691
968.8415, 27.98357
969.3236, 27.69596
969.8057, 27.11939
970.2878, 27.00797
970.7700, 27.51272
971.2521, 27.91007
971.7342, 27.97914
972.2163, 27.86865
972.6984, 27.44329
973.1805, 27.03636
973.6627, 27.05350
974.1448, 27.38986
974.6269, 27.66676
975.1090, 27.74771
975.5911, 27.74358
976.0732, 27.74669
976.5554, 27.69459
977.0375, 27.43041
977.5196, 27.09500
978.0017, 26.99669
978.4838, 27.13297
978.9659, 27.19434
979.4481, 26.97950
979.9302, 26.76997
980.4123, 27.04611
980.8944, 27.56169
981.3765, 27.63735
981.8586, 27.36207
982.3408, 27.30323
982.8229, 27.60377
983.3050, 27.96251
983.7871, 28.14870
984.2692, 28.17843
984.7513, 28.01775
985.2335, 27.69117
985.7156, 27.59378
986.1977, 27.76010
986.6798, 27.89391
987.1619, 27.88567
987.6440, 27.81364
988.1262, 27.74967
988.6083, 27.69936
989.0904, 27.68422
989.5725, 27.69514
990.0546, 27.82736
990.5367, 28.23766
991.0189, 28.32892
991.5010, 27.60435
991.9831, 26.77400
992.4652, 26.84461
992.9473, 27.76426
993.4294, 28.12406
993.9116, 27.71144
994.3937, 27.10345
994.8758, 25.56115
995.3579, 24.76931
995.8400, 26.33804
996.3221, 28.66827
996.8043, 29.47240
997.2864, 28.66210
997.7685, 28.11045
998.2506, 28.11772
998.7327, 28.19643
999.2148, 28.33271
999.6970, 28.42649
1000.179, 28.41556
1000.661, 28.31887
1001.143, 28.12381
1001.625, 27.82859
1002.108, 27.69110
1002.590, 27.92326
1003.072, 28.17006
1003.554, 28.31125
1004.036, 28.35939
1004.518, 28.22091
1005.000, 28.03028
1005.482, 28.10611
1005.964, 28.53373
1006.447, 28.88825
1006.929, 28.87744
1007.411, 28.74611
1007.893, 28.58874
1008.375, 28.48970
1008.857, 28.60013
1009.339, 28.86652
1009.821, 29.11765
1010.304, 29.28832
1010.786, 29.38229
1011.268, 29.40556
1011.750, 29.35353
1012.232, 29.19233
1012.714, 28.96206
1013.196, 28.71811
1013.678, 28.48508
1014.160, 28.27668
1014.643, 28.09817
1015.125, 28.06928
1015.607, 28.48524
1016.089, 29.07676
1016.571, 29.14601
1017.053, 28.86727
1017.535, 28.90248
1018.017, 29.32399
1018.500, 29.69933
1018.982, 29.78363
1019.464, 29.70969
1019.946, 29.68403
1020.428, 29.66364
1020.910, 29.37401
1021.392, 28.86167
1021.874, 28.59526
1022.356, 28.66782
1022.839, 29.04329
1023.321, 29.74634
1023.803, 30.46053
1024.285, 30.57787
1024.767, 30.15442
1025.249, 29.94813
1025.731, 29.97298
1026.213, 29.97703
1026.696, 29.89231
1027.178, 29.89045
1027.660, 30.10760
1028.142, 30.42371
1028.624, 30.58846
1029.106, 30.59288
1029.588, 30.67561
1030.070, 30.84394
1030.552, 31.07174
1031.035, 31.38273
1031.517, 31.66309
1031.999, 31.83669
1032.481, 31.92194
1032.963, 31.95046
1033.445, 31.91282
1033.927, 31.86804
1034.409, 31.68876
1034.891, 31.88019
1035.374, 32.84193
1035.856, 33.66175
1036.338, 33.57514
1036.820, 33.01342
1037.302, 32.96319
1037.784, 33.53807
1038.266, 33.98302
1038.748, 34.19657
1039.231, 34.46376
1039.713, 34.82799
1040.195, 35.27259
1040.677, 35.86404
1041.159, 36.49548
1041.641, 36.90622
1042.123, 37.00060
1042.605, 37.32619
1043.088, 37.93941
1043.570, 38.70230
1044.052, 39.77399
1044.534, 40.80652
1045.016, 41.47038
1045.498, 41.98573
1045.980, 42.82681
1046.462, 44.08482
1046.944, 45.18402
1047.427, 45.97062
1047.909, 46.75531
1048.391, 47.54763
1048.873, 48.41265
1049.355, 49.30330
1049.837, 50.32451
1050.319, 51.68544
1050.801, 53.41948
1051.283, 55.29242
1051.766, 57.60156
1052.248, 59.58329
1052.730, 60.74861
1053.212, 61.82555
1053.694, 63.11462
1054.176, 64.75005
1054.658, 66.93395
1055.140, 69.69913
1055.623, 72.73672
1056.105, 76.05612
1056.587, 79.54822
1057.069, 83.26232
1057.551, 87.05734
1058.033, 90.91813
1058.515, 94.75802
1058.997, 98.27661
1059.479, 101.4742
1059.962, 105.2137
1060.444, 109.9119
1060.926, 114.9627
1061.408, 120.1948
1061.890, 125.6346
1062.372, 130.9780
1062.854, 136.6774
1063.336, 143.1990
1063.818, 150.6895
1064.301, 159.4701
1064.783, 169.4591
1065.265, 181.0376
1065.747, 194.4620
1066.229, 209.5540
1066.711, 226.5324
1067.193, 244.9311
1067.675, 264.8317
1068.158, 285.7825
1068.640, 305.4198
1069.122, 322.9495
1069.604, 338.8624
1070.086, 353.1948
1070.568, 366.1678
1071.050, 376.5551
1071.532, 386.4125
1072.015, 398.0196
1072.497, 411.6232
1072.979, 426.6354
1073.461, 443.9608
1073.943, 459.3297
1074.425, 470.3373
1074.907, 479.2836
1075.389, 487.1220
1075.871, 493.9984
1076.354, 499.4341
1076.836, 503.9787
1077.318, 509.1541
1077.800, 515.2791
1078.282, 522.7735
1078.764, 532.4721
1079.246, 542.8383
1079.728, 556.0188
1080.210, 567.0421
1080.693, 573.6389
1081.175, 573.0908
1081.657, 560.0031
1082.139, 532.5682
1082.621, 497.1663
1083.103, 451.8193
1083.585, 405.0729
1084.067, 359.2309
1084.549, 315.9000
1085.032, 276.2411
1085.514, 240.4797
1085.996, 208.7587
1086.478, 181.0335
1086.960, 157.2788
1087.442, 138.1076
1087.924, 122.2113
1088.406, 109.9173
1088.889, 99.85658
1089.371, 91.16597
1089.853, 83.76974
1090.335, 77.86715
1090.817, 73.40867
1091.299, 69.55599
1091.781, 66.11022
1092.263, 63.04993
1092.745, 60.41241
1093.228, 58.12459
1093.710, 56.18993
1094.192, 54.55285
1094.674, 53.28428
1095.156, 52.29878
1095.638, 51.18274
1096.120, 49.67865
1096.602, 48.39998
1097.084, 47.68806
1097.567, 47.12861
1098.049, 46.58278
1098.531, 46.00220
1099.013, 45.31032
1099.495, 44.55091
1099.977, 43.87337
1100.459, 43.33464
1100.941, 42.77733
1101.424, 41.96015
1101.906, 41.36568
1102.388, 41.50359
1102.870, 41.66444
1103.352, 41.09856
1103.834, 40.12984
1104.316, 39.55118
1104.798, 39.50121
1105.281, 39.44460
1105.763, 39.40593
1106.245, 39.15656
1106.727, 38.26734
1107.209, 37.53205
1107.691, 37.70148
1108.173, 38.22516
1108.655, 38.18708
1109.137, 37.54592
1109.620, 37.12679
1110.102, 37.19765
1110.584, 37.24522
1111.066, 37.20762
1111.548, 37.13298
1112.030, 37.00973
1112.512, 36.88511
1112.994, 36.76954
1113.476, 36.68716
1113.959, 36.79259
1114.441, 37.41992
1114.923, 37.53802
1115.405, 36.48812
1115.887, 35.79065
1116.369, 36.16133
1116.851, 36.70130
1117.333, 36.62872
1117.816, 36.21795
1118.298, 36.21476
1118.780, 36.72819
1119.262, 37.12032
1119.744, 37.37808
1120.226, 37.54609
1120.708, 37.69965
1121.190, 37.63870
1121.672, 37.09472
1122.155, 36.42520
1122.637, 36.20872
1123.119, 36.43806
1123.601, 36.68290
1124.083, 36.91490
1124.565, 37.28959
1125.047, 37.99500
1125.529, 38.36386
1126.011, 38.01927
1126.494, 37.42830
1126.976, 37.05559
1127.458, 36.88673
1127.940, 36.92088
1128.422, 37.23538
1128.904, 37.16194
1129.386, 36.55358
1129.868, 36.36918
1130.351, 36.96324
1130.833, 37.63111
1131.315, 37.84014
1131.797, 37.80637
1132.279, 37.97797
1132.761, 38.33458
1133.243, 38.53275
1133.725, 38.57016
1134.208, 38.68347
1134.690, 38.91453
1135.172, 39.20147
1135.654, 39.52244
1136.136, 39.77228
1136.618, 39.81966
1137.100, 39.69891
1137.582, 39.43937
1138.064, 39.09612
1138.547, 38.97497
1139.029, 39.09269
1139.511, 39.47827
1139.993, 40.09698
1140.475, 40.29792
1140.957, 39.45569
1141.439, 38.42002
1141.921, 38.68325
1142.403, 39.72797
1142.886, 40.49300
1143.368, 40.91497
1143.850, 40.77950
1144.332, 40.20316
1144.814, 39.87570
1145.296, 40.13700
1145.778, 40.60069
1146.260, 40.92958
1146.743, 41.20324
1147.225, 41.51726
1147.707, 41.85213
1148.189, 42.21433
1148.671, 42.56223
1149.153, 42.71934
1149.635, 42.69347
1150.117, 42.96604
1150.599, 44.10022
1151.082, 45.02641
1151.564, 44.54692
1152.046, 43.86958
1152.528, 44.29778
1153.010, 45.17041
1153.492, 45.38523
1153.974, 44.98042
1154.456, 44.75521
1154.938, 45.00298
1155.421, 45.18290
1155.903, 44.76720
1156.385, 44.61777
1156.867, 45.45069
1157.349, 46.45035
1157.831, 46.86253
1158.313, 46.94983
1158.795, 47.38743
1159.278, 48.25244
1159.760, 48.71726
1160.242, 48.25320
1160.724, 47.99677
1161.206, 48.20237
1161.688, 48.53546
1162.170, 48.89815
1162.652, 49.27962
1163.135, 49.67859
1163.617, 50.08480
1164.099, 50.45741
1164.581, 50.77441
1165.063, 51.12564
1165.545, 51.49407
1166.027, 51.95395
1166.509, 52.62086
1166.991, 53.15733
1167.474, 53.32810
1167.956, 53.28291
1168.438, 53.20508
1168.920, 53.13374
1169.402, 53.59128
1169.884, 54.66920
1170.366, 55.38306
1170.848, 55.60441
1171.330, 55.98024
1171.813, 56.77842
1172.295, 57.42817
1172.777, 57.38063
1173.259, 57.00492
1173.741, 57.05283
1174.223, 57.47798
1174.705, 58.17430
1175.187, 59.05884
1175.670, 59.64061
1176.152, 59.88181
1176.634, 60.25815
1177.116, 60.99569
1177.598, 61.59738
1178.080, 61.41731
1178.562, 61.00129
1179.044, 61.14037
1179.526, 61.66719
1180.009, 62.50377
1180.491, 63.40621
1180.973, 63.69201
1181.455, 63.38912
1181.937, 63.48240
1182.419, 64.56979
1182.901, 65.72539
1183.383, 66.26365
1183.865, 66.61177
1184.348, 67.17303
1184.830, 67.68436
1185.312, 67.62296
1185.794, 67.30948
1186.276, 67.53420
1186.758, 68.45101
1187.240, 69.52339
1187.722, 71.16054
1188.205, 72.08279
1188.687, 71.21411
1189.169, 70.40998
1189.651, 70.84672
1190.133, 71.69134
1190.615, 71.85841
1191.097, 71.59291
1191.579, 72.15942
1192.062, 74.07115
1192.544, 74.86076
1193.026, 73.82990
1193.508, 73.20391
1193.990, 73.49446
1194.472, 73.99705
1194.954, 74.33027
1195.436, 74.68252
1195.918, 75.36304
1196.401, 76.25532
1196.883, 76.64198
1197.365, 76.49216
1197.847, 76.75513
1198.329, 77.50095
1198.811, 77.62015
1199.293, 76.80376
1199.775, 76.02286
1200.257, 75.91804
1200.740, 76.26677
1201.222, 76.91174
1201.704, 77.64973
1202.186, 77.92480
1202.668, 77.87169
1203.150, 77.87954
1203.632, 77.93047
1204.114, 77.69606
1204.597, 77.14083
1205.079, 76.80428
1205.561, 77.11181
1206.043, 77.50077
1206.525, 77.42699
1207.007, 77.24301
1207.489, 77.23847
1207.971, 77.38010
1208.453, 77.71442
1208.936, 78.10844
1209.418, 78.25418
1209.900, 78.07675
1210.382, 77.79602
1210.864, 77.32616
1211.346, 76.99772
1211.828, 77.05524
1212.310, 77.09300
1212.792, 76.74953
1213.275, 76.38335
1213.757, 76.52597
1214.239, 76.97515
1214.721, 76.96932
1215.203, 76.33792
1215.685, 76.07178
1216.167, 76.34608
1216.649, 76.45913
1217.132, 76.22822
1217.614, 76.05976
1218.096, 76.19960
1218.578, 76.34347
1219.060, 76.12360
1219.542, 75.64317
1220.024, 75.24963
1220.506, 74.91887
1220.989, 74.23417
1221.471, 73.29916
1221.953, 73.23502
1222.435, 74.12986
1222.917, 74.64331
1223.399, 74.07961
1223.881, 73.26097
1224.363, 73.02348
1224.845, 73.02977
1225.328, 72.82867
1225.810, 72.56303
1226.292, 72.46879
1226.774, 72.47082
1227.256, 72.38368
1227.738, 72.19206
1228.220, 71.99165
1228.702, 71.79737
1229.184, 71.70497
1229.667, 71.82800
1230.149, 71.96754
1230.631, 72.01904
1231.113, 72.06786
1231.595, 72.21439
1232.077, 72.38149
1232.559, 72.41007
1233.041, 72.32031
1233.524, 72.39620
1234.006, 72.79219
1234.488, 72.95310
1234.970, 72.80436
1235.452, 72.56718
1235.934, 72.15348
1236.416, 72.11705
1236.898, 72.86659
1237.380, 73.93739
1237.863, 74.68616
1238.345, 75.14617
1238.827, 75.41846
1239.309, 75.51446
1239.791, 75.48385
1240.273, 75.35886
1240.755, 75.28027
1241.237, 75.29674
1241.719, 75.45250
1242.202, 75.77039
1242.684, 76.30012
1243.166, 77.24944
1243.648, 78.27296
1244.130, 79.16026
1244.612, 79.74653
1245.094, 79.47475
1245.576, 78.91728
1246.059, 79.21181
1246.541, 80.33743
1247.023, 81.31540
1247.505, 81.92292
1247.987, 82.12150
1248.469, 81.33334
1248.951, 80.93002
1249.433, 81.60457
1249.916, 82.51858
1250.398, 83.22832
1250.880, 83.82066
1251.362, 84.38577
1251.844, 84.93708
1252.326, 85.58100
1252.808, 86.36530
1253.290, 86.94003
1253.772, 87.25831
1254.255, 87.78015
1254.737, 88.61848
1255.219, 89.31255
1255.701, 89.60989
1256.183, 89.87881
1256.665, 90.54588
1257.147, 91.41084
1257.629, 92.01994
1258.111, 92.56699
1258.594, 93.75481
1259.076, 95.14050
1259.558, 95.44519
1260.040, 94.81324
1260.522, 94.51803
1261.004, 95.01548
1261.486, 95.80807
1261.968, 96.78026
1262.451, 97.73853
1262.933, 98.52699
1263.415, 99.33486
1263.897, 100.3754
1264.379, 101.4295
1264.861, 102.2333
1265.343, 102.8508
1265.825, 103.5537
1266.307, 104.3753
1266.790, 104.9776
1267.272, 105.2396
1267.754, 105.6308
1268.236, 106.1627
1268.718, 107.0616
1269.200, 108.5033
1269.682, 109.7314
1270.164, 110.0637
1270.646, 109.9662
1271.129, 110.0538
1271.611, 110.5005
1272.093, 112.2352
1272.575, 114.7238
1273.057, 116.3692
1273.539, 117.2585
1274.021, 118.3185
1274.503, 119.7491
1274.986, 121.0534
1275.468, 121.9399
1275.950, 122.7987
1276.432, 123.8396
1276.914, 124.9826
1277.396, 126.1573
1277.878, 127.4295
1278.360, 128.7289
1278.843, 130.2308
1279.325, 132.3802
1279.807, 135.0561
1280.289, 137.0559
1280.771, 137.9176
1281.253, 139.7153
1281.735, 142.9035
1282.217, 145.4995
1282.699, 147.0293
1283.182, 148.3454
1283.664, 149.8100
1284.146, 151.6602
1284.628, 154.2209
1285.110, 157.0862
1285.592, 159.5477
1286.074, 161.6355
##END=



