##NAMES=Wendwilsonite
##RRUFFID=R100174
##IDEAL CHEMISTRY=Ca_2_Mg(As^5+^O_4_)_2_&#183;2H_2_O
##LOCALITY=Bou Azzer, Morocco
##OWNER=RRUFF
##SOURCE=University of Arizona Mineral Museum
##DESCRIPTION=Druse of dark pink elongated pyramidal crystals
##STATUS=The identification of this mineral is confirmed by single-crystal X-ray diffraction and chemical analysis.
##URL=rruff.info/R100174
##MEASURED CHEMISTRY=Ca_2.015_(Mg_0.519_Co_0.408_Zn_0.024_Mn_0.005_)_Σ=0.956_(As_0.999_O_4_)_2_·2H_2_O
91.03516, 11.04766
91.51727, 11.55296
91.99939, 11.06211
92.48151, 9.914466
92.96362, 9.072218
93.44574, 9.316230
93.92786, 10.18154
94.40997, 10.66749
94.89210, 10.66314
95.37421, 10.40453
95.85633, 10.19311
96.33845, 10.02711
96.82056, 9.892568
97.30268, 9.770637
97.78480, 9.666088
98.26691, 9.625798
98.74903, 9.657920
99.23115, 9.756278
99.71326, 9.971989
100.1954, 10.36588
100.6775, 10.63680
101.1596, 10.44280
101.6417, 9.647348
102.1239, 9.067556
102.6060, 8.888794
103.0881, 9.085876
103.5702, 9.284871
104.0523, 9.581666
104.5344, 9.766366
105.0166, 9.549247
105.4987, 8.552777
105.9808, 7.840226
106.4629, 7.778322
106.9450, 8.613769
107.4271, 8.958892
107.9093, 8.467708
108.3914, 7.610948
108.8735, 7.085042
109.3556, 7.129780
109.8377, 7.290730
110.3198, 7.474862
110.8020, 7.803614
111.2841, 7.919197
111.7662, 7.636554
112.2483, 7.130203
112.7304, 6.785582
113.2125, 6.685486
113.6947, 6.729321
114.1768, 6.884750
114.6589, 7.342628
115.1410, 7.654111
115.6231, 7.598950
116.1052, 7.276552
116.5874, 7.063169
117.0695, 7.227928
117.5516, 7.484934
118.0337, 7.614381
118.5158, 7.472967
118.9980, 7.266037
119.4801, 7.100112
119.9622, 6.966606
120.4443, 6.760799
120.9264, 6.244278
121.4085, 5.667378
121.8907, 5.337319
122.3728, 5.568263
122.8549, 5.977441
123.3370, 6.255521
123.8191, 6.390108
124.3012, 6.509393
124.7834, 6.772542
125.2655, 7.100066
125.7476, 7.322370
126.2297, 7.251569
126.7118, 7.058677
127.1939, 7.017937
127.6761, 7.172943
128.1582, 7.345765
128.6403, 7.261786
129.1224, 6.981719
129.6045, 6.798451
130.0867, 6.991602
130.5688, 7.431030
131.0509, 7.650447
131.5330, 7.550224
132.0151, 7.345999
132.4972, 7.407532
132.9794, 7.735172
133.4615, 8.152846
133.9436, 8.164246
134.4257, 7.882133
134.9078, 9.123424
135.3899, 12.88410
135.8721, 17.75161
136.3542, 19.35661
136.8363, 17.10557
137.3184, 14.21993
137.8005, 13.34715
138.2826, 14.73919
138.7648, 16.22249
139.2469, 17.38662
139.7290, 18.31886
140.2111, 19.60659
140.6932, 21.34669
141.1753, 23.28329
141.6575, 25.16393
142.1396, 26.99256
142.6217, 28.81726
143.1038, 30.71071
143.5859, 32.71040
144.0681, 34.28125
144.5502, 35.17506
145.0323, 35.87328
145.5144, 36.98154
145.9965, 38.83181
146.4786, 40.56306
146.9608, 41.81859
147.4429, 42.37015
147.9250, 43.51763
148.4071, 45.49401
148.8892, 47.98392
149.3713, 50.48702
149.8535, 53.32132
150.3356, 55.88443
150.8177, 57.86337
151.2998, 58.50913
151.7819, 60.19256
152.2640, 63.70903
152.7462, 68.19426
153.2283, 72.03679
153.7104, 74.32548
154.1925, 76.62576
154.6746, 79.53385
155.1567, 83.60386
155.6389, 87.32272
156.1210, 89.99377
156.6031, 92.16148
157.0852, 95.19090
157.5673, 100.3063
158.0495, 105.6624
158.5316, 110.4044
159.0137, 114.1490
159.4958, 117.5483
159.9779, 120.6948
160.4600, 123.6296
160.9422, 126.4867
161.4243, 129.5285
161.9064, 132.3831
162.3885, 134.7915
162.8706, 136.6738
163.3527, 138.1594
163.8349, 139.2737
164.3170, 140.0359
164.7991, 140.5379
165.2812, 140.3581
165.7633, 140.1374
166.2454, 140.4532
166.7276, 141.5514
167.2097, 143.1728
167.6918, 145.4072
168.1739, 148.1653
168.6560, 150.8724
169.1381, 152.9887
169.6203, 154.8612
170.1024, 155.9276
170.5845, 156.6494
171.0666, 157.9262
171.5487, 160.2631
172.0309, 163.5768
172.5130, 166.9955
172.9951, 169.7756
173.4772, 172.2839
173.9593, 175.1040
174.4414, 178.7835
174.9236, 182.6947
175.4057, 185.9681
175.8878, 188.6238
176.3699, 191.3448
176.8520, 194.7553
177.3341, 198.6781
177.8163, 202.7522
178.2984, 206.7703
178.7805, 210.8245
179.2626, 215.1877
179.7447, 219.8266
180.2268, 224.3222
180.7090, 227.9101
181.1911, 230.8883
181.6732, 234.1432
182.1553, 238.1173
182.6374, 242.6309
183.1195, 247.2885
183.6017, 252.1801
184.0838, 256.9785
184.5659, 261.3071
185.0480, 265.2416
185.5301, 269.3922
186.0123, 274.6139
186.4944, 280.3280
186.9765, 284.2695
187.4586, 286.1282
187.9407, 287.2510
188.4228, 290.0048
188.9050, 294.1479
189.3871, 297.1989
189.8692, 298.1748
190.3513, 297.0875
190.8334, 293.7218
191.3155, 287.9377
191.7977, 280.3066
192.2798, 271.4232
192.7619, 261.2975
193.2440, 250.6474
193.7261, 239.5672
194.2082, 228.1391
194.6904, 216.5100
195.1725, 204.3880
195.6546, 192.6189
196.1367, 183.3829
196.6188, 176.7378
197.1009, 171.0060
197.5831, 165.1969
198.0652, 159.2600
198.5473, 154.6037
199.0294, 151.5742
199.5115, 149.4578
199.9937, 146.6656
200.4758, 143.0711
200.9579, 139.8037
201.4400, 137.5965
201.9221, 136.5100
202.4042, 135.6093
202.8864, 134.9041
203.3685, 134.2907
203.8506, 133.5278
204.3327, 132.6095
204.8148, 131.5970
205.2969, 130.5568
205.7791, 129.5171
206.2612, 128.2340
206.7433, 126.6494
207.2254, 124.8489
207.7075, 123.0034
208.1896, 121.0484
208.6718, 119.2220
209.1539, 117.7195
209.6360, 116.6790
210.1181, 115.3103
210.6002, 113.4639
211.0823, 111.3274
211.5645, 109.3852
212.0466, 107.5920
212.5287, 106.0872
213.0108, 105.0929
213.4929, 104.8759
213.9750, 104.0631
214.4572, 102.3529
214.9393, 100.0969
215.4214, 98.27792
215.9035, 96.97707
216.3856, 95.93255
216.8678, 95.04887
217.3499, 94.34373
217.8320, 93.68330
218.3141, 93.01966
218.7962, 92.40852
219.2783, 92.08147
219.7605, 92.19870
220.2426, 92.30761
220.7247, 92.09680
221.2068, 91.30383
221.6889, 90.96889
222.1710, 91.32120
222.6532, 92.11768
223.1353, 92.56499
223.6174, 92.49279
224.0995, 92.36756
224.5816, 92.43215
225.0637, 92.77864
225.5459, 93.10483
226.0280, 93.48829
226.5101, 93.82923
226.9922, 93.76688
227.4743, 93.05720
227.9564, 92.32878
228.4386, 91.86475
228.9207, 91.70684
229.4028, 91.73728
229.8849, 92.01614
230.3670, 92.46371
230.8492, 92.86202
231.3313, 93.15246
231.8134, 93.47553
232.2955, 93.95068
232.7776, 94.81148
233.2597, 95.22178
233.7419, 94.87107
234.2240, 94.15470
234.7061, 94.18053
235.1882, 95.45579
235.6703, 96.70084
236.1524, 97.32439
236.6346, 96.88456
237.1167, 96.85662
237.5988, 97.45678
238.0809, 98.38844
238.5630, 98.95493
239.0451, 98.96899
239.5273, 98.89029
240.0094, 98.91647
240.4915, 99.14806
240.9736, 99.21178
241.4557, 99.06577
241.9378, 98.76862
242.4200, 98.41891
242.9021, 97.89487
243.3842, 97.50111
243.8663, 97.39853
244.3484, 97.76128
244.8306, 97.89162
245.3127, 97.74879
245.7948, 97.39586
246.2769, 96.93674
246.7590, 96.35277
247.2411, 95.70536
247.7233, 95.01369
248.2054, 94.27668
248.6875, 93.47430
249.1696, 92.47527
249.6517, 91.50703
250.1338, 90.99903
250.6160, 91.25742
251.0981, 91.42259
251.5802, 91.17341
252.0623, 90.38467
252.5444, 89.81988
253.0265, 89.50597
253.5087, 89.39854
253.9908, 89.48855
254.4729, 89.95618
254.9550, 90.25681
255.4371, 90.20025
255.9192, 89.73845
256.4014, 89.31347
256.8835, 88.91068
257.3656, 88.55920
257.8477, 88.27961
258.3298, 88.06421
258.8120, 87.93850
259.2941, 87.92399
259.7762, 88.02727
260.2583, 88.12310
260.7404, 88.20090
261.2225, 88.28279
261.7047, 88.42396
262.1868, 88.70603
262.6689, 88.81508
263.1510, 88.59732
263.6331, 88.06960
264.1152, 87.85954
264.5974, 88.10705
265.0795, 88.45829
265.5616, 88.53249
266.0437, 88.20361
266.5258, 88.01492
267.0079, 88.04282
267.4901, 88.29021
267.9722, 88.82455
268.4543, 89.78026
268.9364, 90.77045
269.4185, 91.46412
269.9006, 91.79555
270.3828, 92.11042
270.8649, 92.42580
271.3470, 92.76865
271.8291, 93.28395
272.3112, 94.00851
272.7933, 94.82029
273.2755, 95.66667
273.7576, 96.57409
274.2397, 97.31570
274.7218, 97.80665
275.2039, 98.13905
275.6860, 98.53460
276.1682, 98.94664
276.6503, 99.61116
277.1324, 100.7250
277.6145, 102.3035
278.0966, 104.0322
278.5787, 105.9473
279.0609, 107.9272
279.5430, 109.6895
280.0251, 111.1855
280.5072, 112.7355
280.9893, 114.7264
281.4715, 117.1385
281.9536, 118.7442
282.4357, 119.2995
282.9178, 119.4077
283.3999, 120.2363
283.8820, 121.8395
284.3642, 123.1470
284.8463, 123.6323
285.3284, 123.3349
285.8105, 122.6860
286.2926, 121.6226
286.7747, 120.4012
287.2569, 119.3541
287.7390, 118.4756
288.2211, 117.6463
288.7032, 116.7974
289.1853, 115.9559
289.6674, 115.2100
290.1496, 114.5494
290.6317, 114.0285
291.1138, 113.5522
291.5959, 113.1897
292.0780, 113.4463
292.5602, 114.7863
293.0423, 116.7475
293.5244, 117.9492
294.0065, 118.3438
294.4886, 118.9973
294.9707, 121.2842
295.4529, 124.7475
295.9350, 127.6223
296.4171, 129.1514
296.8992, 130.1677
297.3813, 132.1277
297.8634, 134.9675
298.3456, 138.1104
298.8277, 141.0593
299.3098, 143.9634
299.7919, 147.2094
300.2740, 151.0234
300.7561, 154.9067
301.2383, 158.3246
301.7204, 161.2668
302.2025, 163.4382
302.6846, 164.7179
303.1667, 165.1179
303.6488, 164.6324
304.1310, 163.2074
304.6131, 161.0698
305.0952, 158.1982
305.5773, 154.7663
306.0594, 151.2596
306.5415, 147.7464
307.0237, 144.3585
307.5058, 141.1525
307.9879, 138.1415
308.4700, 135.4041
308.9521, 133.0354
309.4343, 130.9674
309.9164, 129.0225
310.3985, 127.0421
310.8806, 125.1920
311.3627, 123.5914
311.8448, 122.2320
312.3270, 121.0854
312.8091, 120.0646
313.2912, 119.2655
313.7733, 118.8009
314.2554, 118.9957
314.7375, 119.2896
315.2197, 119.3585
315.7018, 119.2350
316.1839, 119.2076
316.6660, 119.2556
317.1481, 119.5343
317.6302, 120.1722
318.1124, 121.3270
318.5945, 122.6834
319.0766, 124.1407
319.5587, 125.7196
320.0408, 127.5088
320.5229, 129.5766
321.0051, 131.8330
321.4872, 134.2505
321.9693, 136.8614
322.4514, 139.5130
322.9335, 142.0316
323.4156, 144.5794
323.8978, 147.4695
324.3799, 151.2773
324.8620, 154.9828
325.3441, 158.0972
325.8262, 160.1719
326.3083, 162.8714
326.7905, 166.4565
327.2726, 170.7047
327.7547, 175.2886
328.2368, 180.6231
328.7189, 185.8815
329.2010, 190.7054
329.6832, 194.9325
330.1653, 200.0552
330.6474, 206.5472
331.1295, 213.5876
331.6116, 220.5640
332.0938, 227.1008
332.5759, 234.2053
333.0580, 241.9963
333.5401, 250.4844
334.0222, 259.2630
334.5043, 268.7916
334.9865, 278.0781
335.4686, 286.6401
335.9507, 294.4610
336.4328, 301.6998
336.9149, 308.6029
337.3970, 314.9128
337.8792, 319.8887
338.3613, 323.8201
338.8434, 325.8483
339.3255, 325.4297
339.8076, 322.3621
340.2898, 318.3410
340.7719, 313.3592
341.2540, 307.3975
341.7361, 300.0640
342.2182, 291.3800
342.7003, 282.3257
343.1825, 273.1417
343.6646, 263.8479
344.1467, 255.0930
344.6288, 246.7638
345.1109, 239.1562
345.5930, 232.5053
346.0752, 226.8483
346.5573, 221.7032
347.0394, 216.9208
347.5215, 212.5636
348.0036, 208.5501
348.4857, 204.9072
348.9679, 201.9565
349.4500, 200.0842
349.9321, 199.0815
350.4142, 198.3999
350.8963, 198.0263
351.3784, 197.7462
351.8606, 197.3342
352.3427, 196.7992
352.8248, 196.1593
353.3069, 195.2182
353.7890, 194.2670
354.2711, 193.8285
354.7533, 194.0144
355.2354, 194.0803
355.7175, 193.4587
356.1996, 192.2746
356.6817, 190.7446
357.1638, 188.8260
357.6460, 186.6941
358.1281, 184.3735
358.6102, 181.8954
359.0923, 179.4729
359.5744, 177.4656
360.0565, 175.4915
360.5387, 173.1842
361.0208, 170.4369
361.5029, 167.3334
361.9850, 163.7737
362.4671, 159.8729
362.9492, 156.0279
363.4314, 152.1151
363.9135, 148.4855
364.3956, 145.3919
364.8777, 143.0884
365.3598, 140.7641
365.8419, 138.1684
366.3241, 135.4673
366.8062, 132.9256
367.2883, 130.6280
367.7704, 128.4463
368.2526, 126.3543
368.7347, 124.3466
369.2168, 122.4156
369.6989, 120.4729
370.1810, 118.6492
370.6631, 117.0369
371.1453, 115.7524
371.6274, 114.5036
372.1095, 113.2394
372.5916, 111.9673
373.0737, 110.7503
373.5558, 109.4343
374.0380, 108.3852
374.5201, 107.8977
375.0022, 108.2678
375.4843, 108.1975
375.9664, 107.4936
376.4485, 106.4627
376.9307, 105.7004
377.4128, 105.2641
377.8949, 104.8765
378.3770, 104.3925
378.8591, 103.8280
379.3412, 103.5487
379.8234, 103.6333
380.3055, 103.7337
380.7876, 103.3045
381.2697, 102.3901
381.7518, 101.8702
382.2339, 102.1111
382.7161, 102.7876
383.1982, 103.2062
383.6803, 103.3663
384.1624, 103.3344
384.6445, 103.0382
385.1266, 102.5889
385.6088, 102.2441
386.0909, 102.0283
386.5730, 101.9703
387.0551, 102.1417
387.5372, 102.5060
388.0193, 102.9648
388.5015, 103.5722
388.9836, 104.1880
389.4657, 104.6327
389.9478, 104.8919
390.4299, 105.1459
390.9120, 105.3936
391.3942, 105.7463
391.8763, 106.3436
392.3584, 107.6791
392.8405, 108.8447
393.3226, 109.1167
393.8047, 108.7222
394.2869, 108.6989
394.7690, 109.6050
395.2511, 110.9028
395.7332, 112.3280
396.2154, 114.0664
396.6975, 115.4482
397.1796, 115.9893
397.6617, 116.1518
398.1438, 116.7223
398.6259, 117.7931
399.1081, 119.2946
399.5902, 121.3786
400.0723, 124.1779
400.5544, 126.6225
401.0365, 128.6707
401.5186, 130.3984
402.0008, 131.7729
402.4829, 132.3080
402.9650, 133.4647
403.4471, 135.7221
403.9292, 138.7261
404.4113, 140.8947
404.8935, 142.0027
405.3756, 142.8288
405.8577, 143.8224
406.3398, 145.0510
406.8219, 145.8606
407.3040, 146.1814
407.7862, 146.2099
408.2683, 146.1897
408.7504, 146.1206
409.2325, 146.0466
409.7146, 145.8451
410.1967, 145.6844
410.6789, 146.1802
411.1610, 147.3478
411.6431, 148.8067
412.1252, 150.3019
412.6073, 151.8252
413.0894, 153.3061
413.5716, 154.6273
414.0537, 156.0595
414.5358, 157.9623
415.0179, 160.2439
415.5000, 162.6753
415.9821, 165.3311
416.4643, 167.9303
416.9464, 170.1402
417.4285, 171.9063
417.9106, 173.5267
418.3927, 175.3599
418.8748, 177.1030
419.3570, 178.3650
419.8391, 178.6222
420.3212, 178.7687
420.8033, 179.3998
421.2854, 180.3254
421.7675, 180.6676
422.2497, 179.8457
422.7318, 178.6097
423.2139, 177.4016
423.6960, 176.5481
424.1781, 175.1313
424.6602, 172.7711
425.1424, 169.8700
425.6245, 167.0198
426.1066, 164.0135
426.5887, 161.3839
427.0709, 159.3994
427.5530, 158.0583
428.0351, 156.4859
428.5172, 154.7566
428.9993, 152.6627
429.4814, 149.8784
429.9636, 146.0583
430.4457, 142.9351
430.9278, 140.8472
431.4099, 139.3350
431.8920, 137.3690
432.3741, 134.8653
432.8563, 132.4158
433.3384, 130.1537
433.8205, 128.1221
434.3026, 126.7828
434.7847, 126.1835
435.2668, 125.8289
435.7490, 125.2568
436.2311, 124.5121
436.7132, 123.7721
437.1953, 123.0795
437.6774, 122.4158
438.1595, 121.5911
438.6417, 120.7085
439.1238, 120.1949
439.6059, 120.6227
440.0880, 121.3902
440.5701, 121.8676
441.0522, 121.9665
441.5344, 121.9250
442.0165, 121.6521
442.4986, 121.4032
442.9807, 121.4946
443.4628, 122.3818
443.9449, 123.2840
444.4271, 123.7862
444.9092, 123.9861
445.3913, 124.4655
445.8734, 125.5184
446.3555, 126.7570
446.8376, 128.0266
447.3198, 129.5054
447.8019, 130.6247
448.2840, 131.0259
448.7661, 131.2022
449.2482, 131.8884
449.7303, 133.6104
450.2125, 134.9384
450.6946, 135.5389
451.1767, 135.4491
451.6588, 135.2487
452.1409, 135.0493
452.6230, 134.4819
453.1052, 133.1103
453.5873, 130.8337
454.0694, 128.9932
454.5515, 127.8000
455.0337, 126.8620
455.5158, 125.5216
455.9979, 123.7968
456.4800, 122.1333
456.9621, 120.6924
457.4442, 119.4376
457.9264, 118.2940
458.4085, 117.2642
458.8906, 116.2816
459.3727, 115.1023
459.8548, 113.9910
460.3369, 113.4450
460.8191, 113.7090
461.3012, 114.2141
461.7833, 114.5901
462.2654, 114.8668
462.7475, 115.1048
463.2296, 115.0982
463.7118, 115.2541
464.1939, 115.9468
464.6760, 117.2112
465.1581, 118.2218
465.6402, 118.5668
466.1223, 118.6484
466.6045, 118.7412
467.0866, 118.5662
467.5687, 118.7926
468.0508, 119.7377
468.5329, 121.0789
469.0150, 122.1059
469.4972, 122.6033
469.9793, 123.1046
470.4614, 123.8786
470.9435, 124.9700
471.4256, 125.3594
471.9077, 124.7922
472.3899, 124.0353
472.8720, 123.7992
473.3541, 124.1305
473.8362, 124.4703
474.3183, 124.8420
474.8004, 125.0309
475.2826, 124.5088
475.7647, 123.3149
476.2468, 122.0113
476.7289, 120.8047
477.2110, 119.7001
477.6931, 118.7995
478.1753, 118.0970
478.6574, 117.3308
479.1395, 116.2551
479.6216, 114.9862
480.1037, 113.6582
480.5858, 112.1716
481.0680, 110.8794
481.5501, 110.2175
482.0322, 109.9194
482.5143, 109.4341
482.9964, 108.2288
483.4786, 107.0636
483.9607, 106.4367
484.4428, 106.4414
484.9249, 106.0774
485.4070, 104.6941
485.8892, 103.1684
486.3713, 102.1284
486.8534, 101.9576
487.3355, 101.7335
487.8176, 101.4272
488.2997, 101.0583
488.7819, 100.6657
489.2640, 100.2642
489.7461, 99.79121
490.2282, 99.18362
490.7103, 98.45228
491.1924, 97.91048
491.6746, 97.58729
492.1567, 97.31495
492.6388, 96.95772
493.1209, 96.51841
493.6030, 96.05032
494.0851, 95.52471
494.5673, 95.05126
495.0494, 94.85998
495.5315, 94.87679
496.0136, 94.84221
496.4957, 94.65659
496.9778, 94.34370
497.4600, 93.84808
497.9421, 93.19743
498.4242, 92.63161
498.9063, 92.26247
499.3884, 92.05547
499.8705, 92.02198
500.3527, 92.29719
500.8348, 92.41422
501.3169, 92.07634
501.7990, 91.51673
502.2811, 91.06046
502.7632, 90.79633
503.2454, 90.61421
503.7275, 90.53928
504.2096, 90.55515
504.6917, 90.46767
505.1738, 90.20360
505.6559, 89.93957
506.1381, 89.78428
506.6202, 89.78277
507.1023, 89.70177
507.5844, 89.51428
508.0665, 89.29849
508.5486, 89.11892
509.0308, 88.97229
509.5129, 89.04227
509.9950, 89.51238
510.4771, 90.08907
510.9592, 90.03603
511.4413, 89.41275
511.9235, 88.80804
512.4056, 88.52647
512.8877, 88.52210
513.3698, 88.79922
513.8519, 89.37589
514.3340, 89.93875
514.8162, 90.40283
515.2983, 90.66927
515.7804, 90.59952
516.2625, 89.79776
516.7446, 89.10720
517.2267, 88.97701
517.7089, 89.21641
518.1910, 89.35830
518.6731, 89.26378
519.1552, 89.09538
519.6373, 88.84621
520.1194, 88.48532
520.6016, 88.38134
521.0837, 88.77094
521.5658, 89.15340
522.0479, 89.11758
522.5300, 88.49534
523.0121, 88.04994
523.4943, 87.80770
523.9764, 87.79534
524.4585, 88.21132
524.9406, 89.06350
525.4227, 89.65887
525.9048, 89.62348
526.3870, 89.22024
526.8691, 89.11013
527.3513, 89.27818
527.8334, 89.49403
528.3155, 89.68747
528.7976, 89.79198
529.2797, 89.63708
529.7618, 89.14426
530.2440, 88.75439
530.7261, 88.84304
531.2082, 89.20103
531.6903, 89.55872
532.1724, 90.01777
532.6545, 90.26582
533.1367, 90.04102
533.6188, 89.49610
534.1009, 89.16902
534.5830, 89.26107
535.0651, 89.47377
535.5472, 89.76204
536.0294, 90.16785
536.5115, 90.34698
536.9936, 90.19467
537.4757, 89.96324
537.9578, 89.91781
538.4399, 90.13232
538.9221, 90.00031
539.4042, 89.32972
539.8863, 88.51133
540.3684, 88.29321
540.8505, 88.62944
541.3326, 88.97267
541.8148, 89.06728
542.2969, 89.05045
542.7790, 89.19750
543.2611, 89.48454
543.7432, 89.72563
544.2253, 89.83030
544.7075, 89.80657
545.1896, 89.58329
545.6717, 89.08221
546.1538, 88.77867
546.6359, 89.13152
547.1180, 89.70860
547.6002, 90.04619
548.0823, 89.65271
548.5644, 89.45410
549.0465, 89.76615
549.5286, 90.39943
550.0107, 90.80334
550.4929, 90.88343
550.9750, 90.86729
551.4571, 90.76565
551.9392, 90.57681
552.4213, 90.68835
552.9034, 91.19654
553.3856, 91.70390
553.8677, 91.86584
554.3498, 91.70854
554.8319, 91.50027
555.3140, 91.22202
555.7961, 91.06656
556.2783, 91.54298
556.7604, 92.37312
557.2425, 92.73309
557.7246, 91.93204
558.2067, 90.93579
558.6888, 90.68789
559.1710, 91.04184
559.6531, 91.51087
560.1352, 92.07651
560.6173, 92.51218
561.0994, 92.62222
561.5815, 92.35172
562.0637, 92.13267
562.5458, 92.11500
563.0279, 92.13533
563.5100, 92.05961
563.9921, 91.67104
564.4742, 91.59695
564.9564, 92.04073
565.4385, 92.65353
565.9206, 92.76421
566.4027, 92.23363
566.8848, 91.90157
567.3669, 92.07500
567.8491, 92.58200
568.3312, 92.90208
568.8133, 93.03721
569.2954, 93.05509
569.7775, 92.89198
570.2596, 92.67075
570.7418, 92.68400
571.2239, 92.95874
571.7060, 93.14806
572.1881, 92.88909
572.6702, 92.44704
573.1523, 92.09578
573.6345, 91.84853
574.1166, 91.80769
574.5987, 92.23293
575.0808, 92.84618
575.5629, 93.19156
576.0450, 92.85843
576.5272, 92.62045
577.0093, 92.64238
577.4914, 92.88856
577.9735, 93.16044
578.4556, 93.54277
578.9377, 93.77027
579.4199, 93.60160
579.9020, 93.02625
580.3841, 92.86952
580.8662, 93.17131
581.3483, 93.67837
581.8304, 94.28618
582.3126, 94.90838
582.7947, 95.20663
583.2768, 95.05799
583.7589, 94.75571
584.2410, 94.51729
584.7231, 94.36115
585.2053, 94.32422
585.6874, 94.61205
586.1696, 94.84382
586.6517, 94.64610
587.1338, 94.16032
587.6159, 94.02276
588.0980, 94.88026
588.5801, 95.68758
589.0623, 95.90360
589.5444, 95.38944
590.0265, 95.24136
590.5086, 95.77821
590.9907, 96.27518
591.4728, 96.02431
591.9550, 94.82639
592.4371, 94.24744
592.9192, 94.52357
593.4013, 95.17197
593.8834, 95.58672
594.3655, 95.77600
594.8477, 95.76311
595.3298, 95.47459
595.8119, 95.09419
596.2940, 94.81271
596.7761, 94.64002
597.2582, 94.60010
597.7404, 94.73796
598.2225, 94.98656
598.7046, 95.35088
599.1867, 95.82393
599.6688, 96.21469
600.1509, 96.48689
600.6331, 96.64535
601.1152, 96.64736
601.5973, 96.28455
602.0794, 96.29557
602.5615, 96.97045
603.0436, 97.74101
603.5258, 97.90787
604.0079, 97.35030
604.4900, 96.83323
604.9721, 96.45923
605.4542, 96.22453
605.9363, 96.12976
606.4185, 96.17504
606.9006, 96.35407
607.3827, 96.80660
607.8648, 97.30129
608.3469, 97.40227
608.8290, 97.18459
609.3112, 97.06397
609.7933, 97.46879
610.2754, 97.93642
610.7575, 98.05827
611.2396, 97.72724
611.7217, 97.53461
612.2039, 97.71552
612.6860, 98.05022
613.1681, 98.39208
613.6502, 98.96862
614.1323, 99.11005
614.6144, 98.57090
615.0966, 97.80164
615.5787, 97.45002
616.0608, 97.56963
616.5429, 97.78982
617.0250, 98.03381
617.5071, 98.31871
617.9893, 98.74213
618.4714, 99.27698
618.9535, 99.68958
619.4356, 99.85719
619.9177, 99.84458
620.3998, 99.58897
620.8820, 99.14530
621.3641, 98.97102
621.8462, 99.62279
622.3283, 100.4341
622.8104, 100.8950
623.2925, 100.8569
623.7747, 100.8238
624.2568, 100.9491
624.7389, 101.0717
625.2210, 101.0315
625.7031, 100.5974
626.1852, 100.5547
626.6674, 101.1391
627.1495, 101.9074
627.6316, 102.0297
628.1137, 101.4733
628.5958, 101.0944
629.0779, 101.2019
629.5601, 101.5589
630.0422, 101.7012
630.5243, 101.6706
631.0064, 101.6680
631.4885, 101.8679
631.9706, 102.1063
632.4528, 102.1846
632.9349, 102.1191
633.4170, 102.1510
633.8991, 102.5316
634.3812, 102.9329
634.8633, 103.1344
635.3455, 103.0073
635.8276, 103.0254
636.3097, 103.3369
636.7918, 103.6705
637.2739, 103.7346
637.7560, 103.3717
638.2382, 103.4170
638.7203, 104.0536
639.2024, 104.8867
639.6845, 105.3428
640.1666, 105.4489
640.6487, 105.4056
641.1309, 105.1756
641.6130, 104.9618
642.0951, 105.0692
642.5772, 105.4280
643.0594, 105.8409
643.5415, 106.3254
644.0236, 106.7379
644.5057, 106.9203
644.9879, 106.9087
645.4700, 107.0388
645.9521, 107.6880
646.4342, 108.2243
646.9163, 108.3257
647.3984, 107.8989
647.8806, 107.7357
648.3627, 108.0099
648.8448, 108.2271
649.3269, 107.8538
649.8090, 106.8928
650.2911, 106.3698
650.7733, 106.4023
651.2554, 106.6679
651.7375, 106.7751
652.2196, 106.8150
652.7017, 107.0409
653.1838, 107.6398
653.6660, 108.2099
654.1481, 108.2571
654.6302, 108.0855
655.1123, 108.2362
655.5944, 109.5680
656.0765, 110.5217
656.5587, 110.2688
657.0408, 109.1341
657.5229, 108.6801
658.0050, 109.1932
658.4871, 109.9240
658.9692, 110.6958
659.4514, 111.4860
659.9335, 112.1155
660.4156, 112.6121
660.8977, 112.7159
661.3798, 111.9247
661.8619, 110.6240
662.3441, 109.8178
662.8262, 109.5689
663.3083, 109.6412
663.7904, 110.1421
664.2725, 110.7221
664.7546, 110.9528
665.2368, 110.5915
665.7189, 110.3160
666.2010, 110.2847
666.6831, 110.4871
667.1652, 110.9355
667.6473, 111.8981
668.1295, 112.6667
668.6116, 113.2497
669.0937, 113.5805
669.5758, 113.3955
670.0579, 112.6164
670.5400, 112.0936
671.0222, 112.1744
671.5043, 112.5547
671.9864, 112.5810
672.4685, 112.3170
672.9506, 112.0839
673.4327, 112.0378
673.9149, 112.1175
674.3970, 112.3324
674.8791, 112.6538
675.3612, 112.8925
675.8433, 112.8816
676.3254, 112.8492
676.8076, 113.0137
677.2897, 113.4943
677.7718, 113.3593
678.2539, 112.0296
678.7360, 110.8990
679.2181, 111.0917
679.7003, 112.7857
680.1824, 113.8772
680.6645, 114.2212
681.1466, 114.3136
681.6287, 114.8775
682.1108, 115.6264
682.5930, 115.6360
683.0751, 114.5287
683.5572, 113.3313
684.0393, 112.7989
684.5214, 112.7517
685.0035, 112.9267
685.4857, 113.4877
685.9678, 113.9728
686.4499, 114.1973
686.9320, 114.2708
687.4141, 114.4278
687.8962, 114.6057
688.3784, 115.0204
688.8605, 115.8834
689.3426, 116.9513
689.8247, 117.2381
690.3068, 116.7123
690.7889, 116.3386
691.2711, 116.7714
691.7532, 117.5879
692.2353, 117.9324
692.7174, 117.8542
693.1995, 117.6803
693.6816, 117.3203
694.1638, 117.1545
694.6459, 117.6292
695.1280, 118.8071
695.6101, 119.7199
696.0922, 119.7664
696.5743, 119.7942
697.0565, 120.3626
697.5386, 121.7813
698.0207, 122.3932
698.5028, 121.9571
698.9849, 121.2304
699.4670, 120.7900
699.9492, 120.6481
700.4313, 121.0347
700.9135, 122.0495
701.3956, 123.1612
701.8777, 123.7029
702.3598, 123.9616
702.8419, 124.4588
703.3240, 125.5008
703.8062, 126.4654
704.2883, 126.9786
704.7704, 127.2228
705.2525, 127.4546
705.7346, 127.6699
706.2167, 127.9426
706.6989, 128.3212
707.1810, 128.7452
707.6631, 129.0719
708.1452, 129.2810
708.6273, 129.5074
709.1094, 129.8387
709.5916, 130.1695
710.0737, 130.1706
710.5558, 129.9128
711.0379, 129.7583
711.5200, 129.7523
712.0021, 130.0486
712.4843, 131.0959
712.9664, 132.6883
713.4485, 133.7681
713.9306, 133.4636
714.4127, 132.9768
714.8948, 132.8843
715.3770, 133.2014
715.8591, 133.3056
716.3412, 133.0822
716.8233, 132.8724
717.3054, 132.8805
717.7875, 133.0991
718.2697, 133.3117
718.7518, 133.5169
719.2339, 133.7730
719.7160, 134.3577
720.1981, 134.9459
720.6802, 134.9319
721.1624, 134.1976
721.6445, 133.3991
722.1266, 132.6382
722.6087, 132.1573
723.0908, 132.2383
723.5729, 133.4163
724.0551, 134.1300
724.5372, 134.0977
725.0193, 133.7777
725.5014, 133.6172
725.9835, 133.6430
726.4656, 133.6833
726.9478, 133.7436
727.4299, 133.7511
727.9120, 133.5325
728.3941, 133.1674
728.8762, 132.9488
729.3583, 133.0609
729.8405, 133.1174
730.3226, 132.6965
730.8047, 132.0201
731.2868, 131.4680
731.7689, 131.2186
732.2510, 131.0248
732.7332, 130.9095
733.2153, 130.7986
733.6974, 130.5149
734.1795, 129.9735
734.6616, 129.4819
735.1437, 129.0773
735.6259, 128.8104
736.1080, 128.9827
736.5901, 129.5224
737.0722, 129.7900
737.5543, 129.2290
738.0364, 128.4270
738.5186, 128.0326
739.0007, 127.9832
739.4828, 128.0412
739.9649, 128.2900
740.4470, 128.4467
740.9291, 128.2862
741.4113, 127.8437
741.8934, 127.6777
742.3755, 127.9550
742.8576, 128.2077
743.3397, 128.2110
743.8218, 128.0117
744.3040, 128.0575
744.7861, 128.3577
745.2682, 128.5439
745.7503, 128.1147
746.2324, 127.5140
746.7145, 127.5423
747.1967, 128.1873
747.6788, 128.8513
748.1609, 129.2114
748.6430, 129.4716
749.1251, 129.7095
749.6072, 129.8811
750.0894, 130.3952
750.5715, 131.6712
751.0536, 132.7509
751.5357, 132.8852
752.0178, 131.9626
752.4999, 131.4843
752.9821, 131.4714
753.4642, 131.7579
753.9463, 132.2047
754.4284, 132.8334
754.9105, 133.7280
755.3926, 134.9266
755.8748, 136.1726
756.3569, 137.5114
756.8390, 138.7068
757.3211, 139.5208
757.8032, 139.6241
758.2853, 139.9698
758.7675, 140.5553
759.2496, 141.4405
759.7318, 142.8384
760.2139, 144.8693
760.6960, 146.3169
761.1781, 146.9564
761.6602, 147.4368
762.1423, 148.5366
762.6245, 150.0961
763.1066, 151.7868
763.5887, 153.6167
764.0708, 155.2787
764.5529, 156.0956
765.0350, 156.7964
765.5172, 158.2452
765.9993, 161.4116
766.4814, 164.2930
766.9635, 166.7294
767.4456, 168.8604
767.9277, 170.7612
768.4099, 172.3618
768.8920, 174.3407
769.3741, 176.9037
769.8562, 179.6445
770.3383, 181.8593
770.8204, 183.7957
771.3026, 186.1438
771.7847, 189.2444
772.2668, 192.5770
772.7489, 196.0038
773.2310, 199.3923
773.7131, 202.4866
774.1953, 204.5538
774.6774, 207.2923
775.1595, 211.2480
775.6416, 215.7427
776.1237, 219.4794
776.6058, 222.3535
777.0880, 225.2914
777.5701, 228.4923
778.0522, 231.8313
778.5343, 234.9689
779.0164, 238.0415
779.4985, 241.4940
779.9807, 246.0397
780.4628, 250.3003
780.9449, 252.7482
781.4270, 254.3545
781.9091, 257.2084
782.3912, 263.0568
782.8734, 268.4373
783.3555, 272.5851
783.8376, 276.1285
784.3197, 280.7616
784.8018, 286.6667
785.2839, 291.8768
785.7661, 295.4527
786.2482, 298.4791
786.7303, 302.6794
787.2124, 307.7957
787.6945, 313.2029
788.1766, 318.8434
788.6588, 324.4604
789.1409, 329.9436
789.6230, 335.3551
790.1051, 341.0570
790.5872, 347.2805
791.0693, 353.4073
791.5515, 359.1994
792.0336, 364.8444
792.5157, 370.8753
792.9978, 377.2980
793.4799, 383.2088
793.9620, 388.2272
794.4442, 392.6820
794.9263, 397.0578
795.4084, 401.3328
795.8905, 405.4968
796.3726, 410.1036
796.8547, 413.9946
797.3369, 416.6192
797.8190, 418.1072
798.3011, 419.1267
798.7832, 419.7345
799.2653, 419.7976
799.7474, 419.2453
800.2296, 418.1483
800.7117, 416.5554
801.1938, 414.5136
801.6759, 412.5210
802.1580, 410.5972
802.6401, 409.0359
803.1223, 408.0871
803.6044, 407.7949
804.0865, 408.2725
804.5686, 409.0003
805.0507, 411.1153
805.5328, 415.5846
806.0150, 421.6984
806.4971, 427.5853
806.9792, 432.7291
807.4613, 439.3265
807.9434, 448.0862
808.4255, 458.5579
808.9077, 469.9979
809.3898, 482.4214
809.8719, 495.9007
810.3540, 510.3557
810.8361, 525.9856
811.3182, 542.9472
811.8004, 561.1351
812.2825, 580.6833
812.7646, 601.5655
813.2467, 623.9967
813.7288, 648.5828
814.2109, 674.5458
814.6931, 699.0372
815.1752, 721.9120
815.6573, 746.6536
816.1394, 774.8693
816.6215, 804.8752
817.1037, 833.4235
817.5858, 861.3368
818.0679, 891.4908
818.5500, 926.1978
819.0322, 962.4541
819.5143, 998.7317
819.9964, 1035.037
820.4785, 1070.964
820.9606, 1105.916
821.4427, 1140.929
821.9249, 1176.610
822.4070, 1212.033
822.8891, 1245.021
823.3712, 1275.613
823.8533, 1304.630
824.3354, 1333.735
824.8176, 1358.909
825.2997, 1374.832
825.7818, 1383.654
826.2639, 1388.713
826.7460, 1392.501
827.2281, 1391.148
827.7103, 1382.952
828.1924, 1369.499
828.6745, 1352.211
829.1566, 1331.053
829.6387, 1306.579
830.1208, 1278.857
830.6030, 1248.197
831.0851, 1215.192
831.5672, 1180.422
832.0493, 1145.137
832.5314, 1109.880
833.0135, 1074.547
833.4957, 1040.133
833.9778, 1005.682
834.4599, 969.4845
834.9420, 928.6526
835.4241, 890.9076
835.9063, 857.1884
836.3884, 825.5450
836.8705, 793.8459
837.3526, 762.1666
837.8347, 733.5037
838.3168, 708.1027
838.7990, 684.4981
839.2811, 660.7916
839.7632, 637.5568
840.2453, 615.5588
840.7274, 594.5830
841.2095, 575.3469
841.6917, 559.2712
842.1738, 544.2065
842.6559, 528.2565
843.1380, 510.9797
843.6201, 494.3310
844.1022, 478.2972
844.5844, 462.9446
845.0665, 448.3374
845.5486, 434.4109
846.0307, 421.2724
846.5128, 408.8704
846.9949, 397.0811
847.4771, 386.0619
847.9592, 375.4533
848.4413, 364.8321
848.9234, 353.9695
849.4055, 344.2825
849.8876, 336.1288
850.3698, 328.7322
850.8519, 321.8248
851.3340, 315.3639
851.8161, 309.0925
852.2982, 303.0120
852.7803, 297.6190
853.2625, 293.3551
853.7446, 289.9297
854.2267, 287.1691
854.7088, 284.9835
855.1909, 282.6139
855.6730, 279.3006
856.1552, 276.3474
856.6373, 274.2780
857.1194, 273.0213
857.6015, 271.9335
858.0836, 271.0142
858.5657, 270.2233
859.0479, 269.5196
859.5300, 268.9375
860.0121, 268.4852
860.4942, 268.2044
860.9763, 268.2515
861.4584, 269.0324
861.9406, 269.8246
862.4227, 270.4561
862.9048, 270.8209
863.3869, 270.6249
863.8690, 269.6407
864.3511, 268.6316
864.8333, 267.7184
865.3154, 266.9324
865.7975, 266.4713
866.2796, 266.2059
866.7617, 265.6041
867.2438, 264.5859
867.7260, 262.9761
868.2081, 260.2304
868.6902, 256.9112
869.1723, 253.8538
869.6544, 251.8218
870.1365, 249.1590
870.6187, 245.7171
871.1008, 241.6939
871.5829, 237.1739
872.0650, 232.2066
872.5471, 227.9068
873.0292, 224.5774
873.5114, 221.2405
873.9935, 216.6602
874.4756, 211.5785
874.9577, 206.9784
875.4399, 203.1519
875.9220, 199.3288
876.4041, 194.9657
876.8862, 190.8888
877.3683, 187.7814
877.8505, 185.8569
878.3326, 183.3584
878.8147, 180.2194
879.2968, 177.0461
879.7789, 174.3783
880.2610, 172.0605
880.7432, 169.8228
881.2253, 167.6446
881.7074, 165.5266
882.1895, 163.3266
882.6716, 161.3203
883.1537, 159.6613
883.6359, 158.3424
884.1180, 157.3306
884.6001, 156.7559
885.0822, 155.9097
885.5643, 154.2027
886.0464, 152.1339
886.5286, 151.0181
887.0107, 150.6564
887.4928, 150.2240
887.9749, 149.1453
888.4570, 148.0418
888.9391, 147.4021
889.4213, 146.9935
889.9034, 146.0268
890.3855, 144.1959
890.8676, 142.5063
891.3497, 141.1041
891.8318, 140.0194
892.3140, 139.3586
892.7961, 139.0381
893.2782, 138.7572
893.7603, 138.5107
894.2424, 138.0863
894.7245, 137.2462
895.2067, 136.1791
895.6888, 135.0959
896.1709, 133.7364
896.6530, 132.9048
897.1351, 132.8001
897.6172, 132.9222
898.0994, 132.8807
898.5815, 132.6460
899.0636, 131.7921
899.5457, 130.2418
900.0278, 128.9549
900.5099, 128.9413
900.9921, 129.4042
901.4742, 129.6408
901.9563, 129.5459
902.4384, 129.3647
902.9205, 129.0004
903.4026, 128.7592
903.8848, 128.9426
904.3669, 129.4277
904.8490, 128.9779
905.3311, 127.6343
905.8132, 126.4788
906.2953, 126.3048
906.7775, 126.5208
907.2596, 126.6251
907.7417, 126.6187
908.2238, 126.5441
908.7059, 126.2881
909.1880, 126.1197
909.6702, 126.0902
910.1523, 126.1833
910.6344, 126.4883
911.1165, 126.9936
911.5986, 127.0342
912.0807, 126.2889
912.5629, 125.3646
913.0450, 124.8701
913.5271, 124.6820
914.0092, 124.6249
914.4913, 124.7687
914.9734, 124.8375
915.4556, 124.8609
915.9377, 124.7303
916.4198, 124.1834
916.9019, 123.1579
917.3840, 122.9540
917.8661, 123.7129
918.3483, 124.5873
918.8304, 124.9259
919.3125, 124.8785
919.7946, 124.4721
920.2767, 123.7106
920.7589, 123.2647
921.2410, 123.5782
921.7231, 124.0148
922.2052, 124.3761
922.6873, 124.6526
923.1694, 124.7055
923.6516, 124.5259
924.1337, 124.4105
924.6158, 124.6442
925.0979, 124.9023
925.5800, 124.5473
926.0621, 123.8749
926.5443, 123.6209
927.0264, 124.6356
927.5085, 125.3352
927.9906, 125.2766
928.4727, 124.8366
928.9548, 124.6098
929.4370, 124.6022
929.9191, 124.7172
930.4012, 124.9930
930.8833, 125.1491
931.3654, 124.6921
931.8475, 123.9955
932.3297, 123.5725
932.8118, 123.5886
933.2939, 123.6493
933.7761, 123.6099
934.2582, 123.6414
934.7403, 123.9028
935.2224, 124.4057
935.7045, 124.5985
936.1866, 124.4728
936.6688, 124.2974
937.1509, 124.3484
937.6330, 124.3937
938.1151, 124.0322
938.5972, 123.3746
939.0793, 123.0208
939.5615, 123.3142
940.0436, 123.7620
940.5257, 124.3056
941.0078, 124.8817
941.4899, 125.4030
941.9720, 125.8549
942.4542, 125.7240
942.9363, 124.6029
943.4184, 123.4849
943.9005, 123.6116
944.3826, 124.3572
944.8647, 124.8347
945.3469, 124.5206
945.8290, 124.5619
946.3111, 125.4046
946.7932, 126.1617
947.2753, 125.9283
947.7574, 124.7623
948.2396, 123.8843
948.7217, 123.3325
949.2038, 123.2369
949.6859, 124.1299
950.1680, 125.2047
950.6501, 125.7439
951.1323, 125.7268
951.6144, 125.6168
952.0965, 125.5474
952.5786, 125.2592
953.0607, 124.5364
953.5428, 123.6313
954.0250, 123.3315
954.5071, 123.5668
954.9892, 123.9438
955.4713, 124.3816
955.9534, 124.7836
956.4355, 125.0320
956.9177, 125.2126
957.3998, 125.4581
957.8819, 125.8537
958.3640, 126.2037
958.8461, 126.5586
959.3282, 126.7607
959.8104, 126.4778
960.2925, 125.9018
960.7746, 125.7691
961.2567, 126.1368
961.7388, 126.4808
962.2209, 126.4503
962.7031, 126.2919
963.1852, 126.0994
963.6673, 125.8956
964.1494, 125.9279
964.6315, 126.2512
965.1136, 126.6161
965.5958, 126.9319
966.0779, 127.2272
966.5600, 127.6705
967.0421, 128.1491
967.5242, 128.3338
968.0063, 127.7677
968.4885, 127.3445
968.9706, 127.7655
969.4527, 128.3054
969.9348, 127.9584
970.4169, 126.3921
970.8990, 125.6800
971.3812, 126.0427
971.8633, 126.6859
972.3454, 126.8213
972.8275, 126.7299
973.3096, 126.8196
973.7917, 127.1275
974.2739, 127.4918
974.7560, 128.1680
975.2381, 128.5177
975.7202, 128.1463
976.2023, 127.2615
976.6844, 126.9191
977.1666, 127.1123
977.6487, 127.4796
978.1308, 128.0341
978.6129, 128.4429
979.0950, 128.1348
979.5771, 127.5030
980.0593, 127.1908
980.5414, 127.8271
981.0235, 128.1002
981.5056, 127.8555
981.9877, 127.3889
982.4698, 126.8668
982.9520, 126.3486
983.4341, 126.3686
983.9162, 126.9499
984.3983, 127.3292
984.8804, 126.5901
985.3625, 125.7481
985.8447, 125.5517
986.3268, 126.0301
986.8089, 126.6311
987.2910, 127.5514
987.7731, 127.9963
988.2552, 127.5637
988.7374, 126.7065
989.2195, 126.2713
989.7016, 126.1779
990.1837, 126.2322
990.6658, 126.3949
991.1479, 126.6457
991.6301, 127.1847
992.1122, 127.6639
992.5944, 127.7584
993.0765, 127.4305
993.5586, 126.7465
994.0407, 125.6112
994.5228, 124.8849
995.0049, 125.7348
995.4871, 127.1352
995.9692, 127.7794
996.4513, 127.6770
996.9334, 127.3592
997.4155, 126.6307
997.8976, 126.1629
998.3798, 126.1502
998.8619, 126.4708
999.3440, 126.9405
999.8261, 127.5251
1000.308, 127.8921
1000.790, 127.9578
1001.272, 127.7775
1001.755, 126.9144
1002.237, 126.0990
1002.719, 126.2880
1003.201, 128.2475
1003.683, 128.9384
1004.165, 127.8757
1004.647, 126.7844
1005.129, 126.9812
1005.612, 127.9754
1006.094, 128.3801
1006.576, 128.2685
1007.058, 128.0041
1007.540, 127.4596
1008.022, 127.1483
1008.504, 127.5627
1008.986, 128.2395
1009.468, 128.3215
1009.951, 127.7057
1010.433, 127.3580
1010.915, 127.4682
1011.397, 127.6506
1011.879, 127.2609
1012.361, 126.7967
1012.843, 126.9832
1013.325, 128.0254
1013.807, 128.8181
1014.290, 129.1285
1014.772, 129.2309
1015.254, 129.2160
1015.736, 129.0876
1016.218, 128.7525
1016.700, 128.2746
1017.182, 128.0287
1017.664, 128.3357
1018.147, 128.7259
1018.629, 129.0388
1019.111, 129.1875
1019.593, 128.9892
1020.075, 128.1556
1020.557, 127.9487
1021.039, 128.5623
1021.521, 129.2413
1022.003, 129.1937
1022.486, 128.7471
1022.968, 128.4890
1023.450, 128.4340
1023.932, 128.3116
1024.414, 127.7180
1024.896, 127.4156
1025.378, 127.7934
1025.860, 128.5493
1026.343, 128.7577
1026.825, 128.4602
1027.307, 128.3127
1027.789, 128.5561
1028.271, 128.7925
1028.753, 128.4850
1029.235, 128.0749
1029.717, 128.0989
1030.199, 128.8095
1030.682, 129.3219
1031.164, 129.6494
1031.646, 129.7506
1032.128, 129.5297
1032.610, 129.0907
1033.092, 128.5118
1033.574, 127.9192
1034.056, 127.7971
1034.539, 128.8164
1035.021, 129.7923
1035.503, 130.4452
1035.985, 130.7977
1036.467, 130.7763
1036.949, 130.3668
1037.431, 130.1889
1037.913, 130.3324
1038.396, 130.4927
1038.878, 130.3897
1039.360, 130.1809
1039.842, 129.9512
1040.324, 129.7190
1040.806, 129.7327
1041.288, 130.1061
1041.770, 130.4775
1042.252, 130.7503
1042.734, 130.9367
1043.217, 131.0097
1043.699, 131.0249
1044.181, 131.1382
1044.663, 131.4459
1045.145, 131.7434
1045.627, 132.1482
1046.109, 132.3361
1046.591, 131.8931
1047.074, 130.7626
1047.556, 130.7092
1048.038, 131.7369
1048.520, 132.5481
1049.002, 131.8302
1049.484, 130.9154
1049.966, 131.0527
1050.448, 131.9286
1050.931, 132.6295
1051.413, 133.1398
1051.895, 133.2628
1052.377, 132.8808
1052.859, 132.3430
1053.341, 132.0771
1053.823, 131.9734
1054.305, 131.6918
1054.787, 131.1921
1055.270, 131.0355
1055.752, 131.9286
1056.234, 132.7292
1056.716, 132.9737
1057.198, 132.7462
1057.680, 132.1347
1058.162, 131.1981
1058.644, 130.9583
1059.126, 132.0241
1059.609, 133.1710
1060.091, 133.0996
1060.573, 132.6113
1061.055, 132.6721
1061.537, 133.6194
1062.019, 134.0971
1062.501, 134.0356
1062.983, 133.7655
1063.466, 133.4146
1063.948, 133.0529
1064.430, 132.7485
1064.912, 132.5383
1065.394, 132.5303
1065.876, 132.9946
1066.358, 133.3619
1066.840, 133.5334
1067.323, 133.5796
1067.805, 133.5728
1068.287, 133.5147
1068.769, 133.3395
1069.251, 133.0431
1069.733, 132.9964
1070.215, 133.7697
1070.697, 134.5947
1071.179, 134.8440
1071.661, 134.6791
1072.144, 134.9608
1072.626, 135.8549
1073.108, 135.9004
1073.590, 134.4449
1074.072, 132.8532
1074.554, 133.0151
1075.036, 134.0214
1075.518, 134.6583
1076.001, 134.5911
1076.483, 134.8025
1076.965, 135.7273
1077.447, 136.1737
1077.929, 135.1761
1078.411, 133.4641
1078.893, 133.2823
1079.375, 134.2374
1079.858, 135.0524
1080.340, 135.0718
1080.822, 135.0589
1081.304, 135.2623
1081.786, 135.5544
1082.268, 135.8831
1082.750, 136.2503
1083.232, 136.2735
1083.714, 135.9474
1084.197, 135.6106
1084.679, 135.4253
1085.161, 135.3979
1085.643, 135.7387
1086.125, 136.2377
1086.607, 136.1901
1087.089, 135.3204
1087.571, 134.9080
1088.054, 135.2294
1088.536, 135.7112
1089.018, 135.5524
1089.500, 135.1835
1089.982, 135.2638
1090.464, 135.8701
1090.946, 136.4838
1091.428, 137.2271
1091.911, 137.5564
1092.393, 137.1107
1092.875, 136.3434
1093.357, 136.5084
1093.839, 137.2789
1094.321, 137.5648
1094.803, 136.8562
1095.285, 136.3140
1095.767, 136.6221
1096.250, 137.1814
1096.732, 137.6476
1097.214, 138.0133
1097.696, 138.1703
1098.178, 138.1213
1098.660, 137.9113
1099.142, 137.3636
1099.624, 136.9015
1100.106, 136.9604
1100.589, 137.2741
1101.071, 137.3970
1101.553, 137.1845
1102.035, 137.2301
1102.517, 137.5846
1102.999, 137.9742
1103.481, 138.2181
1103.963, 138.3258
1104.446, 138.2502
1104.928, 138.0349
1105.410, 137.8443
1105.892, 137.5074
1106.374, 137.5985
1106.856, 138.3420
1107.338, 139.2515
1107.820, 139.7742
1108.302, 139.9292
1108.785, 139.6011
1109.267, 138.7843
1109.749, 138.3700
1110.231, 139.1236
1110.713, 139.9241
1111.195, 140.3942
1111.677, 140.6052
1112.159, 140.8721
1112.641, 141.1119
1113.124, 140.6468
1113.606, 139.0722
1114.088, 137.7819
1114.570, 138.0087
1115.052, 138.6666
1115.534, 138.8589
1116.016, 138.6023
1116.498, 138.7552
1116.981, 139.3330
1117.463, 139.8675
1117.945, 140.0934
1118.427, 140.2832
1118.909, 140.9069
1119.391, 141.5815
1119.873, 141.6799
1120.355, 140.7722
1120.838, 140.5104
1121.320, 141.0482
1121.802, 141.5637
1122.284, 141.3422
1122.766, 140.8354
1123.248, 140.7268
1123.730, 140.9056
1124.212, 141.0607
1124.694, 141.1407
1125.177, 141.1098
1125.659, 140.8895
1126.141, 140.7136
1126.623, 140.8121
1127.105, 141.1537
1127.587, 141.7755
1128.069, 142.6169
1128.551, 143.2399
1129.033, 143.3963
1129.516, 143.3428
1129.998, 143.0664
1130.480, 142.7294
1130.962, 142.6155
1131.444, 142.6888
1131.926, 142.7792
1132.408, 142.8650
1132.890, 142.9136
1133.373, 143.0741
1133.855, 143.0047
1134.337, 142.3027
1134.819, 141.2713
1135.301, 141.0351
1135.783, 141.5707
1136.265, 142.1496
1136.747, 142.6122
1137.229, 142.9669
1137.712, 143.2460
1138.194, 143.4044
1138.676, 143.3431
1139.158, 143.0691
1139.640, 142.9162
1140.122, 142.8882
1140.604, 142.9222
1141.086, 142.9803
1141.569, 143.1110
1142.051, 143.5639
1142.533, 144.0341
1143.015, 144.0401
1143.497, 143.2414
1143.979, 142.9665
1144.461, 143.3026
1144.943, 143.8394
1145.426, 144.5620
1145.908, 145.1267
1146.390, 144.5701
1146.872, 143.4835
1147.354, 143.1019
1147.836, 144.8225
1148.318, 145.5754
1148.800, 144.9940
1149.282, 144.1352
1149.765, 143.8150
1150.247, 143.9022
1150.729, 144.2048
1151.211, 144.6645
1151.693, 145.0723
1152.175, 145.3813
1152.657, 145.5748
1153.139, 145.6192
1153.621, 145.6115
1154.104, 145.7145
1154.586, 145.8576
1155.068, 145.7364
1155.550, 145.3618
1156.032, 145.0842
1156.514, 145.0105
1156.996, 145.1622
1157.478, 145.6312
1157.961, 146.2106
1158.443, 146.5652
1158.925, 146.7033
1159.407, 146.5812
1159.889, 146.1805
1160.371, 145.9662
1160.853, 146.4828
1161.335, 146.9883
1161.818, 147.1634
1162.300, 147.0211
1162.782, 146.2434
1163.264, 144.9678
1163.746, 145.0759
1164.228, 147.2399
1164.710, 149.1904
1165.192, 149.0160
1165.674, 148.2183
1166.156, 147.8711
1166.639, 147.9146
1167.121, 147.8074
1167.603, 147.5526
1168.085, 147.3459
1168.567, 147.2069
1169.049, 147.2618
1169.531, 147.9151
1170.013, 148.6140
1170.496, 148.6789
1170.978, 148.0885
1171.460, 148.0345
1171.942, 148.5473
1172.424, 149.0113
1172.906, 149.1377
1173.388, 149.1200
1173.870, 149.0450
1174.353, 148.9933
1174.835, 149.1025
1175.317, 149.4233
1175.799, 149.6143
1176.281, 149.6605
1176.763, 149.7202
1177.245, 149.9441
1177.727, 150.1648
1178.209, 150.2402
1178.692, 150.1651
1179.174, 149.8684
1179.656, 148.9918
1180.138, 149.0098
1180.620, 150.1106
1181.102, 151.1347
1181.584, 151.1287
1182.066, 150.6594
1182.548, 150.2793
1183.031, 150.0298
1183.513, 149.9956
1183.995, 150.1768
1184.477, 150.6973
1184.959, 151.7324
1185.441, 152.4606
1185.923, 151.7924
1186.405, 150.6258
1186.888, 150.2379
1187.370, 150.4576
1187.852, 150.5624
1188.334, 150.3042
1188.816, 150.1384
1189.298, 150.0671
1189.780, 150.2191
1190.262, 150.9540
1190.745, 151.8676
1191.227, 152.2818
1191.709, 152.2614
1192.191, 152.3768
1192.673, 153.0092
1193.155, 153.1623
1193.637, 152.4993
1194.119, 151.8873
1194.601, 152.7872
1195.084, 154.2107
1195.566, 154.3931
1196.048, 153.3401
1196.530, 152.6263
1197.012, 152.6205
1197.494, 152.8899
1197.976, 153.4960
1198.458, 154.0082
1198.941, 153.5410
1199.423, 152.6804
1199.905, 152.5242
1200.387, 153.1651
1200.869, 153.5946
1201.351, 153.4632
1201.833, 153.4455
1202.315, 153.7801
1202.797, 154.1475
1203.280, 153.7794
1203.762, 153.1830
1204.244, 153.4939
1204.726, 154.9524
1205.208, 155.4366
1205.690, 153.8769
1206.172, 152.8522
1206.654, 153.2985
1207.136, 154.3567
1207.619, 154.5647
1208.101, 154.2854
1208.583, 154.1600
1209.065, 154.3289
1209.547, 154.4001
1210.029, 154.2532
1210.511, 154.1206
1210.993, 154.0168
1211.476, 154.0781
1211.958, 154.8591
1212.440, 155.8804
1212.922, 156.1127
1213.404, 155.0856
1213.886, 154.8358
1214.368, 155.9506
1214.850, 156.9263
1215.333, 157.1433
1215.815, 156.8633
1216.297, 156.3453
1216.779, 155.7526
1217.261, 155.3419
1217.743, 155.1178
1218.225, 155.3964
1218.707, 156.4575
1219.189, 157.2547
1219.672, 157.1670
1220.154, 156.7047
1220.636, 156.8417
1221.118, 157.2811
1221.600, 157.4707
1222.082, 157.1402
1222.564, 157.0112
1223.046, 157.1345
1223.528, 157.4060
1224.011, 157.8592
1224.493, 158.3231
1224.975, 158.6004
1225.457, 158.6453
1225.939, 158.3175
1226.421, 157.2368
1226.903, 156.8460
1227.385, 157.3500
1227.868, 157.8429
1228.350, 157.7219
1228.832, 157.4089
1229.314, 157.4780
1229.796, 157.8383
1230.278, 158.3730
1230.760, 159.2113
1231.242, 159.8035
1231.724, 160.1600
1232.207, 160.2327
1232.689, 159.8593
1233.171, 159.3289
1233.653, 158.9571
1234.135, 158.7093
1234.617, 158.5220
1235.099, 158.3638
1235.581, 158.2913
1236.063, 158.2704
1236.546, 158.6023
1237.028, 159.9208
1237.510, 161.2155
1237.992, 161.2875
1238.474, 160.6614
1238.956, 160.1656
1239.438, 159.8218
1239.920, 159.7603
1240.403, 159.9866
1240.885, 160.4183
1241.367, 161.3166
1241.849, 162.0643
1242.331, 162.1183
1242.813, 161.6473
1243.295, 160.8175
1243.777, 159.4329
1244.260, 158.9514
1244.742, 159.3655
1245.224, 159.9400
1245.706, 160.1637
1246.188, 160.4536
1246.670, 161.2446
1247.152, 162.1968
1247.634, 162.8697
1248.116, 163.2707
1248.599, 163.4029
1249.081, 163.2788
1249.563, 163.0475
1250.045, 162.6374
1250.527, 162.3333
1251.009, 162.3173
1251.491, 162.4682
1251.973, 162.7619
1252.455, 163.1742
1252.938, 162.9368
1253.420, 162.1614
1253.902, 161.7748
1254.384, 162.6940
1254.866, 163.5733
1255.348, 163.9723
1255.830, 164.0815
1256.313, 163.9803
1256.795, 163.7087
1257.277, 163.3373
1257.759, 162.9765
1258.241, 163.1517
1258.723, 165.2208
1259.205, 166.1752
1259.687, 164.9214
1260.169, 163.2952
1260.651, 162.8525
1261.134, 163.3355
1261.616, 164.1313
1262.098, 165.1283
1262.580, 166.0065
1263.062, 166.6309
1263.544, 167.1788
1264.026, 167.8390
1264.508, 168.0490
1264.991, 166.8500
1265.473, 165.1452
1265.955, 164.8461
1266.437, 165.4855
1266.919, 165.7885
1267.401, 164.9966
1267.883, 164.7179
1268.365, 165.1009
1268.848, 165.5181
1269.330, 165.4645
1269.812, 165.1864
1270.294, 164.7642
1270.776, 164.4109
1271.258, 164.6614
1271.740, 165.7843
1272.222, 166.7458
1272.704, 167.5546
1273.187, 167.9218
1273.669, 167.1507
1274.151, 166.3388
1274.633, 166.7092
1275.115, 167.5586
1275.597, 167.6821
1276.079, 166.8728
1276.561, 166.7252
1277.043, 167.2297
1277.526, 167.7858
1278.008, 168.0911
1278.490, 168.2682
1278.972, 168.3842
1279.454, 168.4024
1279.936, 168.2503
1280.418, 167.9395
1280.900, 167.7984
1281.383, 167.7856
1281.865, 167.6364
1282.347, 166.9331
1282.829, 166.4730
1283.311, 166.5675
1283.793, 166.9358
1284.275, 167.5553
1284.757, 168.2603
1285.240, 168.1475
1285.722, 167.5000
1286.204, 167.2509
1286.686, 168.0897
1287.168, 168.7641
1287.650, 169.1141
1288.132, 169.3309
1288.614, 169.6038
1289.096, 169.7850
1289.578, 169.2803
1290.061, 168.5139
1290.543, 168.3896
1291.025, 169.5353
1291.507, 170.3875
1291.989, 170.9358
1292.471, 171.2193
1292.953, 171.1885
1293.435, 170.9941
1293.918, 170.7447
1294.400, 170.4820
1294.882, 170.2242
1295.364, 170.2975
1295.846, 170.0701
1296.328, 170.6538
1296.810, 171.2258
1297.292, 171.7202
1297.775, 171.8301
1298.257, 170.8234
1298.739, 169.7659
1299.221, 169.6853
1299.703, 170.4717
1300.185, 171.2221
1300.667, 171.8772
1301.149, 172.0190
1301.631, 171.2835
1302.114, 170.4887
1302.596, 170.0706
##END=



