##NAMES=Wendwilsonite
##RRUFFID=R100174
##IDEAL CHEMISTRY=Ca_2_Mg(As^5+^O_4_)_2_&#183;2H_2_O
##LOCALITY=Bou Azzer, Morocco
##OWNER=RRUFF
##SOURCE=University of Arizona Mineral Museum
##DESCRIPTION=Druse of dark pink elongated pyramidal crystals
##STATUS=The identification of this mineral is confirmed by single-crystal X-ray diffraction and chemical analysis.
##URL=rruff.info/R100174
##MEASURED CHEMISTRY=Ca_2.015_(Mg_0.519_Co_0.408_Zn_0.024_Mn_0.005_)_Σ=0.956_(As_0.999_O_4_)_2_·2H_2_O
90.60547, 263.8285
91.08759, 275.0385
91.56970, 283.1945
92.05182, 280.8934
92.53394, 272.8901
93.01605, 264.4413
93.49817, 258.5562
93.98029, 255.0537
94.46240, 251.1843
94.94452, 246.0500
95.42664, 241.0406
95.90874, 237.0933
96.39086, 234.2092
96.87298, 231.7924
97.35509, 228.9186
97.83721, 224.8330
98.31933, 221.7349
98.80145, 219.9421
99.28356, 218.8230
99.76568, 218.0041
100.2478, 217.3350
100.7299, 216.8974
101.2120, 216.9418
101.6941, 217.3584
102.1763, 218.4386
102.6584, 220.8651
103.1405, 223.8249
103.6226, 226.4737
104.1047, 228.5527
104.5868, 229.7034
105.0690, 227.6058
105.5511, 220.3717
106.0332, 212.4767
106.5153, 205.6574
106.9974, 199.9265
107.4795, 194.8017
107.9617, 189.8918
108.4438, 185.3586
108.9259, 181.6763
109.4080, 178.9828
109.8901, 177.1245
110.3722, 176.0260
110.8544, 175.9229
111.3365, 176.0045
111.8186, 175.6856
112.3007, 175.1345
112.7828, 174.6847
113.2649, 174.5532
113.7471, 174.7195
114.2292, 174.9252
114.7113, 175.0859
115.1934, 175.3841
115.6755, 176.0618
116.1576, 177.0006
116.6397, 177.8170
117.1219, 178.0145
117.6040, 177.2127
118.0861, 176.9737
118.5682, 177.2789
119.0503, 178.0246
119.5324, 179.3889
120.0146, 181.3102
120.4967, 183.3317
120.9788, 184.6318
121.4609, 183.6523
121.9430, 184.4123
122.4251, 188.2413
122.9073, 193.3784
123.3894, 198.1203
123.8715, 201.9846
124.3536, 204.5260
124.8357, 204.1945
125.3178, 200.7694
125.8000, 196.1404
126.2821, 190.1203
126.7642, 183.1843
127.2463, 177.2173
127.7284, 173.1187
128.2105, 170.6028
128.6927, 168.7006
129.1748, 167.4319
129.6569, 166.6947
130.1390, 166.5467
130.6211, 167.0906
131.1032, 167.6103
131.5854, 167.7063
132.0675, 167.6439
132.5496, 167.6291
133.0317, 167.7009
133.5138, 167.9138
133.9959, 168.4060
134.4781, 169.2612
134.9602, 170.3114
135.4423, 171.3504
135.9244, 172.5496
136.4065, 174.1574
136.8886, 176.3670
137.3708, 179.1443
137.8529, 181.8155
138.3350, 184.3633
138.8171, 186.8275
139.2992, 189.4702
139.7813, 192.0690
140.2635, 194.1287
140.7456, 195.1532
141.2277, 194.9821
141.7098, 195.2007
142.1919, 196.4164
142.6740, 197.4442
143.1561, 197.2849
143.6383, 196.0218
144.1204, 194.9178
144.6025, 195.4086
145.0846, 197.8400
145.5667, 199.6384
146.0488, 200.0704
146.5310, 200.1126
147.0131, 200.7617
147.4952, 202.2053
147.9773, 204.1852
148.4594, 206.7394
148.9415, 209.7513
149.4237, 212.5427
149.9058, 214.6480
150.3879, 216.3272
150.8700, 218.2087
151.3521, 220.2509
151.8342, 222.8189
152.3164, 226.4398
152.7985, 230.9505
153.2806, 235.2360
153.7627, 238.0786
154.2448, 239.4393
154.7269, 241.6447
155.2091, 245.6373
155.6912, 250.1342
156.1733, 254.4405
156.6554, 258.5426
157.1375, 262.8882
157.6196, 268.2028
158.1018, 275.0390
158.5839, 281.2104
159.0660, 286.2715
159.5481, 290.9610
160.0302, 295.8600
160.5123, 301.0537
160.9945, 306.0320
161.4766, 309.8620
161.9587, 312.1185
162.4408, 313.7019
162.9229, 314.8532
163.4050, 315.2999
163.8871, 314.4157
164.3693, 311.9966
164.8514, 308.9170
165.3335, 307.3174
165.8156, 307.7812
166.2977, 308.9164
166.7798, 310.6360
167.2620, 312.9432
167.7441, 315.8702
168.2262, 319.4544
168.7083, 323.6183
169.1904, 328.1127
169.6725, 332.7744
170.1547, 337.8955
170.6368, 343.7308
171.1189, 350.1456
171.6010, 356.7392
172.0831, 363.5350
172.5652, 370.2014
173.0474, 376.2503
173.5295, 381.3881
174.0116, 386.4437
174.4937, 392.1377
174.9758, 398.4795
175.4579, 404.5688
175.9401, 409.4194
176.4222, 414.1422
176.9043, 419.8862
177.3864, 426.9630
177.8685, 434.9289
178.3506, 443.4408
178.8328, 452.6924
179.3149, 461.8611
179.7970, 471.1717
180.2791, 480.0817
180.7612, 487.8287
181.2433, 494.0602
181.7255, 499.4822
182.2076, 505.7852
182.6897, 514.0131
183.1718, 521.1283
183.6539, 526.3472
184.1360, 530.4307
184.6181, 534.0405
185.1003, 537.4857
185.5824, 540.7645
186.0645, 543.8696
186.5466, 547.4017
187.0287, 549.9189
187.5108, 551.4020
187.9930, 551.7531
188.4751, 551.0869
188.9572, 549.5389
189.4393, 546.7821
189.9214, 540.7844
190.4035, 531.5354
190.8857, 519.1175
191.3678, 502.4206
191.8499, 482.6575
192.3320, 461.4519
192.8141, 439.5537
193.2962, 417.2035
193.7784, 396.0305
194.2605, 375.5294
194.7426, 356.3696
195.2247, 338.3046
195.7068, 321.6431
196.1889, 307.2044
196.6711, 295.7046
197.1532, 286.9166
197.6353, 278.7904
198.1174, 271.2869
198.5995, 264.3497
199.0816, 257.7376
199.5638, 251.5176
200.0459, 246.2650
200.5280, 242.5113
201.0101, 239.9892
201.4922, 237.6347
201.9743, 235.3978
202.4565, 233.3226
202.9386, 231.4710
203.4207, 229.8425
203.9028, 228.3344
204.3849, 227.1068
204.8670, 225.8930
205.3492, 224.2849
205.8313, 222.0477
206.3134, 219.6006
206.7955, 217.6279
207.2776, 216.3307
207.7597, 214.5646
208.2419, 211.2529
208.7240, 207.4009
209.2061, 204.0217
209.6882, 201.5558
210.1703, 199.4496
210.6524, 196.6467
211.1346, 192.7814
211.6167, 189.2112
212.0988, 186.3929
212.5809, 184.0373
213.0630, 181.9955
213.5451, 180.2887
214.0273, 178.5960
214.5094, 176.0774
214.9915, 171.9423
215.4736, 168.4247
215.9557, 165.9666
216.4378, 164.2080
216.9200, 162.8265
217.4021, 161.6954
217.8842, 160.7859
218.3663, 160.0217
218.8484, 159.2955
219.3305, 158.9238
219.8127, 159.1399
220.2948, 159.6130
220.7769, 160.0056
221.2590, 160.1640
221.7411, 160.1648
222.2232, 160.2295
222.7054, 160.2278
223.1875, 160.4765
223.6696, 161.4007
224.1517, 162.4425
224.6338, 162.8449
225.1159, 162.2671
225.5980, 161.1277
226.0802, 160.6450
226.5623, 161.7201
227.0444, 162.3947
227.5265, 162.1892
228.0086, 161.6016
228.4907, 161.2886
228.9729, 161.5340
229.4550, 162.1195
229.9371, 162.4675
230.4192, 162.1990
230.9013, 162.2908
231.3834, 163.1056
231.8656, 164.3243
232.3477, 165.5077
232.8298, 166.4995
233.3119, 167.3377
233.7940, 168.0949
234.2761, 168.7908
234.7583, 169.3877
235.2404, 169.9833
235.7225, 170.4561
236.2046, 170.4875
236.6867, 169.8501
237.1688, 169.0432
237.6510, 169.0459
238.1331, 169.9572
238.6152, 170.7730
239.0973, 171.1940
239.5794, 171.2815
240.0615, 171.1168
240.5437, 170.6459
241.0258, 170.0807
241.5079, 169.7567
241.9900, 169.6772
242.4721, 169.4639
242.9542, 168.9549
243.4364, 168.1951
243.9185, 167.2568
244.4006, 166.0674
244.8827, 164.8655
245.3648, 163.9937
245.8469, 163.3971
246.3290, 162.6182
246.8112, 161.5229
247.2933, 160.0883
247.7754, 158.1010
248.2575, 155.1927
248.7396, 152.3112
249.2217, 150.0357
249.7039, 148.3299
250.1860, 147.1772
250.6681, 146.9576
251.1502, 147.3546
251.6323, 147.1539
252.1144, 146.0895
252.5966, 144.7444
253.0787, 143.3264
253.5608, 141.9224
254.0429, 140.7181
254.5250, 139.8597
255.0071, 139.2911
255.4893, 138.7969
255.9714, 138.4019
256.4535, 138.0526
256.9356, 137.7454
257.4177, 137.4572
257.8998, 137.1252
258.3820, 136.6433
258.8641, 136.1279
259.3462, 136.0175
259.8283, 136.5277
260.3104, 137.1150
260.7925, 137.6225
261.2747, 138.0810
261.7568, 138.5171
262.2389, 138.9337
262.7210, 139.3606
263.2031, 139.8661
263.6852, 140.3312
264.1674, 141.1179
264.6495, 142.5715
265.1316, 144.2258
265.6137, 145.5410
266.0958, 146.2704
266.5779, 146.6741
267.0601, 147.3974
267.5422, 148.7616
268.0243, 149.8563
268.5064, 150.6131
268.9885, 151.0641
269.4706, 151.0268
269.9528, 150.4701
270.4349, 149.9036
270.9170, 150.4115
271.3991, 152.8322
271.8812, 154.6803
272.3633, 155.3841
272.8455, 155.8023
273.3276, 156.5798
273.8097, 157.8738
274.2918, 159.4041
274.7739, 160.7203
275.2560, 161.5736
275.7382, 162.7609
276.2202, 164.4678
276.7024, 166.2962
277.1845, 167.9722
277.6666, 169.4800
278.1487, 171.0054
278.6308, 172.7559
279.1129, 174.6994
279.5951, 177.0001
280.0772, 179.7467
280.5593, 182.7031
281.0414, 186.0126
281.5235, 189.5024
282.0056, 192.6907
282.4878, 195.1240
282.9699, 196.7825
283.4520, 197.8358
283.9341, 197.8395
284.4162, 197.7724
284.8983, 198.2625
285.3805, 199.0542
285.8626, 199.4007
286.3447, 198.6893
286.8268, 196.9422
287.3089, 195.2304
287.7910, 193.0179
288.2732, 191.4034
288.7553, 190.9396
289.2374, 191.3062
289.7195, 191.9310
290.2016, 192.4878
290.6837, 192.9794
291.1659, 193.4326
291.6480, 193.3599
292.1301, 193.8118
292.6122, 195.0782
293.0943, 196.9448
293.5764, 199.0625
294.0586, 201.2745
294.5407, 203.7400
295.0228, 206.9086
295.5049, 211.8036
295.9870, 216.1754
296.4691, 219.4228
296.9513, 222.3354
297.4334, 225.7615
297.9155, 229.9584
298.3976, 234.6363
298.8797, 239.3194
299.3618, 244.0800
299.8440, 248.6978
300.3261, 253.4686
300.8082, 257.8864
301.2903, 261.8621
301.7724, 265.2451
302.2545, 267.5063
302.7367, 268.0057
303.2188, 266.4219
303.7009, 263.8000
304.1830, 259.7113
304.6651, 255.0358
305.1472, 250.1160
305.6294, 245.0722
306.1115, 240.0768
306.5936, 235.2952
307.0757, 230.4657
307.5578, 226.1141
308.0399, 221.1462
308.5221, 216.4441
309.0042, 212.0139
309.4863, 208.0435
309.9684, 205.1012
310.4505, 203.6595
310.9326, 203.4782
311.4148, 202.9415
311.8969, 201.1879
312.3790, 200.1167
312.8611, 200.0317
313.3432, 200.9539
313.8253, 203.2368
314.3075, 207.1491
314.7896, 211.7652
315.2717, 214.6698
315.7538, 213.8176
316.2359, 214.2236
316.7180, 216.5878
317.2001, 220.2663
317.6823, 224.7444
318.1644, 229.8631
318.6465, 235.3484
319.1286, 240.8255
319.6107, 246.2374
320.0928, 251.7106
320.5750, 257.1151
321.0571, 262.6840
321.5392, 268.7624
322.0213, 275.2874
322.5034, 281.8092
322.9855, 287.8155
323.4677, 293.2754
323.9498, 298.6689
324.4319, 303.4745
324.9140, 308.7051
325.3961, 315.2482
325.8782, 322.7303
326.3604, 329.9731
326.8425, 336.0458
327.3246, 341.1346
327.8067, 347.5375
328.2888, 355.7896
328.7709, 364.5434
329.2531, 373.5376
329.7352, 382.7802
330.2173, 392.3076
330.6994, 402.1362
331.1815, 412.2595
331.6636, 422.7536
332.1458, 433.6228
332.6279, 444.8990
333.1100, 456.9536
333.5921, 469.1701
334.0742, 481.1030
334.5563, 492.5139
335.0385, 503.4798
335.5206, 514.1399
336.0027, 525.2792
336.4848, 533.7822
336.9669, 539.7089
337.4490, 543.3723
337.9312, 545.3002
338.4133, 545.3310
338.8954, 542.5876
339.3775, 536.2005
339.8596, 526.0238
340.3417, 513.6536
340.8239, 497.0506
341.3060, 480.7167
341.7881, 466.5628
342.2702, 453.8574
342.7523, 440.8128
343.2344, 426.2638
343.7166, 410.8201
344.1987, 397.6076
344.6808, 387.7780
345.1629, 379.1147
345.6450, 371.6493
346.1271, 365.2441
346.6093, 359.8806
347.0914, 355.5629
347.5735, 352.0407
348.0556, 348.8964
348.5377, 345.7764
349.0198, 343.7795
349.5020, 343.3879
349.9841, 343.5822
350.4662, 343.6755
350.9483, 343.6040
351.4304, 343.7799
351.9125, 344.7600
352.3947, 346.7665
352.8768, 348.0767
353.3589, 348.1367
353.8410, 348.0572
354.3231, 348.3831
354.8052, 348.8670
355.2874, 349.0290
355.7695, 348.6211
356.2516, 347.5428
356.7337, 345.1620
357.2158, 340.6685
357.6979, 335.8524
358.1800, 331.3547
358.6621, 326.5983
359.1443, 320.8591
359.6264, 313.8342
360.1085, 306.1096
360.5906, 298.6719
361.0727, 291.6728
361.5548, 284.5559
362.0370, 277.2082
362.5191, 269.7955
363.0012, 262.3793
363.4833, 254.9403
363.9654, 247.6145
364.4475, 240.5178
364.9297, 233.6573
365.4118, 226.8693
365.8939, 219.7987
366.3760, 213.2402
366.8581, 207.5510
367.3402, 202.6079
367.8224, 198.1497
368.3045, 194.1077
368.7866, 190.4139
369.2687, 186.8795
369.7508, 183.5496
370.2329, 180.3033
370.7151, 176.8066
371.1972, 173.4946
371.6793, 170.8319
372.1614, 169.0119
372.6435, 167.5866
373.1256, 166.0851
373.6078, 164.5090
374.0899, 162.8700
374.5720, 160.9764
375.0541, 159.2051
375.5362, 157.8513
376.0183, 156.8925
376.5005, 156.0837
376.9826, 155.4066
377.4647, 154.7668
377.9468, 153.6963
378.4289, 151.8661
378.9110, 150.2781
379.3932, 149.9998
379.8753, 150.4051
380.3574, 150.2595
380.8395, 148.7261
381.3216, 146.8907
381.8037, 146.1091
382.2859, 146.3943
382.7680, 146.9906
383.2501, 147.7276
383.7322, 148.4984
384.2143, 149.1180
384.6964, 149.5235
385.1786, 149.9819
385.6607, 150.8093
386.1428, 151.8069
386.6249, 152.2713
387.1070, 151.8004
387.5891, 151.4446
388.0713, 152.8692
388.5534, 155.8816
389.0355, 158.1614
389.5176, 158.6290
389.9997, 158.5333
390.4818, 159.1407
390.9640, 160.4965
391.4461, 161.9050
391.9282, 162.8701
392.4103, 163.4991
392.8924, 164.4011
393.3745, 165.4890
393.8567, 166.9131
394.3388, 168.9370
394.8209, 171.3149
395.3030, 173.4995
395.7851, 175.2826
396.2672, 176.9429
396.7494, 178.9869
397.2315, 181.4556
397.7136, 184.2442
398.1957, 187.6194
398.6778, 191.1557
399.1599, 194.5566
399.6420, 197.7729
400.1241, 200.8180
400.6063, 203.6325
401.0884, 206.2044
401.5705, 209.3852
402.0526, 213.8205
402.5347, 218.0666
403.0168, 221.8127
403.4990, 225.0593
403.9811, 227.8187
404.4632, 230.0870
404.9453, 231.9163
405.4274, 233.4142
405.9095, 234.5355
406.3917, 235.3454
406.8738, 235.5320
407.3559, 235.6703
407.8380, 236.3483
408.3201, 237.5165
408.8022, 238.4713
409.2844, 238.2645
409.7665, 236.7352
410.2486, 236.6807
410.7307, 239.0828
411.2128, 242.0113
411.6949, 245.2106
412.1771, 248.4871
412.6592, 251.5863
413.1413, 254.3524
413.6234, 256.9746
414.1055, 259.9027
414.5876, 263.3044
415.0698, 266.5418
415.5519, 269.2378
416.0340, 271.8592
416.5161, 274.9074
416.9982, 278.3976
417.4803, 281.5196
417.9625, 283.5119
418.4446, 284.4955
418.9267, 285.3979
419.4088, 286.4576
419.8909, 287.0860
420.3730, 287.0868
420.8552, 286.4164
421.3373, 284.8409
421.8194, 281.9232
422.3015, 278.4456
422.7836, 275.5136
423.2657, 273.1168
423.7479, 270.0106
424.2300, 265.4213
424.7121, 260.0873
425.1942, 255.1841
425.6763, 250.8022
426.1584, 246.4337
426.6406, 242.0066
427.1227, 237.4032
427.6048, 232.2352
428.0869, 226.3398
428.5690, 220.7380
429.0511, 216.5486
429.5333, 213.7749
430.0154, 210.4307
430.4975, 205.7931
430.9796, 201.2505
431.4617, 197.6903
431.9438, 194.8710
432.4260, 191.9961
432.9081, 188.6498
433.3902, 185.2704
433.8723, 182.9385
434.3544, 182.3960
434.8365, 181.7280
435.3187, 180.8000
435.8008, 179.7709
436.2829, 178.7334
436.7650, 177.7217
437.2471, 176.7608
437.7292, 175.8506
438.2114, 174.9805
438.6935, 174.4580
439.1756, 174.6403
439.6577, 174.7790
440.1398, 174.3550
440.6219, 173.9020
441.1040, 174.1970
441.5862, 175.5627
442.0683, 177.5758
442.5504, 179.5481
443.0325, 181.6105
443.5146, 183.2449
443.9967, 183.8580
444.4789, 184.4900
444.9610, 185.6475
445.4431, 187.3122
445.9252, 189.2450
446.4073, 191.3307
446.8894, 193.5280
447.3716, 195.6943
447.8537, 197.8549
448.3358, 199.9130
448.8179, 202.2391
449.3000, 204.2707
449.7821, 205.2666
450.2643, 204.9647
450.7464, 204.1445
451.2285, 203.6620
451.7106, 203.3082
452.1927, 201.9417
452.6748, 199.1041
453.1570, 195.7026
453.6391, 192.5290
454.1212, 189.5442
454.6033, 186.6085
455.0854, 184.1077
455.5675, 181.3520
456.0497, 177.1298
456.5318, 171.8060
457.0139, 167.5503
457.4960, 165.6554
457.9781, 165.3084
458.4602, 164.3047
458.9424, 162.2648
459.4245, 160.4829
459.9066, 159.0603
460.3887, 158.0787
460.8708, 157.9161
461.3529, 158.4843
461.8351, 158.8596
462.3172, 158.0508
462.7993, 155.9937
463.2814, 154.9334
463.7635, 155.6084
464.2456, 156.3553
464.7278, 156.7586
465.2099, 156.9871
465.6920, 157.3111
466.1741, 157.8363
466.6562, 158.4588
467.1383, 158.9810
467.6205, 159.3195
468.1026, 159.8336
468.5847, 160.7342
469.0668, 161.6362
469.5489, 162.4851
470.0310, 163.1970
470.5132, 163.5928
470.9953, 163.5171
471.4774, 163.0988
471.9595, 162.5967
472.4416, 161.9298
472.9237, 161.5013
473.4059, 162.1914
473.8880, 162.7200
474.3701, 161.6811
474.8522, 158.8784
475.3343, 155.9391
475.8164, 153.8998
476.2986, 152.5169
476.7807, 151.2600
477.2628, 150.1345
477.7449, 148.8134
478.2270, 146.9294
478.7091, 144.6210
479.1913, 142.5313
479.6734, 140.6880
480.1555, 139.0759
480.6376, 137.8427
481.1197, 136.8206
481.6018, 135.6499
482.0839, 134.2113
482.5660, 132.6238
483.0482, 131.0177
483.5303, 129.3491
484.0124, 127.8711
484.4945, 126.5319
484.9766, 125.4201
485.4587, 124.6663
485.9409, 124.1741
486.4230, 123.7767
486.9051, 123.3964
487.3872, 122.9335
487.8693, 122.0889
488.3514, 120.6571
488.8336, 119.1994
489.3157, 117.5102
489.7978, 116.0067
490.2799, 115.0449
490.7620, 114.5784
491.2441, 114.2851
491.7263, 114.0196
492.2084, 113.7102
492.6905, 112.9060
493.1726, 111.2943
493.6547, 109.9481
494.1368, 109.6099
494.6190, 109.6222
495.1011, 109.2973
495.5832, 108.4762
496.0653, 107.6431
496.5474, 107.2449
497.0295, 107.1311
497.5117, 106.8096
497.9938, 106.1566
498.4759, 105.5145
498.9580, 105.2112
499.4401, 105.1719
499.9222, 104.9817
500.4044, 104.4364
500.8865, 103.9185
501.3686, 103.7069
501.8507, 103.6530
502.3328, 103.3617
502.8149, 102.6859
503.2971, 102.0264
503.7792, 101.9789
504.2613, 102.7645
504.7434, 103.4004
505.2255, 104.1927
505.7076, 104.5574
506.1898, 103.8262
506.6719, 102.4965
507.1540, 101.6029
507.6361, 101.7026
508.1182, 102.3731
508.6003, 102.6207
509.0825, 102.2494
509.5646, 101.9817
510.0467, 101.9947
510.5288, 102.0362
511.0109, 101.9667
511.4930, 101.7998
511.9752, 101.6380
512.4573, 101.6150
512.9394, 101.5948
513.4215, 101.1761
513.9036, 100.2678
514.3857, 99.53505
514.8679, 99.33907
515.3500, 99.37088
515.8321, 99.14285
516.3142, 98.58508
516.7963, 98.32961
517.2784, 98.94370
517.7606, 99.88221
518.2427, 100.4294
518.7248, 100.5186
519.2069, 100.2625
519.6890, 99.60793
520.1711, 98.71293
520.6533, 98.40885
521.1354, 99.40466
521.6175, 99.95132
522.0996, 99.32681
522.5817, 98.36990
523.0638, 97.90078
523.5460, 98.05661
524.0281, 98.54087
524.5102, 99.13545
524.9923, 99.82616
525.4744, 100.1093
525.9565, 99.58496
526.4387, 99.15928
526.9208, 99.05708
527.4029, 99.11611
527.8850, 99.17410
528.3671, 99.18774
528.8492, 99.19791
529.3314, 99.19505
529.8135, 99.19842
530.2956, 99.47758
530.7777, 100.2783
531.2598, 100.8728
531.7419, 100.5739
532.2241, 99.81892
532.7062, 99.31509
533.1883, 99.33067
533.6704, 99.32898
534.1525, 98.85120
534.6346, 98.09067
535.1168, 97.40563
535.5989, 96.84946
536.0810, 96.70296
536.5631, 97.41303
537.0452, 99.03471
537.5273, 99.91132
538.0095, 99.47151
538.4916, 98.99910
538.9737, 99.09558
539.4558, 99.41562
539.9379, 99.34157
540.4200, 98.69913
540.9022, 97.94389
541.3843, 97.74842
541.8664, 98.24446
542.3485, 98.55614
542.8306, 98.50937
543.3127, 98.45804
543.7948, 98.65079
544.2769, 98.86902
544.7590, 98.71721
545.2411, 98.01041
545.7233, 97.19120
546.2054, 96.75391
546.6875, 96.69136
547.1696, 96.98350
547.6517, 97.79944
548.1339, 98.63876
548.6160, 99.16134
549.0981, 99.38287
549.5802, 99.25571
550.0623, 98.18583
550.5444, 97.38566
551.0266, 98.03256
551.5087, 99.50529
551.9908, 100.2968
552.4729, 99.93362
552.9550, 99.18009
553.4371, 98.98635
553.9193, 99.47402
554.4014, 99.79692
554.8835, 99.89051
555.3656, 99.91807
555.8477, 99.83708
556.3298, 99.76225
556.8120, 99.88852
557.2941, 100.2791
557.7762, 100.7448
558.2583, 101.0508
558.7404, 101.2009
559.2225, 101.1263
559.7047, 100.5615
560.1868, 100.1207
560.6689, 100.2998
561.1510, 100.7298
561.6331, 100.6972
562.1152, 99.79169
562.5974, 98.93568
563.0795, 99.21469
563.5616, 100.2865
564.0437, 100.9089
564.5258, 100.8194
565.0079, 100.3139
565.4901, 99.44289
565.9722, 98.28068
566.4543, 97.86752
566.9364, 98.94139
567.4185, 99.91465
567.9006, 100.0388
568.3828, 99.75074
568.8649, 99.74559
569.3470, 100.1758
569.8291, 100.5732
570.3112, 100.3019
570.7933, 99.28431
571.2755, 99.01309
571.7576, 100.3752
572.2397, 101.3777
572.7218, 101.3587
573.2039, 100.8388
573.6860, 100.3009
574.1682, 99.87823
574.6503, 99.73381
575.1324, 100.2330
575.6145, 101.1822
576.0966, 101.7358
576.5787, 101.8336
577.0609, 101.5398
577.5430, 100.5512
578.0251, 99.30424
578.5072, 98.86165
578.9893, 99.60323
579.4714, 100.3393
579.9536, 100.5582
580.4357, 100.5542
580.9178, 100.7872
581.3999, 101.2519
581.8820, 101.4179
582.3641, 100.7846
582.8463, 99.59196
583.3284, 99.25851
583.8105, 100.8377
584.2926, 101.7549
584.7747, 101.3598
585.2568, 100.6185
585.7390, 100.1595
586.2211, 100.0723
586.7032, 100.2364
587.1853, 100.6544
587.6674, 101.1986
588.1495, 101.5118
588.6317, 101.5718
589.1138, 101.5384
589.5959, 101.4520
590.0780, 101.2990
590.5601, 100.9477
591.0422, 100.4027
591.5244, 100.2467
592.0065, 101.0622
592.4886, 102.0252
592.9707, 102.3693
593.4528, 102.1973
593.9349, 101.9291
594.4171, 101.7362
594.8992, 101.6313
595.3813, 101.6363
595.8634, 101.7580
596.3455, 101.9791
596.8276, 102.5569
597.3098, 102.9512
597.7919, 102.8096
598.2740, 102.3617
598.7561, 101.9820
599.2382, 101.8200
599.7203, 101.8181
600.2025, 101.9541
600.6846, 102.2226
601.1667, 102.3920
601.6488, 102.4343
602.1309, 102.3866
602.6130, 102.2982
603.0952, 102.1335
603.5773, 101.7668
604.0594, 100.9638
604.5415, 100.3709
605.0236, 100.4395
605.5057, 100.8789
605.9879, 101.2411
606.4700, 101.4577
606.9521, 101.7283
607.4342, 102.2362
607.9163, 102.9342
608.3984, 103.4761
608.8806, 103.8642
609.3627, 104.0687
609.8448, 103.8125
610.3269, 103.5813
610.8090, 103.8643
611.2911, 104.5862
611.7733, 105.2260
612.2554, 105.4367
612.7375, 105.3090
613.2196, 104.8482
613.7017, 103.9581
614.1838, 103.8616
614.6660, 105.5007
615.1481, 107.3890
615.6302, 107.5403
616.1123, 106.0961
616.5944, 105.1207
617.0765, 105.3826
617.5587, 105.9128
618.0408, 106.1171
618.5229, 106.0821
619.0050, 106.0252
619.4871, 106.0253
619.9692, 106.0961
620.4514, 106.2645
620.9335, 106.5452
621.4156, 106.8127
621.8977, 106.9605
622.3798, 107.2272
622.8619, 107.8924
623.3441, 108.5977
623.8262, 108.9238
624.3083, 108.7728
624.7904, 108.3744
625.2725, 107.7395
625.7546, 107.0255
626.2367, 106.6785
626.7188, 106.7319
627.2009, 107.0381
627.6830, 107.5954
628.1652, 108.2992
628.6473, 108.9364
629.1294, 109.5345
629.6115, 109.9984
630.0936, 110.3623
630.5757, 110.5487
631.0579, 110.3292
631.5400, 109.8888
632.0221, 109.7196
632.5042, 110.0790
632.9863, 110.6679
633.4684, 110.8563
633.9506, 110.4853
634.4327, 110.5283
634.9148, 111.3736
635.3969, 112.2096
635.8790, 112.7327
636.3611, 112.9538
636.8433, 112.8113
637.3254, 112.1366
637.8075, 111.5959
638.2896, 111.8798
638.7717, 112.5776
639.2538, 112.7858
639.7360, 112.4021
640.2181, 112.1778
640.7002, 112.6821
641.1823, 113.7265
641.6644, 114.5493
642.1465, 114.9842
642.6287, 115.4109
643.1108, 116.0319
643.5929, 116.4774
644.0750, 116.2518
644.5571, 115.6289
645.0392, 115.4300
645.5214, 116.1981
646.0035, 117.3232
646.4856, 117.6580
646.9677, 117.2070
647.4498, 117.1627
647.9319, 117.9344
648.4141, 118.7255
648.8962, 118.7387
649.3783, 118.2085
649.8604, 118.0256
650.3425, 118.4837
650.8246, 118.9897
651.3068, 119.2562
651.7889, 119.4699
652.2710, 119.9977
652.7531, 120.7914
653.2352, 121.2619
653.7173, 120.8652
654.1995, 119.9165
654.6816, 119.8408
655.1637, 121.2180
655.6458, 122.0793
656.1279, 121.4684
656.6100, 120.7959
657.0922, 120.8978
657.5743, 121.6407
658.0564, 122.4587
658.5385, 123.3184
659.0206, 123.9139
659.5027, 123.8183
659.9849, 123.2250
660.4670, 122.6868
660.9491, 122.3335
661.4312, 121.9369
661.9133, 121.1971
662.3954, 120.1824
662.8776, 119.8775
663.3597, 121.0171
663.8418, 121.9138
664.3239, 122.5729
664.8060, 122.8101
665.2881, 122.2080
665.7703, 120.9874
666.2524, 119.9744
666.7345, 119.6804
667.2166, 119.9035
667.6987, 120.4958
668.1808, 121.4330
668.6630, 121.6956
669.1451, 120.8027
669.6272, 119.7529
670.1093, 119.5848
670.5914, 120.2181
671.0735, 120.5139
671.5557, 120.1712
672.0378, 119.8350
672.5199, 119.7261
673.0020, 119.7207
673.4841, 119.7847
673.9662, 119.8387
674.4484, 119.6123
674.9305, 118.8285
675.4126, 117.7118
675.8947, 116.9813
676.3768, 116.6537
676.8589, 116.6667
677.3411, 117.2764
677.8232, 117.9286
678.3053, 118.2513
678.7874, 118.2632
679.2695, 118.0004
679.7516, 117.2315
680.2338, 116.4942
680.7159, 116.0435
681.1980, 115.8527
681.6801, 115.9571
682.1622, 116.3211
682.6443, 116.6977
683.1265, 116.8821
683.6086, 116.9147
684.0907, 116.9946
684.5728, 117.1306
685.0549, 117.2916
685.5370, 117.5706
686.0192, 117.7837
686.5013, 117.7181
686.9834, 117.4928
687.4655, 117.4890
687.9476, 118.0356
688.4297, 118.5052
688.9119, 118.0297
689.3940, 117.1039
689.8761, 116.9647
690.3582, 117.8174
690.8403, 118.9350
691.3224, 119.8216
691.8046, 120.4632
692.2867, 120.7855
692.7688, 120.3911
693.2509, 120.3234
693.7330, 120.6983
694.2151, 121.3198
694.6973, 122.3292
695.1794, 123.4723
695.6615, 124.1347
696.1436, 123.9314
696.6257, 123.5903
697.1078, 123.8705
697.5900, 124.6780
698.0721, 125.8121
698.5542, 127.2714
699.0363, 128.5738
699.5184, 129.3991
700.0005, 129.8139
700.4827, 130.0312
700.9648, 129.8178
701.4469, 129.7855
701.9290, 129.7424
702.4111, 130.0692
702.8932, 131.5585
703.3754, 133.4862
703.8575, 134.2348
704.3396, 133.0582
704.8217, 131.5814
705.3038, 131.9651
705.7859, 133.8001
706.2681, 135.0781
706.7502, 135.5662
707.2323, 136.0022
707.7144, 136.7794
708.1965, 137.7839
708.6786, 138.8100
709.1607, 140.0190
709.6428, 140.7820
710.1249, 140.7791
710.6071, 140.6013
711.0892, 140.5446
711.5713, 140.5588
712.0534, 140.4367
712.5355, 140.1271
713.0176, 139.9759
713.4998, 140.5345
713.9819, 141.6298
714.4640, 142.3696
714.9461, 142.7448
715.4282, 142.6740
715.9103, 141.8050
716.3925, 140.8208
716.8746, 141.0090
717.3567, 142.5830
717.8388, 143.3260
718.3209, 142.3382
718.8030, 141.2601
719.2852, 140.7350
719.7673, 140.6496
720.2494, 140.9826
720.7315, 141.6199
721.2136, 142.0264
721.6957, 141.6257
722.1779, 140.6438
722.6600, 139.8291
723.1421, 139.1584
723.6242, 138.8338
724.1063, 139.0193
724.5884, 139.4100
725.0706, 139.8009
725.5527, 140.1674
726.0348, 140.1443
726.5169, 139.4728
726.9990, 138.7049
727.4811, 137.9693
727.9633, 137.2651
728.4454, 136.6204
728.9275, 136.0171
729.4096, 135.3840
729.8917, 134.6727
730.3738, 133.9037
730.8560, 133.0380
731.3381, 132.0662
731.8202, 131.4483
732.3023, 131.3720
732.7844, 131.3976
733.2665, 131.3683
733.7487, 131.1630
734.2308, 130.3451
734.7129, 128.3185
735.1950, 126.8196
735.6771, 126.4430
736.1592, 126.5108
736.6414, 126.6857
737.1235, 126.8280
737.6056, 126.7417
738.0877, 126.3320
738.5698, 125.8258
739.0519, 125.4308
739.5341, 125.1781
740.0162, 125.5224
740.4983, 126.6954
740.9804, 127.4286
741.4625, 126.8783
741.9446, 125.7152
742.4268, 125.2124
742.9089, 125.5191
743.3910, 125.6329
743.8731, 125.0241
744.3552, 124.6909
744.8373, 125.4393
745.3195, 126.6182
745.8016, 127.3277
746.2837, 127.3545
746.7658, 127.0479
747.2479, 126.5276
747.7300, 126.0010
748.2122, 126.1060
748.6943, 126.8521
749.1764, 127.7184
749.6585, 128.6166
750.1406, 129.4260
750.6227, 129.9359
751.1049, 130.1672
751.5870, 130.8535
752.0691, 132.6704
752.5512, 133.9922
753.0333, 133.9644
753.5154, 133.7782
753.9976, 134.4747
754.4797, 135.9380
754.9618, 137.4271
755.4439, 138.5433
755.9260, 139.6272
756.4081, 141.1799
756.8903, 143.0945
757.3724, 144.9842
757.8545, 146.8236
758.3366, 148.1852
758.8187, 148.4871
759.3008, 148.5767
759.7830, 150.6927
760.2651, 156.3077
760.7472, 160.4859
761.2293, 161.9991
761.7114, 163.5355
762.1935, 166.3349
762.6757, 169.7370
763.1578, 172.7930
763.6399, 175.2873
764.1220, 177.7360
764.6041, 180.4806
765.0862, 183.4197
765.5684, 186.3569
766.0505, 189.3471
766.5326, 192.6278
767.0147, 196.3002
767.4968, 200.0275
767.9789, 203.3481
768.4611, 206.3258
768.9432, 209.8988
769.4253, 214.2434
769.9074, 218.9212
770.3895, 224.2555
770.8716, 229.5513
771.3538, 234.1954
771.8359, 238.3602
772.3180, 242.6743
772.8001, 247.4004
773.2822, 252.1803
773.7643, 256.6000
774.2465, 260.9837
774.7286, 265.9070
775.2107, 271.3221
775.6928, 276.6941
776.1749, 281.7520
776.6570, 286.6066
777.1392, 291.3820
777.6213, 296.0297
778.1034, 301.0406
778.5855, 306.4932
779.0676, 312.1808
779.5497, 318.0717
780.0319, 324.1058
780.5140, 330.2669
780.9961, 336.6376
781.4782, 342.4956
781.9603, 346.9119
782.4424, 351.5673
782.9246, 357.8194
783.4067, 364.7855
783.8888, 371.0422
784.3709, 376.3949
784.8530, 381.7129
785.3351, 387.6836
785.8173, 394.0971
786.2994, 400.2791
786.7815, 406.2048
787.2636, 412.8622
787.7457, 420.7042
788.2278, 428.3295
788.7100, 434.3003
789.1921, 439.2430
789.6742, 445.5880
790.1563, 454.5909
790.6384, 462.6704
791.1205, 468.6328
791.6026, 474.6457
792.0847, 482.6472
792.5668, 491.3136
793.0490, 498.1742
793.5311, 502.5196
794.0132, 506.6336
794.4953, 512.9053
794.9774, 519.9371
795.4595, 525.1372
795.9417, 528.6879
796.4238, 531.8591
796.9059, 535.0881
797.3880, 537.9376
797.8701, 539.9918
798.3522, 541.2307
798.8344, 541.1739
799.3165, 538.7024
799.7986, 537.0711
800.2807, 537.0357
800.7628, 537.7776
801.2449, 538.6246
801.7271, 539.8928
802.2092, 542.4130
802.6913, 546.2679
803.1734, 551.6400
803.6555, 559.0202
804.1376, 567.6505
804.6198, 576.5710
805.1019, 585.9643
805.5840, 596.3926
806.0661, 608.0768
806.5482, 622.0654
807.0303, 640.2919
807.5125, 662.3321
807.9946, 683.5585
808.4767, 703.6585
808.9588, 725.1572
809.4409, 748.5383
809.9230, 774.0665
810.4052, 802.3504
810.8873, 833.4196
811.3694, 864.8954
811.8515, 896.2166
812.3336, 928.5151
812.8157, 962.4856
813.2979, 997.0102
813.7800, 1030.432
814.2621, 1063.366
814.7442, 1097.838
815.2263, 1134.783
815.7084, 1172.472
816.1906, 1208.329
816.6727, 1243.586
817.1548, 1281.534
817.6369, 1321.848
818.1190, 1360.436
818.6011, 1395.367
819.0833, 1428.952
819.5654, 1464.669
820.0475, 1502.704
820.5296, 1539.039
821.0117, 1573.758
821.4938, 1607.199
821.9760, 1640.670
822.4581, 1671.618
822.9402, 1699.010
823.4223, 1722.275
823.9044, 1738.660
824.3865, 1747.009
824.8687, 1749.256
825.3508, 1745.833
825.8329, 1736.926
826.3150, 1723.050
826.7971, 1703.862
827.2792, 1678.022
827.7614, 1644.792
828.2435, 1606.712
828.7256, 1566.156
829.2077, 1523.296
829.6898, 1478.350
830.1719, 1431.578
830.6541, 1384.207
831.1362, 1336.716
831.6183, 1289.152
832.1004, 1241.028
832.5825, 1192.617
833.0646, 1145.315
833.5468, 1100.168
834.0289, 1055.011
834.5110, 1009.035
834.9931, 963.8552
835.4752, 919.0980
835.9573, 875.8206
836.4395, 836.2336
836.9216, 801.5577
837.4037, 768.4358
837.8858, 734.0073
838.3679, 700.8973
838.8500, 672.2178
839.3322, 647.1054
839.8143, 623.0900
840.2964, 599.3185
840.7785, 576.1828
841.2606, 554.3460
841.7427, 533.6944
842.2249, 513.8771
842.7070, 494.9803
843.1891, 477.2889
843.6712, 461.1802
844.1533, 445.7053
844.6354, 429.9902
845.1176, 414.3270
845.5997, 400.2950
846.0818, 389.2487
846.5639, 377.8055
847.0460, 365.1496
847.5281, 352.9556
848.0103, 341.6404
848.4924, 331.3913
848.9745, 322.6017
849.4566, 315.3470
849.9387, 308.3932
850.4208, 300.6441
850.9030, 293.2921
851.3851, 287.3761
851.8672, 282.6253
852.3493, 278.7644
852.8314, 275.5755
853.3135, 272.1704
853.7957, 267.7859
854.2778, 263.1832
854.7599, 260.1914
855.2420, 258.7782
855.7241, 257.8131
856.2062, 257.2951
856.6884, 256.6435
857.1705, 255.4109
857.6526, 254.0451
858.1347, 253.4420
858.6168, 253.8804
859.0989, 253.8166
859.5811, 252.4347
860.0632, 251.6141
860.5453, 252.3200
861.0274, 253.3532
861.5095, 253.6977
861.9916, 253.3592
862.4738, 252.7890
862.9559, 251.9440
863.4380, 251.2884
863.9201, 251.6102
864.4022, 251.9668
864.8843, 251.0629
865.3665, 249.1110
865.8486, 247.0923
866.3307, 245.4300
866.8128, 243.9248
867.2949, 242.5189
867.7770, 241.0722
868.2592, 238.9924
868.7413, 236.2828
869.2234, 232.7494
869.7055, 228.2057
870.1876, 223.3479
870.6697, 218.9271
871.1519, 214.7598
871.6340, 209.7920
872.1161, 203.1270
872.5981, 197.3824
873.0803, 193.6824
873.5624, 189.8724
874.0445, 184.6880
874.5266, 179.0336
875.0087, 174.1736
875.4908, 170.3255
875.9730, 166.6801
876.4551, 163.0830
876.9372, 159.5040
877.4193, 155.7260
877.9014, 152.0678
878.3835, 149.0392
878.8657, 146.5967
879.3478, 144.2487
879.8299, 141.7395
880.3120, 139.0455
880.7941, 135.7424
881.2762, 132.2489
881.7584, 130.2502
882.2405, 129.7321
882.7226, 128.7757
883.2047, 126.4754
883.6868, 123.8767
884.1689, 122.4838
884.6511, 122.2419
885.1332, 121.4546
885.6153, 119.9519
886.0974, 118.3498
886.5795, 116.6452
887.0616, 115.0259
887.5438, 113.6454
888.0259, 112.4512
888.5080, 111.2992
888.9901, 110.3120
889.4722, 109.0632
889.9543, 107.1213
890.4365, 105.2986
890.9186, 104.1188
891.4007, 103.2723
891.8828, 102.2638
892.3649, 101.0568
892.8470, 100.1329
893.3292, 100.0156
893.8113, 99.97571
894.2934, 99.27950
894.7755, 98.19107
895.2576, 97.04239
895.7397, 95.95933
896.2219, 95.25609
896.7040, 95.11759
897.1861, 94.99792
897.6682, 93.88261
898.1503, 91.96330
898.6324, 90.84982
899.1146, 90.60818
899.5967, 90.24581
900.0788, 89.40142
900.5609, 88.55469
901.0430, 88.19637
901.5251, 88.24100
902.0073, 88.15262
902.4894, 87.83782
902.9715, 87.58129
903.4536, 87.50359
903.9357, 87.35888
904.4178, 86.90295
904.9000, 86.38539
905.3821, 86.27335
905.8642, 86.64043
906.3463, 86.57932
906.8284, 85.30207
907.3105, 84.23904
907.7927, 84.38673
908.2748, 84.83987
908.7569, 84.54395
909.2390, 83.64053
909.7211, 82.95400
910.2032, 82.85701
910.6854, 83.03044
911.1675, 83.38277
911.6496, 83.70226
912.1317, 83.57206
912.6138, 83.08765
913.0959, 82.63014
913.5781, 82.31493
914.0602, 81.98701
914.5423, 81.43967
915.0244, 80.86978
915.5065, 81.03116
915.9886, 81.93359
916.4708, 82.27316
916.9529, 81.80961
917.4350, 81.19183
917.9171, 80.67686
918.3992, 80.39777
918.8813, 80.66195
919.3635, 81.60270
919.8456, 82.08592
920.3277, 82.07285
920.8098, 81.66520
921.2919, 80.11039
921.7740, 78.86559
922.2562, 79.52695
922.7383, 81.31031
923.2204, 81.70923
923.7025, 79.57742
924.1846, 78.28159
924.6667, 79.53597
925.1489, 80.92545
925.6310, 80.89246
926.1131, 80.14054
926.5952, 79.70569
927.0773, 79.73627
927.5594, 79.74014
928.0416, 79.28597
928.5237, 78.96491
929.0058, 79.62664
929.4879, 80.61137
929.9700, 80.85107
930.4521, 80.38338
930.9343, 79.71000
931.4164, 79.05881
931.8985, 78.58518
932.3806, 78.49324
932.8627, 78.71939
933.3448, 79.20850
933.8270, 79.90423
934.3091, 80.10989
934.7912, 79.65579
935.2733, 79.05552
935.7554, 78.67152
936.2375, 78.38918
936.7197, 77.87612
937.2018, 77.01726
937.6839, 76.63460
938.1660, 76.95769
938.6481, 77.14501
939.1302, 76.66669
939.6124, 76.26933
940.0945, 76.96693
940.5766, 78.56784
941.0587, 79.26383
941.5408, 78.28385
942.0229, 77.61696
942.5051, 77.50343
942.9872, 77.55702
943.4693, 77.57760
943.9514, 77.65685
944.4335, 78.05467
944.9156, 78.77206
945.3978, 79.13810
945.8799, 78.56640
946.3620, 78.02766
946.8441, 78.40123
947.3262, 78.76194
947.8083, 77.66943
948.2905, 75.78519
948.7726, 75.13560
949.2547, 76.47958
949.7368, 78.02213
950.2189, 78.23522
950.7010, 77.80774
951.1832, 77.49541
951.6653, 77.34187
952.1474, 77.57870
952.6295, 78.12112
953.1116, 78.16586
953.5938, 77.11455
954.0759, 75.86519
954.5580, 76.12164
955.0400, 77.55252
955.5222, 78.45430
956.0043, 78.76826
956.4864, 78.53748
956.9685, 77.71163
957.4506, 76.98416
957.9327, 77.09284
958.4149, 77.78519
958.8970, 77.93785
959.3791, 77.39684
959.8612, 77.12601
960.3433, 77.31921
960.8254, 77.42710
961.3076, 77.09708
961.7897, 76.68340
962.2718, 76.72012
962.7539, 77.22067
963.2360, 77.45018
963.7181, 77.31079
964.2003, 77.04577
964.6824, 76.12608
965.1645, 75.66908
965.6466, 76.88067
966.1287, 78.70692
966.6108, 79.17631
967.0930, 77.94894
967.5751, 77.18732
968.0572, 77.79123
968.5393, 78.37939
969.0214, 78.39951
969.5035, 78.17034
969.9857, 77.93987
970.4678, 77.73369
970.9499, 77.55214
971.4320, 77.41892
971.9141, 77.12630
972.3962, 76.21793
972.8784, 75.42185
973.3605, 75.28495
973.8426, 75.74798
974.3247, 77.17623
974.8068, 79.16188
975.2889, 79.99944
975.7711, 78.56204
976.2532, 76.68571
976.7353, 76.71939
977.2174, 77.57128
977.6995, 76.99606
978.1816, 75.38182
978.6638, 74.49136
979.1459, 74.76228
979.6280, 75.37663
980.1101, 75.73573
980.5922, 75.81651
981.0743, 75.40913
981.5565, 74.63350
982.0386, 74.31866
982.5207, 74.50648
983.0028, 74.47128
983.4849, 73.92281
983.9670, 73.11543
984.4492, 72.22382
984.9313, 71.41075
985.4134, 71.68781
985.8955, 73.32905
986.3776, 73.84107
986.8597, 72.65364
987.3419, 71.55492
987.8240, 71.42820
988.3061, 71.79175
988.7882, 71.96021
989.2703, 71.93510
989.7524, 72.24120
990.2346, 73.35704
990.7167, 73.71583
991.1988, 72.73535
991.6809, 71.50420
992.1630, 70.32725
992.6451, 69.44518
993.1273, 69.48595
993.6094, 70.66579
994.0915, 71.17659
994.5736, 70.18550
995.0557, 69.65367
995.5378, 70.29057
996.0200, 71.16628
996.5021, 71.94590
996.9842, 72.42457
997.4663, 72.05453
997.9484, 70.56446
998.4305, 69.74596
998.9127, 70.94112
999.3948, 71.77785
999.8769, 70.82832
1000.359, 69.39651
1000.841, 68.57674
1001.323, 68.37089
1001.805, 68.48865
1002.287, 68.89137
1002.770, 69.27539
1003.252, 69.35296
1003.734, 69.49604
1004.216, 70.24853
1004.698, 71.06647
1005.180, 71.13192
1005.662, 70.54202
1006.144, 70.00249
1006.627, 69.81703
1007.109, 69.72499
1007.591, 69.52554
1008.073, 69.29183
1008.555, 69.13035
1009.037, 68.99332
1009.519, 68.73148
1010.001, 68.36887
1010.483, 68.11574
1010.966, 68.08931
1011.448, 68.24723
1011.930, 68.71226
1012.412, 69.24149
1012.894, 69.22336
1013.376, 68.84435
1013.858, 68.91183
1014.340, 69.51778
1014.823, 69.73875
1015.305, 68.85145
1015.787, 67.66383
1016.269, 67.68324
1016.751, 68.53121
1017.233, 68.80273
1017.715, 68.48290
1018.197, 67.78661
1018.679, 66.79518
1019.162, 66.14314
1019.644, 66.37794
1020.126, 67.18985
1020.608, 68.13105
1021.090, 69.12337
1021.572, 68.81771
1022.054, 67.10934
1022.536, 66.19744
1023.018, 66.85924
1023.501, 67.83709
1023.983, 68.00904
1024.465, 67.62740
1024.947, 67.48151
1025.429, 67.59728
1025.911, 67.63567
1026.393, 67.56904
1026.875, 67.50637
1027.358, 67.48193
1027.840, 67.50195
1028.322, 67.63485
1028.804, 67.76566
1029.286, 67.31874
1029.768, 65.99020
1030.250, 65.37029
1030.732, 65.65878
1031.214, 66.28146
1031.697, 67.40142
1032.179, 68.09950
1032.661, 67.15316
1033.143, 65.04290
1033.625, 64.27773
1034.107, 65.62265
1034.589, 66.37770
1035.071, 66.26166
1035.553, 66.01488
1036.036, 65.70529
1036.518, 65.59814
1037.000, 66.16350
1037.482, 67.20419
1037.964, 67.54110
1038.446, 66.53027
1038.928, 66.08414
1039.410, 66.66658
1039.893, 67.18637
1040.375, 67.25974
1040.857, 67.12737
1041.339, 66.94449
1041.821, 66.74233
1042.303, 66.72617
1042.785, 67.37202
1043.267, 67.28011
1043.750, 65.35088
1044.232, 63.97435
1044.714, 64.48947
1045.196, 65.55374
1045.678, 65.94912
1046.160, 65.72825
1046.642, 65.32201
1047.124, 64.32830
1047.606, 64.15261
1048.089, 66.05236
1048.571, 67.48649
1049.053, 66.92220
1049.535, 65.82032
1050.017, 65.58733
1050.499, 66.13271
1050.981, 66.79069
1051.463, 67.82313
1051.945, 67.96795
1052.428, 65.78307
1052.910, 64.08062
1053.392, 64.83894
1053.874, 66.13342
1054.356, 65.77882
1054.838, 64.20406
1055.320, 63.44952
1055.802, 64.21864
1056.285, 64.79130
1056.767, 64.36037
1057.249, 64.00671
1057.731, 64.53136
1058.213, 65.17038
1058.695, 64.95850
1059.177, 64.18553
1059.659, 63.92200
1060.141, 64.50721
1060.624, 65.16159
1061.106, 65.88884
1061.588, 66.28870
1062.070, 65.93642
1062.552, 65.33784
1063.034, 64.86024
1063.516, 64.59863
1063.998, 64.70794
1064.480, 65.28810
1064.963, 65.72887
1065.445, 65.87351
1065.927, 65.71453
1066.409, 64.81760
1066.891, 63.97150
1067.373, 64.11193
1067.855, 64.89901
1068.337, 65.43768
1068.820, 65.51353
1069.302, 65.34832
1069.784, 64.76567
1070.266, 64.30202
1070.748, 64.38792
1071.230, 64.58941
1071.712, 64.54009
1072.194, 64.26934
1072.677, 63.86338
1073.159, 63.35054
1073.641, 62.98749
1074.123, 62.83260
1074.605, 62.92388
1075.087, 63.63154
1075.569, 64.27225
1076.051, 64.08612
1076.533, 63.45263
1077.016, 63.10741
1077.498, 63.18557
1077.980, 63.40356
1078.462, 63.80595
1078.944, 64.08496
1079.426, 64.07275
1079.908, 63.89876
1080.390, 63.51124
1080.872, 63.11475
1081.354, 63.08697
1081.837, 63.41557
1082.319, 63.57483
1082.801, 63.24127
1083.283, 62.95057
1083.765, 63.01028
1084.247, 63.14352
1084.729, 63.15127
1085.211, 63.10359
1085.694, 63.19470
1086.176, 63.36332
1086.658, 63.19273
1087.140, 62.31532
1087.622, 61.74269
1088.104, 62.28551
1088.586, 62.83144
1089.068, 62.43995
1089.551, 61.82475
1090.033, 61.96463
1090.515, 62.68742
1090.997, 63.06445
1091.479, 62.76725
1091.961, 62.49465
1092.443, 62.66941
1092.925, 62.74169
1093.407, 62.16088
1093.890, 61.56085
1094.372, 61.72165
1094.854, 62.35070
1095.336, 62.60828
1095.818, 62.29078
1096.300, 61.92794
1096.782, 61.53263
1097.264, 61.32745
1097.746, 61.53731
1098.229, 61.83861
1098.711, 61.96167
1099.193, 61.99254
1099.675, 62.13652
1100.157, 62.42207
1100.639, 62.66232
1101.121, 63.06868
1101.603, 63.05342
1102.086, 62.02692
1102.568, 60.99224
1103.050, 60.58842
1103.532, 60.55356
1104.014, 60.48521
1104.496, 60.36785
1104.978, 60.42190
1105.460, 60.70049
1105.943, 61.12555
1106.425, 62.07497
1106.907, 62.70003
1107.389, 62.31205
1107.871, 61.64620
1108.353, 61.60088
1108.835, 61.23092
1109.317, 60.78913
1109.799, 60.86477
1110.281, 60.21250
1110.764, 60.04397
1111.246, 60.27636
1111.728, 61.52098
1112.210, 62.57618
1112.692, 62.15486
1113.174, 60.88535
1113.656, 60.39811
1114.138, 60.83793
1114.621, 61.42790
1115.103, 62.75112
1115.585, 63.23640
1116.067, 61.91812
1116.549, 60.66824
1117.031, 60.80755
1117.513, 61.48274
1117.995, 61.22810
1118.478, 60.02902
1118.960, 59.40403
1119.442, 59.64027
1119.924, 59.75222
1120.406, 59.46702
1120.888, 59.47193
1121.370, 60.23837
1121.852, 61.16264
1122.334, 61.58742
1122.817, 61.55163
1123.299, 61.18604
1123.781, 60.27290
1124.263, 60.00836
1124.745, 60.65667
1125.227, 61.08234
1125.709, 60.89747
1126.191, 60.51546
1126.673, 60.24688
1127.156, 60.07467
1127.638, 59.88485
1128.120, 59.65480
1128.602, 60.31063
1129.084, 62.01550
1129.566, 62.76743
1130.048, 62.07212
1130.530, 61.24227
1131.013, 61.02734
1131.495, 61.13567
1131.977, 61.17223
1132.459, 61.13745
1132.941, 60.94940
1133.423, 60.64024
1133.905, 60.77972
1134.387, 61.39932
1134.870, 61.78852
1135.352, 61.66716
1135.834, 61.26766
1136.316, 60.74820
1136.798, 60.27581
1137.280, 60.31229
1137.762, 60.68461
1138.244, 60.78326
1138.726, 60.61699
1139.208, 60.29166
1139.691, 59.89864
1140.173, 59.94652
1140.655, 60.82141
1141.137, 61.64312
1141.619, 60.92445
1142.101, 59.64545
1142.583, 59.66323
1143.065, 60.47645
1143.548, 60.98700
1144.030, 61.07038
1144.512, 60.94087
1144.994, 60.70055
1145.476, 60.62551
1145.958, 61.16117
1146.440, 61.67425
1146.922, 61.36987
1147.405, 60.78557
1147.887, 60.61968
1148.369, 60.72145
1148.851, 60.61750
1149.333, 60.26445
1149.815, 60.10545
1150.297, 60.52871
1150.779, 60.68917
1151.261, 59.49212
1151.744, 58.50647
1152.226, 59.25776
1152.708, 60.60718
1153.190, 61.15736
1153.672, 61.01100
1154.154, 60.95617
1154.636, 61.16740
1155.118, 61.47481
1155.600, 62.43604
1156.083, 62.65482
1156.565, 60.75990
1157.047, 58.86690
1157.529, 58.50987
1158.011, 59.10490
1158.493, 59.71295
1158.975, 60.28047
1159.457, 60.84562
1159.940, 61.00216
1160.422, 60.81357
1160.904, 61.05239
1161.386, 60.11477
1161.868, 59.77458
1162.350, 59.80398
1162.832, 60.06568
1163.314, 60.50645
1163.796, 60.99857
1164.279, 61.62050
1164.761, 61.79789
1165.243, 61.35783
1165.725, 61.09306
1166.207, 61.20299
1166.689, 61.33227
1167.171, 61.26027
1167.653, 61.16526
1168.135, 61.36670
1168.618, 61.73387
1169.100, 61.34560
1169.582, 61.39012
1170.064, 61.38041
1170.546, 60.77218
1171.028, 61.08494
1171.510, 60.44246
1171.992, 59.84109
1172.474, 60.10025
1172.957, 60.77808
1173.439, 61.23463
1173.921, 61.44893
1174.403, 61.21541
1174.885, 60.70311
1175.367, 60.51629
1175.849, 60.67636
1176.331, 60.70559
1176.814, 60.40645
1177.296, 60.21320
1177.778, 60.55489
1178.260, 61.13928
1178.742, 61.88645
1179.224, 62.47400
1179.706, 62.32238
1180.188, 61.71460
1180.671, 61.24089
1181.153, 61.00824
1181.635, 60.80861
1182.117, 60.53892
1182.599, 60.34503
1183.081, 60.29133
1183.563, 60.35626
1184.045, 60.67865
1184.527, 60.98286
1185.010, 60.95602
1185.492, 60.70811
1185.974, 60.50982
1186.456, 60.39595
1186.938, 60.38285
1187.420, 60.81501
1187.902, 60.82709
1188.384, 59.53208
1188.866, 58.72845
1189.349, 59.65529
1189.831, 60.98558
1190.313, 61.33472
1190.795, 60.93618
1191.277, 60.68120
1191.759, 60.50808
1192.241, 60.85460
1192.723, 62.03951
1193.206, 62.55388
1193.688, 61.95980
1194.170, 61.15869
1194.652, 60.67073
1195.134, 60.23225
1195.616, 59.36123
1196.098, 59.55381
1196.580, 58.55374
1197.063, 59.85988
1197.545, 60.72003
1198.027, 61.03805
1198.509, 61.08391
1198.991, 60.96132
1199.473, 60.91258
1199.955, 61.13137
1200.437, 61.28074
1200.919, 60.73439
1201.401, 59.95118
1201.884, 59.67597
1202.366, 59.79956
1202.848, 60.28776
1203.330, 60.91793
1203.812, 61.05164
1204.294, 60.56762
1204.776, 60.30228
1205.258, 60.92584
1205.741, 61.53357
1206.223, 61.43371
1206.705, 61.21520
1207.187, 61.46381
1207.669, 61.76374
1208.151, 61.47423
1208.633, 60.76308
1209.115, 60.31792
1209.598, 60.28871
1210.080, 60.31474
1210.562, 60.50908
1211.044, 60.50450
1211.526, 59.72181
1212.008, 59.38095
1212.490, 60.49769
1212.972, 61.85386
1213.454, 61.92376
1213.937, 61.01006
1214.419, 60.56744
1214.901, 60.65105
1215.383, 61.03739
1215.865, 61.86635
1216.347, 62.02305
1216.829, 61.16608
1217.311, 60.47172
1217.793, 60.66747
1218.276, 61.00696
1218.758, 60.36163
1219.240, 60.59533
1219.722, 60.69076
1220.204, 60.42688
1220.686, 60.94608
1221.168, 60.96497
1221.650, 60.82771
1222.133, 60.67331
1222.615, 60.73687
1223.097, 61.19447
1223.579, 61.48805
1224.061, 60.78891
1224.543, 60.02662
1225.025, 60.14319
1225.507, 60.69184
1225.990, 61.47513
1226.472, 62.10443
1226.954, 61.66785
1227.436, 60.22348
1227.918, 59.67987
1228.400, 61.52507
1228.882, 62.31170
1229.364, 59.87543
1229.846, 58.02772
1230.328, 58.73874
1230.811, 60.10506
1231.293, 60.88496
1231.775, 61.17430
1232.257, 61.03057
1232.739, 60.46019
1233.221, 60.47357
1233.703, 61.31072
1234.185, 61.61406
1234.668, 61.18431
1235.150, 60.77270
1235.632, 60.62152
1236.114, 60.55256
1236.596, 60.40792
1237.078, 60.36502
1237.560, 60.86193
1238.042, 61.66314
1238.525, 62.06570
1239.007, 62.09108
1239.489, 61.65481
1239.971, 60.91875
1240.453, 60.44425
1240.935, 60.37518
1241.417, 60.38532
1241.899, 60.30025
1242.381, 60.13898
1242.864, 59.72113
1243.346, 59.44711
1243.828, 59.77828
1244.310, 60.33364
1244.792, 60.72681
1245.274, 60.96480
1245.756, 61.16005
1246.238, 61.32830
1246.720, 61.41281
1247.203, 61.36980
1247.685, 61.29904
1248.167, 61.22361
1248.649, 61.09050
1249.131, 60.81526
1249.613, 60.58287
1250.095, 60.51034
1250.577, 60.61513
1251.059, 60.99460
1251.542, 61.59628
1252.024, 61.77064
1252.506, 61.51994
1252.988, 61.01610
1253.470, 60.30463
1253.952, 59.86265
1254.434, 59.83343
1254.916, 59.99634
1255.399, 60.20842
1255.881, 60.45652
1256.363, 60.86452
1256.845, 61.17484
1257.327, 60.76274
1257.809, 60.16442
1258.291, 60.41214
1258.773, 60.04831
1259.255, 59.80622
1259.738, 60.09759
1260.220, 59.57048
1260.702, 60.01915
1261.184, 60.51878
1261.666, 60.96869
1262.148, 61.15538
1262.630, 60.88416
1263.112, 60.43018
1263.594, 59.80544
1264.077, 59.26746
1264.559, 59.25505
1265.041, 59.69476
1265.523, 59.95996
1266.005, 60.01589
1266.487, 60.04467
1266.969, 60.01714
1267.451, 60.42323
1267.934, 61.39956
1268.416, 62.07176
1268.898, 61.94584
1269.380, 61.38478
1269.862, 60.66154
1270.344, 60.04977
1270.826, 60.27082
1271.308, 59.82410
1271.791, 60.61895
1272.273, 60.05376
1272.755, 60.31569
1273.237, 61.29580
1273.719, 61.73497
1274.201, 61.16435
1274.683, 60.79658
1275.165, 61.56376
1275.647, 62.07711
1276.130, 61.69383
1276.612, 61.05349
1277.094, 60.02615
1277.576, 59.38343
1278.058, 60.42360
1278.540, 59.59895
1279.022, 59.47777
1279.504, 59.85568
1279.986, 59.11002
1280.469, 60.14756
1280.951, 60.99856
1281.433, 61.44045
1281.915, 61.49397
1282.397, 61.16478
1282.879, 60.80047
1283.361, 60.68247
1283.843, 60.63683
1284.326, 60.45915
1284.808, 60.14379
##END=



