##NAMES=Wendwilsonite
##RRUFFID=R100175
##IDEAL CHEMISTRY=Ca_2_Mg(As^5+^O_4_)_2_&#183;2H_2_O
##LOCALITY=Bou Azzer, Souss- Massa-Draa, Morocco
##OWNER=RRUFF
##SOURCE=University of Arizona Mineral Museum
##DESCRIPTION=Dark pink, bladed crystals
##STATUS=The identification of this mineral is confirmed by single-crystal X-ray diffraction and chemical analysis.
##URL=rruff.info/R100175
##MEASURED CHEMISTRY=Ca_2.017_(Mg_0.608_Co_0.266_Zn_0.069_Mn_0.005_)_Σ=0.995_(As_0.998_O_4_)_2_·2H_2_O
90.60547, 1715.023
91.08759, 1721.548
91.56970, 1739.059
92.05182, 1741.412
92.53394, 1746.713
93.01605, 1748.401
93.49817, 1747.447
93.98029, 1745.755
94.46240, 1740.261
94.94452, 1728.156
95.42664, 1714.675
95.90874, 1703.132
96.39086, 1694.005
96.87298, 1686.622
97.35509, 1679.072
97.83721, 1668.536
98.31933, 1659.702
98.80145, 1653.203
99.28356, 1648.004
99.76568, 1643.003
100.2478, 1637.833
100.7299, 1633.570
101.2120, 1633.220
101.6941, 1639.533
102.1763, 1646.897
102.6584, 1656.090
103.1405, 1665.867
103.6226, 1675.151
104.1047, 1683.823
104.5868, 1690.973
105.0690, 1690.508
105.5511, 1678.860
106.0332, 1664.765
106.5153, 1650.782
106.9974, 1637.200
107.4795, 1625.343
107.9617, 1616.699
108.4438, 1610.643
108.9259, 1604.810
109.4080, 1597.322
109.8901, 1590.386
110.3722, 1587.478
110.8544, 1589.692
111.3365, 1593.497
111.8186, 1597.447
112.3007, 1601.175
112.7828, 1603.829
113.2649, 1604.248
113.7471, 1602.657
114.2292, 1602.072
114.7113, 1602.516
115.1934, 1604.130
115.6755, 1607.872
116.1576, 1613.124
116.6397, 1618.006
117.1219, 1620.161
117.6040, 1617.938
118.0861, 1618.099
118.5682, 1621.186
119.0503, 1625.708
119.5324, 1630.803
120.0146, 1636.273
120.4967, 1642.510
120.9788, 1650.047
121.4609, 1657.737
121.9430, 1669.140
122.4251, 1687.237
122.9073, 1708.096
123.3894, 1728.582
123.8715, 1748.316
124.3536, 1764.240
124.8357, 1767.093
125.3178, 1757.000
125.8000, 1739.501
126.2821, 1711.930
126.7642, 1677.090
127.2463, 1645.868
127.7284, 1623.019
128.2105, 1607.382
128.6927, 1594.781
129.1748, 1585.484
129.6569, 1578.561
130.1390, 1573.133
130.6211, 1569.148
131.1032, 1567.043
131.5854, 1568.305
132.0675, 1571.084
132.5496, 1574.030
133.0317, 1576.959
133.5138, 1579.358
133.9959, 1579.591
134.4781, 1574.998
134.9602, 1572.631
135.4423, 1574.930
135.9244, 1580.169
136.4065, 1586.140
136.8886, 1591.545
137.3708, 1596.466
137.8529, 1601.616
138.3350, 1607.430
138.8171, 1613.074
139.2992, 1618.609
139.7813, 1623.849
140.2635, 1628.458
140.7456, 1632.070
141.2277, 1634.562
141.7098, 1637.144
142.1919, 1640.457
142.6740, 1643.329
143.1561, 1644.600
143.6383, 1644.410
144.1204, 1644.444
144.6025, 1646.661
145.0846, 1651.551
145.5667, 1655.333
146.0488, 1655.886
146.5310, 1656.165
147.0131, 1660.321
147.4952, 1669.788
147.9773, 1679.491
148.4594, 1682.050
148.9415, 1678.811
149.4237, 1677.079
149.9058, 1679.924
150.3879, 1686.317
150.8700, 1693.658
151.3521, 1702.565
151.8342, 1710.945
152.3164, 1716.660
152.7985, 1720.043
153.2806, 1723.876
153.7627, 1730.373
154.2448, 1739.588
154.7269, 1749.061
155.2091, 1759.422
155.6912, 1769.167
156.1733, 1776.560
156.6554, 1781.867
157.1375, 1787.650
157.6196, 1797.367
158.1018, 1812.579
158.5839, 1827.273
159.0660, 1842.265
159.5481, 1855.993
160.0302, 1866.928
160.5123, 1874.872
160.9945, 1881.213
161.4766, 1888.536
161.9587, 1900.296
162.4408, 1907.546
162.9229, 1909.015
163.4050, 1906.961
163.8871, 1902.826
164.3693, 1897.197
164.8514, 1890.728
165.3335, 1884.963
165.8156, 1879.749
166.2977, 1875.496
166.7798, 1871.800
167.2620, 1869.164
167.7441, 1868.576
168.2262, 1870.648
168.7083, 1874.625
169.1904, 1878.371
169.6725, 1881.483
170.1547, 1885.079
170.6368, 1889.982
171.1189, 1895.819
171.6010, 1901.162
172.0831, 1904.832
172.5652, 1908.099
173.0474, 1913.473
173.5295, 1921.569
174.0116, 1930.537
174.4937, 1939.111
174.9758, 1947.312
175.4579, 1955.367
175.9401, 1962.953
176.4222, 1970.698
176.9043, 1979.382
177.3864, 1989.477
177.8685, 1999.858
178.3506, 2009.079
178.8328, 2016.849
179.3149, 2024.551
179.7970, 2032.302
180.2791, 2040.384
180.7612, 2049.205
181.2433, 2059.075
181.7255, 2069.315
182.2076, 2078.692
182.6897, 2087.735
183.1718, 2094.616
183.6539, 2098.297
184.1360, 2100.340
184.6181, 2102.524
185.1003, 2105.785
185.5824, 2109.296
186.0645, 2110.039
186.5466, 2105.050
187.0287, 2100.692
187.5108, 2098.635
187.9930, 2097.487
188.4751, 2095.683
188.9572, 2092.420
189.4393, 2087.617
189.9214, 2080.680
190.4035, 2071.761
190.8857, 2060.607
191.3678, 2046.153
191.8499, 2029.533
192.3320, 2012.726
192.8141, 1997.055
193.2962, 1982.098
193.7784, 1964.086
194.2605, 1939.868
194.7426, 1916.709
195.2247, 1896.223
195.7068, 1878.596
196.1889, 1864.085
196.6711, 1853.156
197.1532, 1845.571
197.6353, 1838.983
198.1174, 1833.697
198.5995, 1828.955
199.0816, 1823.905
199.5638, 1818.748
200.0459, 1814.952
200.5280, 1813.627
201.0101, 1814.377
201.4922, 1815.444
201.9743, 1816.755
202.4565, 1818.400
202.9386, 1820.732
203.4207, 1823.794
203.9028, 1826.491
204.3849, 1828.342
204.8670, 1829.377
205.3492, 1829.552
205.8313, 1828.663
206.3134, 1827.170
206.7955, 1825.978
207.2776, 1825.466
207.7597, 1823.464
208.2419, 1817.773
208.7240, 1810.506
209.2061, 1803.582
209.6882, 1797.663
210.1703, 1792.218
210.6524, 1786.519
211.1346, 1780.914
211.6167, 1774.139
212.0988, 1764.406
212.5809, 1754.052
213.0630, 1745.380
213.5451, 1739.458
214.0273, 1735.235
214.5094, 1730.313
214.9915, 1723.864
215.4736, 1718.257
215.9557, 1713.884
216.4378, 1710.431
216.9200, 1707.572
217.4021, 1705.183
217.8842, 1703.308
218.3663, 1702.144
218.8484, 1702.361
219.3305, 1702.376
219.8127, 1701.667
220.2948, 1700.816
220.7769, 1700.600
221.2590, 1701.374
221.7411, 1702.636
222.2232, 1702.871
222.7054, 1700.153
223.1875, 1698.725
223.6696, 1699.766
224.1517, 1701.885
224.6338, 1703.391
225.1159, 1703.533
225.5980, 1702.895
226.0802, 1703.189
226.5623, 1705.094
227.0444, 1707.165
227.5265, 1709.838
228.0086, 1712.470
228.4907, 1714.081
228.9729, 1714.227
229.4550, 1713.461
229.9371, 1713.192
230.4192, 1713.711
230.9013, 1714.234
231.3834, 1713.857
231.8656, 1713.586
232.3477, 1715.219
232.8298, 1719.639
233.3119, 1725.471
233.7940, 1729.833
234.2761, 1732.763
234.7583, 1734.641
235.2404, 1734.613
235.7225, 1733.716
236.2046, 1733.935
236.6867, 1736.137
237.1688, 1739.133
237.6510, 1741.050
238.1331, 1742.079
238.6152, 1741.936
239.0973, 1739.765
239.5794, 1736.387
240.0615, 1733.459
240.5437, 1731.284
241.0258, 1729.977
241.5079, 1730.179
241.9900, 1731.916
242.4721, 1732.861
242.9542, 1731.514
243.4364, 1728.642
243.9185, 1726.391
244.4006, 1725.683
244.8827, 1724.713
245.3648, 1721.372
245.8469, 1715.981
246.3290, 1710.654
246.8112, 1706.770
247.2933, 1703.797
247.7754, 1699.954
248.2575, 1694.775
248.7396, 1689.088
249.2217, 1682.888
249.7039, 1676.555
250.1860, 1671.584
250.6681, 1669.761
251.1502, 1670.120
251.6323, 1668.971
252.1144, 1665.635
252.5966, 1661.555
253.0787, 1656.921
253.5608, 1652.252
254.0429, 1648.711
254.5250, 1647.185
255.0071, 1647.327
255.4893, 1647.969
255.9714, 1649.826
256.4535, 1650.977
256.9356, 1650.142
257.4177, 1648.222
257.8998, 1646.673
258.3820, 1646.360
258.8641, 1646.966
259.3462, 1647.327
259.8283, 1646.992
260.3104, 1647.198
260.7925, 1648.279
261.2747, 1650.050
261.7568, 1652.477
262.2389, 1655.802
262.7210, 1659.321
263.2031, 1660.714
263.6852, 1657.839
264.1674, 1656.544
264.6495, 1659.212
265.1316, 1663.486
265.6137, 1666.850
266.0958, 1668.198
266.5779, 1668.315
267.0601, 1668.922
267.5422, 1669.729
268.0243, 1671.709
268.5064, 1676.471
268.9885, 1681.505
269.4706, 1684.151
269.9528, 1683.544
270.4349, 1681.569
270.9170, 1682.033
271.3991, 1686.984
271.8812, 1690.332
272.3633, 1689.952
272.8455, 1689.156
273.3276, 1690.749
273.8097, 1695.281
274.2918, 1700.951
274.7739, 1704.888
275.2560, 1705.624
275.7382, 1707.772
276.2202, 1711.979
276.7024, 1716.791
277.1845, 1721.452
277.6666, 1725.789
278.1487, 1729.927
278.6308, 1733.994
279.1129, 1737.910
279.5951, 1741.992
280.0772, 1745.660
280.5593, 1749.931
281.0414, 1756.133
281.5235, 1763.743
282.0056, 1770.741
282.4878, 1775.119
282.9699, 1776.561
283.4520, 1777.706
283.9341, 1779.279
284.4162, 1779.954
284.8983, 1779.382
285.3805, 1777.479
285.8626, 1774.190
286.3447, 1769.427
286.8268, 1763.226
287.3089, 1756.026
287.7910, 1744.498
288.2732, 1735.600
288.7553, 1733.248
289.2374, 1734.941
289.7195, 1735.781
290.2016, 1732.695
290.6837, 1726.618
291.1659, 1722.741
291.6480, 1723.234
292.1301, 1723.378
292.6122, 1721.145
293.0943, 1718.415
293.5764, 1717.996
294.0586, 1721.215
294.5407, 1726.986
295.0228, 1732.406
295.5049, 1737.776
295.9870, 1742.373
296.4691, 1745.215
296.9513, 1747.690
297.4334, 1751.366
297.9155, 1756.721
298.3976, 1763.028
298.8797, 1769.061
299.3618, 1774.470
299.8440, 1780.309
300.3261, 1787.223
300.8082, 1794.113
301.2903, 1800.359
301.7724, 1805.733
302.2545, 1810.134
302.7367, 1813.545
303.2188, 1816.055
303.7009, 1816.531
304.1830, 1814.009
304.6651, 1810.448
305.1472, 1806.682
305.6294, 1802.937
306.1115, 1799.441
306.5936, 1796.429
307.0757, 1793.923
307.5578, 1791.305
308.0399, 1788.139
308.5221, 1785.303
309.0042, 1783.183
309.4863, 1781.713
309.9684, 1780.621
310.4505, 1779.676
310.9326, 1779.015
311.4148, 1779.688
311.8969, 1782.490
312.3790, 1785.491
312.8611, 1787.287
313.3432, 1789.156
313.8253, 1793.484
314.3075, 1801.459
314.7896, 1811.731
315.2717, 1820.896
315.7538, 1827.266
316.2359, 1835.037
316.7180, 1845.153
317.2001, 1856.568
317.6823, 1868.384
318.1644, 1880.352
318.6465, 1892.098
319.1286, 1902.913
319.6107, 1911.346
320.0928, 1922.521
320.5750, 1939.183
321.0571, 1956.634
321.5392, 1970.911
322.0213, 1981.747
322.5034, 1992.144
322.9855, 2005.112
323.4677, 2021.309
323.9498, 2035.849
324.4319, 2047.469
324.9140, 2058.893
325.3961, 2070.219
325.8782, 2082.318
326.3604, 2097.786
326.8425, 2119.036
327.3246, 2145.251
327.8067, 2167.427
328.2888, 2181.680
328.7709, 2196.972
329.2531, 2215.441
329.7352, 2236.443
330.2173, 2258.667
330.6994, 2281.478
331.1815, 2305.304
331.6636, 2331.553
332.1458, 2362.563
332.6279, 2393.244
333.1100, 2422.688
333.5921, 2451.941
334.0742, 2482.580
334.5563, 2514.706
335.0385, 2547.129
335.5206, 2578.057
336.0027, 2608.371
336.4848, 2634.401
336.9669, 2658.704
337.4490, 2677.546
337.9312, 2688.507
338.4133, 2691.591
338.8954, 2688.148
339.3775, 2679.355
339.8596, 2665.159
340.3417, 2645.591
340.8239, 2619.346
341.3060, 2590.016
341.7881, 2556.765
342.2702, 2521.390
342.7523, 2487.056
343.2344, 2455.772
343.7166, 2427.296
344.1987, 2400.799
344.6808, 2376.471
345.1629, 2354.152
345.6450, 2333.306
346.1271, 2314.862
346.6093, 2300.226
347.0914, 2289.924
347.5735, 2282.596
348.0556, 2275.811
348.5377, 2268.397
349.0198, 2263.922
349.5020, 2263.233
349.9841, 2264.389
350.4662, 2266.376
350.9483, 2268.927
351.4304, 2272.096
351.9125, 2275.872
352.3947, 2280.173
352.8768, 2285.645
353.3589, 2294.813
353.8410, 2302.626
354.3231, 2307.260
354.8052, 2309.117
355.2874, 2309.483
355.7695, 2309.296
356.2516, 2308.228
356.7337, 2304.328
357.2158, 2296.048
357.6979, 2286.741
358.1800, 2277.860
358.6621, 2268.005
359.1443, 2255.680
359.6264, 2240.252
360.1085, 2222.384
360.5906, 2202.793
361.0727, 2180.645
361.5548, 2158.928
362.0370, 2139.001
362.5191, 2118.839
363.0012, 2096.742
363.4833, 2072.680
363.9654, 2048.739
364.4475, 2026.811
364.9297, 2006.948
365.4118, 1988.183
365.8939, 1970.736
366.3760, 1954.280
366.8581, 1938.443
367.3402, 1923.512
367.8224, 1910.098
368.3045, 1898.823
368.7866, 1889.200
369.2687, 1879.656
369.7508, 1869.662
370.2329, 1861.060
370.7151, 1855.291
371.1972, 1850.698
371.6793, 1845.561
372.1614, 1839.383
372.6435, 1833.049
373.1256, 1827.689
373.6078, 1823.367
374.0899, 1819.292
374.5720, 1815.254
375.0541, 1811.495
375.5362, 1808.842
376.0183, 1807.017
376.5005, 1803.873
376.9826, 1796.857
377.4647, 1787.204
377.9468, 1779.793
378.4289, 1776.003
378.9110, 1772.000
379.3932, 1764.895
379.8753, 1755.775
380.3574, 1746.533
380.8395, 1737.755
381.3216, 1729.094
381.8037, 1719.854
382.2859, 1709.986
382.7680, 1701.092
383.2501, 1694.011
383.7322, 1688.342
384.2143, 1683.314
384.6964, 1679.182
385.1786, 1674.872
385.6607, 1668.957
386.1428, 1662.427
386.6249, 1658.254
387.1070, 1657.693
387.5891, 1658.084
388.0713, 1656.163
388.5534, 1652.176
389.0355, 1648.450
389.5176, 1645.169
389.9997, 1642.542
390.4818, 1641.320
390.9640, 1641.382
391.4461, 1640.647
391.9282, 1637.006
392.4103, 1631.485
392.8924, 1629.414
393.3745, 1634.010
393.8567, 1638.193
394.3388, 1638.458
394.8209, 1636.427
395.3030, 1635.446
395.7851, 1636.866
396.2672, 1639.086
396.7494, 1639.158
397.2315, 1635.703
397.7136, 1633.323
398.1957, 1633.003
398.6778, 1633.267
399.1599, 1632.465
399.6420, 1630.696
400.1241, 1629.801
400.6063, 1631.630
401.0884, 1636.312
401.5705, 1639.538
402.0526, 1641.241
402.5347, 1641.840
403.0168, 1640.325
403.4990, 1638.036
403.9811, 1637.378
404.4632, 1639.545
404.9453, 1643.059
405.4274, 1644.270
405.9095, 1641.743
406.3917, 1639.212
406.8738, 1636.823
407.3559, 1634.475
407.8380, 1631.444
408.3201, 1628.046
408.8022, 1625.955
409.2844, 1627.268
409.7665, 1632.280
410.2486, 1635.769
410.7307, 1636.978
411.2128, 1637.299
411.6949, 1636.530
412.1771, 1635.262
412.6592, 1634.297
413.1413, 1633.984
413.6234, 1634.324
414.1055, 1635.658
414.5876, 1638.709
415.0698, 1640.545
415.5519, 1638.334
416.0340, 1636.111
416.5161, 1637.243
416.9982, 1641.942
417.4803, 1646.806
417.9625, 1648.271
418.4446, 1647.032
418.9267, 1648.209
419.4088, 1653.459
419.8909, 1658.763
420.3730, 1661.191
420.8552, 1661.808
421.3373, 1662.652
421.8194, 1664.365
422.3015, 1666.631
422.7836, 1669.544
423.2657, 1673.076
423.7479, 1675.388
424.2300, 1675.150
424.7121, 1673.797
425.1942, 1673.487
425.6763, 1674.227
426.1584, 1675.857
426.6406, 1678.738
427.1227, 1682.355
427.6048, 1685.590
428.0869, 1688.211
428.5690, 1691.435
429.0511, 1696.530
429.5333, 1703.567
430.0154, 1710.304
430.4975, 1717.011
430.9796, 1723.167
431.4617, 1727.471
431.9438, 1730.908
432.4260, 1736.113
432.9081, 1744.376
433.3902, 1754.751
433.8723, 1765.058
434.3544, 1775.319
434.8365, 1785.393
435.3187, 1794.461
435.8008, 1803.870
436.2829, 1815.189
436.7650, 1828.260
437.2471, 1841.198
437.7292, 1852.109
438.2114, 1860.962
438.6935, 1870.666
439.1756, 1881.564
439.6577, 1893.002
440.1398, 1904.552
440.6219, 1916.648
441.1040, 1929.715
441.5862, 1943.888
442.0683, 1959.280
442.5504, 1976.066
443.0325, 1994.637
443.5146, 2013.618
443.9967, 2032.019
444.4789, 2051.526
444.9610, 2072.993
445.4431, 2096.280
445.9252, 2121.120
446.4073, 2147.825
446.8894, 2175.648
447.3716, 2201.755
447.8537, 2225.997
448.3358, 2248.785
448.8179, 2271.987
449.3000, 2293.199
449.7821, 2309.803
450.2643, 2321.335
450.7464, 2327.845
451.2285, 2330.447
451.7106, 2328.422
452.1927, 2317.567
452.6748, 2296.083
453.1570, 2267.698
453.6391, 2234.351
454.1212, 2196.853
454.6033, 2157.494
455.0854, 2114.998
455.5675, 2072.410
456.0497, 2031.772
456.5318, 1993.339
457.0139, 1956.922
457.4960, 1922.163
457.9781, 1889.711
458.4602, 1861.632
458.9424, 1838.895
459.4245, 1817.535
459.9066, 1796.525
460.3887, 1776.853
460.8708, 1759.600
461.3529, 1744.882
461.8351, 1732.078
462.3172, 1720.527
462.7993, 1710.281
463.2814, 1701.808
463.7635, 1696.553
464.2456, 1691.268
464.7278, 1684.655
465.2099, 1677.628
465.6920, 1671.598
466.1741, 1667.064
466.6562, 1663.323
467.1383, 1659.056
467.6205, 1653.664
468.1026, 1649.511
468.5847, 1647.137
469.0668, 1645.628
469.5489, 1645.378
470.0310, 1645.742
470.5132, 1645.089
470.9953, 1641.830
471.4774, 1637.455
471.9595, 1636.359
472.4416, 1639.759
472.9237, 1641.933
473.4059, 1640.064
473.8880, 1636.478
474.3701, 1633.160
474.8522, 1630.355
475.3343, 1627.318
475.8164, 1623.313
476.2986, 1618.763
476.7807, 1614.859
477.2628, 1611.924
477.7449, 1608.615
478.2270, 1603.345
478.7091, 1596.803
479.1913, 1591.948
479.6734, 1589.862
480.1555, 1588.445
480.6376, 1586.848
481.1197, 1585.114
481.6018, 1583.451
482.0839, 1581.959
482.5660, 1580.173
483.0482, 1577.428
483.5303, 1573.552
484.0124, 1569.151
484.4945, 1563.243
484.9766, 1557.770
485.4587, 1553.767
485.9409, 1551.035
486.4230, 1549.217
486.9051, 1548.221
487.3872, 1547.258
487.8693, 1543.898
488.3514, 1536.287
488.8336, 1529.672
489.3157, 1524.005
489.7978, 1519.627
490.2799, 1517.625
490.7620, 1517.440
491.2441, 1516.770
491.7263, 1513.201
492.2084, 1507.662
492.6905, 1505.026
493.1726, 1506.798
493.6547, 1507.883
494.1368, 1505.734
494.6190, 1502.072
495.1011, 1498.327
495.5832, 1494.689
496.0653, 1491.475
496.5474, 1489.429
497.0295, 1488.036
497.5117, 1485.215
497.9938, 1480.073
498.4759, 1476.020
498.9580, 1476.955
499.4401, 1481.694
499.9222, 1483.702
500.4044, 1481.069
500.8865, 1477.190
501.3686, 1472.525
501.8507, 1468.029
502.3328, 1465.984
502.8149, 1467.248
503.2971, 1469.785
503.7792, 1470.786
504.2613, 1469.956
504.7434, 1468.489
505.2255, 1465.849
505.7076, 1463.191
506.1898, 1460.559
506.6719, 1458.391
507.1540, 1457.691
507.6361, 1459.055
508.1182, 1461.421
508.6003, 1462.218
509.0825, 1460.721
509.5646, 1459.605
510.0467, 1460.011
510.5288, 1460.098
511.0109, 1458.481
511.4930, 1455.537
511.9752, 1452.832
512.4573, 1451.380
512.9394, 1450.790
513.4215, 1450.030
513.9036, 1448.954
514.3857, 1448.734
514.8679, 1451.019
515.3500, 1453.464
515.8321, 1452.690
516.3142, 1448.224
516.7963, 1444.329
517.2784, 1443.624
517.7606, 1444.191
518.2427, 1442.874
518.7248, 1439.535
519.2069, 1437.223
519.6890, 1438.404
520.1711, 1442.096
520.6533, 1443.299
521.1354, 1440.673
521.6175, 1437.792
522.0996, 1434.493
522.5817, 1431.635
523.0638, 1430.516
523.5460, 1431.093
524.0281, 1431.699
524.5102, 1430.474
524.9923, 1427.531
525.4744, 1427.160
525.9565, 1432.749
526.4387, 1436.480
526.9208, 1435.242
527.4029, 1432.281
527.8850, 1431.148
528.3671, 1432.695
528.8492, 1434.860
529.3314, 1435.873
529.8135, 1435.730
530.2956, 1433.986
530.7777, 1429.583
531.2598, 1425.749
531.7419, 1425.133
532.2241, 1426.285
532.7062, 1426.928
533.1883, 1426.384
533.6704, 1425.826
534.1525, 1426.495
534.6346, 1427.705
535.1168, 1427.671
535.5989, 1425.914
536.0810, 1423.674
536.5631, 1422.256
537.0452, 1421.705
537.5273, 1420.449
538.0095, 1416.999
538.4916, 1414.558
538.9737, 1415.037
539.4558, 1417.020
539.9379, 1418.515
540.4200, 1418.838
540.9022, 1418.371
541.3843, 1417.569
541.8664, 1416.374
542.3485, 1415.201
542.8306, 1413.910
543.3127, 1412.829
543.7948, 1411.333
544.2769, 1410.337
544.7590, 1411.839
545.2411, 1416.955
545.7233, 1421.992
546.2054, 1421.158
546.6875, 1414.988
547.1696, 1411.921
547.6517, 1414.626
548.1339, 1417.976
548.6160, 1417.369
549.0981, 1413.933
549.5802, 1410.543
550.0623, 1406.574
550.5444, 1404.025
551.0266, 1405.248
551.5087, 1408.768
551.9908, 1411.190
552.4729, 1411.482
552.9550, 1410.763
553.4371, 1410.491
553.9193, 1410.945
554.4014, 1410.047
554.8835, 1405.016
555.3656, 1401.906
555.8477, 1405.396
556.3298, 1411.385
556.8120, 1413.142
557.2941, 1408.364
557.7762, 1401.534
558.2583, 1399.383
558.7404, 1402.662
559.2225, 1404.326
559.7047, 1403.081
560.1868, 1401.600
560.6689, 1400.946
561.1510, 1400.957
561.6331, 1401.553
562.1152, 1403.083
562.5974, 1404.112
563.0795, 1402.596
563.5616, 1399.369
564.0437, 1397.832
564.5258, 1399.033
565.0079, 1400.126
565.4901, 1397.880
565.9722, 1392.610
566.4543, 1390.331
566.9364, 1393.747
567.4185, 1397.049
567.9006, 1397.998
568.3828, 1397.511
568.8649, 1396.816
569.3470, 1396.288
569.8291, 1395.824
570.3112, 1395.378
570.7933, 1394.986
571.2755, 1393.934
571.7576, 1391.176
572.2397, 1389.076
572.7218, 1388.255
573.2039, 1388.315
573.6860, 1388.975
574.1682, 1390.135
574.6503, 1391.281
575.1324, 1391.847
575.6145, 1391.963
576.0966, 1392.526
576.5787, 1393.987
577.0609, 1394.216
577.5430, 1390.736
578.0251, 1385.480
578.5072, 1383.187
578.9893, 1385.168
579.4714, 1387.363
579.9536, 1389.048
580.4357, 1389.675
580.9178, 1387.672
581.3999, 1383.369
581.8820, 1379.943
582.3641, 1379.996
582.8463, 1382.843
583.3284, 1384.482
583.8105, 1384.282
584.2926, 1383.729
584.7747, 1382.971
585.2568, 1381.910
585.7390, 1380.207
586.2211, 1378.047
586.7032, 1376.150
587.1853, 1374.971
587.6674, 1374.465
588.1495, 1374.697
588.6317, 1375.814
589.1138, 1376.772
589.5959, 1377.308
590.0780, 1377.450
590.5601, 1377.002
591.0422, 1375.976
591.5244, 1375.589
592.0065, 1377.155
592.4886, 1378.773
592.9707, 1378.244
593.4528, 1376.173
593.9349, 1374.802
594.4171, 1375.135
594.8992, 1376.509
595.3813, 1377.781
595.8634, 1378.799
596.3455, 1380.169
596.8276, 1383.122
597.3098, 1385.085
597.7919, 1384.302
598.2740, 1381.965
598.7561, 1380.164
599.2382, 1379.764
599.7203, 1379.840
600.2025, 1379.064
600.6846, 1377.467
601.1667, 1376.301
601.6488, 1375.872
602.1309, 1375.542
602.6130, 1375.039
603.0952, 1374.312
603.5773, 1373.054
604.0594, 1370.330
604.5415, 1368.789
605.0236, 1371.235
605.5057, 1375.166
605.9879, 1376.416
606.4700, 1374.474
606.9521, 1371.882
607.4342, 1370.616
607.9163, 1370.594
608.3984, 1371.254
608.8806, 1373.172
609.3627, 1374.979
609.8448, 1377.277
610.3269, 1378.878
610.8090, 1378.296
611.2911, 1375.917
611.7733, 1373.905
612.2554, 1374.211
612.7375, 1375.480
613.2196, 1373.951
613.7017, 1369.211
614.1838, 1366.122
614.6660, 1366.830
615.1481, 1368.953
615.6302, 1369.576
616.1123, 1368.836
616.5944, 1368.812
617.0765, 1371.047
617.5587, 1373.078
618.0408, 1372.957
618.5229, 1371.393
619.0050, 1370.042
619.4871, 1369.478
619.9692, 1369.124
620.4514, 1368.103
620.9335, 1366.199
621.4156, 1365.207
621.8977, 1365.404
622.3798, 1366.251
622.8619, 1368.375
623.3441, 1370.684
623.8262, 1372.029
624.3083, 1372.122
624.7904, 1371.238
625.2725, 1368.862
625.7546, 1365.764
626.2367, 1364.188
626.7188, 1364.333
627.2009, 1365.035
627.6830, 1365.860
628.1652, 1366.736
628.6473, 1367.540
629.1294, 1368.371
629.6115, 1368.853
630.0936, 1369.430
630.5757, 1369.215
631.0579, 1366.527
631.5400, 1362.511
632.0221, 1360.031
632.5042, 1360.557
632.9863, 1363.107
633.4684, 1366.302
633.9506, 1370.635
634.4327, 1373.170
634.9148, 1372.932
635.3969, 1371.837
635.8790, 1370.648
636.3611, 1369.375
636.8433, 1367.845
637.3254, 1365.701
637.8075, 1364.339
638.2896, 1365.592
638.7717, 1368.111
639.2538, 1369.190
639.7360, 1368.481
640.2181, 1367.344
640.7002, 1366.608
641.1823, 1366.310
641.6644, 1366.611
642.1465, 1369.158
642.6287, 1369.981
643.1108, 1367.145
643.5929, 1364.216
644.0750, 1364.070
644.5571, 1365.960
645.0392, 1367.100
645.5214, 1365.784
646.0035, 1363.514
646.4856, 1362.885
646.9677, 1363.893
647.4498, 1364.889
647.9319, 1365.509
648.4141, 1366.237
648.8962, 1368.009
649.3783, 1370.273
649.8604, 1370.847
650.3425, 1368.150
650.8246, 1365.642
651.3068, 1364.713
651.7889, 1364.694
652.2710, 1364.853
652.7531, 1365.054
653.2352, 1365.516
653.7173, 1366.503
654.1995, 1367.732
654.6816, 1367.875
655.1637, 1366.172
655.6458, 1365.199
656.1279, 1366.260
656.6100, 1367.422
657.0922, 1367.210
657.5743, 1366.100
658.0564, 1365.961
658.5385, 1368.613
659.0206, 1370.973
659.5027, 1369.055
659.9849, 1364.497
660.4670, 1362.240
660.9491, 1363.473
661.4312, 1365.467
661.9133, 1365.844
662.3954, 1364.686
662.8776, 1363.116
663.3597, 1359.372
663.8418, 1357.577
664.3239, 1359.939
664.8060, 1363.047
665.2881, 1364.454
665.7703, 1363.933
666.2524, 1362.114
666.7345, 1358.885
667.2166, 1355.352
667.6987, 1353.830
668.1808, 1354.254
668.6630, 1353.937
669.1451, 1351.718
669.6272, 1349.905
670.1093, 1351.362
670.5914, 1355.704
671.0735, 1357.935
671.5557, 1356.550
672.0378, 1354.773
672.5199, 1353.526
673.0020, 1352.472
673.4841, 1351.018
673.9662, 1349.248
674.4484, 1347.878
674.9305, 1347.380
675.4126, 1347.815
675.8947, 1349.910
676.3768, 1354.537
676.8589, 1356.834
677.3411, 1354.040
677.8232, 1350.641
678.3053, 1350.709
678.7874, 1353.267
679.2695, 1354.708
679.7516, 1353.336
680.2338, 1351.775
680.7159, 1351.705
681.1980, 1352.393
681.6801, 1352.520
682.1622, 1351.953
682.6443, 1351.826
683.1265, 1353.232
683.6086, 1355.628
684.0907, 1356.257
684.5728, 1353.927
685.0549, 1352.404
685.5370, 1352.243
686.0192, 1352.971
686.5013, 1354.780
686.9834, 1357.276
687.4655, 1359.508
687.9476, 1361.274
688.4297, 1362.367
688.9119, 1361.823
689.3940, 1360.586
689.8761, 1361.126
690.3582, 1363.844
690.8403, 1366.848
691.3224, 1368.677
691.8046, 1369.618
692.2867, 1371.060
692.7688, 1373.823
693.2509, 1375.789
693.7330, 1376.969
694.2151, 1377.318
694.6973, 1375.761
695.1794, 1373.444
695.6615, 1373.159
696.1436, 1376.531
696.6257, 1380.819
697.1078, 1382.166
697.5900, 1381.859
698.0721, 1385.366
698.5542, 1393.743
699.0363, 1400.997
699.5184, 1402.643
700.0005, 1400.384
700.4827, 1400.161
700.9648, 1403.195
701.4469, 1406.332
701.9290, 1410.578
702.4111, 1413.930
702.8932, 1414.605
703.3754, 1413.564
703.8575, 1412.764
704.3396, 1412.993
704.8217, 1413.915
705.3038, 1415.208
705.7859, 1416.857
706.2681, 1419.129
706.7502, 1422.264
707.2323, 1424.419
707.7144, 1424.499
708.1965, 1423.009
708.6786, 1421.004
709.1607, 1418.363
709.6428, 1415.588
710.1249, 1412.930
710.6071, 1409.903
711.0892, 1405.556
711.5713, 1400.867
712.0534, 1397.705
712.5355, 1396.621
713.0176, 1395.979
713.4998, 1394.167
713.9819, 1391.243
714.4640, 1387.199
714.9461, 1381.865
715.4282, 1376.682
715.9103, 1372.292
716.3925, 1368.395
716.8746, 1364.584
717.3567, 1360.901
717.8388, 1357.050
718.3209, 1352.479
718.8030, 1348.322
719.2852, 1345.742
719.7673, 1343.617
720.2494, 1339.958
720.7315, 1334.587
721.2136, 1329.653
721.6957, 1327.274
722.1779, 1326.813
722.6600, 1326.308
723.1421, 1325.866
723.6242, 1324.329
724.1063, 1321.168
724.5884, 1317.107
725.0706, 1312.504
725.5527, 1307.446
726.0348, 1303.530
726.5169, 1300.961
726.9990, 1299.383
727.4811, 1299.742
727.9633, 1300.361
728.4454, 1299.216
728.9275, 1296.392
729.4096, 1293.646
729.8917, 1292.333
730.3738, 1291.438
730.8560, 1288.245
731.3381, 1282.654
731.8202, 1278.958
732.3023, 1278.545
732.7844, 1278.414
733.2665, 1276.229
733.7487, 1272.559
734.2308, 1269.614
734.7129, 1267.346
735.1950, 1265.911
735.6771, 1266.027
736.1592, 1266.407
736.6414, 1266.328
737.1235, 1265.620
737.6056, 1263.892
738.0877, 1260.917
738.5698, 1258.025
739.0519, 1257.332
739.5341, 1258.566
740.0162, 1259.351
740.4983, 1259.609
740.9804, 1259.181
741.4625, 1257.776
741.9446, 1255.812
742.4268, 1253.971
742.9089, 1252.180
743.3910, 1250.815
743.8731, 1249.781
744.3552, 1249.309
744.8373, 1250.227
745.3195, 1251.459
745.8016, 1251.312
746.2837, 1249.539
746.7658, 1247.630
747.2479, 1246.966
747.7300, 1247.126
748.2122, 1246.848
748.6943, 1246.123
749.1764, 1246.166
749.6585, 1247.763
750.1406, 1249.061
750.6227, 1247.970
751.1049, 1244.562
751.5870, 1241.662
752.0691, 1238.784
752.5512, 1237.018
753.0333, 1237.458
753.5154, 1238.363
753.9976, 1238.007
754.4797, 1236.751
754.9618, 1236.376
755.4439, 1238.048
755.9260, 1240.030
756.4081, 1239.793
756.8903, 1237.860
757.3724, 1236.420
757.8545, 1235.754
758.3366, 1235.163
758.8187, 1234.102
759.3008, 1232.988
759.7830, 1232.892
760.2651, 1234.346
760.7472, 1235.598
761.2293, 1236.699
761.7114, 1237.563
762.1935, 1238.372
762.6757, 1238.831
763.1578, 1238.153
763.6399, 1236.256
764.1220, 1235.053
764.6041, 1236.531
765.0862, 1239.177
765.5684, 1240.511
766.0505, 1240.840
766.5326, 1242.289
767.0147, 1245.654
767.4968, 1248.147
767.9789, 1246.208
768.4611, 1240.128
768.9432, 1237.278
769.4253, 1239.121
769.9074, 1241.710
770.3895, 1245.935
770.8716, 1249.369
771.3538, 1249.613
771.8359, 1247.602
772.3180, 1246.469
772.8001, 1247.300
773.2822, 1249.035
773.7643, 1251.798
774.2465, 1254.597
774.7286, 1255.820
775.2107, 1255.517
775.6928, 1254.541
776.1749, 1253.252
776.6570, 1252.634
777.1392, 1255.117
777.6213, 1261.419
778.1034, 1265.551
778.5855, 1266.311
779.0676, 1267.168
779.5497, 1270.016
780.0319, 1273.550
780.5140, 1276.059
780.9961, 1277.467
781.4782, 1278.730
781.9603, 1280.248
782.4424, 1281.492
782.9246, 1280.988
783.4067, 1280.534
783.8888, 1283.757
784.3709, 1290.581
784.8530, 1296.281
785.3351, 1296.644
785.8173, 1293.993
786.2994, 1294.134
786.7815, 1297.069
787.2636, 1300.041
787.7457, 1302.513
788.2278, 1305.090
788.7100, 1308.158
789.1921, 1311.697
789.6742, 1315.611
790.1563, 1320.484
790.6384, 1324.687
791.1205, 1327.390
791.6026, 1330.170
792.0847, 1334.597
792.5668, 1339.495
793.0490, 1342.270
793.5311, 1342.234
794.0132, 1343.194
794.4953, 1349.839
794.9774, 1358.787
795.4595, 1363.275
795.9417, 1364.073
796.4238, 1366.635
796.9059, 1372.854
797.3880, 1379.602
797.8701, 1383.165
798.3522, 1383.879
798.8344, 1387.264
799.3165, 1395.334
799.7986, 1402.168
800.2807, 1404.649
800.7628, 1407.565
801.2449, 1414.802
801.7271, 1424.676
802.2092, 1431.991
802.6913, 1433.650
803.1734, 1437.372
803.6555, 1448.323
804.1376, 1462.429
804.6198, 1475.399
805.1019, 1487.471
805.5840, 1501.119
806.0661, 1517.303
806.5482, 1534.068
807.0303, 1547.896
807.5125, 1559.479
807.9946, 1575.206
808.4767, 1595.499
808.9588, 1618.074
809.4409, 1642.257
809.9230, 1668.162
810.4052, 1696.471
810.8873, 1727.170
811.3694, 1756.454
811.8515, 1781.876
812.3336, 1809.048
812.8157, 1837.811
813.2979, 1869.667
813.7800, 1907.088
814.2621, 1948.290
814.7442, 1988.457
815.2263, 2025.175
815.7084, 2061.830
816.1906, 2101.183
816.6727, 2142.569
817.1548, 2184.087
817.6369, 2225.972
818.1190, 2270.859
818.6011, 2319.965
819.0833, 2372.120
819.5654, 2426.057
820.0475, 2481.977
820.5296, 2535.985
821.0117, 2587.284
821.4938, 2639.176
821.9760, 2694.048
822.4581, 2748.271
822.9402, 2798.920
823.4223, 2846.161
823.9044, 2890.740
824.3865, 2935.564
824.8687, 2973.257
825.3508, 2999.879
825.8329, 3019.125
826.3150, 3034.473
826.7971, 3045.624
827.2792, 3050.073
827.7614, 3046.695
828.2435, 3038.704
828.7256, 3029.293
829.2077, 3018.562
829.6898, 3005.879
830.1719, 2991.317
830.6541, 2979.431
831.1362, 2971.860
831.6183, 2968.040
832.1004, 2967.890
832.5825, 2971.331
833.0646, 2972.980
833.5468, 2968.876
834.0289, 2969.234
834.5110, 2977.705
834.9931, 2988.399
835.4752, 2997.570
835.9573, 3006.074
836.4395, 3017.074
836.9216, 3032.561
837.4037, 3046.590
837.8858, 3055.898
838.3679, 3062.375
838.8500, 3068.358
839.3322, 3073.191
839.8143, 3074.978
840.2964, 3073.043
840.7785, 3067.907
841.2606, 3060.858
841.7427, 3050.831
842.2249, 3033.273
842.7070, 3008.153
843.1891, 2978.297
843.6712, 2944.182
844.1533, 2906.630
844.6354, 2866.204
845.1176, 2823.136
845.5997, 2778.833
846.0818, 2732.154
846.5639, 2686.340
847.0460, 2640.486
847.5281, 2596.301
848.0103, 2553.895
848.4924, 2513.757
848.9745, 2476.509
849.4566, 2442.280
849.9387, 2410.340
850.4208, 2380.199
850.9030, 2352.115
851.3851, 2325.046
851.8672, 2300.394
852.3493, 2281.395
852.8314, 2268.289
853.3135, 2257.565
853.7957, 2246.702
854.2778, 2236.650
854.7599, 2230.133
855.2420, 2227.062
855.7241, 2223.180
856.2062, 2217.344
856.6884, 2214.360
857.1705, 2217.470
857.6526, 2224.147
858.1347, 2229.895
858.6168, 2234.482
859.0989, 2239.063
859.5811, 2242.560
860.0632, 2247.407
860.5453, 2255.361
861.0274, 2263.999
861.5095, 2271.161
861.9916, 2276.974
862.4738, 2282.965
862.9559, 2290.891
863.4380, 2296.884
863.9201, 2297.046
864.4022, 2294.828
864.8843, 2295.234
865.3665, 2297.223
865.8486, 2296.289
866.3307, 2290.554
866.8128, 2281.957
867.2949, 2273.786
867.7770, 2264.817
868.2592, 2248.398
868.7413, 2224.450
869.2234, 2200.747
869.7055, 2179.920
870.1876, 2157.444
870.6697, 2129.097
871.1519, 2095.691
871.6340, 2062.032
872.1161, 2028.192
872.5981, 1993.922
873.0803, 1959.274
873.5624, 1924.368
874.0445, 1889.380
874.5266, 1854.202
875.0087, 1817.544
875.4908, 1779.285
875.9730, 1743.206
876.4551, 1710.998
876.9372, 1681.178
877.4193, 1653.393
877.9014, 1627.169
878.3835, 1601.848
878.8657, 1577.442
879.3478, 1554.284
879.8299, 1532.565
880.3120, 1512.216
880.7941, 1492.996
881.2762, 1475.004
881.7584, 1459.207
882.2405, 1445.481
882.7226, 1431.273
883.2047, 1415.379
883.6868, 1399.531
884.1689, 1386.308
884.6511, 1375.588
885.1332, 1364.268
885.6153, 1351.990
886.0974, 1340.019
886.5795, 1328.436
887.0616, 1317.374
887.5438, 1306.811
888.0259, 1296.771
888.5080, 1287.323
888.9901, 1278.890
889.4722, 1270.025
889.9543, 1259.142
890.4365, 1249.218
890.9186, 1242.800
891.4007, 1237.803
891.8828, 1230.971
892.3649, 1222.099
892.8470, 1214.513
893.3292, 1211.427
893.8113, 1208.719
894.2934, 1201.651
894.7755, 1192.574
895.2576, 1185.933
895.7397, 1181.775
896.2219, 1176.900
896.7040, 1169.620
897.1861, 1162.187
897.6682, 1158.643
898.1503, 1158.319
898.6324, 1155.357
899.1146, 1149.547
899.5967, 1144.069
900.0788, 1139.791
900.5609, 1136.487
901.0430, 1134.171
901.5251, 1132.582
902.0073, 1130.073
902.4894, 1126.135
902.9715, 1122.276
903.4536, 1118.486
903.9357, 1114.863
904.4178, 1111.021
904.9000, 1107.584
905.3821, 1105.591
905.8642, 1105.183
906.3463, 1104.982
906.8284, 1105.619
907.3105, 1105.236
907.7927, 1102.023
908.2748, 1098.051
908.7569, 1095.418
909.2390, 1094.088
909.7211, 1093.014
910.2032, 1091.788
910.6854, 1090.416
911.1675, 1088.560
911.6496, 1086.741
912.1317, 1086.020
912.6138, 1086.134
913.0959, 1086.203
913.5781, 1085.905
914.0602, 1084.858
914.5423, 1082.503
915.0244, 1079.450
915.5065, 1077.594
915.9886, 1076.945
916.4708, 1076.372
916.9529, 1075.851
917.4350, 1074.662
917.9171, 1072.129
918.3992, 1069.224
918.8813, 1067.752
919.3635, 1067.982
919.8456, 1067.537
920.3277, 1065.887
920.8098, 1064.455
921.2919, 1064.356
921.7740, 1063.842
922.2562, 1060.500
922.7383, 1055.792
923.2204, 1054.385
923.7025, 1058.588
924.1846, 1061.492
924.6667, 1060.672
925.1489, 1058.815
925.6310, 1057.010
926.1131, 1055.447
926.5952, 1054.320
927.0773, 1053.582
927.5594, 1052.792
928.0416, 1051.543
928.5237, 1050.418
929.0058, 1049.905
929.4879, 1049.876
929.9700, 1050.645
930.4521, 1051.741
930.9343, 1051.405
931.4164, 1048.943
931.8985, 1046.068
932.3806, 1045.057
932.8627, 1042.761
933.3448, 1043.367
933.8270, 1040.003
934.3091, 1037.909
934.7912, 1037.741
935.2733, 1038.511
935.7554, 1039.669
936.2375, 1040.945
936.7197, 1041.783
937.2018, 1042.315
937.6839, 1041.451
938.1660, 1038.259
938.6481, 1036.055
939.1302, 1036.279
939.6124, 1037.480
940.0945, 1038.517
940.5766, 1039.303
941.0587, 1039.032
941.5408, 1036.558
942.0229, 1034.797
942.5051, 1034.162
942.9872, 1033.941
943.4693, 1033.875
943.9514, 1033.961
944.4335, 1034.458
944.9156, 1035.340
945.3978, 1035.478
945.8799, 1033.429
946.3620, 1031.847
946.8441, 1032.918
947.3262, 1034.511
947.8083, 1034.043
948.2905, 1032.203
948.7726, 1031.549
949.2547, 1033.043
949.7368, 1034.346
950.2189, 1032.993
950.7010, 1030.706
951.1832, 1029.565
951.6653, 1029.430
952.1474, 1030.157
952.6295, 1031.503
953.1116, 1032.473
953.5938, 1032.407
954.0759, 1032.597
954.5580, 1031.365
955.0400, 1031.078
955.5222, 1029.782
956.0043, 1027.482
956.4864, 1026.074
956.9685, 1026.175
957.4506, 1027.406
957.9327, 1029.653
958.4149, 1032.408
958.8970, 1033.260
959.3791, 1031.764
959.8612, 1030.778
960.3433, 1031.028
960.8254, 1030.222
961.3076, 1026.246
961.7897, 1022.057
962.2718, 1022.282
962.7539, 1027.061
963.2360, 1028.887
963.7181, 1024.935
964.2003, 1022.378
964.6824, 1022.324
965.1645, 1023.282
965.6466, 1025.480
966.1287, 1027.768
966.6108, 1027.853
967.0930, 1025.233
967.5751, 1023.690
968.0572, 1024.852
968.5393, 1026.181
969.0214, 1027.054
969.5035, 1027.347
969.9857, 1026.845
970.4678, 1025.712
970.9499, 1024.300
971.4320, 1022.683
971.9141, 1021.096
972.3962, 1019.602
972.8784, 1018.269
973.3605, 1017.056
973.8426, 1016.102
974.3247, 1015.768
974.8068, 1015.946
975.2889, 1016.067
975.7711, 1015.855
976.2532, 1015.258
976.7353, 1013.960
977.2174, 1012.363
977.6995, 1011.471
978.1816, 1010.954
978.6638, 1009.235
979.1459, 1006.059
979.6280, 1003.409
980.1101, 1002.957
980.5922, 1003.794
981.0743, 1004.592
981.5565, 1005.118
982.0386, 1003.252
982.5207, 998.9596
983.0028, 996.1926
983.4849, 996.6293
983.9670, 997.6722
984.4492, 996.3817
984.9313, 995.7303
985.4134, 994.3686
985.8955, 991.7392
986.3776, 990.2551
986.8597, 986.2554
987.3419, 983.4008
987.8240, 983.9394
988.3061, 985.6365
988.7882, 985.3382
989.2703, 983.0524
989.7524, 980.5718
990.2346, 977.1461
990.7167, 975.2767
991.1988, 976.4938
991.6809, 977.5717
992.1630, 976.1772
992.6451, 973.7693
993.1273, 973.1068
993.6094, 974.5215
994.0915, 975.2870
994.5736, 975.8948
995.0557, 975.1269
995.5378, 971.0155
996.0200, 967.1559
996.5021, 966.3865
996.9842, 967.4766
997.4663, 967.8098
997.9484, 966.9186
998.4305, 966.1882
998.9127, 966.5616
999.3948, 966.4063
999.8769, 963.7382
1000.359, 961.2699
1000.841, 962.7245
1001.323, 966.3994
1001.805, 967.2369
1002.287, 963.4639
1002.770, 959.3595
1003.252, 956.0312
1003.734, 954.3235
1004.216, 956.4832
1004.698, 959.6171
1005.180, 959.6489
1005.662, 956.8563
1006.144, 954.1688
1006.627, 952.7977
1007.109, 952.0638
1007.591, 951.6136
1008.073, 951.3229
1008.555, 951.2432
1009.037, 951.1340
1009.519, 950.5222
1010.001, 949.3770
1010.483, 947.8281
1010.966, 945.8204
1011.448, 944.4178
1011.930, 945.6668
1012.412, 948.0380
1012.894, 948.2780
1013.376, 946.9355
1013.858, 946.2402
1014.340, 946.6467
1014.823, 947.1014
1015.305, 946.8737
1015.787, 946.2654
1016.269, 945.7306
1016.751, 945.2423
1017.233, 944.5945
1017.715, 943.8493
1018.197, 943.7960
1018.679, 944.6177
1019.162, 944.5661
1019.644, 942.0158
1020.126, 938.3519
1020.608, 936.6918
1021.090, 936.9246
1021.572, 937.8513
1022.054, 939.4725
1022.536, 939.4566
1023.018, 936.8289
1023.501, 934.4044
1023.983, 934.7770
1024.465, 937.1351
1024.947, 939.3275
1025.429, 941.5082
1025.911, 941.2117
1026.393, 937.8595
1026.875, 934.4851
1027.358, 931.9029
1027.840, 930.3495
1028.322, 930.1916
1028.804, 931.1427
1029.286, 932.1312
1029.768, 933.3040
1030.250, 933.8677
1030.732, 933.6448
1031.214, 933.2905
1031.697, 933.1676
1032.179, 932.7501
1032.661, 931.3364
1033.143, 929.2115
1033.625, 927.6752
1034.107, 926.0822
1034.589, 926.9567
1035.071, 932.4694
1035.553, 936.5037
1036.036, 936.0134
1036.518, 934.1529
1037.000, 934.0420
1037.482, 935.3631
1037.964, 936.3124
1038.446, 937.4478
1038.928, 937.0657
1039.410, 933.9291
1039.893, 930.9451
1040.375, 928.5711
1040.857, 927.1738
1041.339, 927.6952
1041.821, 929.6682
1042.303, 930.4915
1042.785, 928.9118
1043.267, 928.5427
1043.750, 931.7164
1044.232, 933.3949
1044.714, 930.1151
1045.196, 925.8385
1045.678, 924.8453
1046.160, 926.4063
1046.642, 926.4362
1047.124, 923.4201
1047.606, 921.4344
1048.089, 921.7904
1048.571, 922.3069
1049.053, 922.5111
1049.535, 922.1532
1050.017, 920.5453
1050.499, 918.1528
1050.981, 916.8346
1051.463, 917.4794
1051.945, 917.6224
1052.428, 915.4661
1052.910, 914.2703
1053.392, 916.6525
1053.874, 919.8152
1054.356, 920.9459
1054.838, 920.3269
1055.320, 919.6482
1055.802, 919.1863
1056.285, 918.9011
1056.767, 918.7225
1057.249, 918.7822
1057.731, 919.9496
1058.213, 920.7451
1058.695, 918.5863
1059.177, 914.8506
1059.659, 914.3190
1060.141, 919.1351
1060.624, 922.1409
1061.106, 918.4183
1061.588, 915.2277
1062.070, 917.4489
1062.552, 921.0509
1063.034, 921.5812
1063.516, 919.9616
1063.998, 919.8265
1064.480, 922.2791
1064.963, 924.3456
1065.445, 924.9723
1065.927, 924.7643
1066.409, 923.2259
1066.891, 921.6741
1067.373, 921.9079
1067.855, 923.0526
1068.337, 922.7811
1068.820, 920.4792
1069.302, 917.9548
1069.784, 915.1566
1070.266, 913.3468
1070.748, 914.0339
1071.230, 915.2648
1071.712, 915.4424
1072.194, 914.6498
1072.677, 913.2231
1073.159, 911.2716
1073.641, 909.7604
1074.123, 909.8318
1074.605, 909.5216
1075.087, 907.1461
1075.569, 904.5846
1076.051, 903.7411
1076.533, 903.8386
1077.016, 903.0670
1077.498, 901.1942
1077.980, 899.9431
1078.462, 901.0256
1078.944, 901.4471
1079.426, 899.1715
1079.908, 896.2330
1080.390, 893.6733
1080.872, 891.8954
1081.354, 891.8055
1081.837, 893.1700
1082.319, 893.4882
1082.801, 890.4515
1083.283, 888.8907
1083.765, 892.9270
1084.247, 897.3178
1084.729, 898.5533
1085.211, 897.5463
1085.694, 894.9553
1086.176, 891.5491
1086.658, 889.7980
1087.140, 891.1481
1087.622, 892.4050
1088.104, 892.1491
1088.586, 891.4514
1089.068, 890.7895
1089.551, 890.2043
1090.033, 889.5076
1090.515, 888.8876
1090.997, 889.0254
1091.479, 890.2548
1091.961, 891.5406
1092.443, 893.9559
1092.925, 894.5576
1093.407, 890.1577
1093.890, 884.5696
1094.372, 881.1036
1094.854, 879.6800
1095.336, 879.4895
1095.818, 880.5668
1096.300, 880.9376
1096.782, 879.0662
1097.264, 877.5881
1097.746, 877.7479
1098.229, 878.5038
1098.711, 879.6273
1099.193, 880.4784
1099.675, 879.6938
1100.157, 877.0896
1100.639, 875.3944
1101.121, 875.3483
1101.603, 876.1957
1102.086, 879.0850
1102.568, 881.3513
1103.050, 881.1493
1103.532, 879.4053
1104.014, 877.0924
1104.496, 874.4374
1104.978, 872.5436
1105.460, 871.8729
1105.943, 871.5146
1106.425, 870.2550
1106.907, 870.5650
1107.389, 875.7062
1107.871, 881.3545
1108.353, 882.7667
1108.835, 880.5214
1109.317, 877.9559
1109.799, 874.5297
1110.281, 872.7418
1110.764, 874.5523
1111.246, 875.6639
1111.728, 874.1442
1112.210, 872.1185
1112.692, 871.3862
1113.174, 871.4059
1113.656, 870.6276
1114.138, 868.6757
1114.621, 867.6386
1115.103, 868.0770
1115.585, 868.5186
1116.067, 868.6639
1116.549, 868.8776
1117.031, 869.8191
1117.513, 870.5968
1117.995, 869.4582
1118.478, 866.3757
1118.960, 864.7701
1119.442, 865.6292
1119.924, 865.5213
1120.406, 863.2025
1120.888, 861.9329
1121.370, 863.5295
1121.852, 866.2318
1122.334, 868.3821
1122.817, 869.7723
1123.299, 868.9355
1123.781, 864.8859
1124.263, 862.7199
1124.745, 862.8253
1125.227, 864.0624
1125.709, 866.5918
1126.191, 868.4601
1126.673, 867.8690
1127.156, 865.7735
1127.638, 864.4526
1128.120, 863.9274
1128.602, 863.5116
1129.084, 863.1733
1129.566, 863.4381
1130.048, 864.5157
1130.530, 865.2653
1131.013, 865.0438
1131.495, 864.0225
1131.977, 862.2292
1132.459, 859.9915
1132.941, 858.7889
1133.423, 858.6252
1133.905, 860.1992
1134.387, 863.4285
1134.870, 864.7115
1135.352, 862.6285
1135.834, 860.4260
1136.316, 861.3986
1136.798, 863.8101
1137.280, 863.8053
1137.762, 862.1102
1138.244, 861.0544
1138.726, 860.7975
1139.208, 861.8828
1139.691, 864.1074
1140.173, 864.9109
1140.655, 862.5220
1141.137, 859.6259
1141.619, 860.2591
1142.101, 862.2758
1142.583, 861.7698
1143.065, 859.6274
1143.548, 857.5322
1144.030, 855.9812
1144.512, 855.4261
1144.994, 856.0359
1145.476, 857.6058
1145.958, 861.4078
1146.440, 864.2436
1146.922, 861.6995
1147.405, 857.1973
1147.887, 854.6917
1148.369, 853.8952
1148.851, 853.6631
1149.333, 853.5859
1149.815, 853.1365
1150.297, 851.6844
1150.779, 850.8581
1151.261, 851.8268
1151.744, 853.5280
1152.226, 856.0203
1152.708, 858.1904
1153.190, 858.6181
1153.672, 857.6086
1154.154, 856.3276
1154.636, 854.9203
1155.118, 854.0237
1155.600, 855.0380
1156.083, 854.9359
1156.565, 851.2604
1157.047, 847.5521
1157.529, 846.0204
1158.011, 846.2302
1158.493, 848.1154
1158.975, 851.5663
1159.457, 852.4673
1159.940, 847.2159
1160.422, 844.9397
1160.904, 848.0601
1161.386, 851.0833
1161.868, 852.3568
1162.350, 852.5391
1162.832, 852.1005
1163.314, 851.0878
1163.796, 849.5203
1164.279, 847.1144
1164.761, 845.8337
1165.243, 846.0197
1165.725, 846.0458
1166.207, 845.3568
1166.689, 845.4301
1167.171, 847.3626
1167.653, 849.8088
1168.135, 850.9760
1168.618, 850.8805
1169.100, 849.0419
1169.582, 845.5156
1170.064, 844.1816
1170.546, 845.3347
1171.028, 847.2513
1171.510, 849.3596
1171.992, 850.2267
1172.474, 848.4716
1172.957, 845.9920
1173.439, 846.4896
1173.921, 848.8026
1174.403, 849.6114
1174.885, 849.1439
1175.367, 848.0743
1175.849, 846.7644
1176.331, 846.1454
1176.814, 846.6046
1177.296, 847.5040
1177.778, 848.6570
1178.260, 849.4480
1178.742, 848.8171
1179.224, 847.6378
1179.706, 847.5563
1180.188, 847.7086
1180.671, 845.5225
1181.153, 841.2385
1181.635, 838.6425
1182.117, 839.8182
1182.599, 841.3016
1183.081, 841.4764
1183.563, 841.0992
1184.045, 840.4810
1184.527, 839.6861
1185.010, 838.2775
1185.492, 836.8637
1185.974, 836.9064
1186.456, 838.6824
1186.938, 840.3633
1187.420, 842.1152
1187.902, 843.0540
1188.384, 841.9147
1188.866, 841.3350
1189.349, 843.3272
1189.831, 845.5463
1190.313, 845.2366
1190.795, 843.1750
1191.277, 842.6228
1191.759, 844.3239
1192.241, 843.8312
1192.723, 839.8123
1193.206, 838.6611
1193.688, 842.4745
1194.170, 846.2596
1194.652, 847.1861
1195.134, 846.2120
1195.616, 844.4066
1196.098, 842.1432
1196.580, 841.2035
1197.063, 841.4321
1197.545, 841.1979
1198.027, 840.3988
1198.509, 839.2148
1198.991, 837.7460
1199.473, 836.4365
1199.955, 835.6136
1200.437, 834.9689
1200.919, 833.7606
1201.401, 832.6852
1201.884, 833.5940
1202.366, 832.5949
1202.848, 834.7210
1203.330, 832.6338
1203.812, 831.6859
1204.294, 832.6276
1204.776, 833.9864
1205.258, 834.7090
1205.741, 835.9841
1206.223, 840.2416
1206.705, 843.5312
1207.187, 841.6220
1207.669, 837.8420
1208.151, 836.2445
1208.633, 836.6068
1209.115, 836.8727
1209.598, 836.7783
1210.080, 836.1761
1210.562, 834.2303
1211.044, 832.9783
1211.526, 833.4222
1212.008, 833.8969
1212.490, 833.4695
1212.972, 832.8914
1213.454, 833.2162
1213.937, 834.1209
1214.419, 833.9979
1214.901, 832.6812
1215.383, 831.0300
1215.865, 828.8644
1216.347, 827.6178
1216.829, 827.7249
1217.311, 827.6929
1217.793, 826.5566
1218.276, 825.6711
1218.758, 827.1501
1219.240, 829.8741
1219.722, 830.5143
1220.204, 829.6710
1220.686, 829.1055
1221.168, 829.1435
1221.650, 830.7061
1222.133, 833.6671
1222.615, 836.1612
1223.097, 837.2208
1223.579, 836.8058
1224.061, 833.7299
1224.543, 830.3734
1225.025, 829.5569
1225.507, 829.4094
1225.990, 827.3860
1226.472, 824.3427
1226.954, 822.3187
1227.436, 821.6112
1227.918, 821.1321
1228.400, 820.6705
1228.882, 820.2064
1229.364, 819.2394
1229.846, 818.9238
1230.328, 820.5297
1230.811, 822.1179
1231.293, 821.8011
1231.775, 820.7701
1232.257, 821.4012
1232.739, 823.6769
1233.221, 824.9157
1233.703, 824.9607
1234.185, 824.5423
1234.668, 823.5701
1235.150, 822.9813
1235.632, 823.1092
1236.114, 823.4533
1236.596, 823.6442
1237.078, 823.7134
1237.560, 823.7015
1238.042, 823.6243
1238.525, 823.4260
1239.007, 823.2340
1239.489, 823.7551
1239.971, 824.6925
1240.453, 824.5303
1240.935, 822.9987
1241.417, 821.7888
1241.899, 822.0944
1242.381, 822.5115
1242.864, 821.6194
1243.346, 820.7014
1243.828, 820.8643
1244.310, 821.5613
1244.792, 822.3958
1245.274, 823.1256
1245.756, 823.4335
1246.238, 823.2673
1246.720, 822.6330
1247.203, 821.3890
1247.685, 819.8708
1248.167, 816.9521
1248.649, 815.6636
1249.131, 818.1442
1249.613, 820.5251
1250.095, 819.6721
1250.577, 817.0584
1251.059, 815.4235
1251.542, 814.7590
1252.024, 815.4416
1252.506, 817.4508
1252.988, 816.6765
1253.470, 812.9928
1253.952, 811.4523
1254.434, 813.5203
1254.916, 816.3179
1255.399, 817.8958
1255.881, 818.7196
1256.363, 819.3735
1256.845, 819.6123
1257.327, 818.9047
1257.809, 817.6509
1258.291, 815.5414
1258.773, 813.7412
1259.255, 815.4666
1259.738, 820.5224
1260.220, 823.2972
1260.702, 820.9031
1261.184, 818.6130
1261.666, 818.8260
1262.148, 818.5130
1262.630, 815.0164
1263.112, 812.1498
1263.594, 813.6736
1264.077, 816.6873
1264.559, 816.8100
1265.041, 814.4402
1265.523, 812.7972
1266.005, 811.7238
1266.487, 812.8229
1266.969, 816.5457
1267.451, 818.0464
1267.934, 816.1074
1268.416, 814.4451
1268.898, 815.1732
1269.380, 816.4311
1269.862, 816.0386
1270.344, 814.7181
1270.826, 813.1018
1271.308, 811.9351
1271.791, 813.1972
1272.273, 815.8159
1272.755, 817.9260
1273.237, 818.8810
1273.719, 817.6337
1274.201, 813.6335
1274.683, 810.8008
1275.165, 811.5388
1275.647, 812.8220
1276.130, 814.0921
1276.612, 814.9133
1277.094, 815.0236
1277.576, 814.5533
1278.058, 813.2898
1278.540, 811.7281
1279.022, 811.2430
1279.504, 811.8820
1279.986, 813.4355
1280.469, 816.2227
1280.951, 817.3516
1281.433, 816.4008
1281.915, 815.2048
1282.397, 814.4177
1282.879, 813.8460
1283.361, 813.3300
1283.843, 813.1740
1284.326, 813.7585
1284.808, 815.0247
##END=



