##NAMES=Wermlandite
##RRUFFID=R100052
##IDEAL CHEMISTRY=Mg_8_Al_2_(OH)_18_(S^6+^O_4_)_2_&#183;12H_2_O
##LOCALITY=Langban, Filipstad, Varmland, Sweden
##OWNER=RRUFF
##SOURCE=William W Pinch
##DESCRIPTION=Pale greenish blue hexagonal plates
##STATUS=The identification of this mineral has been confirmed by single-crystal X-ray diffraction.
##URL=rruff.info/R100052
91.53320, 290.7829
92.01532, 287.9611
92.49744, 286.1605
92.97955, 290.1097
93.46167, 295.4633
93.94379, 298.0566
94.42590, 299.6612
94.90802, 300.4902
95.39014, 299.9356
95.87225, 297.7690
96.35437, 295.4100
96.83649, 293.6053
97.31860, 292.1548
97.80072, 290.8105
98.28284, 289.0580
98.76495, 286.7941
99.24707, 285.0055
99.72919, 284.0248
100.2113, 283.2861
100.6934, 282.4477
101.1755, 281.6521
101.6577, 281.2502
102.1398, 281.5834
102.6219, 282.7738
103.1040, 283.9647
103.5861, 285.3191
104.0682, 286.5075
104.5504, 287.2595
105.0325, 287.5601
105.5146, 287.6661
105.9967, 287.8538
106.4788, 288.0118
106.9609, 288.5198
107.4431, 289.5094
107.9252, 290.8174
108.4073, 292.2241
108.8894, 293.6501
109.3715, 295.1587
109.8536, 296.9176
110.3358, 299.0291
110.8179, 300.9748
111.3000, 302.3024
111.7821, 303.0905
112.2642, 304.1150
112.7463, 305.7874
113.2285, 307.7916
113.7106, 309.8335
114.1927, 311.8712
114.6748, 313.9003
115.1569, 315.8937
115.6390, 317.8683
116.1212, 319.7987
116.6033, 321.6751
117.0854, 323.5192
117.5675, 325.3460
118.0496, 327.1635
118.5317, 328.9813
119.0139, 330.8228
119.4960, 332.3930
119.9781, 334.3285
120.4602, 337.0239
120.9423, 340.1646
121.4244, 343.2057
121.9066, 345.7285
122.3887, 347.7011
122.8708, 349.6117
123.3529, 351.6480
123.8350, 353.4922
124.3171, 354.8548
124.7993, 355.7914
125.2814, 356.6896
125.7635, 357.9632
126.2456, 359.7215
126.7277, 361.3445
127.2098, 362.7956
127.6920, 364.1157
128.1741, 365.3497
128.6562, 366.4956
129.1383, 367.5659
129.6204, 368.7017
130.1025, 369.9082
130.5847, 370.6587
131.0668, 370.3069
131.5489, 369.2337
132.0310, 368.8097
132.5131, 369.6281
132.9952, 370.8937
133.4774, 372.1845
133.9595, 373.4688
134.4416, 374.0856
134.9237, 373.1287
135.4058, 370.3158
135.8879, 367.8884
136.3701, 366.5614
136.8522, 365.5786
137.3343, 364.6798
137.8164, 363.7706
138.2985, 362.6962
138.7806, 361.1873
139.2628, 359.1862
139.7449, 356.7687
140.2270, 353.6035
140.7091, 350.2557
141.1912, 347.2313
141.6733, 344.7711
142.1555, 342.7175
142.6376, 340.5765
143.1197, 338.9368
143.6018, 336.5167
144.0839, 332.4505
144.5660, 327.5816
145.0482, 323.2720
145.5303, 320.3776
146.0124, 318.6752
146.4945, 316.4075
146.9766, 313.3140
147.4587, 310.0643
147.9409, 306.9536
148.4230, 303.9429
148.9051, 300.7870
149.3872, 297.1501
149.8693, 293.2168
150.3514, 289.8471
150.8336, 287.6490
151.3157, 285.6591
151.7978, 282.9058
152.2799, 279.2560
152.7620, 275.5470
153.2441, 272.4526
153.7263, 269.7313
154.2084, 266.9627
154.6905, 264.1570
155.1726, 261.2166
155.6547, 257.7418
156.1368, 253.2127
156.6190, 249.1583
157.1011, 246.7524
157.5832, 245.3438
158.0653, 243.6264
158.5474, 240.5710
159.0295, 236.3102
159.5117, 232.6375
159.9938, 230.0684
160.4759, 227.6082
160.9580, 224.9283
161.4401, 222.0594
161.9222, 219.1725
162.4044, 216.4283
162.8865, 213.8340
163.3686, 211.2477
163.8507, 208.8244
164.3328, 206.2636
164.8149, 203.2554
165.2971, 199.8777
165.7792, 196.6275
166.2613, 194.1070
166.7434, 192.7524
167.2255, 190.8968
167.7076, 188.1595
168.1898, 185.2513
168.6719, 182.6167
169.1540, 180.3525
169.6361, 178.4002
170.1182, 176.7341
170.6003, 175.6213
171.0825, 174.0802
171.5646, 171.6618
172.0467, 168.9549
172.5288, 166.6887
173.0109, 165.1058
173.4930, 163.7771
173.9752, 161.8742
174.4573, 159.2682
174.9394, 157.0307
175.4215, 155.7922
175.9036, 155.1351
176.3857, 154.1153
176.8679, 152.3624
177.3500, 150.2776
177.8321, 148.4052
178.3142, 146.7452
178.7963, 145.1435
179.2784, 143.5712
179.7606, 142.0001
180.2427, 140.2679
180.7248, 138.0072
181.2069, 135.8745
181.6890, 134.5983
182.1711, 134.2590
182.6533, 133.9721
183.1354, 132.7991
183.6175, 130.6154
184.0996, 128.5358
184.5817, 126.9010
185.0638, 125.3939
185.5460, 123.8075
186.0281, 122.1030
186.5102, 120.4693
186.9923, 119.1712
187.4744, 118.2668
187.9565, 117.5736
188.4387, 117.2619
188.9208, 117.0021
189.4029, 116.5878
189.8850, 115.9474
190.3671, 115.1175
190.8492, 114.1389
191.3314, 112.9170
191.8135, 111.6982
192.2956, 110.5270
192.7777, 109.3568
193.2598, 108.1164
193.7419, 106.7858
194.2241, 105.4380
194.7062, 104.2509
195.1883, 103.1639
195.6704, 102.3440
196.1525, 102.1311
196.6346, 102.0815
197.1168, 101.6280
197.5989, 100.5117
198.0810, 98.98556
198.5631, 97.78162
199.0452, 97.09097
199.5273, 96.43948
200.0095, 95.78224
200.4916, 95.11478
200.9737, 94.40489
201.4558, 93.61512
201.9379, 92.81361
202.4200, 92.22527
202.9022, 92.13234
203.3843, 91.75256
203.8664, 90.46348
204.3485, 88.62251
204.8306, 87.30935
205.3127, 87.20165
205.7949, 87.66188
206.2770, 87.22629
206.7591, 85.49123
207.2412, 83.81387
207.7233, 83.07650
208.2054, 83.14137
208.6876, 83.20081
209.1697, 83.02560
209.6518, 82.58201
210.1339, 81.80170
210.6160, 80.53239
211.0981, 79.36599
211.5803, 78.88705
212.0624, 79.09797
212.5445, 79.26591
213.0266, 79.15038
213.5087, 78.85600
213.9908, 78.47076
214.4730, 78.00485
214.9551, 77.46851
215.4372, 76.85567
215.9193, 76.14719
216.4014, 75.46819
216.8836, 74.87377
217.3657, 74.30959
217.8478, 73.70293
218.3299, 73.03642
218.8120, 72.43168
219.2941, 72.08203
219.7763, 72.05786
220.2584, 72.06199
220.7405, 72.20216
221.2226, 72.25227
221.7047, 72.01458
222.1868, 71.44254
222.6690, 70.69504
223.1511, 69.96748
223.6332, 69.10242
224.1153, 68.64657
224.5974, 68.94842
225.0795, 69.41889
225.5617, 69.69235
226.0438, 69.64940
226.5259, 69.33384
227.0080, 68.76784
227.4901, 67.63039
227.9722, 66.85398
228.4544, 66.66764
228.9365, 66.67680
229.4186, 66.57475
229.9007, 66.27833
230.3828, 65.92487
230.8649, 65.78349
231.3471, 66.29106
231.8292, 66.26804
232.3113, 65.15572
232.7934, 63.88454
233.2755, 63.29737
233.7576, 63.60238
234.2398, 64.29051
234.7219, 64.50800
235.2040, 63.78978
235.6861, 63.41969
236.1682, 63.64820
236.6503, 64.07951
237.1325, 64.38005
237.6146, 64.45734
238.0967, 64.39160
238.5788, 64.26939
239.0609, 63.94813
239.5430, 63.94958
240.0252, 64.79807
240.5073, 65.72970
240.9894, 65.93499
241.4715, 65.22372
241.9536, 64.03097
242.4357, 62.79164
242.9179, 61.36936
243.4000, 60.60226
243.8821, 61.01755
244.3642, 61.92579
244.8463, 62.67344
245.3284, 63.14312
245.8106, 63.31343
246.2927, 63.01543
246.7748, 62.22135
247.2569, 61.68398
247.7390, 61.70088
248.2211, 61.94984
248.7033, 62.03583
249.1854, 61.88662
249.6675, 61.68542
250.1496, 61.60321
250.6317, 61.62649
251.1138, 61.69843
251.5960, 61.85846
252.0781, 62.03988
252.5602, 62.15666
253.0423, 62.19635
253.5244, 62.19523
254.0065, 62.10476
254.4887, 61.98374
254.9708, 62.02539
255.4529, 62.43264
255.9350, 62.96802
256.4171, 63.28484
256.8992, 63.33997
257.3813, 63.32949
257.8635, 63.40825
258.3456, 63.51568
258.8277, 63.53209
259.3098, 63.27142
259.7919, 62.99113
260.2740, 63.11554
260.7562, 63.72961
261.2383, 64.37910
261.7204, 64.84064
262.2025, 65.17429
262.6846, 65.42965
263.1667, 65.58690
263.6489, 65.71228
264.1310, 65.86293
264.6131, 66.00719
265.0952, 66.31637
265.5773, 67.05556
266.0594, 67.92513
266.5416, 68.67199
267.0237, 69.24655
267.5058, 69.63208
267.9879, 69.76128
268.4700, 69.57958
268.9521, 69.39470
269.4343, 69.26601
269.9164, 69.20100
270.3985, 69.18445
270.8806, 69.20332
271.3627, 69.36141
271.8448, 69.85439
272.3270, 70.76613
272.8091, 71.58448
273.2912, 72.18718
273.7733, 72.65302
274.2554, 72.97083
274.7375, 73.14963
275.2197, 73.31797
275.7018, 73.66474
276.1839, 74.23696
276.6660, 74.66976
277.1481, 74.70158
277.6302, 74.73001
278.1124, 74.94263
278.5945, 75.35509
279.0766, 75.87832
279.5587, 76.51536
280.0408, 77.31538
280.5229, 77.80049
281.0051, 77.51962
281.4872, 77.27570
281.9693, 77.52281
282.4514, 78.14625
282.9335, 78.67774
283.4156, 78.59777
283.8978, 77.88333
284.3799, 77.65469
284.8620, 78.43936
285.3441, 79.21017
285.8262, 79.63712
286.3083, 79.77347
286.7905, 79.79512
287.2726, 79.83469
287.7547, 79.87364
288.2368, 79.70934
288.7189, 78.96379
289.2010, 78.47469
289.6832, 78.64869
290.1653, 79.17971
290.6474, 79.61817
291.1295, 79.70984
291.6116, 79.51060
292.0938, 79.22725
292.5759, 78.74618
293.0580, 78.34911
293.5401, 78.03487
294.0222, 77.84464
294.5043, 77.90845
294.9865, 78.29881
295.4686, 78.77689
295.9507, 78.69360
296.4328, 77.47842
296.9149, 76.73094
297.3970, 77.06337
297.8792, 77.64200
298.3613, 77.65773
298.8434, 76.89064
299.3255, 75.85623
299.8076, 75.47364
300.2897, 76.20644
300.7719, 76.53871
301.2540, 76.14687
301.7361, 75.58263
302.2182, 75.18069
302.7003, 74.99931
303.1824, 74.88760
303.6646, 74.63662
304.1467, 74.15373
304.6288, 73.87769
305.1109, 74.04232
305.5930, 74.19543
306.0751, 74.09747
306.5573, 73.77795
307.0394, 73.42976
307.5215, 73.24129
308.0036, 73.23010
308.4857, 73.10151
308.9678, 72.81155
309.4500, 72.43936
309.9321, 71.80325
310.4142, 71.10241
310.8963, 70.76472
311.3784, 71.15120
311.8605, 72.11478
312.3427, 72.48269
312.8248, 71.62029
313.3069, 70.86546
313.7890, 70.59288
314.2711, 70.52957
314.7532, 70.27064
315.2354, 69.60798
315.7175, 68.72100
316.1996, 68.14269
316.6817, 68.08450
317.1638, 68.01809
317.6459, 67.91036
318.1281, 67.75537
318.6102, 67.52209
319.0923, 67.20841
319.5744, 66.88649
320.0565, 66.70515
320.5386, 66.81413
321.0208, 66.70832
321.5029, 66.20738
321.9850, 65.64201
322.4671, 65.18755
322.9492, 64.87730
323.4313, 64.66933
323.9135, 64.52285
324.3956, 64.44522
324.8777, 64.39377
325.3598, 64.56103
325.8419, 64.57545
326.3240, 64.18648
326.8062, 63.50173
327.2883, 62.80646
327.7704, 62.28143
328.2525, 61.93544
328.7346, 61.91494
329.2167, 62.79902
329.6989, 63.34918
330.1810, 63.02376
330.6631, 62.23484
331.1452, 61.62000
331.6273, 61.54092
332.1094, 61.79259
332.5916, 61.69296
333.0737, 60.82863
333.5558, 60.33604
334.0379, 60.68733
334.5200, 61.29536
335.0021, 61.60650
335.4843, 61.44398
335.9664, 61.03749
336.4485, 60.73333
336.9306, 60.53610
337.4127, 60.42943
337.8948, 60.52423
338.3770, 60.61853
338.8591, 60.61255
339.3412, 60.48808
339.8233, 60.26332
340.3055, 59.88981
340.7876, 59.33308
341.2697, 58.99052
341.7518, 58.97475
342.2339, 59.08754
342.7160, 59.36759
343.1982, 59.72009
343.6803, 59.94465
344.1624, 59.87810
344.6445, 59.57933
345.1266, 59.34866
345.6087, 59.25193
346.0909, 59.11556
346.5730, 58.75753
347.0551, 58.37362
347.5372, 58.24297
348.0193, 58.51126
348.5014, 58.96456
348.9836, 59.22422
349.4657, 59.25642
349.9478, 59.20248
350.4299, 59.00366
350.9120, 58.79039
351.3941, 58.68520
351.8763, 58.70747
352.3584, 58.72031
352.8405, 58.49361
353.3226, 58.01189
353.8047, 57.84486
354.2868, 58.34811
354.7690, 58.90075
355.2511, 59.10144
355.7332, 58.99877
356.2153, 58.84764
356.6974, 58.81758
357.1795, 58.87287
357.6617, 58.87040
358.1438, 58.78978
358.6259, 58.68987
359.1080, 58.54485
359.5901, 58.41308
360.0722, 58.41391
360.5544, 58.68176
361.0365, 58.99353
361.5186, 58.99440
362.0007, 58.64209
362.4828, 58.30468
362.9649, 58.08541
363.4471, 57.99033
363.9292, 58.04705
364.4113, 58.28660
364.8934, 58.55318
365.3755, 58.74842
365.8576, 58.87415
366.3398, 58.92381
366.8219, 58.84320
367.3040, 58.76593
367.7861, 58.85133
368.2682, 59.08302
368.7503, 59.30615
369.2325, 59.52375
369.7146, 59.67574
370.1967, 59.60071
370.6788, 59.24443
371.1609, 58.91972
371.6430, 58.94603
372.1252, 59.20530
372.6073, 59.29920
373.0894, 59.09717
373.5715, 58.77567
374.0536, 58.37752
374.5357, 57.93990
375.0179, 57.71395
375.5000, 57.91513
375.9821, 58.32173
376.4642, 58.37685
376.9463, 57.89669
377.4284, 57.53681
377.9106, 57.72358
378.3927, 58.14908
378.8748, 58.24577
379.3569, 57.84240
379.8390, 57.24742
380.3211, 56.80663
380.8033, 56.51667
381.2854, 56.46333
381.7675, 56.82428
382.2496, 57.30255
382.7317, 57.80482
383.2138, 58.25909
383.6960, 58.34713
384.1781, 57.71770
384.6602, 56.45980
385.1423, 55.87654
385.6244, 56.46532
386.1065, 57.03413
386.5887, 57.16852
387.0708, 57.02370
387.5529, 56.88708
388.0350, 56.88507
388.5171, 56.93628
388.9992, 56.85302
389.4814, 56.34544
389.9635, 56.16730
390.4456, 56.69450
390.9277, 57.29798
391.4098, 57.46950
391.8919, 57.14499
392.3741, 56.56121
392.8562, 55.91545
393.3383, 55.15034
393.8204, 54.76492
394.3025, 55.02106
394.7846, 55.35569
395.2668, 55.61439
395.7489, 55.80872
396.2310, 56.00558
396.7131, 56.24995
397.1952, 56.50315
397.6773, 56.62233
398.1595, 56.49223
398.6416, 56.41620
399.1237, 56.40814
399.6058, 56.47723
400.0879, 56.63978
400.5700, 56.89589
401.0522, 57.21472
401.5343, 57.56236
402.0164, 57.93350
402.4985, 58.35956
402.9806, 58.94941
403.4627, 59.49047
403.9449, 59.93272
404.4270, 60.25406
404.9091, 60.39541
405.3912, 60.20866
405.8733, 59.87080
406.3554, 59.97544
406.8376, 60.68475
407.3197, 61.43801
407.8018, 62.05908
408.2839, 62.58793
408.7660, 63.02581
409.2481, 63.35886
409.7303, 63.70201
410.2124, 64.20599
410.6945, 64.85696
411.1766, 65.45824
411.6587, 66.00096
412.1408, 66.43588
412.6230, 66.60101
413.1051, 66.55549
413.5872, 66.76989
414.0693, 67.74686
414.5514, 68.99280
415.0335, 69.61933
415.5157, 69.52176
415.9978, 69.42496
416.4799, 69.79990
416.9620, 70.53957
417.4441, 71.25614
417.9262, 71.94809
418.4084, 72.59996
418.8905, 73.22330
419.3726, 73.79915
419.8547, 74.21012
420.3368, 74.35828
420.8189, 74.52625
421.3011, 75.25155
421.7832, 76.72651
422.2653, 77.90435
422.7474, 78.48034
423.2295, 78.84518
423.7116, 79.27056
424.1938, 79.80517
424.6759, 80.47761
425.1580, 81.33949
425.6401, 82.37366
426.1222, 83.28659
426.6043, 84.08728
427.0865, 84.77675
427.5686, 85.27732
428.0507, 85.69245
428.5328, 86.17175
429.0149, 86.77209
429.4970, 87.42176
429.9792, 87.98650
430.4613, 88.35863
430.9434, 88.89452
431.4255, 89.82872
431.9076, 90.69537
432.3897, 91.12212
432.8719, 91.21817
433.3540, 91.43115
433.8361, 92.17733
434.3182, 93.33074
434.8003, 93.94175
435.2824, 93.54648
435.7646, 93.30726
436.2467, 93.54849
436.7288, 94.05370
437.2109, 94.61701
437.6930, 95.17513
438.1751, 95.72993
438.6573, 96.29133
439.1394, 96.86086
439.6215, 97.42670
440.1036, 98.14167
440.5857, 98.66525
441.0678, 98.65877
441.5500, 98.25882
442.0321, 97.98294
442.5142, 98.17238
442.9963, 98.61829
443.4784, 98.90784
443.9605, 99.00576
444.4427, 99.24224
444.9248, 99.98087
445.4069, 100.8540
445.8890, 101.1476
446.3711, 100.5578
446.8532, 100.1625
447.3354, 100.8148
447.8175, 102.0613
448.2996, 102.8931
448.7817, 103.0595
449.2638, 102.9666
449.7459, 103.0442
450.2281, 103.3056
450.7102, 103.4064
451.1923, 103.0942
451.6744, 102.8305
452.1565, 102.9678
452.6386, 103.4076
453.1208, 103.8061
453.6029, 103.9742
454.0850, 104.0243
454.5671, 104.2706
455.0492, 105.0138
455.5313, 105.5435
456.0135, 105.8149
456.4956, 105.8964
456.9777, 105.7159
457.4598, 105.3463
457.9419, 105.1238
458.4240, 105.4519
458.9062, 106.3465
459.3883, 106.6091
459.8704, 105.6259
460.3525, 104.6648
460.8346, 104.0758
461.3167, 103.6362
461.7989, 103.0009
462.2810, 102.0304
462.7631, 101.0047
463.2452, 100.5481
463.7273, 100.8940
464.2094, 100.3837
464.6916, 97.93435
465.1737, 95.38606
465.6558, 93.81967
466.1379, 93.09376
466.6200, 92.50624
467.1021, 91.72593
467.5843, 90.81414
468.0664, 89.92164
468.5485, 89.06459
469.0306, 88.06294
469.5127, 86.64438
469.9948, 85.15008
470.4770, 84.20071
470.9591, 84.00410
471.4412, 83.64438
471.9233, 82.42472
472.4054, 80.79005
472.8875, 79.58677
473.3697, 78.97753
473.8518, 78.59047
474.3339, 78.13318
474.8160, 77.60148
475.2981, 77.01026
475.7802, 76.28024
476.2624, 75.57768
476.7445, 74.96854
477.2266, 74.43694
477.7087, 73.93965
478.1908, 73.45399
478.6729, 73.02856
479.1551, 72.73872
479.6372, 72.52020
480.1193, 72.62014
480.6014, 73.35825
481.0835, 74.08450
481.5656, 74.47108
482.0478, 74.52988
482.5299, 74.37614
483.0120, 74.05466
483.4941, 73.63953
483.9762, 73.41731
484.4583, 73.41805
484.9405, 73.56252
485.4226, 73.95692
485.9047, 74.39484
486.3868, 74.68288
486.8689, 74.81103
487.3510, 74.96474
487.8332, 75.31175
488.3153, 75.81924
488.7974, 76.39403
489.2795, 77.14812
489.7616, 77.67933
490.2437, 77.39236
490.7259, 76.80212
491.2080, 76.73917
491.6901, 77.53117
492.1722, 78.51241
492.6543, 79.22298
493.1364, 79.74029
493.6186, 80.28586
494.1007, 80.92358
494.5828, 81.59217
495.0649, 82.22779
495.5470, 82.82755
496.0291, 83.41915
496.5113, 84.01399
496.9934, 84.59455
497.4755, 85.06094
497.9576, 85.50648
498.4397, 86.17128
498.9218, 87.17302
499.4040, 88.38326
499.8861, 89.49123
500.3682, 90.27178
500.8503, 91.36894
501.3324, 93.09431
501.8145, 94.83655
502.2967, 96.12318
502.7788, 97.07344
503.2609, 98.19556
503.7430, 99.90003
504.2251, 101.9912
504.7072, 103.6468
505.1894, 104.6189
505.6715, 105.7393
506.1536, 107.1963
506.6357, 108.8985
507.1178, 110.8470
507.5999, 113.0243
508.0821, 115.2334
508.5642, 117.2748
509.0463, 119.2332
509.5284, 121.4245
510.0105, 123.9215
510.4926, 126.3923
510.9748, 128.6464
511.4569, 130.7063
511.9390, 132.6297
512.4211, 134.2700
512.9032, 136.0228
513.3853, 138.0274
513.8674, 140.2826
514.3495, 142.7940
514.8317, 145.5833
515.3138, 148.5386
515.7959, 151.5879
516.2780, 154.7583
516.7601, 157.7266
517.2422, 160.4534
517.7244, 163.0716
518.2065, 165.6744
518.6886, 168.1824
519.1707, 170.4514
519.6528, 172.4343
520.1349, 174.2688
520.6171, 176.1314
521.0992, 178.0170
521.5813, 179.9601
522.0634, 182.2637
522.5455, 184.3139
523.0276, 185.8746
523.5098, 187.0225
523.9919, 187.9006
524.4740, 188.5618
524.9561, 189.0268
525.4382, 189.4122
525.9203, 189.7215
526.4025, 189.5102
526.8846, 188.4676
527.3667, 187.1376
527.8488, 186.0255
528.3309, 185.0991
528.8130, 184.1301
529.2952, 183.4325
529.7773, 182.3765
530.2594, 180.1176
530.7415, 176.8905
531.2236, 173.8165
531.7057, 171.4435
532.1879, 169.3257
532.6700, 166.5696
533.1521, 162.6552
533.6342, 159.2537
534.1163, 156.7927
534.5984, 154.5294
535.0806, 152.1283
535.5627, 149.5079
536.0448, 146.5290
536.5269, 143.0693
537.0090, 139.4069
537.4911, 136.5011
537.9733, 134.7656
538.4554, 132.8240
538.9375, 130.3904
539.4196, 127.8171
539.9017, 125.3134
540.3839, 122.8632
540.8660, 120.3328
541.3481, 117.6631
541.8302, 114.8381
542.3123, 111.6397
542.7944, 107.9697
543.2766, 104.8884
543.7587, 103.2450
544.2408, 102.0652
544.7229, 99.90170
545.2050, 96.65746
545.6871, 93.39305
546.1693, 90.20180
546.6514, 87.34937
547.1335, 85.27896
547.6156, 83.91029
548.0977, 82.59251
548.5798, 80.95801
549.0620, 79.04445
549.5441, 76.99504
550.0262, 74.12301
550.5083, 72.07021
550.9904, 71.49734
551.4725, 71.24881
551.9547, 70.48278
552.4368, 69.18935
552.9189, 67.79432
553.4010, 66.61434
553.8831, 65.58897
554.3652, 64.44302
554.8474, 62.99998
555.3295, 61.89809
555.8116, 61.78737
556.2937, 61.74168
556.7758, 60.92414
557.2579, 59.36475
557.7401, 58.04427
558.2222, 57.80023
558.7043, 58.06273
559.1864, 57.77437
559.6685, 56.90679
560.1506, 56.08959
560.6328, 55.59423
561.1149, 55.37212
561.5970, 55.40944
562.0791, 55.89355
562.5612, 56.00381
563.0433, 55.19108
563.5255, 54.24416
564.0076, 54.00975
564.4897, 54.32604
564.9718, 54.26554
565.4539, 53.18763
565.9360, 51.45783
566.4182, 50.31516
566.9003, 49.95140
567.3824, 49.82768
567.8645, 50.05867
568.3466, 50.35718
568.8287, 50.65019
569.3109, 50.86277
569.7930, 50.81477
570.2751, 50.32056
570.7572, 49.57406
571.2393, 48.98442
571.7214, 48.56585
572.2036, 48.13744
572.6857, 47.56411
573.1678, 47.05334
573.6499, 46.86588
574.1320, 46.99132
574.6141, 47.16937
575.0963, 47.49009
575.5784, 47.70675
576.0605, 47.51677
576.5426, 47.02296
577.0247, 46.58144
577.5068, 46.35587
577.9890, 46.25730
578.4711, 46.10947
578.9532, 45.81626
579.4353, 45.73039
579.9174, 46.17033
580.3995, 46.47498
580.8817, 46.17886
581.3638, 45.53577
581.8459, 45.09000
582.3280, 45.11659
582.8101, 45.29071
583.2922, 45.02306
583.7744, 44.27156
584.2565, 43.71620
584.7386, 43.54835
585.2207, 43.44013
585.7029, 43.08439
586.1850, 42.60337
586.6671, 42.32946
587.1492, 42.49220
587.6313, 42.67944
588.1135, 42.56027
588.5956, 42.24044
589.0777, 41.92955
589.5598, 41.67700
590.0419, 41.56089
590.5240, 41.70367
591.0062, 42.12403
591.4883, 42.35415
591.9704, 42.40868
592.4525, 42.28271
592.9346, 41.86290
593.4167, 41.31915
593.8989, 40.77442
594.3810, 40.28969
594.8631, 39.97051
595.3452, 40.00525
595.8273, 40.34905
596.3094, 40.46084
596.7916, 40.24798
597.2737, 40.01609
597.7558, 39.89941
598.2379, 39.82799
598.7200, 39.71246
599.2021, 39.53200
599.6843, 39.41885
600.1664, 39.60072
600.6485, 39.81055
601.1306, 39.53165
601.6127, 38.80011
602.0948, 38.27704
602.5770, 38.37566
603.0591, 38.88415
603.5412, 39.22266
604.0233, 39.30576
604.5054, 39.34351
604.9875, 39.46698
605.4697, 39.43138
605.9518, 38.94023
606.4339, 38.15845
606.9160, 37.50454
607.3981, 37.21186
607.8802, 37.17096
608.3624, 37.21606
608.8445, 37.37046
609.3266, 37.42039
609.8087, 37.28077
610.2908, 37.09523
610.7729, 36.93362
611.2551, 36.80957
611.7372, 36.77235
612.2193, 36.91057
612.7014, 37.04396
613.1835, 37.02483
613.6656, 36.90818
614.1478, 36.83251
614.6299, 36.83136
615.1120, 36.77643
615.5941, 36.49306
616.0762, 35.97857
616.5583, 35.82179
617.0405, 36.36414
617.5226, 36.83571
618.0047, 37.20660
618.4868, 37.39349
618.9689, 37.15204
619.4510, 36.55212
619.9332, 36.15303
620.4153, 36.58399
620.8974, 37.55693
621.3795, 38.01706
621.8616, 37.90293
622.3438, 37.59185
622.8259, 37.12374
623.3080, 36.60830
623.7901, 36.12583
624.2722, 35.65853
624.7543, 35.49165
625.2365, 36.03633
625.7186, 36.62895
626.2007, 36.62591
626.6828, 36.20598
627.1649, 35.95721
627.6470, 36.13020
628.1292, 36.43742
628.6113, 36.36842
629.0934, 35.73513
629.5755, 35.51255
630.0576, 36.24801
630.5397, 36.81787
631.0219, 36.77599
631.5040, 36.41653
631.9861, 36.17670
632.4682, 36.18724
632.9503, 36.18165
633.4324, 35.80977
633.9146, 35.22564
634.3967, 34.93627
634.8788, 34.99740
635.3609, 35.23667
635.8430, 35.67528
636.3251, 36.15463
636.8073, 36.13411
637.2894, 35.24144
637.7715, 34.80579
638.2536, 35.51330
638.7357, 36.35049
639.2178, 36.45508
639.7000, 35.98800
640.1821, 35.62379
640.6642, 35.73455
641.1463, 36.09808
641.6284, 36.26670
642.1105, 36.20395
642.5927, 36.13429
643.0748, 36.06359
643.5569, 36.00480
644.0390, 36.01585
644.5211, 36.03449
645.0032, 35.90724
645.4854, 35.50721
645.9675, 35.17783
646.4496, 35.23600
646.9317, 35.49652
647.4138, 35.63174
647.8959, 35.59272
648.3781, 35.43276
648.8602, 35.15502
649.3423, 34.82322
649.8244, 34.75468
650.3065, 35.28438
650.7886, 35.57523
651.2708, 35.41986
651.7529, 35.18285
652.2350, 35.05822
652.7171, 35.06370
653.1992, 35.18764
653.6813, 35.46901
654.1635, 35.75183
654.6456, 35.76481
655.1277, 35.52958
655.6098, 35.31269
656.0919, 35.15586
656.5740, 35.04815
657.0562, 34.96636
657.5383, 34.92649
658.0204, 34.99849
658.5025, 35.23810
658.9846, 35.51968
659.4667, 35.93514
659.9489, 36.29524
660.4310, 36.34550
660.9131, 36.10500
661.3952, 35.80031
661.8773, 35.56405
662.3594, 35.45409
662.8416, 35.75893
663.3237, 36.70728
663.8058, 37.22184
664.2879, 36.86082
664.7700, 36.26115
665.2521, 35.74592
665.7343, 35.36455
666.2164, 35.28609
666.6985, 35.81530
667.1806, 36.31709
667.6627, 36.20360
668.1448, 35.78090
668.6270, 35.71030
669.1091, 36.09581
669.5912, 36.42295
670.0733, 36.20206
670.5554, 35.54094
671.0375, 35.23596
671.5197, 35.68219
672.0018, 35.83470
672.4839, 35.17522
672.9660, 34.55935
673.4481, 34.70118
673.9302, 35.43209
674.4124, 36.04650
674.8945, 36.16719
675.3766, 36.04184
675.8587, 35.86920
676.3408, 35.69702
676.8229, 35.82641
677.3051, 36.37825
677.7872, 36.85904
678.2693, 36.76458
678.7514, 36.16800
679.2335, 35.91917
679.7156, 36.46148
680.1978, 36.71794
680.6799, 36.18514
681.1620, 35.57147
681.6441, 35.57759
682.1262, 36.10252
682.6083, 36.50890
683.0905, 36.36443
683.5726, 35.95769
684.0547, 35.89771
684.5368, 36.18354
685.0189, 36.17439
685.5010, 35.60542
685.9832, 35.05077
686.4653, 35.08132
686.9474, 35.56145
687.4295, 35.76643
687.9116, 35.37045
688.3937, 35.12137
688.8759, 35.39831
689.3580, 35.81713
689.8401, 35.92770
690.3222, 35.76797
690.8043, 35.75325
691.2864, 36.18989
691.7686, 36.81433
692.2507, 36.93661
692.7328, 36.45923
693.2149, 36.11248
693.6970, 36.09275
694.1791, 36.07735
694.6613, 35.68389
695.1434, 35.14515
695.6255, 35.02656
696.1076, 35.63857
696.5897, 36.21529
697.0718, 36.49464
697.5540, 36.49849
698.0361, 36.09042
698.5182, 35.38371
699.0003, 34.84096
699.4824, 34.74854
699.9645, 34.98555
700.4467, 35.28913
700.9288, 35.69335
701.4109, 36.04822
701.8930, 36.56031
702.3751, 36.74202
702.8572, 36.01125
703.3394, 34.91925
703.8215, 34.43944
704.3036, 34.88060
704.7857, 35.48499
705.2678, 35.90732
705.7499, 36.18366
706.2321, 36.40784
706.7142, 36.54896
707.1963, 36.35219
707.6784, 35.64091
708.1605, 34.78519
708.6426, 34.56772
709.1248, 35.24466
709.6069, 35.64408
710.0890, 35.59779
710.5711, 35.46241
711.0532, 35.30062
711.5353, 35.14977
712.0175, 35.04132
712.4996, 34.97932
712.9817, 35.00272
713.4638, 35.21053
713.9459, 35.47443
714.4280, 35.64418
714.9102, 35.70717
715.3923, 35.62299
715.8744, 35.36332
716.3565, 35.03622
716.8386, 34.77350
717.3207, 34.54840
717.8029, 34.59145
718.2850, 35.26764
718.7671, 35.75859
719.2492, 35.73103
719.7313, 35.52959
720.2134, 35.50758
720.6956, 35.69669
721.1777, 35.87309
721.6598, 35.99939
722.1419, 35.97722
722.6240, 35.56612
723.1061, 34.87324
723.5883, 34.29308
724.0704, 33.93565
724.5525, 33.81797
725.0346, 33.99997
725.5167, 34.46949
725.9988, 34.77004
726.4810, 34.84412
726.9631, 34.82393
727.4452, 34.66023
727.9273, 34.46611
728.4094, 34.25154
728.8915, 34.07393
729.3737, 34.12351
729.8558, 34.63761
730.3379, 35.15690
730.8200, 35.02516
731.3021, 34.52000
731.7842, 34.53294
732.2664, 35.20696
732.7485, 35.73627
733.2306, 35.45593
733.7127, 34.61717
734.1948, 34.22720
734.6769, 34.63736
735.1591, 34.85965
735.6412, 34.70589
736.1233, 34.53566
736.6054, 34.53131
737.0875, 34.64149
737.5696, 34.77956
738.0518, 34.94061
738.5339, 34.99246
739.0160, 34.75726
739.4981, 34.36926
739.9802, 34.00391
740.4623, 33.70069
740.9445, 33.66034
741.4266, 34.01679
741.9087, 34.53804
742.3908, 34.81680
742.8729, 34.83238
743.3550, 34.69264
743.8372, 34.06403
744.3193, 33.68637
744.8014, 33.95488
745.2835, 34.45773
745.7656, 34.71732
746.2477, 34.68043
746.7299, 34.69553
747.2120, 35.08580
747.6941, 35.53004
748.1762, 35.61993
748.6583, 35.44577
749.1404, 35.28148
749.6226, 35.20708
750.1047, 35.20982
750.5868, 35.30615
751.0689, 35.46941
751.5510, 35.38388
752.0331, 34.83344
752.5153, 34.45166
752.9974, 34.38093
753.4795, 34.47273
753.9616, 34.75902
754.4437, 35.13887
754.9258, 35.32625
755.4080, 35.20862
755.8901, 34.92944
756.3722, 34.33332
756.8543, 33.75798
757.3364, 33.88569
757.8185, 34.63979
758.3007, 35.22302
758.7828, 35.14278
759.2649, 34.66540
759.7470, 34.33372
760.2291, 34.14439
760.7112, 34.12834
761.1934, 34.45250
761.6755, 34.69110
762.1576, 34.51316
762.6397, 34.19914
763.1218, 34.11972
763.6039, 34.33040
764.0861, 34.53377
764.5682, 34.64976
765.0503, 34.69995
765.5324, 34.70228
766.0145, 34.65043
766.4966, 34.48663
766.9788, 34.21449
767.4609, 34.00170
767.9430, 34.05826
768.4251, 34.30332
768.9072, 34.24831
769.3893, 33.77325
769.8715, 33.66438
770.3536, 34.35632
770.8357, 35.12833
771.3178, 35.29037
771.7999, 34.93678
772.2820, 34.54611
772.7642, 33.85432
773.2463, 33.52231
773.7284, 34.06748
774.2105, 34.78371
774.6926, 35.05017
775.1747, 34.91022
775.6569, 34.68694
776.1390, 34.53542
776.6211, 34.42313
777.1032, 34.31081
777.5853, 34.19872
778.0674, 34.09022
778.5496, 33.98785
779.0317, 33.84873
779.5138, 33.59285
779.9959, 33.38044
780.4780, 33.55080
780.9601, 34.29584
781.4423, 34.63221
781.9244, 34.22919
782.4065, 33.83926
782.8886, 33.58623
783.3707, 33.53836
783.8528, 33.90647
784.3350, 34.61152
784.8171, 35.09857
785.2992, 34.92413
785.7813, 34.47796
786.2634, 34.15269
786.7455, 33.98142
787.2277, 34.19423
787.7098, 34.82416
788.1919, 35.30560
788.6740, 35.16933
789.1561, 34.57627
789.6382, 34.08030
790.1204, 33.56954
790.6025, 33.43776
791.0846, 34.15116
791.5667, 34.75785
792.0488, 34.77158
792.5309, 34.44195
793.0131, 34.12161
793.4952, 33.84733
793.9773, 33.74731
794.4594, 34.03189
794.9415, 34.39018
795.4236, 34.54811
795.9058, 34.53946
796.3879, 34.43694
796.8700, 34.28017
797.3521, 34.20017
797.8342, 34.37886
798.3163, 34.73183
798.7985, 34.78717
799.2806, 34.48679
799.7627, 34.21752
800.2448, 34.03354
800.7269, 33.95824
801.2090, 34.06429
801.6912, 34.30906
802.1733, 34.45831
802.6554, 34.54383
803.1375, 34.48161
803.6196, 33.98075
804.1017, 33.57476
804.5839, 33.71373
805.0660, 34.24284
805.5481, 34.86321
806.0302, 35.46896
806.5123, 35.83074
806.9944, 35.53627
807.4766, 34.87901
807.9587, 34.59932
808.4408, 34.68855
808.9229, 34.73138
809.4050, 34.56631
809.8871, 34.37684
810.3693, 34.40242
810.8514, 34.63958
811.3335, 34.70678
811.8156, 34.38448
812.2977, 34.26129
812.7798, 34.67717
813.2620, 35.08280
813.7441, 35.09648
814.2262, 34.80241
814.7083, 34.47048
815.1904, 34.12742
815.6725, 33.86769
816.1547, 33.78846
816.6368, 33.78802
817.1189, 33.69781
817.6010, 33.57613
818.0831, 33.67055
818.5652, 34.08110
819.0474, 34.56356
819.5295, 34.83909
820.0116, 34.90521
820.4937, 34.64355
820.9758, 33.95216
821.4579, 33.57790
821.9401, 33.88753
822.4222, 34.37278
822.9043, 34.49681
823.3864, 34.27209
823.8685, 34.10199
824.3506, 33.95990
824.8328, 33.90764
825.3149, 34.09221
825.7970, 34.24792
826.2791, 34.09203
826.7612, 33.76493
827.2433, 33.62730
827.7255, 33.82347
828.2076, 34.11128
828.6897, 34.33539
829.1718, 34.49269
829.6539, 34.55135
830.1360, 34.53192
830.6182, 34.54093
831.1003, 34.61919
831.5824, 34.66355
832.0645, 34.52622
832.5466, 34.23265
833.0287, 34.12601
833.5109, 34.27694
833.9930, 34.39863
834.4751, 34.37805
834.9572, 34.37625
835.4393, 34.60543
835.9214, 34.95792
836.4036, 35.11338
836.8857, 35.00679
837.3678, 34.78494
837.8499, 34.24848
838.3320, 33.82800
838.8141, 34.09396
839.2963, 34.63170
839.7784, 34.53496
840.2605, 33.56678
840.7426, 32.64157
841.2247, 32.66057
841.7068, 33.24028
842.1890, 33.78329
842.6711, 34.23775
843.1532, 34.16672
843.6353, 33.43613
844.1174, 32.84228
844.5995, 33.15985
845.0817, 34.12193
845.5638, 34.47706
846.0459, 33.93467
846.5280, 33.60427
847.0101, 33.76678
847.4922, 33.88840
847.9744, 33.66188
848.4565, 33.23883
848.9386, 32.74874
849.4207, 32.13044
849.9028, 31.97576
850.3849, 32.96978
850.8671, 33.90879
851.3492, 33.95180
851.8313, 33.57058
852.3134, 33.43761
852.7955, 33.63980
853.2776, 33.83604
853.7598, 33.80216
854.2419, 33.63278
854.7240, 33.40755
855.2061, 33.16566
855.6882, 33.12872
856.1703, 33.31675
856.6525, 33.36974
857.1346, 33.04988
857.6167, 32.61482
858.0988, 32.57609
858.5809, 33.00706
859.0630, 33.37016
859.5452, 33.82476
860.0273, 33.92185
860.5094, 33.04037
860.9915, 32.12933
861.4736, 32.20146
861.9557, 33.07671
862.4379, 33.59159
862.9200, 33.33781
863.4021, 32.98310
863.8842, 32.59791
864.3663, 32.34146
864.8484, 32.45277
865.3306, 32.79607
865.8127, 33.05701
866.2948, 33.11453
866.7769, 33.03533
867.2590, 32.78745
867.7411, 32.48765
868.2233, 32.38095
868.7054, 32.45546
869.1875, 32.67656
869.6696, 33.03793
870.1517, 33.28820
870.6339, 33.17583
871.1160, 32.77149
871.5981, 32.36785
872.0802, 31.91717
872.5623, 31.63519
873.0444, 31.55549
873.5266, 31.63139
874.0087, 31.96671
874.4908, 32.38620
874.9729, 32.53884
875.4550, 32.36398
875.9371, 32.27351
876.4193, 32.46894
876.9014, 32.58347
877.3835, 32.40200
877.8656, 32.10316
878.3477, 31.79197
878.8298, 31.54629
879.3120, 31.57813
879.7941, 32.13798
880.2762, 32.62432
880.7583, 32.28590
881.2404, 31.54943
881.7225, 31.16469
882.2047, 31.13854
882.6868, 31.15352
883.1689, 31.07181
883.6510, 30.98096
884.1331, 31.03037
884.6152, 31.17407
885.0974, 30.99136
885.5795, 30.40943
886.0616, 30.05793
886.5437, 30.15090
887.0258, 30.33392
887.5079, 30.28201
887.9901, 30.09674
888.4722, 30.20098
888.9543, 30.96748
889.4364, 31.30939
889.9185, 30.98539
890.4006, 30.52722
890.8828, 29.97238
891.3649, 29.49778
891.8470, 29.33750
892.3291, 29.49966
892.8112, 29.70597
893.2933, 29.90832
893.7755, 30.05001
894.2576, 30.11946
894.7397, 30.09310
895.2218, 29.86148
895.7039, 29.49941
896.1860, 29.26778
896.6682, 29.29345
897.1503, 29.41147
897.6324, 29.44026
898.1145, 29.39647
898.5966, 29.31096
899.0787, 29.19188
899.5609, 29.08359
900.0430, 28.99420
900.5251, 29.01014
901.0072, 29.23538
901.4893, 29.61594
901.9714, 29.90229
902.4536, 30.11415
902.9357, 30.14115
903.4178, 29.86144
903.8999, 29.59910
904.3820, 29.57459
904.8641, 29.64462
905.3463, 29.53797
905.8284, 29.22317
906.3105, 29.00811
906.7926, 28.89201
907.2747, 28.90836
907.7568, 29.32767
908.2390, 29.67380
908.7211, 29.35430
909.2032, 28.59680
909.6853, 28.20083
910.1674, 28.53669
910.6495, 28.91248
911.1317, 28.73833
911.6138, 28.46496
912.0959, 28.82417
912.5780, 29.46675
913.0601, 29.35515
913.5422, 28.31349
914.0244, 27.39589
914.5065, 27.57533
914.9886, 28.35740
915.4707, 28.73293
915.9528, 28.75278
916.4349, 28.71479
916.9171, 28.65695
917.3992, 28.65688
917.8813, 28.78253
918.3634, 28.88103
918.8455, 28.64756
919.3276, 28.04450
919.8098, 27.81433
920.2919, 28.16453
920.7740, 28.34819
921.2561, 28.08794
921.7382, 27.74026
922.2203, 27.59748
922.7025, 27.60846
923.1846, 27.56960
923.6667, 27.48960
924.1488, 27.34158
924.6309, 26.85109
925.1130, 26.60178
925.5952, 27.21086
926.0773, 27.99636
926.5594, 27.95245
927.0415, 27.11438
927.5236, 26.66674
928.0057, 27.45962
928.4879, 28.25818
928.9700, 28.14159
929.4521, 27.67062
929.9342, 27.46130
930.4163, 27.50486
930.8984, 27.58908
931.3806, 27.62791
931.8627, 27.59949
932.3448, 27.44888
932.8269, 27.23491
933.3090, 26.97379
933.7911, 26.74390
934.2733, 27.04678
934.7554, 27.93388
935.2375, 28.54710
935.7196, 28.28489
936.2017, 27.51047
936.6838, 26.90860
937.1660, 26.46837
937.6481, 26.46816
938.1302, 27.04136
938.6123, 27.45321
939.0944, 27.42973
939.5765, 27.22060
940.0587, 27.04934
940.5408, 26.91584
941.0229, 26.82381
941.5050, 26.70624
941.9871, 26.75316
942.4692, 27.27735
942.9514, 27.61502
943.4335, 27.27440
943.9156, 26.72817
944.3977, 26.63468
944.8798, 27.02183
945.3619, 27.25024
945.8441, 27.08429
946.3262, 26.87134
946.8083, 26.63077
947.2904, 26.48293
947.7725, 26.63446
948.2546, 26.93421
948.7368, 27.01859
949.2189, 26.77365
949.7010, 26.52681
950.1831, 26.46905
950.6652, 26.53243
951.1473, 26.73383
951.6295, 26.97006
952.1116, 27.02887
952.5937, 26.91721
953.0758, 26.84905
953.5579, 26.95730
954.0400, 27.06651
954.5222, 26.80239
955.0043, 26.37406
955.4864, 26.49578
955.9685, 27.10647
956.4506, 27.61803
956.9327, 27.85382
957.4149, 27.86111
957.8970, 27.64670
958.3791, 27.31131
958.8612, 27.22072
959.3433, 27.41239
959.8254, 27.22831
960.3076, 26.48464
960.7897, 26.01671
961.2718, 26.25374
961.7539, 26.78536
962.2360, 27.12802
962.7181, 27.28461
963.2003, 27.28519
963.6824, 26.99865
964.1645, 26.83119
964.6466, 26.95692
965.1287, 27.03938
965.6108, 26.88827
966.0930, 26.58876
966.5751, 26.18085
967.0572, 25.62485
967.5393, 25.43029
968.0214, 26.04777
968.5035, 26.50174
968.9857, 26.46684
969.4678, 26.22834
969.9499, 25.87041
970.4320, 25.51975
970.9141, 25.40992
971.3962, 25.61492
971.8784, 25.88466
972.3605, 26.34995
972.8426, 26.57621
973.3247, 25.94686
973.8068, 25.09967
974.2889, 24.91385
974.7711, 25.33764
975.2532, 25.72699
975.7353, 25.79718
976.2174, 25.68262
976.6995, 25.38529
977.1816, 25.05983
977.6638, 24.91581
978.1459, 24.92877
978.6280, 25.08985
979.1101, 25.34649
979.5922, 25.40590
980.0743, 25.01371
980.5565, 24.54213
981.0386, 24.66206
981.5207, 25.21081
982.0028, 25.65736
982.4849, 25.96226
982.9670, 26.10107
983.4492, 26.06431
983.9313, 25.87641
984.4134, 25.52616
984.8955, 25.10701
985.3776, 24.90361
985.8597, 24.91716
986.3419, 25.20006
986.8240, 25.84576
987.3061, 26.13468
987.7882, 25.64710
988.2703, 25.00335
988.7524, 24.97894
989.2346, 25.50469
989.7167, 25.85664
990.1988, 26.02906
990.6809, 26.03847
991.1630, 25.82920
991.6451, 25.55717
992.1273, 25.21293
992.6094, 24.92805
993.0915, 24.94184
993.5736, 25.27734
994.0557, 25.47469
994.5378, 25.43420
995.0200, 25.39920
995.5021, 25.43972
995.9842, 25.44128
996.4663, 25.20559
996.9484, 24.94840
997.4305, 25.11636
997.9127, 25.79404
998.3948, 26.16392
998.8769, 25.79510
999.3590, 25.50054
999.8411, 25.71029
1000.323, 25.92103
1000.805, 25.62124
1001.287, 25.05230
1001.770, 24.75453
1002.252, 24.85139
1002.734, 25.05984
1003.216, 25.42045
1003.698, 25.67427
1004.180, 25.53990
1004.662, 25.31443
1005.144, 25.37191
1005.627, 25.62742
1006.109, 25.76031
1006.591, 25.65825
1007.073, 25.45093
1007.555, 24.92996
1008.037, 24.63160
1008.519, 25.59180
1009.001, 26.86560
1009.483, 26.58268
1009.966, 25.03477
1010.448, 24.23009
1010.930, 25.14651
1011.412, 26.35528
1011.894, 26.34615
1012.376, 25.77209
1012.858, 25.61377
1013.340, 25.74189
1013.823, 25.76794
1014.305, 25.64094
1014.787, 25.55784
1015.269, 25.63862
1015.751, 25.70580
1016.233, 25.41134
1016.715, 24.94344
1017.197, 24.89750
1017.679, 25.18869
1018.162, 25.36068
1018.644, 25.32102
1019.126, 25.25097
1019.608, 25.26305
1020.090, 25.36950
1020.572, 25.68897
1021.054, 26.15075
1021.536, 26.19119
1022.018, 25.82360
1022.501, 25.54313
1022.983, 25.46813
1023.465, 25.50729
1023.947, 25.59247
1024.429, 25.75155
1024.911, 26.12338
1025.393, 26.72056
1025.875, 26.87652
1026.358, 26.54002
1026.840, 26.13966
1027.322, 25.73017
1027.804, 25.55460
1028.286, 25.85008
1028.768, 26.42676
1029.250, 26.82148
1029.732, 27.02488
1030.214, 27.11185
1030.697, 27.09389
1031.179, 26.88553
1031.661, 26.35681
1032.143, 25.87557
1032.625, 25.72168
1033.107, 25.83816
1033.589, 26.08177
1034.071, 26.49623
1034.553, 26.83379
1035.036, 27.04351
1035.518, 27.28807
1036.000, 27.57570
1036.482, 27.97415
1036.964, 28.70164
1037.446, 29.51779
1037.928, 29.64577
1038.410, 28.76711
1038.893, 28.31965
1039.375, 28.39780
1039.857, 28.76402
1040.339, 29.59785
1040.821, 30.45992
1041.303, 30.99105
1041.785, 31.29740
1042.267, 31.65751
1042.750, 32.06368
1043.232, 32.54572
1043.714, 33.19336
1044.196, 33.79337
1044.678, 34.29923
1045.160, 34.73696
1045.642, 35.04560
1046.124, 35.31319
1046.606, 35.78807
1047.089, 36.57598
1047.571, 37.17075
1048.053, 37.30449
1048.535, 37.52526
1049.017, 38.02042
1049.499, 38.62215
1049.981, 39.30983
1050.463, 39.97506
1050.945, 40.28801
1051.428, 40.07864
1051.910, 40.40543
1052.392, 42.27645
1052.874, 43.62581
1053.356, 43.30798
1053.838, 42.68656
1054.320, 42.89177
1054.802, 43.56911
1055.285, 43.93361
1055.767, 43.87144
1056.249, 43.43432
1056.731, 42.21501
1057.213, 41.18003
1057.695, 40.96943
1058.177, 40.80860
1058.659, 40.12606
1059.141, 39.03480
1059.624, 37.73407
1060.106, 36.26316
1060.588, 34.99991
1061.070, 34.14325
1061.552, 33.41025
1062.034, 32.87313
1062.516, 32.24546
1062.998, 31.13331
1063.480, 29.85203
1063.963, 28.92681
1064.445, 28.44661
1064.927, 28.20695
1065.409, 28.42332
1065.891, 28.47306
1066.373, 28.00813
1066.855, 27.37317
1067.337, 26.66541
1067.820, 26.05467
1068.302, 25.87383
1068.784, 26.09559
1069.266, 26.07722
1069.748, 25.30165
1070.230, 24.72693
1070.712, 25.12381
1071.194, 25.52456
1071.677, 24.99149
1072.159, 24.10876
1072.641, 23.77320
1073.123, 24.03617
1073.605, 24.40710
1074.087, 24.90199
1074.569, 25.01211
1075.051, 24.03835
1075.533, 23.08228
1076.016, 23.08382
1076.498, 23.48446
1076.980, 23.57311
1077.462, 23.28957
1077.944, 22.81974
1078.426, 22.09589
1078.908, 21.66136
1079.390, 22.09930
1079.873, 22.53733
1080.355, 22.26938
1080.837, 21.77512
1081.319, 21.66204
1081.801, 21.86295
1082.283, 21.92085
1082.765, 21.65672
1083.247, 21.54980
1083.729, 22.11692
1084.212, 22.54551
1084.694, 22.14985
1085.176, 21.55085
1085.658, 21.54683
1086.140, 21.85230
1086.622, 21.53572
1087.104, 20.33854
1087.586, 19.46110
1088.068, 19.64093
1088.551, 19.96412
1089.033, 20.03699
1089.515, 20.00281
1089.997, 19.91780
1090.479, 19.85660
1090.961, 19.98424
1091.443, 20.31140
1091.925, 20.48946
1092.408, 20.17525
1092.890, 19.97872
1093.372, 20.43279
1093.854, 20.79647
1094.336, 20.23797
1094.818, 19.39857
1095.300, 19.41019
1095.782, 20.25495
1096.265, 20.68589
1096.747, 20.05372
1097.229, 19.53040
1097.711, 19.60127
1098.193, 19.78432
1098.675, 19.76609
1099.157, 19.96908
1099.639, 19.94020
1100.121, 20.35241
1100.604, 20.68342
1101.086, 20.98829
1101.568, 20.85550
1102.050, 19.73103
1102.532, 18.70477
1103.014, 18.04529
1103.496, 17.86676
1103.978, 18.61925
1104.460, 19.85047
1104.943, 20.36550
1105.425, 19.84474
1105.907, 19.53125
1106.389, 19.81647
1106.871, 20.10572
1107.353, 20.41741
1107.835, 20.48563
1108.317, 19.77947
1108.800, 18.86161
1109.282, 18.85530
1109.764, 19.88355
1110.246, 20.39302
1110.728, 19.68077
1111.210, 19.28568
1111.692, 19.85070
1112.174, 20.27074
1112.656, 19.78648
1113.139, 19.01920
1113.621, 18.74734
1114.103, 18.93505
1114.585, 19.07328
1115.067, 19.03597
1115.549, 19.17353
1116.031, 19.78301
1116.513, 20.13619
1116.995, 19.77022
1117.478, 19.31623
1117.960, 19.43997
1118.442, 19.88340
1118.924, 19.74155
1119.406, 19.86846
1119.888, 20.18495
1120.370, 19.69471
1120.852, 20.49105
1121.335, 20.20046
1121.817, 19.76660
1122.299, 19.82944
1122.781, 20.09944
1123.263, 20.03731
1123.745, 19.63472
1124.227, 19.30755
1124.709, 19.02643
1125.192, 18.96489
1125.674, 19.26284
1126.156, 19.39278
1126.638, 19.03406
1127.120, 18.59760
1127.602, 18.59449
1128.084, 18.91819
1128.566, 19.01502
1129.048, 18.83961
1129.531, 18.88412
1130.013, 19.21290
1130.495, 19.45852
1130.977, 19.51124
1131.459, 19.38541
1131.941, 19.04624
1132.423, 18.68612
1132.905, 18.82880
1133.387, 19.41841
1133.870, 19.48673
1134.352, 19.05884
1134.834, 18.85481
1135.316, 19.01110
1135.798, 19.23434
1136.280, 19.37600
1136.762, 19.32077
1137.244, 18.78238
1137.727, 19.06284
1138.209, 18.24097
1138.691, 19.05679
1139.173, 19.30445
1139.655, 18.96634
1140.137, 18.73287
1140.619, 18.84604
1141.101, 19.14242
1141.583, 19.54174
1142.066, 19.87234
1142.548, 19.83109
1143.030, 19.54848
1143.512, 19.27413
1143.994, 18.99405
1144.476, 18.51663
1144.958, 17.91097
1145.440, 17.65413
1145.922, 17.99851
1146.405, 18.55470
1146.887, 19.12731
1147.369, 19.55781
1147.851, 19.60521
1148.333, 19.43069
1148.815, 19.21268
1149.297, 19.00524
1149.779, 18.83140
1150.262, 18.70805
1150.744, 18.72622
1151.226, 19.07339
1151.708, 19.35204
1152.190, 19.26870
1152.672, 19.04594
1153.154, 18.79852
1153.636, 18.57975
1154.119, 18.38746
1154.601, 18.26779
1155.083, 18.43636
1155.565, 19.11387
1156.047, 19.50264
1156.529, 19.12722
1157.011, 18.68452
1157.493, 18.28879
1157.975, 18.12831
1158.458, 18.55383
1158.940, 19.25696
1159.422, 19.58163
1159.904, 19.44393
1160.386, 19.35844
1160.868, 19.41058
1161.350, 19.45111
1161.832, 19.52893
1162.314, 19.50631
1162.797, 19.23771
1163.279, 18.92653
1163.761, 18.77623
1164.243, 18.77092
1164.725, 18.84854
1165.207, 19.05445
1165.689, 19.17621
1166.171, 19.16690
1166.654, 19.22877
1167.136, 19.45238
1167.618, 19.62713
1168.100, 19.61098
1168.582, 19.46643
1169.064, 19.27926
1169.546, 19.06378
1170.028, 18.98625
1170.510, 19.05224
1170.993, 18.94236
1171.475, 18.61673
1171.957, 18.57973
1172.439, 19.03334
1172.921, 19.42520
1173.403, 19.21621
1173.885, 19.49525
1174.367, 19.49785
1174.849, 19.41402
1175.332, 19.46283
1175.814, 19.15696
1176.296, 18.99625
1176.778, 19.02951
1177.260, 18.87671
1177.742, 18.35855
1178.224, 18.01233
1178.706, 18.57573
1179.189, 19.34130
1179.671, 19.30135
1180.153, 18.93358
1180.635, 18.97028
1181.117, 19.26994
1181.599, 19.39086
1182.081, 19.24851
1182.563, 18.98170
1183.046, 18.55552
1183.528, 18.35551
1184.010, 18.87335
1184.492, 19.39127
1184.974, 19.36768
1185.456, 19.13735
1185.938, 19.05332
1186.420, 19.07511
1186.902, 18.97433
1187.385, 18.69904
1187.867, 18.66294
1188.349, 19.27860
1188.831, 19.63824
1189.313, 19.33287
1189.795, 19.02574
1190.277, 18.97200
1190.759, 19.12843
1191.241, 19.64784
1191.724, 20.31903
1192.206, 20.23549
1192.688, 20.25097
1193.170, 20.26082
1193.652, 19.44818
1194.134, 19.71320
1194.616, 18.90863
1195.098, 18.23826
1195.581, 18.41619
1196.063, 18.97048
1196.545, 19.30014
1197.027, 19.40286
1197.509, 19.19718
1197.991, 18.71072
1198.473, 18.40076
1198.955, 18.28905
1199.438, 18.26026
1199.920, 18.28108
1200.402, 18.36045
1200.884, 18.50320
1201.366, 18.71730
1201.848, 19.12744
1202.330, 19.54117
1202.812, 19.54860
1203.294, 19.29645
1203.776, 19.03208
1204.259, 18.80527
1204.741, 18.59781
1205.223, 18.42789
1205.705, 18.45116
1206.187, 18.80438
1206.669, 19.24675
1207.151, 19.83558
1207.633, 20.20371
1208.116, 19.88774
1208.598, 19.32261
1209.080, 19.00730
1209.562, 18.89180
1210.044, 18.62828
1210.526, 18.11601
1211.008, 18.04142
1211.490, 18.90928
1211.973, 19.65867
1212.455, 20.27340
1212.937, 20.49710
1213.419, 19.94527
1213.901, 19.25031
1214.383, 19.06036
1214.865, 19.23040
1215.347, 19.27659
1215.829, 19.19188
1216.312, 18.96869
1216.794, 18.49176
1217.276, 18.59474
1217.758, 19.57089
1218.240, 20.08893
1218.722, 19.43456
1219.204, 18.52827
1219.686, 18.41810
1220.168, 18.77593
1220.651, 18.77100
1221.133, 18.49491
1221.615, 18.22119
1222.097, 18.02848
1222.579, 18.32047
1223.061, 19.02035
1223.543, 19.25661
1224.025, 18.62002
1224.508, 17.96347
1224.990, 18.04617
1225.472, 18.45232
1225.954, 19.01112
1226.436, 19.45259
1226.918, 19.32203
1227.400, 18.92443
1227.882, 18.81428
1228.365, 18.99377
1228.847, 19.01810
1229.329, 18.66168
1229.811, 18.58570
1230.293, 19.40168
1230.775, 19.92926
1231.257, 19.56954
1231.739, 19.03526
1232.221, 18.60908
1232.703, 18.40139
1233.186, 18.67014
1233.668, 19.30298
1234.150, 19.51599
1234.632, 19.14139
1235.114, 19.01692
1235.596, 19.19475
1236.078, 19.40780
1236.560, 19.59829
1237.043, 19.79993
1237.525, 20.04005
1238.007, 20.26144
1238.489, 20.42022
1238.971, 20.46035
1239.453, 20.10131
1239.935, 19.51882
1240.417, 19.35522
1240.900, 19.53327
1241.382, 19.69419
1241.864, 19.72660
1242.346, 19.49135
1242.828, 18.90119
1243.310, 18.53325
1243.792, 19.21835
1244.274, 19.86849
1244.756, 19.38433
1245.239, 18.66577
1245.721, 18.55245
1246.203, 18.82554
1246.685, 19.14713
1247.167, 19.43094
1247.649, 19.54199
1248.131, 19.42757
1248.613, 19.24211
1249.095, 18.85679
1249.578, 18.62904
1250.060, 18.66607
1250.542, 18.79570
1251.024, 18.92089
1251.506, 19.13300
1251.988, 19.61933
1252.470, 19.54393
1252.952, 20.18972
1253.435, 19.52734
1253.917, 19.11272
1254.399, 18.95242
1254.881, 18.88370
1255.363, 18.87656
1255.845, 18.98971
1256.327, 19.24716
1256.809, 19.52314
1257.292, 19.70862
1257.774, 19.82212
1258.256, 19.85097
1258.738, 19.85325
1259.220, 19.92834
1259.702, 20.02917
1260.184, 20.10668
1260.666, 20.12133
1261.148, 19.95698
1261.630, 19.57998
1262.113, 19.32497
1262.595, 19.38233
1263.077, 19.47557
1263.559, 19.55381
1264.041, 19.61667
1264.523, 19.63504
1265.005, 19.67012
1265.487, 19.85031
1265.970, 20.03539
1266.452, 19.84981
1266.934, 19.28232
1267.416, 19.10690
1267.898, 19.37766
1268.380, 19.64474
1268.862, 19.86796
1269.344, 20.04981
1269.827, 20.19282
1270.309, 20.22927
1270.791, 20.10318
1271.273, 19.91101
1271.755, 19.75356
1272.237, 19.64959
1272.719, 19.68893
1273.201, 19.77567
1273.683, 19.71280
1274.166, 19.55725
1274.648, 19.45000
1275.130, 19.43303
1275.612, 19.54057
1276.094, 19.82937
1276.576, 20.04833
1277.058, 20.00772
1277.540, 20.00260
1278.022, 20.35331
1278.505, 20.54810
1278.987, 19.94908
1279.469, 19.25290
1279.951, 19.34393
1280.433, 20.00333
1280.915, 20.32405
1281.397, 20.26445
1281.879, 20.17889
1282.362, 20.05509
1282.844, 20.09799
1283.326, 20.34509
1283.808, 20.33927
1284.290, 19.89161
1284.772, 19.49681
1285.254, 19.53934
1285.736, 20.01706
##END=



