##NAMES=Wesselsite
##RRUFFID=R120019
##IDEAL CHEMISTRY=SrCu^2+^Si_4_O_10_
##LOCALITY=Wessels mine, Kalahari manganese field, Northern Cape Province, South Africa
##OWNER=RRUFF
##SOURCE=William W. Pinch
##DESCRIPTION=Dark blue massive, associated with R120057 lavinskyite and R120077 scottyite
##STATUS=The identification of this mineral is confirmed by single-crystal X-ray diffraction and chemical analysis.
##URL=rruff.info/R120019
##MEASURED CHEMISTRY=(Sr_0.98_Ba_0.04_)_Î£=1.02_Cu_1.05_Si_3.97_O_10_ ; (wesselsite is medium gray material in image, associated with samples R120057 new plancheite-like mineral, dark grey; and R120077 new mineral, light grey)
177.2732, 11772.90
177.7553, 11751.37
178.2374, 11670.07
178.7195, 11577.65
179.2017, 11489.45
179.6838, 11405.92
180.1659, 11331.27
180.6480, 11265.41
181.1301, 11202.66
181.6122, 11135.61
182.0944, 11065.94
182.5765, 11000.25
183.0586, 10941.28
183.5407, 10888.14
184.0228, 10835.92
184.5049, 10784.69
184.9871, 10735.18
185.4692, 10689.80
185.9513, 10647.47
186.4334, 10605.75
186.9155, 10561.35
187.3976, 10515.82
187.8798, 10474.73
188.3619, 10438.76
188.8440, 10404.69
189.3261, 10369.05
189.8082, 10331.57
190.2903, 10293.83
190.7725, 10255.66
191.2546, 10217.08
191.7367, 10182.33
192.2188, 10152.31
192.7009, 10123.85
193.1830, 10091.15
193.6652, 10054.29
194.1473, 10019.51
194.6294, 9992.707
195.1115, 9972.908
195.5936, 9946.687
196.0757, 9910.616
196.5579, 9872.310
197.0400, 9849.060
197.5221, 9842.363
198.0042, 9834.452
198.4863, 9813.169
198.9684, 9778.435
199.4506, 9748.984
199.9327, 9727.799
200.4148, 9710.843
200.8969, 9689.075
201.3790, 9661.395
201.8611, 9634.098
202.3433, 9610.132
202.8254, 9589.437
203.3075, 9572.847
203.7896, 9560.802
204.2717, 9552.614
204.7538, 9548.604
205.2360, 9550.682
205.7181, 9549.293
206.2002, 9536.907
206.6823, 9511.240
207.1644, 9488.712
207.6465, 9471.435
208.1287, 9457.450
208.6108, 9440.157
209.0929, 9418.308
209.5750, 9396.252
210.0571, 9376.647
210.5392, 9359.466
211.0214, 9344.513
211.5035, 9332.355
211.9856, 9322.438
212.4677, 9312.641
212.9498, 9303.793
213.4319, 9293.756
213.9140, 9280.790
214.3962, 9264.002
214.8783, 9247.812
215.3604, 9231.619
215.8425, 9216.534
216.3246, 9208.510
216.8067, 9210.505
217.2889, 9213.526
217.7710, 9211.516
218.2531, 9201.955
218.7352, 9194.440
219.2173, 9190.311
219.6994, 9188.520
220.1816, 9184.823
220.6637, 9178.412
221.1458, 9170.908
221.6279, 9163.385
222.1100, 9155.962
222.5921, 9147.949
223.0743, 9139.955
223.5564, 9131.451
224.0385, 9119.380
224.5206, 9104.297
225.0027, 9085.708
225.4848, 9061.831
225.9670, 9027.396
226.4491, 9001.948
226.9312, 8990.538
227.4133, 8989.723
227.8954, 8981.285
228.3775, 8960.868
228.8597, 8939.589
229.3418, 8924.421
229.8239, 8917.424
230.3060, 8911.628
230.7881, 8906.794
231.2702, 8902.601
231.7524, 8898.210
232.2345, 8893.706
232.7166, 8888.493
233.1987, 8881.901
233.6808, 8872.304
234.1629, 8864.531
234.6451, 8859.490
235.1272, 8856.359
235.6093, 8851.918
236.0914, 8846.827
236.5735, 8839.563
237.0556, 8829.307
237.5378, 8815.817
238.0199, 8800.084
238.5020, 8781.313
238.9841, 8760.494
239.4662, 8741.931
239.9483, 8726.265
240.4305, 8712.484
240.9126, 8700.152
241.3947, 8690.068
241.8768, 8680.165
242.3589, 8670.480
242.8410, 8661.052
243.3232, 8651.432
243.8053, 8640.485
244.2874, 8630.860
244.7695, 8624.140
245.2516, 8621.634
245.7337, 8618.265
246.2159, 8612.374
246.6980, 8605.403
247.1801, 8602.787
247.6622, 8607.198
248.1443, 8611.544
248.6264, 8612.415
249.1086, 8608.739
249.5907, 8604.243
250.0728, 8599.947
250.5549, 8594.698
251.0370, 8585.047
251.5191, 8569.186
252.0013, 8552.095
252.4834, 8535.225
252.9655, 8517.235
253.4476, 8503.995
253.9297, 8496.795
254.4118, 8493.930
254.8940, 8491.632
255.3761, 8490.431
255.8582, 8488.786
256.3403, 8485.818
256.8224, 8480.803
257.3046, 8476.468
257.7867, 8473.088
258.2688, 8469.972
258.7509, 8465.908
259.2330, 8460.722
259.7151, 8454.703
260.1973, 8447.710
260.6794, 8439.589
261.1615, 8431.785
261.6436, 8425.043
262.1257, 8418.178
262.6078, 8408.787
263.0900, 8395.738
263.5721, 8383.571
264.0542, 8374.101
264.5363, 8367.613
265.0184, 8362.850
265.5005, 8361.140
265.9827, 8359.877
266.4648, 8354.438
266.9469, 8342.871
267.4290, 8333.126
267.9111, 8328.327
268.3932, 8328.893
268.8754, 8326.326
269.3575, 8319.184
269.8396, 8310.785
270.3217, 8304.750
270.8038, 8300.457
271.2859, 8300.394
271.7681, 8306.800
272.2502, 8319.203
272.7323, 8327.113
273.2144, 8330.014
273.6965, 8329.039
274.1786, 8324.331
274.6608, 8314.923
275.1429, 8307.046
275.6250, 8303.015
276.1071, 8302.103
276.5892, 8298.160
277.0714, 8290.662
277.5535, 8281.874
278.0356, 8273.807
278.5177, 8266.495
278.9998, 8258.973
279.4819, 8250.655
279.9641, 8241.955
280.4462, 8235.912
280.9283, 8233.298
281.4104, 8229.814
281.8925, 8221.365
282.3746, 8207.926
282.8568, 8194.633
283.3389, 8182.460
283.8210, 8171.185
284.3031, 8160.036
284.7852, 8149.146
285.2673, 8138.776
285.7495, 8128.575
286.2316, 8118.806
286.7137, 8111.813
287.1958, 8108.742
287.6779, 8107.536
288.1600, 8102.844
288.6422, 8094.547
289.1243, 8088.239
289.6064, 8089.299
290.0885, 8095.947
290.5706, 8099.056
291.0527, 8097.063
291.5349, 8092.517
292.0170, 8089.564
292.4991, 8087.911
292.9812, 8085.313
293.4633, 8079.596
293.9454, 8071.843
294.4276, 8065.856
294.9097, 8062.128
295.3918, 8059.225
295.8739, 8054.769
296.3560, 8049.378
296.8381, 8045.647
297.3203, 8045.171
297.8024, 8047.224
298.2845, 8051.673
298.7666, 8058.986
299.2487, 8064.341
299.7308, 8061.013
300.2130, 8051.539
300.6951, 8043.292
301.1772, 8041.312
301.6593, 8041.202
302.1414, 8035.942
302.6235, 8025.647
303.1057, 8014.625
303.5878, 8005.326
304.0699, 7997.979
304.5520, 7993.385
305.0341, 7993.571
305.5162, 7995.024
305.9984, 7994.192
306.4805, 7991.291
306.9626, 7987.641
307.4447, 7983.411
307.9268, 7979.216
308.4089, 7976.150
308.8911, 7975.572
309.3732, 7974.548
309.8553, 7969.844
310.3374, 7962.513
310.8195, 7955.980
311.3016, 7952.021
311.7838, 7949.866
312.2659, 7949.158
312.7480, 7950.639
313.2301, 7951.490
313.7122, 7948.718
314.1943, 7944.045
314.6765, 7941.183
315.1586, 7947.346
315.6407, 7952.003
316.1228, 7946.906
316.6049, 7928.483
317.0870, 7911.442
317.5692, 7902.792
318.0513, 7899.486
318.5334, 7897.336
319.0155, 7895.721
319.4976, 7894.378
319.9797, 7894.382
320.4619, 7896.187
320.9440, 7894.085
321.4261, 7882.555
321.9082, 7867.901
322.3903, 7856.128
322.8724, 7848.872
323.3546, 7844.070
323.8367, 7841.767
324.3188, 7841.841
324.8009, 7842.352
325.2830, 7845.156
325.7651, 7847.085
326.2473, 7846.123
326.7294, 7840.875
327.2115, 7834.482
327.6936, 7826.757
328.1757, 7818.204
328.6578, 7810.406
329.1400, 7802.270
329.6221, 7796.116
330.1042, 7793.086
330.5863, 7796.008
331.0684, 7797.469
331.5505, 7796.560
332.0327, 7794.211
332.5148, 7792.594
332.9969, 7792.361
333.4790, 7791.333
333.9611, 7787.356
334.4432, 7777.542
334.9254, 7775.854
335.4075, 7785.987
335.8896, 7800.710
336.3717, 7810.646
336.8538, 7815.658
337.3359, 7815.485
337.8180, 7808.517
338.3001, 7794.978
338.7823, 7784.937
339.2644, 7780.000
339.7465, 7775.984
340.2286, 7768.424
340.7107, 7756.760
341.1928, 7746.413
341.6750, 7739.300
342.1571, 7734.335
342.6392, 7727.184
343.1213, 7717.491
343.6034, 7707.625
344.0855, 7698.398
344.5677, 7689.993
345.0498, 7684.994
345.5319, 7684.514
346.0140, 7686.361
346.4961, 7686.135
346.9782, 7683.934
347.4604, 7682.278
347.9425, 7682.920
348.4246, 7685.322
348.9067, 7688.019
349.3888, 7691.242
349.8709, 7693.254
350.3531, 7691.179
350.8352, 7685.852
351.3173, 7680.438
351.7994, 7675.913
352.2815, 7672.142
352.7636, 7668.044
353.2458, 7663.548
353.7279, 7661.489
354.2100, 7665.628
354.6921, 7673.533
355.1742, 7681.150
355.6563, 7688.037
356.1385, 7693.229
356.6206, 7694.993
357.1027, 7693.874
357.5848, 7692.687
358.0669, 7693.640
358.5490, 7695.088
359.0312, 7695.789
359.5133, 7696.221
359.9954, 7694.442
360.4775, 7687.662
360.9596, 7677.953
361.4417, 7669.744
361.9239, 7664.651
362.4060, 7661.743
362.8881, 7661.084
363.3702, 7663.194
363.8523, 7664.951
364.3344, 7664.358
364.8166, 7663.235
365.2987, 7663.667
365.7808, 7666.177
366.2629, 7670.271
366.7450, 7676.358
367.2271, 7684.393
367.7093, 7692.139
368.1914, 7699.928
368.6735, 7706.857
369.1556, 7712.337
369.6377, 7714.836
370.1198, 7717.397
370.6020, 7718.718
371.0841, 7719.864
371.5662, 7725.267
372.0483, 7739.269
372.5304, 7751.992
373.0125, 7758.719
373.4947, 7756.141
373.9768, 7756.891
374.4589, 7762.048
374.9410, 7769.667
375.4231, 7777.422
375.9052, 7787.024
376.3874, 7792.415
376.8695, 7790.780
377.3516, 7782.419
377.8337, 7776.255
378.3158, 7772.795
378.7979, 7770.415
379.2801, 7768.352
379.7622, 7766.791
380.2443, 7762.511
380.7264, 7754.074
381.2085, 7743.153
381.6906, 7734.896
382.1728, 7729.354
382.6549, 7721.968
383.1370, 7708.570
383.6191, 7690.327
384.1012, 7672.491
384.5833, 7655.128
385.0655, 7638.452
385.5476, 7623.210
386.0297, 7608.907
386.5118, 7594.825
386.9939, 7580.023
387.4760, 7565.343
387.9582, 7551.552
388.4403, 7538.607
388.9224, 7527.763
389.4045, 7521.638
389.8866, 7518.068
390.3687, 7513.853
390.8509, 7506.683
391.3330, 7500.231
391.8151, 7498.318
392.2972, 7499.813
392.7793, 7499.900
393.2614, 7493.542
393.7436, 7486.579
394.2257, 7483.084
394.7078, 7484.451
395.1899, 7487.580
395.6720, 7494.886
396.1541, 7502.542
396.6363, 7504.444
397.1184, 7491.477
397.6005, 7479.527
398.0826, 7474.894
398.5647, 7478.927
399.0468, 7481.130
399.5290, 7479.299
400.0111, 7475.917
400.4932, 7472.960
400.9753, 7470.143
401.4574, 7468.193
401.9395, 7467.094
402.4217, 7466.951
402.9038, 7468.151
403.3859, 7470.463
403.8680, 7474.531
404.3501, 7481.144
404.8322, 7491.360
405.3144, 7500.288
405.7965, 7507.784
406.2786, 7514.028
406.7607, 7518.952
407.2428, 7522.271
407.7249, 7525.552
408.2071, 7528.203
408.6892, 7530.966
409.1713, 7538.807
409.6534, 7551.968
410.1355, 7568.940
410.6176, 7589.923
411.0998, 7614.148
411.5819, 7636.190
412.0640, 7653.689
412.5461, 7670.739
413.0282, 7695.290
413.5103, 7726.275
413.9925, 7757.894
414.4746, 7787.046
414.9567, 7814.909
415.4388, 7842.224
415.9209, 7869.042
416.4030, 7897.609
416.8852, 7930.639
417.3673, 7966.913
417.8494, 8004.475
418.3315, 8040.494
418.8136, 8079.720
419.2957, 8125.606
419.7779, 8177.659
420.2600, 8234.986
420.7421, 8300.031
421.2242, 8368.478
421.7063, 8435.796
422.1884, 8502.929
422.6706, 8568.074
423.1527, 8630.794
423.6348, 8691.735
424.1169, 8752.315
424.5990, 8823.615
425.0811, 8884.866
425.5633, 8930.505
426.0454, 8960.453
426.5275, 8975.507
427.0096, 8976.749
427.4917, 8961.970
427.9738, 8929.016
428.4560, 8875.592
428.9381, 8807.978
429.4202, 8722.742
429.9023, 8625.495
430.3844, 8530.118
430.8665, 8437.104
431.3487, 8346.181
431.8308, 8255.734
432.3129, 8165.740
432.7950, 8084.392
433.2771, 8012.103
433.7592, 7948.752
434.2414, 7894.392
434.7235, 7848.718
435.2056, 7807.687
435.6877, 7771.202
436.1698, 7738.014
436.6519, 7703.458
437.1341, 7667.930
437.6162, 7637.310
438.0983, 7617.794
438.5804, 7605.360
439.0625, 7592.909
439.5446, 7578.838
440.0268, 7566.148
440.5089, 7558.937
440.9910, 7554.985
441.4731, 7549.883
441.9552, 7538.483
442.4373, 7527.618
442.9195, 7522.009
443.4016, 7521.634
443.8837, 7521.940
444.3658, 7520.544
444.8479, 7519.167
445.3300, 7519.198
445.8122, 7522.172
446.2943, 7524.703
446.7764, 7526.396
447.2585, 7527.192
447.7406, 7526.988
448.2227, 7525.894
448.7049, 7523.696
449.1870, 7520.399
449.6691, 7516.155
450.1512, 7510.468
450.6333, 7503.320
451.1154, 7495.043
451.5976, 7485.569
452.0797, 7474.287
452.5618, 7464.820
453.0439, 7458.481
453.5260, 7454.144
454.0081, 7447.375
454.4903, 7437.755
454.9724, 7428.557
455.4545, 7421.627
455.9366, 7416.733
456.4187, 7411.937
456.9008, 7407.164
457.3830, 7402.366
457.8651, 7397.851
458.3472, 7393.275
458.8293, 7387.884
459.3114, 7380.826
459.7935, 7373.153
460.2757, 7365.617
460.7578, 7358.320
461.2399, 7351.920
461.7220, 7347.519
462.2041, 7343.804
462.6862, 7340.226
463.1684, 7337.375
463.6505, 7332.008
464.1326, 7320.751
464.6147, 7306.743
465.0968, 7293.806
465.5789, 7283.493
466.0611, 7274.593
466.5432, 7267.210
467.0253, 7261.315
467.5074, 7255.509
467.9895, 7250.758
468.4716, 7245.260
468.9538, 7237.894
469.4359, 7226.692
469.9180, 7218.125
470.4001, 7213.088
470.8822, 7209.832
471.3643, 7205.651
471.8465, 7200.017
472.3286, 7194.749
472.8107, 7190.596
473.2928, 7187.173
473.7749, 7181.896
474.2570, 7174.519
474.7392, 7166.420
475.2213, 7157.413
475.7034, 7148.063
476.1855, 7143.272
476.6676, 7144.738
477.1497, 7146.958
477.6319, 7140.875
478.1140, 7129.075
478.5961, 7119.943
479.0782, 7119.320
479.5603, 7121.972
480.0424, 7122.184
480.5246, 7120.133
481.0067, 7117.338
481.4888, 7115.755
481.9709, 7113.247
482.4530, 7107.217
482.9352, 7094.977
483.4173, 7084.548
483.8994, 7080.165
484.3815, 7079.232
484.8636, 7077.870
485.3457, 7074.819
485.8279, 7071.566
486.3100, 7068.264
486.7921, 7064.964
487.2742, 7062.633
487.7563, 7063.354
488.2384, 7063.131
488.7206, 7059.377
489.2027, 7050.063
489.6848, 7043.057
490.1669, 7038.549
490.6490, 7036.440
491.1311, 7037.353
491.6133, 7041.938
492.0954, 7044.928
492.5775, 7043.905
493.0596, 7040.183
493.5417, 7038.852
494.0238, 7039.856
494.5060, 7041.388
494.9881, 7041.585
495.4702, 7041.148
495.9523, 7042.166
496.4344, 7045.015
496.9165, 7048.293
497.3987, 7052.142
497.8808, 7055.281
498.3629, 7055.250
498.8450, 7048.097
499.3271, 7040.011
499.8092, 7035.932
500.2914, 7034.983
500.7735, 7032.338
501.2556, 7025.044
501.7377, 7016.397
502.2198, 7007.984
502.7019, 6999.073
503.1841, 6992.931
503.6662, 6993.175
504.1483, 6995.163
504.6304, 6993.454
505.1125, 6986.078
505.5946, 6978.087
506.0768, 6968.764
506.5589, 6959.196
507.0410, 6955.443
507.5231, 6959.180
508.0052, 6963.791
508.4873, 6965.703
508.9695, 6964.817
509.4516, 6964.261
509.9337, 6963.895
510.4158, 6964.235
510.8979, 6967.252
511.3800, 6971.910
511.8622, 6973.178
512.3443, 6968.293
512.8264, 6961.502
513.3085, 6958.609
513.7906, 6958.745
514.2728, 6958.752
514.7549, 6957.917
515.2370, 6955.590
515.7191, 6950.139
516.2012, 6941.252
516.6833, 6934.405
517.1655, 6933.706
517.6476, 6935.365
518.1297, 6936.139
518.6118, 6933.664
519.0939, 6932.462
519.5760, 6933.579
520.0582, 6936.454
520.5403, 6939.782
521.0224, 6944.625
521.5045, 6948.348
521.9866, 6950.373
522.4688, 6950.649
522.9509, 6948.289
523.4330, 6942.032
523.9151, 6935.800
524.3972, 6932.384
524.8793, 6931.773
525.3615, 6933.357
525.8436, 6937.727
526.3257, 6942.288
526.8078, 6942.485
527.2899, 6939.142
527.7720, 6936.266
528.2542, 6935.590
528.7363, 6936.093
529.2184, 6937.006
529.7005, 6938.109
530.1826, 6938.277
530.6647, 6938.335
531.1469, 6936.309
531.6290, 6929.339
532.1111, 6915.751
532.5932, 6904.226
533.0753, 6899.130
533.5574, 6897.521
534.0396, 6896.416
534.5217, 6895.552
535.0038, 6895.021
535.4859, 6895.627
535.9680, 6896.697
536.4501, 6895.735
536.9323, 6890.817
537.4144, 6887.193
537.8965, 6887.251
538.3786, 6891.063
538.8607, 6893.334
539.3428, 6893.567
539.8250, 6893.459
540.3071, 6894.208
540.7892, 6895.787
541.2713, 6899.042
541.7534, 6904.679
542.2355, 6910.228
542.7177, 6911.842
543.1998, 6910.419
543.6819, 6908.786
544.1640, 6907.135
544.6461, 6906.681
545.1282, 6909.073
545.6104, 6913.994
546.0925, 6919.368
546.5746, 6924.761
547.0567, 6929.828
547.5388, 6934.023
548.0209, 6936.538
548.5031, 6940.748
548.9852, 6950.915
549.4673, 6961.433
549.9494, 6966.128
550.4315, 6958.640
550.9136, 6955.166
551.3958, 6958.872
551.8779, 6967.203
552.3600, 6971.831
552.8421, 6970.951
553.3242, 6972.767
553.8063, 6983.095
554.2885, 7000.040
554.7706, 7006.568
555.2527, 7001.742
555.7348, 6996.651
556.2169, 7002.995
556.6990, 7016.540
557.1812, 7026.354
557.6633, 7030.383
558.1454, 7032.011
558.6275, 7032.657
559.1096, 7033.500
559.5917, 7036.604
560.0739, 7045.577
560.5560, 7054.400
561.0381, 7061.164
561.5202, 7065.493
562.0023, 7066.239
562.4844, 7061.814
562.9666, 7054.717
563.4487, 7045.382
563.9308, 7033.204
564.4129, 7022.190
564.8950, 7013.347
565.3771, 7004.441
565.8593, 6993.120
566.3414, 6978.378
566.8235, 6965.208
567.3056, 6954.167
567.7877, 6944.515
568.2698, 6934.798
568.7520, 6925.027
569.2341, 6916.444
569.7162, 6910.948
570.1983, 6906.048
570.6804, 6896.023
571.1625, 6881.690
571.6447, 6867.925
572.1268, 6857.330
572.6089, 6849.284
573.0910, 6843.374
573.5731, 6839.520
574.0552, 6837.873
574.5374, 6839.874
575.0195, 6843.374
575.5016, 6846.338
575.9837, 6848.542
576.4658, 6849.720
576.9479, 6848.421
577.4301, 6846.160
577.9122, 6846.377
578.3943, 6851.239
578.8764, 6853.438
579.3585, 6848.890
579.8406, 6839.390
580.3228, 6839.290
580.8049, 6849.771
581.2870, 6861.844
581.7691, 6871.827
582.2512, 6878.873
582.7333, 6878.595
583.2155, 6870.375
583.6975, 6859.602
584.1796, 6847.565
584.6617, 6837.300
585.1439, 6834.270
585.6260, 6843.291
586.1081, 6854.068
586.5902, 6862.833
587.0723, 6868.700
587.5544, 6869.820
588.0366, 6862.771
588.5187, 6853.790
589.0008, 6843.000
589.4829, 6830.710
589.9650, 6822.773
590.4471, 6820.867
590.9293, 6820.749
591.4114, 6820.307
591.8935, 6819.161
592.3756, 6820.182
592.8577, 6824.156
593.3398, 6828.058
593.8220, 6829.165
594.3041, 6827.569
594.7862, 6823.077
595.2683, 6814.620
595.7504, 6806.256
596.2325, 6804.142
596.7147, 6806.411
597.1968, 6808.102
597.6789, 6807.232
598.1610, 6804.982
598.6431, 6801.200
599.1252, 6796.481
599.6074, 6793.306
600.0895, 6794.532
600.5716, 6795.784
601.0537, 6794.830
601.5358, 6791.019
602.0179, 6787.122
602.5001, 6782.225
602.9822, 6778.167
603.4643, 6776.690
603.9464, 6778.787
604.4285, 6779.526
604.9106, 6778.484
605.3928, 6776.272
605.8749, 6772.882
606.3570, 6768.533
606.8391, 6766.478
607.3212, 6768.234
607.8033, 6772.034
608.2855, 6776.604
608.7676, 6781.193
609.2497, 6783.324
609.7318, 6777.249
610.2139, 6771.225
610.6960, 6774.063
611.1782, 6785.643
611.6603, 6792.549
612.1424, 6785.279
612.6245, 6775.417
613.1066, 6770.382
613.5887, 6773.683
614.0709, 6775.042
614.5530, 6773.132
615.0351, 6770.680
615.5172, 6771.242
615.9993, 6776.309
616.4814, 6777.551
616.9636, 6772.852
617.4457, 6765.207
617.9278, 6759.391
618.4099, 6755.448
618.8920, 6754.078
619.3741, 6757.484
619.8563, 6762.037
620.3384, 6761.193
620.8205, 6756.056
621.3026, 6752.403
621.7847, 6756.502
622.2668, 6761.187
622.7490, 6760.573
623.2311, 6753.710
623.7132, 6747.123
624.1953, 6741.842
624.6774, 6738.115
625.1595, 6736.306
625.6417, 6738.281
626.1238, 6738.741
626.6059, 6736.964
627.0880, 6734.733
627.5701, 6734.369
628.0522, 6736.025
628.5344, 6738.701
629.0165, 6742.487
629.4986, 6746.719
629.9807, 6750.569
630.4628, 6753.841
630.9449, 6755.603
631.4271, 6754.089
631.9092, 6751.537
632.3913, 6749.689
632.8734, 6748.627
633.3555, 6749.225
633.8376, 6751.860
634.3198, 6756.146
634.8019, 6762.507
635.2840, 6771.711
635.7661, 6779.000
636.2482, 6785.367
636.7303, 6788.601
637.2125, 6786.513
637.6946, 6776.456
638.1767, 6769.273
638.6588, 6766.502
639.1409, 6764.920
639.6230, 6758.883
640.1052, 6748.880
640.5873, 6742.388
641.0694, 6742.343
641.5515, 6745.116
642.0336, 6745.583
642.5157, 6744.367
642.9979, 6743.286
643.4800, 6743.761
643.9621, 6744.189
644.4442, 6743.131
644.9263, 6740.845
645.4084, 6739.022
645.8906, 6739.205
646.3727, 6739.132
646.8548, 6737.392
647.3369, 6733.624
647.8190, 6731.077
648.3011, 6729.501
648.7833, 6729.589
649.2654, 6732.705
649.7475, 6739.323
650.2296, 6742.961
650.7117, 6742.706
651.1938, 6741.640
651.6760, 6743.169
652.1581, 6746.969
652.6402, 6752.639
653.1223, 6761.855
653.6044, 6769.002
654.0865, 6766.226
654.5687, 6758.120
655.0508, 6753.565
655.5329, 6760.217
656.0150, 6766.471
656.4971, 6766.554
656.9792, 6762.029
657.4614, 6761.615
657.9435, 6769.791
658.4256, 6776.219
658.9077, 6777.017
659.3898, 6772.431
659.8719, 6769.070
660.3541, 6767.187
660.8362, 6765.294
661.3183, 6761.804
661.8004, 6757.377
662.2825, 6754.694
662.7646, 6753.992
663.2468, 6753.612
663.7289, 6752.239
664.2110, 6750.308
664.6931, 6748.386
665.1752, 6746.690
665.6573, 6744.966
666.1395, 6742.087
666.6216, 6739.583
667.1037, 6739.317
667.5858, 6746.428
668.0679, 6749.351
668.5500, 6744.902
669.0322, 6736.767
669.5143, 6733.768
669.9964, 6737.277
670.4785, 6738.612
670.9606, 6733.520
671.4427, 6725.499
671.9249, 6725.800
672.4070, 6733.334
672.8891, 6739.600
673.3712, 6737.920
673.8533, 6733.189
674.3354, 6730.743
674.8176, 6730.622
675.2997, 6731.390
675.7818, 6732.815
676.2639, 6734.582
676.7460, 6736.792
677.2281, 6739.904
677.7103, 6741.379
678.1924, 6738.584
678.6745, 6736.736
679.1566, 6740.236
679.6387, 6750.540
680.1208, 6759.417
680.6030, 6766.633
681.0851, 6771.998
681.5672, 6775.500
682.0493, 6777.064
682.5314, 6776.060
683.0135, 6771.056
683.4957, 6766.360
683.9778, 6767.923
684.4599, 6772.908
684.9420, 6775.952
685.4241, 6773.818
685.9063, 6770.759
686.3884, 6767.825
686.8705, 6765.209
687.3526, 6763.377
687.8347, 6761.936
688.3168, 6762.078
688.7990, 6765.018
689.2811, 6770.086
689.7632, 6771.798
690.2453, 6769.682
690.7274, 6767.735
691.2095, 6768.166
691.6917, 6770.538
692.1738, 6774.247
692.6559, 6779.112
693.1380, 6783.156
693.6201, 6784.630
694.1022, 6784.602
694.5844, 6783.911
695.0665, 6782.517
695.5486, 6780.908
696.0307, 6778.789
696.5128, 6776.695
696.9949, 6774.878
697.4771, 6772.078
697.9592, 6772.627
698.4413, 6778.651
698.9234, 6785.462
699.4055, 6787.073
699.8876, 6783.497
700.3698, 6779.596
700.8519, 6776.219
701.3340, 6773.318
701.8161, 6770.565
702.2982, 6768.322
702.7803, 6767.472
703.2625, 6770.249
703.7446, 6772.285
704.2267, 6769.647
704.7088, 6764.147
705.1909, 6759.765
705.6730, 6755.875
706.1552, 6755.134
706.6373, 6760.248
707.1194, 6769.101
707.6015, 6771.375
708.0836, 6764.411
708.5657, 6758.492
709.0479, 6758.607
709.5300, 6762.896
710.0121, 6763.087
710.4942, 6759.291
710.9763, 6755.714
711.4584, 6755.424
711.9406, 6756.814
712.4227, 6758.112
712.9048, 6759.236
713.3869, 6760.218
713.8690, 6761.578
714.3511, 6762.587
714.8333, 6763.064
715.3154, 6763.559
715.7975, 6761.831
716.2796, 6757.016
716.7617, 6751.330
717.2438, 6746.317
717.7260, 6742.111
718.2081, 6738.763
718.6902, 6736.520
719.1723, 6734.548
719.6544, 6731.088
720.1365, 6727.181
720.6187, 6725.844
721.1008, 6728.575
721.5829, 6731.181
722.0650, 6729.088
722.5471, 6725.321
723.0292, 6723.915
723.5114, 6725.953
723.9935, 6730.396
724.4756, 6740.118
724.9577, 6750.908
725.4398, 6754.747
725.9219, 6747.819
726.4041, 6745.604
726.8862, 6752.471
727.3683, 6764.857
727.8504, 6775.460
728.3325, 6784.093
728.8146, 6789.339
729.2968, 6790.125
729.7789, 6787.461
730.2610, 6780.554
730.7431, 6770.821
731.2252, 6762.965
731.7073, 6759.534
732.1895, 6757.913
732.6716, 6757.014
733.1537, 6756.934
733.6358, 6758.734
734.1179, 6763.918
734.6000, 6768.756
735.0822, 6773.067
735.5643, 6776.297
736.0464, 6769.852
736.5285, 6753.246
737.0106, 6737.497
737.4927, 6730.292
737.9749, 6729.245
738.4570, 6731.767
738.9391, 6737.525
739.4212, 6742.212
739.9033, 6742.316
740.3854, 6741.029
740.8676, 6740.326
741.3497, 6740.204
741.8318, 6741.670
742.3139, 6746.591
742.7960, 6750.943
743.2781, 6751.785
743.7603, 6748.603
744.2424, 6745.474
744.7245, 6742.436
745.2066, 6739.917
745.6887, 6737.722
746.1708, 6736.479
746.6530, 6738.278
747.1351, 6744.026
747.6172, 6750.096
748.0993, 6753.440
748.5814, 6755.879
749.0635, 6759.378
749.5457, 6764.766
750.0278, 6770.666
750.5099, 6776.526
750.9920, 6782.779
751.4741, 6790.119
751.9562, 6798.792
752.4384, 6806.820
752.9205, 6814.135
753.4026, 6819.685
753.8847, 6820.308
754.3668, 6817.276
754.8489, 6815.956
755.3311, 6818.236
755.8132, 6822.190
756.2953, 6828.234
756.7774, 6834.409
757.2595, 6837.157
757.7416, 6831.860
758.2238, 6827.354
758.7059, 6827.513
759.1880, 6829.527
759.6701, 6827.234
760.1522, 6819.674
760.6343, 6811.062
761.1165, 6801.684
761.5986, 6792.741
762.0807, 6787.979
762.5628, 6786.667
763.0449, 6784.299
763.5270, 6776.032
764.0092, 6768.209
764.4913, 6767.786
764.9734, 6772.818
765.4555, 6777.297
765.9376, 6777.426
766.4197, 6778.212
766.9019, 6781.571
767.3840, 6786.975
767.8661, 6792.629
768.3482, 6799.152
768.8303, 6803.806
769.3124, 6804.635
769.7946, 6802.977
770.2767, 6804.437
770.7588, 6808.534
771.2409, 6810.826
771.7230, 6807.293
772.2051, 6801.633
772.6873, 6797.007
773.1694, 6793.514
773.6515, 6790.942
774.1336, 6789.333
774.6157, 6788.607
775.0978, 6789.483
775.5800, 6791.861
776.0621, 6791.317
776.5442, 6786.494
777.0263, 6782.688
777.5084, 6782.900
777.9905, 6786.531
778.4727, 6791.953
778.9548, 6798.944
779.4369, 6804.203
779.9190, 6803.635
780.4011, 6801.204
780.8832, 6800.440
781.3654, 6801.579
781.8475, 6804.000
782.3296, 6808.659
782.8117, 6813.529
783.2938, 6818.271
783.7759, 6823.217
784.2581, 6823.619
784.7402, 6817.804
785.2223, 6813.037
785.7044, 6816.062
786.1865, 6824.568
786.6686, 6828.440
787.1508, 6827.545
787.6329, 6827.420
788.1150, 6833.692
788.5971, 6841.855
789.0792, 6847.125
789.5613, 6848.631
790.0435, 6850.983
790.5256, 6856.735
791.0077, 6862.147
791.4898, 6865.759
791.9719, 6867.806
792.4540, 6864.792
792.9362, 6856.053
793.4183, 6844.717
793.9004, 6832.861
794.3825, 6820.506
794.8646, 6807.537
795.3467, 6793.820
795.8289, 6782.007
796.3110, 6774.986
796.7931, 6770.294
797.2752, 6765.946
797.7573, 6761.352
798.2394, 6759.191
798.7216, 6763.919
799.2037, 6766.841
799.6858, 6760.996
800.1679, 6744.423
800.6500, 6735.533
801.1321, 6735.072
801.6143, 6736.974
802.0964, 6736.046
802.5785, 6733.431
803.0606, 6731.202
803.5427, 6729.571
804.0248, 6728.136
804.5070, 6725.841
804.9891, 6724.061
805.4712, 6724.095
805.9533, 6726.985
806.4354, 6728.434
806.9175, 6727.601
807.3997, 6726.396
807.8818, 6726.230
808.3639, 6727.056
808.8460, 6727.659
809.3281, 6727.949
809.8102, 6728.602
810.2924, 6730.703
810.7745, 6733.373
811.2566, 6735.211
811.7387, 6735.919
812.2208, 6737.336
812.7029, 6742.419
813.1851, 6746.914
813.6672, 6746.962
814.1493, 6740.276
814.6314, 6740.161
815.1135, 6749.025
815.5956, 6758.435
816.0778, 6761.196
816.5599, 6758.507
817.0420, 6755.144
817.5241, 6751.250
818.0062, 6748.749
818.4883, 6749.978
818.9705, 6752.620
819.4526, 6754.236
819.9347, 6754.201
820.4168, 6755.115
820.8989, 6761.648
821.3810, 6765.283
821.8632, 6760.514
822.3453, 6746.120
822.8274, 6736.070
823.3095, 6731.063
823.7916, 6727.836
824.2737, 6724.064
824.7559, 6720.381
825.2380, 6717.988
825.7201, 6717.030
826.2022, 6717.149
826.6843, 6720.142
827.1664, 6722.631
827.6486, 6721.732
828.1307, 6716.450
828.6128, 6713.084
829.0949, 6711.650
829.5770, 6712.000
830.0591, 6715.191
830.5413, 6720.609
831.0234, 6721.639
831.5055, 6718.268
831.9876, 6713.338
832.4697, 6706.334
832.9518, 6700.400
833.4340, 6700.444
833.9161, 6706.180
834.3982, 6709.658
834.8803, 6705.858
835.3624, 6701.435
835.8445, 6699.579
836.3267, 6700.147
836.8088, 6698.744
837.2909, 6694.751
837.7730, 6691.851
838.2551, 6692.056
838.7372, 6694.899
839.2194, 6700.766
839.7015, 6708.847
840.1836, 6714.354
840.6657, 6711.526
841.1478, 6707.927
841.6299, 6709.148
842.1121, 6714.533
842.5942, 6716.555
843.0763, 6712.263
843.5584, 6708.986
844.0405, 6709.114
844.5226, 6711.892
845.0048, 6714.524
845.4869, 6717.009
845.9690, 6720.132
846.4511, 6727.211
846.9332, 6732.619
847.4153, 6727.011
847.8975, 6714.528
848.3796, 6706.819
848.8617, 6713.392
849.3438, 6719.265
849.8259, 6720.462
850.3080, 6718.107
850.7902, 6714.360
851.2723, 6708.910
851.7544, 6704.161
852.2365, 6699.998
852.7186, 6698.200
853.2007, 6705.330
853.6829, 6717.514
854.1650, 6724.054
854.6471, 6715.279
855.1292, 6706.897
855.6113, 6707.107
856.0934, 6712.497
856.5756, 6716.857
857.0577, 6719.374
857.5398, 6721.475
858.0219, 6722.690
858.5040, 6724.484
858.9861, 6730.740
859.4683, 6740.195
859.9504, 6745.834
860.4325, 6745.531
860.9146, 6742.356
861.3967, 6736.894
861.8788, 6731.139
862.3610, 6727.747
862.8431, 6730.648
863.3252, 6729.737
863.8073, 6720.384
864.2894, 6711.049
864.7715, 6711.908
865.2537, 6723.837
865.7358, 6729.202
866.2179, 6726.260
866.7000, 6720.872
867.1821, 6717.862
867.6642, 6716.810
868.1464, 6717.696
868.6285, 6721.000
869.1106, 6723.280
869.5927, 6722.091
870.0748, 6720.349
870.5569, 6719.998
871.0391, 6721.219
871.5212, 6721.564
872.0033, 6720.713
872.4854, 6719.251
872.9675, 6717.059
873.4496, 6714.445
873.9318, 6712.885
874.4139, 6712.131
874.8960, 6710.208
875.3781, 6704.632
875.8602, 6698.618
876.3423, 6694.921
876.8245, 6693.662
877.3066, 6689.443
877.7887, 6681.062
878.2708, 6673.152
878.7529, 6667.692
879.2350, 6664.486
879.7172, 6662.778
880.1993, 6662.579
880.6814, 6662.840
881.1635, 6663.216
881.6456, 6663.741
882.1277, 6663.621
882.6099, 6663.535
883.0920, 6665.607
883.5741, 6672.388
884.0562, 6677.979
884.5383, 6681.630
885.0204, 6683.071
885.5026, 6680.869
885.9847, 6675.198
886.4668, 6670.446
886.9489, 6667.384
887.4310, 6666.587
887.9131, 6670.617
888.3953, 6676.802
888.8774, 6681.252
889.3595, 6684.289
889.8416, 6683.375
890.3237, 6674.852
890.8058, 6665.392
891.2880, 6662.977
891.7701, 6668.537
892.2522, 6669.356
892.7343, 6663.864
893.2164, 6656.833
893.6985, 6652.650
894.1807, 6650.335
894.6628, 6648.657
895.1449, 6647.555
895.6270, 6646.019
896.1091, 6642.954
896.5912, 6639.991
897.0734, 6638.396
897.5555, 6638.479
898.0376, 6636.310
898.5197, 6631.387
899.0018, 6627.995
899.4839, 6631.502
899.9661, 6637.777
900.4482, 6638.617
900.9303, 6634.587
901.4124, 6630.214
901.8945, 6626.542
902.3766, 6624.102
902.8588, 6622.687
903.3409, 6624.089
903.8230, 6625.263
904.3051, 6631.388
904.7872, 6638.437
905.2693, 6646.599
905.7515, 6653.867
906.2336, 6655.903
906.7157, 6653.662
907.1978, 6649.960
907.6799, 6643.863
908.1620, 6639.212
908.6442, 6638.680
909.1263, 6640.483
909.6084, 6641.318
910.0905, 6639.733
910.5726, 6641.750
911.0547, 6649.259
911.5369, 6657.571
912.0190, 6660.209
912.5011, 6658.694
912.9832, 6656.961
913.4653, 6655.567
913.9474, 6654.884
914.4296, 6655.026
914.9117, 6656.008
915.3938, 6658.389
915.8759, 6663.162
916.3580, 6664.071
916.8401, 6659.776
917.3223, 6654.649
917.8044, 6651.906
918.2865, 6650.794
918.7686, 6648.596
919.2507, 6645.352
919.7328, 6641.434
920.2150, 6635.858
920.6971, 6630.934
921.1792, 6628.232
921.6613, 6627.724
922.1434, 6627.910
922.6255, 6628.951
923.1077, 6630.290
923.5898, 6631.509
924.0719, 6633.203
924.5540, 6638.560
925.0361, 6645.989
925.5182, 6648.881
926.0004, 6642.448
926.4825, 6634.386
926.9646, 6628.895
927.4467, 6624.827
927.9288, 6620.563
928.4109, 6615.173
928.8931, 6610.946
929.3752, 6608.142
929.8573, 6606.274
930.3394, 6605.394
930.8215, 6605.080
931.3036, 6603.201
931.7858, 6599.432
932.2679, 6596.719
932.7500, 6598.149
933.2321, 6600.873
933.7142, 6602.360
934.1964, 6602.065
934.6785, 6605.354
935.1606, 6614.590
935.6427, 6621.751
936.1248, 6621.852
936.6069, 6616.829
937.0891, 6611.957
937.5712, 6607.533
938.0533, 6605.547
938.5354, 6608.930
939.0175, 6613.016
939.4996, 6614.229
939.9818, 6613.971
940.4639, 6616.482
940.9460, 6622.502
941.4281, 6629.394
941.9102, 6637.518
942.3923, 6644.409
942.8745, 6644.775
943.3566, 6640.661
943.8387, 6637.844
944.3208, 6637.709
944.8029, 6639.271
945.2850, 6643.200
945.7672, 6647.931
946.2493, 6652.539
946.7314, 6658.195
947.2135, 6658.605
947.6956, 6652.455
948.1777, 6645.828
948.6599, 6643.531
949.1420, 6644.345
949.6241, 6645.693
950.1062, 6647.433
950.5883, 6649.345
951.0704, 6650.843
951.5526, 6652.834
952.0347, 6656.836
952.5168, 6661.763
952.9989, 6663.266
953.4810, 6660.721
953.9631, 6657.181
954.4453, 6652.387
954.9274, 6649.091
955.4095, 6653.772
955.8916, 6663.216
956.3737, 6670.762
956.8558, 6675.075
957.3380, 6675.909
957.8201, 6668.525
958.3022, 6660.940
958.7843, 6661.073
959.2664, 6670.559
959.7485, 6679.385
960.2307, 6687.382
960.7128, 6693.691
961.1949, 6696.514
961.6770, 6697.661
962.1591, 6698.564
962.6412, 6699.576
963.1234, 6704.057
963.6055, 6716.270
964.0876, 6728.703
964.5697, 6738.603
965.0518, 6746.478
965.5339, 6756.528
966.0161, 6768.702
966.4982, 6775.049
966.9803, 6769.752
967.4624, 6761.756
967.9445, 6761.327
968.4266, 6765.133
968.9088, 6767.689
969.3909, 6767.994
969.8730, 6766.134
970.3551, 6761.206
970.8372, 6755.598
971.3193, 6751.512
971.8015, 6748.993
972.2836, 6748.279
972.7657, 6749.559
973.2478, 6749.466
973.7299, 6744.044
974.2120, 6737.196
974.6942, 6731.815
975.1763, 6728.218
975.6584, 6726.067
976.1405, 6725.656
976.6226, 6725.642
977.1047, 6724.868
977.5869, 6724.571
978.0690, 6728.721
978.5511, 6736.456
979.0332, 6745.123
979.5153, 6757.378
979.9974, 6764.826
980.4796, 6757.752
980.9617, 6745.406
981.4438, 6741.358
981.9259, 6749.827
982.4080, 6754.027
982.8901, 6752.509
983.3723, 6749.554
983.8544, 6748.812
984.3365, 6750.012
984.8186, 6753.667
985.3007, 6759.715
985.7828, 6763.665
986.2650, 6759.494
986.7471, 6757.242
987.2292, 6761.985
987.7113, 6772.242
988.1934, 6780.333
988.6755, 6786.104
989.1577, 6792.050
989.6398, 6800.244
990.1219, 6806.858
990.6040, 6805.048
991.0861, 6798.909
991.5682, 6795.446
992.0504, 6798.923
992.5325, 6801.826
993.0146, 6804.962
993.4967, 6805.590
993.9788, 6800.636
994.4609, 6790.618
994.9431, 6778.399
995.4252, 6764.175
995.9073, 6753.117
996.3894, 6751.953
996.8715, 6752.847
997.3536, 6750.127
997.8358, 6743.667
998.3179, 6736.767
998.8000, 6729.023
999.2821, 6722.146
999.7642, 6716.481
1000.246, 6712.087
1000.728, 6709.122
1001.211, 6707.596
1001.693, 6707.861
1002.175, 6711.019
1002.657, 6713.835
1003.139, 6715.902
1003.621, 6716.242
1004.103, 6713.705
1004.585, 6707.563
1005.068, 6702.049
1005.550, 6696.846
1006.032, 6694.331
1006.514, 6697.508
1006.996, 6703.424
1007.478, 6709.880
1007.960, 6716.075
1008.442, 6718.929
1008.924, 6713.372
1009.407, 6709.889
1009.889, 6711.813
1010.371, 6715.720
1010.853, 6714.735
1011.335, 6709.256
1011.817, 6701.061
1012.299, 6689.570
1012.781, 6680.205
1013.263, 6679.267
1013.746, 6681.191
1014.228, 6680.853
1014.710, 6677.909
1015.192, 6673.011
1015.674, 6665.518
1016.156, 6658.506
1016.638, 6652.998
1017.120, 6649.523
1017.603, 6650.089
1018.085, 6653.763
1018.567, 6657.433
1019.049, 6658.626
1019.531, 6660.567
1020.013, 6664.733
1020.495, 6669.436
1020.977, 6672.317
1021.459, 6673.240
1021.942, 6673.355
1022.424, 6672.771
1022.906, 6671.322
1023.388, 6668.468
1023.870, 6665.060
1024.352, 6661.263
1024.834, 6657.056
1025.316, 6657.180
1025.799, 6665.438
1026.281, 6671.052
1026.763, 6669.701
1027.245, 6663.107
1027.727, 6652.257
1028.209, 6639.571
1028.691, 6633.389
1029.173, 6642.149
1029.656, 6649.736
1030.138, 6646.163
1030.620, 6639.103
1031.102, 6637.136
1031.584, 6641.639
1032.066, 6641.649
1032.548, 6636.167
1033.030, 6632.661
1033.512, 6639.054
1033.995, 6649.668
1034.477, 6659.601
1034.959, 6667.939
1035.441, 6671.416
1035.923, 6664.079
1036.405, 6659.885
1036.887, 6663.161
1037.369, 6669.159
1037.851, 6667.965
1038.334, 6661.368
1038.816, 6656.203
1039.298, 6654.458
1039.780, 6652.390
1040.262, 6646.250
1040.744, 6640.038
1041.226, 6637.173
1041.708, 6637.869
1042.191, 6638.144
1042.673, 6637.814
1043.155, 6638.938
1043.637, 6644.342
1044.119, 6650.374
1044.601, 6651.284
1045.083, 6648.927
1045.565, 6647.524
1046.047, 6648.584
1046.530, 6650.499
1047.012, 6654.164
1047.494, 6657.016
1047.976, 6656.272
1048.458, 6652.175
1048.940, 6644.641
1049.422, 6633.803
1049.904, 6625.564
1050.386, 6626.838
1050.869, 6628.725
1051.351, 6624.860
1051.833, 6616.810
1052.315, 6610.535
1052.797, 6605.627
1053.279, 6606.063
1053.761, 6614.537
1054.243, 6624.273
1054.726, 6626.745
1055.208, 6625.022
1055.690, 6623.216
1056.172, 6621.996
1056.654, 6621.133
1057.136, 6619.838
1057.618, 6620.249
1058.100, 6624.998
1058.583, 6632.273
1059.065, 6633.946
1059.547, 6631.227
1060.029, 6629.656
1060.511, 6633.231
1060.993, 6637.290
1061.475, 6641.283
1061.957, 6643.901
1062.439, 6643.079
1062.922, 6638.482
1063.404, 6633.243
1063.886, 6627.490
1064.368, 6622.766
1064.850, 6619.546
1065.332, 6618.636
1065.814, 6621.581
1066.296, 6628.134
1066.778, 6634.874
1067.261, 6643.752
1067.743, 6647.183
1068.225, 6641.504
1068.707, 6632.179
1069.189, 6629.090
1069.671, 6630.398
1070.153, 6632.006
1070.635, 6632.870
1071.118, 6634.017
1071.600, 6636.964
1072.082, 6639.248
1072.564, 6639.413
1073.046, 6637.676
1073.528, 6635.727
1074.010, 6633.677
1074.492, 6631.564
1074.974, 6627.461
1075.457, 6625.713
1075.939, 6631.759
1076.421, 6641.618
1076.903, 6648.629
1077.385, 6652.165
1077.867, 6652.782
1078.349, 6649.460
1078.831, 6647.347
1079.313, 6651.834
1079.796, 6660.097
1080.278, 6669.366
1080.760, 6678.893
1081.242, 6685.144
1081.724, 6678.333
1082.206, 6680.235
1082.688, 6697.404
1083.170, 6722.656
1083.652, 6743.800
1084.135, 6761.753
1084.617, 6779.287
1085.099, 6797.128
1085.581, 6813.527
1086.063, 6824.431
1086.545, 6836.409
1087.027, 6853.583
1087.509, 6875.680
1087.992, 6902.530
1088.474, 6934.250
1088.956, 6961.746
1089.438, 6980.837
1089.920, 6995.088
1090.402, 7005.901
1090.884, 7015.244
1091.366, 7026.032
1091.849, 7040.252
1092.331, 7051.992
1092.813, 7061.664
1093.295, 7067.468
1093.777, 7068.622
1094.259, 7064.678
1094.741, 7052.571
1095.223, 7034.279
1095.705, 7016.719
1096.188, 7007.354
1096.670, 6991.796
1097.152, 6966.197
1097.634, 6935.710
1098.116, 6904.281
1098.598, 6873.022
1099.080, 6849.379
1099.562, 6833.786
1100.044, 6818.099
1100.527, 6801.192
1101.009, 6778.774
1101.491, 6744.944
1101.973, 6704.578
1102.455, 6672.655
1102.937, 6649.122
1103.419, 6633.539
1103.901, 6628.073
1104.384, 6622.253
1104.866, 6604.797
1105.348, 6582.866
1105.830, 6563.776
1106.312, 6549.053
1106.794, 6529.603
1107.276, 6502.771
1107.758, 6481.799
1108.240, 6475.396
1108.723, 6474.560
1109.205, 6464.132
1109.687, 6448.293
1110.169, 6434.998
1110.651, 6425.475
1111.133, 6420.783
1111.615, 6422.794
1112.097, 6425.700
1112.579, 6427.221
1113.062, 6425.751
1113.544, 6412.202
1114.026, 6389.264
1114.508, 6370.708
1114.990, 6364.843
1115.472, 6362.747
1115.954, 6365.737
1116.436, 6367.695
1116.919, 6358.896
1117.401, 6340.324
1117.883, 6325.112
1118.365, 6314.468
1118.847, 6309.146
1119.329, 6315.172
1119.811, 6321.650
1120.293, 6321.395
1120.776, 6315.493
1121.258, 6307.551
1121.740, 6297.217
1122.222, 6287.845
1122.704, 6280.209
1123.186, 6272.787
1123.668, 6262.150
1124.150, 6251.709
1124.632, 6245.627
1125.115, 6244.850
1125.597, 6242.245
1126.079, 6236.848
1126.561, 6232.905
1127.043, 6233.360
1127.525, 6234.151
1128.007, 6228.486
1128.489, 6218.529
1128.971, 6207.478
1129.454, 6194.658
1129.936, 6185.689
1130.418, 6182.862
1130.900, 6180.485
1131.382, 6174.274
1131.864, 6166.242
1132.346, 6162.532
1132.828, 6162.175
1133.311, 6162.003
1133.793, 6158.297
1134.275, 6157.752
1134.757, 6164.441
1135.239, 6171.587
1135.721, 6171.902
1136.203, 6166.273
1136.685, 6163.337
1137.167, 6163.045
1137.650, 6163.067
1138.132, 6162.883
1138.614, 6161.651
1139.096, 6160.217
1139.578, 6156.843
1140.060, 6147.892
1140.542, 6133.249
1141.024, 6119.214
1141.506, 6106.522
1141.989, 6095.061
1142.471, 6084.736
1142.953, 6075.653
1143.435, 6068.986
1143.917, 6063.849
1144.399, 6054.955
1144.881, 6041.390
1145.363, 6030.637
1145.846, 6024.393
1146.328, 6021.624
1146.810, 6024.458
1147.292, 6028.104
1147.774, 6027.335
1148.256, 6021.059
1148.738, 6013.600
1149.220, 6004.300
1149.703, 5996.269
1150.185, 5990.679
1150.667, 5986.667
1151.149, 5983.429
1151.631, 5980.671
1152.113, 5978.161
1152.595, 5976.482
1153.077, 5972.500
1153.559, 5965.123
1154.042, 5958.068
1154.524, 5954.385
1155.006, 5951.481
1155.488, 5942.182
1155.970, 5928.996
1156.452, 5918.452
1156.934, 5915.245
1157.416, 5909.865
1157.898, 5899.932
1158.381, 5889.808
1158.863, 5882.800
1159.345, 5878.304
1159.827, 5875.162
1160.309, 5872.606
1160.791, 5867.610
1161.273, 5854.556
1161.755, 5844.456
1162.238, 5841.373
1162.720, 5840.554
1163.202, 5837.473
1163.684, 5832.211
1164.166, 5825.026
1164.648, 5816.083
1165.130, 5807.224
1165.612, 5797.360
1166.094, 5790.383
1166.577, 5790.655
1167.059, 5793.036
1167.541, 5789.524
1168.023, 5780.521
1168.505, 5770.204
1168.987, 5759.002
1169.469, 5748.754
1169.951, 5740.316
1170.433, 5733.721
1170.916, 5730.268
1171.398, 5728.272
1171.880, 5723.195
1172.362, 5715.050
1172.844, 5707.881
1173.326, 5702.306
1173.808, 5698.890
1174.290, 5701.415
1174.773, 5703.494
1175.255, 5699.162
1175.737, 5689.554
1176.219, 5680.163
1176.701, 5670.807
1177.183, 5664.583
1177.665, 5663.062
1178.147, 5662.177
1178.630, 5659.550
1179.112, 5654.655
1179.594, 5646.217
1180.076, 5634.364
1180.558, 5622.637
1181.040, 5610.761
1181.522, 5601.204
1182.004, 5595.201
1182.486, 5591.233
1182.969, 5589.483
1183.451, 5587.786
1183.933, 5582.876
1184.415, 5573.608
1184.897, 5566.772
1185.379, 5562.576
1185.861, 5558.666
1186.343, 5553.420
1186.825, 5548.417
1187.308, 5546.818
1187.790, 5546.259
1188.272, 5542.734
1188.754, 5533.859
1189.236, 5528.142
1189.718, 5526.347
1190.200, 5524.229
1190.682, 5519.290
1191.165, 5512.400
1191.647, 5503.873
1192.129, 5494.507
1192.611, 5485.818
1193.093, 5479.651
1193.575, 5470.381
1194.057, 5456.811
1194.539, 5444.724
1195.021, 5439.725
1195.504, 5437.968
1195.986, 5435.817
1196.468, 5432.366
1196.950, 5425.177
1197.432, 5411.547
1197.914, 5399.175
1198.396, 5388.604
1198.878, 5378.785
1199.360, 5369.327
1199.843, 5359.741
1200.325, 5348.146
1200.807, 5335.736
1201.289, 5327.933
1201.771, 5329.007
1202.253, 5327.275
1202.735, 5321.147
1203.217, 5313.304
1203.700, 5305.304
1204.182, 5298.406
1204.664, 5294.979
1205.146, 5294.625
1205.628, 5293.715
1206.110, 5291.304
1206.592, 5288.675
1207.074, 5285.721
1207.557, 5282.947
1208.039, 5281.859
1208.521, 5280.781
1209.003, 5275.971
1209.485, 5267.536
1209.967, 5263.619
1210.449, 5267.428
1210.931, 5269.986
1211.413, 5269.393
1211.896, 5267.146
1212.378, 5266.938
1212.860, 5265.608
1213.342, 5257.594
1213.824, 5242.304
1214.306, 5227.737
1214.788, 5214.479
1215.270, 5202.945
1215.752, 5193.371
1216.235, 5185.430
1216.717, 5178.797
1217.199, 5173.347
1217.681, 5169.093
1218.163, 5166.108
1218.645, 5163.076
1219.127, 5160.149
1219.609, 5156.474
1220.092, 5151.767
1220.574, 5146.100
1221.056, 5139.825
1221.538, 5132.468
1222.020, 5122.340
1222.502, 5108.484
1222.984, 5098.901
1223.466, 5093.784
1223.948, 5093.597
1224.431, 5100.708
1224.913, 5108.156
1225.395, 5103.761
1225.877, 5094.206
1226.359, 5088.977
1226.841, 5090.870
1227.323, 5090.857
1227.805, 5088.523
1228.287, 5085.726
1228.770, 5083.261
1229.252, 5080.668
1229.734, 5077.932
1230.216, 5074.420
1230.698, 5069.007
1231.180, 5061.020
1231.662, 5053.817
1232.144, 5047.482
1232.627, 5041.536
1233.109, 5036.428
1233.591, 5030.583
1234.073, 5020.836
1234.555, 5009.831
1235.037, 5000.873
1235.519, 4994.233
1236.001, 4990.789
1236.484, 4991.017
1236.966, 4991.046
1237.448, 4988.836
1237.930, 4985.789
1238.412, 4983.006
1238.894, 4980.312
1239.376, 4976.897
1239.858, 4971.875
1240.340, 4972.657
1240.823, 4979.475
1241.305, 4984.125
1241.787, 4980.758
1242.269, 4975.306
1242.751, 4971.438
1243.233, 4969.149
1243.715, 4968.876
1244.197, 4970.948
1244.679, 4970.307
1245.162, 4967.026
1245.644, 4963.961
1246.126, 4962.835
1246.608, 4962.340
1247.090, 4963.095
1247.572, 4963.092
1248.054, 4960.053
1248.536, 4953.930
1249.019, 4948.849
1249.501, 4944.728
1249.983, 4939.573
1250.465, 4931.234
1250.947, 4923.008
1251.429, 4915.922
1251.911, 4910.258
1252.393, 4905.813
1252.875, 4902.630
1253.358, 4904.192
1253.840, 4909.723
1254.322, 4914.635
1254.804, 4916.581
1255.286, 4917.187
1255.768, 4916.690
1256.250, 4915.326
1256.732, 4912.901
1257.214, 4909.726
1257.697, 4908.265
1258.179, 4907.955
1258.661, 4906.000
1259.143, 4899.367
1259.625, 4893.652
1260.107, 4889.513
1260.589, 4887.243
1261.071, 4888.805
1261.554, 4892.085
1262.036, 4888.945
1262.518, 4881.328
1263.000, 4875.983
1263.482, 4877.274
1263.964, 4878.192
1264.446, 4878.476
1264.928, 4877.175
1265.411, 4873.230
1265.893, 4867.294
1266.375, 4859.221
1266.857, 4850.298
1267.339, 4843.972
1267.821, 4842.631
1268.303, 4841.583
1268.785, 4840.771
1269.267, 4840.484
1269.750, 4841.043
1270.232, 4842.281
1270.714, 4844.186
1271.196, 4846.561
1271.678, 4849.065
1272.160, 4852.453
1272.642, 4852.664
1273.124, 4849.023
1273.606, 4846.521
1274.089, 4849.978
1274.571, 4854.837
1275.053, 4857.700
1275.535, 4858.698
1276.017, 4858.295
1276.499, 4856.305
1276.981, 4854.238
1277.463, 4852.167
1277.946, 4850.727
1278.428, 4851.582
1278.910, 4851.998
1279.392, 4849.232
1279.874, 4845.971
1280.356, 4846.166
1280.838, 4849.698
1281.320, 4848.621
1281.802, 4843.175
1282.285, 4836.396
1282.767, 4827.039
1283.249, 4820.352
1283.731, 4819.917
1284.213, 4820.908
1284.695, 4818.775
1285.177, 4814.388
1285.659, 4812.592
1286.141, 4812.639
1286.624, 4811.523
1287.106, 4806.279
1287.588, 4802.151
1288.070, 4799.640
1288.552, 4798.672
1289.034, 4800.594
1289.516, 4803.444
1289.998, 4803.234
1290.481, 4800.209
1290.963, 4794.942
1291.445, 4783.271
1291.927, 4777.821
1292.409, 4779.715
1292.891, 4783.604
1293.373, 4786.310
1293.855, 4788.327
1294.338, 4789.538
1294.820, 4790.733
1295.302, 4793.975
1295.784, 4801.186
1296.266, 4802.159
1296.748, 4796.547
1297.230, 4790.865
1297.712, 4788.936
1298.194, 4788.564
1298.677, 4788.593
1299.159, 4788.692
1299.641, 4788.237
1300.123, 4787.139
1300.605, 4785.783
1301.087, 4784.077
1301.569, 4781.518
1302.051, 4778.599
1302.533, 4772.512
1303.016, 4761.942
##END=



