##NAMES=Whelanite
##RRUFFID=R050323
##IDEAL CHEMISTRY=Cu^2+^_2_Ca_6_[Si_6_O_17_(OH)](CO_3_)(OH)_3_&#183;2H_2_O
##LOCALITY=Christmas mine, Christmas, Gila County, Arizona, USA
##OWNER=RRUFF
##SOURCE=Marcus Origlieri
##DESCRIPTION=Light-blue thin, flat bladed fibers associated with colorless hydroxyapophyllite, blue kinoite, and light yellow andradite.
##STATUS=The identification of this mineral has been confirmed by single-crystal X-ray diffraction.
##URL=rruff.info/R050323
106.0234, 103.8353
106.5055, 104.2215
106.9877, 104.9229
107.4698, 104.9504
107.9519, 104.2850
108.4340, 102.8181
108.9161, 100.1904
109.3982, 96.74180
109.8804, 93.25864
110.3625, 90.37024
110.8446, 88.10706
111.3267, 86.36961
111.8088, 85.38892
112.2909, 84.68164
112.7731, 84.08194
113.2552, 83.54321
113.7373, 83.06906
114.2194, 82.66503
114.7015, 82.28078
115.1836, 82.09029
115.6658, 82.29165
116.1479, 82.58681
116.6300, 82.67788
117.1121, 82.45480
117.5942, 82.02869
118.0763, 81.65845
118.5584, 81.42381
119.0406, 81.07841
119.5227, 80.37891
120.0048, 79.48483
120.4869, 78.85429
120.9690, 78.77795
121.4511, 79.04509
121.9333, 79.11753
122.4154, 78.81189
122.8975, 78.62153
123.3796, 79.24669
123.8617, 80.84509
124.3438, 81.92648
124.8260, 81.08218
125.3081, 79.58215
125.7902, 78.54166
126.2723, 78.43483
126.7544, 78.89537
127.2365, 79.06779
127.7187, 78.61654
128.2008, 78.45986
128.6829, 79.04926
129.1650, 80.01338
129.6471, 80.85692
130.1292, 81.25521
130.6114, 81.24155
131.0935, 81.29827
131.5756, 81.78918
132.0577, 81.99990
132.5398, 81.47846
133.0219, 80.47905
133.5041, 79.62020
133.9862, 79.46504
134.4683, 80.15655
134.9504, 80.66283
135.4325, 80.76492
135.9146, 80.89198
136.3968, 81.30637
136.8789, 82.02409
137.3610, 82.87312
137.8431, 83.65137
138.3252, 84.33580
138.8073, 85.10502
139.2895, 86.36894
139.7716, 87.57056
140.2537, 87.96108
140.7358, 87.28050
141.2179, 86.15008
141.7000, 85.22889
142.1821, 84.48372
142.6643, 84.02922
143.1464, 84.03020
143.6285, 84.38937
144.1106, 84.76181
144.5927, 85.09697
145.0748, 85.39556
145.5570, 85.66455
146.0391, 85.90359
146.5212, 86.12346
147.0033, 86.45562
147.4854, 86.95774
147.9675, 87.00136
148.4497, 86.04338
148.9318, 84.83250
149.4139, 83.68595
149.8960, 82.68940
150.3781, 81.82659
150.8602, 81.10831
151.3424, 80.61841
151.8245, 80.08028
152.3066, 79.44870
152.7887, 78.77784
153.2708, 78.10845
153.7529, 77.45893
154.2351, 76.80896
154.7172, 76.10513
155.1993, 75.14960
155.6814, 74.39464
156.1635, 74.04340
156.6456, 73.84748
157.1278, 73.49183
157.6099, 72.80987
158.0920, 71.90097
158.5741, 71.19228
159.0562, 70.65480
159.5383, 70.30755
160.0205, 70.32565
160.5026, 70.55605
160.9847, 70.62331
161.4668, 70.25986
161.9489, 69.59803
162.4310, 69.25034
162.9131, 69.59378
163.3953, 69.87077
163.8774, 69.56866
164.3595, 68.73789
164.8416, 67.87368
165.3237, 67.26112
165.8058, 66.83750
166.2880, 66.43299
166.7701, 66.01558
167.2522, 65.62003
167.7343, 65.29562
168.2164, 65.05370
168.6985, 64.83158
169.1807, 64.57878
169.6628, 64.32785
170.1449, 64.11285
170.6270, 63.91039
171.1091, 63.77391
171.5912, 63.89630
172.0734, 64.55673
172.5555, 64.94309
173.0376, 64.59751
173.5197, 63.85780
174.0018, 63.19278
174.4839, 62.87915
174.9661, 62.86629
175.4482, 62.85723
175.9303, 62.88475
176.4124, 62.87615
176.8945, 62.83455
177.3766, 62.74402
177.8588, 62.56176
178.3409, 62.22853
178.8230, 61.74102
179.3051, 61.48924
179.7872, 61.72091
180.2693, 61.94234
180.7515, 61.98943
181.2336, 61.89733
181.7157, 61.79787
182.1978, 61.81250
182.6799, 61.96514
183.1620, 61.98159
183.6441, 61.74788
184.1263, 61.51082
184.6084, 61.38897
185.0905, 61.38296
185.5726, 61.43685
186.0547, 61.52215
186.5368, 61.65038
187.0190, 61.61786
187.5011, 61.33445
187.9832, 60.96387
188.4653, 60.57434
188.9474, 60.18335
189.4296, 59.88393
189.9117, 59.83287
190.3938, 60.01868
190.8759, 60.03918
191.3580, 59.75744
191.8401, 59.33329
192.3223, 58.90898
192.8044, 58.48525
193.2865, 58.13915
193.7686, 58.00105
194.2507, 58.01420
194.7328, 58.03063
195.2150, 58.09088
195.6971, 58.11068
196.1792, 57.86533
196.6613, 57.20034
197.1434, 56.57186
197.6255, 56.43590
198.1077, 56.61500
198.5898, 56.65674
199.0719, 56.18206
199.5540, 55.33990
200.0361, 54.80250
200.5182, 54.79188
201.0004, 54.80770
201.4825, 54.55433
201.9646, 54.10986
202.4467, 53.67670
202.9288, 53.41504
203.4109, 53.31136
203.8930, 53.14369
204.3752, 52.91161
204.8573, 52.60476
205.3394, 52.18090
205.8215, 51.67884
206.3036, 51.18535
206.7857, 50.79633
207.2679, 50.52418
207.7500, 50.11423
208.2321, 49.24699
208.7142, 48.52909
209.1963, 48.26593
209.6784, 48.34556
210.1606, 48.43406
210.6427, 48.21388
211.1248, 47.63005
211.6069, 47.24103
212.0890, 47.16785
212.5711, 47.15535
213.0533, 47.15699
213.5354, 47.13996
214.0175, 47.03983
214.4996, 46.76657
214.9817, 46.25172
215.4638, 46.08026
215.9460, 46.59346
216.4281, 47.06854
216.9102, 47.07716
217.3923, 46.67028
217.8744, 46.22531
218.3565, 46.09817
218.8387, 46.34215
219.3208, 46.44084
219.8029, 46.23290
220.2850, 46.02844
220.7671, 46.06785
221.2492, 46.33306
221.7314, 46.56929
222.2135, 46.51512
222.6956, 46.15388
223.1777, 46.07064
223.6598, 46.48080
224.1419, 47.00628
224.6240, 47.44705
225.1062, 47.77755
225.5883, 47.89074
226.0704, 47.61989
226.5525, 47.00771
227.0346, 46.48949
227.5167, 46.07903
227.9989, 45.78151
228.4810, 45.63198
228.9631, 45.63477
229.4452, 45.69680
229.9273, 45.77568
230.4094, 45.86359
230.8916, 45.93887
231.3737, 45.98515
231.8558, 46.02401
232.3379, 46.06996
232.8200, 46.11895
233.3021, 46.20466
233.7843, 46.43968
234.2664, 46.70911
234.7485, 46.81200
235.2306, 46.57109
235.7127, 46.24929
236.1948, 46.24951
236.6770, 46.65589
237.1591, 47.03567
237.6412, 47.16387
238.1233, 47.14217
238.6054, 47.05514
239.0875, 46.90746
239.5697, 46.73600
240.0518, 46.59145
240.5339, 46.46609
241.0160, 46.39328
241.4981, 46.31166
241.9802, 46.31557
242.4624, 46.58088
242.9445, 47.23710
243.4266, 47.95671
243.9087, 48.09880
244.3908, 47.39327
244.8729, 46.84550
245.3550, 46.84715
245.8372, 47.05218
246.3193, 47.16936
246.8014, 47.09680
247.2835, 46.95308
247.7656, 46.93974
248.2477, 47.08749
248.7299, 47.30260
249.2120, 47.70213
249.6941, 48.07616
250.1762, 48.22974
250.6583, 48.10897
251.1404, 47.86161
251.6226, 47.73117
252.1047, 47.76244
252.5868, 47.81816
253.0689, 47.90637
253.5510, 47.99677
254.0331, 48.05850
254.5153, 48.08753
254.9974, 48.11660
255.4795, 48.21501
255.9616, 48.48453
256.4437, 48.59233
256.9258, 48.43589
257.4080, 48.21926
257.8901, 48.07409
258.3722, 48.02435
258.8543, 48.00748
259.3364, 47.94138
259.8185, 47.81534
260.3007, 47.66108
260.7828, 47.36341
261.2649, 47.12778
261.7470, 47.09566
262.2291, 47.27174
262.7112, 47.55875
263.1934, 47.85778
263.6755, 48.19065
264.1576, 48.44796
264.6397, 48.63023
265.1218, 48.75310
265.6039, 48.80336
266.0861, 48.79374
266.5682, 48.76526
267.0503, 48.75876
267.5324, 48.78104
268.0145, 48.77970
268.4966, 48.69218
268.9788, 48.64141
269.4609, 48.67218
269.9430, 48.79163
270.4251, 49.00904
270.9072, 49.35070
271.3893, 49.82238
271.8715, 50.17530
272.3536, 50.46434
272.8357, 50.61178
273.3178, 50.38601
273.7999, 49.96098
274.2820, 49.81194
274.7642, 50.30281
275.2463, 51.36536
275.7284, 52.14237
276.2105, 52.66936
276.6926, 52.95910
277.1747, 52.80967
277.6568, 52.42205
278.1389, 52.27350
278.6211, 52.67234
279.1032, 53.43506
279.5853, 53.75372
280.0674, 53.31002
280.5495, 52.89644
281.0316, 52.67879
281.5138, 52.62706
281.9959, 52.69059
282.4780, 52.84881
282.9601, 53.10764
283.4422, 53.52539
283.9243, 54.38558
284.4065, 54.87076
284.8886, 54.61979
285.3707, 53.94463
285.8528, 53.21193
286.3349, 52.50778
286.8170, 51.98613
287.2992, 52.00468
287.7813, 52.78322
288.2634, 53.30484
288.7455, 53.21076
289.2276, 52.85561
289.7097, 52.69686
290.1919, 52.84492
290.6740, 53.03668
291.1561, 52.91445
291.6382, 52.42210
292.1203, 52.06065
292.6024, 51.88400
293.0846, 51.85690
293.5667, 52.02174
294.0488, 52.37716
294.5309, 52.69023
295.0130, 52.73235
295.4951, 52.49105
295.9773, 52.25690
296.4594, 52.02759
296.9415, 51.81694
297.4236, 51.61359
297.9057, 51.42495
298.3878, 51.32219
298.8700, 51.40232
299.3521, 51.61669
299.8342, 51.66203
300.3163, 51.39668
300.7984, 51.09504
301.2805, 50.92113
301.7627, 50.85225
302.2448, 50.77421
302.7269, 50.62382
303.2090, 50.42535
303.6911, 50.25443
304.1732, 50.12318
304.6554, 49.99572
305.1375, 49.86067
305.6196, 49.71781
306.1017, 49.56678
306.5838, 49.40865
307.0659, 49.24086
307.5481, 49.05901
308.0302, 48.86458
308.5123, 48.65885
308.9944, 48.41618
309.4765, 48.16803
309.9586, 47.98046
310.4408, 47.87858
310.9229, 47.80436
311.4050, 47.64181
311.8871, 47.37466
312.3692, 47.27877
312.8513, 47.58027
313.3335, 48.00191
313.8156, 48.24749
314.2977, 48.27522
314.7798, 48.09496
315.2619, 47.57018
315.7440, 46.75029
316.2262, 46.33506
316.7083, 46.71975
317.1904, 47.29041
317.6725, 47.59223
318.1546, 47.60875
318.6367, 47.41700
319.1188, 46.95695
319.6010, 46.34155
320.0831, 46.06435
320.5652, 46.49064
321.0473, 46.88070
321.5294, 46.74392
322.0115, 46.21129
322.4937, 45.74609
322.9758, 45.57546
323.4579, 45.59276
323.9400, 45.51466
324.4221, 45.25264
324.9042, 45.09645
325.3864, 45.29732
325.8685, 45.65315
326.3506, 45.73822
326.8327, 45.37838
327.3148, 44.86459
327.7969, 44.68707
328.2791, 44.91366
328.7612, 45.01214
329.2433, 44.80754
329.7254, 44.46046
330.2075, 44.09132
330.6896, 43.72069
331.1718, 43.50475
331.6539, 43.68475
332.1360, 44.29825
332.6181, 44.60138
333.1002, 44.31040
333.5823, 43.89827
334.0645, 43.74493
334.5466, 43.83144
335.0287, 43.85784
335.5108, 43.60122
335.9929, 43.10032
336.4750, 42.68786
336.9572, 42.25222
337.4393, 42.00057
337.9214, 42.17977
338.4035, 42.61481
338.8856, 42.88549
339.3677, 42.78802
339.8499, 42.43102
340.3320, 42.08156
340.8141, 41.65730
341.2962, 41.38124
341.7783, 41.34270
342.2604, 41.45865
342.7426, 41.66302
343.2247, 41.93661
343.7068, 42.19658
344.1889, 42.32708
344.6710, 42.28729
345.1531, 42.20519
345.6353, 41.93949
346.1174, 41.73067
346.5995, 41.85842
347.0816, 42.29243
347.5637, 42.68536
348.0458, 42.70792
348.5280, 42.33587
349.0101, 42.07347
349.4922, 41.82203
349.9743, 41.75457
350.4564, 42.16236
350.9385, 42.81968
351.4207, 43.16299
351.9028, 42.81543
352.3849, 42.00794
352.8670, 41.74086
353.3491, 42.56632
353.8312, 43.24426
354.3134, 43.62727
354.7955, 43.78569
355.2776, 43.73354
355.7597, 43.48671
356.2418, 43.21746
356.7239, 43.23330
357.2061, 43.77981
357.6882, 44.11283
358.1703, 44.07675
358.6524, 43.96502
359.1345, 43.98405
359.6166, 44.14348
360.0987, 44.31485
360.5808, 44.36219
361.0630, 44.26105
361.5451, 44.27446
362.0272, 44.44565
362.5093, 44.67683
362.9914, 45.00867
363.4735, 45.37241
363.9557, 45.64074
364.4378, 45.73214
364.9199, 45.68555
365.4020, 45.67205
365.8841, 45.81358
366.3662, 45.81053
366.8484, 45.46019
367.3305, 45.04191
367.8126, 44.88752
368.2947, 45.08568
368.7768, 45.36866
369.2589, 45.27570
369.7411, 44.58813
370.2232, 44.12282
370.7053, 44.09989
371.1874, 44.12780
371.6695, 43.98478
372.1516, 43.68412
372.6338, 43.38259
373.1159, 43.21415
373.5980, 43.17614
374.0801, 43.18711
374.5622, 43.34634
375.0443, 43.42736
375.5265, 43.24461
376.0086, 42.96399
376.4907, 42.87344
376.9728, 43.15739
377.4549, 43.60151
377.9370, 43.69070
378.4192, 43.27317
378.9013, 42.93050
379.3834, 42.92653
379.8655, 42.99574
380.3476, 42.93710
380.8297, 42.71083
381.3119, 42.40872
381.7940, 42.08738
382.2761, 41.74817
382.7582, 41.48626
383.2403, 41.26427
383.7224, 41.19923
384.2046, 41.43557
384.6867, 41.89334
385.1688, 42.29115
385.6509, 42.43538
386.1330, 42.41944
386.6151, 42.48674
387.0973, 42.69068
387.5794, 42.78233
388.0615, 42.52101
388.5436, 42.08020
389.0257, 41.66631
389.5078, 41.23260
389.9900, 40.98910
390.4721, 41.30636
390.9542, 42.08901
391.4363, 42.54018
391.9184, 42.25679
392.4005, 41.70326
392.8827, 41.49718
393.3648, 41.63679
393.8469, 41.95454
394.3290, 42.60665
394.8111, 43.32637
395.2932, 43.66425
395.7754, 43.54416
396.2575, 43.20344
396.7396, 42.79409
397.2217, 42.32344
397.7038, 41.88427
398.1859, 41.39374
398.6681, 41.00730
399.1501, 40.87506
399.6323, 40.94486
400.1144, 41.01001
400.5965, 40.94564
401.0786, 40.84495
401.5607, 41.02131
402.0428, 41.84290
402.5250, 42.26088
403.0071, 41.79048
403.4892, 40.96047
403.9713, 40.36533
404.4534, 40.14366
404.9355, 40.08407
405.4177, 39.95008
405.8998, 39.72809
406.3819, 39.49506
406.8640, 39.18808
407.3461, 38.93139
407.8282, 38.82722
408.3104, 38.82549
408.7925, 38.79311
409.2746, 38.64244
409.7567, 38.40471
410.2388, 38.22226
410.7209, 38.14907
411.2031, 38.06503
411.6852, 38.04337
412.1673, 37.96225
412.6494, 37.63093
413.1315, 37.03250
413.6136, 36.42109
414.0958, 36.17103
414.5779, 36.40522
415.0600, 36.50338
415.5421, 36.37470
416.0242, 36.18951
416.5063, 35.97555
416.9885, 35.75539
417.4706, 35.55674
417.9527, 35.37782
418.4348, 35.24908
418.9169, 35.29231
419.3990, 35.58545
419.8812, 35.87960
420.3633, 36.12995
420.8454, 36.32874
421.3275, 36.44773
421.8096, 36.47782
422.2917, 36.48967
422.7739, 36.54750
423.2560, 36.65038
423.7381, 36.76297
424.2202, 36.78418
424.7023, 36.95780
425.1844, 37.61280
425.6666, 38.59681
426.1487, 39.35315
426.6308, 39.45013
427.1129, 39.27601
427.5950, 39.44885
428.0771, 39.99550
428.5593, 40.48444
429.0414, 40.65154
429.5235, 40.62738
430.0056, 40.70985
430.4877, 40.90370
430.9698, 41.19617
431.4520, 41.60880
431.9341, 42.11013
432.4162, 42.64542
432.8983, 43.20013
433.3804, 43.78086
433.8625, 44.42936
434.3447, 45.16804
434.8268, 45.71653
435.3089, 45.88283
435.7910, 46.01182
436.2731, 46.32243
436.7552, 46.79457
437.2374, 47.33581
437.7195, 47.91267
438.2016, 48.47723
438.6837, 48.83393
439.1658, 48.86283
439.6479, 48.83204
440.1301, 48.56687
440.6122, 48.35796
441.0943, 48.56144
441.5764, 49.20399
442.0585, 49.95386
442.5406, 50.44588
443.0227, 50.66988
443.5049, 50.71888
443.9870, 50.42804
444.4691, 50.13069
444.9512, 49.80584
445.4333, 49.56830
445.9154, 49.67040
446.3976, 50.29197
446.8797, 51.06398
447.3618, 51.07706
447.8439, 50.00162
448.3260, 49.14951
448.8081, 48.99007
449.2903, 48.95980
449.7724, 48.65857
450.2545, 48.09281
450.7366, 47.61383
451.2187, 47.57967
451.7008, 47.87266
452.1830, 48.02211
452.6651, 48.05375
453.1472, 47.85321
453.6293, 47.05689
454.1114, 46.05482
454.5935, 45.44884
455.0757, 45.52988
455.5578, 45.71354
456.0399, 45.48967
456.5220, 44.94521
457.0041, 44.44907
457.4862, 44.09847
457.9684, 43.84518
458.4505, 43.67630
458.9326, 43.59615
459.4147, 43.40615
459.8968, 43.01363
460.3789, 42.53921
460.8611, 42.01628
461.3432, 41.48405
461.8253, 41.11706
462.3074, 41.05986
462.7895, 41.20969
463.2716, 41.13264
463.7538, 40.62537
464.2359, 40.17456
464.7180, 39.86272
465.2001, 39.61416
465.6822, 39.36269
466.1643, 39.08938
466.6465, 38.79606
467.1286, 38.47023
467.6107, 38.09170
468.0928, 37.85333
468.5749, 37.93047
469.0570, 37.96130
469.5392, 37.87757
470.0213, 37.67793
470.5034, 37.28734
470.9855, 36.65577
471.4676, 36.07659
471.9497, 36.17213
472.4319, 37.15144
472.9140, 37.88614
473.3961, 38.14229
473.8782, 38.15542
474.3603, 37.96933
474.8424, 37.63588
475.3246, 37.30443
475.8067, 37.03046
476.2888, 36.83149
476.7709, 36.77366
477.2530, 36.88214
477.7351, 36.97034
478.2173, 36.89741
478.6994, 36.78492
479.1815, 36.85932
479.6636, 37.21076
480.1457, 37.44914
480.6278, 37.28710
481.1100, 36.90269
481.5920, 36.61369
482.0742, 36.47672
482.5563, 36.39319
483.0384, 36.25061
483.5205, 36.06073
484.0026, 36.07465
484.4847, 36.59797
484.9669, 36.98148
485.4490, 36.85663
485.9311, 36.43469
486.4132, 36.09437
486.8953, 35.97608
487.3774, 35.95345
487.8596, 35.80770
488.3417, 35.42878
488.8238, 35.23182
489.3059, 35.48303
489.7880, 35.63271
490.2701, 35.34554
490.7523, 34.74223
491.2344, 34.11885
491.7165, 33.64331
492.1986, 33.29926
492.6807, 33.06319
493.1628, 32.98907
493.6450, 32.87546
494.1271, 32.53066
494.6092, 32.24302
495.0913, 32.31850
495.5734, 32.71843
496.0555, 32.98960
496.5377, 32.66171
497.0198, 31.97910
497.5019, 31.62219
497.9840, 31.64590
498.4661, 31.81478
498.9482, 32.19675
499.4304, 32.56143
499.9125, 32.43352
500.3946, 31.55520
500.8767, 30.75888
501.3588, 30.54814
501.8409, 30.66985
502.3231, 30.67356
502.8052, 30.46734
503.2873, 30.20102
503.7694, 30.01597
504.2515, 29.91465
504.7336, 29.77922
505.2158, 29.52508
505.6979, 29.33471
506.1800, 29.24210
506.6621, 29.26391
507.1442, 29.51187
507.6263, 30.00698
508.1085, 30.46788
508.5906, 30.43797
509.0727, 29.78401
509.5548, 29.11918
510.0369, 28.12609
510.5190, 27.44324
511.0012, 27.55843
511.4833, 28.13104
511.9654, 28.49024
512.4475, 28.26869
512.9296, 27.78750
513.4117, 27.67021
513.8939, 27.98416
514.3760, 28.13369
514.8581, 27.89273
515.3402, 27.53907
515.8223, 27.32738
516.3044, 27.23221
516.7866, 27.06797
517.2687, 26.60460
517.7508, 26.11631
518.2329, 26.03088
518.7150, 26.31978
519.1971, 26.53205
519.6793, 26.44054
520.1614, 26.16266
520.6435, 25.93242
521.1256, 25.68347
521.6077, 25.64499
522.0898, 26.14481
522.5720, 26.66931
523.0541, 26.68786
523.5362, 26.24385
524.0183, 25.76559
524.5004, 25.54854
524.9825, 25.57154
525.4647, 25.74876
525.9468, 26.50246
526.4289, 26.78009
526.9110, 26.07678
527.3931, 25.17705
527.8752, 24.70419
528.3574, 24.72999
528.8395, 24.95618
529.3216, 25.15082
529.8037, 25.32250
530.2858, 25.54466
530.7679, 25.87315
531.2501, 26.12018
531.7322, 26.16928
532.2143, 26.11084
532.6964, 26.00954
533.1785, 25.86386
533.6606, 25.75241
534.1428, 25.75422
534.6249, 25.82118
535.1070, 25.81554
535.5891, 25.70806
536.0712, 25.70811
536.5533, 26.07430
537.0355, 26.68975
537.5176, 26.84760
537.9997, 26.19566
538.4818, 25.56235
538.9639, 25.10479
539.4460, 24.82745
539.9282, 24.80560
540.4103, 25.02094
540.8924, 25.26364
541.3745, 25.31652
541.8566, 25.17579
542.3387, 24.97547
542.8209, 24.56982
543.3029, 24.28372
543.7850, 24.33668
544.2672, 24.46827
544.7493, 24.32734
545.2314, 23.83571
545.7135, 23.33106
546.1956, 23.22843
546.6777, 23.48973
547.1599, 23.65784
547.6420, 23.66212
548.1241, 23.67141
548.6062, 23.87074
549.0883, 24.12731
549.5704, 24.22027
550.0526, 24.09318
550.5347, 23.84066
551.0168, 23.35983
551.4989, 22.82400
551.9810, 22.65978
552.4631, 22.96381
552.9453, 23.34367
553.4274, 23.42408
553.9095, 23.20315
554.3916, 23.08960
554.8737, 23.24962
555.3558, 23.30218
555.8380, 22.95053
556.3201, 22.52033
556.8022, 22.45948
557.2843, 22.85899
557.7664, 23.41245
558.2485, 23.80713
558.7307, 24.04352
559.2128, 24.04739
559.6949, 23.60235
560.1770, 23.23388
560.6591, 23.17452
561.1412, 23.25496
561.6234, 23.25136
562.1055, 23.09746
562.5876, 22.97449
563.0697, 23.12185
563.5518, 23.43294
564.0339, 23.50756
564.5161, 23.25339
564.9982, 23.00350
565.4803, 23.01257
565.9624, 23.22571
566.4445, 23.36702
566.9266, 23.39550
567.4088, 23.41129
567.8909, 23.43202
568.3730, 23.46659
568.8551, 23.53767
569.3372, 23.64297
569.8193, 23.75919
570.3015, 23.88856
570.7836, 24.01738
571.2657, 23.86025
571.7478, 22.93187
572.2299, 22.37716
572.7120, 22.62028
573.1942, 23.14071
573.6763, 23.50260
574.1584, 23.61838
574.6405, 23.58876
575.1226, 23.39563
575.6047, 23.11664
576.0869, 23.14456
576.5690, 23.58306
577.0511, 23.88697
577.5332, 23.70991
578.0153, 23.29075
578.4974, 23.00196
578.9796, 22.84783
579.4617, 22.83265
579.9438, 23.15650
580.4259, 23.50275
580.9080, 23.39309
581.3901, 22.87900
581.8723, 22.51760
582.3544, 22.69454
582.8365, 23.21779
583.3186, 23.42588
583.8007, 22.92559
584.2828, 22.71009
584.7650, 23.02999
585.2471, 23.42458
585.7292, 23.63177
586.2113, 23.63909
586.6934, 23.51474
587.1755, 23.26911
587.6577, 22.97976
588.1398, 22.83172
588.6219, 22.83987
589.1040, 22.89039
589.5861, 22.97862
590.0682, 23.07703
590.5504, 23.17181
591.0325, 23.25885
591.5146, 23.30731
591.9967, 23.24441
592.4788, 23.19241
592.9609, 23.31883
593.4431, 23.54676
593.9252, 23.61737
594.4073, 23.42618
594.8894, 23.15701
595.3715, 23.06737
595.8536, 23.19728
596.3358, 23.33163
596.8179, 23.51499
597.3000, 23.65314
597.7821, 23.73999
598.2642, 23.75145
598.7463, 23.60057
599.2285, 23.26791
599.7106, 22.97244
600.1927, 23.06392
600.6748, 23.52114
601.1569, 23.70495
601.6390, 23.45195
602.1212, 23.21516
602.6033, 23.30085
603.0854, 23.55384
603.5675, 23.74944
604.0496, 23.85476
604.5317, 23.92405
605.0139, 23.97624
605.4960, 24.01371
605.9781, 24.05480
606.4602, 24.09514
606.9423, 24.06423
607.4244, 23.88470
607.9066, 23.62195
608.3887, 23.57508
608.8708, 23.94493
609.3529, 24.25245
609.8350, 24.51269
610.3171, 24.68067
610.7993, 24.68008
611.2814, 24.55186
611.7635, 24.43806
612.2456, 24.45318
612.7277, 24.49594
613.2098, 24.27764
613.6920, 23.75519
614.1741, 23.49163
614.6562, 23.74744
615.1383, 24.14343
615.6204, 24.25454
616.1025, 24.14112
616.5847, 24.18066
617.0668, 24.68937
617.5489, 25.13620
618.0310, 25.13198
618.5131, 24.82751
618.9952, 24.48282
619.4774, 24.18466
619.9595, 24.01198
620.4416, 24.07862
620.9237, 24.40489
621.4058, 24.66836
621.8879, 24.96535
622.3701, 25.06808
622.8522, 24.70897
623.3343, 24.26081
623.8164, 24.14719
624.2985, 24.43100
624.7806, 24.77069
625.2628, 24.83336
625.7448, 24.74810
626.2269, 24.94809
626.7090, 25.48321
627.1912, 25.76268
627.6733, 25.36316
628.1554, 24.70022
628.6375, 24.63929
629.1196, 25.32743
629.6017, 25.78647
630.0839, 25.74557
630.5660, 25.54645
631.0481, 25.25095
631.5302, 25.00585
632.0123, 25.18451
632.4944, 25.95887
632.9766, 26.87058
633.4587, 27.04897
633.9408, 26.28014
634.4229, 25.88611
634.9050, 26.07339
635.3871, 26.40531
635.8693, 26.73704
636.3514, 27.05988
636.8335, 27.36404
637.3156, 27.64746
637.7977, 27.90539
638.2798, 28.14941
638.7620, 28.35910
639.2441, 28.48260
639.7262, 28.51643
640.2083, 28.52979
640.6904, 28.55645
641.1725, 28.60825
641.6547, 28.72705
642.1368, 28.99150
642.6189, 29.20730
643.1010, 29.35647
643.5831, 29.47283
644.0652, 29.44838
644.5474, 29.41517
645.0295, 29.72226
645.5116, 30.60157
645.9937, 31.66134
646.4758, 32.22041
646.9579, 32.28360
647.4401, 32.44358
647.9222, 32.81108
648.4043, 33.23298
648.8864, 33.52790
649.3685, 33.78598
649.8506, 34.29494
650.3328, 35.29160
650.8149, 36.20815
651.2970, 36.61143
651.7791, 36.92786
652.2612, 37.76707
652.7433, 39.11594
653.2255, 40.40473
653.7076, 41.18347
654.1897, 41.63475
654.6718, 42.47455
655.1539, 43.88695
655.6360, 45.23590
656.1182, 46.32483
656.6003, 47.42597
657.0824, 48.64561
657.5645, 50.00257
658.0466, 51.52779
658.5287, 53.32829
659.0109, 55.15734
659.4930, 56.81055
659.9751, 58.30188
660.4572, 59.61202
660.9393, 60.72305
661.4214, 61.97642
661.9036, 63.71989
662.3857, 65.89873
662.8678, 67.88046
663.3499, 69.47439
663.8320, 71.12063
664.3141, 72.96325
664.7963, 74.79917
665.2784, 76.62324
665.7605, 78.31380
666.2426, 79.55070
666.7247, 80.11050
667.2068, 80.16041
667.6890, 80.03786
668.1711, 79.73544
668.6532, 78.96461
669.1353, 77.62430
669.6174, 75.89606
670.0995, 73.88630
670.5817, 71.60295
671.0638, 69.30743
671.5459, 67.00900
672.0280, 64.69331
672.5101, 62.29370
672.9922, 59.93441
673.4744, 57.76972
673.9565, 55.79576
674.4386, 53.84712
674.9207, 51.76924
675.4028, 49.64864
675.8849, 47.74221
676.3671, 46.04929
676.8492, 44.58615
677.3313, 43.45355
677.8134, 42.43876
678.2955, 41.33264
678.7776, 40.19012
679.2598, 39.22546
679.7419, 38.61666
680.2240, 38.03123
680.7061, 37.13639
681.1882, 36.19200
681.6703, 35.70403
682.1525, 35.70350
682.6346, 35.66782
683.1167, 35.14927
683.5988, 34.26489
684.0809, 33.57120
684.5630, 33.04603
685.0452, 32.76353
685.5273, 32.99714
686.0094, 33.24797
686.4915, 33.23951
686.9736, 33.00787
687.4557, 32.68764
687.9379, 32.23902
688.4200, 31.87876
688.9021, 31.93355
689.3842, 32.20327
689.8663, 32.14663
690.3484, 31.67576
690.8306, 31.28425
691.3127, 31.40619
691.7948, 31.89215
692.2769, 31.97687
692.7590, 31.27249
693.2411, 30.78266
693.7233, 30.66981
694.2054, 30.66675
694.6875, 30.62859
695.1696, 30.56400
695.6517, 30.54443
696.1339, 30.61997
696.6160, 30.69233
697.0981, 30.64194
697.5802, 30.49632
698.0623, 30.36322
698.5444, 30.26370
699.0266, 30.09555
699.5087, 29.74153
699.9908, 29.29093
700.4729, 29.09121
700.9550, 29.30155
701.4371, 29.52871
701.9193, 29.84263
702.4014, 30.10275
702.8835, 30.25728
703.3656, 30.28427
703.8477, 30.12445
704.3298, 29.73638
704.8120, 29.31143
705.2941, 29.09605
705.7762, 29.05532
706.2583, 29.03720
706.7404, 29.03939
707.2225, 28.97585
707.7046, 28.76053
708.1867, 28.47155
708.6688, 28.30392
709.1509, 28.26334
709.6331, 28.32032
710.1152, 28.70532
710.5973, 28.96093
711.0794, 28.73989
711.5615, 28.21624
712.0436, 27.68747
712.5258, 27.26345
713.0079, 26.95344
713.4900, 26.79670
713.9721, 26.76892
714.4542, 26.69255
714.9363, 26.52567
715.4185, 26.58852
715.9006, 27.22259
716.3827, 27.96589
716.8648, 27.94186
717.3469, 27.00106
717.8290, 26.29153
718.3112, 25.97888
718.7933, 25.84413
719.2754, 25.90699
719.7575, 26.02542
720.2396, 25.97787
720.7217, 25.72662
721.2039, 25.47597
721.6860, 25.43810
722.1681, 25.55953
722.6502, 25.66488
723.1323, 25.77218
723.6144, 25.68700
724.0966, 25.21953
724.5787, 24.72781
725.0608, 24.68391
725.5429, 25.07731
726.0250, 25.35640
726.5071, 25.46982
726.9893, 25.49310
727.4714, 25.32418
727.9535, 25.15602
728.4356, 25.27577
728.9177, 25.65732
729.3998, 25.97192
729.8820, 25.96225
730.3641, 25.75990
730.8462, 25.63106
731.3283, 25.57396
731.8104, 25.69987
732.2925, 26.14199
732.7747, 26.50742
733.2568, 26.41171
733.7389, 25.95003
734.2210, 25.65903
734.7031, 25.62039
735.1852, 25.62593
735.6674, 25.63601
736.1495, 25.67220
736.6316, 25.78282
737.1137, 25.93479
737.5958, 26.05466
738.0779, 26.11144
738.5601, 26.07619
739.0422, 25.82526
739.5243, 25.40004
740.0064, 25.23328
740.4885, 25.41156
740.9706, 25.61398
741.4528, 25.68293
741.9349, 25.64845
742.4170, 25.55643
742.8991, 25.36720
743.3812, 25.26082
743.8633, 25.32587
744.3455, 25.40030
744.8276, 25.43124
745.3097, 25.40289
745.7918, 25.26564
746.2739, 25.02111
746.7560, 24.80577
747.2382, 24.71435
747.7203, 24.76167
748.2024, 25.08843
748.6845, 25.70657
749.1666, 26.11241
749.6487, 26.11249
750.1309, 25.89309
750.6130, 25.60357
751.0951, 25.22955
751.5772, 25.14037
752.0593, 25.70851
752.5414, 26.05358
753.0236, 25.72911
753.5057, 25.28336
753.9878, 25.26588
754.4699, 25.63445
754.9520, 25.96106
755.4341, 26.01427
755.9163, 25.89020
756.3984, 25.62878
756.8805, 25.29075
757.3626, 25.18710
757.8447, 25.38130
758.3268, 25.59681
758.8090, 25.64374
759.2911, 25.55990
759.7732, 25.46162
760.2553, 25.19357
760.7374, 25.20387
761.2195, 25.79554
761.7017, 26.32666
762.1838, 26.50473
762.6659, 26.41867
763.1480, 26.19509
763.6301, 25.86180
764.1122, 25.55795
764.5944, 25.31909
765.0765, 25.20977
765.5586, 25.43937
766.0407, 25.93391
766.5228, 26.26694
767.0049, 26.27111
767.4871, 26.10450
767.9692, 25.94664
768.4513, 25.78974
768.9334, 25.83561
769.4155, 26.33756
769.8976, 26.62550
770.3798, 26.31897
770.8619, 25.93774
771.3440, 25.91585
771.8261, 26.20848
772.3082, 26.46301
772.7903, 26.52376
773.2725, 26.55516
773.7546, 26.68646
774.2367, 26.85523
774.7188, 26.96661
775.2009, 27.00955
775.6830, 27.02468
776.1652, 27.04196
776.6473, 27.03361
777.1294, 26.92154
777.6115, 26.68727
778.0936, 26.45902
778.5757, 26.18441
779.0579, 26.02863
779.5400, 26.12804
780.0221, 26.38629
780.5042, 26.67991
780.9863, 27.05186
781.4684, 27.23702
781.9506, 27.04148
782.4327, 26.77022
782.9148, 26.53339
783.3969, 26.38675
783.8790, 26.45490
784.3611, 26.73834
784.8433, 27.00741
785.3254, 27.04291
785.8075, 26.90763
786.2896, 26.75333
786.7717, 26.57876
787.2538, 26.49835
787.7360, 26.52702
788.2181, 26.70844
788.7002, 27.14905
789.1823, 27.79835
789.6644, 28.21003
790.1465, 28.36994
790.6286, 28.32673
791.1107, 27.86711
791.5928, 27.40550
792.0750, 27.21277
792.5571, 27.22744
793.0392, 27.27570
793.5213, 27.29623
794.0034, 27.33747
794.4855, 27.44582
794.9677, 27.60228
795.4498, 27.83209
795.9319, 28.10149
796.4140, 28.16813
796.8961, 27.91993
797.3782, 27.56059
797.8604, 27.37957
798.3425, 27.38732
798.8246, 27.27843
799.3067, 26.90717
799.7888, 26.68198
800.2709, 26.80096
800.7531, 27.02795
801.2352, 27.20082
801.7173, 27.32848
802.1994, 27.48499
802.6815, 27.69949
803.1636, 27.93215
803.6458, 28.23014
804.1279, 28.49055
804.6100, 28.58447
805.0921, 28.51940
805.5742, 28.34123
806.0563, 28.06515
806.5385, 27.82717
807.0206, 27.91184
807.5027, 28.28545
807.9848, 28.45642
808.4669, 28.37135
808.9490, 28.25645
809.4312, 28.20239
809.9133, 28.18311
810.3954, 28.17118
810.8775, 28.17604
811.3596, 28.11792
811.8417, 27.88159
812.3239, 27.72993
812.8060, 27.77065
813.2881, 27.90214
813.7702, 28.05501
814.2523, 28.20714
814.7344, 28.33864
815.2166, 28.45396
815.6987, 28.51426
816.1808, 28.41097
816.6629, 28.23807
817.1450, 28.22916
817.6271, 28.39424
818.1093, 28.56665
818.5914, 28.65589
819.0735, 28.67032
819.5556, 28.62874
820.0377, 28.53559
820.5198, 28.32260
821.0020, 27.78955
821.4841, 27.51880
821.9662, 28.01884
822.4483, 28.68434
822.9304, 28.75848
823.4125, 28.26209
823.8947, 28.01093
824.3768, 28.48529
824.8589, 28.85295
825.3410, 28.63649
825.8231, 28.20011
826.3052, 27.92061
826.7874, 27.83371
827.2695, 27.80055
827.7516, 27.73114
828.2337, 27.73988
828.7158, 28.10582
829.1979, 28.70171
829.6801, 28.94654
830.1622, 28.78697
830.6443, 28.61289
831.1264, 28.61414
831.6085, 28.70939
832.0906, 28.76113
832.5728, 28.75237
833.0549, 28.82171
833.5370, 29.03687
834.0191, 29.23197
834.5012, 29.43790
834.9833, 29.55615
835.4655, 29.49260
835.9476, 29.26296
836.4297, 28.94662
836.9118, 28.33854
837.3939, 28.01348
837.8760, 28.61817
838.3582, 29.45203
838.8403, 29.66150
839.3224, 29.31654
839.8045, 28.92999
840.2866, 28.74329
840.7687, 28.67426
841.2509, 28.59273
841.7330, 28.52568
842.2151, 28.69750
842.6972, 29.13409
843.1793, 29.40526
843.6614, 29.32049
844.1436, 29.10830
844.6257, 29.02539
845.1078, 29.06826
845.5899, 29.10176
846.0720, 29.11123
846.5541, 29.13199
847.0363, 29.16729
847.5184, 29.21391
848.0005, 29.26947
848.4826, 29.33491
848.9647, 29.42432
849.4468, 29.55832
849.9290, 29.63944
850.4111, 29.62402
850.8932, 29.52325
851.3753, 29.25737
851.8574, 28.93255
852.3395, 28.84134
852.8217, 29.04248
853.3038, 29.19846
853.7859, 28.91748
854.2680, 28.39031
854.7501, 28.26547
855.2322, 28.54211
855.7144, 28.71776
856.1965, 28.66932
856.6786, 28.61267
857.1607, 28.72172
857.6428, 28.93509
858.1249, 29.06401
858.6071, 29.15724
859.0892, 29.05433
859.5713, 28.46664
860.0534, 28.02482
860.5355, 28.11101
861.0176, 28.37161
861.4998, 28.28964
861.9819, 27.83896
862.4640, 27.64487
862.9461, 28.29108
863.4282, 28.91734
863.9103, 28.84573
864.3925, 28.43580
864.8746, 28.10688
865.3567, 27.95859
865.8388, 28.09168
866.3209, 28.60583
866.8030, 29.10143
867.2852, 28.78176
867.7673, 27.85535
868.2494, 27.52657
868.7315, 27.88569
869.2136, 28.10412
869.6957, 27.80175
870.1779, 27.34488
870.6600, 27.24067
871.1421, 27.49314
871.6242, 27.56360
872.1063, 27.24172
872.5884, 27.10826
873.0705, 27.52165
873.5526, 27.90479
874.0347, 27.87361
874.5168, 27.54977
874.9990, 27.22299
875.4811, 26.88865
875.9632, 26.71462
876.4453, 26.93805
876.9274, 27.17230
877.4095, 27.10971
877.8917, 26.86273
878.3738, 26.58735
878.8559, 26.35534
879.3380, 26.31004
879.8201, 26.70982
880.3022, 27.18687
880.7844, 27.01234
881.2665, 26.38575
881.7486, 26.07991
882.2307, 26.20217
882.7128, 26.32450
883.1949, 26.16803
883.6771, 25.88588
884.1592, 25.80390
884.6413, 25.94952
885.1234, 26.10059
885.6055, 26.30134
886.0876, 26.39675
886.5698, 26.32041
887.0519, 26.12884
887.5340, 25.85312
888.0161, 25.50039
888.4982, 25.17323
888.9803, 24.82226
889.4625, 24.57109
889.9446, 24.49018
890.4267, 24.46795
890.9088, 24.42137
891.3909, 24.37748
891.8730, 24.39537
892.3552, 24.49083
892.8373, 24.65893
893.3194, 25.06943
893.8015, 25.40657
894.2836, 25.24251
894.7657, 24.76703
895.2479, 24.32773
895.7300, 24.03256
896.2121, 23.96563
896.6942, 24.24066
897.1763, 24.60801
897.6584, 24.46753
898.1406, 23.89104
898.6227, 23.62528
899.1048, 23.75741
899.5869, 23.97953
900.0690, 24.18670
900.5511, 24.28994
901.0333, 24.10951
901.5154, 23.61899
901.9975, 23.46042
902.4796, 23.88120
902.9617, 24.17421
903.4438, 24.15868
903.9260, 24.02346
904.4081, 23.84976
904.8902, 23.66230
905.3723, 23.53965
905.8544, 23.55174
906.3365, 23.45300
906.8187, 23.06697
907.3008, 22.67775
907.7829, 22.40345
908.2650, 22.26171
908.7471, 22.26043
909.2292, 22.39906
909.7114, 22.69422
910.1935, 23.34996
910.6756, 23.85398
911.1577, 23.43372
911.6398, 22.59284
912.1219, 22.30543
912.6041, 22.57388
913.0862, 22.83692
913.5683, 22.82930
914.0504, 22.71778
914.5325, 22.71827
915.0146, 22.81263
915.4968, 22.92470
915.9789, 23.05953
916.4610, 23.04212
916.9431, 22.79598
917.4252, 22.54028
917.9073, 22.46275
918.3895, 22.51134
918.8716, 22.49956
919.3537, 22.42969
919.8358, 22.28568
920.3179, 21.96859
920.8000, 21.71936
921.2822, 21.63493
921.7643, 21.66497
922.2464, 21.80677
922.7285, 22.04923
923.2106, 22.18656
923.6927, 22.06245
924.1749, 22.00298
924.6570, 22.14504
925.1391, 22.34473
925.6212, 22.55356
926.1033, 22.71251
926.5854, 22.70127
927.0676, 22.48016
927.5497, 22.26199
928.0318, 22.29339
928.5139, 22.30227
928.9960, 21.86521
929.4781, 21.24869
929.9603, 20.95478
930.4424, 21.05846
930.9245, 21.41277
931.4066, 21.96295
931.8887, 22.48670
932.3708, 22.60617
932.8530, 22.39213
933.3351, 22.08883
933.8172, 21.72026
934.2993, 21.41720
934.7814, 21.22725
935.2635, 21.16265
935.7457, 21.27607
936.2278, 21.50327
936.7099, 21.37644
937.1920, 20.69455
937.6741, 20.61406
938.1563, 21.60254
938.6384, 22.44964
939.1205, 22.43353
939.6026, 21.91899
940.0847, 21.51765
940.5668, 21.22383
941.0490, 21.08102
941.5311, 21.20873
942.0132, 21.31760
942.4953, 21.29341
942.9774, 21.28657
943.4595, 21.41638
943.9417, 21.65196
944.4238, 21.96013
944.9059, 22.45658
945.3880, 22.55465
945.8701, 21.58603
946.3522, 20.64070
946.8344, 20.54682
947.3165, 20.86805
947.7986, 20.98924
948.2807, 20.84275
948.7628, 20.71253
949.2449, 20.73812
949.7271, 20.86318
950.2092, 21.14238
950.6913, 21.42396
951.1734, 21.36728
951.6555, 21.09380
952.1376, 21.10735
952.6198, 21.55161
953.1019, 21.98359
953.5840, 21.93657
954.0661, 21.63013
954.5482, 21.60712
955.0303, 21.82670
955.5124, 22.06098
955.9945, 22.27733
956.4766, 22.29910
956.9587, 21.99831
957.4409, 21.64578
957.9230, 21.73449
958.4051, 22.25025
958.8872, 22.27978
959.3693, 21.64848
959.8514, 21.30205
960.3336, 21.53638
960.8157, 21.89121
961.2978, 22.05668
961.7799, 22.06689
962.2620, 22.00255
962.7441, 21.79941
963.2263, 21.72205
963.7084, 21.88480
964.1905, 22.01908
964.6726, 21.97937
965.1547, 21.94312
965.6368, 22.11841
966.1190, 22.44341
966.6011, 22.62273
967.0832, 22.57337
967.5653, 22.47384
968.0474, 22.26635
968.5295, 22.12174
969.0117, 22.21349
969.4938, 22.38502
969.9759, 22.41545
970.4580, 22.29210
970.9401, 22.18304
971.4222, 22.23233
971.9044, 22.20012
972.3865, 21.75326
972.8686, 21.29089
973.3507, 21.30768
973.8328, 21.65593
974.3149, 21.96353
974.7971, 22.10537
975.2792, 22.10210
975.7613, 21.87309
976.2434, 21.61393
976.7255, 21.63849
977.2076, 21.81577
977.6898, 21.83419
978.1719, 21.69794
978.6540, 21.64686
979.1361, 21.79443
979.6182, 22.00661
980.1003, 22.11352
980.5825, 22.15236
981.0646, 22.24151
981.5467, 22.37726
982.0288, 22.57488
982.5109, 22.83588
982.9930, 22.91134
983.4752, 22.60090
983.9573, 22.18896
984.4394, 22.27838
984.9215, 22.87421
985.4036, 23.21039
985.8857, 23.29096
986.3679, 22.96644
986.8500, 21.97680
987.3321, 21.29937
987.8142, 21.83716
988.2963, 23.19453
988.7784, 24.12466
989.2606, 24.49315
989.7427, 24.91338
990.2248, 25.54388
990.7069, 25.89931
991.1890, 25.55611
991.6711, 25.18059
992.1533, 25.47310
992.6354, 26.31510
993.1175, 27.00330
993.5996, 27.51960
994.0817, 27.91299
994.5638, 28.05087
995.0460, 28.22857
995.5281, 28.64965
996.0102, 29.10359
996.4923, 29.30584
996.9744, 29.29545
997.4565, 29.43180
997.9387, 29.75541
998.4208, 30.27364
998.9029, 31.29956
999.3850, 32.19321
999.8671, 32.36226
1000.349, 32.23759
1000.831, 32.44932
1001.313, 33.06536
1001.796, 33.72996
1002.278, 34.28102
1002.760, 34.86884
1003.242, 35.64460
1003.724, 36.43183
1004.206, 37.11098
1004.688, 37.66151
1005.170, 38.08177
1005.653, 38.37512
1006.135, 38.57835
1006.617, 38.78869
1007.099, 38.81989
1007.581, 38.42226
1008.063, 37.78393
1008.545, 37.22129
1009.027, 36.66270
1009.509, 35.74333
1009.992, 34.37191
1010.474, 33.01117
1010.956, 32.04188
1011.438, 31.35830
1011.920, 31.00437
1012.402, 30.75530
1012.884, 30.02305
1013.366, 28.82747
1013.849, 27.55704
1014.331, 26.38540
1014.813, 25.43465
1015.295, 24.90434
1015.777, 24.64291
1016.259, 24.25073
1016.741, 23.77716
1017.223, 23.48926
1017.705, 23.41158
1018.188, 23.32111
1018.670, 23.09946
1019.152, 22.89297
1019.634, 22.97220
1020.116, 23.22116
1020.598, 22.99475
1021.080, 22.31610
1021.562, 21.77836
1022.044, 21.48437
1022.527, 21.34466
1023.009, 21.32904
1023.491, 21.33392
1023.973, 21.18600
1024.455, 20.89405
1024.937, 20.55562
1025.419, 20.12913
1025.901, 20.11005
1026.384, 20.72858
1026.866, 21.08746
1027.348, 20.50982
1027.830, 19.59461
1028.312, 19.49861
1028.794, 20.26664
1029.276, 20.72968
1029.758, 20.84917
1030.240, 20.78406
1030.723, 20.49210
1031.205, 20.18383
1031.687, 19.96855
1032.169, 19.85858
1032.651, 19.89609
1033.133, 20.10662
1033.615, 20.24703
1034.097, 20.29232
1034.579, 20.32878
1035.062, 20.44172
1035.544, 20.43545
1036.026, 20.06916
1036.508, 19.56317
1036.990, 19.41397
1037.472, 19.71773
1037.954, 19.83349
1038.436, 19.55610
1038.919, 19.42060
1039.401, 19.61976
1039.883, 19.87596
1040.365, 20.04294
1040.847, 20.13280
1041.329, 20.14170
1041.811, 20.02690
1042.293, 20.05900
1042.776, 20.40170
1043.258, 20.66919
1043.740, 20.75295
1044.222, 20.77851
1044.704, 20.88339
1045.186, 20.96855
1045.668, 20.76583
1046.150, 20.17615
1046.632, 19.89992
1047.115, 20.34837
1047.597, 20.65235
1048.079, 20.38670
1048.561, 20.11672
1049.043, 20.37222
1049.525, 20.85234
1050.007, 20.92137
1050.489, 20.46418
1050.971, 20.14584
1051.454, 20.10920
1051.936, 20.20807
1052.418, 20.57749
1052.900, 20.89559
1053.382, 20.88198
1053.864, 20.66998
1054.346, 20.49749
1054.828, 20.39692
1055.311, 20.37918
1055.793, 20.45042
1056.275, 20.60038
1056.757, 20.95853
1057.239, 21.26549
1057.721, 21.27922
1058.203, 21.12279
1058.685, 21.00327
1059.167, 20.95620
1059.650, 20.98490
1060.132, 21.22683
1060.614, 21.36072
1061.096, 21.11690
1061.578, 20.86411
1062.060, 20.99500
1062.542, 21.26240
1063.024, 21.15561
1063.506, 20.63603
1063.989, 20.31918
1064.471, 20.57073
1064.953, 20.86107
1065.435, 20.97340
1065.917, 21.04112
1066.399, 21.12976
1066.881, 21.26144
1067.363, 21.48521
1067.846, 21.78859
1068.328, 22.03820
1068.810, 22.20196
1069.292, 22.27244
1069.774, 22.30010
1070.256, 22.17883
1070.738, 21.62601
1071.220, 20.98893
1071.703, 20.83993
1072.185, 21.15583
1072.667, 21.28783
1073.149, 20.86381
1073.631, 20.53485
1074.113, 20.67127
1074.595, 20.94141
1075.077, 21.25430
1075.559, 21.46015
1076.042, 21.28676
1076.524, 20.81520
1077.006, 20.53269
1077.488, 20.70215
1077.970, 20.75984
1078.452, 20.23482
1078.934, 19.73786
1079.416, 19.70539
1079.898, 19.91864
1080.380, 20.17158
1080.863, 20.39582
1081.345, 20.51693
1081.827, 20.51513
1082.309, 20.39056
1082.791, 19.93603
1083.273, 19.59859
1083.755, 19.74319
1084.237, 20.07723
1084.720, 20.35529
1085.202, 20.52540
1085.684, 20.50533
1086.166, 20.23537
1086.648, 20.16645
1087.130, 20.73485
1087.612, 21.24619
1088.094, 21.31593
1088.577, 21.18711
1089.059, 21.08359
1089.541, 20.97402
1090.023, 20.70091
1090.505, 20.22952
1090.987, 19.88396
1091.469, 19.84643
1091.951, 19.87571
1092.433, 19.94964
1092.916, 19.97228
1093.398, 19.81978
1093.880, 19.58609
1094.362, 19.44787
1094.844, 19.42077
1095.326, 19.33580
1095.808, 19.02479
1096.290, 18.81964
1096.772, 18.98278
1097.255, 19.11998
1097.737, 18.85857
1098.219, 18.49254
1098.701, 18.50708
1099.183, 18.86056
1099.665, 18.97155
1100.147, 18.58095
1100.629, 18.20327
1101.112, 17.77178
1101.594, 17.62056
1102.076, 18.32871
1102.558, 19.08325
1103.040, 18.87603
1103.522, 17.93684
1104.004, 17.31426
1104.486, 17.17936
1104.969, 17.29715
1105.451, 17.89548
1105.933, 18.39155
1106.415, 18.59095
1106.897, 18.60400
1107.379, 18.41892
1107.861, 18.14423
1108.343, 18.04297
1108.825, 18.17596
1109.307, 18.23790
1109.790, 18.15729
1110.272, 18.06758
1110.754, 17.91558
1111.236, 17.84607
1111.718, 18.06604
1112.200, 18.36762
1112.682, 18.40987
1113.164, 18.18089
1113.647, 17.86414
1114.129, 17.23711
1114.611, 16.89557
1115.093, 16.96250
1115.575, 17.21688
1116.057, 17.76386
1116.539, 18.26795
1117.021, 18.27561
1117.504, 17.86814
1117.986, 17.65701
1118.468, 17.77873
1118.950, 17.76673
1119.432, 17.53523
1119.914, 17.33599
1120.396, 17.26049
1120.878, 17.21988
1121.360, 17.13199
1121.843, 17.02362
1122.325, 16.96672
1122.807, 16.95086
1123.289, 17.08437
1123.771, 17.47493
1124.253, 17.62721
1124.735, 17.37081
1125.217, 17.04567
1125.699, 16.84025
1126.182, 16.75490
1126.664, 16.81049
1127.146, 16.99680
1127.628, 17.14493
1128.110, 17.26648
1128.592, 17.18068
1129.074, 16.81141
1129.556, 16.68594
1130.039, 17.09102
1130.521, 17.54731
1131.003, 17.48065
1131.485, 17.06622
1131.967, 16.91028
1132.449, 17.00275
1132.931, 17.23347
1133.413, 17.58606
1133.896, 17.67974
1134.378, 17.39890
1134.860, 17.04002
1135.342, 16.82666
1135.824, 16.70577
1136.306, 16.52632
1136.788, 16.36316
1137.270, 16.61048
1137.752, 17.16138
1138.234, 17.46092
1138.717, 17.43727
1139.199, 17.42651
1139.681, 17.60197
1140.163, 17.69348
1140.645, 17.29067
1141.127, 16.70355
1141.609, 16.49835
1142.091, 16.55112
1142.574, 16.62711
1143.056, 16.69437
1143.538, 16.75239
1144.020, 16.80862
1144.502, 16.93501
1144.984, 17.25881
1145.466, 17.49048
1145.948, 17.14401
1146.431, 16.67853
1146.913, 16.76337
1147.395, 17.13325
1147.877, 17.16888
1148.359, 16.88770
1148.841, 16.91209
1149.323, 17.58890
1149.805, 18.06824
1150.287, 17.60258
1150.770, 16.98834
1151.252, 16.72016
1151.734, 16.67366
1152.216, 16.83483
1152.698, 17.04732
1153.180, 16.89997
1153.662, 16.31226
1154.144, 16.15090
1154.626, 17.21112
1155.109, 18.02450
1155.591, 17.93375
1156.073, 17.64103
1156.555, 17.61120
1157.037, 17.62063
1157.519, 17.27356
1158.001, 16.62582
1158.483, 16.20351
1158.966, 16.07791
1159.448, 16.12412
1159.930, 16.51114
1160.412, 16.82687
1160.894, 16.94224
1161.376, 16.97340
1161.858, 16.97581
1162.340, 16.97161
1162.822, 17.02942
1163.305, 17.17095
1163.787, 17.11063
1164.269, 16.68394
1164.751, 16.57309
1165.233, 16.99705
1165.715, 17.35974
1166.197, 17.37095
1166.679, 17.21951
1167.161, 17.11600
1167.644, 17.05024
1168.126, 16.98774
1168.608, 16.93015
1169.090, 16.77607
1169.572, 16.51357
1170.054, 16.51463
1170.536, 16.88739
1171.018, 17.21999
1171.500, 17.22160
1171.983, 17.07605
1172.465, 17.02634
1172.947, 17.09004
1173.429, 17.48947
1173.911, 18.04965
1174.393, 17.97934
1174.875, 17.33069
1175.357, 16.89229
1175.840, 16.95260
1176.322, 17.17594
1176.804, 17.35285
1177.286, 17.39958
1177.768, 17.04920
1178.250, 16.62218
1178.732, 16.63468
1179.214, 16.92021
1179.697, 17.13477
1180.179, 17.21246
1180.661, 17.19168
1181.143, 17.07331
1181.625, 16.98406
1182.107, 17.14222
1182.589, 17.18464
1183.071, 16.56252
1183.553, 15.99010
1184.036, 16.32668
1184.518, 17.15634
1185.000, 17.63724
1185.482, 17.65775
1185.964, 17.62890
1186.446, 17.64178
1186.928, 17.61614
1187.410, 17.42933
1187.892, 17.33795
1188.375, 17.52870
1188.857, 17.79624
1189.339, 18.00996
1189.821, 18.13523
1190.303, 18.05598
1190.785, 17.74191
1191.267, 17.38092
1191.749, 16.86535
1192.232, 16.64299
1192.714, 16.90313
1193.196, 17.09595
1193.678, 16.90035
1194.160, 16.64503
1194.642, 16.74051
1195.124, 17.10141
1195.606, 17.44141
1196.089, 17.75333
1196.571, 17.74448
1197.053, 17.42661
1197.535, 17.38450
1198.017, 17.74076
1198.499, 17.90559
1198.981, 17.49786
1199.463, 16.94741
1199.945, 16.85491
1200.427, 16.99871
1200.910, 16.93669
1201.392, 16.76010
1201.874, 16.62682
1202.356, 16.57699
1202.838, 16.72191
1203.320, 17.04113
1203.802, 17.17392
1204.284, 16.80100
1204.767, 16.51594
1205.249, 16.94654
1205.731, 17.45978
1206.213, 17.51861
1206.695, 17.35873
1207.177, 17.30657
1207.659, 17.30894
1208.141, 17.06011
1208.624, 16.46960
1209.106, 16.20102
1209.588, 16.64870
1210.070, 17.08044
1210.552, 17.41483
1211.034, 17.61745
1211.516, 17.59885
1211.998, 17.50298
1212.480, 17.47827
1212.963, 17.49319
1213.445, 17.42641
1213.927, 17.26355
1214.409, 17.06665
1214.891, 16.77748
1215.373, 16.70865
1215.855, 16.95766
1216.337, 17.26339
1216.819, 17.50971
1217.302, 17.62336
1217.784, 17.48792
1218.266, 17.19201
1218.748, 16.97300
1219.230, 16.84159
1219.712, 16.89028
1220.194, 17.08654
1220.676, 17.28288
1221.159, 17.42424
1221.641, 17.40228
1222.123, 17.15235
1222.605, 16.87959
1223.087, 16.78343
1223.569, 16.77989
1224.051, 16.78777
1224.533, 16.81800
1225.016, 16.92268
1225.498, 17.04517
1225.980, 17.08540
1226.462, 17.02552
1226.944, 16.87416
1227.426, 16.55178
1227.908, 16.38519
1228.390, 16.59715
1228.872, 16.84243
1229.354, 16.82719
1229.837, 16.93636
1230.319, 17.81919
1230.801, 18.85519
1231.283, 18.79997
1231.765, 17.70160
1232.247, 17.26901
1232.729, 17.82355
1233.211, 18.01114
1233.694, 17.59744
1234.176, 17.49869
1234.658, 18.07262
1235.140, 18.65475
1235.622, 18.76532
1236.104, 18.60882
1236.586, 18.56600
1237.068, 18.54064
1237.551, 17.93746
1238.033, 16.97834
1238.515, 16.77135
1238.997, 17.24259
1239.479, 17.46816
1239.961, 17.19900
1240.443, 16.82123
1240.925, 16.55394
1241.407, 16.39125
1241.890, 16.26711
1242.372, 16.30686
1242.854, 16.80689
1243.336, 17.40727
1243.818, 17.67502
1244.300, 17.67893
1244.782, 17.64575
1245.264, 17.61629
1245.746, 17.53741
1246.229, 17.29968
1246.711, 17.18953
1247.193, 17.38081
1247.675, 17.53590
1248.157, 17.51061
1248.639, 17.44809
1249.121, 17.44178
1249.603, 17.47103
1250.085, 17.51100
1250.568, 17.55590
1251.050, 17.47589
1251.532, 17.24372
1252.014, 17.20611
1252.496, 17.39578
1252.978, 17.62743
1253.460, 17.84417
1253.942, 17.85655
1254.425, 17.51846
1254.907, 17.08418
1255.389, 16.91034
1255.871, 16.88493
1256.353, 16.73660
1256.835, 16.61580
1257.317, 16.89951
1257.799, 17.43450
1258.281, 17.82304
1258.764, 17.97406
1259.246, 17.98359
1259.728, 17.86878
1260.210, 17.70469
1260.692, 17.49148
1261.174, 17.28327
1261.656, 16.95370
1262.138, 16.79257
1262.620, 17.23872
1263.103, 17.87137
1263.585, 17.95812
1264.067, 17.57719
1264.549, 17.42010
1265.031, 17.59701
1265.513, 17.60436
1265.995, 17.38662
1266.477, 17.23265
1266.960, 17.20510
1267.442, 17.28960
1267.924, 17.49792
1268.406, 17.62633
1268.888, 17.38849
1269.370, 16.97902
1269.852, 16.81561
1270.334, 16.85266
1270.817, 17.01094
1271.299, 17.25822
1271.781, 17.67221
1272.263, 18.11787
1272.745, 18.00045
1273.227, 17.09060
1273.709, 16.38015
1274.191, 16.64394
1274.673, 16.99660
1275.156, 17.00236
1275.638, 16.93997
1276.120, 16.98228
1276.602, 17.06917
1277.084, 17.10466
1277.566, 17.12123
1278.048, 17.24566
1278.530, 17.50156
1279.012, 17.63766
1279.495, 17.60089
1279.977, 17.64669
1280.459, 17.82780
1280.941, 17.94214
1281.423, 17.90644
1281.905, 17.88598
1282.387, 18.02020
1282.869, 18.20030
1283.352, 18.25678
1283.834, 18.21009
1284.316, 18.10208
1284.798, 17.93352
##END=



