##NAMES=Wherryite
##RRUFFID=R110089
##IDEAL CHEMISTRY=Pb^2+^_7_Cu^2+^_2_(S^6+^O_4_)_4_(SiO_4_)_2_(OH)_2_
##LOCALITY=Mammoth-St Anthony mine, Tiger, Pinal County, Arizona, USA
##OWNER=RRUFF
##SOURCE=Brent Thorne and Joe Ruiz
##DESCRIPTION=Pale green granular, associated with blue diaboleite
##STATUS=The identification of this mineral has been confirmed by single-crystal X-ray diffraction.
##URL=rruff.info/R110089
181.6122, 459.9233
182.0944, 466.6787
182.5765, 473.5644
183.0586, 481.1725
183.5407, 489.0511
184.0228, 496.5249
184.5049, 503.4637
184.9871, 510.3469
185.4692, 517.5627
185.9513, 525.1399
186.4334, 532.8632
186.9155, 540.5990
187.3976, 548.4296
187.8798, 556.7935
188.3619, 565.6971
188.8440, 575.0031
189.3261, 584.4414
189.8082, 594.0771
190.2903, 603.6891
190.7725, 612.8101
191.2546, 621.7723
191.7367, 631.8027
192.2188, 643.0942
192.7009, 655.1671
193.1830, 667.1433
193.6652, 678.9748
194.1473, 690.7974
194.6294, 703.1171
195.1115, 715.7725
195.5936, 726.5186
196.0757, 735.1257
196.5579, 742.0047
197.0400, 748.2061
197.5221, 753.8771
198.0042, 757.5180
198.4863, 758.4725
198.9684, 756.7484
199.4506, 752.1664
199.9327, 744.4425
200.4148, 734.3483
200.8969, 723.4300
201.3790, 711.5469
201.8611, 699.0884
202.3433, 685.8989
202.8254, 671.8338
203.3075, 658.6302
203.7896, 646.4534
204.2717, 635.2987
204.7538, 625.4880
205.2360, 617.2156
205.7181, 609.4915
206.2002, 601.5409
206.6823, 593.1315
207.1644, 585.8654
207.6465, 579.7558
208.1287, 574.9143
208.6108, 571.7216
209.0929, 570.5114
209.5750, 569.9897
210.0571, 569.2278
210.5392, 567.9192
211.0214, 567.8494
211.5035, 569.5088
211.9856, 572.4022
212.4677, 574.7741
212.9498, 576.3149
213.4319, 578.0748
213.9140, 581.0427
214.3962, 585.9690
214.8783, 589.3998
215.3604, 590.6155
215.8425, 590.1838
216.3246, 590.3464
216.8067, 591.3855
217.2889, 592.4656
217.7710, 593.0500
218.2531, 592.9527
218.7352, 592.8926
219.2173, 592.9711
219.6994, 593.1168
220.1816, 592.8279
220.6637, 591.4017
221.1458, 590.6979
221.6279, 592.1461
222.1100, 596.8654
222.5921, 600.7450
223.0743, 603.1862
223.5564, 604.5305
224.0385, 606.3552
224.5206, 608.2585
225.0027, 611.2078
225.4848, 616.0956
225.9670, 624.0778
226.4491, 631.1023
226.9312, 636.5611
227.4133, 640.8121
227.8954, 645.8466
228.3775, 651.7781
228.8597, 658.1879
229.3418, 664.7320
229.8239, 671.2112
230.3060, 678.2739
230.7881, 686.1701
231.2702, 694.7040
231.7524, 702.6541
232.2345, 709.7808
232.7166, 716.4939
233.1987, 722.9447
233.6808, 729.1874
234.1629, 735.0095
234.6451, 740.6092
235.1272, 745.8024
235.6093, 749.8888
236.0914, 752.6135
236.5735, 754.5875
237.0556, 756.2109
237.5378, 757.8601
238.0199, 758.3378
238.5020, 757.3029
238.9841, 755.0665
239.4662, 752.9555
239.9483, 751.5000
240.4305, 749.4928
240.9126, 746.2463
241.3947, 741.3865
241.8768, 736.1248
242.3589, 730.3328
242.8410, 724.2177
243.3232, 718.2839
243.8053, 712.1642
244.2874, 706.7604
244.7695, 702.7962
245.2516, 701.4368
245.7337, 698.7188
246.2159, 693.7856
246.6980, 687.4672
247.1801, 682.5967
247.6622, 679.7419
248.1443, 677.3732
248.6264, 674.7682
249.1086, 671.5950
249.5907, 669.0004
250.0728, 667.4438
250.5549, 666.3597
251.0370, 664.1909
251.5191, 660.5176
252.0013, 656.4452
252.4834, 652.5419
252.9655, 649.4310
253.4476, 644.9924
253.9297, 639.0117
254.4118, 631.8256
254.8940, 623.9642
255.3761, 615.2292
255.8582, 606.1251
256.3403, 596.9365
256.8224, 587.8226
257.3046, 578.0580
257.7867, 567.2508
258.2688, 556.1168
258.7509, 546.1676
259.2330, 537.8971
259.7151, 529.9936
260.1973, 521.9313
260.6794, 513.7999
261.1615, 505.7119
261.6436, 497.6139
262.1257, 489.7051
262.6078, 482.3297
263.0900, 475.5562
263.5721, 469.3339
264.0542, 463.7887
264.5363, 458.9327
265.0184, 454.3482
265.5005, 450.1100
265.9827, 445.9845
266.4648, 441.4606
266.9469, 436.3408
267.4290, 431.4950
267.9111, 427.1924
268.3932, 423.4828
268.8754, 419.8387
269.3575, 416.4584
269.8396, 412.8286
270.3217, 408.1143
270.8038, 401.9181
271.2859, 396.2147
271.7681, 391.7174
272.2502, 388.3920
272.7323, 384.6910
273.2144, 380.4307
273.6965, 376.2913
274.1786, 373.2534
274.6608, 371.5779
275.1429, 369.4052
275.6250, 366.0584
276.1071, 361.7773
276.5892, 358.2201
277.0714, 355.5011
277.5535, 353.3442
278.0356, 351.6031
278.5177, 350.3088
278.9998, 349.0854
279.4819, 347.8402
279.9641, 346.6034
280.4462, 345.6071
280.9283, 344.8967
281.4104, 344.2142
281.8925, 343.2573
282.3746, 342.0202
282.8568, 341.0551
283.3389, 340.4932
283.8210, 340.2400
284.3031, 339.9966
284.7852, 339.7483
285.2673, 339.7074
285.7495, 340.0884
286.2316, 340.8691
286.7137, 341.7351
287.1958, 342.7216
287.6779, 343.6739
288.1600, 344.0764
288.6422, 343.9140
289.1243, 344.0420
289.6064, 345.2550
290.0885, 347.3094
290.5706, 348.7889
291.0527, 349.3755
291.5349, 349.7943
292.0170, 351.4248
292.4991, 354.1362
292.9812, 356.6875
293.4633, 358.0065
293.9454, 358.5799
294.4276, 360.0986
294.9097, 362.7896
295.3918, 365.7504
295.8739, 367.9478
296.3560, 369.4347
296.8381, 370.5560
297.3203, 371.0077
297.8024, 371.2747
298.2845, 372.4513
298.7666, 374.6167
299.2487, 377.1757
299.7308, 379.6325
300.2130, 382.0422
300.6951, 384.5181
301.1772, 387.0185
301.6593, 389.6445
302.1414, 392.6403
302.6235, 395.9732
303.1057, 399.4188
303.5878, 402.8991
304.0699, 406.3297
304.5520, 409.4785
305.0341, 412.1896
305.5162, 414.6602
305.9984, 417.1001
306.4805, 419.4872
306.9626, 421.8266
307.4447, 424.0253
307.9268, 426.1894
308.4089, 428.4521
308.8911, 430.9909
309.3732, 433.4214
309.8553, 435.4684
310.3374, 437.1516
310.8195, 438.5738
311.3016, 439.4326
311.7838, 440.2172
312.2659, 441.5143
312.7480, 443.8065
313.2301, 445.7005
313.7122, 446.0293
314.1943, 445.3700
314.6765, 444.9285
315.1586, 444.7939
315.6407, 445.3610
316.1228, 447.1368
316.6049, 450.4981
317.0870, 453.6977
317.5692, 455.9875
318.0513, 457.6256
318.5334, 458.9539
319.0155, 459.6482
319.4976, 460.4330
319.9797, 461.7284
320.4619, 463.6176
320.9440, 465.3062
321.4261, 466.9118
321.9082, 468.0372
322.3903, 468.2945
322.8724, 467.4079
323.3546, 465.8317
323.8367, 463.8908
324.3188, 461.5520
324.8009, 457.8701
325.2830, 451.4323
325.7651, 444.4271
326.2473, 438.2885
326.7294, 434.9772
327.2115, 430.4472
327.6936, 423.5862
328.1757, 414.9831
328.6578, 407.2469
329.1400, 400.6731
329.6221, 394.7542
330.1042, 389.2381
330.5863, 384.1859
331.0684, 379.4073
331.5505, 374.8146
332.0327, 370.5271
332.5148, 366.9020
332.9969, 364.3337
333.4790, 361.8589
333.9611, 359.0003
334.4432, 355.4610
334.9254, 352.6899
335.4075, 350.9014
335.8896, 349.7114
336.3717, 348.6689
336.8538, 347.8934
337.3359, 346.9782
337.8180, 345.7603
338.3001, 344.2545
338.7823, 342.9510
339.2644, 341.9037
339.7465, 340.9960
340.2286, 340.1040
340.7107, 339.2182
341.1928, 338.4878
341.6750, 337.9516
342.1571, 337.6062
342.6392, 337.5527
343.1213, 337.8651
343.6034, 338.0934
344.0855, 337.8032
344.5677, 337.0261
345.0498, 336.4416
345.5319, 336.1060
346.0140, 336.0470
346.4961, 336.3330
346.9782, 336.9572
347.4604, 337.8461
347.9425, 338.9821
348.4246, 340.3537
348.9067, 341.8498
349.3888, 343.4433
349.8709, 345.2691
350.3531, 347.7125
350.8352, 350.5910
351.3173, 353.2170
351.7994, 355.1142
352.2815, 356.6516
352.7636, 358.4552
353.2458, 360.5217
353.7279, 362.6626
354.2100, 364.8980
354.6921, 367.0681
355.1742, 368.8606
355.6563, 369.9032
356.1385, 370.8455
356.6206, 372.3423
357.1027, 374.3158
357.5848, 376.3365
358.0669, 378.5614
358.5490, 380.5283
359.0312, 381.8022
359.5133, 382.2909
359.9954, 382.1367
360.4775, 380.8198
360.9596, 378.9239
361.4417, 377.7023
361.9239, 378.5421
362.4060, 379.5109
362.8881, 379.4626
363.3702, 378.0986
363.8523, 376.6978
364.3344, 376.0410
364.8166, 375.4408
365.2987, 374.1007
365.7808, 370.8732
366.2629, 367.8871
366.7450, 365.8498
367.2271, 364.7669
367.7093, 363.5316
368.1914, 361.9376
368.6735, 360.1956
369.1556, 358.4259
369.6377, 356.5543
370.1198, 354.7983
370.6020, 353.2534
371.0841, 351.8379
371.5662, 350.2409
372.0483, 348.2751
372.5304, 346.3739
373.0125, 344.7909
373.4947, 343.8498
373.9768, 342.2656
374.4589, 339.6908
374.9410, 336.7328
375.4231, 334.4406
375.9052, 333.0291
376.3874, 331.6582
376.8695, 330.1392
377.3516, 328.4569
377.8337, 326.6255
378.3158, 324.6271
378.7979, 322.4899
379.2801, 320.2421
379.7622, 317.8625
380.2443, 315.4330
380.7264, 312.8135
381.2085, 310.2502
381.6906, 308.4974
382.1728, 307.5709
382.6549, 306.7533
383.1370, 305.6290
383.6191, 304.2176
384.1012, 302.5785
384.5833, 300.6167
385.0655, 298.6843
385.5476, 297.3914
386.0297, 296.5617
386.5118, 295.6352
386.9939, 294.0411
387.4760, 292.3001
387.9582, 291.3483
388.4403, 291.2054
388.9224, 290.9364
389.4045, 289.5148
389.8866, 287.5737
390.3687, 286.0037
390.8509, 285.3281
391.3330, 284.8972
391.8151, 284.3703
392.2972, 283.7333
392.7793, 282.9162
393.2614, 281.4308
393.7436, 280.0452
394.2257, 279.3606
394.7078, 279.7943
395.1899, 280.1752
395.6720, 280.0429
396.1541, 279.5994
396.6363, 279.1712
397.1184, 278.8550
397.6005, 278.5461
398.0826, 278.1787
398.5647, 277.7283
399.0468, 277.4002
399.5290, 277.2567
400.0111, 277.2198
400.4932, 277.2261
400.9753, 277.2660
401.4574, 277.3715
401.9395, 277.6498
402.4217, 278.0206
402.9038, 278.0622
403.3859, 277.5532
403.8680, 277.0420
404.3501, 276.8115
404.8322, 276.9656
405.3144, 277.0305
405.7965, 276.9488
406.2786, 276.8443
406.7607, 276.9212
407.2428, 277.1994
407.7249, 277.5489
408.2071, 277.9270
408.6892, 278.3374
409.1713, 278.9107
409.6534, 279.7177
410.1355, 280.2692
410.6176, 279.6429
411.0998, 278.1587
411.5819, 277.9024
412.0640, 279.7198
412.5461, 282.1936
413.0282, 282.8670
413.5103, 282.0012
413.9925, 281.1708
414.4746, 281.3777
414.9567, 282.1718
415.4388, 282.8931
415.9209, 283.4976
416.4030, 284.0137
416.8852, 284.4652
417.3673, 284.8530
417.8494, 285.1805
418.3315, 285.2647
418.8136, 285.4502
419.2957, 286.0912
419.7779, 287.1055
420.2600, 287.9730
420.7421, 288.2802
421.2242, 288.4600
421.7063, 288.8229
422.1884, 289.5212
422.6706, 290.2402
423.1527, 290.8023
423.6348, 291.3509
424.1169, 292.1543
424.5990, 293.4974
425.0811, 294.8713
425.5633, 296.2521
426.0454, 297.7242
426.5275, 298.5457
427.0096, 298.1057
427.4917, 297.4955
427.9738, 297.6753
428.4560, 299.2117
428.9381, 300.3171
429.4202, 300.6376
429.9023, 300.4106
430.3844, 300.4672
430.8665, 300.8655
431.3487, 301.3829
431.8308, 301.9294
432.3129, 302.5056
432.7950, 303.0998
433.2771, 303.7324
433.7592, 304.3304
434.2414, 304.7372
434.7235, 304.9807
435.2056, 305.3907
435.6877, 306.1738
436.1698, 307.1199
436.6519, 307.8486
437.1341, 308.3578
437.6162, 308.6195
438.0983, 308.4871
438.5804, 308.1298
439.0625, 307.8040
439.5446, 307.5174
440.0268, 307.3868
440.5089, 307.6884
440.9910, 308.2178
441.4731, 308.5537
441.9552, 308.3773
442.4373, 308.0479
442.9195, 307.8112
443.4016, 307.6678
443.8837, 307.4062
444.3658, 306.8013
444.8479, 306.1102
445.3300, 305.5376
445.8122, 305.1079
446.2943, 304.8042
446.7764, 304.7664
447.2585, 304.8536
447.7406, 304.7060
448.2227, 304.0829
448.7049, 303.4347
449.1870, 302.8244
449.6691, 302.2088
450.1512, 301.9859
450.6333, 302.4897
451.1154, 303.0340
451.5976, 302.8384
452.0797, 301.5311
452.5618, 300.7902
453.0439, 301.0464
453.5260, 301.9523
454.0081, 302.4130
454.4903, 302.3661
454.9724, 302.3003
455.4545, 302.5875
455.9366, 303.1417
456.4187, 303.3163
456.9008, 303.0424
457.3830, 302.6339
457.8651, 302.3148
458.3472, 302.1357
458.8293, 302.3571
459.3114, 303.5570
459.7935, 304.6795
460.2757, 304.0939
460.7578, 302.0948
461.2399, 300.1871
461.7220, 299.3739
462.2041, 299.0492
462.6862, 298.7265
463.1684, 298.3848
463.6505, 297.8362
464.1326, 297.0433
464.6147, 295.9838
465.0968, 294.6074
465.5789, 292.2687
466.0611, 290.2986
466.5432, 289.2012
467.0253, 288.9256
467.5074, 288.6960
467.9895, 288.5389
468.4716, 288.3205
468.9538, 287.9676
469.4359, 287.3949
469.9180, 286.8883
470.4001, 286.5085
470.8822, 286.1416
471.3643, 285.5421
471.8465, 284.5102
472.3286, 283.8404
472.8107, 283.8790
473.2928, 284.4583
473.7749, 284.4713
474.2570, 283.7728
474.7392, 283.2646
475.2213, 283.9677
475.7034, 285.6244
476.1855, 286.3861
476.6676, 285.9443
477.1497, 284.9868
477.6319, 284.1588
478.1140, 283.5368
478.5961, 283.3874
479.0782, 284.1573
479.5603, 285.2587
480.0424, 286.1057
480.5246, 286.7004
481.0067, 287.0380
481.4888, 287.0141
481.9709, 286.7892
482.4530, 286.4928
482.9352, 286.1336
483.4173, 285.7386
483.8994, 285.4351
484.3815, 285.0711
484.8636, 284.4196
485.3457, 283.1820
485.8279, 281.9081
486.3100, 280.6660
486.7921, 279.4624
487.2742, 278.5431
487.7563, 278.2549
488.2384, 277.8981
488.7206, 276.9698
489.2027, 274.9152
489.6848, 273.9167
490.1669, 274.4761
490.6490, 275.5902
491.1311, 275.5942
491.6133, 274.3372
492.0954, 272.9971
492.5775, 271.8326
493.0596, 270.8844
493.5417, 270.4201
494.0238, 270.4469
494.5060, 270.4151
494.9881, 269.6500
495.4702, 268.5240
495.9523, 268.0425
496.4344, 268.4372
496.9165, 269.0083
497.3987, 268.7980
497.8808, 268.2867
498.3629, 268.3870
498.8450, 270.0609
499.3271, 271.9782
499.8092, 273.4008
500.2914, 274.3585
500.7735, 274.9320
501.2556, 274.5109
501.7377, 274.2179
502.2198, 274.7565
502.7019, 276.4937
503.1841, 278.3367
503.6662, 280.3389
504.1483, 282.3089
504.6304, 283.9883
505.1125, 285.1288
505.5946, 286.3512
506.0768, 287.7971
506.5589, 289.4057
507.0410, 290.9004
507.5231, 292.2501
508.0052, 293.5585
508.4873, 294.8190
508.9695, 296.0115
509.4516, 297.7055
509.9337, 300.0725
510.4158, 302.2237
510.8979, 303.0988
511.3800, 302.8589
511.8622, 302.1518
512.3443, 301.0179
512.8264, 299.6898
513.3085, 298.6765
513.7906, 297.7828
514.2728, 296.3045
514.7549, 293.5186
515.2370, 290.1947
515.7191, 286.9526
516.2012, 283.8355
516.6833, 280.7020
517.1655, 277.4651
517.6476, 274.1670
518.1297, 270.8447
518.6118, 267.5786
519.0939, 264.2009
519.5760, 260.4233
520.0582, 256.5471
520.5403, 253.1696
521.0224, 250.5430
521.5045, 248.1075
521.9866, 245.6462
522.4688, 243.1506
522.9509, 241.3228
523.4330, 240.4027
523.9151, 239.5583
524.3972, 238.0273
524.8793, 235.7930
525.3615, 233.8934
525.8436, 232.3909
526.3257, 231.2822
526.8078, 230.8897
527.2899, 231.0119
527.7720, 230.6754
528.2542, 229.1609
528.7363, 227.2509
529.2184, 225.7206
529.7005, 224.6355
530.1826, 224.2747
530.6647, 226.0181
531.1469, 227.8324
531.6290, 227.7055
532.1111, 224.9331
532.5932, 222.3500
533.0753, 221.1944
533.5574, 220.7377
534.0396, 220.2430
534.5217, 219.4074
535.0038, 218.7314
535.4859, 218.4601
535.9680, 218.4084
536.4501, 217.9432
536.9323, 216.7586
537.4144, 215.6812
537.8965, 215.0302
538.3786, 214.8140
538.8607, 214.6459
539.3428, 214.5160
539.8250, 214.4603
540.3071, 214.7105
540.7892, 215.1799
541.2713, 214.9378
541.7534, 213.6651
542.2355, 212.1332
542.7177, 211.4452
543.1998, 211.4020
543.6819, 211.3917
544.1640, 211.0995
544.6461, 210.7361
545.1282, 210.5132
545.6104, 210.4085
546.0925, 210.2725
546.5746, 209.9685
547.0567, 209.6505
547.5388, 209.4572
548.0209, 209.4973
548.5031, 209.3586
548.9852, 208.6673
549.4673, 207.8911
549.9494, 207.5365
550.4315, 207.9938
550.9136, 208.2630
551.3958, 208.1613
551.8779, 207.8223
552.3600, 207.5886
552.8421, 207.3848
553.3242, 207.5523
553.8063, 208.4607
554.2885, 209.9504
554.7706, 210.6789
555.2527, 210.5994
555.7348, 210.2632
556.2169, 209.9425
556.6990, 209.7463
557.1812, 210.0942
557.6633, 211.2258
558.1454, 212.2336
558.6275, 211.9420
559.1096, 210.9584
559.5917, 210.3464
560.0739, 210.9438
560.5560, 211.6373
561.0381, 211.7525
561.5202, 211.4502
562.0023, 211.4609
562.4844, 212.2511
562.9666, 213.1503
563.4487, 213.8993
563.9308, 214.5079
564.4129, 214.8745
564.8950, 214.8941
565.3771, 214.7825
565.8593, 214.6427
566.3414, 214.3718
566.8235, 214.5732
567.3056, 215.4574
567.7877, 216.6077
568.2698, 217.2613
568.7520, 217.4471
569.2341, 217.5428
569.7162, 217.7025
570.1983, 217.7426
570.6804, 217.8764
571.1625, 217.7676
571.6447, 217.6772
572.1268, 217.6188
572.6089, 217.6729
573.0910, 218.0337
573.5731, 218.7997
574.0552, 219.2811
574.5374, 219.0204
575.0195, 218.4016
575.5016, 217.7834
575.9837, 217.0324
576.4658, 216.5312
576.9479, 216.4509
577.4301, 216.5972
577.9122, 216.5882
578.3943, 216.3349
578.8764, 216.0946
579.3585, 215.9804
579.8406, 215.9438
580.3228, 215.6478
580.8049, 215.0746
581.2870, 214.3565
581.7691, 213.3527
582.2512, 212.2417
582.7333, 211.8548
583.2155, 212.3044
583.6975, 212.8604
584.1796, 212.9881
584.6617, 212.7293
585.1439, 212.0999
585.6260, 210.8571
586.1081, 209.7037
586.5902, 209.0637
587.0723, 208.8170
587.5544, 208.7381
588.0366, 209.2873
588.5187, 209.4513
589.0008, 208.4988
589.4829, 206.5327
589.9650, 205.6383
590.4471, 206.4576
590.9293, 207.5095
591.4114, 208.1239
591.8935, 208.2607
592.3756, 208.2161
592.8577, 207.9349
593.3398, 207.6168
593.8220, 207.5339
594.3041, 207.6397
594.7862, 207.5232
595.2683, 207.0442
595.7504, 206.5019
596.2325, 206.4092
596.7147, 206.5717
597.1968, 206.4837
597.6789, 205.6744
598.1610, 204.7457
598.6431, 204.1902
599.1252, 203.9193
599.6074, 203.4970
600.0895, 202.5566
600.5716, 201.6028
601.0537, 200.8708
601.5358, 200.4172
602.0179, 200.0496
602.5001, 199.8077
602.9822, 199.6078
603.4643, 199.4237
603.9464, 199.3144
604.4285, 198.9691
604.9106, 198.3305
605.3928, 197.5171
605.8749, 196.6164
606.3570, 195.6431
606.8391, 194.8378
607.3212, 194.2776
607.8033, 193.9158
608.2855, 193.7471
608.7676, 193.7293
609.2497, 193.7048
609.7318, 193.8251
610.2139, 193.7260
610.6960, 192.8671
611.1782, 191.2714
611.6603, 190.1451
612.1424, 190.4265
612.6245, 190.9242
613.1066, 190.8700
613.5887, 189.8563
614.0709, 189.1048
614.5530, 188.6723
615.0351, 188.4497
615.5172, 188.3885
615.9993, 188.5879
616.4814, 188.4763
616.9636, 187.9047
617.4457, 187.0888
617.9278, 186.3484
618.4099, 185.6958
618.8920, 185.2504
619.3741, 185.0410
619.8563, 185.0688
620.3384, 185.6068
620.8205, 186.4960
621.3026, 186.9474
621.7847, 186.1814
622.2668, 185.0343
622.7490, 184.0363
623.2311, 183.2201
623.7132, 182.7351
624.1953, 182.9286
624.6774, 183.2644
625.1595, 183.3869
625.6417, 183.3617
626.1238, 182.9205
626.6059, 181.6958
627.0880, 180.4688
627.5701, 180.5433
628.0522, 182.1228
628.5344, 182.9826
629.0165, 182.4683
629.4986, 181.2676
629.9807, 180.6405
630.4628, 180.5155
630.9449, 180.5242
631.4271, 180.4048
631.9092, 180.3695
632.3913, 180.7581
632.8734, 181.4976
633.3555, 182.1250
633.8376, 182.4327
634.3198, 182.5404
634.8019, 182.4462
635.2840, 182.0689
635.7661, 181.9252
636.2482, 182.1870
636.7303, 182.5956
637.2125, 182.9932
637.6946, 183.3985
638.1767, 183.7345
638.6588, 183.9664
639.1409, 184.1879
639.6230, 184.6082
640.1052, 185.2041
640.5873, 185.5299
641.0694, 185.3614
641.5515, 185.0621
642.0336, 185.2088
642.5157, 185.6830
642.9979, 186.1435
643.4800, 186.5034
643.9621, 186.7165
644.4442, 186.6359
644.9263, 186.3271
645.4084, 186.1672
645.8906, 186.4275
646.3727, 186.7345
646.8548, 186.9380
647.3369, 187.0429
647.8190, 187.0039
648.3011, 186.7863
648.7833, 186.4775
649.2654, 186.0633
649.7475, 185.5037
650.2296, 185.3931
650.7117, 185.8720
651.1938, 186.3794
651.6760, 186.1533
652.1581, 185.3728
652.6402, 184.5885
653.1223, 183.9315
653.6044, 183.3367
654.0865, 182.7273
654.5687, 182.1260
655.0508, 181.5746
655.5329, 181.1630
656.0150, 180.7190
656.4971, 180.0926
656.9792, 179.3502
657.4614, 178.8469
657.9435, 178.8218
658.4256, 178.7123
658.9077, 178.2764
659.3898, 177.5359
659.8719, 177.0674
660.3541, 176.9129
660.8362, 176.8319
661.3183, 176.6421
661.8004, 176.3838
662.2825, 176.2473
662.7646, 176.2540
663.2468, 176.1977
663.7289, 175.8535
664.2110, 175.3551
664.6931, 174.8273
665.1752, 174.1783
665.6573, 173.8252
666.1395, 174.2841
666.6216, 175.0114
667.1037, 175.3372
667.5858, 174.7488
668.0679, 174.2735
668.5500, 173.9390
669.0322, 173.7851
669.5143, 173.9760
669.9964, 174.6077
670.4785, 175.1293
670.9606, 175.4251
671.4427, 175.4583
671.9249, 174.8765
672.4070, 173.7853
672.8891, 173.0677
673.3712, 173.5558
673.8533, 174.5199
674.3354, 175.1145
674.8176, 175.3529
675.2997, 175.6236
675.7818, 176.3638
676.2639, 177.0099
676.7460, 177.0962
677.2281, 176.3062
677.7103, 176.0398
678.1924, 176.6111
678.6745, 177.4437
679.1566, 178.2292
679.6387, 179.0857
680.1208, 179.2160
680.6030, 178.3909
681.0851, 177.3314
681.5672, 176.8478
682.0493, 176.8890
682.5314, 177.2984
683.0135, 178.2008
683.4957, 179.0600
683.9778, 179.2561
684.4599, 179.0028
684.9420, 178.6990
685.4241, 178.3115
685.9063, 178.0935
686.3884, 178.1384
686.8705, 178.4292
687.3526, 178.9190
687.8347, 179.9042
688.3168, 180.6580
688.7990, 180.9571
689.2811, 180.8581
689.7632, 180.5182
690.2453, 179.8239
690.7274, 179.6698
691.2095, 181.1199
691.6917, 183.4705
692.1738, 184.5497
692.6559, 184.3589
693.1380, 183.8459
693.6201, 183.3369
694.1022, 183.0550
694.5844, 183.3680
695.0665, 184.4468
695.5486, 185.2222
696.0307, 184.6565
696.5128, 184.0740
696.9949, 184.6040
697.4771, 187.2370
697.9592, 188.8697
698.4413, 189.1235
698.9234, 188.8504
699.4055, 189.0381
699.8876, 189.6948
700.3698, 190.4837
700.8519, 191.3406
701.3340, 192.3171
701.8161, 193.7535
702.2982, 195.3698
702.7803, 196.4336
703.2625, 196.2654
703.7446, 195.9610
704.2267, 196.0557
704.7088, 196.5610
705.1909, 197.5125
705.6730, 199.2912
706.1552, 201.0920
706.6373, 202.7411
707.1194, 204.2531
707.6015, 205.7677
708.0836, 207.3965
708.5657, 208.6226
709.0479, 209.0773
709.5300, 208.9798
710.0121, 209.2612
710.4942, 209.9134
710.9763, 210.7135
711.4584, 211.6356
711.9406, 212.5612
712.4227, 213.3939
712.9048, 214.1269
713.3869, 214.6308
713.8690, 214.2670
714.3511, 214.0818
714.8333, 214.9555
715.3154, 217.6049
715.7975, 219.2313
716.2796, 219.5577
716.7617, 219.2131
717.2438, 218.5461
717.7260, 217.5090
718.2081, 216.8188
718.6902, 216.5947
719.1723, 216.4336
719.6544, 215.7280
720.1365, 214.7254
720.6187, 214.0960
721.1008, 214.0906
721.5829, 214.1450
722.0650, 213.8306
722.5471, 213.3132
723.0292, 212.8079
723.5114, 212.5933
723.9935, 212.1299
724.4756, 211.1328
724.9577, 209.9063
725.4398, 209.0249
725.9219, 208.7712
726.4041, 207.9373
726.8862, 206.0699
727.3683, 203.6665
727.8504, 202.1294
728.3325, 201.3141
728.8146, 200.2170
729.2968, 198.1434
729.7789, 195.7827
730.2610, 193.7937
730.7431, 192.1589
731.2252, 190.8195
731.7073, 190.0595
732.1895, 189.2911
732.6716, 188.2197
733.1537, 186.8617
733.6358, 185.6208
734.1179, 184.4903
734.6000, 183.4719
735.0822, 182.6227
735.5643, 181.9128
736.0464, 181.0680
736.5285, 180.0874
737.0106, 179.0160
737.4927, 177.6033
737.9749, 176.2273
738.4570, 175.6952
738.9391, 176.0234
739.4212, 176.3031
739.9033, 176.0824
740.3854, 175.5516
740.8676, 174.7299
741.3497, 173.4280
741.8318, 172.6406
742.3139, 172.6427
742.7960, 172.8994
743.2781, 173.0740
743.7603, 173.1567
744.2424, 173.2427
744.7245, 173.3506
745.2066, 173.4005
745.6887, 173.3355
746.1708, 173.1474
746.6530, 172.7324
747.1351, 171.9985
747.6172, 171.4495
748.0993, 171.7691
748.5814, 172.3411
749.0635, 172.4460
749.5457, 171.3480
750.0278, 170.7059
750.5099, 171.0931
750.9920, 171.7960
751.4741, 171.9601
751.9562, 171.4197
752.4384, 171.0027
752.9205, 170.8013
753.4026, 170.7980
753.8847, 171.2158
754.3668, 171.8630
754.8489, 171.9306
755.3311, 170.9002
755.8132, 169.7220
756.2953, 169.3225
756.7774, 169.3485
757.2595, 169.1893
757.7416, 168.2762
758.2238, 167.6043
758.7059, 167.5452
759.1880, 167.8386
759.6701, 168.0039
760.1522, 168.1246
760.6343, 167.7984
761.1165, 166.6953
761.5986, 165.3141
762.0807, 164.9643
762.5628, 165.5026
763.0449, 166.0946
763.5270, 166.5028
764.0092, 166.6572
764.4913, 166.3140
764.9734, 165.6387
765.4555, 165.1423
765.9376, 165.0375
766.4197, 165.1170
766.9019, 165.4731
767.3840, 165.9896
767.8661, 166.0793
768.3482, 165.5729
768.8303, 165.1413
769.3124, 165.1290
769.7946, 165.3694
770.2767, 165.1809
770.7588, 164.6188
771.2409, 164.2005
771.7230, 164.3047
772.2051, 164.6598
772.6873, 165.1836
773.1694, 165.7979
773.6515, 166.0063
774.1336, 164.9893
774.6157, 164.1634
775.0978, 164.2645
775.5800, 165.2496
776.0621, 165.8911
776.5442, 166.0636
777.0263, 166.2563
777.5084, 166.8710
777.9905, 167.7419
778.4727, 167.9408
778.9548, 167.5057
779.4369, 167.1340
779.9190, 167.3356
780.4011, 167.8316
780.8832, 168.5256
781.3654, 169.3855
781.8475, 169.7938
782.3296, 168.9044
782.8117, 168.1031
783.2938, 168.1441
783.7759, 169.1261
784.2581, 169.8065
784.7402, 170.1092
785.2223, 170.3423
785.7044, 170.8739
786.1865, 171.5302
786.6686, 171.4353
787.1508, 170.5797
787.6329, 169.9265
788.1150, 170.5855
788.5971, 171.5425
789.0792, 171.6514
789.5613, 170.6521
790.0435, 170.1643
790.5256, 171.2878
791.0077, 172.3850
791.4898, 172.4967
791.9719, 171.4034
792.4540, 170.8680
792.9362, 170.9698
793.4183, 171.3264
793.9004, 171.7759
794.3825, 172.2179
794.8646, 172.3750
795.3467, 172.2292
795.8289, 171.8044
796.3110, 170.9285
796.7931, 169.9172
797.2752, 168.9936
797.7573, 168.1270
798.2394, 167.6259
798.7216, 167.8866
799.2037, 168.1178
799.6858, 167.6918
800.1679, 166.4328
800.6500, 166.0643
801.1321, 166.7287
801.6143, 167.3618
802.0964, 166.6896
802.5785, 165.3859
803.0606, 164.8395
803.5427, 165.2540
804.0248, 165.6299
804.5070, 165.3036
804.9891, 164.7489
805.4712, 164.3389
805.9533, 164.2041
806.4354, 163.8717
806.9175, 163.1338
807.3997, 162.4965
807.8818, 162.4923
808.3639, 163.0965
808.8460, 163.0551
809.3281, 162.2802
809.8102, 161.4334
810.2924, 161.1150
810.7745, 161.0900
811.2566, 161.0058
811.7387, 160.7926
812.2208, 160.7893
812.7029, 161.4825
813.1851, 162.1768
813.6672, 162.3754
814.1493, 161.9811
814.6314, 161.4815
815.1135, 160.8196
815.5956, 160.2045
816.0778, 159.7944
816.5599, 159.5761
817.0420, 159.5252
817.5241, 159.6408
818.0062, 159.8378
818.4883, 160.1181
818.9705, 160.4025
819.4526, 160.6333
819.9347, 160.8120
820.4168, 160.8477
820.8989, 160.4766
821.3810, 160.1865
821.8632, 160.3132
822.3453, 160.9456
822.8274, 161.0643
823.3095, 160.6055
823.7916, 160.0324
824.2737, 159.7222
824.7559, 159.5657
825.2380, 159.2384
825.7201, 158.7425
826.2022, 158.5775
826.6843, 159.5857
827.1664, 160.6116
827.6486, 160.6820
828.1307, 159.4828
828.6128, 159.1866
829.0949, 160.3643
829.5770, 161.4562
830.0591, 161.4006
830.5413, 160.3575
831.0234, 160.2918
831.5055, 161.1895
831.9876, 162.0757
832.4697, 162.3766
832.9518, 162.2250
833.4340, 161.4277
833.9161, 160.0799
834.3982, 159.4614
834.8803, 160.7375
835.3624, 162.1471
835.8445, 162.9528
836.3267, 163.1727
836.8088, 163.2029
837.2909, 162.9906
837.7730, 162.8382
838.2551, 163.0401
838.7372, 163.3865
839.2194, 163.2342
839.7015, 162.6774
840.1836, 162.2607
840.6657, 162.1828
841.1478, 162.4446
841.6299, 163.2919
842.1121, 164.6120
842.5942, 165.3898
843.0763, 165.1394
843.5584, 165.1379
844.0405, 165.9166
844.5226, 167.2050
845.0048, 167.9581
845.4869, 168.1929
845.9690, 168.1815
846.4511, 167.8619
846.9332, 167.5311
847.4153, 167.4035
847.8975, 167.5242
848.3796, 168.0193
848.8617, 169.4774
849.3438, 170.6909
849.8259, 171.1629
850.3080, 171.1985
850.7902, 171.5609
851.2723, 172.2801
851.7544, 173.1706
852.2365, 174.2919
852.7186, 175.3821
853.2007, 175.7195
853.6829, 175.6336
854.1650, 176.0398
854.6471, 177.7684
855.1292, 179.4648
855.6113, 180.3469
856.0934, 180.7866
856.5756, 181.4910
857.0577, 182.5877
857.5398, 183.7331
858.0219, 184.8411
858.5040, 186.0848
858.9861, 187.9242
859.4683, 190.2059
859.9504, 192.0128
860.4325, 193.0066
860.9146, 193.8313
861.3967, 194.9821
861.8788, 196.3253
862.3610, 197.7254
862.8431, 199.2702
863.3252, 200.6238
863.8073, 201.6741
864.2894, 202.6169
864.7715, 203.5080
865.2537, 204.3177
865.7358, 205.8111
866.2179, 208.1251
866.7000, 210.6913
867.1821, 213.2569
867.6642, 215.5900
868.1464, 217.0879
868.6285, 217.5032
869.1106, 218.4056
869.5927, 220.8821
870.0748, 223.6798
870.5569, 225.9807
871.0391, 227.7226
871.5212, 229.2437
872.0033, 230.4620
872.4854, 231.7310
872.9675, 233.4136
873.4496, 235.3070
873.9318, 236.7724
874.4139, 237.8360
874.8960, 239.0821
875.3781, 241.6440
875.8602, 243.8135
876.3423, 244.1416
876.8245, 242.5910
877.3066, 242.0756
877.7887, 243.0977
878.2708, 244.0397
878.7529, 244.2242
879.2350, 243.8659
879.7172, 243.6175
880.1993, 243.4771
880.6814, 243.3747
881.1635, 243.3343
881.6456, 243.2659
882.1277, 243.1949
882.6099, 243.0440
883.0920, 242.5828
883.5741, 241.4745
884.0562, 240.4189
884.5383, 239.4259
885.0204, 238.5989
885.5026, 238.3301
885.9847, 238.5613
886.4668, 238.4741
886.9489, 237.7596
887.4310, 236.7984
887.9131, 235.9998
888.3953, 235.2485
888.8774, 234.3529
889.3595, 232.9817
889.8416, 231.9215
890.3237, 231.7100
890.8058, 231.4932
891.2880, 230.2632
891.7701, 227.9336
892.2522, 225.7375
892.7343, 223.7508
893.2164, 222.0100
893.6985, 220.5505
894.1807, 219.3647
894.6628, 218.5207
895.1449, 218.1083
895.6270, 217.4665
896.1091, 216.2777
896.5912, 214.8340
897.0734, 213.1969
897.5555, 211.3210
898.0376, 210.0589
898.5197, 209.4961
899.0018, 209.1076
899.4839, 208.6062
899.9661, 208.0092
900.4482, 207.2278
900.9303, 206.3217
901.4124, 205.6924
901.8945, 205.6864
902.3766, 205.8448
902.8588, 206.1300
903.3409, 206.4228
903.8230, 206.0968
904.3051, 204.9058
904.7872, 204.0618
905.2693, 204.0676
905.7515, 204.5110
906.2336, 204.4274
906.7157, 204.0651
907.1978, 204.1728
907.6799, 205.8752
908.1620, 207.0787
908.6442, 206.1359
909.1263, 204.3319
909.6084, 203.8931
910.0905, 205.6182
910.5726, 206.6009
911.0547, 206.4211
911.5369, 205.8580
912.0190, 206.0332
912.5011, 206.6592
912.9832, 206.8458
913.4653, 206.3686
913.9474, 205.9397
914.4296, 206.0244
914.9117, 206.3419
915.3938, 206.6570
915.8759, 206.9208
916.3580, 207.3494
916.8401, 208.0818
917.3223, 208.6262
917.8044, 208.6145
918.2865, 208.1370
918.7686, 207.4253
919.2507, 206.5156
919.7328, 205.6889
920.2150, 205.2315
920.6971, 204.8173
921.1792, 204.1121
921.6613, 203.2040
922.1434, 202.7897
922.6255, 203.1192
923.1077, 203.3944
923.5898, 203.4277
924.0719, 203.2216
924.5540, 202.6172
925.0361, 201.7373
925.5182, 201.1336
926.0004, 201.2788
926.4825, 201.2942
926.9646, 200.3583
927.4467, 199.0266
927.9288, 198.1792
928.4109, 198.2192
928.8931, 197.9741
929.3752, 197.2894
929.8573, 196.5224
930.3394, 196.0636
930.8215, 195.8626
931.3036, 195.7785
931.7858, 195.8109
932.2679, 195.7291
932.7500, 195.2038
933.2321, 194.6325
933.7142, 194.3229
934.1964, 194.3411
934.6785, 194.3813
935.1606, 194.4667
935.6427, 194.5270
936.1248, 194.5572
936.6069, 194.5242
937.0891, 194.2005
937.5712, 193.6643
938.0533, 193.3354
938.5354, 193.6535
939.0175, 194.0273
939.4996, 194.1127
939.9818, 193.9859
940.4639, 193.8648
940.9460, 193.6585
941.4281, 193.7462
941.9102, 194.3053
942.3923, 194.9659
942.8745, 195.0563
943.3566, 194.7552
943.8387, 194.5263
944.3208, 194.4138
944.8029, 194.6475
945.2850, 195.7934
945.7672, 197.0776
946.2493, 197.7229
946.7314, 197.5219
947.2135, 197.4859
947.6956, 197.6201
948.1777, 197.9082
948.6599, 198.5288
949.1420, 199.2424
949.6241, 199.3115
950.1062, 198.8134
950.5883, 198.4948
951.0704, 198.6585
951.5526, 199.1968
952.0347, 200.4335
952.5168, 202.0333
952.9989, 202.5903
953.4810, 201.8061
953.9631, 201.4245
954.4453, 202.0683
954.9274, 203.1404
955.4095, 203.7748
955.8916, 204.0608
956.3737, 204.1942
956.8558, 204.1950
957.3380, 204.1337
957.8201, 203.7731
958.3022, 203.5482
958.7843, 203.9272
959.2664, 205.0607
959.7485, 205.9492
960.2307, 206.5345
960.7128, 207.0718
961.1949, 207.8363
961.6770, 208.6678
962.1591, 209.3045
962.6412, 209.7451
963.1234, 210.2027
963.6055, 210.9792
964.0876, 211.5075
964.5697, 211.4300
965.0518, 210.9666
965.5339, 211.1975
966.0161, 212.1221
966.4982, 212.9353
966.9803, 213.2472
967.4624, 213.4423
967.9445, 214.0172
968.4266, 214.7531
968.9088, 215.2778
969.3909, 215.2777
969.8730, 215.3822
970.3551, 215.7331
970.8372, 216.0806
971.3193, 216.1431
971.8015, 215.9533
972.2836, 215.7957
972.7657, 215.6953
973.2478, 215.6180
973.7299, 215.5901
974.2120, 215.5354
974.6942, 215.3045
975.1763, 214.8938
975.6584, 214.8574
976.1405, 215.4938
976.6226, 215.8772
977.1047, 215.5447
977.5869, 214.8288
978.0690, 214.6111
978.5511, 214.8202
979.0332, 215.2038
979.5153, 215.8799
979.9974, 216.3855
980.4796, 216.2326
980.9617, 215.8655
981.4438, 215.9455
981.9259, 216.7331
982.4080, 217.1453
982.8901, 217.0353
983.3723, 216.9306
983.8544, 217.4995
984.3365, 218.4045
984.8186, 218.9110
985.3007, 218.9799
985.7828, 219.3155
986.2650, 220.5905
986.7471, 221.8210
987.2292, 222.4933
987.7113, 222.7504
988.1934, 223.4107
988.6755, 224.4939
989.1577, 225.4036
989.6398, 225.6264
990.1219, 226.0219
990.6040, 227.9952
991.0861, 230.7656
991.5682, 233.0075
992.0504, 233.7288
992.5325, 234.8675
993.0146, 236.7805
993.4967, 238.8679
993.9788, 240.5584
994.4609, 241.9167
994.9431, 243.5265
995.4252, 245.4258
995.9073, 247.3630
996.3894, 249.2198
996.8715, 251.0152
997.3536, 252.7239
997.8358, 254.3611
998.3179, 256.2343
998.8000, 258.4935
999.2821, 260.6090
999.7642, 262.4004
1000.246, 264.0451
1000.728, 265.9190
1001.211, 267.9054
1001.693, 269.6381
1002.175, 271.0149
1002.657, 272.1420
1003.139, 272.6608
1003.621, 273.2293
1004.103, 274.5470
1004.585, 276.8801
1005.068, 278.3786
1005.550, 279.0112
1006.032, 279.2023
1006.514, 279.2434
1006.996, 279.0519
1007.478, 278.3913
1007.960, 277.3453
1008.442, 276.4277
1008.924, 275.4104
1009.407, 275.0882
1009.889, 276.0099
1010.371, 277.3475
1010.853, 277.3152
1011.335, 276.0762
1011.817, 274.6542
1012.299, 273.2203
1012.781, 271.9286
1013.263, 271.1201
1013.746, 270.3627
1014.228, 269.1858
1014.710, 267.4684
1015.192, 265.9214
1015.674, 264.6157
1016.156, 263.2714
1016.638, 261.6356
1017.120, 259.8629
1017.603, 258.3784
1018.085, 257.0596
1018.567, 255.5286
1019.049, 253.0943
1019.531, 251.0476
1020.013, 249.9359
1020.495, 249.2703
1020.977, 248.4377
1021.459, 247.4366
1021.942, 246.0760
1022.424, 244.2786
1022.906, 242.4958
1023.388, 241.3138
1023.870, 240.2286
1024.352, 238.6363
1024.834, 236.4284
1025.316, 234.5921
1025.799, 233.2935
1026.281, 232.1532
1026.763, 230.9844
1027.245, 229.9139
1027.727, 229.5262
1028.209, 229.5091
1028.691, 228.7578
1029.173, 226.1541
1029.656, 223.8226
1030.138, 223.1486
1030.620, 223.0080
1031.102, 222.1837
1031.584, 220.5298
1032.066, 218.9013
1032.548, 217.2848
1033.030, 215.8839
1033.512, 214.8314
1033.995, 214.1240
1034.477, 214.0815
1034.959, 214.5217
1035.441, 214.2970
1035.923, 212.5687
1036.405, 211.0177
1036.887, 209.9799
1037.369, 209.2754
1037.851, 208.5712
1038.334, 207.8869
1038.816, 207.2725
1039.298, 206.7744
1039.780, 206.1875
1040.262, 205.2625
1040.744, 204.2863
1041.226, 203.5305
1041.708, 203.0144
1042.191, 202.1804
1042.673, 200.9513
1043.155, 199.9879
1043.637, 199.7357
1044.119, 199.8641
1044.601, 200.1188
1045.083, 200.3720
1045.565, 200.3234
1046.047, 199.5363
1046.530, 198.9506
1047.012, 198.7263
1047.494, 198.6084
1047.976, 198.2934
1048.458, 197.8278
1048.940, 197.4240
1049.422, 197.0990
1049.904, 196.9392
1050.386, 197.1716
1050.869, 197.4217
1051.351, 197.5216
1051.833, 197.4490
1052.315, 197.0723
1052.797, 196.3516
1053.279, 195.5798
1053.761, 194.7757
1054.243, 194.0774
1054.726, 193.6401
1055.208, 193.4246
1055.690, 193.4378
1056.172, 193.8586
1056.654, 193.8858
1057.136, 193.2638
1057.618, 192.6171
1058.100, 192.3404
1058.583, 192.3365
1059.065, 192.3120
1059.547, 192.2324
1060.029, 191.9348
1060.511, 191.0854
1060.993, 190.2988
1061.475, 189.8702
1061.957, 189.6408
1062.439, 189.3915
1062.922, 189.1090
1063.404, 189.0658
1063.886, 189.3478
1064.368, 189.2413
1064.850, 187.6610
1065.332, 185.6966
1065.814, 184.5026
1066.296, 184.0994
1066.778, 183.4721
1067.261, 182.3228
1067.743, 181.4196
1068.225, 181.0469
1068.707, 180.8684
1069.189, 180.2509
1069.671, 179.3481
1070.153, 178.5053
1070.635, 177.7978
1071.118, 177.2095
1071.600, 176.9174
1072.082, 176.5880
1072.564, 176.0255
1073.046, 175.2530
1073.528, 174.4458
1074.010, 173.6165
1074.492, 172.8183
1074.974, 172.0264
1075.457, 171.3517
1075.939, 171.0661
1076.421, 170.8911
1076.903, 170.2702
1077.385, 168.8161
1077.867, 168.1753
1078.349, 168.6116
1078.831, 169.0400
1079.313, 168.3098
1079.796, 167.0085
1080.278, 165.9070
1080.760, 165.0479
1081.242, 164.4436
1081.724, 164.4251
1082.206, 164.2135
1082.688, 163.5691
1083.170, 162.7711
1083.652, 162.3575
1084.135, 162.2399
1084.617, 162.1414
1085.099, 162.0379
1085.581, 161.7411
1086.063, 160.7600
1086.545, 159.9152
1087.027, 159.8203
1087.509, 160.3713
1087.992, 160.4619
1088.474, 160.0876
1088.956, 159.6218
1089.438, 159.0875
1089.920, 158.7473
1090.402, 159.1568
1090.884, 159.7853
1091.366, 159.8855
1091.849, 159.2159
1092.331, 158.3439
1092.813, 157.1492
1093.295, 156.1595
1093.777, 155.8480
1094.259, 155.9629
1094.741, 156.1898
1095.223, 156.4374
1095.705, 156.4164
1096.188, 155.7386
1096.670, 155.1599
1097.152, 154.8389
1097.634, 154.6126
1098.116, 154.2149
1098.598, 153.7117
1099.080, 153.5132
1099.562, 153.6481
1100.044, 153.6113
1100.527, 152.6689
1101.009, 151.9088
1101.491, 152.1502
1101.973, 152.9990
1102.455, 153.2153
1102.937, 152.7987
1103.419, 152.1364
1103.901, 151.1806
1104.384, 150.6072
1104.866, 151.6991
1105.348, 153.1042
1105.830, 153.3385
1106.312, 152.0768
1106.794, 151.2554
1107.276, 150.9633
1107.758, 150.7487
1108.240, 150.3862
1108.723, 149.9977
1109.205, 149.6641
1109.687, 149.4651
1110.169, 149.5777
1110.651, 150.5053
1111.133, 150.8630
1111.615, 150.3791
1112.097, 149.6632
1112.579, 149.0453
1113.062, 148.5893
1113.544, 148.7225
1114.026, 149.2935
1114.508, 149.5626
1114.990, 148.8408
1115.472, 148.1660
1115.954, 147.8705
1116.436, 147.7942
1116.919, 147.8012
1117.401, 147.8787
1117.883, 147.8611
1118.365, 147.7354
1118.847, 147.4016
1119.329, 146.5721
1119.811, 145.7132
1120.293, 145.0389
1120.776, 144.5986
1121.258, 144.6421
1121.740, 145.2474
1122.222, 145.5181
1122.704, 145.2108
1123.186, 144.7586
1123.668, 144.4935
1124.150, 144.3852
1124.632, 144.4591
1125.115, 144.7417
1125.597, 144.8079
1126.079, 144.5689
1126.561, 144.4246
1127.043, 144.6418
1127.525, 144.8518
1128.007, 144.2370
1128.489, 143.2514
1128.971, 142.7083
1129.454, 143.0282
1129.936, 143.1919
1130.418, 143.0133
1130.900, 142.8383
1131.382, 142.8715
1131.864, 143.0700
1132.346, 143.5095
1132.828, 144.0200
1133.311, 144.0406
1133.793, 142.5615
1134.275, 141.6005
1134.757, 141.8985
1135.239, 142.5351
1135.721, 142.6035
1136.203, 142.1964
1136.685, 142.2179
1137.167, 142.6431
1137.650, 142.9463
1138.132, 142.4966
1138.614, 142.1900
1139.096, 142.7477
1139.578, 143.6010
1140.060, 143.8157
1140.542, 143.3820
1141.024, 142.9075
1141.506, 142.4480
1141.989, 142.1422
1142.471, 142.1724
1142.953, 142.3361
1143.435, 142.3414
1143.917, 142.3304
1144.399, 143.0870
1144.881, 144.7810
1145.363, 146.0804
1145.846, 146.6848
1146.328, 146.7645
1146.810, 146.0608
1147.292, 145.2005
1147.774, 144.9813
1148.256, 145.5637
1148.738, 145.4809
1149.220, 144.5072
1149.703, 143.5817
1150.185, 142.9750
1150.667, 142.6882
1151.149, 143.0259
1151.631, 143.5656
1152.113, 143.5205
1152.595, 142.3512
1153.077, 142.0848
1153.559, 143.3054
1154.042, 144.3099
1154.524, 144.0690
1155.006, 143.1313
1155.488, 142.5356
1155.970, 142.2532
1156.452, 142.2599
1156.934, 142.9165
1157.416, 143.1468
1157.898, 142.6418
1158.381, 142.0277
1158.863, 141.7524
1159.345, 141.7594
1159.827, 141.9278
1160.309, 142.1947
1160.791, 142.3022
1161.273, 141.9617
1161.755, 141.6727
1162.238, 141.6457
1162.720, 141.6227
1163.202, 141.2191
1163.684, 140.5384
1164.166, 140.3648
1164.648, 140.6643
1165.130, 140.7984
1165.612, 140.1557
1166.094, 139.5572
1166.577, 139.4744
1167.059, 139.5648
1167.541, 139.2332
1168.023, 138.5272
1168.505, 138.0965
1168.987, 138.0078
1169.469, 137.9885
1169.951, 137.9411
1170.433, 137.8147
1170.916, 137.3981
1171.398, 136.9236
1171.880, 137.1062
1172.362, 137.9333
1172.844, 138.3679
1173.326, 138.1718
1173.808, 137.8872
1174.290, 138.0916
1174.773, 138.2778
1175.255, 137.9893
1175.737, 137.3059
1176.219, 136.5151
1176.701, 135.5777
1177.183, 135.3513
1177.665, 136.2540
1178.147, 137.2602
1178.630, 137.4022
1179.112, 137.1590
1179.594, 136.9368
1180.076, 136.7682
1180.558, 136.7161
1181.040, 136.7860
1181.522, 136.9752
1182.004, 137.4573
1182.486, 137.6792
1182.969, 136.5864
1183.451, 135.1415
1183.933, 134.5686
1184.415, 135.1172
1184.897, 135.7266
1185.379, 136.4728
1185.861, 136.7779
1186.343, 136.0202
1186.825, 135.1105
1187.308, 135.2981
1187.790, 136.0039
1188.272, 136.3176
1188.754, 136.0223
1189.236, 135.5567
1189.718, 134.8687
1190.200, 134.3055
1190.682, 134.1505
1191.165, 134.2021
1191.647, 134.2421
1192.129, 134.2823
1192.611, 134.3480
1193.093, 134.4637
1193.575, 134.5467
1194.057, 134.5742
1194.539, 134.6618
1195.021, 135.0829
1195.504, 135.4919
1195.986, 135.1892
1196.468, 134.4775
1196.950, 134.2999
1197.432, 135.2793
1197.914, 135.6945
1198.396, 135.3409
1198.878, 134.7788
1199.360, 134.3924
1199.843, 134.2248
1200.325, 134.5643
1200.807, 135.2236
1201.289, 135.3840
1201.771, 134.4758
1202.253, 134.1417
1202.735, 134.7364
1203.217, 135.3810
1203.700, 134.7907
1204.182, 133.8179
1204.664, 133.7992
1205.146, 134.6611
1205.628, 135.3130
1206.110, 135.4917
1206.592, 135.6395
1207.074, 135.7884
1207.557, 136.0298
1208.039, 136.7406
1208.521, 137.4688
1209.003, 137.5300
1209.485, 136.8884
1209.967, 135.9923
1210.449, 134.5494
1210.931, 133.7691
1211.413, 134.0291
1211.896, 134.6896
1212.378, 134.9864
1212.860, 135.0761
1213.342, 135.2168
1213.824, 135.4386
1214.306, 135.3569
1214.788, 134.7280
1215.270, 134.4243
1215.752, 134.7778
1216.235, 135.2948
1216.717, 135.3622
1217.199, 135.0891
1217.681, 134.5170
1218.163, 133.6112
1218.645, 133.1451
1219.127, 133.3360
1219.609, 133.4178
1220.092, 133.1119
1220.574, 132.6651
1221.056, 132.2718
1221.538, 132.0589
1222.020, 132.2475
1222.502, 132.9207
1222.984, 133.7088
1223.466, 134.7359
1223.948, 135.3397
1224.431, 135.1402
1224.913, 134.6800
1225.395, 134.9031
1225.877, 135.2962
1226.359, 135.0766
1226.841, 133.9309
1227.323, 133.0985
1227.805, 132.5960
1228.287, 132.4169
1228.770, 132.7162
1229.252, 133.0462
1229.734, 132.6969
1230.216, 132.0414
1230.698, 131.5754
1231.180, 131.3952
1231.662, 131.2887
1232.144, 131.2398
1232.627, 131.3602
1233.109, 131.7452
1233.591, 132.2527
1234.073, 132.9128
1234.555, 133.4962
1235.037, 133.7115
1235.519, 133.5616
1236.001, 132.7031
1236.484, 130.9872
1236.966, 130.0285
1237.448, 131.2214
1237.930, 132.6356
1238.412, 132.0392
1238.894, 130.6096
1239.376, 129.9282
1239.858, 130.0966
1240.340, 130.8311
1240.823, 132.1634
1241.305, 133.0235
1241.787, 132.5901
1242.269, 131.7940
1242.751, 131.0368
1243.233, 130.6181
1243.715, 131.0298
1244.197, 132.3980
1244.679, 133.1191
1245.162, 133.2068
1245.644, 133.0512
1246.126, 132.7936
1246.608, 132.4620
1247.090, 132.0471
1247.572, 131.5826
1248.054, 131.0970
1248.536, 130.5821
1249.019, 130.1733
1249.501, 129.8792
1249.983, 129.7638
1250.465, 129.8141
1250.947, 130.1184
1251.429, 131.1640
1251.911, 132.1289
1252.393, 132.0794
1252.875, 131.0973
1253.358, 130.8943
1253.840, 131.3608
1254.322, 131.7678
1254.804, 131.6290
1255.286, 131.4986
1255.768, 131.6135
1256.250, 131.7618
1256.732, 131.7424
1257.214, 131.5960
1257.697, 131.6154
1258.179, 131.7529
1258.661, 131.7787
1259.143, 131.5688
1259.625, 131.2497
1260.107, 130.7330
1260.589, 130.3087
1261.071, 130.1529
1261.554, 130.3010
1262.036, 131.1495
1262.518, 132.4237
1263.000, 133.2226
1263.482, 132.9964
1263.964, 132.5046
1264.446, 131.6630
1264.928, 130.9424
1265.411, 130.8032
1265.893, 131.0249
1266.375, 131.3264
1266.857, 131.6227
1267.339, 131.6942
1267.821, 131.3228
1268.303, 130.9968
1268.785, 130.7057
1269.267, 130.5488
1269.750, 130.6201
1270.232, 130.8631
1270.714, 131.3975
1271.196, 132.0139
1271.678, 132.1684
1272.160, 131.5993
1272.642, 131.3649
1273.124, 131.5303
1273.606, 131.6708
1274.089, 131.4298
1274.571, 131.0726
1275.053, 130.6518
1275.535, 130.3651
1276.017, 130.6426
1276.499, 131.6903
1276.981, 131.6468
1277.463, 130.4987
1277.946, 129.7791
1278.428, 131.2785
1278.910, 132.6494
1279.392, 132.0735
1279.874, 130.7927
1280.356, 130.2834
1280.838, 130.5319
1281.320, 130.5622
1281.802, 130.3712
1282.285, 130.0787
1282.767, 129.4452
1283.249, 129.1235
1283.731, 129.5805
1284.213, 130.1855
1284.695, 130.2720
1285.177, 130.0271
1285.659, 130.5015
1286.141, 131.5110
1286.624, 132.2618
1287.106, 132.2042
1287.588, 132.1653
1288.070, 132.2932
1288.552, 132.3987
1289.034, 132.2338
1289.516, 131.9754
1289.998, 132.1125
1290.481, 132.4842
1290.963, 132.6716
1291.445, 132.3345
1291.927, 132.2720
1292.409, 132.6160
1292.891, 132.7269
1293.373, 131.8931
1293.855, 130.7732
1294.338, 130.0356
1294.820, 129.6774
1295.302, 129.7881
1295.784, 130.5388
1296.266, 130.8723
1296.748, 130.7619
1297.230, 130.7096
1297.712, 131.0544
1298.194, 131.5367
1298.677, 132.2224
1299.159, 132.7262
1299.641, 132.5367
1300.123, 131.6285
1300.605, 130.9641
1301.087, 130.5472
1301.569, 130.4419
1302.051, 131.0431
1302.533, 131.3616
1303.016, 131.0495
##END=



