##NAMES=Whewellite
##RRUFFID=R050240
##IDEAL CHEMISTRY=Ca(C_2_)^6+^O_4_&#183;H_2_O
##LOCALITY=Huron River, Milan, Ohio, USA
##OWNER=RRUFF
##SOURCE=Marcus Origlieri
##DESCRIPTION=White fragment
##STATUS=The identification of this mineral has been confirmed by X-ray diffraction and chemical analysis
##URL=rruff.info/R050240
##MEASURED CHEMISTRY=Ca_1.00_C_2_O_4_Â·H_2_O
142.6650, 76207.38
143.1472, 76413.00
143.6293, 76573.95
144.1114, 76697.14
144.5935, 76801.78
145.0756, 76883.20
145.5577, 76949.16
146.0399, 77024.55
146.5220, 77103.45
147.0041, 77207.41
147.4862, 77363.24
147.9683, 77567.23
148.4504, 77763.99
148.9326, 77890.66
149.4147, 77938.10
149.8968, 78019.87
150.3789, 78169.15
150.8610, 78353.97
151.3431, 78577.34
151.8252, 78837.55
152.3074, 79098.20
152.7895, 79293.52
153.2716, 79378.62
153.7537, 79496.09
154.2358, 79671.28
154.7179, 79876.99
155.2001, 80103.05
155.6822, 80346.66
156.1643, 80587.62
156.6464, 80763.68
157.1285, 80799.09
157.6106, 80852.03
158.0928, 80951.36
158.5749, 81075.19
159.0570, 81195.41
159.5391, 81296.30
160.0212, 81377.88
160.5033, 81432.53
160.9855, 81456.41
161.4676, 81462.64
161.9497, 81454.08
162.4318, 81431.01
162.9139, 81390.99
163.3960, 81328.68
163.8782, 81243.12
164.3603, 81174.20
164.8424, 81202.52
165.3245, 81185.74
165.8066, 81007.40
166.2887, 80664.37
166.7709, 80273.48
167.2530, 79929.37
167.7351, 79632.76
168.2172, 79367.66
168.6993, 79133.59
169.1814, 78929.99
169.6636, 78767.30
170.1457, 78656.84
170.6278, 78549.51
171.1099, 78374.41
171.5920, 78145.82
172.0741, 77947.11
172.5563, 77811.16
173.0384, 77729.64
173.5205, 77690.44
174.0026, 77729.28
174.4847, 77755.20
174.9668, 77668.66
175.4490, 77479.49
175.9311, 77312.70
176.4132, 77280.21
176.8953, 77377.23
177.3774, 77428.58
177.8595, 77336.49
178.3417, 77244.48
178.8238, 77241.19
179.3059, 77334.97
179.7880, 77482.46
180.2701, 77635.65
180.7522, 77788.61
181.2344, 77975.98
181.7165, 78192.68
182.1986, 78449.84
182.6807, 78803.30
183.1628, 79259.50
183.6449, 79702.09
184.1271, 79910.98
184.6092, 79720.30
185.0913, 79618.55
185.5734, 79677.52
186.0555, 79819.81
186.5376, 79997.13
187.0198, 80189.46
187.5019, 80378.08
187.9840, 80514.71
188.4661, 80519.69
188.9482, 80571.62
189.4303, 80683.20
189.9125, 80848.12
190.3946, 81069.64
190.8767, 81354.89
191.3588, 81681.09
191.8409, 81948.31
192.3230, 82057.77
192.8052, 82216.85
193.2873, 82473.01
193.7694, 82801.95
194.2515, 83184.04
194.7336, 83630.03
195.2157, 84111.22
195.6979, 84333.88
196.1800, 84245.96
196.6621, 84025.43
197.1442, 83690.23
197.6263, 83265.54
198.1084, 82811.48
198.5906, 82365.26
199.0727, 81923.92
199.5548, 81450.59
200.0369, 80898.45
200.5190, 80360.69
201.0011, 79879.22
201.4833, 79457.04
201.9654, 79092.32
202.4475, 78784.95
202.9296, 78542.18
203.4117, 78344.20
203.8938, 78238.13
204.3760, 78147.58
204.8581, 77993.70
205.3402, 77768.45
205.8223, 77547.98
206.3044, 77396.10
206.7865, 77299.84
207.2687, 77216.55
207.7508, 77157.24
208.2329, 77099.67
208.7150, 77013.73
209.1971, 76895.63
209.6792, 76757.07
210.1614, 76562.45
210.6435, 76347.13
211.1256, 76209.69
211.6077, 76258.26
212.0898, 76400.88
212.5719, 76429.88
213.0541, 76300.60
213.5362, 76125.03
214.0183, 75962.99
214.5004, 75816.15
214.9825, 75691.70
215.4646, 75597.00
215.9468, 75529.23
216.4289, 75479.76
216.9110, 75455.13
217.3931, 75441.70
217.8752, 75440.67
218.3573, 75445.36
218.8395, 75436.52
219.3216, 75396.80
219.8037, 75328.91
220.2858, 75259.55
220.7679, 75167.44
221.2500, 75100.63
221.7322, 75093.88
222.2143, 75133.45
222.6964, 75175.57
223.1785, 75179.15
223.6606, 75141.55
224.1427, 75125.11
224.6249, 75147.23
225.1070, 75176.77
225.5891, 75216.23
226.0712, 75256.21
226.5533, 75272.51
227.0354, 75225.63
227.5176, 75097.13
227.9997, 75033.09
228.4818, 75103.65
228.9639, 75180.45
229.4460, 75204.21
229.9281, 75180.95
230.4103, 75159.05
230.8924, 75198.02
231.3745, 75325.15
231.8566, 75387.70
232.3387, 75339.09
232.8208, 75270.90
233.3030, 75222.90
233.7851, 75197.45
234.2672, 75175.06
234.7493, 75132.21
235.2314, 75058.45
235.7135, 75004.44
236.1957, 74999.85
236.6778, 74988.59
237.1599, 74926.71
237.6420, 74819.83
238.1241, 74715.87
238.6062, 74673.63
239.0884, 74719.20
239.5705, 74743.01
240.0526, 74730.28
240.5347, 74711.42
241.0168, 74703.85
241.4989, 74709.34
241.9811, 74717.80
242.4632, 74713.39
242.9453, 74675.16
243.4274, 74696.52
243.9095, 74825.85
244.3916, 74968.91
244.8738, 75075.42
245.3559, 75134.60
245.8380, 75155.30
246.3201, 75141.48
246.8022, 75068.64
247.2843, 75044.94
247.7665, 75100.49
248.2486, 75178.83
248.7307, 75244.02
249.2128, 75290.09
249.6949, 75327.65
250.1770, 75370.02
250.6592, 75423.73
251.1413, 75454.47
251.6234, 75438.70
252.1055, 75417.27
252.5876, 75416.57
253.0697, 75441.20
253.5519, 75486.91
254.0340, 75551.47
254.5161, 75641.59
254.9982, 75724.87
255.4803, 75799.47
255.9624, 75868.27
256.4445, 75931.98
256.9267, 75990.95
257.4088, 76048.16
257.8909, 76107.09
258.3730, 76168.45
258.8551, 76225.21
259.3372, 76282.15
259.8194, 76331.19
260.3015, 76371.83
260.7836, 76402.60
261.2657, 76409.63
261.7478, 76378.20
262.2299, 76301.75
262.7121, 76208.10
263.1942, 76100.50
263.6763, 75974.56
264.1584, 75810.18
264.6405, 75609.09
265.1227, 75421.81
265.6048, 75295.59
266.0869, 75236.90
266.5690, 75193.54
267.0511, 75192.84
267.5332, 75188.18
268.0154, 75127.94
268.4975, 75011.60
268.9796, 74900.56
269.4617, 74850.48
269.9438, 74861.38
270.4259, 74852.53
270.9081, 74819.77
271.3902, 74767.80
271.8723, 74692.82
272.3544, 74595.76
272.8365, 74497.13
273.3186, 74405.59
273.8008, 74325.61
274.2829, 74274.46
274.7650, 74277.73
275.2471, 74291.54
275.7292, 74291.80
276.2113, 74276.68
276.6935, 74235.83
277.1756, 74151.46
277.6577, 74032.25
278.1398, 73943.91
278.6219, 73905.72
279.1040, 73882.79
279.5862, 73859.56
280.0683, 73834.18
280.5504, 73792.23
281.0325, 73712.95
281.5146, 73612.49
281.9967, 73554.02
282.4789, 73556.12
282.9610, 73580.93
283.4431, 73614.39
283.9252, 73653.93
284.4073, 73688.53
284.8894, 73721.38
285.3716, 73737.86
285.8537, 73700.82
286.3358, 73547.95
286.8179, 73421.39
287.3000, 73447.13
287.7821, 73581.91
288.2643, 73639.65
288.7464, 73502.90
289.2285, 73263.05
289.7106, 73150.91
290.1927, 73208.38
290.6748, 73302.67
291.1570, 73407.35
291.6391, 73506.01
292.1212, 73539.48
292.6033, 73469.17
293.0854, 73342.34
293.5675, 73258.11
294.0497, 73231.28
294.5318, 73198.31
295.0139, 73099.84
295.4960, 72976.88
295.9781, 72939.66
296.4602, 73047.43
296.9424, 73205.38
297.4245, 73232.34
297.9066, 73104.63
298.3887, 73001.02
298.8708, 72994.38
299.3529, 73044.73
299.8351, 73083.78
300.3172, 73092.98
300.7993, 73089.05
301.2814, 73093.72
301.7635, 73106.30
302.2456, 73122.30
302.7278, 73147.39
303.2099, 73172.38
303.6920, 73185.97
304.1741, 73186.07
304.6562, 73172.20
305.1383, 73130.45
305.6205, 73057.04
306.1026, 73027.87
306.5847, 73107.69
307.0668, 73207.35
307.5489, 73223.48
308.0310, 73143.45
308.5132, 73048.13
308.9953, 73013.78
309.4774, 73043.99
309.9595, 73058.90
310.4416, 73055.70
310.9237, 73036.48
311.4059, 72987.50
311.8880, 72913.75
312.3701, 72860.26
312.8522, 72866.64
313.3343, 72930.52
313.8164, 72976.26
314.2986, 72978.92
314.7807, 72985.63
315.2628, 73046.83
315.7449, 73144.11
316.2270, 73194.33
316.7091, 73130.98
317.1913, 72981.79
317.6734, 72911.70
318.1555, 73005.72
318.6376, 73074.84
319.1197, 73008.46
319.6018, 72861.66
320.0840, 72768.57
320.5661, 72800.66
321.0482, 72919.03
321.5303, 72996.90
322.0124, 73034.27
322.4945, 73040.89
322.9767, 73009.53
323.4588, 72951.01
323.9409, 72867.11
324.4230, 72754.34
324.9051, 72649.95
325.3872, 72633.06
325.8694, 72770.60
326.3515, 72878.21
326.8336, 72944.10
327.3157, 72972.96
327.7978, 72962.77
328.2799, 72914.30
328.7621, 72844.13
329.2442, 72771.10
329.7263, 72684.67
330.2084, 72627.91
330.6905, 72629.26
331.1726, 72638.48
331.6548, 72610.72
332.1369, 72545.97
332.6190, 72484.84
333.1011, 72471.22
333.5832, 72516.48
334.0653, 72546.31
334.5475, 72562.19
335.0296, 72564.80
335.5117, 72553.96
335.9938, 72530.23
336.4759, 72491.85
336.9580, 72434.10
337.4402, 72357.70
337.9223, 72310.75
338.4044, 72316.49
338.8865, 72325.41
339.3686, 72323.08
339.8507, 72315.39
340.3329, 72318.21
340.8150, 72342.82
341.2971, 72378.09
341.7792, 72373.83
342.2613, 72120.61
342.7434, 72275.19
343.2256, 72356.93
343.7077, 72369.77
344.1898, 72107.28
344.6719, 72200.31
345.1540, 72150.87
345.6361, 72095.59
346.1183, 72238.65
346.6004, 72016.21
347.0825, 72156.13
347.5646, 72151.41
348.0467, 72212.88
348.5288, 72131.01
349.0110, 72093.41
349.4931, 72199.20
349.9752, 72225.60
350.4573, 72127.23
350.9394, 72192.91
351.4215, 71965.46
351.9037, 71995.24
352.3858, 72136.00
352.8679, 72044.83
353.3500, 72113.14
353.8321, 72120.70
354.3142, 71852.25
354.7964, 72063.82
355.2785, 72067.80
355.7606, 71858.62
356.2427, 72053.75
356.7248, 71873.95
357.2069, 71827.98
357.6891, 71882.73
358.1712, 71832.48
358.6533, 71947.77
359.1354, 71903.58
359.6175, 71845.15
360.0996, 71848.90
360.5818, 71676.45
361.0639, 71830.88
361.5460, 71762.02
362.0281, 71804.16
362.5102, 71871.45
362.9923, 71746.11
363.4745, 71824.70
363.9566, 71587.05
364.4387, 71614.01
364.9208, 71612.48
365.4029, 71780.08
365.8850, 71543.98
366.3672, 71563.58
366.8493, 71692.07
367.3314, 71668.21
367.8135, 71708.05
368.2956, 71559.32
368.7777, 71587.73
369.2599, 71514.69
369.7420, 71508.17
370.2241, 71548.22
370.7062, 71574.09
371.1883, 71579.60
371.6704, 71568.11
372.1526, 71525.83
372.6347, 71462.82
373.1168, 71437.94
373.5989, 71503.98
374.0810, 71576.76
374.5631, 71574.65
375.0453, 71504.91
375.5274, 71445.69
376.0095, 71450.74
376.4916, 71499.03
376.9737, 71499.39
377.4558, 71414.27
377.9380, 71329.97
378.4201, 71272.31
378.9022, 71237.62
379.3843, 71226.91
379.8664, 71244.16
380.3485, 71267.19
380.8307, 71245.30
381.3128, 71118.58
381.7949, 71059.46
382.2770, 71134.13
382.7591, 71250.86
383.2412, 71332.73
383.7234, 71361.84
384.2055, 71346.54
384.6876, 71289.19
385.1697, 71168.63
385.6518, 71099.51
386.1339, 71109.50
386.6161, 71135.54
387.0982, 71165.61
387.5803, 71186.89
388.0624, 71170.78
388.5445, 70947.41
389.0266, 71107.05
389.5088, 71193.87
389.9909, 71211.77
390.4730, 70954.36
390.9551, 71052.46
391.4372, 71008.09
391.9193, 70957.88
392.4015, 71106.01
392.8836, 70888.64
393.3657, 71033.63
393.8478, 71033.98
394.3299, 71100.52
394.8120, 71023.71
395.2942, 70991.18
395.7763, 71102.05
396.2584, 71133.52
396.7405, 71040.20
397.2226, 71110.95
397.7047, 70888.58
398.1869, 70923.43
398.6690, 71069.26
399.1511, 70983.16
399.6332, 71056.53
400.1153, 71069.16
400.5974, 70805.77
401.0796, 71022.42
401.5617, 71031.47
402.0438, 70827.35
402.5259, 71027.55
403.0080, 70852.83
403.4901, 70811.92
403.9723, 70871.73
404.4544, 70826.55
404.9365, 70946.91
405.4186, 70907.79
405.9007, 70854.43
406.3828, 70863.24
406.8650, 70695.87
407.3471, 70855.36
407.8292, 70791.57
408.3113, 70838.77
408.7934, 70911.12
409.2755, 70790.86
409.7577, 70874.52
410.2398, 70641.94
410.7219, 70673.97
411.2040, 70677.50
411.6861, 70850.17
412.1682, 70619.13
412.6504, 70643.80
413.1325, 70777.36
413.6146, 70758.57
414.0967, 70803.48
414.5788, 70659.81
415.0609, 70693.29
415.5431, 70677.95
416.0252, 70831.33
416.5073, 70851.51
416.9894, 70711.05
417.4715, 70571.26
417.9536, 70736.79
418.4358, 70612.94
418.9179, 70645.20
419.4000, 70516.23
419.8821, 70526.47
420.3642, 70534.51
420.8463, 70613.91
421.3285, 70476.91
421.8106, 70620.62
422.2927, 70602.09
422.7748, 70631.35
423.2569, 70655.29
423.7390, 70534.08
424.2212, 70457.63
424.7033, 70389.60
425.1854, 70331.63
425.6675, 70293.24
426.1496, 70270.55
426.6317, 70275.96
427.1139, 70328.98
427.5960, 70403.35
428.0781, 70465.16
428.5602, 70499.58
429.0423, 70525.98
429.5244, 70586.02
430.0066, 70681.90
430.4887, 70714.35
430.9708, 70623.05
431.4529, 70484.62
431.9350, 70380.05
432.4171, 70309.37
432.8993, 70271.10
433.3814, 70280.76
433.8635, 70318.66
434.3456, 70363.06
434.8277, 70416.85
435.3098, 70427.76
435.7920, 70322.91
436.2741, 70115.57
436.7562, 69991.70
437.2383, 70003.65
437.7204, 70057.87
438.2025, 70133.84
438.6847, 70210.73
439.1668, 70224.77
439.6489, 70134.28
440.1310, 69990.49
440.6131, 69933.68
441.0952, 70064.11
441.5774, 70140.98
442.0595, 70106.27
442.5416, 70041.05
443.0237, 70023.75
443.5058, 70064.91
443.9879, 70117.44
444.4701, 70126.97
444.9522, 70085.03
445.4343, 70059.95
445.9164, 70078.38
446.3985, 70086.75
446.8806, 70058.03
447.3628, 70007.95
447.8449, 69969.16
448.3270, 69962.30
448.8091, 69969.33
449.2912, 69936.77
449.7733, 69838.20
450.2555, 69774.16
450.7376, 69804.83
451.2197, 69858.89
451.7018, 69883.67
452.1839, 69870.77
452.6660, 69849.75
453.1482, 69846.89
453.6303, 69857.08
454.1124, 69855.71
454.5945, 69838.62
455.0766, 69813.43
455.5587, 69787.16
456.0409, 69758.58
456.5230, 69721.62
457.0051, 69654.99
457.4872, 69594.52
457.9693, 69572.29
458.4514, 69585.34
458.9336, 69622.62
459.4157, 69691.29
459.8978, 69765.07
460.3799, 69764.69
460.8620, 69642.08
461.3441, 69548.83
461.8262, 69529.93
462.3083, 69542.41
462.7905, 69539.13
463.2726, 69512.51
463.7547, 69490.21
464.2368, 69506.00
464.7189, 69568.91
465.2010, 69587.05
465.6832, 69502.94
466.1653, 69437.48
466.6474, 69429.88
467.1295, 69467.09
467.6116, 69533.04
468.0938, 69623.17
468.5759, 69712.24
469.0580, 69737.51
469.5401, 69676.20
470.0222, 69615.98
470.5043, 69572.09
470.9865, 69534.10
471.4686, 69484.58
471.9507, 69427.30
472.4328, 69399.37
472.9149, 69454.05
473.3970, 69563.38
473.8792, 69620.52
474.3613, 69606.75
474.8434, 69583.14
475.3255, 69592.74
475.8076, 69620.16
476.2897, 69632.64
476.7719, 69611.82
477.2540, 69592.65
477.7361, 69603.20
478.2182, 69635.58
478.7003, 69663.31
479.1824, 69675.23
479.6646, 69687.71
480.1467, 69731.00
480.6288, 69825.75
481.1109, 69885.09
481.5930, 69862.80
482.0751, 69836.38
482.5573, 69869.38
483.0394, 69954.04
483.5215, 70039.69
484.0036, 70090.07
484.4857, 70109.52
484.9678, 70126.90
485.4500, 70127.32
485.9321, 70145.57
486.4142, 70164.77
486.8963, 70213.68
487.3784, 70348.16
487.8605, 70572.08
488.3427, 70786.16
488.8248, 70863.65
489.3069, 70798.19
489.7890, 70743.56
490.2711, 70711.90
490.7532, 70686.62
491.2354, 70643.20
491.7175, 70598.55
492.1996, 70596.35
492.6817, 70699.67
493.1638, 70806.15
493.6459, 70759.48
494.1281, 70573.66
494.6102, 70449.60
495.0923, 70480.12
495.5744, 70591.01
496.0565, 70652.70
496.5386, 70655.57
497.0208, 70664.92
497.5029, 70711.76
497.9850, 70761.77
498.4671, 70766.73
498.9492, 70730.04
499.4313, 70710.25
499.9135, 70759.88
500.3956, 70870.80
500.8777, 70938.17
501.3598, 70915.70
501.8419, 70904.90
502.3240, 70928.83
502.8062, 70969.89
503.2883, 71005.45
503.7704, 71029.75
504.2525, 71058.64
504.7346, 71116.97
505.2167, 71209.98
505.6989, 71296.41
506.1810, 71373.42
506.6631, 71446.08
507.1452, 71513.09
507.6273, 71578.16
508.1094, 71651.48
508.5916, 71748.02
509.0737, 71841.44
509.5558, 71895.88
510.0379, 71911.61
510.5200, 71903.89
511.0021, 71872.27
511.4843, 71825.22
511.9664, 71774.59
512.4485, 71720.56
512.9306, 71662.50
513.4127, 71632.23
513.8948, 71577.50
514.3770, 71424.93
514.8591, 71183.59
515.3412, 70942.88
515.8233, 70766.03
516.3054, 70642.42
516.7875, 70508.69
517.2697, 70351.84
517.7518, 70200.07
518.2339, 70071.89
518.7160, 69940.47
519.1981, 69767.42
519.6802, 69550.69
520.1624, 69338.67
520.6445, 69186.34
521.1266, 69095.01
521.6087, 69011.70
522.0908, 68945.57
522.5729, 68874.46
523.0551, 68795.97
523.5372, 68705.18
524.0193, 68587.19
524.5014, 68419.47
524.9835, 68265.11
525.4656, 68206.84
525.9478, 68224.73
526.4299, 68207.61
526.9120, 68117.34
527.3941, 68010.56
527.8762, 67961.14
528.3583, 67972.28
528.8405, 67954.45
529.3226, 67881.99
529.8047, 67793.20
530.2868, 67699.36
530.7689, 67609.23
531.2510, 67546.33
531.7332, 67498.20
532.2153, 67588.02
532.6974, 67608.76
533.1795, 67564.37
533.6616, 67248.42
534.1437, 67291.77
534.6259, 67196.38
535.1080, 67098.95
535.5901, 67203.63
536.0722, 66946.58
536.5543, 67055.66
537.0364, 67023.85
537.5186, 67062.01
538.0007, 66960.59
538.4828, 66907.22
538.9649, 67001.02
539.4470, 67019.18
539.9291, 66916.34
540.4113, 66981.32
540.8934, 66756.95
541.3755, 66793.56
541.8576, 66944.93
542.3397, 66868.14
542.8218, 66954.59
543.3040, 66984.07
543.7861, 66719.67
544.2682, 66768.16
544.7503, 66803.41
545.2324, 66840.91
545.7145, 66847.94
546.1967, 66793.85
546.6788, 66718.69
547.1609, 66661.02
547.6430, 66631.55
548.1251, 66624.16
548.6072, 66641.95
549.0894, 66687.45
549.5715, 66689.05
550.0536, 66623.27
550.5357, 66546.39
551.0178, 66457.63
551.4999, 66379.50
551.9821, 66345.44
552.4642, 66370.36
552.9463, 66419.32
553.4284, 66464.80
553.9105, 66507.80
554.3926, 66557.80
554.8748, 66622.41
555.3569, 66669.06
555.8390, 66653.43
556.3211, 66577.10
556.8032, 66546.55
557.2853, 66615.45
557.7675, 66675.18
558.2496, 66663.42
558.7317, 66610.34
559.2138, 66575.74
559.6959, 66580.33
560.1780, 66585.46
560.6602, 66520.09
561.1423, 66344.92
561.6244, 66258.41
562.1065, 66381.00
562.5886, 66477.27
563.0707, 66431.55
563.5529, 66307.98
564.0350, 66232.98
564.5171, 66271.02
564.9992, 66347.90
565.4813, 66361.90
565.9634, 66317.24
566.4456, 66281.64
566.9277, 66270.10
567.4098, 66271.25
567.8919, 66273.07
568.3740, 66275.77
568.8561, 66288.05
569.3383, 66340.69
569.8204, 66375.66
570.3025, 66336.53
570.7846, 66250.26
571.2667, 66180.15
571.7488, 66152.20
572.2310, 66157.20
572.7131, 66180.83
573.1952, 66227.87
573.6773, 66281.60
574.1594, 66407.71
574.6415, 66475.85
575.1237, 66362.14
575.6058, 66153.19
576.0879, 66036.71
576.5700, 66120.40
577.0521, 66293.41
577.5342, 66393.17
578.0164, 66419.17
578.4985, 66419.16
578.9806, 66393.41
579.4627, 66361.16
579.9448, 66342.34
580.4269, 66335.56
580.9091, 66330.59
581.3912, 66328.20
581.8733, 66324.69
582.3554, 66312.71
582.8375, 66297.63
583.3196, 66292.38
583.8018, 66302.38
584.2839, 66324.39
584.7660, 66357.21
585.2481, 66419.73
585.7302, 66437.66
586.2123, 66340.38
586.6945, 66271.79
587.1766, 66324.00
587.6587, 66445.33
588.1408, 66521.53
588.6229, 66487.95
589.1050, 66427.87
589.5872, 66489.71
590.0693, 66666.46
590.5514, 66743.01
591.0335, 66630.88
591.5156, 66488.41
591.9977, 66490.59
592.4799, 66615.72
592.9620, 66706.23
593.4441, 66719.30
593.9262, 66713.67
594.4083, 66733.32
594.8904, 66757.33
595.3726, 66732.15
595.8547, 66639.95
596.3368, 66529.76
596.8189, 66474.44
597.3010, 66485.35
597.7831, 66495.55
598.2653, 66536.16
598.7474, 66541.21
599.2295, 66445.05
599.7116, 66312.81
600.1937, 66253.66
600.6758, 66318.21
601.1580, 66402.93
601.6401, 66394.86
602.1222, 66310.06
602.6043, 66223.57
603.0864, 66145.41
603.5685, 66074.30
604.0507, 66006.52
604.5328, 65944.95
605.0149, 65903.32
605.4970, 65890.63
605.9791, 65887.26
606.4612, 65890.17
606.9434, 65896.91
607.4255, 65913.22
607.9076, 65936.07
608.3897, 65938.63
608.8718, 65882.64
609.3539, 65770.17
609.8361, 65710.59
610.3182, 65743.84
610.8003, 65762.95
611.2824, 65712.38
611.7645, 65641.69
612.2466, 65612.46
612.7288, 65639.04
613.2109, 65650.20
613.6930, 65559.80
614.1751, 65435.43
614.6572, 65419.67
615.1393, 65521.75
615.6215, 65616.60
616.1036, 65623.44
616.5857, 65567.24
617.0678, 65538.88
617.5499, 65567.17
618.0320, 65583.45
618.5142, 65585.23
618.9963, 65573.75
619.4784, 65552.93
619.9605, 65520.43
620.4426, 65462.66
620.9247, 65358.15
621.4069, 65239.96
621.8890, 65205.37
622.3711, 65269.11
622.8532, 65330.29
623.3353, 65367.02
623.8174, 65386.86
624.2996, 65398.39
624.7817, 65401.79
625.2638, 65396.11
625.7459, 65378.53
626.2280, 65354.26
626.7101, 65328.37
627.1923, 65299.26
627.6744, 65254.95
628.1565, 65190.41
628.6386, 65131.91
629.1207, 65128.76
629.6028, 65204.66
630.0850, 65239.79
630.5671, 65188.00
631.0492, 65141.59
631.5313, 65144.43
632.0134, 65166.75
632.4955, 65159.57
632.9777, 65104.57
633.4598, 65033.54
633.9419, 64971.51
634.4240, 64918.24
634.9061, 64879.32
635.3882, 64858.72
635.8704, 64821.84
636.3525, 64726.45
636.8346, 64591.30
637.3167, 64538.86
637.7988, 64630.58
638.2809, 64711.84
638.7631, 64750.95
639.2452, 64773.10
639.7273, 64820.48
640.2094, 64882.54
640.6915, 64889.27
641.1736, 64768.93
641.6558, 64567.49
642.1379, 64446.91
642.6200, 64415.39
643.1021, 64433.62
643.5842, 64532.64
644.0663, 64638.84
644.5485, 64666.95
645.0306, 64619.32
645.5127, 64579.34
645.9948, 64557.67
646.4769, 64562.79
646.9590, 64633.49
647.4412, 64735.08
647.9233, 64778.38
648.4054, 64728.23
648.8875, 64629.46
649.3696, 64545.21
649.8517, 64476.33
650.3339, 64419.66
650.8160, 64378.14
651.2981, 64346.54
651.7802, 64331.34
652.2623, 64321.25
652.7444, 64293.27
653.2266, 64236.05
653.7087, 64199.00
654.1908, 64243.16
654.6729, 64330.28
655.1550, 64374.41
655.6371, 64366.84
656.1193, 64347.79
656.6014, 64341.59
657.0835, 64345.59
657.5656, 64349.68
658.0477, 64370.04
658.5298, 64367.45
659.0120, 64329.16
659.4941, 64278.35
659.9762, 64223.97
660.4583, 64170.70
660.9404, 64124.44
661.4225, 64085.86
661.9047, 64060.47
662.3868, 64068.36
662.8689, 64107.73
663.3510, 64119.67
663.8331, 64083.94
664.3152, 64034.08
664.7974, 63992.20
665.2795, 63960.91
665.7616, 63966.78
666.2437, 64060.36
666.7258, 64133.10
667.2079, 64122.18
667.6901, 64079.35
668.1722, 64075.28
668.6543, 64119.84
669.1364, 64164.04
669.6185, 64155.58
670.1006, 64107.14
670.5828, 64107.87
671.0649, 64187.54
671.5470, 64214.60
672.0291, 64093.79
672.5112, 63940.06
672.9933, 63888.63
673.4755, 63943.74
673.9576, 64000.23
674.4397, 64038.07
674.9218, 64057.20
675.4039, 64050.68
675.8860, 64026.03
676.3682, 64002.85
676.8503, 63988.74
677.3324, 63967.81
677.8145, 63909.38
678.2966, 63803.77
678.7787, 63743.42
679.2609, 63760.74
679.7430, 63777.37
680.2251, 63741.86
680.7072, 63698.61
681.1893, 63718.00
681.6714, 63823.64
682.1536, 63903.80
682.6357, 63872.19
683.1178, 63791.87
683.5999, 63742.78
684.0820, 63728.13
684.5641, 63723.92
685.0463, 63717.32
685.5284, 63711.39
686.0105, 63714.39
686.4926, 63732.57
686.9747, 63743.67
687.4568, 63760.59
687.9390, 63756.02
688.4211, 63697.12
688.9032, 63612.52
689.3853, 63551.12
689.8674, 63523.55
690.3495, 63537.47
690.8317, 63643.44
691.3138, 63786.43
691.7959, 63826.79
692.2780, 63749.91
692.7601, 63672.47
693.2422, 63682.01
693.7244, 63747.92
694.2065, 63749.17
694.6886, 63625.39
695.1707, 63534.66
695.6528, 63486.18
696.1349, 63465.80
696.6171, 63481.91
697.0992, 63518.62
697.5813, 63539.98
698.0634, 63528.75
698.5455, 63498.03
699.0276, 63455.28
699.5098, 63405.08
699.9919, 63365.52
700.4740, 63341.11
700.9561, 63315.91
701.4382, 63273.76
701.9203, 63219.07
702.4025, 63186.15
702.8846, 63159.24
703.3667, 63177.25
703.8488, 63301.38
704.3309, 63424.83
704.8130, 63451.99
705.2952, 63400.27
705.7773, 63368.11
706.2594, 63429.57
706.7415, 63508.39
707.2236, 63473.63
707.7057, 63347.98
708.1879, 63278.65
708.6700, 63305.59
709.1521, 63353.78
709.6342, 63355.01
710.1163, 63311.01
710.5984, 63266.84
711.0806, 63216.06
711.5627, 63173.39
712.0448, 63121.10
712.5269, 63092.33
713.0090, 63144.46
713.4911, 63257.07
713.9733, 63329.48
714.4554, 63287.84
714.9375, 63182.56
715.4196, 63075.08
715.9017, 62970.42
716.3839, 62917.74
716.8660, 62939.68
717.3481, 62970.84
717.8302, 62937.67
718.3123, 62840.82
718.7944, 62805.80
719.2766, 62923.89
719.7587, 62980.38
720.2408, 62881.01
720.7229, 62743.89
721.2050, 62681.96
721.6871, 62695.90
722.1693, 62704.70
722.6514, 62645.40
723.1335, 62562.23
723.6156, 62528.51
724.0977, 62539.45
724.5798, 62561.92
725.0620, 62589.86
725.5441, 62615.71
726.0262, 62636.27
726.5083, 62651.39
726.9904, 62628.46
727.4725, 62503.82
727.9547, 62424.42
728.4368, 62435.93
728.9189, 62486.22
729.4010, 62544.28
729.8831, 62598.32
730.3652, 62629.80
730.8474, 62618.88
731.3295, 62588.21
731.8116, 62586.59
732.2937, 62599.89
732.7758, 62538.38
733.2579, 62369.16
733.7401, 62202.19
734.2222, 62149.66
734.7043, 62207.25
735.1864, 62256.90
735.6685, 62290.41
736.1506, 62326.96
736.6328, 62388.41
737.1149, 62438.52
737.5970, 62441.28
738.0791, 62402.55
738.5612, 62361.43
739.0433, 62338.61
739.5255, 62321.34
740.0076, 62294.73
740.4897, 62260.98
740.9718, 62223.95
741.4539, 62184.20
741.9360, 62158.45
742.4182, 62168.07
742.9003, 62204.49
743.3824, 62189.83
743.8645, 62058.63
744.3466, 61989.66
744.8287, 62066.44
745.3109, 62155.42
745.7930, 62158.24
746.2751, 62093.33
746.7572, 62048.50
747.2393, 62066.25
747.7214, 62101.74
748.2036, 62126.00
748.6857, 62139.93
749.1678, 62153.87
749.6499, 62165.76
750.1320, 62136.00
750.6141, 62024.57
751.0963, 61863.06
751.5784, 61784.54
752.0605, 61825.86
752.5426, 61843.89
753.0247, 61777.14
753.5068, 61730.33
753.9890, 61807.65
754.4711, 61952.87
754.9532, 62005.65
755.4353, 61873.51
755.9174, 61754.04
756.3995, 61781.51
756.8817, 61857.14
757.3638, 61844.65
757.8459, 61752.23
758.3280, 61694.49
758.8101, 61747.54
759.2922, 61849.09
759.7744, 61851.48
760.2565, 61739.46
760.7386, 61689.09
761.2207, 61748.93
761.7028, 61808.73
762.1849, 61795.84
762.6671, 61732.88
763.1492, 61676.98
763.6313, 61620.70
764.1134, 61590.52
764.5955, 61601.44
765.0776, 61632.27
765.5598, 61686.87
766.0419, 61745.49
766.5240, 61766.23
767.0061, 61730.29
767.4882, 61672.68
767.9703, 61642.58
768.4525, 61631.84
768.9346, 61590.07
769.4167, 61510.27
769.8988, 61439.98
770.3809, 61406.43
770.8630, 61392.45
771.3452, 61363.17
771.8273, 61306.34
772.3094, 61271.37
772.7915, 61267.77
773.2736, 61274.63
773.7557, 61288.26
774.2379, 61305.11
774.7200, 61322.44
775.2021, 61339.28
775.6842, 61352.63
776.1663, 61357.77
776.6484, 61359.02
777.1306, 61361.81
777.6127, 61366.58
778.0948, 61378.88
778.5769, 61401.61
779.0590, 61416.97
779.5411, 61397.26
780.0233, 61340.67
780.5054, 61325.11
780.9875, 61377.34
781.4696, 61426.92
781.9517, 61488.07
782.4338, 61517.32
782.9160, 61437.52
783.3981, 61269.27
783.8802, 61187.88
784.3623, 61369.66
784.8444, 61533.70
785.3265, 61451.71
785.8087, 61253.29
786.2908, 61136.27
786.7729, 61133.22
787.2550, 61163.30
787.7371, 61162.91
788.2192, 61150.21
788.7014, 61195.72
789.1835, 61312.60
789.6656, 61343.57
790.1477, 61225.37
790.6298, 61094.82
791.1119, 61059.35
791.5941, 61099.83
792.0762, 61123.22
792.5583, 61133.12
793.0404, 61120.68
793.5225, 61048.34
794.0046, 60985.30
794.4868, 60995.25
794.9689, 61052.91
795.4510, 61092.59
795.9331, 61085.89
796.4152, 61063.34
796.8973, 61064.94
797.3795, 61074.03
797.8616, 61030.32
798.3437, 60935.07
798.8258, 60884.26
799.3079, 60933.29
799.7900, 61023.77
800.2722, 61050.29
800.7543, 61003.20
801.2364, 60935.04
801.7185, 60801.45
802.2006, 60708.42
802.6827, 60706.86
803.1649, 60749.42
803.6470, 60801.90
804.1291, 60860.16
804.6112, 60871.10
805.0933, 60744.61
805.5754, 60632.15
806.0576, 60678.52
806.5397, 60809.07
807.0218, 60888.91
807.5039, 60889.41
807.9860, 60870.16
808.4681, 60883.84
808.9503, 60918.87
809.4324, 60946.55
809.9145, 60968.88
810.3966, 60935.49
810.8787, 60803.84
811.3608, 60698.94
811.8430, 60751.63
812.3251, 60932.43
812.8072, 61024.91
813.2893, 60983.09
813.7714, 60922.30
814.2535, 60806.86
814.7357, 60716.02
815.2178, 60719.82
815.6999, 60787.54
816.1820, 60847.55
816.6641, 60878.47
817.1462, 60877.11
817.6284, 60809.52
818.1105, 60723.11
818.5926, 60712.35
819.0747, 60765.88
819.5568, 60790.49
820.0389, 60741.95
820.5211, 60658.86
821.0032, 60598.23
821.4853, 60560.12
821.9674, 60545.42
822.4495, 60563.54
822.9316, 60581.38
823.4138, 60593.84
823.8959, 60593.84
824.3780, 60564.20
824.8601, 60503.70
825.3422, 60463.66
825.8243, 60451.99
826.3065, 60458.68
826.7886, 60498.44
827.2707, 60542.68
827.7528, 60562.31
828.2349, 60554.92
828.7170, 60534.12
829.1992, 60507.19
829.6813, 60472.96
830.1633, 60417.58
830.6454, 60353.45
831.1276, 60326.63
831.6097, 60343.22
832.0918, 60373.58
832.5739, 60401.92
833.0560, 60419.56
833.5381, 60396.60
834.0203, 60313.54
834.5024, 60256.75
834.9845, 60236.18
835.4666, 60231.26
835.9487, 60251.02
836.4308, 60272.24
836.9130, 60256.79
837.3951, 60195.43
837.8772, 60136.92
838.3593, 60075.70
838.8414, 60038.96
839.3235, 60045.72
839.8057, 60086.51
840.2878, 60174.10
840.7699, 60295.91
841.2520, 60357.77
841.7341, 60238.55
842.2162, 60047.99
842.6984, 60006.61
843.1805, 60083.73
843.6626, 60114.69
844.1447, 60059.53
844.6268, 60008.58
845.1089, 60043.26
845.5911, 60140.40
846.0732, 60195.47
846.5553, 60201.87
847.0374, 60182.32
847.5195, 60122.83
848.0016, 60056.62
848.4838, 59992.56
848.9659, 59937.64
849.4480, 59908.95
849.9301, 59916.98
850.4122, 59921.59
850.8943, 59878.42
851.3765, 59860.86
851.8586, 59959.00
852.3407, 60104.58
852.8228, 60173.83
853.3049, 60135.60
853.7870, 60069.48
854.2692, 60041.90
854.7513, 60034.42
855.2334, 60012.37
855.7155, 59978.88
856.1976, 59948.20
856.6797, 59924.05
857.1619, 59906.98
857.6440, 59896.94
858.1261, 59894.54
858.6082, 59900.85
859.0903, 59909.44
859.5724, 59953.29
860.0546, 60089.69
860.5367, 60188.86
861.0188, 60122.89
861.5009, 59962.92
861.9830, 59883.18
862.4651, 59921.12
862.9473, 59959.24
863.4294, 60000.60
863.9115, 60011.48
864.3936, 59945.59
864.8757, 59845.75
865.3578, 59781.76
865.8400, 59770.16
866.3221, 59770.73
866.8042, 59768.54
867.2863, 59751.09
867.7684, 59672.31
868.2505, 59564.35
868.7327, 59539.45
869.2148, 59618.86
869.6969, 59701.50
870.1790, 59698.68
870.6611, 59631.61
871.1432, 59566.05
871.6254, 59497.14
872.1075, 59471.20
872.5896, 59507.21
873.0717, 59555.38
873.5538, 59590.00
874.0359, 59610.67
874.5181, 59615.51
875.0002, 59597.55
875.4823, 59578.61
875.9644, 59554.90
876.4465, 59534.88
876.9286, 59523.80
877.4108, 59517.69
877.8929, 59516.68
878.3750, 59519.47
878.8571, 59506.19
879.3392, 59436.83
879.8214, 59377.99
880.3035, 59410.69
880.7856, 59478.33
881.2677, 59473.49
881.7498, 59394.07
882.2319, 59333.36
882.7141, 59355.84
883.1962, 59429.52
883.6783, 59508.16
884.1604, 59588.80
884.6425, 59657.55
885.1246, 59713.52
885.6068, 59735.84
886.0889, 59706.33
886.5710, 59655.78
887.0531, 59645.75
887.5352, 59689.00
888.0173, 59696.01
888.4995, 59626.25
888.9816, 59590.16
889.4637, 59653.07
889.9458, 59741.89
890.4279, 59772.71
890.9100, 59752.65
891.3922, 59779.28
891.8743, 59901.82
892.3564, 60027.02
892.8385, 60124.25
893.3206, 60213.52
893.8027, 60298.06
894.2849, 60391.56
894.7670, 60532.35
895.2491, 60747.85
895.7312, 60946.25
896.2133, 61019.33
896.6954, 61044.70
897.1776, 61144.23
897.6597, 61305.93
898.1418, 61460.16
898.6239, 61582.35
899.1060, 61688.43
899.5881, 61781.75
900.0703, 61880.86
900.5524, 62115.55
901.0345, 62497.89
901.5166, 62728.19
901.9987, 62719.10
902.4808, 62619.90
902.9630, 62547.16
903.4451, 62485.60
903.9272, 62372.79
904.4093, 62211.74
904.8914, 61991.69
905.3735, 61637.50
905.8557, 61315.97
906.3378, 61136.88
906.8199, 61013.54
907.3020, 60812.44
907.7841, 60510.28
908.2662, 60261.80
908.7484, 60122.75
909.2305, 60022.34
909.7126, 59963.96
910.1947, 59900.66
910.6768, 59765.00
911.1589, 59566.24
911.6411, 59380.06
912.1232, 59242.64
912.6053, 59142.36
913.0874, 59082.74
913.5695, 59045.04
914.0516, 58985.72
914.5338, 58912.15
915.0159, 58886.27
915.4980, 58937.57
915.9801, 58993.86
916.4622, 58948.95
916.9443, 58818.03
917.4265, 58683.62
917.9086, 58543.43
918.3907, 58481.79
918.8728, 58534.04
919.3549, 58634.64
919.8370, 58735.12
920.3192, 58824.97
920.8013, 58821.21
921.2834, 58662.84
921.7655, 58560.09
922.2476, 58570.75
922.7297, 58589.32
923.2119, 58558.63
923.6940, 58497.33
924.1761, 58433.22
924.6582, 58363.18
925.1403, 58308.36
925.6224, 58245.77
926.1046, 58229.18
926.5867, 58319.40
927.0688, 58442.90
927.5509, 58531.29
928.0330, 58572.84
928.5151, 58570.36
928.9973, 58499.75
929.4794, 58427.70
929.9615, 58403.26
930.4436, 58405.00
930.9257, 58405.77
931.4078, 58406.28
931.8900, 58422.64
932.3721, 58461.70
932.8542, 58502.85
933.3363, 58536.25
933.8184, 58550.32
934.3005, 58499.80
934.7827, 58395.52
935.2648, 58303.93
935.7469, 58243.27
936.2290, 58214.34
936.7111, 58222.92
937.1932, 58255.38
937.6754, 58260.06
938.1575, 58231.93
938.6396, 58221.49
939.1217, 58241.74
939.6038, 58254.86
940.0859, 58239.03
940.5681, 58205.92
941.0502, 58174.77
941.5323, 58143.85
942.0144, 58126.08
942.4965, 58139.77
942.9786, 58141.39
943.4608, 58097.87
943.9429, 58059.10
944.4250, 58085.98
944.9071, 58157.40
945.3892, 58173.89
945.8713, 58075.09
946.3535, 58000.40
946.8356, 58007.83
947.3177, 58028.89
947.7998, 58012.86
948.2819, 57978.52
948.7640, 57964.65
949.2462, 57979.86
949.7283, 57996.83
950.2104, 58014.90
950.6925, 58012.67
951.1746, 57945.39
951.6567, 57856.56
952.1389, 57819.15
952.6210, 57836.77
953.1031, 57867.97
953.5852, 57889.84
954.0673, 57907.71
954.5494, 57932.84
955.0316, 57958.66
955.5137, 57950.88
955.9958, 57919.23
956.4779, 57953.80
956.9600, 58088.15
957.4421, 58210.59
957.9243, 58188.57
958.4064, 58054.74
958.8885, 57948.98
959.3706, 57870.37
959.8527, 57846.16
960.3348, 57889.24
960.8170, 57951.13
961.2991, 58010.58
961.7812, 58050.88
962.2633, 58025.93
962.7454, 57913.31
963.2275, 57837.52
963.7097, 57812.36
964.1918, 57798.96
964.6739, 57793.57
965.1560, 57787.09
965.6381, 57768.22
966.1202, 57738.30
966.6024, 57713.70
967.0845, 57711.68
967.5666, 57689.70
968.0487, 57629.50
968.5308, 57563.64
969.0129, 57503.47
969.4951, 57452.63
969.9772, 57413.02
970.4593, 57384.93
970.9414, 57373.59
971.4235, 57391.41
971.9056, 57414.21
972.3878, 57445.33
972.8699, 57463.96
973.3520, 57430.13
973.8341, 57361.16
974.3162, 57327.55
974.7983, 57367.35
975.2805, 57417.39
975.7626, 57441.18
976.2447, 57440.15
976.7268, 57400.90
977.2089, 57341.40
977.6910, 57297.04
978.1732, 57278.80
978.6553, 57284.77
979.1374, 57323.26
979.6195, 57370.24
980.1016, 57395.35
980.5837, 57395.59
981.0659, 57353.44
981.5480, 57272.63
982.0301, 57180.45
982.5122, 57088.02
982.9943, 57038.01
983.4764, 57129.50
983.9586, 57324.26
984.4407, 57378.14
984.9228, 57294.07
985.4049, 57236.86
985.8870, 57250.63
986.3691, 57278.31
986.8513, 57275.14
987.3334, 57248.04
987.8155, 57210.92
988.2976, 57156.90
988.7797, 57147.83
989.2618, 57206.69
989.7440, 57239.93
990.2261, 57197.33
990.7082, 57132.39
991.1903, 57111.08
991.6724, 57132.32
992.1545, 57156.71
992.6367, 57202.61
993.1188, 57211.67
993.6009, 57144.73
994.0830, 57080.89
994.5651, 57085.71
995.0472, 57118.81
995.5294, 57086.57
996.0115, 56960.11
996.4936, 56896.05
996.9757, 56955.65
997.4578, 57007.27
997.9399, 57016.53
998.4221, 57003.55
998.9042, 56966.68
999.3863, 56922.29
999.8684, 56927.26
1000.351, 57031.59
1000.833, 57090.03
1001.315, 57017.23
1001.797, 56935.84
1002.279, 56913.56
1002.761, 56930.52
1003.243, 56965.46
1003.725, 57009.23
1004.207, 57032.96
1004.690, 57015.21
1005.172, 56803.28
1005.654, 56958.17
1006.136, 57040.22
1006.618, 57053.37
1007.100, 56791.20
1007.582, 56884.54
1008.064, 56835.40
1008.547, 56780.40
1009.029, 56923.78
1009.511, 56701.65
1009.993, 56841.88
1010.475, 56837.46
1010.957, 56899.25
1011.439, 56817.68
1011.921, 56780.39
1012.403, 56886.50
1012.886, 56913.18
1013.368, 56815.11
1013.850, 56881.11
1014.332, 56653.96
1014.814, 56684.05
1015.296, 56825.12
1015.778, 56734.26
1016.260, 56802.87
1016.742, 56810.75
1017.225, 56542.57
1017.707, 56754.46
1018.189, 56806.37
1018.671, 56843.27
1019.153, 56801.70
1019.635, 56757.62
1020.117, 56738.82
1020.599, 56750.62
1021.082, 56808.26
1021.564, 56888.50
1022.046, 56910.07
1022.528, 56876.71
1023.010, 56836.75
1023.492, 56795.20
1023.974, 56797.92
1024.456, 56878.53
1024.938, 56955.88
1025.421, 56887.16
1025.903, 56693.65
1026.385, 56665.20
1026.867, 56827.22
1027.349, 56907.81
1027.831, 56838.82
1028.313, 56753.94
1028.795, 56746.13
1029.278, 56776.41
1029.760, 56750.90
1030.242, 56655.99
1030.724, 56622.98
1031.206, 56669.97
1031.688, 56716.27
1032.170, 56737.38
1032.652, 56757.93
1033.135, 56805.77
1033.617, 56866.64
1034.099, 56884.45
1034.581, 56843.74
1035.063, 56802.68
1035.545, 56750.32
1036.027, 56721.78
1036.509, 56739.11
1036.991, 56775.11
1037.474, 56809.39
1037.956, 56838.67
1038.438, 56827.73
1038.920, 56749.63
1039.402, 56681.95
1039.884, 56606.50
1040.366, 56571.45
1040.848, 56621.08
1041.330, 56708.12
1041.813, 56784.99
1042.295, 56854.74
1042.777, 56846.73
1043.259, 56693.95
1043.741, 56563.17
1044.223, 56446.86
1044.705, 56380.38
1045.187, 56417.25
1045.670, 56503.60
1046.152, 56549.09
1046.634, 56546.95
1047.116, 56530.15
1047.598, 56477.58
1048.080, 56443.14
1048.562, 56459.47
1049.044, 56478.45
1049.526, 56458.94
1050.009, 56417.43
1050.491, 56395.91
1050.973, 56404.22
1051.455, 56406.96
1051.937, 56372.29
1052.419, 56364.01
1052.901, 56455.57
1053.383, 56540.29
1053.865, 56497.68
1054.348, 56368.74
1054.830, 56300.10
1055.312, 56344.76
1055.794, 56364.00
1056.276, 56302.07
1056.758, 56233.61
1057.240, 56173.73
1057.722, 56140.32
1058.205, 56168.07
1058.687, 56240.83
1059.169, 56287.95
1059.651, 56291.55
1060.133, 56269.57
1060.615, 56191.77
1061.097, 56129.76
1061.579, 56152.53
1062.062, 56198.37
1062.544, 56175.14
1063.026, 56089.46
1063.508, 56041.91
1063.990, 56084.34
1064.472, 56130.48
1064.954, 56154.44
1065.436, 56163.61
1065.918, 56151.23
1066.401, 56133.37
1066.883, 56143.99
1067.365, 56179.85
1067.847, 56176.48
1068.329, 56069.41
1068.811, 55981.95
1069.293, 55974.44
1069.775, 56001.13
1070.257, 56047.11
1070.740, 56093.22
1071.222, 56117.56
1071.704, 56115.59
1072.186, 56088.13
1072.668, 56013.29
1073.150, 55941.69
1073.632, 55881.81
1074.114, 55848.99
1074.597, 55879.79
1075.079, 55938.46
1075.561, 55952.00
1076.043, 55907.77
1076.525, 55886.95
1077.007, 55962.87
1077.489, 56022.36
1077.971, 56012.22
1078.453, 55957.38
1078.936, 55835.41
1079.418, 55701.97
1079.900, 55675.14
1080.382, 55781.48
1080.864, 55868.32
1081.346, 55858.12
1081.828, 55822.70
1082.310, 55784.99
1082.792, 55752.40
1083.275, 55745.77
1083.757, 55504.14
1084.239, 55651.80
1084.721, 55726.64
1085.203, 55732.57
1085.685, 55463.18
1086.167, 55549.31
1086.649, 55492.96
1087.131, 55430.77
1087.614, 55566.90
1088.096, 55337.56
1088.578, 55470.57
1089.060, 55458.94
1089.542, 55513.52
1090.024, 55424.73
1090.506, 55380.23
1090.988, 55479.12
1091.471, 55498.59
1091.953, 55393.30
1092.435, 55452.08
1092.917, 55217.73
1093.399, 55389.05
1093.881, 55363.27
1094.363, 55277.41
1094.845, 55214.36
1095.328, 55235.96
1095.810, 55279.50
1096.292, 55292.31
1096.774, 55276.90
1097.256, 55248.90
1097.738, 55208.18
1098.220, 55180.36
1098.702, 55178.51
1099.184, 55185.23
1099.667, 55210.12
1100.149, 55225.87
1100.631, 55187.55
1101.113, 55124.94
1101.595, 55123.32
1102.077, 55215.58
1102.559, 55261.94
1103.041, 55189.56
1103.523, 55115.03
1104.006, 54978.57
1104.488, 55136.59
1104.970, 55221.78
1105.452, 55238.05
1105.934, 54979.02
1106.416, 55075.49
1106.898, 55029.49
1107.380, 54977.65
1107.863, 55124.14
1108.345, 54905.15
1108.827, 55048.51
1109.309, 55047.23
1109.791, 55112.15
1110.273, 55033.72
1110.755, 54999.56
1111.237, 55108.80
1111.719, 55138.64
1112.202, 55043.69
1112.684, 55112.82
1113.166, 54888.82
1113.648, 54922.04
1114.130, 55066.25
1114.612, 54978.52
1115.094, 55050.27
1115.576, 55061.28
1116.058, 54796.27
1116.541, 55011.27
1117.023, 55018.69
1117.505, 54812.95
1117.987, 55011.53
1118.469, 54835.18
1118.951, 54792.65
1119.433, 54850.84
1119.915, 54804.04
1120.398, 54922.74
1120.880, 54882.00
1121.362, 54827.02
1121.844, 54834.20
1122.326, 54665.20
1122.808, 54823.07
1123.290, 54757.66
1123.772, 54803.24
1124.255, 54873.95
1124.737, 54752.06
1125.219, 54834.10
1125.701, 54599.89
1126.183, 54630.30
1126.665, 54632.21
1127.147, 54803.25
1127.629, 54570.59
1128.111, 54593.64
1128.594, 54584.34
1129.076, 54667.38
1129.558, 54737.40
1130.040, 54771.13
1130.522, 54801.13
1131.004, 54846.97
1131.486, 54880.70
1131.968, 54609.03
1132.450, 54766.71
1132.933, 54851.55
1133.415, 54867.50
1133.897, 54608.12
1134.379, 54704.27
1134.861, 54657.93
1135.343, 54605.76
1135.825, 54751.94
1136.307, 54532.61
1136.790, 54675.62
1137.272, 54674.01
1137.754, 54738.60
1138.236, 54659.83
1138.718, 54625.34
1139.200, 54734.25
1139.682, 54763.76
1140.164, 54668.50
1140.646, 54737.29
1141.129, 54512.94
1141.611, 54545.83
1142.093, 54689.70
1142.575, 54601.64
1143.057, 54673.06
1143.539, 54683.74
1144.021, 54418.39
1144.503, 54633.08
1144.985, 54640.17
1145.468, 54434.08
1145.950, 54632.32
1146.432, 54682.40
1146.914, 54676.10
1147.396, 54626.04
1147.878, 54620.99
1148.360, 54664.59
1148.842, 54678.15
1149.325, 54615.48
1149.807, 54538.91
1150.289, 54470.25
1150.771, 54437.58
1151.253, 54503.43
1151.735, 54600.73
1152.217, 54632.61
1152.699, 54601.81
1153.182, 54566.88
1153.664, 54545.99
1154.146, 54530.27
1154.628, 54505.14
1155.110, 54496.37
1155.592, 54544.41
1156.074, 54593.97
1156.556, 54574.84
1157.038, 54514.21
1157.521, 54493.68
1158.003, 54533.79
1158.485, 54564.10
1158.967, 54561.29
1159.449, 54557.39
1159.931, 54558.69
1160.413, 54564.15
1160.895, 54584.16
1161.377, 54603.45
1161.860, 54587.58
1162.342, 54531.36
1162.824, 54499.50
1163.306, 54495.03
1163.788, 54513.02
1164.270, 54577.41
1164.752, 54624.93
1165.234, 54618.54
1165.717, 54591.09
1166.199, 54590.29
1166.681, 54609.15
1167.163, 54349.01
1167.645, 54511.79
1168.127, 54601.74
1168.609, 54622.78
1169.091, 54368.50
1169.573, 54469.73
1170.056, 54428.49
1170.538, 54381.41
1171.020, 54532.68
1171.502, 54318.45
1171.984, 54466.57
1172.466, 54470.05
1172.948, 54539.73
1173.430, 54466.06
1173.912, 54436.66
1174.395, 54550.66
1174.877, 54585.26
1175.359, 54495.09
1175.841, 54568.97
1176.323, 54349.73
1176.805, 54387.71
1177.287, 54536.68
1177.769, 54453.71
1178.252, 54530.21
1178.734, 54545.98
1179.216, 54285.73
1179.698, 54505.51
1180.180, 54517.69
1180.662, 54399.83
1181.144, 54360.33
1181.626, 54354.45
1182.109, 54402.59
1182.591, 54472.11
1183.073, 54479.05
1183.555, 54179.35
1184.037, 54295.09
1184.519, 54363.81
1185.001, 54387.98
1185.483, 54238.58
1185.965, 54309.88
1186.448, 54290.65
1186.930, 54266.27
1187.412, 54364.37
1187.894, 54232.54
1188.376, 54325.68
1188.858, 54326.93
1189.340, 54368.07
1189.822, 54318.11
1190.304, 54294.34
1190.787, 54358.68
1191.269, 54371.92
1191.751, 54305.68
1192.233, 54340.49
1192.715, 54190.60
1193.197, 54199.98
1193.679, 54277.24
1194.161, 54208.04
1194.644, 54236.98
1195.126, 54226.52
1195.608, 54042.04
1196.090, 54156.09
1196.572, 54138.90
1197.054, 54177.02
1197.536, 54185.41
1198.018, 54151.36
1198.500, 54079.19
1198.983, 54079.75
1199.465, 54161.79
1199.947, 54209.96
1200.429, 54176.99
1200.911, 54121.51
1201.393, 54095.58
1201.875, 54096.05
1202.357, 54140.13
1202.839, 54196.07
1203.322, 54180.61
1203.804, 54115.56
1204.286, 54076.39
1204.768, 54076.71
1205.250, 54078.16
1205.732, 54057.09
1206.214, 54041.53
1206.696, 54060.62
1207.179, 54087.65
1207.661, 54106.19
1208.143, 54113.37
1208.625, 54103.86
1209.107, 54081.55
1209.589, 54055.47
1210.071, 54026.43
1210.553, 54005.02
1211.036, 53996.76
1211.518, 53993.05
1212.000, 54000.29
1212.482, 54001.73
1212.964, 53982.45
1213.446, 53953.04
1213.928, 53930.70
1214.410, 53914.85
1214.892, 53892.29
1215.375, 53852.32
1215.857, 53834.63
1216.339, 53841.43
1216.821, 53876.66
1217.303, 53957.02
1217.785, 54016.52
1218.267, 53989.70
1218.749, 53913.16
1219.231, 53875.37
1219.714, 53874.56
1220.196, 53889.73
1220.678, 53918.59
1221.160, 53944.39
1221.642, 53961.55
1222.124, 53948.66
1222.606, 53893.81
1223.088, 53821.80
1223.571, 53746.38
1224.053, 53684.34
1224.535, 53667.23
1225.017, 53679.21
1225.499, 53712.88
1225.981, 53746.54
1226.463, 53723.74
1226.945, 53639.94
1227.427, 53573.05
1227.910, 53561.32
1228.392, 53578.16
1228.874, 53646.47
1229.356, 53697.53
1229.838, 53668.94
1230.320, 53611.16
1230.802, 53571.06
1231.284, 53555.79
1231.766, 53576.85
1232.249, 53652.69
1232.731, 53703.13
1233.213, 53716.45
1233.695, 53722.22
1234.177, 53729.70
1234.659, 53721.47
1235.141, 53680.21
1235.623, 53631.55
1236.106, 53617.01
1236.588, 53626.94
1237.070, 53580.09
1237.552, 53473.15
1238.034, 53466.57
1238.516, 53568.88
1238.998, 53597.75
1239.480, 53499.14
1239.963, 53414.48
1240.445, 53455.62
1240.927, 53539.32
1241.409, 53554.47
1241.891, 53518.66
1242.373, 53431.75
1242.855, 53334.28
1243.337, 53316.41
1243.819, 53367.06
1244.302, 53412.54
1244.784, 53427.74
1245.266, 53431.80
1245.748, 53411.63
1246.230, 53416.31
1246.712, 53529.69
1247.194, 53616.89
1247.676, 53547.70
1248.158, 53407.48
1248.641, 53294.20
1249.123, 53221.80
1249.605, 53239.36
1250.087, 53411.37
1250.569, 53515.98
1251.051, 53526.08
1251.533, 53524.80
1252.015, 53532.30
1252.498, 53531.93
1252.980, 53516.75
1253.462, 53475.55
1253.944, 53375.83
1254.426, 53236.80
1254.908, 53187.91
1255.390, 53219.59
1255.872, 53256.50
1256.354, 53284.22
1256.837, 53237.92
1257.319, 53108.13
1257.801, 53035.63
1258.283, 53135.60
1258.765, 53301.35
1259.247, 53446.23
1259.729, 53556.32
1260.211, 53625.23
1260.693, 53641.78
1261.176, 53553.62
1261.658, 53402.16
1262.140, 53316.89
1262.622, 53336.41
1263.104, 53342.75
1263.586, 53256.55
1264.068, 53214.52
1264.550, 53298.77
1265.033, 53383.37
1265.515, 53404.44
1265.997, 53388.52
1266.479, 53353.23
1266.961, 53308.36
1267.443, 53302.17
1267.925, 53344.26
1268.407, 53362.61
1268.890, 53352.63
1269.372, 53365.60
1269.854, 53414.00
1270.336, 53443.95
1270.818, 53424.25
1271.300, 53383.75
1271.782, 53354.64
1272.264, 53333.04
1272.746, 53296.41
1273.229, 53270.16
1273.711, 53328.22
1274.193, 53433.64
1274.675, 53481.15
1275.157, 53459.47
1275.639, 53449.96
1276.121, 53495.38
1276.603, 53531.27
1277.085, 53525.57
1277.568, 53504.62
1278.050, 53470.06
1278.532, 53436.89
1279.014, 53419.70
##END=



