##NAMES=Whewellite
##RRUFFID=R050526
##IDEAL CHEMISTRY=Ca(C_2_)^6+^O_4_&#183;H_2_O
##LOCALITY=Dresden, Saxony, Germany
##OWNER=RRUFF
##SOURCE=University of Arizona Mineral Museum
##DESCRIPTION=Coating of colorless fragments
##STATUS=The identification of this mineral has been confirmed by X-ray diffraction and chemical analysis
##URL=rruff.info/R050526
##MEASURED CHEMISTRY=Ca_1.00_C_2.00_O_4_Â·H_2_O ; C not measured but estimated by difference.
90.92609, 0.0000000E+00
91.40820, 12.30873
91.89032, 12.63336
92.37244, 12.45031
92.85455, 11.84557
93.33667, 11.33297
93.81879, 11.36651
94.30090, 11.79694
94.78302, 12.18238
95.26514, 12.43618
95.74725, 12.57895
96.22937, 12.62554
96.71149, 12.56920
97.19360, 12.48884
97.67572, 12.46471
98.15784, 12.49607
98.63995, 12.50429
99.12207, 12.42718
99.60419, 12.29061
100.0863, 12.35622
100.5684, 12.69140
101.0505, 13.09479
101.5327, 13.27061
102.0148, 13.12042
102.4969, 13.07299
102.9790, 13.31921
103.4611, 13.94184
103.9432, 14.37490
104.4253, 14.52474
104.9075, 14.53316
105.3896, 14.66677
105.8717, 14.90990
106.3538, 15.30172
106.8359, 15.86276
107.3180, 16.58753
107.8002, 17.48493
108.2823, 18.62489
108.7644, 19.94817
109.2465, 21.28569
109.7286, 22.52552
110.2107, 23.84198
110.6929, 25.33359
111.1750, 26.70581
111.6571, 28.56409
112.1392, 31.14473
112.6213, 34.36011
113.1034, 37.59246
113.5856, 40.25969
114.0677, 43.21275
114.5498, 47.02790
115.0319, 52.01170
115.5140, 57.71939
115.9961, 63.97834
116.4783, 70.78716
116.9604, 78.26454
117.4425, 86.61304
117.9246, 95.70605
118.4067, 105.3183
118.8888, 115.8180
119.3710, 126.5778
119.8531, 137.3131
120.3352, 147.9700
120.8173, 158.5304
121.2994, 168.8244
121.7815, 178.9318
122.2637, 189.0344
122.7458, 199.1565
123.2279, 209.2402
123.7100, 219.0844
124.1921, 228.5706
124.6742, 238.2245
125.1564, 248.0959
125.6385, 258.4189
126.1206, 269.9862
126.6027, 282.8922
127.0848, 297.3200
127.5669, 313.6360
128.0491, 332.1114
128.5312, 352.0423
129.0133, 372.7114
129.4954, 393.9347
129.9775, 415.7418
130.4596, 438.4364
130.9418, 461.6522
131.4239, 484.9373
131.9060, 508.4955
132.3881, 531.8790
132.8702, 553.7921
133.3523, 574.3487
133.8345, 593.3953
134.3166, 610.9384
134.7987, 627.0980
135.2808, 641.1365
135.7629, 653.1055
136.2450, 663.0520
136.7272, 670.8029
137.2093, 676.2443
137.6914, 680.0140
138.1735, 682.5748
138.6556, 683.7851
139.1377, 684.3762
139.6199, 684.2352
140.1020, 683.3701
140.5841, 683.3688
141.0662, 684.1245
141.5483, 685.8809
142.0304, 689.0071
142.5126, 693.6469
142.9947, 698.9699
143.4768, 702.6121
143.9589, 702.9413
144.4410, 704.1646
144.9231, 706.9792
145.4053, 710.2346
145.8874, 712.2711
146.3695, 713.2109
146.8516, 712.8592
147.3337, 711.0603
147.8158, 707.2551
148.2980, 703.4808
148.7801, 699.8518
149.2622, 696.2281
149.7443, 692.4318
150.2264, 689.4539
150.7085, 685.3735
151.1907, 679.4410
151.6728, 669.4241
152.1549, 661.1224
152.6370, 655.6005
153.1191, 651.8358
153.6012, 647.4821
154.0834, 640.9568
154.5655, 634.8566
155.0476, 630.2692
155.5297, 629.1289
156.0118, 627.1224
156.4939, 622.9560
156.9761, 617.2878
157.4582, 612.4553
157.9403, 609.2931
158.4224, 606.8859
158.9045, 604.7048
159.3866, 602.9158
159.8688, 601.0665
160.3509, 598.7440
160.8330, 596.1519
161.3151, 594.2390
161.7972, 594.2341
162.2793, 594.5808
162.7615, 594.0862
163.2436, 591.5735
163.7257, 588.9706
164.2078, 586.8130
164.6899, 585.1293
165.1720, 584.1806
165.6541, 584.6016
166.1363, 585.6051
166.6184, 586.4139
167.1005, 586.8399
167.5826, 586.9278
168.0647, 586.3351
168.5468, 585.1480
169.0290, 584.5383
169.5111, 585.6659
169.9932, 587.6972
170.4753, 589.5403
170.9574, 590.2747
171.4395, 590.9503
171.9217, 592.4267
172.4038, 594.7095
172.8859, 597.4955
173.3680, 600.5149
173.8501, 603.8735
174.3322, 607.8129
174.8144, 612.6352
175.2965, 618.0393
175.7786, 623.5432
176.2607, 629.1814
176.7428, 635.0149
177.2249, 641.6435
177.7071, 648.5352
178.1892, 654.5533
178.6713, 659.0175
179.1534, 662.3229
179.6355, 665.0887
180.1176, 667.3473
180.5998, 669.1100
181.0819, 670.0657
181.5640, 670.4452
182.0461, 671.1287
182.5282, 672.5653
183.0103, 674.5811
183.4925, 676.6055
183.9746, 678.4821
184.4567, 681.0021
184.9388, 685.0789
185.4209, 690.6778
185.9030, 697.3388
186.3852, 705.0343
186.8673, 713.6425
187.3494, 722.9562
187.8315, 732.9017
188.3136, 743.7036
188.7957, 755.9625
189.2779, 769.5629
189.7600, 784.4561
190.2421, 800.7289
190.7242, 818.1808
191.2063, 836.5770
191.6884, 856.2919
192.1706, 875.7306
192.6527, 893.3366
193.1348, 909.0213
193.6169, 922.5798
194.0990, 934.7260
194.5811, 945.2020
195.0633, 950.9286
195.5454, 951.2970
196.0275, 947.8087
196.5096, 942.5426
196.9917, 935.3365
197.4738, 927.9723
197.9560, 921.4360
198.4381, 915.7659
198.9202, 909.7020
199.4023, 902.9741
199.8844, 896.2277
200.3665, 890.5516
200.8487, 885.8082
201.3308, 882.7799
201.8129, 882.4077
202.2950, 884.9344
202.7771, 886.7998
203.2592, 887.4535
203.7414, 887.8651
204.2235, 890.2027
204.7056, 894.6743
205.1877, 900.1080
205.6698, 906.1258
206.1519, 912.8489
206.6341, 919.2048
207.1162, 924.8356
207.5983, 930.2645
208.0804, 936.7881
208.5625, 944.6611
209.0446, 952.6207
209.5268, 959.5544
210.0089, 964.7108
210.4910, 972.5068
210.9731, 983.4513
211.4552, 996.8841
211.9373, 1010.863
212.4195, 1024.765
212.9016, 1040.622
213.3837, 1059.253
213.8658, 1080.692
214.3479, 1104.992
214.8300, 1131.982
215.3121, 1162.064
215.7943, 1196.068
216.2764, 1233.121
216.7585, 1275.307
217.2406, 1324.388
217.7227, 1381.032
218.2048, 1440.498
218.6870, 1501.989
219.1691, 1566.477
219.6512, 1638.395
220.1333, 1720.975
220.6154, 1805.529
221.0975, 1891.937
221.5797, 1984.415
222.0618, 2065.729
222.5439, 2143.294
223.0260, 2206.158
223.5081, 2231.667
223.9902, 2218.000
224.4724, 2169.706
224.9545, 2085.356
225.4366, 1950.189
225.9187, 1817.441
226.4008, 1682.159
226.8829, 1550.488
227.3651, 1434.271
227.8472, 1332.426
228.3293, 1245.670
228.8114, 1174.893
229.2935, 1122.643
229.7757, 1079.065
230.2578, 1045.681
230.7399, 1020.603
231.2220, 999.9301
231.7041, 984.0765
232.1862, 972.2136
232.6684, 964.3220
233.1505, 961.0699
233.6326, 959.6691
234.1147, 960.4351
234.5968, 962.8701
235.0789, 966.1467
235.5611, 970.5830
236.0432, 975.3251
236.5253, 980.0587
237.0074, 984.4307
237.4895, 989.8661
237.9716, 996.5381
238.4538, 1004.176
238.9359, 1012.353
239.4180, 1021.326
239.9001, 1030.564
240.3822, 1039.706
240.8643, 1048.234
241.3465, 1058.684
241.8286, 1071.324
242.3107, 1085.690
242.7928, 1100.979
243.2749, 1116.277
243.7570, 1134.072
244.2392, 1155.373
244.7213, 1180.776
245.2034, 1206.620
245.6855, 1233.200
246.1676, 1260.182
246.6497, 1287.458
247.1319, 1316.468
247.6140, 1343.337
248.0961, 1368.281
248.5782, 1392.087
249.0603, 1407.344
249.5424, 1413.787
250.0246, 1412.156
250.5067, 1403.473
250.9888, 1388.572
251.4709, 1364.768
251.9530, 1329.705
252.4351, 1282.445
252.9173, 1235.693
253.3994, 1188.399
253.8815, 1141.872
254.3636, 1096.858
254.8457, 1052.720
255.3278, 1012.464
255.8100, 976.8987
256.2921, 945.8463
256.7742, 917.4799
257.2563, 891.8553
257.7384, 868.8764
258.2205, 849.0795
258.7026, 833.1840
259.1848, 818.3092
259.6669, 804.1111
260.1490, 790.5668
260.6311, 778.3763
261.1132, 767.2918
261.5953, 758.0065
262.0775, 751.6287
262.5596, 749.3825
263.0417, 746.2518
263.5238, 741.3281
264.0059, 735.0695
264.4880, 729.3593
264.9702, 724.0868
265.4523, 719.6296
265.9344, 716.4334
266.4165, 714.8810
266.8986, 713.0275
267.3807, 710.5237
267.8629, 707.6668
268.3450, 705.4651
268.8271, 704.1132
269.3092, 702.9005
269.7913, 701.4205
270.2734, 699.6455
270.7556, 697.8110
271.2377, 695.8159
271.7198, 693.8712
272.2019, 692.4682
272.6840, 691.7094
273.1661, 691.1921
273.6483, 690.6749
274.1304, 690.1044
274.6125, 690.0037
275.0946, 690.4501
275.5767, 691.2556
276.0588, 692.1458
276.5410, 693.1271
277.0231, 694.0471
277.5052, 694.7270
277.9873, 695.1453
278.4694, 695.8651
278.9515, 696.9154
279.4337, 698.1543
279.9158, 699.4706
280.3979, 700.8802
280.8800, 702.1185
281.3621, 703.2577
281.8442, 704.2226
282.3264, 703.9792
282.8085, 702.2973
283.2906, 700.2546
283.7727, 699.1837
284.2548, 699.1053
284.7369, 698.9051
285.2191, 698.2538
285.7012, 697.2465
286.1833, 696.1329
286.6654, 694.8773
287.1475, 693.7657
287.6296, 693.4523
288.1118, 693.7862
288.5939, 693.1699
289.0760, 690.9763
289.5581, 687.7842
290.0402, 684.8657
290.5223, 682.2055
291.0045, 679.8099
291.4866, 677.7389
291.9687, 675.9366
292.4508, 674.1558
292.9329, 672.3550
293.4150, 670.5546
293.8972, 668.7430
294.3793, 666.9212
294.8614, 665.0258
295.3435, 662.7526
295.8256, 660.3790
296.3077, 658.8090
296.7899, 658.3279
297.2720, 658.2134
297.7541, 657.6102
298.2362, 656.5693
298.7183, 655.2932
299.2004, 653.6192
299.6826, 651.8421
300.1647, 650.5017
300.6468, 649.6676
301.1289, 649.0811
301.6110, 648.5517
302.0931, 648.0565
302.5753, 647.5311
303.0574, 647.1785
303.5395, 646.6749
304.0216, 645.5286
304.5037, 643.7119
304.9858, 641.6832
305.4680, 639.4407
305.9501, 637.3010
306.4322, 635.8228
306.9143, 635.8590
307.3964, 636.1660
307.8785, 635.3519
308.3607, 633.5588
308.8428, 632.0652
309.3249, 631.9913
309.8070, 632.5952
310.2891, 633.0213
310.7712, 633.0687
311.2534, 632.8172
311.7355, 632.0476
312.2176, 630.9268
312.6997, 630.1211
313.1818, 630.4635
313.6639, 630.9958
314.1461, 630.8556
314.6282, 629.4883
315.1103, 628.2513
315.5924, 627.9681
316.0745, 628.3047
316.5566, 628.5631
317.0388, 628.1251
317.5209, 627.7839
318.0030, 628.2252
318.4851, 629.8893
318.9672, 630.8558
319.4493, 629.8694
319.9315, 627.9730
320.4136, 626.5331
320.8957, 626.3591
321.3778, 626.3363
321.8599, 625.9796
322.3420, 625.2086
322.8242, 624.7523
323.3063, 625.2028
323.7884, 625.8204
324.2705, 625.9606
324.7526, 624.9054
325.2347, 624.0149
325.7169, 623.5685
326.1990, 623.5423
326.6811, 623.6911
327.1632, 624.2348
327.6453, 624.7864
328.1274, 625.1307
328.6096, 624.9050
329.0917, 624.9225
329.5738, 625.4276
330.0559, 626.2128
330.5380, 626.6069
331.0201, 626.3790
331.5023, 626.0126
331.9844, 625.6566
332.4665, 625.1937
332.9486, 625.0554
333.4307, 625.4376
333.9128, 626.0403
334.3950, 626.3254
334.8771, 626.1068
335.3592, 625.9266
335.8413, 626.0125
336.3234, 626.4220
336.8055, 626.4401
337.2877, 625.8366
337.7698, 625.1551
338.2519, 625.0710
338.7340, 625.7812
339.2161, 626.3058
339.6982, 626.3454
340.1803, 626.0135
340.6624, 626.0346
341.1446, 626.4818
341.6267, 627.0519
342.1088, 627.5507
342.5909, 627.9739
343.0730, 628.3427
343.5551, 628.6751
344.0373, 628.9277
344.5194, 629.0617
345.0015, 629.0866
345.4836, 628.7712
345.9657, 627.5314
346.4478, 625.6727
346.9300, 625.0145
347.4121, 625.8298
347.8942, 627.2321
348.3763, 628.1916
348.8584, 628.7380
349.3405, 629.0521
349.8227, 628.9473
350.3048, 628.7340
350.7869, 629.2963
351.2690, 630.6627
351.7511, 631.8332
352.2332, 631.4152
352.7154, 630.1218
353.1975, 629.4835
353.6796, 630.0950
354.1617, 631.4448
354.6438, 633.2993
355.1259, 635.5218
355.6081, 637.4101
356.0902, 638.6250
356.5723, 639.2060
357.0544, 639.0668
357.5365, 637.8502
358.0186, 636.6934
358.5008, 636.4144
358.9829, 636.7663
359.4650, 637.2258
359.9471, 637.7336
360.4292, 638.1447
360.9113, 638.3298
361.3935, 638.2499
361.8756, 638.1891
362.3577, 638.3939
362.8398, 638.6519
363.3219, 638.7200
363.8040, 638.3186
364.2862, 637.9492
364.7683, 637.7727
365.2504, 637.7939
365.7325, 637.9091
366.2146, 638.0295
366.6967, 638.2870
367.1789, 638.7636
367.6610, 639.7912
368.1431, 640.6569
368.6252, 641.4284
369.1073, 642.0212
369.5894, 642.1630
370.0716, 641.1974
370.5537, 640.4536
371.0358, 640.4465
371.5179, 641.4661
372.0000, 642.3242
372.4821, 642.8854
372.9643, 643.3612
373.4464, 644.0746
373.9285, 645.2242
374.4106, 646.1396
374.8927, 646.5356
375.3748, 646.4413
375.8570, 646.8956
376.3391, 648.1794
376.8212, 649.4111
377.3033, 649.6603
377.7854, 648.7128
378.2675, 648.4241
378.7497, 649.2441
379.2318, 650.6805
379.7139, 651.5245
380.1960, 651.7458
380.6781, 651.7106
381.1602, 651.4249
381.6424, 650.9918
382.1245, 651.1193
382.6066, 651.9288
383.0887, 652.9656
383.5708, 653.7404
384.0529, 654.2694
384.5351, 654.6390
385.0172, 654.7090
385.4993, 654.7196
385.9814, 655.2302
386.4635, 656.2073
386.9456, 657.0652
387.4278, 657.0765
387.9099, 656.6953
388.3920, 656.6790
388.8741, 657.3384
389.3562, 658.1957
389.8383, 658.8778
390.3205, 659.4271
390.8026, 659.9526
391.2847, 660.4889
391.7668, 661.0322
392.2489, 661.7367
392.7310, 662.7460
393.2132, 663.1867
393.6953, 661.9507
394.1774, 660.1249
394.6595, 659.0172
395.1416, 659.8752
395.6237, 660.7209
396.1059, 660.6341
396.5880, 659.6891
397.0701, 659.3134
397.5522, 660.3640
398.0343, 661.7028
398.5164, 662.6621
398.9986, 663.0784
399.4807, 663.2586
399.9628, 663.0182
400.4449, 662.5687
400.9270, 662.4085
401.4091, 662.7969
401.8913, 663.1414
402.3734, 663.1883
402.8555, 662.8215
403.3376, 662.8323
403.8197, 663.3520
404.3018, 664.0880
404.7840, 664.7764
405.2661, 665.4695
405.7482, 665.8798
406.2303, 665.8262
406.7124, 665.4657
407.1945, 665.5018
407.6767, 665.9772
408.1588, 666.5941
408.6409, 667.1808
409.1230, 667.7308
409.6051, 668.2330
410.0872, 668.6560
410.5694, 669.1224
411.0515, 669.9656
411.5336, 671.1003
412.0157, 671.9537
412.4978, 672.0926
412.9799, 671.8433
413.4621, 671.8617
413.9442, 672.1500
414.4263, 672.4969
414.9084, 672.8954
415.3905, 673.2130
415.8727, 673.1635
416.3548, 672.3698
416.8369, 671.7126
417.3190, 672.3773
417.8011, 673.8232
418.2832, 674.6176
418.7654, 673.1229
419.2475, 671.3491
419.7296, 670.7524
420.2117, 671.6228
420.6938, 672.7102
421.1759, 673.9395
421.6581, 674.9503
422.1402, 675.3741
422.6223, 674.2074
423.1044, 673.3909
423.5865, 673.5130
424.0686, 674.4725
424.5508, 675.4548
425.0329, 676.7101
425.5150, 677.7074
425.9971, 678.1319
426.4792, 677.3644
426.9613, 677.3575
427.4435, 678.5655
427.9256, 680.2960
428.4077, 681.4418
428.8898, 681.8333
429.3719, 682.0391
429.8540, 682.1305
430.3362, 682.1298
430.8183, 682.5061
431.3004, 683.4619
431.7825, 684.2067
432.2646, 683.7465
432.7467, 682.0758
433.2289, 681.3016
433.7110, 681.8182
434.1931, 683.1736
434.6752, 684.9280
435.1573, 686.9954
435.6394, 688.4725
436.1216, 688.3641
436.6036, 687.4188
437.0858, 687.2809
437.5679, 687.9841
438.0500, 689.1526
438.5321, 691.0414
439.0142, 693.0656
439.4963, 694.1636
439.9785, 693.5261
440.4606, 692.5646
440.9427, 692.2514
441.4248, 692.5251
441.9069, 693.2044
442.3890, 694.7545
442.8712, 696.3033
443.3533, 697.1640
443.8354, 697.0821
444.3175, 697.2498
444.7996, 698.1968
445.2817, 699.5289
445.7639, 700.8397
446.2460, 701.9792
446.7281, 703.1674
447.2102, 704.6258
447.6923, 706.2449
448.1744, 707.2303
448.6566, 706.7485
449.1387, 706.4843
449.6208, 707.2375
450.1029, 709.4044
450.5850, 711.4131
451.0671, 713.2866
451.5493, 714.9505
452.0314, 716.2994
452.5135, 717.3233
452.9956, 718.0253
453.4777, 718.2896
453.9598, 718.2522
454.4420, 718.5166
454.9241, 719.1046
455.4062, 719.8047
455.8883, 720.3920
456.3704, 720.9395
456.8525, 721.8990
457.3347, 723.4344
457.8168, 724.8873
458.2989, 725.1891
458.7810, 724.6830
459.2631, 724.3673
459.7452, 724.6581
460.2274, 725.3790
460.7095, 726.5168
461.1916, 728.0182
461.6737, 729.3495
462.1558, 730.1422
462.6379, 730.6547
463.1201, 731.0543
463.6022, 731.1901
464.0843, 731.6576
464.5664, 732.9568
465.0485, 734.6833
465.5306, 736.1949
466.0128, 737.2879
466.4949, 738.1901
466.9770, 738.8795
467.4591, 739.3497
467.9412, 739.9266
468.4233, 740.5785
468.9055, 741.3863
469.3876, 742.4256
469.8697, 743.8316
470.3518, 745.1977
470.8339, 746.5307
471.3160, 747.8406
471.7982, 749.0374
472.2803, 749.9661
472.7624, 751.4828
473.2445, 754.1852
473.7266, 757.7531
474.2087, 759.9239
474.6909, 760.5065
475.1730, 761.1992
475.6551, 763.6707
476.1372, 767.5138
476.6193, 771.0185
477.1014, 773.7975
477.5836, 776.4540
478.0657, 779.5624
478.5478, 783.1342
479.0299, 787.1390
479.5120, 791.9745
479.9941, 797.0204
480.4763, 801.3660
480.9584, 805.1478
481.4405, 809.5774
481.9226, 815.4503
482.4047, 822.1794
482.8868, 829.3157
483.3690, 836.6170
483.8511, 844.4899
484.3332, 853.1890
484.8153, 862.4746
485.2974, 872.1425
485.7795, 881.2711
486.2617, 891.6137
486.7438, 903.7206
487.2259, 917.6205
487.7080, 931.8538
488.1901, 946.4315
488.6722, 961.4857
489.1544, 977.1371
489.6365, 992.9590
490.1186, 1010.544
490.6007, 1030.250
491.0828, 1051.325
491.5649, 1073.037
492.0471, 1095.188
492.5292, 1118.162
493.0113, 1141.047
493.4934, 1165.041
493.9755, 1194.414
494.4576, 1228.777
494.9398, 1265.488
495.4219, 1301.649
495.9040, 1338.947
496.3861, 1379.017
496.8682, 1422.692
497.3503, 1468.723
497.8325, 1517.359
498.3146, 1567.709
498.7967, 1619.437
499.2788, 1673.526
499.7609, 1727.357
500.2430, 1781.881
500.7252, 1835.618
501.2073, 1883.338
501.6894, 1925.413
502.1715, 1958.953
502.6536, 1983.546
503.1357, 2000.285
503.6179, 2003.639
504.1000, 1990.883
504.5821, 1966.784
505.0642, 1935.569
505.5463, 1896.117
506.0284, 1851.741
506.5106, 1801.259
506.9927, 1746.945
507.4748, 1695.484
507.9569, 1646.410
508.4390, 1602.312
508.9211, 1564.480
509.4033, 1532.780
509.8854, 1506.205
510.3675, 1484.761
510.8496, 1468.381
511.3317, 1457.381
511.8138, 1451.393
512.2960, 1449.587
512.7781, 1451.800
513.2602, 1457.918
513.7423, 1467.990
514.2244, 1481.875
514.7065, 1499.223
515.1887, 1522.106
515.6708, 1546.733
516.1529, 1570.419
516.6350, 1593.196
517.1171, 1616.589
517.5992, 1642.129
518.0814, 1667.551
518.5635, 1691.541
519.0456, 1716.165
519.5277, 1735.686
520.0098, 1749.986
520.4919, 1759.033
520.9741, 1762.875
521.4562, 1762.706
521.9383, 1754.861
522.4204, 1738.136
522.9025, 1712.976
523.3846, 1681.586
523.8668, 1643.607
524.3489, 1601.586
524.8310, 1555.574
525.3131, 1505.856
525.7952, 1456.691
526.2773, 1407.912
526.7595, 1360.070
527.2416, 1313.843
527.7237, 1269.600
528.2058, 1227.436
528.6879, 1187.778
529.1700, 1150.530
529.6522, 1115.478
530.1343, 1083.039
530.6164, 1053.294
531.0985, 1027.280
531.5806, 1003.559
532.0627, 981.5441
532.5449, 961.2474
533.0270, 942.8171
533.5091, 927.0863
533.9912, 912.8864
534.4733, 899.6256
534.9554, 886.7572
535.4376, 875.2373
535.9197, 865.4258
536.4018, 856.8295
536.8839, 848.9796
537.3660, 841.9924
537.8481, 835.2219
538.3303, 828.3477
538.8124, 821.5037
539.2945, 815.2280
539.7766, 809.5188
540.2587, 804.4027
540.7408, 800.0112
541.2230, 796.2274
541.7051, 792.8196
542.1872, 789.7991
542.6693, 786.9972
543.1514, 784.2214
543.6335, 781.5419
544.1157, 778.9918
544.5978, 776.5089
545.0799, 774.2811
545.5620, 772.4622
546.0441, 771.0219
546.5262, 769.8831
547.0084, 769.2003
547.4905, 768.6453
547.9726, 768.0814
548.4547, 767.4975
548.9368, 766.8980
549.4189, 765.8642
549.9011, 765.1391
550.3832, 765.2099
550.8653, 766.5490
551.3474, 767.5936
551.8295, 768.3894
552.3116, 768.7804
552.7938, 768.2318
553.2759, 766.5693
553.7580, 765.7139
554.2401, 766.4977
554.7222, 768.1387
555.2043, 768.4767
555.6865, 767.6395
556.1686, 767.0394
556.6507, 767.6624
557.1328, 769.0328
557.6149, 770.5828
558.0970, 772.2903
558.5792, 773.8562
559.0613, 775.0772
559.5434, 776.0444
560.0255, 776.8060
560.5076, 777.1500
560.9897, 777.6981
561.4719, 778.4814
561.9540, 779.6343
562.4361, 781.3621
562.9182, 784.0557
563.4003, 786.9365
563.8824, 790.0472
564.3646, 793.2762
564.8467, 796.0175
565.3288, 798.0897
565.8109, 800.0247
566.2930, 802.2308
566.7751, 804.7219
567.2573, 806.3989
567.7394, 807.1146
568.2215, 807.7206
568.7036, 809.0703
569.1857, 811.0553
569.6678, 813.3507
570.1500, 815.8955
570.6321, 818.6682
571.1142, 821.7847
571.5963, 825.0878
572.0784, 828.2068
572.5605, 830.5707
573.0427, 833.0994
573.5248, 836.5178
574.0069, 840.6932
574.4890, 844.8792
574.9711, 848.6575
575.4532, 852.4735
575.9354, 856.4670
576.4175, 860.5788
576.8996, 865.1057
577.3817, 870.1026
577.8638, 875.4057
578.3459, 880.9035
578.8281, 886.4175
579.3102, 892.5098
579.7923, 899.2054
580.2744, 906.5184
580.7565, 914.5207
581.2386, 923.1700
581.7208, 931.7642
582.2029, 939.9263
582.6850, 948.0281
583.1671, 956.9634
583.6492, 966.6730
584.1313, 976.7616
584.6134, 987.0654
585.0955, 997.7123
585.5776, 1008.786
586.0598, 1020.326
586.5419, 1032.556
587.0240, 1046.647
587.5061, 1060.981
587.9882, 1074.198
588.4703, 1084.780
588.9525, 1096.057
589.4346, 1108.347
589.9167, 1121.301
590.3988, 1134.630
590.8809, 1148.823
591.3630, 1161.719
591.8452, 1172.677
592.3273, 1181.981
592.8094, 1190.913
593.2915, 1199.524
593.7736, 1206.748
594.2557, 1212.421
594.7379, 1216.168
595.2200, 1216.843
595.7021, 1214.429
596.1842, 1210.320
596.6663, 1206.166
597.1484, 1200.741
597.6306, 1192.367
598.1127, 1180.524
598.5948, 1166.844
599.0769, 1151.210
599.5590, 1134.528
600.0411, 1117.868
600.5233, 1102.496
601.0054, 1086.178
601.4875, 1067.969
601.9696, 1048.584
602.4517, 1029.951
602.9338, 1011.943
603.4160, 994.6057
603.8981, 977.6862
604.3802, 961.2020
604.8623, 946.2159
605.3444, 932.6598
605.8265, 920.0745
606.3087, 907.9818
606.7908, 896.5876
607.2729, 886.4764
607.7550, 877.7418
608.2371, 869.5654
608.7192, 860.7533
609.2014, 852.0955
609.6835, 844.5430
610.1656, 838.9023
610.6477, 833.8024
611.1298, 828.7362
611.6119, 823.7848
612.0941, 818.9781
612.5762, 814.4046
613.0583, 809.9548
613.5404, 805.4161
614.0225, 800.9597
614.5046, 797.1238
614.9868, 794.1179
615.4689, 791.3204
615.9510, 788.3859
616.4331, 785.3463
616.9152, 782.6083
617.3973, 780.1761
617.8795, 778.0579
618.3616, 776.5663
618.8437, 775.4120
619.3258, 773.8489
619.8079, 771.6884
620.2900, 769.5246
620.7722, 767.9214
621.2543, 766.6160
621.7364, 765.2498
622.2185, 763.3839
622.7006, 761.8370
623.1827, 761.1139
623.6649, 760.8904
624.1470, 760.3762
624.6291, 759.0394
625.1112, 757.9489
625.5933, 757.4088
626.0754, 757.3322
626.5576, 757.1744
627.0397, 756.9686
627.5218, 756.5426
628.0039, 755.3887
628.4860, 753.7202
628.9681, 753.8447
629.4503, 755.9065
629.9324, 757.8486
630.4145, 757.6906
630.8966, 756.2250
631.3787, 754.7216
631.8608, 753.3582
632.3430, 752.2659
632.8251, 751.5266
633.3072, 751.1303
633.7893, 751.0504
634.2714, 751.5897
634.7535, 752.0943
635.2357, 752.2955
635.7178, 752.3894
636.1999, 752.8894
636.6820, 754.3204
637.1641, 755.1119
637.6462, 754.5647
638.1284, 753.0353
638.6105, 752.6600
639.0926, 753.5753
639.5747, 754.2461
640.0568, 753.2035
640.5389, 751.2462
641.0211, 750.9463
641.5032, 752.3077
641.9853, 753.9160
642.4674, 754.9843
642.9495, 755.5486
643.4316, 755.5051
643.9138, 754.6617
644.3959, 753.9951
644.8780, 753.8744
645.3601, 754.1776
645.8422, 754.7880
646.3243, 756.6290
646.8065, 757.5149
647.2886, 757.0020
647.7707, 755.7223
648.2528, 754.6973
648.7349, 753.8959
649.2170, 753.5258
649.6992, 753.7004
650.1813, 754.2682
650.6634, 755.0076
651.1455, 755.8716
651.6276, 756.4422
652.1097, 756.0264
652.5919, 755.4398
653.0740, 755.9600
653.5561, 757.4516
654.0382, 758.7529
654.5203, 759.1985
655.0024, 759.2245
655.4846, 758.9502
655.9667, 758.2111
656.4488, 758.0654
656.9309, 759.2972
657.4130, 760.6544
657.8951, 761.3663
658.3773, 761.4219
658.8594, 760.6957
659.3415, 758.8750
659.8236, 756.8250
660.3057, 755.6786
660.7878, 755.3998
661.2700, 755.6125
661.7521, 756.5065
662.2342, 757.2679
662.7163, 756.3541
663.1984, 754.4341
663.6805, 753.1713
664.1627, 754.2873
664.6448, 755.4121
665.1269, 754.8980
665.6090, 753.1749
666.0911, 751.9188
666.5732, 751.6604
667.0554, 751.8152
667.5375, 752.3306
668.0196, 753.1982
668.5017, 753.6239
668.9838, 753.3799
669.4659, 753.2168
669.9481, 753.7556
670.4302, 754.9125
670.9123, 755.4564
671.3944, 755.3552
671.8765, 754.7820
672.3586, 753.6540
672.8408, 752.2344
673.3229, 750.8851
673.8050, 749.5936
674.2871, 748.7413
674.7692, 749.0072
675.2513, 749.6843
675.7335, 749.9925
676.2156, 749.3686
676.6977, 748.8627
677.1798, 748.4722
677.6619, 748.3431
678.1440, 748.8009
678.6262, 750.2228
679.1083, 751.2435
679.5904, 751.5576
680.0725, 751.3390
680.5546, 750.9433
681.0367, 750.3719
681.5189, 749.8143
682.0010, 749.2023
682.4831, 748.7325
682.9652, 748.8754
683.4473, 749.4854
683.9294, 749.9146
684.4116, 749.4802
684.8937, 749.0032
685.3758, 749.0081
685.8579, 749.5469
686.3400, 750.1989
686.8221, 751.0920
687.3043, 751.9122
687.7864, 752.5388
688.2685, 752.9891
688.7506, 753.1674
689.2327, 753.0532
689.7148, 752.7347
690.1970, 752.1710
690.6791, 751.4254
691.1612, 750.9213
691.6433, 750.7094
692.1254, 750.7459
692.6075, 751.3734
693.0897, 752.1165
693.5718, 752.1311
694.0539, 750.5864
694.5360, 749.4096
695.0181, 750.0012
695.5002, 751.3565
695.9824, 751.8982
696.4645, 750.0873
696.9466, 749.3151
697.4287, 750.5011
697.9108, 752.7362
698.3929, 753.6389
698.8751, 752.9890
699.3572, 752.3600
699.8393, 752.3264
700.3214, 752.6026
700.8035, 752.3159
701.2856, 751.6107
701.7678, 751.3410
702.2499, 752.5652
702.7320, 754.0403
703.2141, 754.3940
703.6962, 753.7787
704.1783, 753.5848
704.6605, 755.0992
705.1426, 756.4777
705.6247, 756.4735
706.1068, 754.8002
706.5889, 754.4247
707.0710, 755.9665
707.5532, 757.7249
708.0353, 758.5775
708.5174, 758.5259
708.9995, 758.7258
709.4816, 759.2631
709.9637, 759.6558
710.4459, 759.0879
710.9280, 758.1497
711.4101, 758.1270
711.8922, 759.4646
712.3743, 760.5709
712.8564, 760.1884
713.3386, 759.1703
713.8207, 758.4063
714.3028, 758.2800
714.7849, 758.1398
715.2670, 757.8108
715.7491, 757.5036
716.2313, 757.5613
716.7134, 758.1350
717.1955, 758.3411
717.6776, 757.9343
718.1597, 757.2144
718.6418, 756.6096
719.1240, 756.1456
719.6061, 755.9996
720.0882, 756.3963
720.5703, 756.9289
721.0524, 757.4515
721.5345, 757.7866
722.0167, 757.5097
722.4988, 755.5583
722.9809, 753.9233
723.4630, 753.6674
723.9451, 754.4777
724.4272, 754.6105
724.9094, 753.6484
725.3915, 752.8662
725.8736, 752.7883
726.3557, 753.2838
726.8378, 753.6003
727.3199, 753.7443
727.8021, 753.8116
728.2842, 753.8032
728.7663, 753.7771
729.2484, 753.9164
729.7305, 754.1815
730.2126, 754.2088
730.6948, 753.1184
731.1769, 752.2072
731.6590, 752.5361
732.1411, 754.4491
732.6232, 755.8625
733.1053, 756.5084
733.5875, 756.7638
734.0696, 756.8290
734.5517, 756.7071
735.0338, 756.3466
735.5159, 755.7050
735.9980, 755.0443
736.4802, 754.5107
736.9623, 754.1766
737.4444, 754.3112
737.9265, 755.0061
738.4086, 755.7603
738.8907, 756.2736
739.3729, 756.6096
739.8550, 756.8475
740.3371, 757.1271
740.8192, 757.0518
741.3013, 755.8561
741.7834, 754.6962
742.2656, 754.8895
742.7477, 757.1083
743.2298, 758.2051
743.7119, 757.5645
744.1940, 756.2950
744.6761, 756.1301
745.1583, 756.8383
745.6404, 757.3049
746.1225, 757.2007
746.6046, 756.8504
747.0867, 756.2722
747.5688, 755.7318
748.0510, 755.6833
748.5331, 757.0945
749.0152, 758.0933
749.4973, 757.7986
749.9794, 756.8495
750.4615, 756.5092
750.9437, 756.9744
751.4258, 757.6169
751.9079, 758.4364
752.3900, 759.2316
752.8721, 759.3657
753.3542, 758.9157
753.8364, 758.6437
754.3185, 758.9935
754.8006, 759.5527
755.2827, 759.6419
755.7648, 759.5123
756.2469, 759.8937
756.7291, 761.7541
757.2112, 763.5040
757.6933, 764.5613
758.1754, 764.9435
758.6575, 764.9279
759.1396, 764.0884
759.6218, 763.7288
760.1039, 764.5338
760.5860, 766.1312
761.0681, 766.7161
761.5502, 766.3212
762.0323, 766.0997
762.5145, 766.9941
762.9966, 768.3146
763.4787, 769.1142
763.9608, 769.4594
764.4429, 769.8303
764.9250, 770.4725
765.4072, 771.1926
765.8893, 772.0027
766.3714, 772.9125
766.8535, 773.2712
767.3356, 772.4799
767.8177, 772.2080
768.2999, 773.5861
768.7820, 776.3633
769.2641, 778.0040
769.7462, 778.4662
770.2283, 778.5290
770.7104, 778.4569
771.1926, 778.4750
771.6747, 778.8699
772.1568, 779.6580
772.6389, 780.8348
773.1210, 783.2026
773.6031, 785.3268
774.0853, 786.0969
774.5674, 785.1252
775.0495, 784.9860
775.5316, 786.1220
776.0137, 787.3575
776.4958, 787.9632
776.9780, 787.9703
777.4601, 787.7166
777.9422, 787.1784
778.4243, 786.9379
778.9064, 787.9016
779.3885, 789.2614
779.8707, 789.9866
780.3528, 789.9438
780.8349, 789.4174
781.3170, 787.8897
781.7991, 786.3828
782.2812, 785.7249
782.7633, 786.2408
783.2454, 786.5051
783.7275, 786.6729
784.2097, 786.2784
784.6918, 784.5309
785.1739, 781.6506
785.6560, 779.7462
786.1381, 778.9939
786.6202, 778.6118
787.1024, 777.9617
787.5845, 777.2184
788.0666, 776.5845
788.5487, 776.0710
789.0308, 775.7645
789.5129, 775.7826
789.9951, 775.9584
790.4772, 776.1306
790.9593, 776.1766
791.4414, 776.5681
791.9235, 777.3506
792.4056, 778.3573
792.8878, 779.7651
793.3699, 781.3431
793.8520, 781.7825
794.3341, 780.8632
794.8162, 779.6127
795.2983, 778.5447
795.7805, 777.8161
796.2626, 777.7028
796.7447, 778.5410
797.2268, 779.0987
797.7089, 778.7953
798.1910, 778.3159
798.6732, 778.1688
799.1553, 778.4181
799.6374, 778.7618
800.1195, 779.1543
800.6016, 779.7952
801.0837, 781.3365
801.5659, 783.3129
802.0480, 784.1752
802.5301, 783.6054
803.0122, 782.6923
803.4943, 781.7436
803.9764, 781.1158
804.4586, 781.2365
804.9407, 782.5868
805.4228, 783.6345
805.9049, 783.8863
806.3870, 784.1462
806.8691, 785.3507
807.3513, 787.7442
807.8334, 788.4756
808.3155, 787.0925
808.7976, 785.6018
809.2797, 786.6085
809.7618, 788.9135
810.2440, 790.0332
810.7261, 789.4195
811.2082, 788.7854
811.6903, 789.2275
812.1724, 789.9922
812.6545, 790.4274
813.1367, 790.3617
813.6188, 790.2333
814.1009, 790.0080
814.5830, 789.7857
815.0651, 789.7093
815.5472, 789.7637
816.0294, 789.5899
816.5115, 789.1495
816.9936, 788.7568
817.4757, 788.8834
817.9578, 789.1575
818.4399, 788.9726
818.9221, 788.0713
819.4042, 787.7287
819.8863, 789.0393
820.3684, 790.5641
820.8505, 791.2601
821.3326, 790.8234
821.8148, 790.7906
822.2969, 791.1779
822.7790, 791.8676
823.2611, 792.8391
823.7432, 794.0035
824.2253, 795.3260
824.7075, 796.7968
825.1896, 797.5108
825.6717, 795.9772
826.1538, 793.9595
826.6359, 793.0398
827.1180, 793.6861
827.6002, 793.8655
828.0823, 792.8592
828.5644, 792.0121
829.0465, 792.2209
829.5286, 793.5258
830.0107, 794.5759
830.4929, 795.3881
830.9750, 795.8470
831.4571, 795.6934
831.9392, 795.2142
832.4213, 794.8312
832.9034, 794.5784
833.3856, 794.2885
833.8677, 793.3831
834.3498, 792.8480
834.8319, 793.4876
835.3140, 795.3486
835.7961, 796.6951
836.2783, 797.4012
836.7604, 797.9153
837.2425, 798.4437
837.7246, 798.9729
838.2067, 799.5206
838.6888, 800.0645
839.1710, 800.4112
839.6531, 799.9488
840.1352, 799.6047
840.6173, 800.3397
841.0994, 802.0536
841.5815, 803.4268
842.0637, 804.1022
842.5458, 804.5088
843.0279, 804.6182
843.5100, 804.5417
843.9921, 805.0964
844.4742, 806.3092
844.9564, 807.4746
845.4385, 808.3490
845.9206, 808.9052
846.4027, 808.8602
846.8848, 808.4318
847.3669, 808.3285
847.8491, 809.0580
848.3312, 810.0115
848.8133, 810.6495
849.2954, 811.3387
849.7775, 813.4208
850.2596, 817.5315
850.7418, 821.0095
851.2239, 822.9264
851.7060, 823.9739
852.1881, 825.4979
852.6702, 827.4573
853.1523, 829.6848
853.6345, 832.1834
854.1166, 834.8084
854.5987, 837.3814
855.0808, 839.9891
855.5629, 842.8808
856.0450, 846.2664
856.5272, 849.6118
857.0093, 852.6670
857.4914, 855.8254
857.9735, 859.8317
858.4556, 864.6354
858.9377, 869.6259
859.4199, 874.5562
859.9020, 879.7670
860.3841, 885.6345
860.8662, 891.9955
861.3483, 898.8591
861.8304, 907.2352
862.3126, 914.1369
862.7947, 917.1630
863.2768, 919.4443
863.7589, 923.4639
864.2410, 929.1786
864.7231, 937.2874
865.2053, 948.2513
865.6874, 960.0095
866.1695, 972.0696
866.6516, 982.9774
867.1337, 990.3792
867.6158, 994.0836
868.0980, 992.7271
868.5801, 982.5491
869.0622, 969.1776
869.5443, 956.6085
870.0264, 944.8153
870.5085, 934.3143
870.9907, 925.1222
871.4728, 917.5426
871.9549, 911.8050
872.4370, 907.9752
872.9191, 906.6963
873.4012, 907.8738
873.8834, 909.9206
874.3655, 911.9461
874.8476, 914.2457
875.3297, 916.7455
875.8118, 919.4666
876.2939, 923.8460
876.7761, 930.4694
877.2582, 937.7740
877.7403, 945.2368
878.2224, 952.9286
878.7045, 960.7728
879.1866, 968.8592
879.6688, 978.0713
880.1509, 988.8871
880.6330, 1001.047
881.1151, 1013.490
881.5972, 1027.076
882.0793, 1043.974
882.5615, 1064.824
883.0436, 1089.552
883.5257, 1119.107
884.0078, 1151.764
884.4899, 1184.296
884.9720, 1216.808
885.4542, 1247.092
885.9363, 1274.125
886.4184, 1300.087
886.9005, 1325.934
887.3826, 1353.345
887.8647, 1384.896
888.3469, 1419.947
888.8290, 1461.871
889.3111, 1509.693
889.7932, 1566.008
890.2753, 1632.738
890.7574, 1708.658
891.2396, 1802.182
891.7217, 1914.609
892.2038, 2043.004
892.6859, 2181.512
893.1680, 2334.605
893.6501, 2511.813
894.1323, 2716.283
894.6144, 2940.136
895.0965, 3236.352
895.5786, 3508.277
896.0607, 3712.788
896.5428, 3866.840
897.0250, 3809.773
897.5071, 3507.845
897.9892, 3109.725
898.4713, 2649.106
898.9534, 2173.336
899.4355, 1804.609
899.9177, 1541.156
900.3998, 1343.939
900.8819, 1221.599
901.3640, 1135.937
901.8461, 1074.857
902.3282, 1036.087
902.8104, 1004.947
903.2925, 982.7635
903.7746, 965.2986
904.2567, 952.0615
904.7388, 942.2894
905.2209, 935.0067
905.7031, 929.7883
906.1852, 924.8799
906.6673, 919.0861
907.1494, 914.1414
907.6315, 911.7402
908.1136, 910.7812
908.5958, 909.5182
909.0779, 907.2743
909.5600, 905.6298
910.0421, 904.6767
910.5242, 904.3771
911.0063, 904.6974
911.4885, 905.6329
911.9706, 907.2723
912.4527, 909.6760
912.9348, 912.1793
913.4169, 914.3900
913.8990, 916.3535
914.3812, 917.9027
914.8633, 918.6850
915.3454, 920.7214
915.8275, 924.7716
916.3096, 928.8041
916.7917, 931.5240
917.2739, 933.1516
917.7560, 935.1822
918.2381, 937.5887
918.7202, 940.1537
919.2023, 943.0514
919.6844, 945.7732
920.1666, 947.8527
920.6487, 949.3900
921.1308, 950.9496
921.6129, 952.4705
922.0950, 954.2792
922.5771, 956.4819
923.0593, 958.9951
923.5414, 961.6227
924.0235, 964.3544
924.5056, 967.2036
924.9877, 970.1633
925.4698, 973.2327
925.9520, 976.3528
926.4341, 979.6161
926.9162, 983.1169
927.3983, 986.9506
927.8804, 990.9465
928.3625, 995.1439
928.8447, 999.3672
929.3268, 1003.645
929.8089, 1007.835
930.2910, 1011.001
930.7731, 1013.046
931.2552, 1014.716
931.7374, 1015.832
932.2195, 1017.435
932.7016, 1020.776
933.1837, 1026.098
933.6658, 1030.809
934.1479, 1034.698
934.6301, 1037.993
935.1122, 1040.488
935.5943, 1042.547
936.0764, 1046.007
936.5585, 1050.694
937.0406, 1055.025
937.5228, 1057.350
938.0049, 1059.829
938.4870, 1065.280
938.9691, 1072.037
939.4512, 1075.973
939.9333, 1074.875
940.4155, 1074.007
940.8976, 1073.974
941.3797, 1074.406
941.8618, 1074.879
942.3439, 1075.325
942.8260, 1075.548
943.3082, 1075.571
943.7903, 1074.953
944.2724, 1073.183
944.7545, 1070.715
945.2366, 1068.009
945.7188, 1065.317
946.2009, 1061.495
946.6830, 1056.353
947.1651, 1050.488
947.6472, 1044.186
948.1293, 1037.524
948.6115, 1030.257
949.0936, 1022.587
949.5757, 1015.741
950.0578, 1011.942
950.5399, 1007.901
951.0220, 1001.053
951.5042, 992.1780
951.9863, 984.8651
952.4684, 979.7334
952.9505, 974.6654
953.4326, 969.1550
953.9147, 963.5308
954.3969, 958.1827
954.8790, 953.1197
955.3611, 948.3653
955.8432, 944.0295
956.3253, 939.8430
956.8074, 935.6061
957.2896, 931.4945
957.7717, 927.6162
958.2538, 923.9902
958.7359, 920.3909
959.2180, 916.7708
959.7001, 913.4130
960.1823, 910.8893
960.6644, 908.6448
961.1465, 905.3450
961.6286, 901.0964
962.1107, 897.4140
962.5928, 895.5087
963.0750, 893.8228
963.5571, 891.7628
964.0392, 889.3693
964.5213, 886.7303
965.0034, 883.8164
965.4855, 881.2029
965.9677, 879.2299
966.4498, 877.3142
966.9319, 874.2469
967.4140, 870.7780
967.8961, 868.3196
968.3782, 867.8270
968.8604, 867.3272
969.3425, 866.7137
969.8246, 865.6588
970.3067, 863.5652
970.7888, 860.3748
971.2709, 858.2625
971.7531, 857.3206
972.2352, 856.8636
972.7173, 856.4001
973.1994, 856.0753
973.6815, 856.3622
974.1636, 857.1356
974.6458, 856.9310
975.1279, 854.6720
975.6100, 852.5726
976.0921, 851.1940
976.5742, 850.4004
977.0563, 849.9519
977.5385, 849.7925
978.0206, 849.5737
978.5027, 849.0626
978.9848, 848.7047
979.4669, 849.4100
979.9490, 850.2316
980.4311, 849.8608
980.9132, 847.2664
981.3953, 845.5677
981.8774, 845.0188
982.3596, 844.7492
982.8417, 844.0485
983.3238, 843.0002
983.8059, 841.5961
984.2880, 839.9141
984.7701, 838.9307
985.2523, 839.8958
985.7344, 841.0295
986.2165, 841.3409
986.6986, 840.9945
987.1807, 840.6400
987.6628, 840.2316
988.1450, 840.1313
988.6271, 840.5773
989.1092, 841.1201
989.5913, 841.2911
990.0734, 841.0348
990.5555, 840.1116
991.0377, 837.6776
991.5198, 836.2920
992.0019, 837.2913
992.4840, 838.8866
992.9661, 839.9106
993.4482, 840.3658
993.9304, 840.1200
994.4125, 839.1505
994.8946, 838.2267
995.3767, 837.7236
995.8588, 837.6429
996.3409, 838.0430
996.8231, 838.8824
997.3052, 840.0117
997.7873, 842.0275
998.2694, 843.1506
998.7515, 842.7428
999.2336, 841.5481
999.7158, 840.8879
1000.198, 840.7291
1000.680, 841.0431
1001.162, 841.9351
1001.644, 842.8944
1002.126, 843.6940
1002.608, 844.3263
1003.091, 844.7960
1003.573, 845.1569
1004.055, 845.0254
1004.537, 844.2626
1005.019, 843.6934
1005.501, 844.0414
1005.983, 844.8685
1006.465, 845.5560
1006.948, 846.0691
1007.430, 846.3204
1007.912, 846.0688
1008.394, 845.7950
1008.876, 845.5458
1009.358, 845.4090
1009.840, 845.6516
1010.322, 846.2548
1010.804, 846.4695
1011.287, 846.0940
1011.769, 845.7747
1012.251, 846.2712
1012.733, 847.0359
1013.215, 847.5693
1013.697, 847.8002
1014.179, 847.6702
1014.661, 846.9639
1015.143, 846.3866
1015.626, 846.3047
1016.108, 846.5991
1016.590, 847.0284
1017.072, 847.5349
1017.554, 847.9099
1018.036, 847.7542
1018.518, 847.7967
1019.000, 848.6813
1019.483, 849.7637
1019.965, 850.0469
1020.447, 849.2620
1020.929, 849.4332
1021.411, 850.9056
1021.893, 851.9360
1022.375, 850.0477
1022.857, 847.1924
1023.339, 846.1318
1023.822, 846.9893
1024.304, 847.0045
1024.786, 844.3551
1025.268, 842.4604
1025.750, 842.5804
1026.232, 843.9457
1026.714, 844.4407
1027.196, 844.2375
1027.679, 844.1736
1028.161, 844.5336
1028.643, 845.0904
1029.125, 846.0349
1029.607, 846.8962
1030.089, 847.1183
1030.571, 846.5362
1031.053, 845.8719
1031.536, 845.0687
1032.018, 844.3624
1032.500, 843.6713
1032.982, 843.3046
1033.464, 844.0887
1033.946, 845.7358
1034.428, 847.0589
1034.910, 847.6569
1035.392, 847.7968
1035.875, 847.4450
1036.357, 846.8235
1036.839, 846.2032
1037.321, 845.6228
1037.803, 845.5408
1038.285, 846.1135
1038.767, 846.5620
1039.249, 846.1037
1039.731, 845.3701
1040.214, 844.8885
1040.696, 844.7154
1041.178, 844.4383
1041.660, 844.0514
1042.142, 843.5140
1042.624, 842.4822
1043.106, 841.6483
1043.588, 842.9788
1044.071, 845.3959
1044.553, 846.4289
1045.035, 843.5941
1045.517, 841.8450
1045.999, 843.1172
1046.481, 844.7504
1046.963, 843.7189
1047.445, 840.3124
1047.927, 839.7045
1048.410, 841.9899
1048.892, 844.3878
1049.374, 845.0971
1049.856, 845.0364
1050.338, 844.5781
1050.820, 843.8679
1051.302, 843.4025
1051.784, 843.1371
1052.266, 843.3742
1052.749, 844.3431
1053.231, 845.3583
1053.713, 845.3365
1054.195, 844.7558
1054.677, 844.4259
1055.159, 844.5619
1055.641, 844.5641
1056.123, 843.7708
1056.606, 843.4492
1057.088, 844.5986
1057.570, 846.6951
1058.052, 846.2849
1058.534, 843.8289
1059.016, 842.3268
1059.498, 844.0369
1059.980, 845.9631
1060.463, 846.1661
1060.945, 845.4783
1061.427, 845.0995
1061.909, 845.1733
1062.391, 845.1285
1062.873, 844.9037
1063.355, 844.8122
1063.837, 845.3021
1064.319, 845.9817
1064.802, 846.3112
1065.284, 846.3021
1065.766, 846.2083
1066.248, 846.0623
1066.730, 845.8436
1067.212, 845.4278
1067.694, 845.0894
1068.176, 845.3288
1068.658, 846.0879
1069.141, 847.3386
1069.623, 849.2141
1070.105, 850.5331
1070.587, 850.0327
1071.069, 849.2609
1071.551, 849.4932
1072.033, 850.5916
1072.515, 850.0051
1072.998, 847.6569
1073.480, 846.2391
1073.962, 847.4052
1074.444, 849.3309
1074.926, 850.1100
1075.408, 850.3016
1075.890, 850.7637
1076.372, 851.8505
1076.854, 852.8133
1077.337, 853.5807
1077.819, 854.4072
1078.301, 855.3422
1078.783, 856.5370
1079.265, 858.7089
1079.747, 861.5892
1080.229, 863.7717
1080.711, 863.1364
1081.193, 863.6801
1081.676, 866.7424
1082.158, 871.1558
1082.640, 874.9573
1083.122, 878.2346
1083.604, 881.8625
1084.086, 885.9570
1084.568, 890.4317
1085.050, 895.7404
1085.532, 900.9703
1086.015, 905.9056
1086.497, 910.3371
1086.979, 912.2256
1087.461, 911.3063
1087.943, 909.7696
1088.425, 908.5672
1088.907, 906.5925
1089.389, 901.8305
1089.872, 895.6058
1090.354, 889.7260
1090.836, 884.3909
1091.318, 880.0527
1091.800, 876.9295
1092.282, 874.2131
1092.764, 871.2607
1093.246, 868.3702
1093.729, 866.6052
1094.211, 865.7246
1094.693, 864.9260
1095.175, 864.1204
1095.657, 862.9304
1096.139, 860.6859
1096.621, 858.4918
1097.103, 857.6949
1097.585, 858.2336
1098.068, 858.6262
1098.550, 858.7964
1099.032, 858.9349
1099.514, 859.2581
1099.996, 859.5397
1100.478, 859.8044
1100.960, 859.9017
1101.442, 859.2226
1101.924, 857.5419
1102.407, 856.4017
1102.889, 856.1163
1103.371, 856.2707
1103.853, 856.6507
1104.335, 857.0363
1104.817, 856.9215
1105.299, 856.1102
1105.781, 856.7267
1106.264, 860.0292
1106.746, 861.8655
1107.228, 860.0764
1107.710, 856.6659
1108.192, 855.5840
1108.674, 856.1288
1109.156, 856.7343
1109.638, 857.0336
1110.120, 857.1027
1110.603, 856.5931
1111.085, 856.3205
1111.567, 857.0690
1112.049, 858.5787
1112.531, 858.8479
1113.013, 858.0452
1113.495, 857.2502
1113.977, 856.9755
1114.459, 856.9111
1114.942, 857.3284
1115.424, 857.6397
1115.906, 856.7885
1116.388, 854.5313
1116.870, 854.1916
1117.352, 856.0168
1117.834, 857.8147
1118.316, 857.7675
1118.799, 857.0478
1119.281, 856.2649
1119.763, 855.6387
1120.245, 855.9490
1120.727, 857.6393
1121.209, 858.5239
1121.691, 858.0721
1122.173, 857.3552
1122.656, 857.9078
1123.138, 858.8223
1123.620, 858.6060
1124.102, 857.0361
1124.584, 856.5140
1125.066, 857.9260
1125.548, 859.0315
1126.030, 858.9941
1126.512, 858.4664
1126.995, 858.8663
1127.477, 859.7970
1127.959, 860.2772
1128.441, 859.9324
1128.923, 859.7045
1129.405, 860.0209
1129.887, 860.3820
1130.369, 860.5397
1130.851, 860.5354
1131.334, 860.6512
1131.816, 860.8105
1132.298, 860.6497
1132.780, 859.6028
1133.262, 858.8281
1133.744, 858.8568
1134.226, 859.4042
1134.708, 860.3709
1135.191, 861.8129
1135.673, 862.3182
1136.155, 861.9208
1136.637, 861.6383
1137.119, 862.3671
1137.601, 863.2140
1138.083, 863.7870
1138.565, 863.9601
1139.047, 863.5244
1139.530, 862.3932
1140.012, 861.0633
1140.494, 859.5076
1140.976, 858.4674
1141.458, 858.8339
1141.940, 859.8920
1142.422, 861.2147
1142.904, 862.6241
1143.386, 863.3983
1143.869, 863.3362
1144.351, 863.1321
1144.833, 862.8307
1145.315, 862.6571
1145.797, 863.2893
1146.279, 864.0370
1146.761, 863.7309
1147.243, 862.2103
1147.726, 861.0800
1148.208, 860.4432
1148.690, 860.4995
1149.172, 861.5370
1149.654, 862.9495
1150.136, 863.5497
1150.618, 863.6373
1151.100, 863.7341
1151.583, 863.8356
1152.065, 864.5196
1152.547, 866.5658
1153.029, 868.3126
1153.511, 869.0469
1153.993, 868.8609
1154.475, 867.5118
1154.957, 865.4897
1155.439, 864.5209
1155.922, 865.8943
1156.404, 867.0172
1156.886, 866.4476
1157.368, 865.8089
1157.850, 866.3698
1158.332, 867.9222
1158.814, 867.9637
1159.296, 866.8275
1159.778, 866.6682
1160.261, 869.5131
1160.743, 872.5649
1161.225, 875.4543
1161.707, 877.1157
1162.189, 875.6829
1162.671, 871.0225
1163.153, 869.2001
1163.635, 870.2769
1164.118, 871.5851
1164.600, 871.2327
1165.082, 870.6188
1165.564, 870.5490
1166.046, 870.8629
1166.528, 871.3332
1167.010, 872.0472
1167.492, 872.0369
1167.974, 871.1854
1168.457, 870.2196
1168.939, 869.5549
1169.421, 869.1815
1169.903, 869.1152
1170.385, 869.3493
1170.867, 869.8073
1171.349, 870.5457
1171.831, 871.1962
1172.313, 871.7101
1172.796, 871.9781
1173.278, 871.5417
1173.760, 871.0476
1174.242, 871.3463
1174.724, 872.4169
1175.206, 872.5638
1175.688, 871.4139
1176.170, 871.0469
1176.653, 872.2069
1177.135, 873.7039
1177.617, 874.0861
1178.099, 873.8886
1178.581, 873.6378
1179.063, 873.3746
1179.545, 873.6279
1180.027, 874.6028
1180.510, 875.3351
1180.992, 875.3995
1181.474, 875.1456
1181.956, 874.9905
1182.438, 874.9119
1182.920, 874.8672
1183.402, 874.8195
1183.884, 874.9759
1184.366, 875.4438
1184.849, 875.8641
1185.331, 876.1853
1185.813, 876.2352
1186.295, 875.0592
1186.777, 873.5508
1187.259, 873.5263
1187.741, 876.7293
1188.223, 878.4086
1188.705, 877.9023
1189.188, 876.9180
1189.670, 876.3914
1190.152, 876.2422
1190.634, 876.2699
1191.116, 876.5224
1191.598, 877.1227
1192.080, 878.3612
1192.562, 879.6278
1193.045, 881.1216
1193.527, 882.1251
1194.009, 881.6735
1194.491, 880.4385
1194.973, 879.8386
1195.455, 879.8414
1195.937, 880.2689
1196.419, 882.2988
1196.901, 882.7061
1197.384, 880.4761
1197.866, 877.9052
1198.348, 877.2294
1198.830, 877.8655
1199.312, 878.5898
1199.794, 879.3235
1200.276, 879.9782
1200.758, 880.6086
1201.240, 881.0232
1201.723, 881.2070
1202.205, 881.1912
1202.687, 880.8918
1203.169, 880.4653
1203.651, 880.3539
1204.133, 880.5441
1204.615, 880.6104
1205.097, 880.1694
1205.580, 879.8991
1206.062, 879.9423
1206.544, 880.1602
1207.026, 880.3891
1207.508, 880.6160
1207.990, 880.8423
1208.472, 881.0539
1208.954, 881.1246
1209.437, 880.7639
1209.919, 880.5897
1210.401, 880.8431
1210.883, 881.1854
1211.365, 880.9256
1211.847, 880.3427
1212.329, 879.9615
1212.811, 879.8580
1213.293, 880.4452
1213.776, 882.9996
1214.258, 884.6728
1214.740, 884.4456
1215.222, 883.3135
1215.704, 883.0473
1216.186, 883.4306
1216.668, 884.0831
1217.150, 884.9844
1217.632, 885.5689
1218.115, 885.4724
1218.597, 885.3444
1219.079, 885.3985
1219.561, 885.5251
1220.043, 885.3360
1220.525, 885.0862
1221.007, 885.4774
1221.489, 886.8295
1221.972, 887.6730
1222.454, 887.2977
1222.936, 887.1524
1223.418, 888.0704
1223.900, 889.1935
1224.382, 888.3924
1224.864, 886.4583
1225.346, 884.9391
1225.828, 884.0849
1226.311, 884.3207
1226.793, 886.5682
1227.275, 887.9013
1227.757, 886.5580
1228.239, 884.0162
1228.721, 883.1312
1229.203, 883.4556
1229.685, 884.2048
1230.167, 885.4968
1230.650, 886.1446
1231.132, 885.9274
1231.614, 885.4249
1232.096, 884.7008
1232.578, 884.1282
1233.060, 884.6888
1233.542, 885.8698
1234.024, 886.6723
1234.507, 886.6298
1234.989, 886.7938
1235.471, 887.2369
1235.953, 887.7600
1236.435, 888.2781
1236.917, 888.7753
1237.399, 889.4660
1237.881, 890.0527
1238.364, 889.8857
1238.846, 888.0158
1239.328, 887.6352
1239.810, 889.1383
1240.292, 890.5969
1240.774, 890.6960
1241.256, 890.2245
1241.738, 890.1689
1242.220, 890.3677
1242.703, 890.4918
1243.185, 890.2545
1243.667, 890.7735
1244.149, 892.1972
1244.631, 893.3791
1245.113, 893.2381
1245.595, 892.7419
1246.077, 893.1124
1246.559, 893.8059
1247.042, 893.7796
1247.524, 892.5917
1248.006, 892.2103
1248.488, 892.6917
1248.970, 893.3048
1249.452, 893.6746
1249.934, 893.8959
1250.416, 894.2008
1250.899, 894.3587
1251.381, 893.9492
1251.863, 892.8327
1252.345, 892.1585
1252.827, 891.9449
1253.309, 891.7948
1253.791, 891.3077
1254.273, 890.9441
1254.755, 891.1110
1255.238, 891.5217
1255.720, 891.7359
1256.202, 891.7217
1256.684, 891.9218
1257.166, 892.3140
1257.648, 892.6236
1258.130, 892.3876
1258.612, 892.3538
1259.094, 893.2533
1259.577, 894.3181
1260.059, 894.6686
1260.541, 894.3858
1261.023, 894.3011
1261.505, 894.4738
1261.987, 895.0857
1262.469, 896.9551
1262.951, 898.3455
1263.434, 898.5197
1263.916, 898.1991
1264.398, 897.9963
1264.880, 897.8879
1265.362, 897.9588
1265.844, 898.0954
1266.326, 897.7686
1266.808, 895.8963
1267.291, 894.7563
1267.773, 894.7813
1268.255, 895.4589
1268.737, 896.6345
1269.219, 897.9619
1269.701, 898.3907
1270.183, 898.1609
1270.665, 898.2879
1271.147, 900.0032
1271.630, 900.5717
1272.112, 899.4705
1272.594, 898.1903
1273.076, 898.2807
1273.558, 898.9886
1274.040, 899.0120
1274.522, 898.6169
1275.004, 898.8091
1275.486, 900.0615
1275.969, 901.0384
1276.451, 901.6506
1276.933, 902.0068
1277.415, 901.9372
1277.897, 901.8672
1278.379, 902.4902
1278.861, 903.4147
1279.343, 903.6580
1279.825, 903.0867
1280.308, 902.1514
1280.790, 900.8200
1281.272, 900.1745
1281.754, 901.5880
1282.236, 903.3814
1282.718, 904.6257
1283.200, 905.3002
1283.682, 905.3273
1284.165, 904.6663
1284.647, 904.5269
1285.129, 904.9438
1285.611, 905.6905
1286.093, 907.3480
1286.575, 908.4449
1287.057, 907.9991
1287.539, 906.9221
1288.021, 905.9055
1288.504, 905.0554
1288.986, 905.0817
1289.468, 905.8804
1289.950, 906.6705
1290.432, 907.4528
1290.914, 907.5806
1291.396, 906.6342
1291.878, 905.6442
1292.360, 905.6240
1292.843, 906.3008
1293.325, 907.2599
1293.807, 908.3207
1294.289, 908.9380
1294.771, 908.3465
1295.253, 908.2832
1295.735, 908.9406
1296.217, 909.6983
1296.700, 909.8025
1297.182, 909.8441
1297.664, 910.9407
1298.146, 912.5207
1298.628, 913.1942
1299.110, 912.5958
1299.592, 912.7652
1300.074, 913.8524
1300.557, 914.4753
1301.039, 912.8751
1301.521, 911.1891
1302.003, 911.8282
1302.485, 913.2437
1302.967, 913.4632
1303.449, 913.0178
##END=



