##NAMES=Whewellite
##RRUFFID=R050526
##IDEAL CHEMISTRY=Ca(C_2_)^6+^O_4_&#183;H_2_O
##LOCALITY=Dresden, Saxony, Germany
##OWNER=RRUFF
##SOURCE=University of Arizona Mineral Museum
##DESCRIPTION=Coating of colorless fragments
##STATUS=The identification of this mineral has been confirmed by X-ray diffraction and chemical analysis
##URL=rruff.info/R050526
##MEASURED CHEMISTRY=Ca_1.00_C_2.00_O_4_Â·H_2_O ; C not measured but estimated by difference.
92.37695, 261.8499
92.85907, 261.1931
93.34119, 261.6012
93.82330, 260.8404
94.30542, 258.7924
94.78754, 255.9668
95.26965, 252.8480
95.75177, 249.5433
96.23389, 246.1983
96.71600, 242.8161
97.19812, 239.5860
97.68024, 236.6053
98.16235, 233.7271
98.64447, 230.6575
99.12659, 227.1618
99.60870, 223.6014
100.0908, 220.7007
100.5729, 218.3344
101.0551, 216.3304
101.5372, 214.5593
102.0193, 212.9965
102.5014, 211.7077
102.9835, 210.5994
103.4656, 209.8344
103.9478, 209.5758
104.4299, 209.6618
104.9120, 209.8074
105.3941, 209.7736
105.8762, 209.5181
106.3583, 209.4921
106.8405, 209.7221
107.3226, 210.0378
107.8047, 210.3152
108.2868, 210.5488
108.7689, 210.8569
109.2510, 211.3658
109.7332, 212.0779
110.2153, 212.9524
110.6974, 214.1440
111.1795, 215.4521
111.6616, 216.5085
112.1437, 217.0829
112.6259, 217.7112
113.1080, 218.9646
113.5901, 220.7832
114.0722, 222.8483
114.5543, 225.0713
115.0364, 227.4459
115.5185, 229.6372
116.0007, 231.3274
116.4828, 232.9980
116.9649, 235.0130
117.4470, 237.4079
117.9291, 239.9029
118.4112, 242.0697
118.8934, 243.5979
119.3755, 245.5551
119.8576, 248.1539
120.3397, 251.1048
120.8218, 254.2363
121.3039, 257.4745
121.7861, 260.7898
122.2682, 264.1312
122.7503, 267.3572
123.2324, 270.7624
123.7145, 274.5457
124.1966, 278.4967
124.6788, 282.2087
125.1609, 285.4254
125.6430, 288.2753
126.1251, 291.9044
126.6072, 296.7392
127.0893, 301.7214
127.5715, 306.2917
128.0536, 310.5632
128.5357, 315.1205
129.0178, 320.5236
129.4999, 326.6607
129.9821, 332.5683
130.4642, 338.1964
130.9463, 343.6367
131.4284, 349.1705
131.9105, 354.9441
132.3926, 360.1603
132.8748, 364.0287
133.3569, 366.9565
133.8390, 369.4031
134.3211, 371.7365
134.8032, 373.7693
135.2853, 374.9018
135.7674, 375.1183
136.2496, 374.2675
136.7317, 372.2383
137.2138, 369.2255
137.6959, 365.7133
138.1780, 361.9979
138.6601, 358.0714
139.1423, 354.0367
139.6244, 350.2010
140.1065, 345.9895
140.5886, 340.8896
141.0707, 335.0576
141.5528, 329.1083
142.0350, 323.8108
142.5171, 319.5134
142.9992, 314.9706
143.4813, 309.9448
143.9634, 304.9006
144.4455, 300.1204
144.9277, 295.6922
145.4098, 291.4253
145.8919, 287.0133
146.3740, 282.3369
146.8561, 277.7230
147.3382, 273.2337
147.8204, 268.7814
148.3025, 264.1691
148.7846, 259.2685
149.2667, 254.3788
149.7488, 250.1239
150.2309, 246.5003
150.7131, 243.1284
151.1952, 239.9759
151.6773, 236.9858
152.1594, 234.0124
152.6415, 230.9249
153.1236, 227.9058
153.6058, 225.2062
154.0879, 222.9208
154.5700, 220.7020
155.0521, 218.1975
155.5342, 215.3931
156.0163, 212.8150
156.4985, 210.7970
156.9806, 209.0645
157.4627, 207.4448
157.9448, 205.9077
158.4269, 204.4337
158.9090, 203.0554
159.3912, 201.9503
159.8733, 200.4695
160.3554, 198.0958
160.8375, 195.4949
161.3196, 193.2215
161.8017, 191.5276
162.2839, 190.2882
162.7660, 189.1669
163.2481, 188.3540
163.7302, 187.3950
164.2123, 185.9273
164.6944, 184.3620
165.1766, 183.2634
165.6587, 182.9721
166.1408, 183.3348
166.6229, 183.3255
167.1050, 182.5291
167.5871, 181.8160
168.0693, 181.2344
168.5514, 180.8656
169.0335, 180.8697
169.5156, 181.3960
169.9977, 182.4044
170.4798, 183.1541
170.9620, 183.2771
171.4441, 183.5432
171.9262, 184.3085
172.4083, 185.5341
172.8904, 187.0108
173.3725, 188.6678
173.8547, 190.4578
174.3368, 192.0489
174.8189, 193.1230
175.3010, 194.2269
175.7831, 195.8794
176.2652, 198.1165
176.7474, 200.4264
177.2295, 202.4914
177.7116, 204.3402
178.1937, 205.9658
178.6758, 207.3862
179.1579, 208.5784
179.6401, 209.4726
180.1222, 209.9895
180.6043, 210.4219
181.0864, 210.7685
181.5685, 211.1671
182.0506, 211.8857
182.5328, 213.1374
183.0149, 214.7851
183.4970, 216.3900
183.9791, 217.7673
184.4612, 219.4113
184.9433, 221.2938
185.4255, 223.5430
185.9076, 226.4212
186.3897, 230.1989
186.8718, 234.8068
187.3539, 239.3479
187.8360, 243.2384
188.3182, 247.7519
188.8003, 253.2934
189.2824, 259.7281
189.7645, 266.7995
190.2466, 274.3572
190.7287, 282.4632
191.2109, 290.2671
191.6930, 298.2490
192.1751, 305.5351
192.6572, 311.9921
193.1393, 317.4894
193.6214, 321.8687
194.1036, 324.9358
194.5857, 326.6468
195.0678, 327.3106
195.5499, 326.6135
196.0320, 325.4348
196.5141, 324.1264
196.9963, 322.7188
197.4784, 321.0149
197.9605, 318.6910
198.4426, 315.5687
198.9247, 313.7510
199.4068, 313.5380
199.8890, 314.2442
200.3711, 315.3797
200.8532, 316.9267
201.3353, 319.2784
201.8174, 323.0443
202.2995, 328.3393
202.7817, 333.1605
203.2638, 337.4072
203.7459, 341.1735
204.2280, 344.4220
204.7101, 347.1434
205.1922, 349.7285
205.6744, 352.5331
206.1565, 355.5249
206.6386, 358.5114
207.1207, 361.2584
207.6028, 364.0582
208.0849, 367.4141
208.5671, 371.5163
209.0492, 375.6533
209.5313, 378.9167
210.0134, 381.7570
210.4955, 385.2145
210.9776, 389.6410
211.4598, 394.9581
211.9419, 401.0009
212.4240, 407.6859
212.9061, 415.2917
213.3882, 423.5147
213.8703, 432.6363
214.3525, 443.3648
214.8346, 456.0099
215.3167, 470.5363
215.7988, 486.5705
216.2809, 504.0724
216.7630, 523.5085
217.2451, 545.1775
217.7273, 568.5340
218.2094, 592.6414
218.6915, 616.6478
219.1736, 640.9214
219.6557, 667.5772
220.1378, 698.0511
220.6200, 729.2773
221.1021, 764.0751
221.5842, 798.4723
222.0663, 827.3234
222.5484, 847.9868
223.0305, 859.9304
223.5127, 857.8468
223.9948, 835.3327
224.4769, 803.5413
224.9590, 759.4423
225.4411, 708.0479
225.9232, 656.4179
226.4054, 608.4808
226.8875, 564.6594
227.3696, 526.9001
227.8517, 496.4621
228.3338, 471.3761
228.8159, 452.5783
229.2981, 438.9108
229.7802, 428.9156
230.2623, 421.6932
230.7444, 417.1568
231.2265, 414.6111
231.7086, 415.2072
232.1908, 416.3383
232.6729, 417.1716
233.1550, 418.0799
233.6371, 419.9177
234.1192, 423.2615
234.6013, 427.9273
235.0835, 432.5946
235.5656, 437.0671
236.0477, 441.7766
236.5298, 446.7044
237.0119, 451.9524
237.4940, 457.8679
237.9762, 464.7446
238.4583, 472.3271
238.9404, 479.4348
239.4225, 485.5092
239.9046, 491.7846
240.3867, 498.4793
240.8689, 505.6537
241.3510, 513.2798
241.8331, 521.1282
242.3152, 529.7493
242.7973, 540.7082
243.2794, 554.3008
243.7616, 569.1788
244.2437, 584.5082
244.7258, 600.5563
245.2079, 618.4169
245.6900, 639.1924
246.1721, 661.2479
246.6543, 681.8725
247.1364, 701.7095
247.6185, 718.7481
248.1006, 733.0844
248.5827, 744.0390
249.0648, 749.5536
249.5470, 749.3604
250.0291, 742.1307
250.5112, 727.1463
250.9933, 704.1469
251.4754, 676.5831
251.9576, 644.4206
252.4397, 608.6800
252.9218, 572.6371
253.4039, 536.3504
253.8860, 501.3864
254.3681, 468.9485
254.8503, 438.9216
255.3324, 411.5150
255.8145, 387.1264
256.2966, 365.6221
256.7787, 346.4157
257.2608, 329.8230
257.7430, 315.2790
258.2251, 302.0689
258.7072, 290.1676
259.1893, 279.3840
259.6714, 269.6513
260.1535, 260.9691
260.6357, 253.2464
261.1178, 246.6563
261.5999, 240.9612
262.0820, 236.0165
262.5641, 231.6980
263.0462, 227.6322
263.5284, 223.4738
264.0105, 219.3310
264.4926, 215.7587
264.9747, 212.9259
265.4568, 210.5174
265.9389, 208.4268
266.4211, 206.5754
266.9032, 204.8095
267.3853, 202.9596
267.8674, 201.1266
268.3495, 199.8072
268.8316, 199.4622
269.3138, 198.9310
269.7959, 197.5920
270.2780, 195.8555
270.7601, 194.3293
271.2422, 193.3477
271.7243, 192.7843
272.2065, 192.2305
272.6886, 191.6091
273.1707, 191.1505
273.6528, 190.9308
274.1349, 190.8710
274.6170, 190.8910
275.0992, 190.9573
275.5813, 191.0713
276.0634, 191.2473
276.5455, 191.5488
277.0276, 191.7929
277.5097, 191.8794
277.9919, 191.9373
278.4740, 192.0794
278.9561, 192.3471
279.4382, 192.7125
279.9203, 193.1521
280.4024, 193.7634
280.8846, 194.2283
281.3667, 194.5958
281.8488, 194.7847
282.3309, 194.7010
282.8130, 194.3333
283.2951, 193.7838
283.7773, 193.1795
284.2594, 192.4731
284.7415, 191.8333
285.2236, 191.3616
285.7057, 190.8735
286.1878, 190.3018
286.6700, 189.6164
287.1521, 188.7747
287.6342, 187.7074
288.1163, 186.3792
288.5984, 184.9758
289.0805, 183.5347
289.5627, 181.9990
290.0448, 180.2126
290.5269, 178.2669
291.0090, 176.4663
291.4911, 175.1266
291.9732, 174.3050
292.4554, 173.2432
292.9375, 171.7416
293.4196, 170.1995
293.9017, 168.6704
294.3838, 167.2006
294.8659, 165.8450
295.3481, 164.6440
295.8302, 163.5915
296.3123, 162.6701
296.7944, 162.0433
297.2765, 161.3768
297.7586, 160.6616
298.2408, 159.8570
298.7229, 158.8758
299.2050, 157.6607
299.6871, 156.3115
300.1692, 155.2201
300.6513, 154.5790
301.1335, 154.0000
301.6156, 153.6616
302.0977, 153.2896
302.5798, 152.4740
303.0619, 151.0700
303.5440, 149.4581
304.0262, 148.4620
304.5083, 148.9174
304.9904, 148.7368
305.4725, 147.3298
305.9546, 145.6765
306.4367, 144.5828
306.9189, 144.2287
307.4010, 144.2163
307.8831, 144.0035
308.3652, 143.5401
308.8473, 142.9816
309.3294, 142.0852
309.8116, 141.2955
310.2937, 141.0085
310.7758, 141.1594
311.2579, 141.3103
311.7400, 141.0074
312.2221, 140.1604
312.7043, 139.4784
313.1864, 138.9278
313.6685, 138.5413
314.1506, 138.5314
314.6327, 138.7127
315.1148, 138.6016
315.5970, 137.7735
316.0791, 136.3311
316.5612, 135.7047
317.0433, 136.9158
317.5254, 137.8050
318.0075, 137.8393
318.4897, 137.2832
318.9718, 136.4928
319.4539, 135.6361
319.9360, 134.8098
320.4181, 134.3293
320.9002, 134.7769
321.3824, 134.8442
321.8645, 134.1607
322.3466, 133.2206
322.8287, 132.4822
323.3108, 132.1077
323.7929, 131.9772
324.2751, 131.9076
324.7572, 132.0018
325.2393, 131.9481
325.7214, 131.6790
326.2035, 131.3341
326.6856, 130.9682
327.1678, 130.6103
327.6499, 130.3010
328.1320, 130.0831
328.6141, 129.9629
329.0962, 129.9112
329.5783, 130.0714
330.0605, 130.1558
330.5426, 130.0262
331.0247, 129.7129
331.5068, 129.3194
331.9889, 128.9187
332.4710, 128.5103
332.9532, 128.0858
333.4353, 127.4466
333.9174, 127.0092
334.3995, 127.0049
334.8816, 127.2180
335.3637, 127.3305
335.8459, 127.1779
336.3280, 126.8711
336.8101, 126.7504
337.2922, 127.0065
337.7743, 127.1714
338.2564, 127.1771
338.7386, 127.1037
339.2206, 127.0456
339.7028, 127.0204
340.1849, 126.9417
340.6670, 126.6392
341.1491, 125.9258
341.6312, 125.4644
342.1133, 125.4346
342.5955, 125.4740
343.0776, 125.3316
343.5597, 125.0410
344.0418, 124.8501
344.5239, 125.0427
345.0060, 125.6567
345.4882, 125.9902
345.9703, 125.8065
346.4524, 125.5500
346.9345, 125.2724
347.4166, 125.0116
347.8987, 124.8151
348.3809, 124.7193
348.8630, 124.6987
349.3451, 124.6379
349.8272, 124.4058
350.3093, 124.3495
350.7914, 124.7350
351.2736, 125.2095
351.7557, 125.3939
352.2378, 125.1589
352.7199, 124.7118
353.2020, 124.3932
353.6841, 124.2462
354.1663, 124.0972
354.6484, 123.9359
355.1305, 123.7601
355.6126, 123.5330
356.0947, 123.2718
356.5768, 123.0669
357.0590, 123.0058
357.5411, 123.0915
358.0232, 123.2698
358.5053, 123.7646
358.9874, 124.0928
359.4695, 124.0037
359.9517, 123.6088
360.4338, 123.1219
360.9159, 122.5950
361.3980, 122.1125
361.8801, 121.9703
362.3622, 122.3357
362.8444, 122.6783
363.3265, 122.8593
363.8086, 122.9031
364.2907, 122.7851
364.7728, 122.4716
365.2549, 122.1407
365.7371, 122.0356
366.2192, 122.1778
366.7013, 122.3492
367.1834, 122.5883
367.6655, 122.7644
368.1476, 122.7384
368.6298, 122.5194
369.1119, 122.3102
369.5940, 122.3485
370.0761, 122.5489
370.5582, 122.4436
371.0403, 121.7921
371.5225, 121.2058
372.0046, 121.2267
372.4867, 121.6249
372.9688, 121.8689
373.4509, 121.6141
373.9330, 121.1824
374.4152, 121.0301
374.8973, 121.1684
375.3794, 121.5105
375.8615, 122.2405
376.3436, 123.0418
376.8257, 123.4139
377.3079, 123.1874
377.7900, 122.8400
378.2721, 122.6667
378.7542, 122.6514
379.2363, 122.7405
379.7184, 122.9555
380.2006, 123.2112
380.6827, 123.4341
381.1648, 123.6307
381.6469, 123.6972
382.1290, 123.4891
382.6111, 123.1763
383.0933, 123.0254
383.5754, 123.0740
384.0575, 123.1122
384.5396, 122.9150
385.0217, 122.5393
385.5038, 122.4001
385.9860, 122.7308
386.4681, 123.1021
386.9502, 123.2692
387.4323, 123.2595
387.9144, 123.1656
388.3965, 123.0082
388.8787, 122.8299
389.3608, 122.7402
389.8429, 122.7078
390.3250, 122.7985
390.8071, 123.1735
391.2892, 123.6150
391.7714, 123.8565
392.2535, 123.8393
392.7356, 123.6754
393.2177, 123.4767
393.6998, 123.2224
394.1819, 123.0487
394.6641, 122.9268
395.1462, 122.9010
395.6283, 123.1069
396.1104, 123.4475
396.5925, 123.6411
397.0746, 123.4890
397.5568, 123.0632
398.0389, 122.7607
398.5210, 122.5231
399.0031, 122.4926
399.4852, 122.8742
399.9673, 123.3863
400.4495, 123.7376
400.9316, 123.8330
401.4137, 123.7618
401.8958, 123.6550
402.3779, 123.5170
402.8600, 123.3271
403.3422, 122.9716
403.8243, 122.6700
404.3064, 122.5728
404.7885, 122.6363
405.2706, 122.7028
405.7527, 122.6459
406.2349, 122.4862
406.7170, 122.3969
407.1991, 122.4447
407.6812, 122.4690
408.1633, 122.3848
408.6454, 122.2798
409.1276, 122.2682
409.6097, 122.3936
410.0918, 122.5609
410.5739, 122.6435
411.0560, 122.6427
411.5381, 122.5512
412.0203, 122.3398
412.5024, 122.0534
412.9845, 121.6283
413.4666, 121.1195
413.9487, 120.7483
414.4308, 120.6863
414.9130, 120.8885
415.3951, 121.2536
415.8772, 121.9289
416.3593, 122.4020
416.8414, 122.2107
417.3235, 121.6979
417.8057, 121.2811
418.2878, 121.0121
418.7699, 120.9649
419.2520, 121.3433
419.7341, 122.0921
420.2162, 122.6681
420.6984, 122.8602
421.1805, 122.8684
421.6626, 122.9531
422.1447, 123.1164
422.6268, 123.2309
423.1089, 123.2533
423.5911, 123.1996
424.0732, 123.0171
424.5553, 122.6982
425.0374, 122.5340
425.5195, 122.8367
426.0016, 123.5100
426.4838, 123.8531
426.9659, 123.5187
427.4480, 123.2311
427.9301, 123.4368
428.4122, 123.9195
428.8943, 124.2070
429.3765, 124.1134
429.8586, 123.8122
430.3407, 123.5942
430.8228, 123.4722
431.3049, 123.4285
431.7870, 123.5279
432.2692, 123.6588
432.7513, 123.7435
433.2334, 123.7790
433.7155, 123.8061
434.1976, 123.8628
434.6797, 123.9425
435.1619, 123.9476
435.6440, 123.6530
436.1261, 123.5458
436.6082, 123.9053
437.0903, 124.4097
437.5724, 124.6172
438.0546, 124.3899
438.5367, 124.0693
439.0188, 124.2884
439.5009, 125.3706
439.9830, 125.9401
440.4651, 125.3360
440.9473, 124.7741
441.4294, 124.8567
441.9115, 125.4657
442.3936, 126.1602
442.8757, 126.6845
443.3578, 127.0547
443.8400, 127.2919
444.3221, 127.3554
444.8042, 127.3904
445.2863, 127.3657
445.7684, 127.3817
446.2505, 127.5444
446.7327, 127.8780
447.2148, 128.3026
447.6969, 128.8514
448.1790, 129.4669
448.6611, 129.7762
449.1432, 129.5714
449.6254, 129.3470
450.1075, 129.6335
450.5896, 130.2663
451.0717, 130.7439
451.5538, 130.8090
452.0359, 130.7505
452.5181, 130.8474
453.0002, 131.0800
453.4823, 131.2972
453.9644, 131.4214
454.4465, 131.5001
454.9286, 131.6293
455.4108, 131.7776
455.8929, 132.0382
456.3750, 132.6408
456.8571, 133.2538
457.3392, 133.4249
457.8214, 133.1302
458.3035, 132.8130
458.7856, 132.8659
459.2677, 133.2935
459.7498, 133.7292
460.2319, 134.2456
460.7141, 134.6873
461.1962, 135.0201
461.6783, 135.2491
462.1604, 135.3396
462.6425, 135.2860
463.1246, 135.2094
463.6068, 135.3409
464.0889, 135.8183
464.5710, 136.1352
465.0531, 136.3075
465.5352, 136.3174
466.0173, 135.9639
466.4995, 135.4288
466.9816, 135.1492
467.4637, 135.4450
467.9458, 136.1586
468.4279, 136.8227
468.9100, 137.4854
469.3922, 137.9772
469.8743, 138.1375
470.3564, 138.1768
470.8385, 138.2004
471.3206, 138.2301
471.8027, 138.3953
472.2849, 138.8248
472.7670, 139.4767
473.2491, 140.1901
473.7312, 140.9503
474.2133, 141.7730
474.6954, 142.7377
475.1776, 143.7727
475.6597, 144.6915
476.1418, 145.3691
476.6239, 146.0348
477.1060, 146.7448
477.5881, 147.5570
478.0703, 148.7016
478.5524, 150.2804
479.0345, 152.0879
479.5166, 153.8011
479.9987, 155.3618
480.4808, 157.1589
480.9630, 159.2813
481.4451, 161.5853
481.9272, 163.8853
482.4093, 166.2590
482.8914, 168.9655
483.3735, 172.1834
483.8557, 175.8283
484.3378, 179.6187
484.8199, 183.5585
485.3020, 187.6506
485.7841, 191.8433
486.2662, 196.2285
486.7484, 201.0214
487.2305, 206.1590
487.7126, 211.1929
488.1947, 215.6638
488.6768, 219.6405
489.1589, 224.2350
489.6411, 229.8037
490.1232, 235.4696
490.6053, 240.5599
491.0874, 245.7695
491.5695, 251.9451
492.0516, 259.3434
492.5338, 267.3136
493.0159, 275.0836
493.4980, 282.7544
493.9801, 290.8502
494.4622, 299.1574
494.9443, 308.4478
495.4265, 319.4256
495.9086, 331.8487
496.3907, 345.2067
496.8728, 359.7474
497.3549, 374.8864
497.8370, 389.9718
498.3192, 405.1430
498.8013, 421.1041
499.2834, 438.2327
499.7655, 455.8586
500.2476, 473.3623
500.7297, 491.4688
501.2119, 506.6952
501.6940, 518.8502
502.1761, 528.0253
502.6582, 534.5948
503.1403, 538.3217
503.6224, 538.5374
504.1045, 534.7678
504.5866, 527.2761
505.0688, 516.9422
505.5509, 502.4335
506.0330, 486.8858
506.5151, 469.2526
506.9972, 451.6132
507.4793, 435.0404
507.9615, 419.8756
508.4436, 406.3707
508.9257, 394.8097
509.4078, 385.0520
509.8899, 376.6164
510.3720, 369.2865
510.8542, 363.7438
511.3363, 360.5453
511.8184, 359.0506
512.3005, 358.7880
512.7827, 359.6802
513.2648, 361.7437
513.7469, 365.2246
514.2290, 369.8822
514.7111, 375.0134
515.1932, 380.4844
515.6754, 386.7281
516.1575, 394.3056
516.6396, 403.0166
517.1217, 411.6363
517.6038, 420.4105
518.0859, 428.7257
518.5681, 436.6919
519.0502, 443.9205
519.5323, 449.8963
520.0144, 454.4863
520.4965, 457.4333
520.9786, 458.5296
521.4608, 457.9117
521.9429, 454.3568
522.4250, 447.6630
522.9071, 438.7223
523.3892, 427.4317
523.8713, 414.2426
524.3535, 399.4698
524.8356, 383.3594
525.3177, 366.4966
525.7998, 350.0013
526.2819, 333.8940
526.7640, 318.1489
527.2462, 302.5357
527.7283, 287.6869
528.2104, 273.7780
528.6925, 260.8634
529.1746, 248.9897
529.6567, 238.2853
530.1389, 228.4659
530.6210, 219.1737
531.1031, 210.4317
531.5852, 202.7300
532.0673, 196.4727
532.5494, 190.9208
533.0316, 185.0687
533.5137, 178.9706
533.9958, 173.4001
534.4779, 168.5667
534.9600, 164.2850
535.4421, 160.3884
535.9243, 156.8925
536.4064, 153.8526
536.8885, 151.3447
537.3706, 149.1470
537.8527, 146.8055
538.3348, 143.9757
538.8170, 141.6856
539.2991, 140.2588
539.7812, 139.0452
540.2633, 137.6676
540.7454, 136.1692
541.2275, 134.7445
541.7097, 133.5014
542.1918, 132.4411
542.6739, 131.6046
543.1560, 131.0748
543.6381, 130.4915
544.1202, 129.7253
544.6024, 128.9364
545.0845, 128.1598
545.5666, 127.4286
546.0487, 126.8889
546.5308, 126.7510
547.0129, 126.7778
547.4951, 126.5975
547.9772, 126.2140
548.4593, 125.7568
548.9414, 125.2097
549.4235, 124.7029
549.9056, 124.4827
550.3878, 124.5388
550.8699, 124.7880
551.3520, 125.5535
551.8341, 126.2477
552.3162, 126.1887
552.7983, 125.5679
553.2805, 125.1724
553.7626, 125.4670
554.2447, 126.2635
554.7268, 127.0331
555.2089, 127.8554
555.6910, 128.4951
556.1732, 128.8963
556.6553, 129.1837
557.1374, 129.3086
557.6195, 129.3780
558.1016, 129.6795
558.5837, 130.4693
559.0659, 131.4983
559.5480, 132.0595
560.0301, 131.9993
560.5122, 132.4020
560.9943, 133.9044
561.4764, 135.6742
561.9586, 136.8650
562.4407, 137.5067
562.9228, 138.1615
563.4049, 139.1037
563.8870, 140.1143
564.3691, 140.8615
564.8513, 141.4198
565.3334, 142.2421
565.8155, 143.5755
566.2976, 145.1517
566.7797, 146.4522
567.2618, 147.2247
567.7440, 148.3152
568.2261, 149.8784
568.7082, 151.6048
569.1903, 153.3959
569.6724, 155.1986
570.1545, 156.9750
570.6367, 158.6948
571.1188, 160.3741
571.6009, 162.0100
572.0830, 163.5891
572.5651, 165.2220
573.0472, 166.8282
573.5294, 168.5893
574.0115, 170.4807
574.4936, 172.6021
574.9757, 175.2282
575.4578, 178.6945
575.9399, 182.4103
576.4221, 185.6330
576.9042, 188.4600
577.3863, 191.5019
577.8684, 194.9411
578.3505, 198.5923
578.8326, 202.2307
579.3148, 205.8572
579.7969, 209.5831
580.2790, 213.1946
580.7611, 217.1208
581.2432, 221.7393
581.7253, 226.7672
582.2075, 231.8136
582.6896, 236.7035
583.1717, 241.5897
583.6538, 246.6050
584.1359, 251.7097
584.6180, 257.2100
585.1002, 263.2855
585.5823, 269.6466
586.0643, 276.4889
586.5464, 283.4384
587.0286, 289.9291
587.5107, 295.7968
587.9928, 301.5955
588.4749, 308.0026
588.9570, 314.8098
589.4391, 321.1800
589.9213, 327.0228
590.4034, 332.5956
590.8855, 338.1159
591.3676, 343.5210
591.8497, 348.6261
592.3318, 353.7260
592.8140, 358.1204
593.2961, 361.7594
593.7782, 364.4787
594.2603, 366.1466
594.7424, 366.7069
595.2245, 366.0233
595.7067, 363.9535
596.1888, 360.5725
596.6709, 356.2820
597.1530, 350.9120
597.6351, 344.8419
598.1172, 338.2464
598.5994, 330.9951
599.0815, 322.8446
599.5636, 313.9091
600.0457, 304.6195
600.5278, 295.2204
601.0099, 285.7196
601.4921, 275.9669
601.9742, 265.9556
602.4563, 256.0575
602.9384, 246.2957
603.4205, 236.8283
603.9026, 227.9356
604.3848, 219.5347
604.8669, 211.7424
605.3490, 204.7221
605.8311, 198.0975
606.3132, 191.4728
606.7953, 185.0358
607.2775, 179.2134
607.7596, 174.1879
608.2417, 169.6879
608.7238, 165.4054
609.2059, 161.3664
609.6880, 157.4095
610.1702, 153.2712
610.6523, 149.5444
611.1344, 146.5045
611.6165, 143.9619
612.0986, 141.6956
612.5807, 139.6450
613.0629, 137.7712
613.5450, 136.1344
614.0271, 134.6605
614.5092, 133.1011
614.9913, 131.4325
615.4734, 129.6259
615.9556, 127.4916
616.4377, 125.2460
616.9198, 123.6408
617.4019, 123.0789
617.8840, 122.3091
618.3661, 120.7417
618.8483, 119.0989
619.3304, 118.1291
619.8125, 117.7523
620.2946, 117.3644
620.7767, 116.5670
621.2589, 115.4982
621.7410, 114.5694
622.2231, 113.8198
622.7052, 113.0916
623.1873, 112.2190
623.6694, 111.5038
624.1516, 111.3092
624.6337, 111.4317
625.1158, 111.2525
625.5979, 110.3524
626.0800, 109.3196
626.5621, 108.7440
627.0443, 108.5381
627.5264, 108.4812
628.0085, 108.5521
628.4906, 108.4851
628.9727, 107.9649
629.4548, 106.9913
629.9370, 106.2240
630.4191, 105.5899
630.9012, 105.2200
631.3833, 105.3325
631.8654, 105.6076
632.3475, 105.7306
632.8297, 105.6503
633.3118, 105.4883
633.7939, 105.3343
634.2760, 105.1906
634.7581, 105.0723
635.2402, 104.9859
635.7224, 104.9089
636.2045, 104.9095
636.6866, 104.8472
637.1687, 104.4854
637.6508, 103.8519
638.1329, 103.4587
638.6151, 103.6753
639.0972, 104.0126
639.5793, 104.0837
640.0614, 103.9430
640.5435, 103.7247
641.0256, 103.4758
641.5078, 103.2863
641.9899, 103.3031
642.4720, 103.5709
642.9541, 103.6763
643.4362, 103.4823
643.9183, 103.2774
644.4005, 103.0508
644.8826, 102.8854
645.3647, 102.9084
645.8468, 103.1308
646.3289, 103.3598
646.8110, 103.4910
647.2932, 103.5010
647.7753, 103.2702
648.2574, 102.7864
648.7395, 102.3427
649.2216, 102.0511
649.7037, 101.8951
650.1859, 101.9004
650.6680, 102.1523
651.1501, 102.1725
651.6322, 101.6655
652.1143, 101.1699
652.5964, 100.9693
653.0786, 101.0160
653.5607, 101.2615
654.0428, 101.6695
654.5249, 102.0112
655.0070, 101.9157
655.4891, 101.3630
655.9713, 100.9049
656.4534, 100.5023
656.9355, 100.2703
657.4176, 100.4814
657.8997, 100.7972
658.3818, 100.8051
658.8640, 100.4362
659.3461, 99.97625
659.8282, 99.43408
660.3103, 98.94570
660.7924, 98.70811
661.2745, 98.68050
661.7567, 98.64917
662.2388, 98.50959
662.7209, 98.31174
663.2030, 98.14361
663.6851, 97.99295
664.1672, 97.91049
664.6494, 97.95947
665.1315, 98.00858
665.6136, 98.11722
666.0957, 98.15946
666.5778, 97.88120
667.0599, 97.19504
667.5421, 96.58694
668.0242, 96.58810
668.5063, 96.95959
668.9884, 97.13295
669.4705, 97.06912
669.9526, 96.86115
670.4348, 96.51400
670.9169, 96.11449
671.3990, 95.85586
671.8811, 95.78519
672.3632, 95.74683
672.8453, 95.94632
673.3275, 95.97208
673.8096, 95.32389
674.2917, 94.41773
674.7738, 94.05932
675.2559, 94.55490
675.7380, 95.25025
676.2202, 95.31326
676.7023, 94.80275
677.1844, 94.26450
677.6665, 93.64554
678.1486, 93.25000
678.6307, 93.33070
679.1129, 93.68229
679.5950, 93.91790
680.0771, 94.03133
680.5592, 94.07191
681.0413, 94.02542
681.5234, 93.93260
682.0056, 93.79555
682.4877, 93.64037
682.9698, 93.52257
683.4519, 93.46564
683.9340, 93.43507
684.4161, 93.38329
684.8983, 93.31017
685.3804, 93.21746
685.8625, 93.09708
686.3446, 92.97158
686.8267, 92.85423
687.3088, 92.73577
687.7910, 92.60629
688.2731, 92.46538
688.7552, 92.31055
689.2373, 92.10857
689.7194, 91.91553
690.2015, 91.80541
690.6837, 91.76044
691.1658, 91.72261
691.6479, 91.66891
692.1300, 91.58111
692.6121, 91.41441
693.0942, 91.14346
693.5764, 90.98609
694.0585, 91.04417
694.5406, 91.08215
695.0227, 90.96257
695.5048, 90.83263
695.9869, 90.89008
696.4691, 91.15304
696.9512, 91.36292
697.4333, 91.28362
697.9154, 91.11711
698.3975, 91.16544
698.8796, 91.38882
699.3618, 91.57741
699.8439, 91.66170
700.3260, 91.61526
700.8081, 91.36093
701.2902, 90.84823
701.7723, 90.60822
702.2545, 90.96689
702.7366, 91.20582
703.2187, 91.02966
703.7008, 90.77435
704.1829, 90.78665
704.6650, 91.08701
705.1472, 91.43865
705.6293, 91.78564
706.1114, 92.01689
706.5935, 91.77734
707.0756, 91.17876
707.5577, 91.03919
708.0399, 91.67392
708.5220, 92.43921
709.0041, 92.61195
709.4862, 92.18963
709.9683, 92.03154
710.4504, 92.22781
710.9326, 92.55334
711.4147, 93.20512
711.8968, 93.80331
712.3789, 94.00380
712.8610, 93.82102
713.3431, 93.47537
713.8253, 93.05642
714.3074, 92.62041
714.7895, 92.22951
715.2716, 91.89185
715.7537, 91.69682
716.2358, 91.70896
716.7180, 91.63429
717.2001, 91.16415
717.6822, 90.38868
718.1643, 89.90294
718.6464, 89.89745
719.1285, 89.89317
719.6107, 89.89085
720.0928, 89.83532
720.5749, 89.67604
721.0570, 89.42905
721.5391, 89.14214
722.0212, 88.83715
722.5034, 88.50907
722.9855, 88.03682
723.4676, 87.49577
723.9497, 87.44521
724.4318, 88.02757
724.9139, 88.58556
725.3961, 88.74509
725.8782, 88.57395
726.3603, 88.21346
726.8424, 87.42485
727.3245, 86.99930
727.8066, 87.33616
728.2888, 87.68970
728.7709, 87.57429
729.2530, 87.19394
729.7351, 86.97140
730.2172, 87.04892
730.6993, 87.16785
731.1815, 86.99865
731.6636, 86.63962
732.1457, 86.49086
732.6278, 86.57962
733.1099, 86.66108
733.5920, 86.67506
734.0742, 86.55155
734.5563, 86.10079
735.0384, 85.16766
735.5205, 84.74068
736.0026, 85.27732
736.4847, 85.77628
736.9669, 85.83388
737.4490, 85.68777
737.9311, 85.63545
738.4132, 85.71996
738.8953, 85.77540
739.3774, 85.66110
739.8596, 85.44563
740.3417, 85.23842
740.8238, 85.04450
741.3059, 84.98571
741.7880, 85.13383
742.2701, 85.27374
742.7523, 85.16457
743.2344, 84.83234
743.7165, 84.68730
744.1986, 84.96252
744.6807, 85.08781
745.1628, 84.85658
745.6450, 84.56352
746.1271, 84.44164
746.6092, 84.46066
747.0913, 84.46609
747.5734, 84.38623
748.0555, 84.25533
748.5377, 84.03795
749.0198, 83.79960
749.5019, 83.84364
749.9840, 84.21917
750.4661, 84.58118
750.9482, 84.71897
751.4304, 84.71353
751.9125, 84.77288
752.3946, 84.99601
752.8767, 85.04454
753.3588, 84.79134
753.8409, 84.51864
754.3231, 84.29111
754.8052, 84.13845
755.2873, 84.11036
755.7694, 84.21400
756.2515, 84.34356
756.7336, 84.45415
757.2158, 84.52190
757.6979, 84.43115
758.1800, 84.23106
758.6621, 84.24732
759.1442, 84.61122
759.6263, 85.05315
760.1085, 85.24541
760.5906, 85.18653
761.0727, 85.24737
761.5548, 85.62442
762.0369, 85.82595
762.5190, 85.60429
763.0012, 85.33672
763.4833, 85.27995
763.9654, 85.42955
764.4475, 85.69599
764.9296, 86.17078
765.4117, 86.52692
765.8939, 86.34647
766.3760, 85.90957
766.8581, 85.77035
767.3402, 85.97253
767.8223, 86.16694
768.3044, 86.11719
768.7866, 85.97105
769.2687, 86.13231
769.7508, 86.73208
770.2329, 87.14723
770.7150, 87.19255
771.1971, 87.29008
771.6793, 87.73460
772.1614, 88.29333
772.6435, 88.62789
773.1256, 88.67675
773.6077, 88.75042
774.0898, 89.09422
774.5720, 89.39449
775.0541, 89.26904
775.5362, 88.93150
776.0183, 88.87350
776.5004, 89.21427
776.9825, 89.59663
777.4647, 89.63585
777.9468, 89.41759
778.4289, 89.43355
778.9110, 89.78529
779.3931, 89.78090
779.8752, 88.99236
780.3574, 88.20687
780.8395, 88.26950
781.3216, 88.98800
781.8037, 89.36304
782.2858, 89.30180
782.7679, 88.97108
783.2501, 88.15257
783.7322, 87.29288
784.2143, 86.78770
784.6964, 86.56661
785.1785, 86.35976
785.6606, 86.04652
786.1428, 85.66772
786.6249, 85.22150
787.1070, 84.74754
787.5891, 84.40842
788.0712, 84.21493
788.5533, 84.14922
789.0355, 84.23558
789.5176, 84.37520
789.9997, 84.40249
790.4818, 84.28076
790.9639, 84.27793
791.4460, 84.67861
791.9282, 84.83139
792.4103, 84.36779
792.8924, 83.75481
793.3745, 83.41028
793.8566, 83.34782
794.3387, 83.34148
794.8209, 83.31519
795.3030, 83.24873
795.7851, 83.00938
796.2672, 82.74172
796.7493, 82.88093
797.2314, 83.43040
797.7136, 83.79168
798.1957, 83.54943
798.6778, 82.97437
799.1599, 82.73319
799.6420, 82.90128
800.1241, 83.09374
800.6063, 83.30623
801.0884, 83.53596
801.5705, 83.94894
802.0526, 84.29089
802.5347, 84.12479
803.0168, 83.36938
803.4990, 82.89254
803.9811, 83.17495
804.4632, 83.56364
804.9453, 83.63076
805.4274, 83.54768
805.9095, 83.58993
806.3917, 83.80439
806.8738, 84.07343
807.3559, 84.32854
807.8380, 84.53492
808.3201, 84.59512
808.8022, 84.51513
809.2844, 84.39343
809.7665, 84.21994
810.2486, 84.13183
810.7307, 84.25537
811.2128, 84.51488
811.6949, 84.67575
812.1771, 84.68738
812.6592, 84.69810
813.1413, 84.73949
813.6234, 84.74454
814.1055, 84.67659
814.5876, 84.55762
815.0698, 84.41185
815.5519, 84.24617
816.0340, 84.07430
816.5161, 83.84328
816.9982, 83.65878
817.4803, 83.71765
817.9625, 83.91796
818.4446, 83.96982
818.9267, 83.81403
819.4088, 83.61932
819.8909, 83.51779
820.3730, 83.51200
820.8552, 83.64916
821.3373, 83.99689
821.8194, 84.18079
822.3015, 84.08971
822.7836, 83.94735
823.2657, 83.79926
823.7479, 83.72292
824.2300, 83.94531
824.7121, 84.64240
825.1942, 84.97126
825.6763, 84.37115
826.1584, 83.77544
826.6406, 83.79739
827.1227, 84.13211
827.6048, 84.30199
828.0869, 84.21581
828.5690, 84.10619
829.0511, 84.19444
829.5333, 84.31805
830.0154, 84.10186
830.4975, 83.64282
830.9796, 83.41457
831.4617, 83.50984
831.9438, 83.84611
832.4260, 84.42669
832.9081, 85.09805
833.3902, 85.37731
833.8723, 85.06777
834.3544, 84.88011
834.8365, 84.96752
835.3187, 84.98415
835.8008, 84.66210
836.2829, 84.27007
836.7650, 84.18642
837.2471, 84.45232
837.7292, 84.63700
838.2114, 84.51564
838.6935, 84.36299
839.1756, 84.27483
839.6577, 84.30370
840.1398, 84.62865
840.6219, 85.17961
841.1041, 85.52763
841.5862, 85.33286
842.0683, 84.96975
842.5504, 85.17323
843.0325, 85.84177
843.5146, 86.26001
843.9968, 86.33028
844.4789, 86.39783
844.9610, 86.64994
845.4431, 86.99175
845.9252, 87.22488
846.4073, 87.27231
846.8895, 87.61118
847.3716, 88.54617
847.8537, 89.36500
848.3358, 89.79849
848.8179, 90.14699
849.3000, 90.73172
849.7822, 91.50091
850.2643, 92.08863
850.7464, 92.19524
851.2285, 92.39643
851.7106, 92.99173
852.1927, 93.88018
852.6749, 95.07598
853.1570, 96.46083
853.6391, 97.73354
854.1212, 98.75149
854.6033, 99.63251
855.0854, 100.4463
855.5676, 101.2396
856.0497, 102.2636
856.5318, 103.5294
857.0139, 104.7359
857.4960, 105.7063
857.9781, 106.8800
858.4603, 108.7617
858.9424, 111.2938
859.4245, 113.8405
859.9066, 116.4866
860.3887, 118.9931
860.8708, 121.5465
861.3530, 123.7678
861.8351, 125.3061
862.3172, 126.4226
862.7993, 127.4085
863.2814, 128.1650
863.7635, 129.8068
864.2457, 133.0865
864.7278, 137.1749
865.2099, 142.0483
865.6920, 147.0151
866.1741, 151.1655
866.6563, 154.1826
867.1384, 155.7888
867.6205, 155.8285
868.1026, 154.2405
868.5847, 150.3761
869.0668, 144.5847
869.5490, 138.8824
870.0311, 133.5166
870.5132, 128.9834
870.9953, 125.5489
871.4774, 123.0767
871.9595, 121.3276
872.4417, 120.3883
872.9238, 119.6767
873.4059, 119.1255
873.8880, 118.9061
874.3701, 118.8924
874.8522, 119.3744
875.3344, 120.7828
875.8165, 122.9855
876.2986, 125.1899
876.7807, 126.9755
877.2628, 129.1297
877.7449, 131.8794
878.2271, 135.1464
878.7092, 138.6573
879.1913, 142.6440
879.6734, 147.5720
880.1555, 153.5861
880.6376, 160.6417
881.1198, 168.6807
881.6019, 177.6683
882.0840, 187.8093
882.5661, 198.8855
883.0482, 210.3043
883.5303, 221.8670
884.0125, 232.5249
884.4946, 241.4205
884.9767, 248.6713
885.4588, 254.2147
885.9409, 257.4384
886.4230, 262.4005
886.9052, 269.5065
887.3873, 278.0966
887.8694, 287.7950
888.3515, 298.9102
888.8336, 311.9994
889.3157, 326.9988
889.7979, 344.3096
890.2800, 363.6766
890.7621, 385.8060
891.2442, 408.6096
891.7263, 436.1012
892.2084, 469.2637
892.6906, 510.2319
893.1727, 562.9033
893.6548, 628.6890
894.1369, 706.7532
894.6190, 808.9218
895.1011, 914.1965
895.5833, 1015.872
896.0654, 1095.827
896.5475, 1112.979
897.0296, 1056.123
897.5117, 947.8884
897.9938, 797.0312
898.4760, 624.5203
898.9581, 482.7836
899.4402, 371.6265
899.9223, 288.8772
900.4044, 235.3573
900.8865, 199.0813
901.3687, 174.1321
901.8508, 157.9197
902.3329, 145.2376
902.8150, 136.4209
903.2971, 129.2901
903.7792, 124.1529
904.2614, 120.1827
904.7435, 117.5898
905.2256, 115.7079
905.7077, 114.0761
906.1898, 112.6634
906.6719, 111.3450
907.1541, 109.9699
907.6362, 108.9157
908.1183, 108.5031
908.6004, 108.2369
909.0825, 107.6934
909.5646, 107.0741
910.0468, 106.7809
910.5289, 106.9104
911.0110, 107.1749
911.4931, 107.3796
911.9752, 107.6190
912.4573, 107.9702
912.9395, 108.4447
913.4216, 109.0475
913.9037, 109.7905
914.3858, 110.8150
914.8679, 112.2420
915.3500, 113.6511
915.8321, 114.1231
916.3142, 113.8337
916.7963, 114.2883
917.2784, 115.5738
917.7606, 116.7304
918.2427, 117.4134
918.7248, 117.8992
919.2069, 118.4781
919.6890, 119.1302
920.1711, 119.7022
920.6533, 120.0993
921.1354, 120.6532
921.6175, 121.4869
922.0996, 122.3535
922.5817, 123.1365
923.0638, 123.8717
923.5460, 124.5265
924.0281, 125.0454
924.5102, 125.9998
924.9923, 127.9069
925.4744, 129.7115
925.9565, 130.9937
926.4387, 132.0464
926.9208, 133.0761
927.4029, 134.1319
927.8850, 135.2337
928.3671, 136.4087
928.8492, 137.5454
929.3314, 138.5265
929.8135, 139.4610
930.2956, 140.4849
930.7777, 141.5650
931.2598, 142.6033
931.7419, 143.5924
932.2241, 144.6122
932.7062, 145.7511
933.1883, 146.9045
933.6704, 147.8219
934.1525, 148.5761
934.6346, 149.5829
935.1168, 150.8634
935.5989, 151.8922
936.0810, 152.3938
936.5631, 152.7436
937.0452, 153.4659
937.5273, 154.5365
938.0095, 155.5672
938.4916, 156.5975
938.9737, 157.4236
939.4558, 157.9417
939.9379, 158.4066
940.4200, 159.0667
940.9022, 159.7667
941.3843, 160.1198
941.8664, 160.0957
942.3485, 159.8133
942.8306, 158.9444
943.3127, 158.2499
943.7949, 158.3337
944.2770, 158.3562
944.7591, 157.6007
945.2412, 156.1091
945.7233, 154.1977
946.2054, 151.6193
946.6876, 149.3267
947.1697, 148.0312
947.6518, 146.7840
948.1339, 144.8898
948.6160, 142.5665
949.0981, 140.0739
949.5803, 137.5578
950.0624, 135.3747
950.5445, 133.9308
951.0266, 132.6154
951.5087, 130.7776
951.9908, 128.6488
952.4730, 126.5456
952.9551, 124.5247
953.4372, 122.6269
953.9193, 120.8676
954.4014, 119.1221
954.8835, 117.2033
955.3657, 115.2263
955.8478, 113.5783
956.3299, 112.2125
956.8120, 110.7321
957.2941, 109.0590
957.7762, 107.4816
958.2584, 106.1944
958.7405, 105.0559
959.2226, 103.7714
959.7047, 102.3231
960.1868, 100.9505
960.6689, 99.59476
961.1511, 98.59624
961.6332, 98.26856
962.1153, 97.84187
962.5974, 96.47281
963.0795, 94.46966
963.5616, 93.21140
964.0438, 93.22351
964.5259, 92.84049
965.0080, 91.69256
965.4901, 90.62660
965.9722, 90.03429
966.4543, 89.58857
966.9365, 88.96021
967.4186, 88.15739
967.9007, 87.37084
968.3828, 86.58742
968.8649, 85.87400
969.3470, 85.25861
969.8292, 84.70962
970.3113, 84.26927
970.7934, 83.85596
971.2755, 83.30494
971.7576, 82.60789
972.2397, 82.03597
972.7219, 81.89521
973.2040, 81.71765
973.6861, 81.09543
974.1682, 80.34911
974.6503, 79.82893
975.1324, 79.52244
975.6146, 79.29937
976.0967, 79.10833
976.5788, 78.91032
977.0609, 78.68504
977.5430, 78.42265
978.0251, 78.08808
978.5073, 77.70992
978.9894, 77.32334
979.4715, 76.95142
979.9536, 76.67879
980.4357, 76.55434
980.9178, 76.47449
981.4000, 76.33768
981.8821, 76.12008
982.3642, 75.60401
982.8463, 74.85686
983.3284, 74.54619
983.8105, 74.84180
984.2927, 75.23904
984.7748, 75.38982
985.2569, 75.29601
985.7390, 74.87011
986.2211, 74.08187
986.7032, 73.61929
987.1854, 73.52861
987.6675, 73.56846
988.1496, 73.70106
988.6317, 73.83772
989.1138, 73.91869
989.5959, 73.92104
990.0781, 73.71313
990.5602, 73.13525
991.0423, 72.81941
991.5244, 72.88404
992.0065, 73.01395
992.4886, 73.12768
992.9708, 73.21840
993.4529, 73.29380
993.9350, 73.34724
994.4171, 73.30198
994.8992, 73.09605
995.3813, 72.88786
995.8635, 72.53808
996.3456, 72.35232
996.8277, 72.71809
997.3098, 73.16990
997.7919, 73.01013
998.2740, 72.26096
998.7562, 71.85261
999.2383, 72.21054
999.7204, 72.58588
1000.203, 72.80845
1000.685, 72.96310
1001.167, 73.16629
1001.649, 73.31540
1002.131, 73.16514
1002.613, 72.70349
1003.095, 72.39052
1003.577, 72.53347
1004.059, 72.74523
1004.542, 72.80966
1005.024, 72.84046
1005.506, 72.94534
1005.988, 73.11166
1006.470, 73.33334
1006.952, 73.59335
1007.434, 73.70337
1007.916, 73.35691
1008.398, 72.98308
1008.881, 73.09416
1009.363, 73.38522
1009.845, 73.42928
1010.327, 73.21700
1010.809, 72.86736
1011.291, 72.43929
1011.773, 72.10172
1012.255, 72.06161
1012.738, 72.17200
1013.220, 72.15646
1013.702, 72.11756
1014.184, 72.42861
1014.666, 73.02102
1015.148, 73.29087
1015.630, 72.94308
1016.112, 72.43687
1016.594, 72.33681
1017.077, 72.50026
1017.559, 72.59176
1018.041, 72.60118
1018.523, 72.43835
1019.005, 72.10563
1019.487, 71.81112
1019.969, 71.67486
1020.451, 71.58815
1020.934, 71.36177
1021.416, 71.03786
1021.898, 70.87331
1022.380, 70.86385
1022.862, 70.87058
1023.344, 70.87040
1023.826, 70.80771
1024.308, 70.64002
1024.791, 70.41717
1025.273, 70.19505
1025.755, 69.97945
1026.237, 70.07340
1026.719, 70.54414
1027.201, 70.80262
1027.683, 70.72775
1028.165, 70.36430
1028.647, 69.63719
1029.130, 68.85439
1029.612, 68.72929
1030.094, 69.34041
1030.576, 69.55439
1031.058, 69.28307
1031.540, 68.89145
1032.022, 68.36156
1032.504, 67.93926
1032.986, 67.78127
1033.469, 67.86503
1033.951, 68.19402
1034.433, 68.87080
1034.915, 69.13671
1035.397, 68.80187
1035.879, 68.45932
1036.361, 68.17472
1036.843, 68.00253
1037.326, 68.06673
1037.808, 68.22608
1038.290, 68.11699
1038.772, 67.62322
1039.254, 67.38406
1039.736, 67.50553
1040.218, 67.72231
1040.700, 68.27915
1041.182, 68.60185
1041.665, 67.98390
1042.147, 66.91767
1042.629, 66.61189
1043.111, 67.29266
1043.593, 67.72894
1044.075, 67.91993
1044.557, 67.82750
1045.039, 67.10190
1045.521, 66.42281
1046.004, 66.32408
1046.486, 66.58989
1046.968, 66.74925
1047.450, 66.75838
1047.932, 66.73628
1048.414, 66.67180
1048.896, 66.61028
1049.378, 66.54961
1049.861, 66.50957
1050.343, 66.54782
1050.825, 66.60258
1051.307, 66.53635
1051.789, 66.31721
1052.271, 66.13073
1052.753, 66.08087
1053.235, 65.97682
1053.718, 65.50324
1054.200, 65.19791
1054.682, 65.74100
1055.164, 66.64291
1055.646, 66.87409
1056.128, 66.24297
1056.610, 65.81835
1057.092, 66.15031
1057.574, 66.37303
1058.057, 65.96764
1058.539, 65.54463
1059.021, 65.70836
1059.503, 66.14395
1059.985, 66.18364
1060.467, 65.72443
1060.949, 65.40310
1061.431, 65.49271
1061.913, 65.66869
1062.396, 66.00882
1062.878, 66.19235
1063.360, 65.73698
1063.842, 65.05389
1064.324, 64.91518
1064.806, 65.40603
1065.288, 65.78751
1065.770, 65.74485
1066.253, 65.59669
1066.735, 65.38412
1067.217, 65.20443
1067.699, 65.18594
1068.181, 65.22432
1068.663, 65.05871
1069.145, 64.71019
1069.627, 64.68818
1070.109, 65.53763
1070.592, 66.14627
1071.074, 65.64010
1071.556, 65.08530
1072.038, 65.44801
1072.520, 66.19650
1073.002, 66.41471
1073.484, 66.08264
1073.966, 65.98840
1074.448, 66.52679
1074.931, 67.10427
1075.413, 67.47562
1075.895, 67.74527
1076.377, 67.91238
1076.859, 68.07162
1077.341, 68.38063
1077.823, 68.80662
1078.305, 69.08981
1078.788, 69.01754
1079.270, 69.19865
1079.752, 70.01419
1080.234, 71.07654
1080.716, 72.19965
1081.198, 73.36885
1081.680, 74.56149
1082.162, 75.81023
1082.644, 77.22183
1083.127, 78.80974
1083.609, 80.63657
1084.091, 82.94234
1084.573, 85.27434
1085.055, 87.41425
1085.537, 89.39820
1086.019, 91.48381
1086.501, 93.42645
1086.984, 94.62985
1087.466, 94.94539
1087.948, 94.47618
1088.430, 92.98547
1088.912, 91.06828
1089.394, 88.88046
1089.876, 86.53580
1090.358, 83.91026
1090.840, 81.28584
1091.323, 79.09653
1091.805, 77.43218
1092.287, 76.55049
1092.769, 77.62856
1093.251, 78.05306
1093.733, 76.05457
1094.215, 73.63573
1094.697, 72.29994
1095.179, 71.67913
1095.662, 71.02944
1096.144, 70.23949
1096.626, 69.52174
1097.108, 68.96130
1097.590, 68.45181
1098.072, 68.05122
1098.554, 67.59090
1099.036, 66.78082
1099.519, 65.96362
1100.001, 65.69229
1100.483, 65.89600
1100.965, 65.85677
1101.447, 65.28038
1101.929, 64.74459
1102.411, 64.40936
1102.893, 64.13566
1103.375, 63.83449
1103.858, 63.57680
1104.340, 63.43193
1104.822, 63.39624
1105.304, 63.47042
1105.786, 63.74663
1106.268, 63.80783
1106.750, 63.34652
1107.232, 62.96798
1107.714, 62.84615
1108.197, 62.90551
1108.679, 63.25441
1109.161, 63.69141
1109.643, 63.72219
1110.125, 63.22337
1110.607, 62.94109
1111.089, 63.19914
1111.571, 63.30964
1112.054, 62.98952
1112.536, 62.65708
1113.018, 62.57653
1113.500, 62.61728
1113.982, 62.56749
1114.464, 62.42319
1114.946, 62.33149
1115.428, 62.41642
1115.911, 62.34148
1116.393, 61.85816
1116.875, 61.53998
1117.357, 61.75927
1117.839, 62.11584
1118.321, 62.17135
1118.803, 61.97858
1119.285, 61.83648
1119.767, 61.69139
1120.250, 61.75834
1120.732, 62.26067
1121.214, 62.50262
1121.696, 62.15710
1122.178, 61.68842
1122.660, 61.40035
1123.142, 61.33082
1123.624, 61.65446
1124.106, 62.49174
1124.589, 62.71222
1125.071, 62.02788
1125.553, 61.77897
1126.035, 62.39434
1126.517, 62.93686
1126.999, 62.82107
1127.481, 62.39005
1127.963, 62.18423
1128.446, 62.17890
1128.928, 62.07064
1129.410, 61.83598
1129.892, 61.72720
1130.374, 61.79031
1130.856, 61.83107
1131.338, 61.76217
1131.820, 61.68504
1132.302, 61.71877
1132.785, 61.80724
1133.267, 61.72599
1133.749, 61.49815
1134.231, 61.54896
1134.713, 61.88602
1135.195, 62.11178
1135.677, 62.11607
1136.159, 62.05242
1136.641, 62.02951
1137.124, 62.01086
1137.606, 61.92941
1138.088, 61.79985
1138.570, 61.62465
1139.052, 61.44645
1139.534, 61.54244
1140.016, 61.89772
1140.498, 62.08179
1140.981, 61.89650
1141.463, 61.65541
1141.945, 61.69958
1142.427, 61.88800
1142.909, 62.00114
1143.391, 62.05810
1143.873, 62.14556
1144.355, 62.21025
1144.838, 62.01903
1145.320, 61.55108
1145.802, 61.13233
1146.284, 60.99238
1146.766, 60.94826
1147.248, 60.76857
1147.730, 60.61915
1148.212, 60.73424
1148.694, 61.01178
1149.177, 61.31621
1149.659, 61.58715
1150.141, 61.72250
1150.623, 61.67103
1151.105, 61.61833
1151.587, 61.70879
1152.069, 61.80262
1152.551, 61.84520
1153.033, 61.80765
1153.516, 61.62912
1153.998, 61.36128
1154.480, 61.08449
1154.962, 60.81979
1155.444, 60.62419
1155.926, 60.46004
1156.408, 60.45377
1156.890, 60.76953
1157.373, 61.10909
1157.855, 61.41988
1158.337, 61.57883
1158.819, 61.36889
1159.301, 60.87448
1159.783, 60.50911
1160.265, 60.29818
1160.747, 60.23858
1161.229, 60.43060
1161.712, 60.63355
1162.194, 60.87307
1162.676, 61.01533
1163.158, 60.90865
1163.640, 60.69473
1164.122, 60.64603
1164.604, 60.77018
1165.086, 60.75648
1165.568, 60.49954
1166.051, 60.44556
1166.533, 60.71418
1167.015, 60.94631
1167.497, 60.97071
1167.979, 60.97513
1168.461, 61.18420
1168.943, 61.48100
1169.425, 61.41858
1169.908, 60.97863
1170.390, 60.96154
1170.872, 61.39460
1171.354, 61.63459
1171.836, 61.53089
1172.318, 61.26773
1172.800, 60.93792
1173.282, 60.70152
1173.765, 60.83518
1174.247, 61.19473
1174.729, 61.40195
1175.211, 61.45665
1175.693, 61.24169
1176.175, 60.85431
1176.657, 60.79249
1177.139, 61.18513
1177.621, 61.60512
1178.104, 61.76089
1178.586, 61.73304
1179.068, 61.49015
1179.550, 61.22131
1180.032, 61.25063
1180.514, 61.42133
1180.996, 61.43697
1181.478, 61.28527
1181.960, 61.10063
1182.443, 60.92994
1182.925, 60.79181
1183.407, 60.63912
1183.889, 60.59624
1184.371, 60.81221
1184.853, 61.10029
1185.335, 61.34917
1185.817, 61.52925
1186.300, 61.62363
1186.782, 61.62690
1187.264, 61.51464
1187.746, 61.21249
1188.228, 60.94134
1188.710, 60.61183
1189.192, 60.48653
1189.674, 60.89762
1190.156, 61.32002
1190.639, 61.28420
1191.121, 60.99004
1191.603, 60.86287
1192.085, 60.91325
1192.567, 60.99279
1193.049, 61.12614
1193.531, 61.22055
1194.013, 61.27468
1194.495, 61.25576
1194.978, 61.13518
1195.460, 60.97903
1195.942, 60.84394
1196.424, 60.74780
1196.906, 60.77633
1197.388, 60.91888
1197.870, 60.91705
1198.352, 60.77575
1198.835, 60.65718
1199.317, 60.59338
1199.799, 60.51404
1200.281, 60.38068
1200.763, 60.31060
1201.245, 60.46584
1201.727, 60.73350
1202.209, 61.01308
1202.692, 61.20001
1203.174, 60.96881
1203.656, 60.47635
1204.138, 60.15092
1204.620, 60.08752
1205.102, 60.20161
1205.584, 60.50305
1206.066, 60.68316
1206.548, 60.36290
1207.031, 60.01171
1207.513, 60.03696
1207.995, 60.18391
1208.477, 60.17659
1208.959, 60.06202
1209.441, 59.98641
1209.923, 59.97377
1210.405, 59.97935
1210.887, 60.04483
1211.370, 60.04677
1211.852, 59.80302
1212.334, 59.69822
1212.816, 60.00280
1213.298, 60.40394
1213.780, 60.70613
1214.262, 60.88211
1214.744, 60.83201
1215.227, 60.51849
1215.709, 60.39753
1216.191, 60.53007
1216.673, 60.60622
1217.155, 60.59040
1217.637, 60.46916
1218.119, 60.21481
1218.601, 59.99677
1219.083, 59.99920
1219.566, 60.13374
1220.048, 60.20623
1220.530, 60.22038
1221.012, 60.22561
1221.494, 60.19107
1221.976, 59.91956
1222.458, 59.42784
1222.940, 58.95484
1223.422, 58.61570
1223.905, 58.48131
1224.387, 58.65443
1224.869, 58.99810
1225.351, 59.52169
1225.833, 60.00012
1226.315, 60.16503
1226.797, 60.08263
1227.279, 59.77534
1227.762, 59.35745
1228.244, 59.17107
1228.726, 59.33735
1229.208, 59.62678
1229.690, 60.19159
1230.172, 60.54578
1230.654, 60.37526
1231.136, 60.09017
1231.619, 59.99842
1232.101, 59.91967
1232.583, 59.53576
1233.065, 58.92378
1233.547, 58.58888
1234.029, 58.60569
1234.511, 58.65806
1234.993, 58.75912
1235.475, 58.84806
1235.958, 58.90876
1236.440, 58.96839
1236.922, 59.04129
1237.404, 59.14423
1237.886, 59.34557
1238.368, 59.52981
1238.850, 59.19409
1239.332, 58.53479
1239.814, 58.40228
1240.297, 58.72921
1240.779, 59.01469
1241.261, 59.13105
1241.743, 59.13028
1242.225, 59.03383
1242.707, 58.92279
1243.189, 58.86318
1243.671, 58.82758
1244.154, 58.78979
1244.636, 58.76279
1245.118, 58.79066
1245.600, 58.82354
1246.082, 58.72279
1246.564, 58.52423
1247.046, 58.52259
1247.528, 58.88405
1248.010, 59.14698
1248.493, 59.21392
1248.975, 59.20185
1249.457, 59.11745
1249.939, 58.98381
1250.421, 58.73397
1250.903, 58.54688
1251.385, 58.72001
1251.867, 59.15084
1252.349, 59.21675
1252.832, 58.87620
1253.314, 58.74239
1253.796, 58.84053
1254.278, 58.88846
1254.760, 58.82477
1255.242, 58.79359
1255.724, 58.87666
1256.206, 58.86359
1256.689, 58.40167
1257.171, 57.89060
1257.653, 58.13543
1258.135, 58.70021
1258.617, 58.83350
1259.099, 58.67510
1259.581, 58.61053
1260.063, 58.67824
1260.546, 58.70352
1261.028, 58.61887
1261.510, 58.56407
1261.992, 58.57689
1262.474, 58.66570
1262.956, 58.97915
1263.438, 59.20501
1263.920, 59.03440
1264.402, 58.75581
1264.885, 58.73118
1265.367, 58.89193
1265.849, 58.99012
1266.331, 59.01936
1266.813, 59.01109
1267.295, 58.92995
1267.777, 59.01793
1268.259, 59.34596
1268.741, 59.56794
1269.224, 59.53357
1269.706, 59.37426
1270.188, 59.20359
1270.670, 59.02035
1271.152, 58.78191
1271.634, 58.54990
1272.116, 58.46703
1272.598, 58.50917
1273.081, 58.69767
1273.563, 58.93484
1274.045, 58.87268
1274.527, 58.46693
1275.009, 58.33504
1275.491, 58.98139
1275.973, 59.52002
1276.455, 59.36421
1276.938, 59.18274
1277.420, 59.46356
1277.902, 59.77431
1278.384, 59.66078
1278.866, 59.30964
1279.348, 59.10443
1279.830, 59.04258
1280.312, 59.06256
1280.794, 59.20276
1281.276, 59.27891
1281.759, 59.28097
1282.241, 59.19509
1282.723, 59.00349
1283.205, 58.91011
1283.687, 59.04869
1284.169, 59.22038
1284.651, 59.15738
1285.133, 58.97855
1285.616, 58.87892
1286.098, 58.85353
##END=



