##NAMES=Whitlockite
##RRUFFID=R080052
##IDEAL CHEMISTRY=Ca_9_Mg(PO_4_)_6_(PO_3_OH)
##LOCALITY=Palermo #1 Quarry, Groton, Grafton County, New Hampshire USA
##OWNER=Harvard
##SOURCE=Mineralogical Museum, Harvard University
##DESCRIPTION=Colorless granular massive, and as rhombohedra in cavities, associated with white rice-shaped fluorapatite, and colorless quartz. Type sample.
##STATUS=The identification of this mineral is confirmed by single-crystal X-ray diffraction and chemical analysis.
##URL=rruff.info/R080052
##MEASURED CHEMISTRY=(Ca_8.81_Na_0.18_Sr_0.01_)_Σ=9.00_(Mg_0.62_Fe^3+^_0.34_Mn_0.02_Al_0.02_)_Σ=1.00_(P_1.00_O_4_)_6_(P_1.02_O_3_OH)
93.74609, 26.70597
94.22821, 25.81516
94.71033, 26.22234
95.19244, 27.73381
95.67456, 29.65964
96.15668, 32.06350
96.63879, 34.70300
97.12091, 36.57468
97.60303, 37.48830
98.08514, 38.40943
98.56726, 40.79094
99.04938, 44.67056
99.53149, 48.88351
100.0136, 52.71327
100.4957, 56.12502
100.9778, 60.27821
101.4600, 65.23129
101.9421, 70.89831
102.4242, 76.97044
102.9063, 83.52233
103.3884, 90.39853
103.8705, 97.54157
104.3527, 105.2769
104.8348, 112.5137
105.3169, 119.1209
105.7990, 125.1483
106.2811, 131.4263
106.7632, 138.0215
107.2454, 144.7428
107.7275, 151.3942
108.2096, 158.5224
108.6917, 164.9088
109.1738, 170.0734
109.6559, 173.8491
110.1381, 178.3771
110.6202, 183.4871
111.1023, 189.4658
111.5844, 196.5869
112.0665, 205.2828
112.5486, 214.8063
113.0308, 225.0628
113.5129, 236.1988
113.9950, 247.8630
114.4771, 260.1334
114.9592, 272.8317
115.4413, 285.8870
115.9235, 299.7982
116.4056, 313.6176
116.8877, 326.7360
117.3698, 339.2355
117.8519, 351.2211
118.3340, 362.7606
118.8162, 373.8290
119.2983, 384.3223
119.7804, 394.1935
120.2625, 403.6244
120.7446, 412.6513
121.2267, 421.2075
121.7089, 429.5982
122.1910, 437.8024
122.6731, 445.9126
123.1552, 454.3609
123.6373, 464.2051
124.1194, 474.2897
124.6016, 483.2775
125.0837, 489.5262
125.5658, 495.1929
126.0479, 502.1006
126.5300, 510.2570
127.0121, 519.8273
127.4943, 531.3937
127.9764, 544.4653
128.4585, 558.2342
128.9406, 572.0659
129.4227, 586.3389
129.9048, 601.5876
130.3869, 617.8062
130.8691, 635.0455
131.3512, 653.8121
131.8333, 671.6761
132.3154, 685.9772
132.7975, 699.4209
133.2796, 712.5266
133.7618, 722.5598
134.2439, 729.2145
134.7260, 734.1039
135.2081, 739.8246
135.6902, 746.4922
136.1723, 752.1635
136.6545, 755.7938
137.1366, 757.4039
137.6187, 758.1318
138.1008, 758.0211
138.5829, 757.1274
139.0650, 755.6650
139.5472, 753.7390
140.0293, 750.7794
140.5114, 745.8480
140.9935, 738.1033
141.4756, 732.0215
141.9577, 728.0222
142.4399, 725.8307
142.9220, 724.4021
143.4041, 723.7558
143.8862, 723.7441
144.3683, 724.4397
144.8504, 726.4669
145.3326, 727.7969
145.8147, 728.2562
146.2968, 727.8678
146.7789, 726.4161
147.2610, 723.3791
147.7431, 719.8036
148.2253, 716.5150
148.7074, 713.7101
149.1895, 710.9672
149.6716, 708.2334
150.1537, 705.4802
150.6358, 702.9289
151.1180, 701.0167
151.6001, 699.1034
152.0822, 696.5493
152.5643, 692.5197
153.0464, 688.6469
153.5285, 685.2282
154.0107, 682.3277
154.4928, 679.7239
154.9749, 677.8284
155.4570, 676.0748
155.9391, 673.7483
156.4212, 669.9506
156.9034, 666.2561
157.3855, 663.2742
157.8676, 661.4277
158.3497, 659.3314
158.8318, 656.9164
159.3139, 654.0881
159.7961, 650.6622
160.2782, 645.4392
160.7603, 640.4889
161.2424, 636.8563
161.7245, 635.0837
162.2066, 633.7391
162.6888, 633.4208
163.1709, 633.2375
163.6530, 631.2158
164.1351, 624.4486
164.6172, 616.8956
165.0993, 611.1877
165.5815, 608.4231
166.0636, 606.4879
166.5457, 604.4882
167.0278, 602.4758
167.5099, 600.6375
167.9921, 598.7509
168.4742, 597.2117
168.9563, 596.4335
169.4384, 596.9274
169.9205, 597.6612
170.4026, 598.0627
170.8848, 598.1516
171.3669, 597.9734
171.8490, 597.1013
172.3311, 596.1381
172.8132, 595.7961
173.2953, 596.3259
173.7775, 597.5297
174.2596, 599.8493
174.7417, 603.0714
175.2238, 605.5150
175.7059, 605.7275
176.1880, 604.3908
176.6702, 602.5804
177.1523, 600.7796
177.6344, 598.5690
178.1165, 595.4972
178.5986, 591.5384
179.0807, 586.7609
179.5629, 580.6496
180.0450, 573.6610
180.5271, 566.9797
181.0092, 560.9867
181.4913, 555.4589
181.9734, 550.1475
182.4556, 545.0478
182.9377, 540.0974
183.4198, 534.8170
183.9019, 529.4680
184.3840, 525.1085
184.8661, 522.5126
185.3483, 521.0833
185.8304, 519.4315
186.3125, 517.5574
186.7946, 515.5247
187.2767, 513.2928
187.7588, 510.9008
188.2409, 508.6932
188.7231, 507.0624
189.2052, 505.7517
189.6873, 503.4702
190.1694, 499.9643
190.6515, 496.6499
191.1336, 495.6930
191.6158, 496.9304
192.0979, 497.9968
192.5800, 497.7062
193.0621, 496.2953
193.5442, 495.3623
194.0263, 494.9948
194.5085, 494.8003
194.9906, 494.1617
195.4727, 493.0744
195.9548, 492.0469
196.4369, 491.2665
196.9190, 490.7275
197.4012, 490.4826
197.8833, 490.6190
198.3654, 490.8344
198.8475, 490.4246
199.3296, 489.2787
199.8117, 488.6341
200.2939, 489.4908
200.7760, 491.8815
201.2581, 492.8837
201.7402, 492.0857
202.2223, 490.5092
202.7044, 489.8781
203.1866, 490.2790
203.6687, 491.1769
204.1508, 492.4107
204.6329, 494.0034
205.1150, 495.8021
205.5971, 497.9792
206.0793, 500.1591
206.5614, 501.4351
207.0435, 501.5164
207.5256, 501.7982
208.0077, 503.0353
208.4898, 505.4253
208.9720, 507.5258
209.4541, 509.3226
209.9362, 510.8140
210.4183, 511.8816
210.9004, 512.3062
211.3825, 512.8983
211.8647, 514.0670
212.3468, 515.9346
212.8289, 517.8347
213.3110, 519.8855
213.7931, 521.8746
214.2752, 523.1509
214.7574, 523.3387
215.2395, 523.7469
215.7216, 525.2147
216.2037, 528.3137
216.6858, 530.1296
217.1679, 529.9033
217.6501, 528.8253
218.1322, 529.9017
218.6143, 534.1312
219.0964, 538.4777
219.5785, 541.5894
220.0606, 543.3781
220.5428, 544.2228
221.0249, 543.4773
221.5070, 542.1016
221.9891, 542.6279
222.4712, 546.2009
222.9533, 549.5472
223.4355, 551.0080
223.9176, 549.6842
224.3997, 549.1390
224.8818, 549.6332
225.3639, 550.7786
225.8460, 551.7500
226.3282, 552.6322
226.8103, 553.1851
227.2924, 553.2158
227.7745, 552.4149
228.2566, 551.9670
228.7387, 552.0732
229.2209, 552.4553
229.7030, 552.4040
230.1851, 551.5543
230.6672, 550.8764
231.1493, 550.8266
231.6314, 551.7227
232.1136, 552.4037
232.5957, 552.8364
233.0778, 553.0743
233.5599, 553.1585
234.0420, 552.7977
234.5241, 552.7467
235.0063, 553.3339
235.4884, 554.7281
235.9705, 556.2427
236.4526, 557.9664
236.9347, 559.7723
237.4168, 561.4998
237.8990, 563.5099
238.3811, 564.8304
238.8632, 564.7952
239.3453, 562.4570
239.8274, 561.6609
240.3095, 562.8931
240.7917, 565.4036
241.2738, 567.8807
241.7559, 570.5685
242.2380, 572.8233
242.7201, 574.2545
243.2022, 574.4412
243.6844, 575.3392
244.1665, 577.4752
244.6486, 580.0313
245.1307, 581.4991
245.6128, 581.1664
246.0949, 580.9531
246.5771, 581.6009
247.0592, 583.4965
247.5413, 584.6328
248.0234, 584.5112
248.5055, 583.9518
248.9876, 584.2803
249.4697, 585.9927
249.9519, 587.6788
250.4340, 588.9570
250.9161, 589.8041
251.3982, 590.3483
251.8803, 590.4875
252.3624, 590.4102
252.8446, 590.2974
253.3267, 589.8923
253.8088, 589.9871
254.2909, 590.9808
254.7730, 593.0663
255.2551, 594.5309
255.7373, 595.0073
256.2194, 595.2371
256.7015, 596.1224
257.1836, 597.8887
257.6657, 599.7979
258.1479, 601.6808
258.6300, 603.5056
259.1121, 605.3962
259.5942, 607.2917
260.0763, 609.3044
260.5584, 611.7189
261.0406, 614.8146
261.5227, 617.5352
262.0048, 619.6850
262.4869, 621.2520
262.9690, 622.2408
263.4511, 622.3825
263.9333, 622.3489
264.4154, 622.7344
264.8975, 623.5770
265.3796, 624.8251
265.8617, 626.7577
266.3438, 629.2297
266.8260, 630.6731
267.3081, 630.7177
267.7902, 630.4114
268.2723, 630.6683
268.7544, 631.6660
269.2365, 632.5319
269.7187, 632.9683
270.2008, 633.1586
270.6829, 634.1579
271.1650, 636.1320
271.6471, 638.5007
272.1292, 640.7508
272.6114, 642.7940
273.0935, 645.2034
273.5756, 648.1526
274.0577, 651.4286
274.5398, 654.1415
275.0219, 655.8981
275.5041, 658.2391
275.9862, 662.3230
276.4683, 668.3251
276.9504, 674.5694
277.4325, 681.1029
277.9146, 687.6067
278.3968, 693.0823
278.8788, 697.3018
279.3610, 701.6055
279.8431, 706.9658
280.3252, 713.4055
280.8073, 719.2267
281.2894, 724.1796
281.7715, 728.7634
282.2537, 734.2115
282.7358, 740.6915
283.2179, 746.4926
283.7000, 750.9756
284.1821, 754.1403
284.6642, 755.4238
285.1464, 754.4676
285.6285, 752.5095
286.1106, 751.6908
286.5927, 752.0078
287.0748, 751.4968
287.5569, 749.2057
288.0391, 745.2564
288.5212, 740.5245
289.0033, 734.8883
289.4854, 728.8693
289.9675, 723.1252
290.4496, 717.5998
290.9318, 711.9464
291.4139, 705.8564
291.8960, 699.5013
292.3781, 693.5157
292.8602, 687.8497
293.3423, 682.6115
293.8245, 678.4727
294.3066, 675.0297
294.7887, 670.2349
295.2708, 662.6738
295.7529, 653.8716
296.2350, 647.3584
296.7172, 643.1419
297.1993, 639.0891
297.6814, 633.0927
298.1635, 625.7554
298.6456, 618.9223
299.1277, 613.0655
299.6099, 607.7768
300.0920, 602.9101
300.5741, 598.3158
301.0562, 593.3680
301.5383, 587.2631
302.0204, 580.4877
302.5026, 574.0226
302.9847, 567.9753
303.4668, 562.3209
303.9489, 556.8614
304.4310, 551.7227
304.9131, 546.9709
305.3953, 542.8387
305.8774, 539.0881
306.3595, 535.4954
306.8416, 532.0443
307.3237, 528.6852
307.8058, 525.5978
308.2880, 522.6072
308.7701, 519.3425
309.2522, 515.2129
309.7343, 510.9224
310.2164, 507.1730
310.6985, 504.0351
311.1807, 501.0196
311.6628, 497.6294
312.1449, 494.1529
312.6270, 491.1305
313.1091, 489.1738
313.5912, 487.4196
314.0734, 485.2841
314.5555, 482.7612
315.0376, 480.2306
315.5197, 477.6844
316.0018, 475.2914
316.4839, 473.2904
316.9661, 471.9394
317.4482, 470.7837
317.9303, 469.7754
318.4124, 468.8598
318.8945, 467.6923
319.3766, 465.7740
319.8588, 463.7534
320.3409, 462.1258
320.8230, 461.2010
321.3051, 460.3769
321.7872, 459.3854
322.2693, 458.3513
322.7515, 457.6579
323.2336, 458.0132
323.7157, 458.2681
324.1978, 457.8807
324.6799, 456.7180
325.1620, 455.0622
325.6442, 452.1220
326.1263, 448.8210
326.6084, 446.7957
327.0905, 447.8028
327.5726, 448.6519
328.0547, 448.0399
328.5369, 444.9550
329.0190, 443.6671
329.5011, 445.7498
329.9832, 448.9896
330.4653, 450.9039
330.9474, 450.7120
331.4296, 450.1620
331.9117, 449.3941
332.3938, 448.3849
332.8759, 447.8351
333.3580, 447.9593
333.8401, 448.3406
334.3223, 448.6621
334.8044, 448.9390
335.2865, 449.1281
335.7686, 449.2160
336.2507, 449.2044
336.7328, 449.0496
337.2150, 448.5332
337.6971, 448.2408
338.1792, 448.6993
338.6613, 450.2711
339.1434, 451.0656
339.6255, 450.8257
340.1077, 449.8618
340.5898, 448.6433
341.0719, 446.9826
341.5540, 445.9321
342.0361, 446.2920
342.5182, 448.1402
343.0004, 449.2977
343.4825, 449.5750
343.9646, 449.6062
344.4467, 450.3593
344.9288, 451.8347
345.4109, 453.2677
345.8931, 454.4838
346.3752, 455.4441
346.8573, 455.7962
347.3394, 455.4820
347.8215, 455.0706
348.3036, 455.0877
348.7858, 455.4816
349.2679, 456.0299
349.7500, 456.7003
350.2321, 457.4560
350.7142, 458.3065
351.1964, 459.2225
351.6785, 459.9785
352.1606, 460.2484
352.6427, 460.2555
353.1248, 460.4189
353.6069, 460.7907
354.0891, 461.3902
354.5712, 462.2934
355.0533, 463.4522
355.5354, 464.7448
356.0175, 466.2451
356.4996, 467.7687
356.9818, 469.2677
357.4639, 470.7881
357.9460, 471.8239
358.4281, 471.5786
358.9102, 470.7094
359.3923, 470.1761
359.8745, 470.0190
360.3566, 470.5822
360.8387, 472.1727
361.3208, 474.7549
361.8029, 477.8428
362.2850, 482.3605
362.7672, 486.6939
363.2493, 489.4630
363.7314, 488.9280
364.2135, 488.4720
364.6956, 488.9709
365.1777, 490.3350
365.6599, 492.2959
366.1420, 495.5010
366.6241, 498.7536
367.1062, 501.4180
367.5883, 503.1675
368.0704, 504.9688
368.5526, 506.6693
369.0347, 508.5250
369.5168, 510.9580
369.9989, 514.4881
370.4810, 518.0609
370.9631, 521.2863
371.4453, 523.9972
371.9274, 527.7298
372.4095, 533.5875
372.8916, 539.4776
373.3737, 543.4364
373.8558, 543.8831
374.3380, 545.6233
374.8201, 549.7250
375.3022, 555.7179
375.7843, 560.8381
376.2664, 564.9763
376.7485, 568.6003
377.2307, 571.6337
377.7128, 573.7623
378.1949, 577.4520
378.6770, 583.0247
379.1591, 589.9280
379.6412, 597.2413
380.1234, 605.1098
380.6055, 612.6934
381.0876, 619.1252
381.5697, 624.7457
382.0518, 632.2662
382.5339, 641.7704
383.0161, 652.3460
383.4982, 662.8226
383.9803, 673.3997
384.4624, 684.6543
384.9445, 696.7947
385.4266, 709.6078
385.9088, 722.8990
386.3909, 736.6249
386.8730, 750.9047
387.3551, 765.8440
387.8372, 781.5010
388.3193, 798.1321
388.8015, 815.8558
389.2836, 834.3066
389.7657, 853.2248
390.2478, 872.6976
390.7299, 892.4813
391.2120, 912.4423
391.6942, 932.7556
392.1763, 953.1228
392.6584, 973.3060
393.1405, 994.7316
393.6226, 1019.055
394.1047, 1044.700
394.5869, 1069.666
395.0690, 1091.391
395.5511, 1114.296
396.0332, 1140.285
396.5153, 1168.975
396.9974, 1198.243
397.4796, 1227.367
397.9617, 1257.047
398.4438, 1287.648
398.9259, 1319.227
399.4080, 1351.701
399.8901, 1385.863
400.3723, 1420.942
400.8544, 1455.073
401.3365, 1489.097
401.8186, 1521.523
402.3007, 1552.345
402.7828, 1581.785
403.2649, 1607.693
403.7470, 1629.718
404.2292, 1648.652
404.7113, 1665.302
405.1934, 1680.688
405.6755, 1691.013
406.1576, 1695.173
406.6397, 1693.998
407.1219, 1690.810
407.6040, 1686.328
408.0861, 1676.950
408.5682, 1658.947
409.0503, 1632.746
409.5324, 1606.966
410.0146, 1582.175
410.4967, 1557.205
410.9788, 1529.967
411.4609, 1500.897
411.9430, 1471.784
412.4251, 1442.348
412.9073, 1413.929
413.3894, 1388.564
413.8715, 1366.123
414.3536, 1344.847
414.8357, 1322.752
415.3178, 1300.576
415.8000, 1280.191
416.2821, 1262.295
416.7642, 1245.255
417.2463, 1227.374
417.7284, 1208.947
418.2105, 1191.299
418.6927, 1174.581
419.1748, 1159.075
419.6569, 1144.985
420.1390, 1132.314
420.6211, 1120.365
421.1032, 1108.330
421.5854, 1096.778
422.0675, 1086.303
422.5496, 1077.631
423.0317, 1069.367
423.5138, 1060.591
423.9959, 1051.646
424.4781, 1044.154
424.9602, 1038.595
425.4423, 1034.544
425.9244, 1031.783
426.4065, 1030.233
426.8886, 1030.134
427.3708, 1032.451
427.8529, 1035.791
428.3350, 1037.842
428.8171, 1037.345
429.2992, 1037.857
429.7813, 1040.471
430.2635, 1045.106
430.7456, 1049.793
431.2277, 1054.583
431.7098, 1059.247
432.1919, 1063.955
432.6740, 1068.856
433.1562, 1071.817
433.6383, 1072.146
434.1204, 1071.050
434.6025, 1070.968
435.0846, 1071.875
435.5667, 1072.678
436.0489, 1073.154
436.5310, 1073.094
437.0131, 1071.493
437.4952, 1068.227
437.9773, 1064.942
438.4594, 1063.536
438.9416, 1063.286
439.4237, 1062.617
439.9058, 1060.749
440.3879, 1058.673
440.8700, 1057.464
441.3521, 1056.889
441.8343, 1056.111
442.3164, 1054.461
442.7985, 1052.570
443.2806, 1050.962
443.7627, 1049.812
444.2448, 1048.512
444.7270, 1047.658
445.2091, 1046.225
445.6912, 1042.997
446.1733, 1036.145
446.6554, 1028.991
447.1375, 1022.949
447.6197, 1017.775
448.1018, 1010.783
448.5839, 1000.687
449.0660, 989.6862
449.5481, 978.8881
450.0302, 968.3940
450.5124, 957.7421
450.9945, 947.0386
451.4766, 936.2355
451.9587, 925.2472
452.4408, 913.8080
452.9229, 902.8093
453.4051, 892.3438
453.8872, 882.4615
454.3693, 872.7750
454.8514, 863.2320
455.3335, 853.9933
455.8156, 845.0255
456.2978, 836.3666
456.7799, 828.0336
457.2620, 819.8757
457.7441, 812.2017
458.2262, 805.5934
458.7083, 799.8822
459.1905, 794.0367
459.6726, 787.6827
460.1547, 780.8779
460.6368, 773.4660
461.1189, 765.4222
461.6010, 757.6911
462.0832, 751.2105
462.5653, 745.2750
463.0474, 739.2016
463.5295, 732.7001
464.0116, 726.0996
464.4937, 719.3459
464.9759, 712.6435
465.4580, 706.6127
465.9401, 702.0033
466.4222, 697.6234
466.9043, 692.8764
467.3864, 687.5807
467.8686, 683.0589
468.3507, 679.9588
468.8328, 677.3685
469.3149, 674.6335
469.7970, 671.5851
470.2791, 668.6699
470.7613, 666.0649
471.2434, 663.5730
471.7255, 660.5214
472.2076, 656.4479
472.6897, 652.9489
473.1718, 650.7238
473.6540, 649.7835
474.1361, 648.7433
474.6182, 647.5704
475.1003, 646.4323
475.5824, 645.4906
476.0645, 644.7425
476.5467, 644.1754
477.0288, 643.8578
477.5109, 643.6053
477.9930, 643.2102
478.4751, 642.6491
478.9572, 641.7994
479.4394, 639.5312
479.9215, 637.4251
480.4036, 638.1214
480.8857, 641.7988
481.3678, 645.1281
481.8499, 646.0591
482.3321, 645.3184
482.8142, 643.6649
483.2963, 640.6251
483.7784, 637.5807
484.2605, 635.6461
484.7426, 634.1520
485.2248, 631.4404
485.7069, 626.2686
486.1890, 620.6397
486.6711, 615.2635
487.1532, 610.2786
487.6353, 604.9905
488.1175, 599.0325
488.5996, 593.2206
489.0817, 588.3375
489.5638, 585.0272
490.0459, 581.1487
490.5280, 576.3107
491.0102, 570.9088
491.4923, 565.8029
491.9744, 560.9842
492.4565, 556.3155
492.9386, 551.5431
493.4207, 546.7368
493.9029, 542.5215
494.3850, 538.8665
494.8671, 535.7507
495.3492, 533.5266
495.8313, 531.8165
496.3134, 529.3769
496.7956, 525.6406
497.2777, 521.8464
497.7598, 519.5792
498.2419, 518.3706
498.7240, 517.1042
499.2061, 514.7167
499.6883, 512.4397
500.1704, 511.4713
500.6525, 511.8119
501.1346, 511.6831
501.6167, 509.5434
502.0988, 507.1624
502.5810, 505.8988
503.0631, 507.1955
503.5452, 507.6916
504.0273, 506.2589
504.5094, 503.9034
504.9915, 502.4143
505.4737, 502.4243
505.9558, 502.3343
506.4379, 501.6154
506.9200, 500.3311
507.4021, 499.7939
507.8842, 500.2928
508.3664, 500.8412
508.8485, 500.5944
509.3306, 499.5239
509.8127, 499.0356
510.2948, 499.3088
510.7769, 499.9311
511.2591, 500.4552
511.7412, 500.8531
512.2233, 500.9416
512.7054, 500.4492
513.1875, 499.7875
513.6696, 499.5656
514.1517, 499.7353
514.6339, 500.0215
515.1160, 500.5240
515.5981, 500.9099
516.0802, 500.7059
516.5623, 499.6801
517.0444, 499.0199
517.5266, 499.5038
518.0087, 500.5540
518.4908, 501.5399
518.9729, 502.4651
519.4550, 503.1553
519.9371, 503.5459
520.4193, 503.6613
520.9014, 503.5665
521.3835, 502.6047
521.8656, 502.2899
522.3477, 503.3893
522.8298, 506.1633
523.3120, 508.2059
523.7941, 509.2860
524.2762, 510.0280
524.7583, 510.9220
525.2404, 511.9686
525.7225, 513.2524
526.2047, 514.7695
526.6868, 516.5685
527.1689, 518.6937
527.6510, 521.1553
528.1331, 524.0604
528.6152, 528.0505
529.0974, 532.2476
529.5795, 535.2248
530.0616, 537.0916
530.5437, 539.0636
531.0258, 542.1226
531.5079, 545.5985
531.9901, 548.8050
532.4722, 551.2761
532.9543, 554.4477
533.4364, 559.0227
533.9185, 564.5988
534.4006, 570.7182
534.8828, 577.8320
535.3649, 584.8571
535.8470, 591.3222
536.3291, 597.4304
536.8112, 603.8489
537.2933, 610.5367
537.7755, 617.5736
538.2576, 624.9322
538.7397, 632.6913
539.2218, 640.5786
539.7039, 648.3707
540.1860, 656.6077
540.6682, 666.0624
541.1503, 676.5540
541.6324, 686.6003
542.1145, 695.8141
542.5966, 704.4644
543.0787, 712.7891
543.5609, 720.8707
544.0430, 729.0059
544.5251, 737.5109
545.0072, 746.0584
545.4893, 754.6310
545.9714, 763.1194
546.4536, 770.2551
546.9357, 773.6370
547.4178, 776.4781
547.8999, 781.3701
548.3820, 789.7655
548.8641, 797.8228
549.3463, 805.2561
549.8284, 811.7372
550.3105, 816.8058
550.7926, 819.3285
551.2747, 822.2302
551.7568, 826.7794
552.2390, 832.0505
552.7211, 834.0540
553.2032, 832.2743
553.6853, 828.8438
554.1674, 824.1733
554.6495, 818.4232
555.1317, 814.2196
555.6138, 811.8315
556.0959, 809.5436
556.5780, 805.1736
557.0601, 799.6317
557.5422, 795.5953
558.0244, 794.0436
558.5065, 792.8788
558.9886, 789.9428
559.4707, 785.8412
559.9528, 781.8578
560.4349, 778.8651
560.9171, 775.7830
561.3992, 772.0709
561.8813, 767.7281
562.3634, 763.0459
562.8455, 758.4469
563.3276, 753.1849
563.8098, 746.6706
564.2919, 738.5456
564.7740, 730.5548
565.2561, 722.4957
565.7382, 714.7612
566.2203, 707.6789
566.7025, 701.3133
567.1846, 695.2452
567.6667, 689.5447
568.1488, 683.7823
568.6309, 677.0112
569.1130, 669.2253
569.5952, 661.4951
570.0773, 654.0505
570.5594, 647.0485
571.0415, 640.6317
571.5236, 634.7286
572.0057, 628.9140
572.4879, 622.3198
572.9700, 615.9012
573.4521, 610.7652
573.9342, 607.1951
574.4163, 603.8943
574.8984, 599.8043
575.3806, 595.8969
575.8627, 593.1149
576.3448, 592.5393
576.8269, 592.0541
577.3090, 591.1042
577.7911, 590.1061
578.2733, 590.0310
578.7554, 591.0591
579.2375, 592.6360
579.7196, 594.5647
580.2017, 596.8889
580.6838, 599.7850
581.1660, 603.1801
581.6481, 607.4872
582.1302, 613.4369
582.6123, 620.6343
583.0944, 627.0068
583.5765, 632.2735
584.0587, 638.0273
584.5408, 645.6885
585.0229, 654.9053
585.5050, 665.2130
585.9871, 677.3348
586.4692, 689.1824
586.9514, 698.5695
587.4335, 706.9568
587.9156, 717.1741
588.3977, 732.5297
588.8798, 747.4523
589.3619, 760.1217
589.8441, 770.4668
590.3262, 779.9800
590.8083, 788.9454
591.2904, 796.5690
591.7725, 802.5986
592.2546, 807.1845
592.7368, 808.9249
593.2189, 807.2513
593.7010, 804.1972
594.1831, 801.8764
594.6652, 800.2230
595.1473, 798.3664
595.6295, 796.0539
596.1116, 793.7054
596.5937, 791.7778
597.0758, 790.2614
597.5579, 789.1212
598.0400, 787.8047
598.5222, 787.3301
599.0043, 788.2928
599.4864, 790.6954
599.9685, 794.5354
600.4506, 800.4358
600.9327, 807.1956
601.4149, 814.4704
601.8970, 822.4579
602.3791, 829.7181
602.8612, 836.1407
603.3433, 842.0156
603.8254, 847.7217
604.3076, 853.7889
604.7897, 857.7676
605.2718, 859.3796
605.7539, 859.1710
606.2360, 857.4493
606.7181, 854.3639
607.2003, 851.7145
607.6824, 850.0761
608.1645, 849.1157
608.6466, 848.0253
609.1287, 847.0734
609.6108, 847.3161
610.0930, 849.6004
610.5751, 853.0891
611.0572, 857.3594
611.5393, 862.3464
612.0214, 867.6556
612.5035, 873.4559
612.9857, 879.3309
613.4678, 885.0788
613.9499, 890.3611
614.4320, 895.9925
614.9141, 901.7715
615.3962, 908.1420
615.8784, 915.6116
616.3605, 924.3682
616.8426, 933.8718
617.3247, 944.4117
617.8068, 955.1411
618.2889, 963.7921
618.7711, 970.6213
619.2532, 977.3818
619.7353, 985.1819
620.2174, 993.1302
620.6995, 1000.622
621.1816, 1007.398
621.6638, 1011.992
622.1459, 1011.925
622.6280, 1010.734
623.1101, 1010.906
623.5922, 1012.748
624.0743, 1014.867
624.5565, 1017.269
625.0386, 1019.569
625.5207, 1021.591
626.0028, 1024.058
626.4849, 1024.691
626.9670, 1023.046
627.4492, 1020.038
627.9313, 1016.792
628.4134, 1013.327
628.8955, 1009.394
629.3776, 1005.065
629.8597, 1000.086
630.3419, 994.1784
630.8240, 987.2343
631.3061, 978.7542
631.7882, 968.6318
632.2703, 956.7694
632.7524, 943.1799
633.2346, 927.8865
633.7167, 910.2999
634.1988, 890.2502
634.6809, 868.0078
635.1630, 843.0038
635.6451, 814.5630
636.1273, 787.6247
636.6094, 763.3532
637.0915, 740.3699
637.5736, 717.9872
638.0557, 695.3828
638.5378, 675.3348
639.0200, 657.8601
639.5021, 642.7244
639.9842, 629.8445
640.4663, 619.2505
640.9484, 609.9457
641.4305, 601.9184
641.9127, 594.8362
642.3948, 588.0776
642.8769, 581.8297
643.3590, 576.4393
643.8411, 572.7436
644.3232, 569.3994
644.8054, 565.1050
645.2875, 560.2361
645.7696, 556.2761
646.2517, 554.4117
646.7338, 552.9426
647.2159, 551.0739
647.6981, 548.6889
648.1802, 547.0404
648.6623, 546.5145
649.1444, 546.1142
649.6265, 545.2488
650.1086, 543.9137
650.5908, 541.9432
651.0729, 539.1301
651.5550, 536.4937
652.0371, 535.3939
652.5192, 535.4141
653.0013, 535.3801
653.4835, 535.0564
653.9656, 534.5399
654.4477, 533.6205
654.9298, 532.6309
655.4119, 532.1159
655.8940, 532.9374
656.3762, 533.5717
656.8583, 533.2157
657.3404, 532.1952
657.8225, 531.7338
658.3046, 532.2068
658.7867, 532.7341
659.2689, 533.0493
659.7510, 533.1711
660.2331, 533.5248
660.7152, 534.2397
661.1973, 534.4511
661.6794, 533.1570
662.1616, 530.8727
662.6437, 529.4993
663.1258, 529.1016
663.6079, 529.3041
664.0900, 530.4804
664.5721, 531.7787
665.0543, 532.0293
665.5364, 530.7281
666.0185, 529.5628
666.5006, 529.4922
666.9827, 529.8429
667.4648, 529.9141
667.9470, 529.2572
668.4291, 528.8032
668.9112, 528.6307
669.3933, 528.6508
669.8754, 528.6624
670.3575, 528.6004
670.8397, 528.8947
671.3218, 529.8433
671.8039, 531.0034
672.2860, 531.1105
672.7681, 530.3321
673.2502, 529.8057
673.7324, 530.7642
674.2145, 531.8670
674.6966, 531.1270
675.1787, 528.9243
675.6608, 527.4892
676.1429, 528.6160
676.6251, 530.2337
677.1072, 531.1987
677.5893, 531.2997
678.0714, 531.5550
678.5535, 532.0900
679.0356, 532.7039
679.5178, 533.3075
679.9999, 533.9501
680.4820, 534.3729
680.9641, 534.5776
681.4462, 534.5892
681.9283, 534.1430
682.4105, 533.4774
682.8926, 533.7936
683.3747, 535.6773
683.8568, 537.3000
684.3389, 536.2093
684.8210, 533.8708
685.3032, 532.5705
685.7853, 534.0723
686.2674, 535.6068
686.7495, 536.2502
687.2316, 536.2662
687.7137, 536.2444
688.1959, 535.8769
688.6780, 536.0001
689.1601, 536.9326
689.6422, 538.4460
690.1243, 539.7353
690.6064, 540.8242
691.0886, 541.5286
691.5707, 541.5828
692.0528, 541.2561
692.5349, 541.2037
693.0170, 541.4154
693.4991, 541.7534
693.9813, 542.1532
694.4634, 542.6331
694.9455, 543.4501
695.4276, 544.6448
695.9097, 545.0655
696.3918, 543.1154
696.8740, 541.1967
697.3561, 540.9462
697.8382, 543.0987
698.3203, 544.5491
698.8024, 545.0297
699.2845, 545.2013
699.7667, 545.8135
700.2488, 546.8542
700.7309, 547.0704
701.2130, 546.1107
701.6951, 545.1682
702.1772, 546.2073
702.6594, 548.3281
703.1415, 549.4925
703.6236, 548.8294
704.1057, 547.7016
704.5878, 546.4979
705.0699, 545.5215
705.5521, 545.2579
706.0342, 546.6823
706.5163, 547.8191
706.9984, 548.2510
707.4805, 548.1917
707.9626, 548.0818
708.4448, 547.7561
708.9269, 548.0139
709.4090, 549.5081
709.8911, 551.4954
710.3732, 551.2128
710.8553, 548.9144
711.3374, 547.3103
711.8195, 548.6993
712.3016, 551.1300
712.7838, 552.5628
713.2659, 553.0052
713.7480, 552.9572
714.2301, 551.8897
714.7122, 551.0424
715.1943, 551.2882
715.6765, 552.9189
716.1586, 553.8023
716.6407, 553.4578
717.1228, 553.0322
717.6049, 553.2126
718.0870, 554.0504
718.5692, 555.0955
719.0513, 556.4728
719.5334, 557.2940
720.0155, 556.2161
720.4976, 554.0469
720.9797, 552.5215
721.4619, 551.9249
721.9440, 551.8478
722.4261, 552.1511
722.9082, 552.7557
723.3903, 553.6503
723.8724, 555.4359
724.3546, 556.4483
724.8367, 555.7862
725.3188, 554.6338
725.8009, 554.3596
726.2830, 555.3622
726.7651, 555.7924
727.2473, 555.1776
727.7294, 554.3216
728.2115, 554.8694
728.6936, 556.5304
729.1757, 557.6309
729.6578, 557.3045
730.1400, 556.7209
730.6221, 557.4709
731.1042, 558.8633
731.5863, 559.4410
732.0684, 557.6764
732.5505, 556.0486
733.0327, 555.4567
733.5148, 555.7320
733.9969, 556.0691
734.4790, 556.3757
734.9611, 556.9775
735.4432, 558.1791
735.9254, 559.6973
736.4075, 560.1462
736.8896, 559.5250
737.3717, 559.0261
737.8538, 559.7322
738.3359, 560.7596
738.8181, 560.2515
739.3002, 558.5521
739.7823, 557.8010
740.2644, 560.3018
740.7465, 563.1301
741.2286, 564.5507
741.7108, 564.3611
742.1929, 563.8989
742.6750, 562.7189
743.1571, 562.0012
743.6392, 562.6126
744.1213, 564.6439
744.6035, 565.1729
745.0856, 563.9797
745.5677, 562.7753
746.0498, 563.3736
746.5319, 564.9229
747.0140, 565.4509
747.4962, 564.7703
747.9783, 564.0694
748.4604, 564.1306
748.9425, 564.5657
749.4246, 565.0895
749.9067, 565.7587
750.3889, 566.1796
750.8710, 566.1517
751.3531, 565.9839
751.8352, 565.8815
752.3173, 565.8311
752.7994, 565.7993
753.2816, 565.6898
753.7637, 565.8639
754.2458, 567.1392
754.7279, 569.0489
755.2100, 570.1950
755.6921, 570.2560
756.1743, 569.6911
756.6564, 568.5046
757.1385, 567.0632
757.6206, 565.8006
758.1027, 564.5506
758.5848, 563.9152
759.0670, 564.4329
759.5491, 565.3837
760.0312, 565.9194
760.5133, 565.9194
760.9954, 566.0204
761.4775, 566.4037
761.9597, 566.7487
762.4418, 566.0723
762.9239, 564.7825
763.4060, 564.7795
763.8881, 567.3835
764.3702, 570.0519
764.8524, 569.8931
765.3345, 568.2424
765.8166, 567.4144
766.2987, 569.0674
766.7808, 570.4756
767.2629, 570.7531
767.7451, 570.4473
768.2272, 570.6354
768.7093, 571.4359
769.1914, 572.3708
769.6735, 573.4783
770.1556, 574.4749
770.6378, 574.6080
771.1199, 574.0167
771.6020, 573.4003
772.0841, 573.1873
772.5662, 572.9591
773.0483, 571.8009
773.5305, 570.3174
774.0126, 570.0532
774.4947, 573.1082
774.9768, 575.6960
775.4589, 576.4269
775.9410, 575.8310
776.4232, 575.8049
776.9053, 576.5596
777.3874, 577.1343
777.8695, 577.1990
778.3516, 576.8614
778.8337, 576.2422
779.3159, 575.4170
779.7980, 574.8412
780.2801, 574.4181
780.7622, 574.6357
781.2443, 576.4662
781.7264, 579.4532
782.2086, 581.6969
782.6907, 582.2979
783.1728, 582.3904
783.6549, 582.2762
784.1370, 581.9802
784.6191, 581.6097
785.1013, 581.1583
785.5834, 580.6642
786.0655, 579.8535
786.5476, 579.1318
787.0297, 580.2457
787.5118, 582.8662
787.9940, 584.6965
788.4761, 583.7336
788.9582, 582.0153
789.4403, 580.8574
789.9224, 580.3112
790.4045, 580.3468
790.8867, 581.3076
791.3688, 582.5036
791.8509, 583.8597
792.3330, 585.3133
792.8151, 585.9899
793.2972, 585.8104
793.7794, 585.3106
794.2615, 584.4711
794.7436, 583.6065
795.2257, 583.6483
795.7078, 584.4730
796.1899, 585.3250
796.6721, 586.0546
797.1542, 586.4296
797.6363, 586.1541
798.1184, 585.2579
798.6005, 584.5046
799.0826, 583.8109
799.5648, 583.5234
800.0469, 583.9003
800.5290, 584.8627
801.0111, 585.5018
801.4932, 585.7885
801.9753, 586.1346
802.4575, 586.8912
802.9396, 587.8265
803.4217, 588.5053
803.9038, 588.9601
804.3859, 589.4939
804.8680, 590.6317
805.3502, 591.5482
805.8323, 591.6359
806.3144, 590.8428
806.7965, 590.3724
807.2786, 590.1279
807.7607, 590.4286
808.2429, 591.7877
808.7250, 593.8611
809.2071, 594.1169
809.6892, 592.6376
810.1713, 591.5792
810.6534, 592.9844
811.1356, 595.1559
811.6177, 596.3382
812.0998, 596.5364
812.5819, 596.2209
813.0640, 595.0410
813.5461, 593.9252
814.0283, 593.3383
814.5104, 593.2384
814.9925, 592.8927
815.4746, 591.9594
815.9567, 591.9809
816.4388, 594.4160
816.9210, 598.1737
817.4031, 599.4672
817.8852, 598.5627
818.3673, 597.4564
818.8494, 596.8252
819.3315, 596.8849
819.8137, 598.3293
820.2958, 600.8756
820.7779, 602.4973
821.2600, 602.0300
821.7421, 601.4066
822.2242, 601.0883
822.7064, 601.0660
823.1885, 601.3508
823.6706, 601.9581
824.1527, 602.7274
824.6348, 603.7945
825.1169, 604.8508
825.5991, 605.4647
826.0812, 605.6281
826.5633, 605.3284
827.0454, 603.8995
827.5275, 602.6625
828.0096, 602.1367
828.4918, 602.3638
828.9739, 603.3341
829.4560, 605.7433
829.9381, 607.3063
830.4202, 606.9754
830.9023, 605.5648
831.3845, 605.5963
831.8666, 606.9010
832.3487, 608.2274
832.8308, 608.9336
833.3129, 609.4221
833.7950, 610.3531
834.2772, 611.3766
834.7593, 611.5876
835.2414, 609.4975
835.7235, 608.0217
836.2056, 607.7626
836.6877, 608.5436
837.1699, 610.2620
837.6520, 613.1553
838.1341, 615.0020
838.6162, 614.9393
839.0983, 613.8746
839.5804, 612.8222
840.0626, 612.0284
840.5447, 612.1770
841.0268, 614.7076
841.5089, 616.8485
841.9910, 616.8834
842.4731, 615.7322
842.9553, 615.1280
843.4374, 615.1461
843.9195, 615.8474
844.4016, 617.6548
844.8837, 619.6135
845.3658, 619.6984
845.8480, 618.2574
846.3301, 617.4273
846.8122, 617.9266
847.2943, 618.7205
847.7764, 618.7656
848.2585, 618.5056
848.7407, 618.5612
849.2228, 619.3654
849.7049, 620.0654
850.1870, 620.2048
850.6691, 620.4564
851.1512, 621.8018
851.6334, 624.4861
852.1155, 626.0603
852.5976, 626.0947
853.0797, 625.6195
853.5618, 625.6603
854.0439, 626.0604
854.5261, 626.4949
855.0082, 626.8113
855.4903, 627.5156
855.9724, 629.6786
856.4545, 631.7906
856.9366, 632.3363
857.4188, 630.3939
857.9009, 630.1688
858.3830, 632.3824
858.8651, 634.5364
859.3472, 633.7806
859.8293, 631.0588
860.3115, 630.3544
860.7936, 631.9183
861.2757, 633.7637
861.7578, 634.2286
862.2399, 634.5186
862.7220, 635.8469
863.2042, 638.5173
863.6863, 640.3714
864.1684, 640.9628
864.6505, 641.0883
865.1326, 640.8849
865.6147, 640.4337
866.0969, 641.1296
866.5790, 642.9705
867.0611, 644.5276
867.5432, 644.5187
868.0253, 643.9459
868.5074, 643.9059
868.9896, 644.3808
869.4717, 645.0353
869.9538, 646.5169
870.4359, 647.2811
870.9180, 646.1074
871.4001, 643.7631
871.8823, 644.4223
872.3644, 648.5925
872.8465, 651.9626
873.3286, 652.7153
873.8107, 651.9148
874.2928, 650.9326
874.7750, 649.9755
875.2571, 649.6390
875.7392, 650.7368
876.2213, 651.8734
876.7034, 652.3835
877.1855, 652.5513
877.6677, 653.0049
878.1498, 653.8004
878.6319, 654.6639
879.1140, 655.4193
879.5961, 656.4634
880.0782, 659.0139
880.5604, 662.4641
881.0425, 664.6913
881.5246, 664.7442
882.0067, 664.5613
882.4888, 665.1788
882.9709, 666.4479
883.4531, 668.2595
883.9352, 671.4674
884.4173, 673.5784
884.8994, 674.2431
885.3815, 674.3768
885.8636, 674.7133
886.3458, 675.2801
886.8279, 676.2896
887.3100, 677.7539
887.7921, 679.5944
888.2742, 682.0458
888.7563, 684.6563
889.2385, 687.0263
889.7206, 689.1383
890.2027, 690.8014
890.6848, 691.5416
891.1669, 692.4091
891.6490, 693.9954
892.1312, 696.2322
892.6133, 698.0969
893.0954, 699.5750
893.5775, 700.9108
894.0596, 702.3166
894.5417, 703.6193
895.0239, 704.2481
895.5060, 704.5016
895.9881, 705.7794
896.4702, 709.7565
896.9523, 713.4391
897.4344, 715.9744
897.9166, 717.6382
898.3987, 719.0489
898.8808, 720.1668
899.3629, 722.0828
899.8450, 725.5230
900.3271, 729.3421
900.8093, 731.5378
901.2914, 733.0009
901.7735, 735.5756
902.2556, 740.9954
902.7377, 746.1913
903.2198, 749.7608
903.7020, 752.9666
904.1841, 757.2222
904.6662, 762.5309
905.1483, 768.8079
905.6304, 776.1852
906.1125, 784.2795
906.5947, 792.7311
907.0768, 801.7030
907.5589, 811.3543
908.0410, 821.6814
908.5231, 832.5986
909.0052, 843.5433
909.4874, 855.3787
909.9695, 868.6396
910.4516, 883.1811
910.9337, 899.8403
911.4158, 918.8004
911.8979, 938.7471
912.3801, 958.4039
912.8622, 978.6190
913.3443, 1000.956
913.8264, 1025.518
914.3085, 1051.125
914.7906, 1076.797
915.2728, 1103.811
915.7549, 1132.514
916.2370, 1163.123
916.7191, 1196.663
917.2012, 1233.287
917.6833, 1271.372
918.1655, 1310.900
918.6476, 1350.908
919.1297, 1389.921
919.6118, 1427.904
920.0939, 1464.903
920.5760, 1502.577
921.0582, 1536.727
921.5403, 1566.582
922.0224, 1591.235
922.5045, 1610.674
922.9866, 1625.879
923.4688, 1633.124
923.9509, 1631.949
924.4330, 1623.281
924.9151, 1608.249
925.3972, 1586.739
925.8793, 1558.183
926.3615, 1522.272
926.8436, 1481.480
927.3257, 1434.209
927.8078, 1384.381
928.2899, 1334.524
928.7720, 1284.850
929.2542, 1236.380
929.7363, 1188.287
930.2184, 1143.854
930.7005, 1104.486
931.1826, 1069.583
931.6647, 1037.915
932.1469, 1009.709
932.6290, 986.0291
933.1111, 968.0557
933.5932, 953.7615
934.0753, 942.5964
934.5574, 934.3301
935.0396, 928.1408
935.5217, 923.9160
936.0038, 922.0275
936.4859, 922.6688
936.9680, 925.2619
937.4501, 929.2145
937.9323, 934.3775
938.4144, 940.2667
938.8965, 946.7389
939.3786, 954.2333
939.8607, 962.2203
940.3428, 971.8254
940.8250, 983.8802
941.3071, 998.4399
941.7892, 1014.825
942.2713, 1033.026
942.7534, 1052.716
943.2355, 1072.621
943.7177, 1094.332
944.1998, 1122.032
944.6819, 1155.413
945.1640, 1191.937
945.6461, 1228.390
946.1282, 1269.251
946.6104, 1317.140
947.0925, 1371.166
947.5746, 1428.775
948.0567, 1489.595
948.5388, 1555.930
949.0209, 1627.814
949.5031, 1706.759
949.9852, 1793.308
950.4673, 1889.418
950.9494, 1997.546
951.4315, 2118.529
951.9136, 2252.947
952.3958, 2399.888
952.8779, 2561.856
953.3600, 2740.632
953.8421, 2935.556
954.3242, 3153.270
954.8063, 3392.497
955.2885, 3652.527
955.7706, 3931.201
956.2527, 4230.247
956.7348, 4554.462
957.2169, 4903.875
957.6990, 5266.128
958.1811, 5647.878
958.6632, 6031.519
959.1453, 6421.844
959.6274, 6812.981
960.1096, 7172.963
960.5917, 7503.054
961.0738, 7814.795
961.5559, 8114.068
962.0380, 8401.145
962.5201, 8675.421
963.0023, 8940.921
963.4844, 9210.052
963.9665, 9488.607
964.4486, 9769.577
964.9307, 10065.18
965.4128, 10351.04
965.8950, 10604.83
966.3771, 10823.65
966.8592, 10992.69
967.3413, 11110.64
967.8234, 11153.67
968.3055, 11113.12
968.7877, 10979.27
969.2698, 10734.22
969.7519, 10371.12
970.2340, 9952.906
970.7161, 9473.701
971.1982, 8957.159
971.6804, 8396.410
972.1625, 7810.516
972.6446, 7231.996
973.1267, 6666.026
973.6088, 6125.474
974.0909, 5613.286
974.5731, 5133.490
975.0552, 4682.927
975.5373, 4266.623
976.0194, 3880.765
976.5015, 3523.128
976.9836, 3203.529
977.4658, 2926.705
977.9479, 2686.568
978.4300, 2486.099
978.9121, 2320.593
979.3942, 2179.168
979.8763, 2061.531
980.3585, 1962.750
980.8406, 1886.802
981.3227, 1825.335
981.8048, 1773.999
982.2869, 1732.504
982.7690, 1698.481
983.2512, 1672.229
983.7333, 1650.452
984.2154, 1631.592
984.6975, 1616.613
985.1796, 1607.876
985.6617, 1603.596
986.1439, 1600.310
986.6260, 1596.294
987.1081, 1594.206
987.5902, 1595.617
988.0723, 1597.782
988.5544, 1597.451
989.0366, 1594.762
989.5187, 1593.026
990.0008, 1592.682
990.4829, 1590.199
990.9650, 1580.931
991.4471, 1569.377
991.9293, 1560.074
992.4114, 1553.426
992.8935, 1543.583
993.3756, 1529.898
993.8577, 1513.677
994.3398, 1495.134
994.8220, 1474.761
995.3041, 1454.188
995.7862, 1433.192
996.2683, 1410.147
996.7504, 1384.058
997.2325, 1356.938
997.7147, 1329.107
998.1968, 1301.336
998.6789, 1274.115
999.1610, 1247.482
999.6431, 1220.933
1000.125, 1194.633
1000.607, 1169.700
1001.089, 1148.215
1001.572, 1128.749
1002.054, 1108.972
1002.536, 1089.033
1003.018, 1070.055
1003.500, 1052.279
1003.982, 1036.469
1004.464, 1023.315
1004.946, 1012.125
1005.429, 1000.850
1005.911, 989.4963
1006.393, 980.7108
1006.875, 975.7881
1007.357, 971.9913
1007.839, 965.7024
1008.321, 959.3063
1008.803, 955.7145
1009.285, 956.6275
1009.768, 957.9760
1010.250, 959.8023
1010.732, 961.9041
1011.214, 964.1883
1011.696, 966.6192
1012.178, 968.8047
1012.660, 970.8310
1013.142, 973.3392
1013.625, 977.4915
1014.107, 981.3614
1014.589, 984.2089
1015.071, 985.9877
1015.553, 986.2141
1016.035, 984.5082
1016.517, 983.6235
1016.999, 984.1815
1017.481, 985.2127
1017.964, 986.0666
1018.446, 986.3947
1018.928, 985.5230
1019.410, 983.1262
1019.892, 980.8722
1020.374, 978.4738
1020.856, 977.1388
1021.338, 977.7859
1021.820, 979.9845
1022.303, 981.0740
1022.785, 981.2687
1023.267, 982.1223
1023.749, 985.4425
1024.231, 988.5012
1024.713, 989.3736
1025.195, 988.7805
1025.677, 987.9141
1026.160, 986.5827
1026.642, 985.8549
1027.124, 985.9043
1027.606, 986.2152
1028.088, 986.3738
1028.570, 986.3776
1029.052, 986.1941
1029.534, 985.8337
1030.016, 985.4092
1030.499, 984.7807
1030.981, 984.3514
1031.463, 984.6282
1031.945, 985.0711
1032.427, 983.2976
1032.909, 979.4897
1033.391, 977.0592
1033.873, 977.7806
1034.356, 978.2985
1034.838, 975.2169
1035.320, 970.3691
1035.802, 965.8068
1036.284, 961.3775
1036.766, 958.8580
1037.248, 959.1005
1037.730, 958.9273
1038.213, 955.2376
1038.695, 949.7590
1039.177, 947.0620
1039.659, 946.6768
1040.141, 946.6307
1040.623, 945.6632
1041.105, 945.3658
1041.587, 947.0609
1042.069, 949.1781
1042.552, 948.7938
1043.034, 945.8483
1043.516, 944.9560
1043.998, 946.8914
1044.480, 949.2953
1044.962, 950.5090
1045.444, 950.8603
1045.926, 950.3416
1046.408, 948.9024
1046.891, 948.4705
1047.373, 949.8279
1047.855, 950.3291
1048.337, 948.7875
1048.819, 946.0941
1049.301, 944.0035
1049.783, 942.3116
1050.265, 940.3870
1050.748, 937.5170
1051.230, 935.4405
1051.712, 935.2435
1052.194, 935.7207
1052.676, 936.0144
1053.158, 936.1028
1053.640, 936.4701
1054.122, 937.1014
1054.604, 937.5045
1055.087, 936.5804
1055.569, 935.9396
1056.051, 936.9354
1056.533, 939.3120
1057.015, 942.2326
1057.497, 946.0842
1057.979, 949.2596
1058.461, 951.5399
1058.943, 953.1175
1059.426, 954.7066
1059.908, 955.6397
1060.390, 953.9114
1060.872, 949.0583
1061.354, 945.7343
1061.836, 947.4578
1062.318, 949.2314
1062.800, 948.8917
1063.283, 947.0717
1063.765, 946.3030
1064.247, 946.5131
1064.729, 947.1885
1065.211, 948.1832
1065.693, 949.4556
1066.175, 951.4315
1066.657, 953.3943
1067.140, 954.3809
1067.622, 953.8839
1068.104, 954.3615
1068.586, 955.8215
1069.068, 958.2260
1069.550, 961.6957
1070.032, 966.0382
1070.514, 970.9465
1070.996, 976.4616
1071.479, 982.7964
1071.961, 990.4110
1072.443, 998.4072
1072.925, 1006.775
1073.407, 1015.387
1073.889, 1023.855
1074.371, 1032.415
1074.853, 1043.048
1075.335, 1055.887
1075.818, 1068.905
1076.300, 1080.074
1076.782, 1091.631
1077.264, 1104.535
1077.746, 1118.924
1078.228, 1135.172
1078.710, 1153.381
1079.192, 1170.886
1079.675, 1186.300
1080.157, 1201.955
1080.639, 1221.279
1081.121, 1242.124
1081.603, 1261.509
1082.085, 1278.603
1082.567, 1296.546
1083.049, 1315.525
1083.531, 1334.795
1084.014, 1354.671
1084.496, 1374.324
1084.978, 1392.483
1085.460, 1408.891
1085.942, 1423.227
1086.424, 1436.078
1086.906, 1445.909
1087.388, 1451.825
1087.870, 1455.568
1088.353, 1459.961
1088.835, 1464.366
1089.317, 1461.197
1089.799, 1450.381
1090.281, 1438.040
1090.763, 1428.393
1091.245, 1418.334
1091.727, 1406.267
1092.209, 1392.108
1092.692, 1375.509
1093.174, 1355.764
1093.656, 1338.703
1094.138, 1325.813
1094.620, 1313.752
1095.102, 1298.901
1095.584, 1282.859
1096.066, 1267.298
1096.549, 1252.601
1097.031, 1237.928
1097.513, 1223.077
1097.995, 1208.944
1098.477, 1195.776
1098.959, 1183.706
1099.441, 1174.115
1099.923, 1165.751
1100.406, 1155.129
1100.888, 1139.966
1101.370, 1125.695
1101.852, 1114.026
1102.334, 1103.516
1102.816, 1093.629
1103.298, 1084.287
1103.780, 1073.946
1104.262, 1062.791
1104.745, 1051.920
1105.227, 1041.727
1105.709, 1032.043
1106.191, 1022.661
1106.673, 1013.666
1107.155, 1005.238
1107.637, 997.3765
1108.119, 990.2242
1108.601, 983.7894
1109.084, 977.1414
1109.566, 969.5275
1110.048, 961.2460
1110.530, 951.6491
1111.012, 941.3932
1111.494, 933.4117
1111.976, 928.4055
1112.458, 923.9727
1112.941, 919.8472
1113.423, 915.5931
1113.905, 910.2919
1114.387, 904.5319
1114.869, 899.3149
1115.351, 894.7172
1115.833, 890.3103
1116.315, 886.3416
1116.797, 881.9293
1117.280, 876.3934
1117.762, 870.5732
1118.244, 866.7106
1118.726, 864.2659
1119.208, 861.5497
1119.690, 858.1623
1120.172, 854.3007
1120.654, 849.4960
1121.136, 844.7482
1121.619, 840.4567
1122.101, 836.6956
1122.583, 834.7480
1123.065, 834.3582
1123.547, 833.2623
1124.029, 829.2452
1124.511, 825.6605
1124.993, 825.6585
1125.476, 826.6738
1125.958, 825.1832
1126.440, 820.4570
1126.922, 817.3209
1127.404, 815.8959
1127.886, 814.9177
1128.368, 813.6409
1128.850, 812.2198
1129.333, 810.8037
1129.815, 809.3732
1130.297, 807.7313
1130.779, 805.6118
1131.261, 804.1584
1131.743, 803.6433
1132.225, 803.2115
1132.707, 801.9130
1133.189, 800.1599
1133.672, 798.4083
1134.154, 796.7174
1134.636, 795.1978
1135.118, 794.1790
1135.600, 792.7286
1136.082, 790.3495
1136.564, 788.0009
1137.046, 787.4326
1137.528, 788.0352
1138.011, 788.6445
1138.493, 789.1441
1138.975, 788.7172
1139.457, 785.9880
1139.939, 783.5232
1140.421, 782.4402
1140.903, 782.1403
1141.385, 780.4606
1141.868, 777.8805
1142.350, 776.2900
1142.832, 776.4048
1143.314, 777.1241
1143.796, 778.4926
1144.278, 779.7341
1144.760, 780.4717
1145.242, 780.6696
1145.724, 779.4968
1146.207, 777.1305
1146.689, 775.1933
1147.171, 774.7384
1147.653, 774.5226
1148.135, 773.9486
1148.617, 773.0643
1149.099, 771.8517
1149.581, 770.1898
1150.063, 769.2343
1150.546, 769.0108
1151.028, 768.8085
1151.510, 768.8322
1151.992, 768.0475
1152.474, 764.3132
1152.956, 759.4610
1153.438, 757.4866
1153.920, 759.3958
1154.403, 760.9818
1154.885, 762.0521
1155.367, 762.4662
1155.849, 761.7913
1156.331, 760.5881
1156.813, 759.3187
1157.295, 758.0529
1157.777, 757.0008
1158.260, 756.1664
1158.742, 755.6140
1159.224, 755.5267
1159.706, 755.1270
1160.188, 752.8577
1160.670, 750.0402
1161.152, 748.8590
1161.634, 749.3761
1162.116, 749.3533
1162.599, 747.8690
1163.081, 746.9792
1163.563, 747.4619
1164.045, 748.1380
1164.527, 746.6036
1165.009, 744.0413
1165.491, 743.0429
1165.973, 744.2178
1166.455, 744.3220
1166.938, 741.6642
1167.420, 739.0551
1167.902, 737.1122
1168.384, 736.1101
1168.866, 737.5875
1169.348, 740.4435
1169.830, 741.4831
1170.312, 739.2968
1170.795, 737.9046
1171.277, 740.0408
1171.759, 741.6131
1172.241, 740.2997
1172.723, 737.1648
1173.205, 736.1498
1173.687, 736.8639
1174.169, 737.8610
1174.651, 738.9666
1175.134, 739.5886
1175.616, 738.8412
1176.098, 738.1861
1176.580, 738.7908
1177.062, 740.3829
1177.544, 740.5815
1178.026, 739.6380
1178.508, 738.9636
1178.990, 739.3047
1179.473, 739.9547
1179.955, 741.0571
1180.437, 741.9553
1180.919, 741.8681
1181.401, 740.8141
1181.883, 740.7051
1182.365, 741.4255
1182.847, 741.7067
1183.330, 739.7925
1183.812, 738.4057
1184.294, 739.8869
1184.776, 742.1638
1185.258, 742.4417
1185.740, 740.6566
1186.222, 740.4115
1186.704, 741.8130
1187.187, 742.8939
1187.669, 741.7379
1188.151, 740.4581
1188.633, 740.2529
1189.115, 740.8863
1189.597, 742.1947
1190.079, 744.2480
1190.561, 744.8793
1191.043, 743.8486
1191.526, 742.8287
1192.008, 743.1207
1192.490, 743.8829
1192.972, 744.8447
1193.454, 745.7406
1193.936, 745.8022
1194.418, 744.9291
1194.900, 744.8679
1195.382, 745.9580
1195.865, 746.8611
1196.347, 746.2260
1196.829, 745.1581
1197.311, 744.3749
1197.793, 743.9163
1198.275, 743.8271
1198.757, 744.1620
1199.239, 744.2753
1199.722, 744.0020
1200.204, 743.8010
1200.686, 744.3461
1201.168, 744.9393
1201.650, 744.9035
1202.132, 744.3204
1202.614, 743.8240
1203.096, 743.3893
1203.578, 743.2704
1204.061, 743.4186
1204.543, 744.3449
1205.025, 747.5800
1205.507, 751.0555
1205.989, 752.4805
1206.471, 751.9445
1206.953, 752.0587
1207.435, 752.8819
1207.917, 753.0939
1208.400, 752.1071
1208.882, 750.8560
1209.364, 749.9096
1209.846, 749.3959
1210.328, 749.8847
1210.810, 751.3220
1211.292, 751.0369
1211.774, 748.9370
1212.257, 746.9933
1212.739, 745.8621
1213.221, 745.3781
1213.703, 745.1856
1214.185, 745.6974
1214.667, 747.8071
1215.149, 751.6102
1215.631, 753.7560
1216.114, 754.2165
1216.596, 753.7822
1217.078, 752.5478
1217.560, 750.9929
1218.042, 748.5466
1218.524, 746.6123
1219.006, 747.1261
1219.488, 750.3051
1219.970, 752.5468
1220.453, 753.8358
1220.935, 753.7602
1221.417, 750.6976
1221.899, 748.3109
1222.381, 750.7813
1222.863, 754.8079
1223.345, 756.2571
1223.827, 754.7686
1224.309, 753.6609
1224.792, 752.9327
1225.274, 752.5378
1225.756, 752.6759
1226.238, 752.8563
1226.720, 752.5693
1227.202, 752.2527
1227.684, 752.5094
1228.166, 753.4531
1228.649, 754.2298
1229.131, 754.8084
1229.613, 754.1672
1230.095, 749.9646
1230.577, 746.2898
1231.059, 745.8428
1231.541, 747.2466
1232.023, 748.9413
1232.505, 750.9549
1232.988, 752.3010
1233.470, 752.9792
1233.952, 753.1302
1234.434, 752.2201
1234.916, 751.5105
1235.398, 752.6051
1235.880, 753.6227
1236.362, 751.7781
1236.844, 747.2103
1237.327, 746.2796
1237.809, 748.7986
1238.291, 751.3678
1238.773, 751.9744
1239.255, 752.1823
1239.737, 753.0028
1240.219, 753.4835
1240.701, 752.0360
1241.184, 749.0558
1241.666, 748.1805
1242.148, 749.3166
1242.630, 750.6017
1243.112, 751.2745
1243.594, 751.5367
1244.076, 750.9318
1244.558, 750.5628
1245.041, 752.2348
1245.523, 755.2781
1246.005, 756.5132
1246.487, 755.9612
1246.969, 754.9479
1247.451, 752.7952
1247.933, 752.2028
1248.415, 754.4708
1248.897, 757.2101
1249.380, 757.5984
1249.862, 756.2489
1250.344, 754.5170
1250.826, 752.7102
1251.308, 752.0126
1251.790, 754.2903
1252.272, 755.6653
1252.754, 755.3241
1253.236, 754.4535
1253.719, 754.5208
1254.201, 754.9906
1254.683, 754.5804
1255.165, 753.4702
1255.647, 752.8132
1256.129, 753.5768
1256.611, 753.6151
1257.093, 752.4879
1257.576, 751.2684
1258.058, 751.3879
1258.540, 751.9779
1259.022, 751.5027
1259.504, 750.2511
1259.986, 749.9392
1260.468, 751.2520
1260.950, 752.0730
1261.432, 752.0978
1261.915, 751.9927
1262.397, 752.1497
1262.879, 752.7209
1263.361, 754.5081
1263.843, 756.8647
1264.325, 757.3788
1264.807, 755.5217
1265.289, 753.7556
1265.771, 752.2588
1266.254, 751.3559
1266.736, 751.6915
1267.218, 752.4125
1267.700, 753.3244
1268.182, 753.9160
1268.664, 752.7081
1269.146, 749.4849
1269.628, 747.9043
1270.111, 748.3330
1270.593, 749.4092
1271.075, 751.4151
1271.557, 752.4348
1272.039, 749.9418
1272.521, 746.3496
1273.003, 745.6210
1273.485, 747.5155
1273.968, 749.0535
1274.450, 749.9766
1274.932, 750.3067
1275.414, 749.5217
1275.896, 748.8008
1276.378, 748.6425
1276.860, 748.6725
1277.342, 748.2247
1277.824, 747.5160
1278.307, 747.4363
1278.789, 748.0059
1279.271, 748.8030
1279.753, 749.5715
1280.235, 750.8419
1280.717, 753.2892
1281.199, 755.1584
1281.681, 753.6074
1282.163, 750.2610
1282.646, 748.3559
1283.128, 747.9653
1283.610, 748.1900
1284.092, 749.2242
1284.574, 750.0107
1285.056, 750.3409
1285.538, 750.7276
1286.020, 752.2169
1286.503, 753.7020
1286.985, 753.2374
1287.467, 751.4625
1287.949, 750.9656
1288.431, 752.3412
1288.913, 753.4628
1289.395, 754.2024
1289.877, 754.2889
1290.359, 752.5756
1290.842, 750.9800
1291.324, 751.5064
1291.806, 753.2996
1292.288, 754.3243
1292.770, 754.5479
1293.252, 754.3720
1293.734, 753.8318
1294.216, 753.2006
1294.698, 752.4803
1295.181, 751.9136
1295.663, 751.8392
1296.145, 751.8802
1296.627, 751.3275
1297.109, 750.3780
1297.591, 750.9570
1298.073, 752.8737
1298.555, 754.3127
1299.038, 753.7698
1299.520, 753.4924
1300.002, 754.1368
1300.484, 755.2554
1300.966, 755.8721
1301.448, 756.2203
1301.930, 757.7755
1302.412, 760.1871
1302.895, 762.0465
1303.377, 762.1694
1303.859, 762.8519
1304.341, 764.1140
1304.823, 765.1497
1305.305, 764.2299
##END=



