##NAMES=Whitlockite
##RRUFFID=R070675
##IDEAL CHEMISTRY=Ca_9_Mg(PO_4_)_6_(PO_3_OH)
##LOCALITY=Palermo mine, North Groton, New Hampshire, USA
##OWNER=RRUFF
##SOURCE=Rock Currier
##DESCRIPTION=Colorless blocky modified rhombic crystals
##STATUS=The identification of this mineral is confirmed by single-crystal X-ray diffraction and chemical analysis.
##URL=rruff.info/R070675
##MEASURED CHEMISTRY=(Ca_8.70_Na_0.27_Sr_0.02_Mn_0.01_)_Σ=9_(Mg_0.73_Fe^3+^_0.19_Al_0.08_)_Σ=1_(P_1.00_O_4_)_6_(P_1.00_O_3_((OH)_0.58_F_0.42_)_Σ=1_); OH estimated by charge balance
124.3446, 2407.125
124.8267, 2421.912
125.3088, 2435.783
125.7909, 2448.721
126.2731, 2461.078
126.7552, 2471.881
127.2373, 2482.814
127.7194, 2493.456
128.2015, 2504.156
128.6837, 2517.172
129.1658, 2537.289
129.6479, 2571.793
130.1300, 2598.804
130.6121, 2608.031
131.0942, 2614.360
131.5764, 2632.894
132.0585, 2670.173
132.5406, 2718.796
133.0227, 2752.079
133.5048, 2756.683
133.9869, 2759.238
134.4691, 2758.760
134.9512, 2758.501
135.4333, 2765.144
135.9154, 2784.848
136.3975, 2815.778
136.8796, 2826.370
137.3618, 2793.659
137.8439, 2765.585
138.3260, 2771.295
138.8081, 2807.942
139.2902, 2846.917
139.7723, 2866.129
140.2545, 2864.136
140.7366, 2853.914
141.2187, 2824.569
141.7008, 2792.455
142.1829, 2778.556
142.6650, 2788.955
143.1472, 2802.952
143.6293, 2795.093
144.1114, 2770.368
144.5935, 2752.372
145.0756, 2754.009
145.5577, 2770.474
146.0399, 2786.609
146.5220, 2802.508
147.0041, 2814.019
147.4862, 2820.228
147.9683, 2820.950
148.4504, 2814.308
148.9326, 2794.698
149.4147, 2760.118
149.8968, 2732.482
150.3789, 2724.763
150.8610, 2719.818
151.3431, 2708.984
151.8252, 2690.258
152.3074, 2666.577
152.7895, 2639.854
153.2716, 2600.699
153.7537, 2580.269
154.2358, 2594.281
154.7179, 2618.724
155.2001, 2633.369
155.6822, 2629.585
156.1643, 2612.324
156.6464, 2597.106
157.1285, 2594.608
157.6106, 2580.943
158.0928, 2544.056
158.5749, 2496.548
159.0570, 2455.929
159.5391, 2433.195
160.0212, 2426.301
160.5033, 2413.753
160.9855, 2395.208
161.4676, 2372.426
161.9497, 2345.880
162.4318, 2315.502
162.9139, 2279.972
163.3960, 2236.518
163.8782, 2185.003
164.3603, 2145.409
164.8424, 2123.104
165.3245, 2106.874
165.8066, 2091.346
166.2887, 2075.738
166.7709, 2059.366
167.2530, 2041.460
167.7351, 2021.940
168.2172, 2001.985
168.6993, 1981.238
169.1814, 1960.282
169.6636, 1937.589
170.1457, 1911.141
170.6278, 1890.149
171.1099, 1891.180
171.5920, 1909.682
172.0741, 1920.941
172.5563, 1911.125
173.0384, 1886.352
173.5205, 1864.383
174.0026, 1849.126
174.4847, 1835.493
174.9668, 1818.808
175.4490, 1799.249
175.9311, 1779.307
176.4132, 1759.872
176.8953, 1740.883
177.3774, 1724.480
177.8595, 1713.897
178.3417, 1703.721
178.8238, 1690.792
179.3059, 1674.753
179.7880, 1656.877
180.2701, 1639.154
180.7522, 1622.365
181.2344, 1601.940
181.7165, 1570.207
182.1986, 1539.142
182.6807, 1518.176
183.1628, 1509.586
183.6449, 1505.352
184.1271, 1490.054
184.6092, 1451.186
185.0913, 1426.899
185.5734, 1428.455
186.0555, 1439.748
186.5376, 1447.897
187.0198, 1447.646
187.5019, 1441.454
187.9840, 1435.642
188.4661, 1430.960
188.9482, 1425.729
189.4303, 1421.440
189.9125, 1416.060
190.3946, 1405.754
190.8767, 1388.049
191.3588, 1366.137
191.8409, 1354.847
192.3230, 1366.556
192.8052, 1375.162
193.2873, 1375.070
193.7694, 1368.847
194.2515, 1361.265
194.7336, 1355.091
195.2157, 1350.091
195.6979, 1343.597
196.1800, 1336.719
196.6621, 1327.717
197.1442, 1311.717
197.6263, 1292.053
198.1084, 1279.515
198.5906, 1283.733
199.0727, 1302.677
199.5548, 1308.706
200.0369, 1293.274
200.5190, 1273.667
201.0011, 1258.620
201.4833, 1248.383
201.9654, 1240.389
202.4475, 1232.628
202.9296, 1225.594
203.4117, 1221.295
203.8938, 1221.733
204.3760, 1223.737
204.8581, 1224.523
205.3402, 1223.890
205.8223, 1223.145
206.3044, 1223.415
206.7865, 1224.449
207.2687, 1225.351
207.7508, 1230.085
208.2329, 1232.982
208.7150, 1222.529
209.1971, 1193.754
209.6792, 1168.437
210.1614, 1168.368
210.6435, 1185.394
211.1256, 1202.796
211.6077, 1214.706
212.0898, 1222.835
212.5719, 1231.536
213.0541, 1242.797
213.5362, 1250.659
214.0183, 1250.195
214.5004, 1243.510
214.9825, 1235.281
215.4646, 1225.293
215.9468, 1215.095
216.4289, 1212.731
216.9110, 1225.866
217.3931, 1236.223
217.8752, 1230.279
218.3573, 1212.935
218.8395, 1198.364
219.3216, 1199.743
219.8037, 1215.313
220.2858, 1221.764
220.7679, 1207.140
221.2500, 1195.973
221.7322, 1204.701
222.2143, 1227.805
222.6964, 1247.288
223.1785, 1245.411
223.6606, 1220.895
224.1427, 1203.958
224.6249, 1198.491
225.1070, 1198.127
225.5891, 1202.518
226.0712, 1210.453
226.5533, 1219.338
227.0354, 1228.963
227.5176, 1241.056
227.9997, 1241.236
228.4818, 1210.419
228.9639, 1183.438
229.4460, 1177.842
229.9281, 1191.206
230.4103, 1208.222
230.8924, 1212.629
231.3745, 1200.737
231.8566, 1192.835
232.3387, 1187.997
232.8208, 1187.466
233.3030, 1195.240
233.7851, 1209.450
234.2672, 1222.732
234.7493, 1226.306
235.2314, 1216.348
235.7135, 1210.470
236.1957, 1211.599
236.6778, 1213.674
237.1599, 1214.057
237.6420, 1212.263
238.1241, 1208.726
238.6062, 1203.460
239.0884, 1194.594
239.5705, 1190.538
240.0526, 1195.055
240.5347, 1200.522
241.0168, 1202.249
241.4989, 1199.891
241.9811, 1196.132
242.4632, 1193.833
242.9453, 1192.744
243.4274, 1194.527
243.9095, 1202.639
244.3916, 1210.620
244.8738, 1212.963
245.3559, 1209.658
245.8380, 1206.286
246.3201, 1209.566
246.8022, 1222.306
247.2843, 1233.287
247.7665, 1245.008
248.2486, 1253.547
248.7307, 1254.472
249.2128, 1247.940
249.6949, 1239.246
250.1770, 1234.146
250.6592, 1233.440
251.1413, 1234.775
251.6234, 1239.636
252.1055, 1245.398
252.5876, 1248.874
253.0697, 1250.080
253.5519, 1253.670
254.0340, 1266.192
254.5161, 1292.232
254.9982, 1306.607
255.4803, 1297.675
255.9624, 1284.982
256.4445, 1284.582
256.9267, 1298.275
257.4088, 1316.348
257.8909, 1329.668
258.3730, 1337.433
258.8551, 1340.672
259.3372, 1332.944
259.8194, 1324.824
260.3015, 1325.527
260.7836, 1335.901
261.2657, 1350.114
261.7478, 1363.917
262.2299, 1377.501
262.7121, 1384.336
263.1942, 1377.146
263.6763, 1367.848
264.1584, 1365.357
264.6405, 1370.645
265.1227, 1381.628
265.6048, 1399.196
266.0869, 1423.799
266.5690, 1436.960
267.0511, 1428.705
267.5332, 1415.358
268.0154, 1408.600
268.4975, 1409.531
268.9796, 1416.758
269.4617, 1431.426
269.9438, 1453.373
270.4259, 1469.080
270.9081, 1471.826
271.3902, 1472.688
271.8723, 1480.730
272.3544, 1496.238
272.8365, 1513.408
273.3186, 1528.286
273.8008, 1540.966
274.2829, 1553.956
274.7650, 1564.538
275.2471, 1577.485
275.7292, 1598.909
276.2113, 1628.012
276.6935, 1655.412
277.1756, 1674.886
277.6577, 1686.520
278.1398, 1695.782
278.6219, 1698.281
279.1040, 1701.986
279.5862, 1712.171
280.0683, 1728.605
280.5504, 1749.487
281.0325, 1776.457
281.5146, 1806.392
281.9967, 1827.698
282.4789, 1834.489
282.9610, 1838.332
283.4431, 1846.725
283.9252, 1858.755
284.4073, 1869.622
284.8894, 1878.328
285.3716, 1882.871
285.8537, 1879.156
286.3358, 1862.277
286.8179, 1843.739
287.3000, 1832.528
287.7821, 1825.931
288.2643, 1812.495
288.7464, 1784.643
289.2285, 1748.234
289.7106, 1717.873
290.1927, 1693.144
290.6748, 1674.249
291.1570, 1666.962
291.6391, 1666.604
292.1212, 1658.210
292.6033, 1634.360
293.0854, 1601.420
293.5675, 1573.137
294.0497, 1552.177
294.5318, 1527.661
295.0139, 1489.826
295.4960, 1445.250
295.9781, 1409.415
296.4602, 1388.256
296.9424, 1375.882
297.4245, 1363.609
297.9066, 1351.784
298.3887, 1338.705
298.8708, 1316.713
299.3529, 1294.403
299.8351, 1293.372
300.3172, 1325.008
300.7993, 1358.295
301.2814, 1342.661
301.7635, 1275.225
302.2456, 1211.377
302.7278, 1162.165
303.2099, 1124.268
303.6920, 1095.279
304.1741, 1075.222
304.6562, 1059.494
305.1383, 1041.234
305.6205, 1019.751
306.1026, 1009.108
306.5847, 1024.598
307.0668, 1044.622
307.5489, 1045.456
308.0310, 1024.121
308.5132, 995.6884
308.9953, 973.4476
309.4774, 957.6854
309.9595, 939.1577
310.4416, 910.6643
310.9237, 884.1224
311.4059, 872.9481
311.8880, 876.1611
312.3701, 876.2966
312.8522, 857.7787
313.3343, 822.2335
313.8164, 799.1833
314.2986, 795.1651
314.7807, 797.2377
315.2628, 802.4003
315.7449, 808.5570
316.2270, 808.1695
316.7091, 794.9304
317.1913, 771.6707
317.6734, 755.4293
318.1555, 748.2542
318.6376, 744.5149
319.1197, 745.3463
319.6018, 748.1236
320.0840, 746.3287
320.5661, 736.2122
321.0482, 720.5280
321.5303, 708.5712
322.0124, 702.4161
322.4945, 696.4417
322.9767, 687.3296
323.4588, 678.1921
323.9409, 674.7022
324.4230, 679.3327
324.9051, 687.7466
325.3872, 691.3363
325.8694, 688.4492
326.3515, 683.4584
326.8336, 673.7272
327.3157, 663.4363
327.7978, 655.7708
328.2799, 651.7718
328.7621, 652.9416
329.2442, 662.7660
329.7263, 689.8015
330.2084, 702.6509
330.6905, 690.2658
331.1726, 672.3388
331.6548, 662.9349
332.1369, 663.4772
332.6190, 666.6991
333.1011, 664.9896
333.5832, 656.9069
334.0653, 652.0806
334.5475, 650.5460
335.0296, 651.5087
335.5117, 656.3616
335.9938, 663.6999
336.4759, 670.0332
336.9580, 672.6461
337.4402, 671.5849
337.9223, 669.5922
338.4044, 667.3666
338.8865, 663.5254
339.3686, 656.7202
339.8507, 648.1371
340.3329, 629.0981
340.8150, 641.5611
341.2971, 648.7340
341.7792, 650.9011
342.2613, 633.0693
342.7434, 641.0619
343.2256, 638.7053
343.7077, 635.9243
344.1898, 647.5516
344.6719, 632.6285
345.1540, 644.0273
345.6361, 644.9189
346.1183, 650.6194
346.6004, 645.9068
347.0825, 644.4103
347.5646, 653.3304
348.0467, 656.4828
348.5288, 650.5715
349.0110, 656.5776
349.4931, 641.2909
349.9752, 644.6890
350.4573, 656.1487
350.9394, 650.7608
351.4215, 656.9573
351.9037, 658.7420
352.3858, 640.4760
352.8679, 657.0799
353.3500, 658.6038
353.8321, 644.6436
354.3142, 660.0527
354.7964, 648.2273
355.2785, 646.1229
355.7606, 651.3342
356.2427, 653.4794
356.7248, 659.3813
357.2069, 669.6452
357.6891, 680.2751
358.1712, 677.4039
358.6533, 652.7913
359.1354, 633.3039
359.6175, 631.2005
360.0996, 639.0963
360.5818, 650.3710
361.0639, 664.3650
361.5460, 677.4335
362.0281, 682.5863
362.5102, 678.4918
362.9923, 679.0283
363.4745, 694.6990
363.9566, 713.0380
364.4387, 720.6413
364.9208, 714.9849
365.4029, 707.8692
365.8850, 708.2087
366.3672, 714.8397
366.8493, 721.8593
367.3314, 729.2050
367.8135, 734.7064
368.2956, 733.8892
368.7777, 727.3823
369.2599, 725.6948
369.7420, 736.1976
370.2241, 753.3829
370.7062, 767.4185
371.1883, 776.6342
371.6704, 786.5547
372.1526, 805.7057
372.6347, 831.1025
373.1168, 845.2484
373.5989, 832.5015
374.0810, 817.7103
374.5631, 824.0174
375.0453, 849.6104
375.5274, 875.2371
376.0095, 890.1862
376.4916, 895.9954
376.9737, 900.7257
377.4558, 899.3436
377.9380, 902.6584
378.4201, 917.0415
378.9022, 938.6335
379.3843, 959.9703
379.8664, 978.0513
380.3485, 994.6575
380.8307, 1012.740
381.3128, 1028.822
381.7949, 1053.288
382.2770, 1092.531
382.7591, 1137.400
383.2412, 1179.417
383.7234, 1216.909
384.2055, 1252.038
384.6876, 1286.421
385.1697, 1318.475
385.6518, 1357.531
386.1339, 1404.075
386.6161, 1455.798
387.0982, 1514.780
387.5803, 1578.494
388.0624, 1639.223
388.5445, 1690.193
389.0266, 1733.655
389.5088, 1792.851
389.9909, 1885.297
390.4730, 1974.346
390.9551, 2048.340
391.4372, 2117.007
391.9193, 2193.083
392.4015, 2282.174
392.8836, 2379.278
393.3657, 2474.172
393.8478, 2561.526
394.3299, 2658.422
394.8120, 2771.265
395.2942, 2890.850
395.7763, 3012.520
396.2584, 3135.335
396.7405, 3258.302
397.2226, 3382.003
397.7047, 3505.982
398.1869, 3627.265
398.6690, 3741.701
399.1511, 3858.486
399.6332, 3982.234
400.1153, 4111.642
400.5974, 4243.899
401.0796, 4383.648
401.5617, 4523.481
402.0438, 4648.792
402.5259, 4760.098
403.0080, 4855.091
403.4901, 4930.576
403.9723, 4988.766
404.4544, 5030.948
404.9365, 5057.772
405.4186, 5067.869
405.9007, 5056.632
406.3828, 5026.234
406.8650, 4988.340
407.3471, 4947.840
407.8292, 4900.390
408.3113, 4839.297
408.7934, 4766.638
409.2755, 4678.990
409.7577, 4564.852
410.2398, 4439.518
410.7219, 4325.397
411.2040, 4226.674
411.6861, 4131.674
412.1682, 4028.012
412.6504, 3914.225
413.1325, 3808.870
413.6146, 3711.218
414.0967, 3621.881
414.5788, 3543.957
415.0609, 3474.773
415.5431, 3406.064
416.0252, 3332.109
416.5073, 3255.699
416.9894, 3188.783
417.4715, 3138.233
417.9536, 3088.877
418.4358, 3034.630
418.9179, 2983.118
419.4000, 2942.835
419.8821, 2916.169
420.3642, 2898.154
420.8463, 2882.610
421.3285, 2872.675
421.8106, 2856.569
422.2927, 2825.460
422.7748, 2796.318
423.2569, 2776.263
423.7390, 2765.663
424.2212, 2761.867
424.7033, 2762.542
425.1854, 2768.182
425.6675, 2784.415
426.1496, 2822.096
426.6317, 2851.333
427.1139, 2856.682
427.5960, 2849.594
428.0781, 2843.195
428.5602, 2840.590
429.0423, 2843.839
429.5244, 2858.713
430.0066, 2885.563
430.4887, 2907.957
430.9708, 2918.758
431.4529, 2925.466
431.9350, 2940.439
432.4171, 2964.824
432.8993, 2977.187
433.3814, 2954.151
433.8635, 2915.580
434.3456, 2902.255
434.8277, 2922.434
435.3098, 2943.257
435.7920, 2935.235
436.2741, 2900.107
436.7562, 2872.145
437.2383, 2855.286
437.7204, 2843.298
438.2025, 2838.907
438.6847, 2837.079
439.1668, 2822.131
439.6489, 2784.601
440.1310, 2734.113
440.6131, 2696.822
441.0952, 2680.696
441.5774, 2666.653
442.0595, 2655.716
442.5416, 2645.273
443.0237, 2629.733
443.5058, 2609.811
443.9879, 2595.899
444.4701, 2602.603
444.9522, 2635.509
445.4343, 2648.863
445.9164, 2628.854
446.3985, 2602.797
446.8806, 2576.357
447.3628, 2550.352
447.8449, 2524.006
448.3270, 2496.040
448.8091, 2469.282
449.2912, 2452.260
449.7733, 2450.315
450.2555, 2443.293
450.7376, 2419.246
451.2197, 2392.348
451.7018, 2375.641
452.1839, 2371.156
452.6660, 2363.301
453.1482, 2335.794
453.6303, 2293.168
454.1124, 2257.308
454.5945, 2232.204
455.0766, 2210.164
455.5587, 2185.425
456.0409, 2158.663
456.5230, 2132.018
457.0051, 2106.867
457.4872, 2081.061
457.9693, 2051.507
458.4514, 2018.910
458.9336, 1986.093
459.4156, 1951.345
459.8978, 1921.043
460.3799, 1916.473
460.8620, 1959.216
461.3441, 1982.619
461.8262, 1971.763
462.3083, 1937.812
462.7905, 1886.284
463.2726, 1820.644
463.7547, 1752.747
464.2368, 1693.273
464.7189, 1641.527
465.2010, 1605.558
465.6832, 1600.398
466.1653, 1594.222
466.6474, 1575.930
467.1295, 1550.002
467.6116, 1524.223
468.0938, 1502.608
468.5759, 1483.993
469.0580, 1466.753
469.5401, 1452.413
470.0222, 1434.929
470.5043, 1408.417
470.9865, 1382.047
471.4686, 1361.587
471.9507, 1347.462
472.4328, 1336.105
472.9149, 1324.979
473.3970, 1314.554
473.8792, 1307.819
474.3613, 1307.089
474.8434, 1303.405
475.3255, 1285.442
475.8076, 1260.940
476.2897, 1246.430
476.7719, 1250.796
477.2540, 1257.472
477.7361, 1253.363
478.2182, 1242.150
478.7003, 1235.756
479.1824, 1239.081
479.6646, 1245.844
480.1467, 1245.898
480.6288, 1236.214
481.1109, 1229.442
481.5930, 1228.193
482.0751, 1228.509
482.5573, 1229.774
483.0394, 1230.440
483.5215, 1226.254
484.0036, 1213.696
484.4857, 1194.049
484.9678, 1175.851
485.4500, 1160.686
485.9321, 1144.910
486.4142, 1128.727
486.8963, 1111.437
487.3784, 1093.582
487.8605, 1074.973
488.3427, 1052.193
488.8248, 1018.047
489.3069, 971.7317
489.7890, 934.3160
490.2711, 912.6017
490.7532, 892.2849
491.2354, 862.1116
491.7175, 827.0588
492.1996, 798.5912
492.6817, 784.5781
493.1638, 775.7045
493.6459, 760.9703
494.1281, 740.7231
494.6102, 720.0896
495.0923, 700.4745
495.5744, 682.0859
496.0565, 664.5956
496.5386, 646.5945
497.0208, 634.1400
497.5029, 636.8389
497.9850, 640.7607
498.4671, 628.4696
498.9492, 600.5522
499.4313, 573.3530
499.9135, 559.9850
500.3956, 559.5684
500.8777, 559.8491
501.3598, 561.9111
501.8419, 563.3647
502.3240, 565.2413
502.8062, 565.6523
503.2883, 561.6732
503.7704, 552.7300
504.2525, 542.3760
504.7346, 535.2380
505.2167, 531.8437
505.6989, 528.1144
506.1810, 523.3072
506.6631, 518.9366
507.1452, 515.8798
507.6273, 513.7683
508.1094, 512.0069
508.5916, 511.6158
509.0737, 509.8831
509.5558, 500.7159
510.0379, 484.5491
510.5200, 473.7775
511.0021, 474.8203
511.4843, 480.7488
511.9664, 480.4674
512.4485, 473.0445
512.9306, 467.6043
513.4127, 467.6916
513.8948, 470.0343
514.3770, 472.2428
514.8591, 473.8050
515.3412, 473.6650
515.8233, 470.6935
516.3054, 465.6260
516.7875, 463.2736
517.2697, 464.3088
517.7518, 467.3912
518.2339, 476.9286
518.7160, 485.9072
519.1981, 484.1115
519.6802, 471.2581
520.1624, 460.6253
520.6445, 470.3849
521.1266, 501.3471
521.6087, 519.0618
522.0908, 516.8053
522.5729, 510.6290
523.0551, 504.8688
523.5372, 500.9268
524.0193, 501.4131
524.5014, 508.0174
524.9835, 517.0792
525.4656, 525.5868
525.9478, 533.5406
526.4299, 541.0576
526.9120, 548.0125
527.3941, 554.8787
527.8762, 563.3634
528.3583, 573.7540
528.8405, 578.6458
529.3226, 565.1597
529.8047, 556.7501
530.2868, 575.4941
530.7689, 612.5294
531.2510, 642.0149
531.7332, 650.4520
532.2153, 646.0195
532.6974, 648.3569
533.1795, 658.2195
533.6616, 674.1188
534.1437, 701.6139
534.6259, 729.5826
535.1080, 748.3090
535.5901, 760.3949
536.0722, 777.4752
536.5543, 811.7150
537.0364, 854.7924
537.5186, 877.1147
538.0007, 872.0454
538.4828, 871.6660
538.9649, 889.0840
539.4470, 916.9318
539.9291, 947.6659
540.4113, 981.2376
540.8934, 1014.446
541.3755, 1044.665
541.8576, 1073.826
542.3397, 1105.070
542.8218, 1138.686
543.3040, 1172.371
543.7861, 1204.987
544.2682, 1236.216
544.7503, 1263.057
545.2324, 1283.243
545.7145, 1302.578
546.1967, 1322.653
546.6788, 1342.014
547.1609, 1360.728
547.6430, 1377.917
548.1251, 1389.385
548.6072, 1388.265
549.0894, 1373.906
549.5715, 1367.785
550.0536, 1378.297
550.5357, 1384.984
551.0178, 1378.713
551.4999, 1365.217
551.9821, 1351.919
552.4642, 1340.808
552.9463, 1330.796
553.4284, 1321.088
553.9105, 1311.642
554.3926, 1302.774
554.8748, 1294.858
555.3569, 1285.996
555.8390, 1271.788
556.3211, 1252.847
556.8032, 1245.939
557.2853, 1262.071
557.7675, 1279.019
558.2496, 1287.756
558.7317, 1289.909
559.2138, 1287.826
559.6959, 1282.497
560.1780, 1275.820
560.6602, 1271.441
561.1423, 1271.639
561.6244, 1265.150
562.1065, 1249.735
562.5886, 1229.454
563.0707, 1201.341
563.5529, 1170.006
564.0350, 1143.103
564.5171, 1124.384
564.9992, 1110.259
565.4813, 1098.326
565.9634, 1088.135
566.4456, 1071.378
566.9277, 1043.378
567.4098, 1013.079
567.8919, 991.3120
568.3740, 977.0331
568.8561, 959.3340
569.3383, 933.7891
569.8204, 906.8549
570.3025, 881.4937
570.7846, 857.9843
571.2667, 836.2105
571.7488, 816.1122
572.2310, 798.9470
572.7131, 788.2258
573.1952, 788.8146
573.6773, 782.4827
574.1594, 762.4733
574.6415, 742.6609
575.1237, 728.1549
575.6058, 718.5458
576.0879, 712.0019
576.5700, 707.9396
577.0521, 705.7152
577.5342, 705.9122
578.0164, 708.5682
578.4985, 705.4435
578.9806, 690.7383
579.4627, 675.5288
579.9448, 673.3996
580.4269, 682.6842
580.9091, 689.6595
581.3912, 686.9405
581.8733, 685.4168
582.3554, 694.6753
582.8375, 711.1741
583.3196, 724.8573
583.8018, 731.3257
584.2839, 736.0489
584.7660, 749.2300
585.2481, 775.7369
585.7302, 796.6667
586.2123, 812.0614
586.6945, 822.2864
587.1766, 821.2836
587.6587, 816.0829
588.1408, 820.8768
588.6229, 843.9926
589.1050, 873.8158
589.5872, 893.3302
590.0693, 903.0381
590.5514, 914.6121
591.0335, 932.7297
591.5156, 949.2753
591.9977, 952.5131
592.4799, 944.8013
592.9620, 944.6809
593.4441, 965.8489
593.9262, 984.1636
594.4083, 980.4136
594.8904, 964.3387
595.3726, 956.3804
595.8547, 963.6834
596.3368, 977.1498
596.8189, 982.6359
597.3010, 976.4477
597.7831, 979.9613
598.2653, 1005.856
598.7474, 1028.377
599.2295, 1035.262
599.7116, 1034.706
600.1937, 1040.035
600.6758, 1056.498
601.1580, 1076.598
601.6401, 1094.039
602.1222, 1108.616
602.6043, 1118.442
603.0864, 1122.173
603.5685, 1125.237
604.0507, 1133.035
604.5328, 1144.685
605.0149, 1151.755
605.4970, 1149.162
605.9791, 1148.009
606.4612, 1154.778
606.9434, 1163.965
607.4255, 1168.360
607.9076, 1166.457
608.3897, 1161.588
608.8718, 1156.215
609.3539, 1150.470
609.8361, 1151.037
610.3182, 1159.359
610.8003, 1171.858
611.2824, 1191.745
611.7645, 1212.548
612.2466, 1227.111
612.7288, 1233.930
613.2109, 1238.208
613.6930, 1237.551
614.1751, 1238.482
614.6572, 1256.552
615.1393, 1292.605
615.6215, 1327.794
616.1036, 1350.636
616.5857, 1363.925
617.0678, 1378.273
617.5499, 1391.857
618.0320, 1409.010
618.5142, 1429.807
618.9963, 1454.355
619.4784, 1486.248
619.9605, 1522.636
620.4426, 1554.343
620.9247, 1574.185
621.4069, 1586.050
621.8890, 1598.120
622.3711, 1608.902
622.8532, 1629.149
623.3353, 1666.667
623.8174, 1710.007
624.2996, 1750.354
624.7817, 1787.505
625.2638, 1815.911
625.7459, 1824.927
626.2280, 1832.611
626.7101, 1855.521
627.1923, 1888.547
627.6744, 1917.834
628.1565, 1937.727
628.6386, 1951.999
629.1207, 1965.828
629.6028, 1978.608
630.0850, 1993.307
630.5671, 2025.236
631.0492, 2042.589
631.5313, 2030.690
632.0134, 1998.814
632.4955, 1962.564
632.9777, 1928.032
633.4598, 1883.828
633.9419, 1815.704
634.4240, 1728.889
634.9061, 1639.371
635.3882, 1548.765
635.8704, 1460.117
636.3525, 1377.006
636.8346, 1297.947
637.3167, 1212.819
637.7988, 1113.037
638.2809, 1020.007
638.7631, 936.3620
639.2452, 861.4622
639.7273, 794.8204
640.2094, 736.3177
640.6915, 687.6847
641.1736, 652.0079
641.6558, 625.4720
642.1379, 593.4733
642.6200, 551.8349
643.1021, 523.9828
643.5842, 527.1643
644.0663, 537.2280
644.5485, 525.8731
645.0306, 493.8557
645.5127, 468.0416
645.9948, 464.9930
646.4769, 463.0662
646.9590, 438.5246
647.4412, 401.4819
647.9233, 380.8282
648.4054, 387.9580
648.8875, 405.5348
649.3696, 407.2350
649.8517, 389.5282
650.3339, 373.7368
650.8160, 359.0279
651.2981, 347.5684
651.7802, 340.5840
652.2623, 336.8711
652.7444, 334.6745
653.2266, 333.4839
653.7087, 334.1219
654.1908, 339.1252
654.6729, 345.9955
655.1550, 349.4448
655.6371, 348.9083
656.1193, 345.2316
656.6014, 337.7627
657.0835, 328.5546
657.5656, 325.5013
658.0477, 335.8544
658.5298, 342.5596
659.0120, 344.0877
659.4941, 343.1629
659.9762, 340.6421
660.4583, 337.3035
660.9404, 334.6830
661.4225, 333.9548
661.9047, 333.6941
662.3868, 331.6538
662.8689, 327.8348
663.3510, 321.5074
663.8331, 310.3482
664.3152, 301.8072
664.7974, 306.0217
665.2795, 321.9916
665.7616, 328.5764
666.2437, 317.1242
666.7258, 305.7620
667.2079, 302.1249
667.6901, 301.8073
668.1722, 297.2499
668.6543, 288.1444
669.1364, 283.2795
669.6185, 293.1024
670.1006, 314.2119
670.5828, 325.7848
671.0649, 326.2476
671.5470, 322.2492
672.0291, 312.6384
672.5112, 302.0097
672.9933, 295.1697
673.4755, 292.2289
673.9576, 291.6416
674.4397, 293.8255
674.9218, 297.4647
675.4039, 302.6956
675.8860, 308.4381
676.3682, 312.8492
676.8503, 315.1685
677.3324, 314.6526
677.8145, 309.1827
678.2966, 297.5944
678.7787, 290.5492
679.2609, 290.2149
679.7430, 291.3748
680.2251, 291.0834
680.7072, 291.4308
681.1893, 296.6293
681.6714, 308.5640
682.1536, 316.5788
682.6357, 310.6044
683.1178, 299.4645
683.5999, 295.1404
684.0820, 297.6308
684.5641, 300.9950
685.0463, 301.9960
685.5284, 302.0039
686.0105, 302.7647
686.4926, 297.1799
686.9747, 309.2879
687.4568, 376.4254
687.9390, 423.6706
688.4211, 402.6079
688.9032, 343.0642
689.3853, 302.3258
689.8674, 300.6280
690.3495, 311.9047
690.8317, 318.6364
691.3138, 321.2054
691.7959, 319.2603
692.2780, 312.9794
692.7601, 306.6143
693.2422, 303.0428
693.7244, 301.8560
694.2065, 301.4545
694.6886, 300.4665
695.1707, 302.6516
695.6528, 312.1880
696.1349, 321.0149
696.6171, 324.4333
697.0992, 323.0625
697.5813, 318.3444
698.0634, 307.9544
698.5455, 301.3913
699.0276, 316.2018
699.5098, 344.7762
699.9919, 358.6603
700.4740, 351.9568
700.9561, 336.3083
701.4382, 319.0257
701.9203, 301.1861
702.4025, 291.4261
702.8846, 297.0726
703.3667, 301.2426
703.8488, 300.7998
704.3309, 300.0483
704.8130, 302.5407
705.2952, 307.8651
705.7773, 313.5025
706.2594, 319.0081
706.7415, 322.5078
707.2236, 320.0847
707.7057, 312.7307
708.1879, 306.1682
708.6700, 301.4706
709.1521, 298.9672
709.6342, 299.1336
710.1163, 301.9104
710.5984, 305.9306
711.0806, 316.0879
711.5627, 320.9821
712.0448, 314.7983
712.5269, 305.6860
713.0090, 299.9985
713.4911, 298.3195
713.9733, 298.2230
714.4554, 297.5910
714.9375, 298.3768
715.4196, 305.7757
715.9017, 318.6087
716.3839, 327.6851
716.8660, 330.8438
717.3481, 328.5594
717.8302, 319.6872
718.3123, 304.3004
718.7944, 294.6974
719.2766, 292.6976
719.7587, 293.5715
720.2408, 299.5241
720.7229, 305.8989
721.2050, 308.3246
721.6871, 306.7934
722.1693, 304.4103
722.6514, 302.9331
723.1335, 301.9965
723.6156, 300.8720
724.0977, 299.6634
724.5798, 298.8743
725.0620, 298.4429
725.5441, 299.6898
726.0262, 305.1412
726.5083, 314.7908
726.9904, 317.3801
727.4725, 303.9521
727.9547, 295.3250
728.4368, 299.0185
728.9189, 305.8807
729.4010, 308.8126
729.8831, 306.9159
730.3652, 301.5161
730.8474, 288.8986
731.3295, 277.9905
731.8116, 286.7865
732.2937, 310.4873
732.7758, 323.8288
733.2579, 319.6892
733.7401, 309.9092
734.2222, 305.7241
734.7043, 306.9503
735.1864, 308.6356
735.6685, 313.4760
736.1506, 315.0921
736.6328, 308.1701
737.1149, 301.3036
737.5970, 303.4576
738.0791, 312.8987
738.5612, 318.8058
739.0433, 313.4575
739.5255, 304.6848
740.0076, 301.3857
740.4897, 302.0807
740.9718, 301.5581
741.4539, 298.6108
741.9360, 297.1859
742.4182, 301.2078
742.9003, 309.9356
743.3824, 316.6577
743.8645, 319.1451
744.3466, 323.4729
744.8287, 336.7821
745.3109, 346.5955
745.7930, 341.7195
746.2751, 325.4843
746.7572, 311.5151
747.2393, 305.1506
747.7214, 302.3991
748.2036, 301.1810
748.6857, 300.9673
749.1678, 300.7237
749.6499, 300.2971
750.1320, 300.2350
750.6141, 301.0368
751.0963, 302.4026
751.5784, 303.1533
752.0605, 303.2267
752.5426, 302.7879
753.0247, 300.3776
753.5068, 299.0615
753.9890, 301.8459
754.4711, 307.1076
754.9532, 310.2435
755.4353, 308.9224
755.9174, 307.9218
756.3995, 312.3452
756.8817, 316.8658
757.3638, 311.9591
757.8459, 299.6552
758.3280, 292.6752
758.8101, 299.3465
759.2922, 313.4405
759.7744, 322.6764
760.2565, 327.0478
760.7386, 325.0443
761.2207, 311.5030
761.7028, 301.6405
762.1849, 309.2163
762.6671, 326.5554
763.1492, 333.7986
763.6313, 326.8394
764.1134, 318.4132
764.5955, 306.7228
765.0776, 298.6680
765.5598, 304.2736
766.0419, 317.1913
766.5240, 321.0427
767.0061, 308.4994
767.4882, 292.9717
767.9703, 293.0096
768.4525, 305.6719
768.9346, 315.8304
769.4167, 322.8931
769.8988, 324.5894
770.3809, 318.6996
770.8630, 308.0331
771.3452, 297.2076
771.8273, 283.1889
772.3094, 278.3678
772.7915, 293.3738
773.2736, 305.3425
773.7557, 300.4518
774.2379, 289.1019
774.7200, 287.3271
775.2021, 298.3641
775.6842, 307.8036
776.1663, 300.0649
776.6484, 286.5955
777.1306, 288.6092
777.6127, 302.9961
778.0948, 310.2675
778.5769, 302.9130
779.0590, 293.3243
779.5411, 297.9066
780.0233, 317.1241
780.5054, 329.3474
780.9875, 330.9050
781.4696, 331.3932
781.9517, 334.1123
782.4338, 335.9297
782.9160, 332.6045
783.3981, 324.9898
783.8802, 320.9239
784.3623, 326.3864
784.8444, 332.7034
785.3265, 334.3711
785.8087, 333.2020
786.2908, 332.1101
786.7729, 331.5156
787.2550, 329.6059
787.7371, 324.3627
788.2192, 317.9899
788.7014, 317.7461
789.1835, 324.4067
789.6656, 329.8407
790.1477, 333.6433
790.6298, 333.6681
791.1119, 324.6801
791.5941, 310.2543
792.0762, 306.9397
792.5583, 327.8867
793.0404, 338.7657
793.5225, 324.9713
794.0046, 307.8919
794.4868, 300.4669
794.9689, 302.5355
795.4510, 312.4576
795.9331, 331.0490
796.4152, 345.5869
796.8973, 336.8134
797.3795, 314.8591
797.8616, 305.7726
798.3437, 311.0305
798.8258, 321.7860
799.3079, 334.8214
799.7900, 346.5334
800.2722, 349.7724
800.7543, 342.3716
801.2364, 336.6837
801.7185, 334.0247
802.2006, 331.3324
802.6827, 326.9308
803.1649, 322.4274
803.6470, 319.5157
804.1291, 318.3569
804.6112, 318.4562
805.0933, 319.4783
805.5754, 321.8278
806.0576, 328.4552
806.5397, 335.7321
807.0218, 335.8656
807.5039, 328.0484
807.9860, 320.3845
808.4681, 320.2143
808.9503, 325.5920
809.4324, 331.3298
809.9145, 337.6240
810.3966, 340.3211
810.8787, 337.4054
811.3608, 333.5320
811.8430, 332.8958
812.3251, 334.9154
812.8072, 335.2346
813.2893, 331.4673
813.7714, 329.4873
814.2535, 328.6587
814.7357, 330.7461
815.2178, 342.0947
815.6999, 356.5645
816.1820, 358.9052
816.6641, 340.9225
817.1462, 322.5449
817.6284, 320.7422
818.1105, 328.5848
818.5926, 336.6943
819.0747, 343.6446
819.5568, 347.5119
820.0389, 347.3047
820.5211, 345.1115
821.0032, 344.1136
821.4853, 344.3716
821.9674, 345.1808
822.4495, 347.8024
822.9316, 347.5039
823.4138, 339.0870
823.8959, 329.7200
824.3780, 329.3362
824.8601, 338.0123
825.3422, 346.3659
825.8243, 357.6717
826.3065, 363.3586
826.7886, 353.3608
827.2707, 340.3869
827.7528, 341.0224
828.2349, 354.0174
828.7170, 361.9515
829.1992, 350.7600
829.6813, 335.3842
830.1633, 338.4208
830.6454, 354.0396
831.1276, 363.4703
831.6097, 363.8097
832.0918, 359.4188
832.5739, 352.2413
833.0560, 344.9102
833.5381, 345.5590
834.0203, 357.5127
834.5024, 366.0709
834.9845, 369.7375
835.4666, 371.4787
835.9487, 371.7986
836.4308, 371.4674
836.9130, 371.0696
837.3951, 370.0853
837.8772, 372.0882
838.3593, 381.9584
838.8414, 390.9307
839.3235, 392.6377
839.8057, 390.4429
840.2878, 389.5886
840.7699, 391.2411
841.2520, 393.0645
841.7341, 392.0448
842.2162, 390.9271
842.6984, 396.4543
843.1805, 406.9798
843.6626, 413.0679
844.1447, 412.3680
844.6268, 411.7375
845.1089, 417.7264
845.5911, 427.8673
846.0732, 430.4210
846.5553, 421.9091
847.0374, 414.8490
847.5195, 405.6367
848.0016, 403.8984
848.4838, 422.7472
848.9659, 450.7960
849.4480, 465.5282
849.9301, 461.9065
850.4122, 455.4306
850.8943, 445.7914
851.3765, 439.0418
851.8586, 441.1505
852.3407, 448.4713
852.8228, 454.9420
853.3049, 458.7834
853.7870, 461.6215
854.2692, 464.9236
854.7513, 468.1278
855.2334, 469.1333
855.7155, 468.7946
856.1976, 472.3436
856.6797, 481.2452
857.1619, 489.2921
857.6440, 490.4086
858.1261, 486.1306
858.6082, 484.7029
859.0903, 486.5866
859.5724, 490.1679
860.0546, 498.1738
860.5367, 503.7933
861.0188, 499.5515
861.5009, 490.0591
861.9830, 486.9823
862.4651, 494.4430
862.9473, 498.8906
863.4294, 492.0629
863.9115, 487.3787
864.3936, 495.4106
864.8757, 510.0623
865.3578, 522.4910
865.8400, 530.1068
866.3221, 531.5751
866.8042, 521.0027
867.2863, 507.1341
867.7684, 503.5652
868.2505, 506.8717
868.7327, 505.0832
869.2148, 495.7456
869.6969, 488.2786
870.1790, 491.5013
870.6611, 501.9142
871.1432, 506.1975
871.6254, 502.9321
872.1075, 505.8973
872.5896, 520.1344
873.0717, 532.7825
873.5538, 534.8909
874.0359, 529.7285
874.5181, 525.9947
875.0002, 523.2752
875.4823, 522.9816
875.9644, 527.0516
876.4465, 531.3643
876.9286, 534.3782
877.4108, 536.6113
877.8929, 539.1960
878.3750, 542.1998
878.8571, 543.4934
879.3392, 536.6409
879.8214, 533.0621
880.3035, 545.8318
880.7856, 566.4150
881.2677, 580.9880
881.7498, 587.8188
882.2319, 593.6057
882.7141, 603.6187
883.1962, 612.8596
883.6783, 607.1351
884.1604, 590.5771
884.6425, 592.9048
885.1246, 618.3124
885.6068, 644.7101
886.0889, 660.1652
886.5710, 670.1745
887.0531, 685.4548
887.5352, 707.7902
888.0173, 724.8506
888.4995, 731.2322
888.9816, 741.7469
889.4637, 766.3059
889.9458, 793.1127
890.4279, 809.0512
890.9100, 815.0920
891.3922, 824.9859
891.8743, 841.6429
892.3564, 861.2203
892.8385, 885.7596
893.3206, 910.1235
893.8027, 928.0200
894.2849, 941.9520
894.7670, 961.0648
895.2491, 990.9194
895.7312, 1016.213
896.2133, 1018.462
896.6954, 1011.280
897.1776, 1016.167
897.6597, 1031.023
898.1418, 1043.508
898.6239, 1049.280
899.1060, 1052.523
899.5881, 1056.972
900.0703, 1063.248
900.5524, 1075.081
901.0345, 1092.704
901.5166, 1111.823
901.9987, 1134.041
902.4808, 1146.883
902.9630, 1136.484
903.4451, 1110.514
903.9272, 1101.068
904.4093, 1116.130
904.8914, 1130.977
905.3735, 1137.575
905.8557, 1152.885
906.3378, 1200.621
906.8199, 1253.393
907.3020, 1265.819
907.7841, 1229.382
908.2662, 1206.516
908.7484, 1215.381
909.2305, 1237.164
909.7126, 1269.471
910.1947, 1305.392
910.6768, 1337.459
911.1589, 1365.460
911.6411, 1393.083
912.1232, 1419.801
912.6053, 1452.269
913.0874, 1500.141
913.5695, 1556.883
914.0516, 1610.959
914.5338, 1662.406
915.0159, 1718.597
915.4980, 1783.008
915.9801, 1849.838
916.4622, 1910.120
916.9443, 1965.388
917.4265, 2028.300
917.9086, 2099.252
918.3907, 2161.940
918.8728, 2211.246
919.3549, 2253.952
919.8370, 2297.672
920.3192, 2340.709
920.8013, 2370.467
921.2834, 2385.348
921.7655, 2391.015
922.2476, 2386.725
922.7297, 2374.848
923.2119, 2358.601
923.6940, 2334.882
924.1761, 2297.425
924.6582, 2244.260
925.1403, 2185.305
925.6224, 2124.229
926.1046, 2054.951
926.5867, 1965.719
927.0688, 1873.232
927.5509, 1795.362
928.0330, 1732.773
928.5151, 1674.784
928.9973, 1618.240
929.4794, 1562.027
929.9615, 1500.905
930.4436, 1442.151
930.9257, 1392.850
931.4078, 1354.350
931.8900, 1329.360
932.3721, 1318.963
932.8542, 1313.469
933.3363, 1298.844
933.8184, 1281.611
934.3005, 1283.511
934.7827, 1300.871
935.2648, 1306.231
935.7469, 1292.013
936.2290, 1279.311
936.7111, 1287.215
937.1932, 1311.076
937.6754, 1336.137
938.1575, 1362.978
938.6396, 1384.464
939.1217, 1398.107
939.6038, 1410.855
940.0859, 1423.565
940.5681, 1440.831
941.0502, 1471.683
941.5323, 1518.425
942.0144, 1567.273
942.4965, 1618.939
942.9786, 1671.543
943.4608, 1720.281
943.9429, 1773.970
944.4250, 1839.324
944.9071, 1915.983
945.3892, 2001.196
945.8713, 2096.373
946.3535, 2197.686
946.8356, 2292.815
947.3177, 2405.276
947.7998, 2551.688
948.2819, 2726.555
948.7640, 2916.601
949.2462, 3119.471
949.7283, 3350.118
950.2104, 3622.734
950.6925, 3922.867
951.1746, 4235.557
951.6567, 4568.233
952.1389, 4924.406
952.6210, 5313.679
953.1031, 5755.683
953.5852, 6263.576
954.0673, 6823.807
954.5494, 7418.933
955.0316, 8050.973
955.5137, 8738.229
955.9958, 9475.120
956.4779, 10232.41
956.9600, 10999.38
957.4421, 11771.44
957.9243, 12545.94
958.4064, 13319.57
958.8885, 14083.18
959.3706, 14835.45
959.8527, 15558.37
960.3348, 16257.00
960.8170, 16886.57
961.2991, 17412.72
961.7812, 17853.08
962.2633, 18242.95
962.7454, 18586.08
963.2275, 18867.47
963.7097, 19092.09
964.1918, 19243.88
964.6739, 19318.92
965.1560, 19318.23
965.6381, 19236.37
966.1202, 19074.47
966.6024, 18863.97
967.0845, 18651.88
967.5666, 18321.75
968.0487, 17835.65
968.5308, 17259.66
969.0129, 16608.45
969.4951, 15902.81
969.9772, 15158.75
970.4593, 14382.42
970.9414, 13578.72
971.4235, 12723.71
971.9056, 11877.32
972.3878, 11067.11
972.8699, 10285.88
973.3520, 9518.438
973.8341, 8766.576
974.3162, 8034.904
974.7983, 7314.599
975.2805, 6642.858
975.7626, 6046.754
976.2447, 5514.255
976.7268, 5035.705
977.2089, 4607.109
977.6910, 4229.955
978.1732, 3902.239
978.6553, 3614.455
979.1374, 3356.274
979.6195, 3133.961
980.1016, 2967.895
980.5837, 2844.393
981.0659, 2721.535
981.5480, 2597.315
982.0301, 2504.802
982.5122, 2461.161
982.9943, 2442.829
983.4764, 2416.510
983.9586, 2385.204
984.4407, 2366.601
984.9228, 2360.518
985.4049, 2364.647
985.8870, 2379.649
986.3691, 2392.314
986.8513, 2391.065
987.3334, 2380.922
987.8155, 2376.913
988.2976, 2379.571
988.7797, 2386.162
989.2618, 2399.765
989.7440, 2407.422
990.2261, 2405.594
990.7082, 2391.898
991.1903, 2359.398
991.6724, 2308.885
992.1545, 2276.621
992.6367, 2280.209
993.1188, 2265.677
993.6009, 2214.383
994.0830, 2159.408
994.5651, 2123.636
995.0472, 2096.343
995.5294, 2052.744
996.0115, 1985.512
996.4936, 1934.479
996.9757, 1919.419
997.4578, 1897.190
997.9399, 1850.005
998.4221, 1796.314
998.9042, 1750.567
999.3863, 1712.100
999.8684, 1673.508
1000.351, 1630.692
1000.833, 1594.344
1001.315, 1570.911
1001.797, 1550.632
1002.279, 1528.630
1002.761, 1505.449
1003.243, 1481.159
1003.725, 1456.313
1004.207, 1435.376
1004.690, 1424.669
1005.172, 1411.926
1005.654, 1383.588
1006.136, 1354.868
1006.618, 1340.602
1007.100, 1339.231
1007.582, 1345.314
1008.064, 1356.868
1008.547, 1369.213
1009.029, 1382.751
1009.511, 1391.781
1009.993, 1384.432
1010.475, 1371.290
1010.957, 1370.127
1011.439, 1381.652
1011.921, 1396.767
1012.403, 1411.100
1012.886, 1425.034
1013.368, 1437.482
1013.850, 1450.595
1014.332, 1471.301
1014.814, 1496.109
1015.296, 1512.591
1015.778, 1518.777
1016.260, 1524.124
1016.742, 1534.965
1017.225, 1551.255
1017.707, 1577.153
1018.189, 1608.217
1018.671, 1626.584
1019.153, 1632.521
1019.635, 1639.305
1020.117, 1651.832
1020.599, 1667.536
1021.082, 1684.808
1021.564, 1702.128
1022.046, 1712.995
1022.528, 1718.032
1023.010, 1728.912
1023.492, 1747.415
1023.974, 1759.862
1024.456, 1758.385
1024.938, 1752.833
1025.421, 1759.051
1025.903, 1775.505
1026.385, 1782.657
1026.867, 1779.799
1027.349, 1773.789
1027.831, 1765.294
1028.313, 1757.247
1028.795, 1752.533
1029.278, 1747.770
1029.760, 1734.591
1030.242, 1711.386
1030.724, 1694.550
1031.206, 1689.570
1031.688, 1669.954
1032.170, 1620.703
1032.652, 1572.850
1033.135, 1557.424
1033.617, 1563.585
1034.099, 1548.828
1034.581, 1503.740
1035.063, 1465.615
1035.545, 1438.930
1036.027, 1410.379
1036.509, 1372.203
1036.991, 1333.785
1037.474, 1304.906
1037.956, 1285.099
1038.438, 1269.141
1038.920, 1261.324
1039.402, 1248.840
1039.884, 1225.508
1040.366, 1205.078
1040.848, 1195.758
1041.330, 1191.387
1041.813, 1185.092
1042.295, 1177.115
1042.777, 1162.007
1043.259, 1132.236
1043.741, 1106.609
1044.223, 1087.286
1044.705, 1071.980
1045.187, 1061.168
1045.670, 1052.933
1046.152, 1043.437
1046.634, 1031.825
1047.116, 1024.560
1047.598, 1029.993
1048.080, 1029.117
1048.562, 1012.068
1049.044, 992.5938
1049.526, 978.0040
1050.009, 968.9698
1050.491, 967.6807
1050.973, 978.1198
1051.455, 979.2382
1051.937, 952.0785
1052.419, 934.9077
1052.901, 952.7130
1053.383, 976.5699
1053.865, 979.1956
1054.348, 965.8068
1054.830, 957.7682
1055.312, 960.9861
1055.794, 962.7906
1056.276, 953.7935
1056.758, 950.1776
1057.240, 963.0051
1057.722, 982.5948
1058.205, 1001.469
1058.687, 1017.599
1059.169, 1026.690
1059.651, 1024.084
1060.133, 1023.052
1060.615, 1025.590
1061.097, 1033.297
1061.579, 1053.383
1062.062, 1075.224
1062.544, 1084.743
1063.026, 1082.290
1063.508, 1080.260
1063.990, 1081.853
1064.472, 1085.581
1064.954, 1092.080
1065.436, 1099.264
1065.918, 1104.558
1066.401, 1110.224
1066.883, 1121.896
1067.365, 1138.870
1067.847, 1149.386
1068.329, 1143.938
1068.811, 1139.367
1069.293, 1144.634
1069.775, 1152.005
1070.257, 1154.094
1070.740, 1154.695
1071.222, 1160.961
1071.704, 1173.877
1072.186, 1187.930
1072.668, 1200.917
1073.150, 1214.507
1073.632, 1232.125
1074.114, 1248.205
1074.597, 1247.659
1075.079, 1245.875
1075.561, 1279.193
1076.043, 1352.795
1076.525, 1407.032
1077.007, 1401.546
1077.489, 1388.611
1077.971, 1390.375
1078.453, 1399.961
1078.936, 1413.062
1079.418, 1428.169
1079.900, 1442.371
1080.382, 1455.055
1080.864, 1474.913
1081.346, 1513.369
1081.828, 1550.550
1082.310, 1575.195
1082.792, 1594.219
1083.275, 1614.075
1083.757, 1633.514
1084.239, 1647.019
1084.721, 1652.988
1085.203, 1661.371
1085.685, 1680.531
1086.167, 1698.269
1086.649, 1707.000
1087.131, 1712.139
1087.614, 1720.604
1088.096, 1729.537
1088.578, 1729.439
1089.060, 1717.113
1089.542, 1709.283
1090.024, 1724.525
1090.506, 1731.490
1090.988, 1706.630
1091.471, 1672.098
1091.953, 1644.012
1092.435, 1625.357
1092.917, 1622.344
1093.399, 1639.395
1093.881, 1642.656
1094.363, 1609.958
1094.845, 1572.500
1095.328, 1540.709
1095.810, 1514.846
1096.292, 1497.021
1096.774, 1484.593
1097.256, 1472.909
1097.738, 1461.815
1098.220, 1445.222
1098.702, 1416.751
1099.184, 1388.139
1099.667, 1363.862
1100.149, 1342.246
1100.631, 1321.111
1101.113, 1301.490
1101.595, 1287.616
1102.077, 1282.077
1102.559, 1271.098
1103.041, 1245.734
1103.523, 1221.449
1104.006, 1205.546
1104.488, 1191.501
1104.970, 1173.527
1105.452, 1153.076
1105.934, 1134.297
1106.416, 1117.625
1106.898, 1102.767
1107.380, 1093.096
1107.863, 1080.650
1108.345, 1061.456
1108.827, 1040.055
1109.309, 1017.290
1109.791, 995.7320
1110.273, 981.5290
1110.755, 977.1392
1111.237, 970.3903
1111.719, 962.9442
1112.202, 949.2757
1112.684, 919.5355
1113.166, 891.4753
1113.648, 881.7592
1114.130, 881.4781
1114.612, 869.1522
1115.094, 840.4357
1115.576, 818.7007
1116.058, 808.9304
1116.541, 798.4590
1117.023, 786.1697
1117.505, 771.3849
1117.987, 750.9689
1118.469, 729.1940
1118.951, 715.1072
1119.433, 709.8032
1119.915, 704.1014
1120.398, 697.6320
1120.880, 691.8055
1121.362, 689.3533
1121.844, 683.0820
1122.326, 666.4918
1122.808, 645.6807
1123.290, 631.1162
1123.772, 622.9560
1124.255, 619.5204
1124.737, 615.1159
1125.219, 622.0704
1125.701, 623.7335
1126.183, 620.3921
1126.665, 597.0505
1127.147, 599.5345
1127.629, 591.6680
1128.111, 583.3784
1128.594, 589.4855
1129.076, 569.0526
1129.558, 574.9428
1130.040, 570.3245
1130.522, 570.5164
1131.004, 560.2939
1131.486, 553.2889
1131.968, 556.6991
1132.450, 554.3429
1132.933, 542.9112
1133.415, 543.4075
1133.897, 526.1883
1134.379, 524.9240
1134.861, 522.7285
1135.343, 517.3619
1135.825, 511.2677
1136.307, 507.1919
1136.790, 504.3656
1137.272, 499.8008
1137.754, 494.2809
1138.236, 493.0162
1138.718, 495.8432
1139.200, 498.0369
1139.682, 497.8914
1140.164, 495.7889
1140.646, 491.5832
1141.129, 486.8372
1141.611, 484.1984
1142.093, 483.2770
1142.575, 483.1330
1143.057, 483.7530
1143.539, 486.7838
1144.021, 491.8008
1144.503, 492.2774
1144.985, 482.1819
1145.468, 470.4290
1145.950, 468.7019
1146.432, 471.3650
1146.914, 471.1255
1147.396, 467.9594
1147.878, 459.8148
1148.360, 449.1013
1148.842, 448.8784
1149.325, 469.2981
1149.807, 486.7233
1150.289, 476.4375
1150.771, 460.6121
1151.253, 461.9078
1151.735, 469.9444
1152.217, 466.4154
1152.699, 453.7241
1153.182, 450.5804
1153.664, 466.2220
1154.146, 475.2083
1154.628, 455.9107
1155.110, 437.9930
1155.592, 443.3009
1156.074, 453.9272
1156.556, 450.1857
1157.038, 436.8908
1157.521, 430.6221
1158.003, 435.6053
1158.485, 437.7405
1158.967, 435.0324
1159.449, 427.7201
1159.931, 409.3952
1160.413, 393.0947
1160.895, 389.1942
1161.377, 392.6346
1161.860, 393.4330
1162.342, 390.9432
1162.824, 391.1718
1163.306, 397.3194
1163.788, 400.4167
1164.270, 399.3381
1164.752, 395.4130
1165.234, 388.2326
1165.717, 379.6162
1166.199, 370.8609
1166.681, 362.6582
1167.163, 362.3915
1167.645, 372.8464
1168.127, 378.5147
1168.609, 377.4087
1169.091, 376.0086
1169.573, 376.8698
1170.056, 377.5020
1170.538, 375.3827
1171.020, 371.3464
1171.502, 366.1909
1171.984, 360.4404
1172.466, 367.1176
1172.948, 385.6165
1173.430, 391.1111
1173.912, 377.5134
1174.395, 361.8672
1174.877, 355.6424
1175.359, 357.0610
1175.841, 365.5993
1176.323, 378.6317
1176.805, 393.2153
1177.287, 405.7316
1177.769, 401.0308
1178.252, 381.2380
1178.734, 367.4579
1179.216, 369.6347
1179.698, 378.9107
1180.180, 393.1928
1180.662, 404.1737
1181.144, 400.2815
1181.626, 388.5502
1182.109, 375.1270
1182.591, 363.8002
1183.073, 361.3363
1183.555, 369.1235
1184.037, 378.7507
1184.519, 390.2585
1185.001, 396.5830
1185.483, 390.4689
1185.965, 381.4940
1186.448, 374.7644
1186.930, 371.3072
1187.412, 373.2543
1187.894, 379.8232
1188.376, 383.6133
1188.858, 382.4745
1189.340, 379.9649
1189.822, 374.5837
1190.304, 370.3854
1190.787, 370.4687
1191.269, 370.9066
1191.751, 367.1209
1192.233, 361.2795
1192.715, 361.4811
1193.197, 371.4469
1193.679, 369.0665
1194.161, 346.3305
1194.644, 336.5434
1195.126, 350.5471
1195.608, 366.9060
1196.090, 372.6743
1196.572, 371.6992
1197.054, 369.4108
1197.536, 366.4395
1198.018, 369.9922
1198.500, 379.4185
1198.983, 377.0429
1199.465, 361.5573
1199.947, 352.9091
1200.429, 359.2652
1200.911, 370.1508
1201.393, 376.4312
1201.875, 378.1266
1202.357, 372.7054
1202.839, 363.8265
1203.322, 358.9446
1203.804, 358.0650
1204.286, 360.7549
1204.768, 365.8893
1205.250, 368.7709
1205.732, 366.3439
1206.214, 362.9693
1206.696, 362.0373
1207.179, 361.7562
1207.661, 360.2410
1208.143, 358.6493
1208.625, 358.6564
1209.107, 359.9732
1209.589, 360.9595
1210.071, 360.9440
1210.553, 363.0935
1211.036, 375.7188
1211.518, 380.2657
1212.000, 361.5236
1212.482, 343.1430
1212.964, 343.0776
1213.446, 351.2891
1213.928, 350.8376
1214.410, 342.3833
1214.892, 341.3306
1215.375, 351.1881
1215.857, 359.3389
1216.339, 365.9815
1216.821, 367.9988
1217.303, 363.1439
1217.785, 356.9335
1218.267, 354.4612
1218.749, 353.8819
1219.231, 349.7000
1219.714, 342.4409
1220.196, 340.5873
1220.678, 343.7250
1221.160, 346.4185
1221.642, 347.7557
1222.124, 350.7454
1222.606, 357.0450
1223.088, 362.5168
1223.571, 362.6398
1224.053, 358.9146
1224.535, 349.2862
1225.017, 340.1178
1225.499, 346.3857
1225.981, 362.0076
1226.463, 368.3321
1226.945, 361.8344
1227.427, 355.3850
1227.910, 354.9055
1228.392, 357.1712
1228.874, 364.5593
1229.356, 369.5348
1229.838, 362.8811
1230.320, 354.2668
1230.802, 356.5157
1231.284, 366.8721
1231.766, 372.7497
1232.249, 372.3343
1232.731, 369.3792
1233.213, 363.5358
1233.695, 355.6525
1234.177, 341.4404
1234.659, 333.9667
1235.141, 344.2960
1235.623, 358.7564
1236.106, 356.5362
1236.588, 340.9695
1237.070, 335.1804
1237.552, 339.4135
1238.034, 341.0787
1238.516, 339.3614
1238.998, 342.1430
1239.480, 351.6684
1239.963, 358.4623
1240.445, 354.6445
1240.927, 348.2258
1241.409, 352.9206
1241.891, 362.0523
1242.373, 361.8366
1242.855, 356.8662
1243.337, 357.7103
1243.819, 363.8329
1244.302, 368.9783
1244.784, 370.9555
1245.266, 368.7490
1245.748, 356.4654
1246.230, 346.9652
1246.712, 351.8320
1247.194, 356.7059
1247.676, 347.3762
1248.158, 333.4650
1248.641, 329.7793
1249.123, 335.6876
1249.605, 338.7433
1250.087, 336.6615
1250.569, 335.5998
1251.051, 334.8541
1251.533, 337.1169
1252.015, 344.9903
1252.498, 351.0009
1252.980, 349.6375
1253.462, 345.0115
1253.944, 344.0543
1254.426, 346.0506
1254.908, 347.4044
1255.390, 347.7315
1255.872, 340.4166
1256.354, 326.8699
1256.837, 325.2090
1257.319, 339.9706
1257.801, 350.4805
1258.283, 339.1253
1258.765, 324.9073
1259.247, 332.0370
1259.729, 346.4297
1260.211, 351.7075
1260.693, 352.0751
1261.176, 355.8119
##END=



