##NAMES=Wickenburgite
##RRUFFID=R060048
##IDEAL CHEMISTRY=Pb^2+^_3_CaAl_2_Si_10_O_27_&#183;4H_2_O
##LOCALITY=Rat Tail Claim, Wickenburg, Maricopa County, Arizona, USA
##OWNER=RRUFF
##SOURCE=University of Arizona Mineral Museum
##DESCRIPTION=Colorless thin hexagonal prisms
##STATUS=The identification of this mineral is confirmed by single-crystal X-ray diffraction and chemical analysis.
##URL=rruff.info/R060048
##MEASURED CHEMISTRY=(Pb_2.95_Zn_0.05_)_Σ=3_Ca_1.00_(Al_1.90_Fe^3+^_0.10_)_Σ=2_Si_10.00_O_27_·4H_2_O
104.7065, 2723.997
105.1886, 2722.610
105.6707, 2723.550
106.1528, 2726.650
106.6349, 2730.665
107.1171, 2733.459
107.5992, 2733.569
108.0813, 2734.454
108.5634, 2735.589
109.0455, 2737.227
109.5276, 2740.070
110.0098, 2744.596
110.4919, 2750.165
110.9740, 2755.052
111.4561, 2758.839
111.9382, 2762.651
112.4203, 2767.713
112.9025, 2773.802
113.3846, 2778.482
113.8667, 2779.952
114.3488, 2779.351
114.8309, 2778.205
115.3130, 2776.604
115.7952, 2774.743
116.2773, 2772.976
116.7594, 2771.579
117.2415, 2769.505
117.7236, 2766.086
118.2057, 2761.877
118.6879, 2757.624
119.1700, 2753.878
119.6521, 2750.406
120.1342, 2745.688
120.6163, 2738.634
121.0984, 2731.188
121.5806, 2723.238
122.0627, 2715.210
122.5448, 2707.861
123.0269, 2701.937
123.5090, 2697.723
123.9911, 2693.139
124.4732, 2687.777
124.9554, 2682.437
125.4375, 2677.369
125.9196, 2672.682
126.4017, 2668.489
126.8838, 2664.970
127.3659, 2662.464
127.8481, 2659.831
128.3302, 2656.934
128.8123, 2653.975
129.2944, 2651.147
129.7765, 2648.511
130.2586, 2646.034
130.7408, 2643.511
131.2229, 2640.836
131.7050, 2638.916
132.1871, 2638.467
132.6692, 2639.183
133.1513, 2639.864
133.6335, 2640.036
134.1156, 2640.237
134.5977, 2641.161
135.0798, 2642.927
135.5619, 2644.595
136.0440, 2644.946
136.5262, 2643.663
137.0083, 2643.206
137.4904, 2645.343
137.9725, 2647.904
138.4546, 2649.321
138.9367, 2649.087
139.4189, 2648.172
139.9010, 2648.491
140.3831, 2650.999
140.8652, 2653.056
141.3473, 2654.109
141.8294, 2654.645
142.3116, 2655.065
142.7937, 2655.563
143.2758, 2656.169
143.7579, 2657.034
144.2400, 2658.169
144.7221, 2659.595
145.2043, 2661.536
145.6864, 2663.778
146.1685, 2665.910
146.6506, 2667.640
147.1327, 2669.038
147.6148, 2671.062
148.0970, 2673.774
148.5791, 2676.892
149.0612, 2680.312
149.5433, 2684.039
150.0254, 2688.179
150.5075, 2692.926
150.9896, 2698.241
151.4718, 2703.238
151.9539, 2706.987
152.4360, 2710.950
152.9181, 2716.871
153.4002, 2725.027
153.8823, 2733.482
154.3645, 2740.450
154.8466, 2746.487
155.3287, 2752.473
155.8108, 2758.121
156.2929, 2763.953
156.7750, 2771.485
157.2572, 2781.806
157.7393, 2791.984
158.2214, 2800.949
158.7035, 2808.528
159.1856, 2814.248
159.6677, 2818.176
160.1499, 2820.239
160.6320, 2819.040
161.1141, 2813.405
161.5962, 2805.147
162.0783, 2794.451
162.5604, 2781.690
163.0426, 2767.721
163.5247, 2753.148
164.0068, 2737.917
164.4889, 2722.843
164.9710, 2707.169
165.4531, 2692.297
165.9353, 2678.837
166.4174, 2666.919
166.8995, 2656.233
167.3816, 2646.505
167.8637, 2637.783
168.3458, 2630.121
168.8280, 2623.757
169.3101, 2618.130
169.7922, 2612.979
170.2743, 2608.203
170.7564, 2603.729
171.2385, 2599.435
171.7207, 2595.493
172.2028, 2591.277
172.6849, 2586.410
173.1670, 2581.348
173.6491, 2576.456
174.1312, 2571.742
174.6133, 2567.561
175.0955, 2564.884
175.5776, 2563.867
176.0597, 2562.731
176.5418, 2560.941
177.0239, 2558.672
177.5060, 2556.127
177.9882, 2553.013
178.4703, 2550.272
178.9524, 2549.249
179.4345, 2550.072
179.9166, 2551.117
180.3987, 2551.225
180.8809, 2550.569
181.3630, 2550.459
181.8451, 2551.156
182.3272, 2552.735
182.8093, 2555.435
183.2914, 2559.320
183.7736, 2563.345
184.2557, 2566.238
184.7378, 2567.749
185.2199, 2570.044
185.7020, 2574.506
186.1841, 2579.362
186.6663, 2583.699
187.1484, 2587.304
187.6305, 2590.351
188.1126, 2593.011
188.5947, 2595.054
189.0768, 2597.231
189.5590, 2599.737
190.0411, 2602.313
190.5232, 2604.854
191.0053, 2607.312
191.4874, 2609.641
191.9695, 2611.667
192.4517, 2612.481
192.9338, 2614.609
193.4159, 2619.202
193.8980, 2624.496
194.3801, 2628.770
194.8622, 2631.431
195.3443, 2633.335
195.8265, 2636.461
196.3086, 2643.222
196.7907, 2648.416
197.2728, 2650.759
197.7549, 2651.919
198.2370, 2653.737
198.7192, 2656.971
199.2013, 2661.230
199.6834, 2665.467
200.1655, 2669.477
200.6476, 2673.745
201.1297, 2678.356
201.6119, 2683.261
202.0940, 2688.417
202.5761, 2693.842
203.0582, 2699.355
203.5403, 2704.483
204.0224, 2709.369
204.5046, 2713.780
204.9867, 2718.299
205.4688, 2722.354
205.9509, 2724.422
206.4330, 2723.801
206.9151, 2720.770
207.3973, 2716.305
207.8794, 2710.500
208.3615, 2703.387
208.8436, 2695.064
209.3257, 2685.518
209.8078, 2674.324
210.2900, 2660.524
210.7721, 2645.618
211.2542, 2631.555
211.7363, 2618.437
212.2184, 2606.058
212.7005, 2594.474
213.1827, 2583.663
213.6648, 2573.079
214.1469, 2561.872
214.6290, 2551.323
215.1111, 2542.802
215.5932, 2536.599
216.0754, 2531.058
216.5575, 2524.025
217.0396, 2515.098
217.5217, 2507.501
218.0038, 2503.257
218.4859, 2499.868
218.9680, 2495.722
219.4502, 2490.508
219.9323, 2485.394
220.4144, 2482.131
220.8965, 2481.496
221.3786, 2480.103
221.8607, 2476.682
222.3429, 2472.967
222.8250, 2470.208
223.3071, 2468.614
223.7892, 2467.304
224.2713, 2464.864
224.7534, 2460.604
225.2356, 2456.842
225.7177, 2454.045
226.1998, 2451.462
226.6819, 2448.497
227.1640, 2445.074
227.6461, 2441.661
228.1283, 2439.020
228.6104, 2437.466
229.0925, 2436.157
229.5746, 2435.993
230.0567, 2435.457
230.5388, 2433.038
231.0210, 2428.571
231.5031, 2423.507
231.9852, 2420.020
232.4673, 2419.334
232.9494, 2417.906
233.4315, 2415.284
233.9137, 2412.275
234.3958, 2409.447
234.8779, 2406.943
235.3600, 2404.578
235.8421, 2402.101
236.3242, 2399.462
236.8064, 2396.802
237.2885, 2393.953
237.7706, 2391.168
238.2527, 2388.710
238.7348, 2386.619
239.2169, 2384.716
239.6991, 2382.815
240.1812, 2380.910
240.6633, 2378.966
241.1454, 2376.871
241.6275, 2374.801
242.1096, 2372.903
242.5918, 2371.219
243.0739, 2369.691
243.5560, 2368.425
244.0381, 2367.487
244.5202, 2365.882
245.0023, 2362.921
245.4845, 2359.546
245.9666, 2356.718
246.4487, 2354.578
246.9308, 2352.817
247.4129, 2351.290
247.8950, 2349.949
248.3772, 2348.417
248.8593, 2346.403
249.3414, 2344.266
249.8235, 2342.420
250.3056, 2340.903
250.7877, 2339.578
251.2699, 2338.544
251.7520, 2337.652
252.2341, 2336.380
252.7162, 2334.262
253.1983, 2331.876
253.6804, 2329.990
254.1626, 2328.665
254.6447, 2327.554
255.1268, 2326.544
255.6089, 2325.581
256.0910, 2324.533
256.5731, 2323.177
257.0552, 2321.865
257.5374, 2321.053
258.0195, 2320.770
258.5016, 2320.863
258.9837, 2321.170
259.4658, 2321.851
259.9479, 2323.312
260.4301, 2326.096
260.9122, 2329.096
261.3943, 2330.435
261.8764, 2329.595
262.3585, 2329.556
262.8406, 2332.873
263.3228, 2337.111
263.8049, 2339.999
264.2870, 2340.735
264.7691, 2340.648
265.2512, 2341.106
265.7333, 2341.903
266.2155, 2344.248
266.6976, 2351.038
267.1797, 2358.194
267.6618, 2362.369
268.1439, 2362.672
268.6260, 2361.677
269.1082, 2362.732
269.5903, 2366.393
270.0724, 2369.229
270.5545, 2369.861
271.0366, 2369.846
271.5187, 2370.247
272.0009, 2371.178
272.4830, 2371.701
272.9651, 2370.535
273.4472, 2367.336
273.9293, 2364.414
274.4114, 2362.688
274.8936, 2360.777
275.3757, 2358.004
275.8578, 2354.348
276.3399, 2350.152
276.8220, 2345.506
277.3041, 2340.277
277.7863, 2335.739
278.2684, 2332.625
278.7505, 2329.659
279.2326, 2326.490
279.7147, 2323.083
280.1968, 2319.461
280.6790, 2315.524
281.1611, 2311.232
281.6432, 2307.624
282.1253, 2305.177
282.6074, 2303.020
283.0895, 2300.765
283.5717, 2298.592
284.0538, 2297.038
284.5359, 2296.709
285.0180, 2297.391
285.5001, 2296.603
285.9822, 2292.580
286.4644, 2288.985
286.9465, 2287.263
287.4286, 2286.409
287.9107, 2284.772
288.3928, 2281.317
288.8749, 2276.531
289.3571, 2272.560
289.8392, 2269.571
290.3213, 2267.304
290.8034, 2266.864
291.2855, 2266.644
291.7676, 2264.557
292.2498, 2259.629
292.7319, 2253.084
293.2140, 2248.141
293.6961, 2246.216
294.1782, 2243.718
294.6603, 2240.035
295.1425, 2235.894
295.6246, 2231.670
296.1067, 2227.562
296.5888, 2223.993
297.0709, 2221.829
297.5530, 2222.301
298.0351, 2221.856
298.5172, 2219.754
298.9994, 2217.380
299.4815, 2215.721
299.9636, 2214.909
300.4457, 2214.353
300.9278, 2213.295
301.4099, 2211.550
301.8921, 2209.904
302.3742, 2208.908
302.8563, 2207.516
303.3384, 2204.707
303.8205, 2200.813
304.3026, 2197.270
304.7848, 2195.571
305.2669, 2196.002
305.7490, 2195.090
306.2311, 2191.657
306.7132, 2188.155
307.1953, 2185.746
307.6775, 2183.929
308.1596, 2181.362
308.6417, 2176.935
309.1238, 2170.966
309.6059, 2166.875
310.0880, 2166.435
310.5702, 2166.033
311.0523, 2165.178
311.5344, 2163.958
312.0165, 2162.625
312.4986, 2161.318
312.9807, 2159.885
313.4629, 2157.775
313.9450, 2154.167
314.4271, 2150.933
314.9092, 2148.063
315.3913, 2145.678
315.8734, 2144.146
316.3556, 2143.524
316.8377, 2143.151
317.3198, 2141.719
317.8019, 2137.875
318.2840, 2135.463
318.7661, 2135.733
319.2483, 2136.344
319.7304, 2135.497
320.2125, 2133.021
320.6946, 2130.107
321.1767, 2128.244
321.6588, 2127.935
322.1410, 2126.578
322.6231, 2123.647
323.1052, 2120.329
323.5873, 2116.897
324.0694, 2113.517
324.5515, 2110.480
325.0337, 2108.019
325.5158, 2106.149
325.9979, 2104.380
326.4800, 2103.371
326.9621, 2101.789
327.4442, 2098.758
327.9264, 2095.014
328.4085, 2091.863
328.8906, 2090.095
329.3727, 2089.310
329.8548, 2087.864
330.3369, 2084.840
330.8191, 2082.328
331.3012, 2080.808
331.7833, 2079.759
332.2654, 2078.798
332.7475, 2077.752
333.2296, 2076.387
333.7118, 2074.131
334.1939, 2070.001
334.6760, 2066.886
335.1581, 2065.008
335.6402, 2063.866
336.1223, 2063.373
336.6045, 2063.364
337.0866, 2063.390
337.5687, 2062.903
338.0508, 2061.759
338.5329, 2060.783
339.0150, 2060.844
339.4972, 2060.262
339.9793, 2057.968
340.4614, 2054.410
340.9435, 2050.741
341.4256, 2047.801
341.9077, 2045.572
342.3898, 2043.793
342.8719, 2042.802
343.3541, 2041.918
343.8362, 2041.228
344.3183, 2040.504
344.8004, 2039.372
345.2825, 2037.621
345.7646, 2035.576
346.2468, 2034.117
346.7289, 2033.643
347.2110, 2033.016
347.6931, 2032.072
348.1752, 2030.939
348.6573, 2029.571
349.1395, 2027.998
349.6216, 2026.565
350.1037, 2025.922
350.5858, 2026.483
351.0679, 2026.170
351.5500, 2024.016
352.0322, 2021.674
352.5143, 2019.974
352.9964, 2018.829
353.4785, 2017.574
353.9606, 2015.558
354.4427, 2012.843
354.9249, 2010.628
355.4070, 2009.641
355.8891, 2008.238
356.3712, 2005.531
356.8533, 2002.137
357.3354, 1999.040
357.8176, 1996.764
358.2997, 1995.036
358.7818, 1993.142
359.2639, 1990.829
359.7460, 1988.972
360.2281, 1988.043
360.7103, 1987.514
361.1924, 1987.135
361.6745, 1986.852
362.1566, 1986.167
362.6387, 1984.088
363.1208, 1980.392
363.6030, 1977.796
364.0851, 1977.894
364.5672, 1978.155
365.0493, 1976.755
365.5314, 1973.894
366.0135, 1971.130
366.4957, 1969.806
366.9778, 1969.565
367.4599, 1968.635
367.9420, 1966.556
368.4241, 1964.582
368.9063, 1963.768
369.3884, 1963.508
369.8705, 1962.674
370.3526, 1960.461
370.8347, 1957.885
371.3168, 1956.796
371.7990, 1957.482
372.2811, 1957.265
372.7632, 1953.986
373.2453, 1949.772
373.7274, 1947.314
374.2095, 1947.190
374.6917, 1947.385
375.1738, 1946.191
375.6559, 1943.953
376.1380, 1942.446
376.6201, 1942.369
377.1022, 1942.645
377.5844, 1942.053
378.0665, 1940.698
378.5486, 1939.413
379.0307, 1938.901
379.5128, 1938.481
379.9949, 1936.784
380.4771, 1933.532
380.9592, 1930.676
381.4413, 1929.920
381.9234, 1930.745
382.4055, 1931.063
382.8876, 1930.353
383.3698, 1929.463
383.8519, 1928.802
384.3340, 1928.401
384.8161, 1928.430
385.2982, 1929.070
385.7803, 1930.033
386.2624, 1930.635
386.7445, 1930.754
387.2267, 1930.992
387.7088, 1931.722
388.1909, 1932.587
388.6730, 1932.998
389.1551, 1932.830
389.6372, 1932.642
390.1194, 1933.119
390.6015, 1934.430
391.0836, 1935.142
391.5657, 1934.541
392.0478, 1933.963
392.5299, 1934.542
393.0121, 1935.938
393.4942, 1936.883
393.9763, 1936.583
394.4584, 1935.191
394.9405, 1933.500
395.4226, 1931.615
395.9048, 1929.337
396.3869, 1926.508
396.8690, 1923.309
397.3511, 1919.717
397.8332, 1915.792
398.3153, 1912.048
398.7975, 1909.444
399.2796, 1908.974
399.7617, 1906.967
400.2438, 1902.465
400.7259, 1897.517
401.2080, 1893.172
401.6902, 1889.450
402.1723, 1885.918
402.6544, 1882.192
403.1365, 1878.335
403.6186, 1875.129
404.1007, 1873.184
404.5829, 1871.215
405.0650, 1869.158
405.5471, 1866.896
406.0292, 1864.202
406.5113, 1860.981
406.9934, 1857.629
407.4756, 1854.543
407.9577, 1851.250
408.4398, 1849.735
408.9219, 1852.805
409.4040, 1855.555
409.8861, 1854.920
410.3683, 1851.165
410.8504, 1846.843
411.3325, 1843.877
411.8146, 1842.119
412.2967, 1840.548
412.7788, 1839.107
413.2610, 1837.964
413.7431, 1837.754
414.2252, 1837.686
414.7073, 1836.477
415.1894, 1833.345
415.6715, 1829.767
416.1537, 1827.941
416.6358, 1827.980
417.1179, 1827.438
417.6000, 1825.096
418.0821, 1822.364
418.5642, 1820.620
419.0464, 1819.885
419.5285, 1819.415
420.0106, 1818.985
420.4927, 1818.513
420.9748, 1817.635
421.4569, 1816.151
421.9391, 1815.109
422.4212, 1815.871
422.9033, 1817.744
423.3854, 1818.459
423.8675, 1816.999
424.3496, 1815.042
424.8318, 1813.454
425.3139, 1812.278
425.7960, 1811.821
426.2781, 1812.414
426.7602, 1813.385
427.2423, 1813.306
427.7245, 1811.867
428.2066, 1810.665
428.6887, 1810.285
429.1708, 1810.089
429.6529, 1809.401
430.1350, 1808.156
430.6172, 1806.765
431.0992, 1805.609
431.5814, 1804.702
432.0635, 1803.287
432.5456, 1801.141
433.0277, 1798.856
433.5098, 1796.650
433.9919, 1794.408
434.4741, 1791.814
434.9562, 1788.725
435.4383, 1785.526
435.9204, 1782.996
436.4025, 1781.437
436.8846, 1779.983
437.3668, 1778.970
437.8489, 1777.769
438.3310, 1775.697
438.8131, 1772.979
439.2952, 1770.618
439.7773, 1769.624
440.2595, 1769.761
440.7416, 1768.571
441.2237, 1764.744
441.7058, 1761.486
442.1879, 1760.082
442.6700, 1759.425
443.1522, 1758.093
443.6343, 1755.596
444.1164, 1753.083
444.5985, 1752.395
445.0806, 1753.762
445.5627, 1754.003
446.0449, 1751.986
446.5270, 1749.448
447.0091, 1747.230
447.4912, 1745.428
447.9733, 1744.263
448.4554, 1744.585
448.9376, 1745.313
449.4197, 1744.144
449.9018, 1740.812
450.3839, 1737.803
450.8660, 1736.525
451.3481, 1736.226
451.8303, 1735.398
452.3124, 1733.632
452.7945, 1732.375
453.2766, 1732.912
453.7587, 1734.394
454.2408, 1735.103
454.7230, 1734.644
455.2051, 1733.621
455.6872, 1732.462
456.1693, 1731.161
456.6514, 1730.473
457.1335, 1731.901
457.6157, 1732.550
458.0978, 1730.041
458.5799, 1725.390
459.0620, 1721.279
459.5441, 1719.013
460.0262, 1718.013
460.5084, 1716.921
460.9905, 1715.295
461.4726, 1714.317
461.9547, 1714.717
462.4368, 1715.218
462.9189, 1714.685
463.4011, 1713.206
463.8832, 1711.811
464.3653, 1711.463
464.8474, 1712.065
465.3295, 1711.984
465.8116, 1710.628
466.2938, 1709.319
466.7759, 1708.336
467.2580, 1707.536
467.7401, 1706.797
468.2222, 1706.081
468.7043, 1705.292
469.1865, 1704.166
469.6686, 1702.639
470.1507, 1701.694
470.6328, 1702.158
471.1149, 1702.320
471.5970, 1701.157
472.0792, 1698.954
472.5613, 1696.469
473.0434, 1693.876
473.5255, 1691.297
474.0076, 1689.031
474.4897, 1687.090
474.9719, 1684.836
475.4540, 1681.960
475.9361, 1678.689
476.4182, 1675.296
476.9003, 1671.702
477.3824, 1668.514
477.8645, 1666.170
478.3466, 1664.259
478.8288, 1662.339
479.3109, 1660.344
479.7930, 1658.201
480.2751, 1655.793
480.7572, 1653.191
481.2393, 1650.801
481.7215, 1648.085
482.2036, 1646.212
482.6857, 1646.297
483.1678, 1647.114
483.6499, 1646.928
484.1320, 1645.270
484.6142, 1643.038
485.0963, 1641.416
485.5784, 1640.597
486.0605, 1639.458
486.5426, 1637.307
487.0247, 1635.559
487.5069, 1635.300
487.9890, 1635.706
488.4711, 1635.143
488.9532, 1632.730
489.4353, 1629.573
489.9174, 1628.221
490.3996, 1629.443
490.8817, 1629.815
491.3638, 1628.139
491.8459, 1625.975
492.3280, 1623.944
492.8102, 1622.145
493.2923, 1620.652
493.7744, 1619.803
494.2565, 1619.189
494.7386, 1617.744
495.2207, 1615.329
495.7029, 1612.981
496.1850, 1611.049
496.6671, 1609.545
497.1492, 1608.492
497.6313, 1608.031
498.1134, 1607.462
498.5956, 1606.548
499.0777, 1605.285
499.5598, 1603.402
500.0419, 1600.866
500.5240, 1598.717
501.0061, 1597.993
501.4883, 1598.542
501.9704, 1598.261
502.4525, 1596.773
502.9346, 1595.006
503.4167, 1592.692
503.8988, 1590.475
504.3810, 1589.488
504.8631, 1589.981
505.3452, 1590.771
505.8273, 1590.219
506.3094, 1587.962
506.7915, 1586.276
507.2737, 1585.972
507.7558, 1585.375
508.2379, 1583.741
508.7200, 1581.494
509.2021, 1579.393
509.6842, 1577.787
510.1664, 1576.296
510.6485, 1574.027
511.1306, 1570.737
511.6127, 1568.473
512.0948, 1568.432
512.5769, 1568.577
513.0590, 1567.629
513.5411, 1565.740
514.0233, 1563.533
514.5054, 1560.892
514.9875, 1558.366
515.4696, 1557.119
515.9517, 1557.057
516.4338, 1556.272
516.9160, 1553.863
517.3981, 1550.541
517.8802, 1547.277
518.3623, 1543.964
518.8444, 1541.287
519.3265, 1539.265
519.8087, 1538.037
520.2908, 1538.617
520.7729, 1540.442
521.2550, 1540.742
521.7371, 1537.493
522.2192, 1531.757
522.7014, 1527.767
523.1835, 1527.259
523.6656, 1526.291
524.1477, 1524.103
524.6298, 1521.864
525.1119, 1520.644
525.5941, 1520.392
526.0762, 1520.203
526.5583, 1519.287
527.0404, 1517.756
527.5225, 1516.346
528.0046, 1514.964
528.4868, 1513.902
528.9689, 1513.597
529.4510, 1513.439
529.9331, 1512.794
530.4152, 1511.561
530.8973, 1510.324
531.3795, 1509.586
531.8616, 1509.194
532.3437, 1508.761
532.8258, 1508.296
533.3079, 1507.577
533.7900, 1506.395
534.2722, 1504.831
534.7543, 1503.193
535.2364, 1501.272
535.7185, 1499.620
536.2006, 1498.595
536.6827, 1497.920
537.1649, 1497.241
537.6470, 1496.473
538.1291, 1495.628
538.6112, 1494.685
539.0933, 1493.642
539.5754, 1492.826
540.0576, 1492.382
540.5397, 1491.999
541.0218, 1491.562
541.5039, 1491.186
541.9860, 1491.036
542.4681, 1491.145
542.9503, 1491.381
543.4324, 1491.737
543.9145, 1492.246
544.3966, 1491.970
544.8787, 1490.263
545.3608, 1488.749
545.8430, 1488.178
546.3251, 1488.156
546.8072, 1488.203
547.2893, 1488.210
547.7714, 1488.183
548.2535, 1488.159
548.7357, 1488.105
549.2178, 1487.872
549.6999, 1487.385
550.1820, 1486.940
550.6641, 1486.887
551.1462, 1487.138
551.6284, 1486.974
552.1105, 1485.998
552.5926, 1485.047
553.0747, 1484.922
553.5568, 1484.870
554.0389, 1483.439
554.5211, 1480.355
555.0032, 1477.156
555.4853, 1475.700
555.9674, 1476.191
556.4495, 1475.992
556.9316, 1474.747
557.4138, 1473.158
557.8959, 1471.317
558.3780, 1469.241
558.8601, 1466.832
559.3422, 1464.081
559.8243, 1461.366
560.3065, 1459.139
560.7886, 1457.373
561.2707, 1455.854
561.7528, 1454.871
562.2349, 1453.522
562.7170, 1450.539
563.1992, 1447.006
563.6813, 1444.825
564.1634, 1444.911
564.6455, 1444.969
565.1276, 1442.995
565.6097, 1440.137
566.0919, 1438.804
566.5740, 1439.447
567.0561, 1440.617
567.5382, 1441.127
568.0203, 1440.991
568.5024, 1440.685
568.9846, 1440.121
569.4667, 1439.499
569.9488, 1438.648
570.4309, 1437.850
570.9130, 1437.443
571.3951, 1437.462
571.8773, 1437.673
572.3594, 1437.939
572.8415, 1438.224
573.3236, 1437.931
573.8057, 1436.693
574.2878, 1435.542
574.7700, 1434.821
575.2521, 1434.348
575.7342, 1433.921
576.2163, 1433.511
576.6984, 1433.414
577.1805, 1433.723
577.6627, 1434.527
578.1448, 1436.324
578.6269, 1439.214
579.1090, 1441.716
579.5911, 1442.920
580.0732, 1443.142
580.5554, 1443.257
581.0375, 1442.933
581.5196, 1443.170
582.0017, 1444.295
582.4838, 1445.945
582.9659, 1448.218
583.4481, 1450.793
583.9302, 1452.605
584.4123, 1452.856
584.8944, 1451.971
585.3765, 1451.580
585.8586, 1452.106
586.3408, 1452.229
586.8229, 1451.954
587.3050, 1451.123
587.7871, 1449.763
588.2692, 1447.780
588.7513, 1444.828
589.2334, 1440.347
589.7155, 1435.155
590.1976, 1430.546
590.6797, 1426.500
591.1619, 1422.703
591.6440, 1419.039
592.1261, 1415.644
592.6082, 1412.997
593.0903, 1411.115
593.5724, 1408.398
594.0546, 1403.552
594.5367, 1398.833
595.0188, 1395.832
595.5009, 1393.981
595.9830, 1391.898
596.4651, 1389.037
596.9473, 1386.103
597.4294, 1384.284
597.9115, 1383.972
598.3936, 1382.861
598.8757, 1379.314
599.3578, 1376.727
599.8400, 1377.106
600.3221, 1378.697
600.8042, 1378.999
601.2863, 1377.189
601.7684, 1374.563
602.2505, 1372.091
602.7327, 1369.875
603.2148, 1368.506
603.6969, 1368.187
604.1790, 1368.117
604.6611, 1367.909
605.1432, 1367.515
605.6254, 1366.835
606.1075, 1365.810
606.5896, 1364.611
607.0717, 1362.860
607.5538, 1361.219
608.0359, 1360.723
608.5181, 1361.234
609.0002, 1361.448
609.4823, 1360.305
609.9644, 1358.257
610.4465, 1357.314
610.9286, 1358.164
611.4108, 1358.785
611.8929, 1358.819
612.3750, 1358.683
612.8571, 1358.827
613.3392, 1359.075
613.8214, 1358.724
614.3035, 1357.185
614.7856, 1355.083
615.2677, 1353.188
615.7498, 1351.523
616.2319, 1350.594
616.7141, 1350.866
617.1962, 1351.205
617.6783, 1350.307
618.1604, 1348.135
618.6425, 1345.647
619.1246, 1342.738
619.6068, 1339.674
620.0889, 1336.292
620.5710, 1332.922
621.0531, 1330.079
621.5352, 1327.889
622.0173, 1326.018
622.4995, 1324.088
622.9816, 1322.099
623.4637, 1320.421
623.9458, 1319.206
624.4279, 1318.057
624.9100, 1316.992
625.3922, 1315.855
625.8743, 1314.422
626.3564, 1312.665
626.8385, 1310.932
627.3206, 1309.248
627.8027, 1307.802
628.2849, 1307.142
628.7670, 1307.207
629.2491, 1306.883
629.7312, 1305.570
630.2133, 1303.721
630.6954, 1302.208
631.1776, 1301.172
631.6597, 1300.120
632.1418, 1299.111
632.6239, 1298.032
633.1060, 1296.726
633.5881, 1295.336
634.0703, 1294.159
634.5524, 1293.322
635.0345, 1292.558
635.5166, 1291.339
635.9987, 1289.634
636.4808, 1288.647
636.9630, 1288.988
637.4451, 1289.028
637.9272, 1287.110
638.4093, 1284.558
638.8914, 1283.398
639.3735, 1284.130
639.8557, 1285.343
640.3378, 1286.986
640.8199, 1288.360
641.3020, 1288.362
641.7841, 1287.043
642.2662, 1285.353
642.7484, 1283.853
643.2305, 1282.482
643.7126, 1281.043
644.1947, 1279.299
644.6768, 1277.953
645.1589, 1277.071
645.6411, 1276.483
646.1232, 1276.202
646.6053, 1276.135
647.0874, 1276.178
647.5695, 1276.343
648.0516, 1276.365
648.5338, 1275.725
649.0159, 1274.580
649.4980, 1273.967
649.9801, 1274.175
650.4622, 1274.308
650.9443, 1273.579
651.4265, 1272.226
651.9086, 1271.371
652.3907, 1271.327
652.8728, 1271.247
653.3549, 1270.819
653.8370, 1270.359
654.3192, 1270.168
654.8013, 1270.236
655.2834, 1270.457
655.7655, 1270.824
656.2476, 1271.077
656.7297, 1270.307
657.2119, 1268.087
657.6940, 1266.844
658.1761, 1267.483
658.6582, 1268.544
659.1403, 1269.185
659.6224, 1269.475
660.1046, 1269.529
660.5867, 1269.089
661.0688, 1268.910
661.5509, 1269.822
662.0330, 1271.234
662.5151, 1271.944
662.9973, 1271.805
663.4794, 1271.762
663.9615, 1272.638
664.4436, 1274.137
664.9257, 1274.742
665.4078, 1273.500
665.8900, 1272.905
666.3721, 1273.577
666.8542, 1274.480
667.3363, 1274.991
667.8184, 1275.176
668.3005, 1275.411
668.7827, 1275.941
669.2648, 1276.483
669.7469, 1276.675
670.2290, 1276.559
670.7111, 1276.389
671.1932, 1276.273
671.6754, 1275.770
672.1575, 1274.343
672.6396, 1272.171
673.1217, 1270.597
673.6038, 1270.197
674.0859, 1269.529
674.5681, 1267.989
675.0502, 1266.367
675.5323, 1265.375
676.0144, 1264.953
676.4965, 1264.615
676.9786, 1264.042
677.4608, 1263.410
677.9428, 1263.159
678.4249, 1263.333
678.9070, 1263.189
679.3892, 1262.398
679.8713, 1261.649
680.3534, 1261.595
680.8355, 1262.005
681.3176, 1262.203
681.7997, 1261.759
682.2819, 1261.713
682.7640, 1262.915
683.2461, 1264.467
683.7282, 1265.244
684.2103, 1265.257
684.6924, 1265.199
685.1746, 1265.484
685.6567, 1266.182
686.1388, 1267.553
686.6209, 1269.800
687.1030, 1271.973
687.5851, 1273.859
688.0673, 1275.814
688.5494, 1278.350
689.0315, 1281.037
689.5136, 1282.959
689.9957, 1283.771
690.4778, 1284.132
690.9600, 1284.729
691.4421, 1285.017
691.9242, 1284.024
692.4063, 1281.736
692.8884, 1278.913
693.3705, 1276.018
693.8527, 1272.949
694.3348, 1269.468
694.8169, 1265.597
695.2990, 1261.234
695.7811, 1255.887
696.2632, 1250.501
696.7454, 1245.522
697.2275, 1240.752
697.7096, 1235.863
698.1917, 1230.715
698.6738, 1225.544
699.1559, 1220.331
699.6381, 1215.280
700.1202, 1211.055
700.6023, 1207.655
701.0844, 1204.077
701.5665, 1199.674
702.0486, 1194.975
702.5308, 1191.153
703.0129, 1188.502
703.4950, 1185.959
703.9771, 1183.753
704.4592, 1181.377
704.9413, 1178.311
705.4235, 1175.062
705.9056, 1172.454
706.3877, 1170.703
706.8698, 1169.251
707.3519, 1167.431
707.8340, 1165.559
708.3162, 1164.623
708.7983, 1164.656
709.2804, 1164.423
709.7625, 1163.288
710.2446, 1161.817
710.7267, 1160.948
711.2089, 1160.920
711.6910, 1160.488
712.1731, 1159.782
712.6552, 1158.550
713.1373, 1156.425
713.6194, 1153.854
714.1016, 1151.203
714.5837, 1148.629
715.0658, 1146.411
715.5479, 1144.763
716.0300, 1143.662
716.5121, 1143.511
716.9943, 1144.332
717.4764, 1143.889
717.9585, 1141.104
718.4406, 1137.609
718.9227, 1135.072
719.4048, 1133.533
719.8870, 1133.130
720.3691, 1135.395
720.8512, 1136.848
721.3333, 1136.050
721.8154, 1134.273
722.2975, 1132.613
722.7797, 1131.307
723.2618, 1130.297
723.7439, 1129.666
724.2260, 1129.106
724.7081, 1127.757
725.1902, 1125.659
725.6724, 1124.387
726.1545, 1124.540
726.6366, 1124.708
727.1187, 1123.578
727.6008, 1121.433
728.0829, 1119.943
728.5651, 1119.333
729.0472, 1118.990
729.5293, 1119.276
730.0114, 1119.414
730.4935, 1118.709
730.9756, 1117.318
731.4578, 1115.738
731.9399, 1114.184
732.4220, 1112.858
732.9041, 1112.190
733.3862, 1112.093
733.8683, 1111.786
734.3505, 1111.195
734.8326, 1110.439
735.3147, 1109.520
735.7968, 1108.529
736.2789, 1107.674
736.7610, 1107.010
737.2432, 1106.292
737.7253, 1105.480
738.2074, 1104.627
738.6895, 1103.767
739.1716, 1102.883
739.6537, 1101.842
740.1359, 1100.647
740.6180, 1099.696
741.1001, 1099.668
741.5822, 1100.210
742.0643, 1099.898
742.5464, 1098.665
743.0286, 1097.607
743.5107, 1097.208
743.9928, 1096.918
744.4749, 1095.912
744.9570, 1094.084
745.4391, 1093.075
745.9213, 1093.626
746.4034, 1094.019
746.8855, 1093.790
747.3676, 1093.145
747.8497, 1092.174
748.3318, 1090.980
748.8140, 1089.790
749.2961, 1088.601
749.7782, 1087.766
750.2603, 1088.247
750.7424, 1089.808
751.2245, 1090.605
751.7067, 1090.285
752.1888, 1089.209
752.6709, 1087.356
753.1530, 1085.077
753.6351, 1083.833
754.1172, 1084.519
754.5994, 1084.825
755.0815, 1084.730
755.5636, 1084.223
756.0457, 1082.875
756.5278, 1081.222
757.0099, 1080.423
757.4921, 1080.907
757.9742, 1081.222
758.4563, 1079.553
758.9384, 1076.794
759.4205, 1075.082
759.9026, 1074.492
760.3848, 1074.489
760.8669, 1075.032
761.3490, 1075.358
761.8311, 1074.171
762.3132, 1071.145
762.7953, 1068.968
763.2775, 1068.000
763.7596, 1067.458
764.2417, 1067.613
764.7238, 1067.837
765.2059, 1067.506
765.6880, 1066.639
766.1702, 1065.734
766.6523, 1065.094
767.1344, 1064.478
767.6165, 1063.503
768.0986, 1062.353
768.5807, 1061.580
769.0628, 1061.266
769.5449, 1060.926
770.0270, 1060.182
770.5092, 1059.140
770.9913, 1058.139
771.4734, 1057.061
771.9555, 1056.305
772.4376, 1055.770
772.9197, 1055.719
773.4019, 1056.825
773.8840, 1058.295
774.3661, 1058.825
774.8482, 1058.104
775.3303, 1056.868
775.8124, 1054.891
776.2946, 1053.030
776.7767, 1052.531
777.2588, 1052.928
777.7409, 1052.766
778.2230, 1051.541
778.7051, 1050.012
779.1873, 1049.061
779.6694, 1048.652
780.1515, 1048.318
780.6336, 1048.159
781.1157, 1047.744
781.5978, 1046.734
782.0800, 1045.664
782.5621, 1045.160
783.0442, 1045.080
783.5263, 1044.665
784.0084, 1043.294
784.4905, 1042.240
784.9727, 1042.164
785.4548, 1042.465
785.9369, 1042.517
786.4190, 1042.366
786.9011, 1042.519
787.3832, 1043.284
787.8654, 1044.072
788.3475, 1043.884
788.8296, 1042.845
789.3117, 1042.054
789.7938, 1041.626
790.2759, 1041.068
790.7581, 1039.893
791.2402, 1038.807
791.7223, 1039.287
792.2044, 1042.048
792.6865, 1043.161
793.1686, 1041.363
793.6508, 1039.510
794.1329, 1038.464
794.6150, 1037.836
795.0971, 1037.101
795.5792, 1036.280
796.0613, 1035.890
796.5435, 1036.348
797.0256, 1037.227
797.5077, 1038.416
797.9898, 1039.574
798.4719, 1039.500
798.9540, 1038.033
799.4362, 1036.383
799.9183, 1035.379
800.4004, 1034.829
800.8825, 1034.218
801.3646, 1033.559
801.8467, 1032.770
802.3289, 1031.645
802.8110, 1030.643
803.2931, 1030.126
803.7752, 1029.741
804.2573, 1029.047
804.7394, 1027.990
805.2216, 1026.725
805.7037, 1025.205
806.1858, 1023.600
806.6679, 1021.618
807.1500, 1019.806
807.6321, 1019.331
808.1143, 1020.276
808.5964, 1021.404
809.0785, 1021.707
809.5606, 1021.418
810.0427, 1021.306
810.5248, 1021.419
811.0070, 1020.620
811.4891, 1018.439
811.9712, 1016.112
812.4533, 1014.340
812.9354, 1013.106
813.4175, 1012.412
813.8997, 1012.473
814.3818, 1012.525
814.8639, 1012.808
815.3460, 1012.764
815.8281, 1011.641
816.3102, 1010.234
816.7924, 1009.942
817.2745, 1010.943
817.7566, 1011.591
818.2387, 1010.225
818.7208, 1008.143
819.2029, 1007.357
819.6851, 1007.467
820.1672, 1006.920
820.6493, 1005.382
821.1314, 1004.173
821.6135, 1004.548
822.0956, 1005.897
822.5778, 1005.719
823.0599, 1003.384
823.5420, 1001.554
824.0241, 1000.683
824.5062, 1000.032
824.9883, 999.1036
825.4705, 998.1877
825.9526, 997.8068
826.4347, 998.1141
826.9168, 998.3056
827.3989, 998.3322
827.8810, 997.9988
828.3632, 996.7379
828.8453, 995.2253
829.3274, 994.7028
829.8095, 995.2483
830.2916, 995.5677
830.7737, 994.5226
831.2559, 992.8132
831.7380, 991.7335
832.2201, 991.2641
832.7022, 991.4240
833.1843, 992.2908
833.6664, 993.0450
834.1486, 993.1906
834.6307, 992.7234
835.1128, 991.5429
835.5949, 989.0170
836.0770, 987.4426
836.5591, 987.6389
837.0413, 987.8541
837.5234, 987.4686
838.0055, 986.8810
838.4876, 986.6345
838.9697, 986.7508
839.4518, 986.6204
839.9340, 985.7357
840.4161, 984.7969
840.8982, 984.4075
841.3803, 984.2240
841.8624, 983.6447
842.3445, 982.6771
842.8267, 981.8049
843.3088, 981.3236
843.7909, 981.1423
844.2730, 981.3068
844.7551, 981.7490
845.2372, 981.3298
845.7194, 979.8068
846.2015, 978.5608
846.6836, 978.3904
847.1657, 978.5535
847.6478, 977.8171
848.1299, 975.9781
848.6121, 974.8955
849.0942, 975.5030
849.5763, 975.6156
850.0584, 974.4326
850.5405, 972.9430
851.0226, 971.8998
851.5048, 971.2592
851.9869, 970.6024
852.4690, 969.7034
852.9511, 968.9874
853.4332, 969.0827
853.9153, 969.2979
854.3975, 968.6786
854.8796, 967.3690
855.3617, 965.9890
855.8438, 964.7961
856.3259, 963.8447
856.8080, 963.1689
857.2901, 962.7960
857.7722, 963.0280
858.2543, 963.9509
858.7365, 964.3782
859.2186, 963.9108
859.7007, 963.1334
860.1828, 962.4632
860.6649, 961.9161
861.1470, 961.6108
861.6292, 961.9628
862.1113, 961.8701
862.5934, 960.8953
863.0755, 959.9549
863.5576, 959.4951
864.0397, 959.3250
864.5219, 959.1794
865.0040, 959.0106
865.4861, 958.8143
865.9682, 958.8829
866.4503, 958.6442
866.9324, 957.1115
867.4146, 955.1608
867.8967, 954.4162
868.3788, 954.9573
868.8609, 955.5180
869.3430, 955.2723
869.8251, 954.5437
870.3073, 953.8439
870.7894, 953.1752
871.2715, 952.6330
871.7536, 952.2358
872.2357, 951.8096
872.7178, 951.2791
873.2000, 950.6608
873.6821, 949.9697
874.1642, 949.1966
874.6463, 948.4443
875.1284, 947.3759
875.6105, 946.8547
876.0927, 947.7669
876.5748, 948.5590
877.0569, 947.9926
877.5390, 946.4760
878.0211, 945.1524
878.5032, 944.2379
878.9854, 943.6222
879.4675, 943.6761
879.9496, 943.6314
880.4317, 942.4584
880.9138, 940.8113
881.3959, 940.0974
881.8781, 940.5836
882.3602, 941.1744
882.8423, 940.9590
883.3244, 940.2521
883.8065, 939.4682
884.2886, 938.6999
884.7708, 938.5912
885.2529, 939.2396
885.7350, 939.5216
886.2171, 938.6304
886.6992, 937.2050
887.1813, 936.6427
887.6635, 937.1246
888.1456, 937.4498
888.6277, 937.7854
889.1098, 937.6249
889.5919, 936.5990
890.0740, 935.1951
890.5562, 933.5417
891.0383, 931.8039
891.5204, 931.2692
892.0025, 933.3008
892.4846, 934.7806
892.9667, 934.6448
893.4489, 934.1408
893.9310, 934.1287
894.4131, 934.4429
894.8952, 934.4789
895.3773, 934.0755
895.8594, 934.1359
896.3416, 936.0158
896.8237, 938.1209
897.3058, 938.3601
897.7879, 937.3725
898.2700, 936.5684
898.7521, 936.2785
899.2343, 936.4378
899.7164, 937.0623
900.1985, 937.8066
900.6806, 937.8600
901.1627, 937.2637
901.6448, 936.9467
902.1270, 936.9797
902.6091, 937.2116
903.0912, 937.6725
903.5733, 938.0792
904.0554, 937.9969
904.5375, 937.4286
905.0197, 937.2426
905.5018, 937.5684
905.9839, 938.0755
906.4660, 938.8112
906.9481, 939.6401
907.4302, 940.6095
907.9124, 941.5970
908.3945, 942.3666
908.8766, 942.8828
909.3587, 943.2280
909.8408, 943.0316
910.3229, 943.1045
910.8051, 944.3126
911.2872, 945.8602
911.7693, 946.5692
912.2514, 946.4570
912.7335, 946.5331
913.2156, 947.4469
913.6978, 948.4969
914.1799, 948.7933
914.6620, 948.7110
915.1441, 949.1231
915.6262, 949.9316
916.1083, 950.3740
916.5905, 950.1481
917.0726, 949.4544
917.5547, 948.3542
918.0368, 947.0780
918.5189, 946.9828
919.0010, 948.2047
919.4832, 948.6257
919.9653, 947.7798
920.4474, 946.3881
920.9295, 944.7236
921.4116, 943.0921
921.8937, 942.2609
922.3759, 942.5289
922.8580, 942.4602
923.3401, 941.8630
923.8222, 941.1947
924.3043, 940.6425
924.7864, 940.0060
925.2686, 939.0751
925.7507, 937.9027
926.2328, 936.7281
926.7149, 935.4666
927.1970, 934.4514
927.6791, 933.8909
928.1613, 933.5148
928.6434, 933.3240
929.1255, 933.1019
929.6076, 932.5432
930.0897, 931.5872
930.5718, 930.3860
931.0540, 928.9737
931.5361, 927.4457
932.0182, 925.8778
932.5003, 924.2821
932.9824, 922.4700
933.4645, 920.5948
933.9467, 919.4730
934.4288, 919.5037
934.9109, 919.6307
935.3930, 918.2060
935.8751, 915.6871
936.3572, 914.2595
936.8394, 913.8725
937.3215, 913.1672
937.8036, 911.7875
938.2857, 910.2774
938.7678, 909.0994
939.2499, 908.0462
939.7321, 906.3943
940.2142, 903.7879
940.6963, 902.1086
941.1784, 901.8435
941.6605, 901.4923
942.1426, 900.5426
942.6248, 899.2493
943.1069, 897.7934
943.5890, 896.1970
944.0711, 894.7792
944.5532, 893.3885
945.0353, 892.4073
945.5175, 892.1441
945.9996, 892.0035
946.4817, 891.7985
946.9637, 891.4404
947.4459, 890.6824
947.9280, 889.5201
948.4101, 888.7402
948.8922, 889.0339
949.3743, 889.3293
949.8564, 888.8418
950.3386, 888.1531
950.8207, 887.9968
951.3028, 888.2339
951.7849, 888.2637
952.2670, 887.8528
952.7491, 887.3680
953.2313, 887.1683
953.7134, 887.0827
954.1955, 886.8297
954.6776, 886.4816
955.1597, 886.1649
955.6418, 885.9474
956.1240, 886.0631
956.6061, 886.6884
957.0882, 887.5648
957.5703, 888.2828
958.0524, 888.8511
958.5345, 889.3215
959.0167, 889.6944
959.4988, 889.9407
959.9809, 890.0110
960.4630, 890.2434
960.9451, 891.0031
961.4272, 892.1387
961.9094, 893.0362
962.3915, 893.6691
962.8736, 894.0837
963.3557, 893.9239
963.8378, 894.4388
964.3199, 896.5853
964.8021, 899.1837
965.2842, 900.6340
965.7663, 900.9484
966.2484, 901.8156
966.7305, 903.6286
967.2126, 905.4200
967.6948, 907.3983
968.1769, 909.0505
968.6590, 910.1028
969.1411, 910.6713
969.6232, 910.9261
970.1053, 910.8815
970.5875, 910.6190
971.0696, 909.8446
971.5517, 909.2571
972.0338, 909.5530
972.5159, 909.8036
972.9980, 909.0511
973.4802, 907.5909
973.9623, 906.3835
974.4444, 905.7445
974.9265, 904.5998
975.4086, 901.9614
975.8907, 898.8416
976.3729, 895.8546
976.8550, 893.1505
977.3371, 891.1077
977.8192, 889.5656
978.3013, 887.7607
978.7834, 885.2706
979.2656, 882.8521
979.7477, 881.6799
980.2298, 881.0075
980.7119, 878.9557
981.1940, 876.1105
981.6761, 874.8026
982.1583, 875.4424
982.6404, 876.4521
983.1225, 876.7649
983.6046, 876.5781
984.0867, 876.1524
984.5688, 875.5364
985.0510, 875.0992
985.5331, 874.8512
986.0152, 874.5995
986.4973, 874.2632
986.9794, 874.0909
987.4615, 874.3143
987.9437, 874.8760
988.4258, 875.5560
988.9079, 876.3163
989.3900, 877.5215
989.8721, 879.4186
990.3542, 880.9180
990.8364, 881.4600
991.3185, 881.6882
991.8006, 882.3758
992.2827, 883.4231
992.7648, 883.9364
993.2469, 883.5773
993.7291, 883.4135
994.2112, 883.4825
994.6933, 883.7729
995.1754, 884.3489
995.6575, 885.1055
996.1396, 886.0618
996.6218, 887.1984
997.1039, 887.7723
997.5860, 886.8909
998.0681, 886.7386
998.5502, 888.3864
999.0323, 889.9725
999.5145, 890.2010
999.9966, 889.8863
1000.479, 890.3851
1000.961, 891.7971
1001.443, 892.7051
1001.925, 892.2618
1002.407, 891.8796
1002.889, 892.6986
1003.371, 893.1910
1003.854, 891.5802
1004.336, 888.9328
1004.818, 887.3779
1005.300, 887.3494
1005.782, 887.3452
1006.264, 886.6309
1006.746, 885.6401
1007.228, 884.4503
1007.710, 883.3031
1008.193, 882.9847
1008.675, 882.8587
1009.157, 881.2284
1009.639, 877.5895
1010.121, 873.4912
1010.603, 869.5448
1011.085, 866.2563
1011.567, 864.6356
1012.049, 863.8729
1012.532, 862.6562
1013.014, 860.9212
1013.496, 859.1507
1013.978, 857.5477
1014.460, 856.1073
1014.942, 854.9086
1015.424, 853.8112
1015.906, 852.5563
1016.389, 851.1857
1016.871, 849.7593
1017.353, 848.3196
1017.835, 847.0718
1018.317, 846.1190
1018.799, 845.1053
1019.281, 843.4691
1019.763, 841.4619
1020.245, 839.8862
1020.728, 838.7116
1021.210, 837.8555
1021.692, 837.2825
1022.174, 836.4465
1022.656, 835.0159
1023.138, 833.5320
1023.620, 832.9175
1024.102, 832.9916
1024.584, 832.4905
1025.067, 831.4085
1025.549, 829.9965
1026.031, 828.1971
1026.513, 827.2305
1026.995, 827.9987
1027.477, 829.3674
1027.959, 829.3112
1028.441, 827.8972
1028.924, 827.2748
1029.406, 827.6381
1029.888, 827.6005
1030.370, 826.7900
1030.852, 825.9628
1031.334, 825.5935
1031.816, 825.4467
1032.298, 825.1086
1032.781, 824.5786
1033.263, 823.8621
1033.745, 822.7116
1034.227, 822.2263
1034.709, 823.0911
1035.191, 823.6342
1035.673, 822.6541
1036.155, 820.8995
1036.637, 819.6906
1037.120, 819.0435
1037.602, 818.8830
1038.084, 819.4974
1038.566, 820.0401
1039.048, 820.5478
1039.530, 820.7144
1040.012, 820.1383
1040.494, 819.2244
1040.976, 818.6487
1041.459, 818.4033
1041.941, 818.5323
1042.423, 819.4395
1042.905, 820.0879
1043.387, 820.1662
1043.869, 820.1458
1044.351, 820.5076
1044.833, 820.8297
1045.316, 820.2822
1045.798, 818.7528
1046.280, 817.6276
1046.762, 817.2833
1047.244, 816.8904
1047.726, 816.3630
1048.208, 815.7137
1048.690, 814.7263
1049.172, 813.7416
1049.655, 813.2911
1050.137, 813.4141
1050.619, 813.6982
1051.101, 814.6505
1051.583, 814.9504
1052.065, 813.9000
1052.547, 812.5862
1053.029, 811.5885
1053.511, 810.7769
1053.994, 809.8045
1054.476, 808.6783
1054.958, 808.1047
1055.440, 808.8977
1055.922, 809.3093
1056.404, 808.6035
1056.886, 807.7156
1057.368, 806.9700
1057.851, 806.5313
1058.333, 806.9200
1058.815, 807.9755
1059.297, 808.0370
1059.779, 805.7916
1060.261, 803.9636
1060.743, 803.6330
1061.225, 803.7485
1061.708, 804.0369
1062.190, 804.1414
1062.672, 803.4109
1063.154, 802.0134
1063.636, 801.1872
1064.118, 801.5309
1064.600, 801.9880
1065.082, 802.3578
1065.564, 802.5138
1066.047, 802.2595
1066.529, 801.8228
1067.011, 801.2849
1067.493, 800.8131
1067.975, 801.0723
1068.457, 802.8041
1068.939, 803.5967
1069.421, 801.2177
1069.903, 798.9714
1070.386, 799.1738
1070.868, 800.5156
1071.350, 801.6680
1071.832, 802.4333
1072.314, 802.8529
1072.796, 802.8445
1073.278, 802.9620
1073.760, 803.5224
1074.243, 804.1974
1074.725, 804.8370
1075.207, 805.4440
1075.689, 806.0988
1076.171, 806.7202
1076.653, 807.0341
1077.135, 806.9236
1077.617, 806.9733
1078.099, 807.5614
1078.582, 808.2433
1079.064, 808.6049
1079.546, 809.0810
1080.028, 810.3451
1080.510, 812.0109
1080.992, 813.0458
1081.474, 813.2232
1081.956, 813.8262
1082.438, 815.5038
1082.921, 817.6467
1083.403, 819.5833
1083.885, 822.1779
1084.367, 826.3996
1084.849, 831.7214
1085.331, 838.3457
1085.813, 845.7416
1086.295, 849.0863
1086.777, 845.1138
1087.260, 838.6826
1087.742, 830.3597
1088.224, 822.0726
1088.706, 814.9938
1089.188, 809.1417
1089.670, 804.5046
1090.152, 800.9968
1090.634, 798.0906
1091.117, 795.4717
1091.599, 793.7919
1092.081, 793.9914
1092.563, 794.4612
1093.045, 794.0084
1093.527, 793.3525
1094.009, 793.7401
1094.491, 794.8306
1094.974, 794.8622
1095.456, 792.9950
1095.938, 791.5068
1096.420, 791.4922
1096.902, 791.7350
1097.384, 791.8674
1097.866, 791.7424
1098.348, 790.9969
1098.830, 789.9476
1099.313, 789.5258
1099.795, 790.0591
1100.277, 789.9357
1100.759, 788.0177
1101.241, 786.2399
1101.723, 785.1888
1102.205, 784.7129
1102.687, 785.1789
1103.169, 785.9181
1103.652, 785.7159
1104.134, 784.4291
1104.616, 783.1539
1105.098, 781.9955
1105.580, 781.0612
1106.062, 780.3352
1106.544, 779.8859
1107.026, 780.0889
1107.509, 780.3801
1107.991, 779.8050
1108.473, 778.4928
1108.955, 777.9333
1109.437, 779.1187
1109.919, 779.5787
1110.401, 778.4191
1110.883, 777.2133
1111.365, 776.2908
1111.848, 775.8430
1112.330, 776.5304
1112.812, 777.8471
1113.294, 777.8531
1113.776, 775.7408
1114.258, 774.4693
1114.740, 774.7491
1115.222, 775.0389
1115.704, 774.9157
1116.187, 774.7668
1116.669, 774.7844
1117.151, 774.9735
1117.633, 775.4603
1118.115, 776.3445
1118.597, 776.5576
1119.079, 775.5154
1119.561, 774.9117
1120.044, 775.2653
1120.526, 775.5722
1121.008, 775.2730
1121.490, 774.7579
1121.972, 774.6447
1122.454, 774.8358
1122.936, 774.1503
1123.418, 771.9259
1123.901, 770.8418
1124.383, 771.5095
1124.865, 772.0732
1125.347, 771.9072
1125.829, 771.3839
1126.311, 770.7540
1126.793, 770.1116
1127.275, 769.7524
1127.757, 769.7148
1128.240, 769.7272
1128.722, 769.8708
1129.204, 769.5463
1129.686, 768.4310
1130.168, 767.7475
1130.650, 768.4450
1131.132, 769.4886
1131.614, 769.0351
1132.096, 767.2928
1132.579, 766.2336
1133.061, 765.8650
1133.543, 765.8078
1134.025, 766.0258
1134.507, 766.3158
1134.989, 766.5958
1135.471, 766.8731
1135.953, 767.2099
1136.436, 767.4395
1136.918, 766.9831
1137.400, 765.9659
1137.882, 765.1592
1138.364, 764.6115
1138.846, 764.3339
1139.328, 764.3242
1139.810, 764.5605
1140.292, 765.0574
1140.775, 765.5470
1141.257, 765.5695
1141.739, 765.3004
1142.221, 765.2153
1142.703, 765.2264
1143.185, 764.9780
1143.667, 764.4963
1144.149, 764.1758
1144.631, 764.1772
1145.114, 764.2533
1145.596, 764.0954
1146.078, 764.0048
1146.560, 764.7299
1147.042, 765.5822
1147.524, 765.1737
1148.006, 763.9891
1148.488, 763.4235
1148.971, 763.7364
1149.453, 764.2423
1149.935, 764.6447
1150.417, 764.8425
1150.899, 764.5248
1151.381, 764.1938
1151.863, 764.4523
1152.345, 764.9028
1152.828, 764.8889
1153.310, 764.5482
1153.792, 764.6049
1154.274, 765.3027
1154.756, 765.6243
1155.238, 764.5118
1155.720, 763.6904
1156.202, 764.7532
1156.684, 765.6754
1157.167, 764.1437
1157.649, 761.7835
1158.131, 761.7167
1158.613, 763.8781
1159.095, 764.4579
1159.577, 761.2095
1160.059, 759.2513
1160.541, 760.7683
1161.023, 761.9904
1161.506, 760.9960
1161.988, 759.4799
1162.470, 759.0745
1162.952, 759.3337
1163.434, 758.9614
1163.916, 757.8400
1164.398, 756.6405
1164.880, 754.9364
1165.363, 754.0789
1165.845, 754.6848
1166.327, 755.3401
1166.809, 755.2967
1167.291, 754.9789
1167.773, 754.9865
1168.255, 755.1991
1168.737, 754.8566
1169.219, 753.8932
1169.702, 752.6661
1170.184, 751.0460
1170.666, 750.2971
1171.148, 750.8778
1171.630, 751.8094
1172.112, 752.4227
1172.594, 752.6876
1173.076, 752.4562
1173.558, 751.8304
1174.041, 751.4309
1174.523, 751.2035
1175.005, 750.6407
1175.487, 749.7508
1175.969, 749.1940
1176.451, 749.2320
1176.933, 749.5143
1177.415, 749.7928
1177.897, 749.9489
1178.380, 749.6331
1178.862, 749.1526
1179.344, 749.2142
1179.826, 749.5901
1180.308, 749.5351
1180.790, 749.0655
1181.272, 748.9522
1181.754, 749.5763
1182.237, 750.2018
1182.719, 750.3683
1183.201, 750.1835
1183.683, 749.5064
1184.165, 748.7194
1184.647, 748.1992
1185.129, 747.9161
1185.611, 747.7683
1186.094, 747.7188
1186.576, 747.7012
1187.058, 747.7594
1187.540, 747.6984
1188.022, 747.3260
1188.504, 746.9741
1188.986, 746.9046
1189.468, 746.8430
1189.950, 746.4533
1190.432, 745.8817
1190.915, 745.5356
1191.397, 745.4695
1191.879, 745.4502
1192.361, 745.7172
1192.843, 745.5608
1193.325, 744.5832
1193.807, 743.7891
1194.289, 743.6637
1194.772, 743.8623
1195.254, 744.1187
1195.736, 744.3056
1196.218, 743.8170
1196.700, 742.5029
1197.182, 742.0822
1197.664, 742.6456
1198.146, 743.1418
1198.629, 743.3648
1199.111, 743.2147
1199.593, 742.6188
1200.075, 741.8322
1200.557, 741.1357
1201.039, 740.5624
1201.521, 740.2047
1202.003, 740.0433
1202.485, 740.0038
1202.968, 740.0911
1203.450, 740.5234
1203.932, 741.2131
1204.414, 741.3078
1204.896, 740.2518
1205.378, 739.0860
1205.860, 738.6438
1206.342, 738.7355
1206.824, 739.7410
1207.307, 740.7147
1207.789, 740.1195
1208.271, 738.5793
1208.753, 737.6533
1209.235, 737.6246
1209.717, 737.6644
1210.199, 737.3145
1210.681, 737.3197
1211.164, 738.8759
1211.646, 739.6970
1212.128, 737.7166
1212.610, 735.3193
1213.092, 734.7601
1213.574, 735.4884
1214.056, 736.0064
1214.538, 736.3181
1215.021, 736.0211
1215.503, 734.6141
1215.985, 733.7705
1216.467, 733.8679
1216.949, 733.9556
1217.431, 733.6471
1217.913, 733.2286
1218.395, 732.9355
1218.877, 732.7917
1219.359, 732.9700
1219.842, 733.4300
1220.324, 733.2547
1220.806, 732.4900
1221.288, 731.7704
1221.770, 731.2053
1222.252, 730.7607
1222.734, 730.4216
1223.216, 730.1023
1223.699, 729.7009
1224.181, 729.3484
1224.663, 729.3244
1225.145, 729.4100
1225.627, 729.1730
1226.109, 728.7857
1226.591, 728.5193
1227.073, 728.4756
1227.556, 728.9662
1228.038, 730.0862
1228.520, 730.6011
1229.002, 729.0860
1229.484, 727.8109
1229.966, 728.0593
1230.448, 728.7379
1230.930, 729.4262
1231.412, 729.8551
1231.895, 729.6083
1232.377, 728.8575
1232.859, 728.3344
1233.341, 728.1340
1233.823, 728.0265
1234.305, 728.2395
1234.787, 728.0695
1235.269, 727.2322
1235.751, 726.4145
1236.234, 725.8491
1236.716, 725.6879
1237.198, 726.1805
1237.680, 727.0753
1238.162, 727.6710
1238.644, 727.9589
1239.126, 727.6113
1239.608, 726.6995
1240.091, 725.9670
1240.573, 725.5724
1241.055, 725.7120
1241.537, 726.4436
1242.019, 726.9548
1242.501, 726.4383
1242.983, 725.4647
1243.465, 724.3239
1243.948, 723.5500
1244.430, 724.4832
1244.912, 725.9906
1245.394, 725.8315
1245.876, 724.3570
1246.358, 723.6932
1246.840, 724.4758
1247.322, 725.4072
1247.804, 726.5792
1248.286, 726.9613
1248.769, 725.4058
1249.251, 723.9326
1249.733, 723.6777
1250.215, 724.0297
1250.697, 724.6219
1251.179, 725.1766
1251.661, 724.8343
1252.143, 723.4623
1252.626, 722.3916
1253.108, 721.5863
1253.590, 721.3547
1254.072, 721.8559
1254.554, 722.0345
1255.036, 721.4138
1255.518, 720.9415
1256.000, 721.5187
1256.483, 722.4971
1256.965, 722.6553
1257.447, 722.2413
1257.929, 721.9830
1258.411, 721.7477
1258.893, 721.0175
1259.375, 719.9442
1259.857, 719.2213
1260.339, 719.0356
1260.822, 719.0727
1261.304, 719.2838
1261.786, 719.3164
1262.268, 718.6869
1262.750, 718.1214
1263.232, 718.2791
1263.714, 718.5789
1264.196, 718.3440
1264.678, 717.8730
1265.161, 717.9619
1265.643, 718.6475
1266.125, 718.6313
1266.607, 717.3420
1267.089, 716.6296
1267.571, 716.7327
1268.053, 716.8800
1268.535, 717.0023
1269.017, 716.4955
1269.500, 714.7178
1269.982, 713.2286
1270.464, 714.5106
1270.946, 717.4080
1271.428, 718.2219
1271.910, 717.4015
1272.392, 716.5483
1272.874, 715.8763
1273.357, 715.9359
1273.839, 716.5760
1274.321, 716.4928
1274.803, 715.1208
##END=



