##NAMES=Wicksite
##RRUFFID=R070274
##IDEAL CHEMISTRY=NaCa_2_Fe^2+^_2_(Fe^3+^,Mn^2+^,Fe^2+^)_4_(PO_4_)_6_&#183;2H_2_O
##LOCALITY=Big Fish River, Richardson Mountains, Dawson Mining District, Yukon Territory, Canada
##OWNER=RRUFF
##SOURCE=Royal Ontario Museum
##DESCRIPTION=Compact aggregate of very dark green to black prismatic crystals with pale yellow satterlyite in a nodule
##STATUS=The identification of this mineral has been confirmed by single-crystal X-ray diffraction.
##URL=rruff.info/R070274
180.0352, 2041.497
180.5173, 2040.894
180.9994, 2034.873
181.4815, 2018.219
181.9637, 1991.334
182.4458, 1971.297
182.9279, 1979.649
183.4100, 2008.866
183.8921, 2030.179
184.3742, 2030.940
184.8564, 2020.513
185.3385, 2021.194
185.8206, 2033.620
186.3027, 2049.501
186.7848, 2062.747
187.2669, 2073.049
187.7491, 2078.658
188.2312, 2078.380
188.7133, 2072.936
189.1954, 2062.282
189.6775, 2044.784
190.1596, 2029.765
190.6418, 2031.153
191.1239, 2048.565
191.6060, 2065.760
192.0881, 2075.338
192.5702, 2078.316
193.0524, 2084.212
193.5345, 2093.919
194.0166, 2104.187
194.4987, 2108.251
194.9808, 2105.524
195.4629, 2105.490
195.9451, 2114.918
196.4272, 2133.649
196.9093, 2145.652
197.3914, 2148.318
197.8735, 2147.570
198.3556, 2156.343
198.8378, 2176.401
199.3199, 2194.579
199.8020, 2200.455
200.2841, 2192.512
200.7662, 2195.908
201.2483, 2216.550
201.7305, 2245.223
202.2126, 2256.808
202.6947, 2246.808
203.1768, 2236.507
203.6589, 2241.771
204.1410, 2266.111
204.6232, 2279.870
205.1053, 2277.263
205.5874, 2263.786
206.0695, 2258.469
206.5516, 2263.980
207.0337, 2270.643
207.5159, 2271.392
207.9980, 2264.785
208.4801, 2258.874
208.9622, 2253.977
209.4443, 2250.536
209.9264, 2251.818
210.4086, 2260.439
210.8907, 2268.546
211.3728, 2268.227
211.8549, 2255.089
212.3370, 2248.977
212.8191, 2255.050
213.3013, 2271.429
213.7834, 2283.190
214.2655, 2290.650
214.7476, 2292.973
215.2297, 2288.625
215.7118, 2275.394
216.1940, 2261.039
216.6761, 2244.731
217.1582, 2226.893
217.6403, 2220.971
218.1224, 2233.965
218.6045, 2249.609
219.0867, 2250.258
219.5688, 2226.677
220.0509, 2210.227
220.5330, 2210.073
221.0151, 2226.688
221.4972, 2236.143
221.9794, 2235.373
222.4615, 2230.964
222.9436, 2230.085
223.4257, 2234.654
223.9078, 2238.905
224.3899, 2241.933
224.8721, 2243.891
225.3542, 2242.954
225.8363, 2237.930
226.3184, 2231.140
226.8005, 2225.804
227.2827, 2224.852
227.7648, 2219.468
228.2469, 2204.371
228.7290, 2176.615
229.2111, 2163.119
229.6932, 2170.414
230.1754, 2186.821
230.6575, 2198.033
231.1396, 2204.816
231.6217, 2204.610
232.1038, 2194.370
232.5859, 2170.833
233.0681, 2155.133
233.5502, 2150.179
234.0323, 2150.988
234.5144, 2150.272
234.9965, 2146.394
235.4786, 2143.771
235.9608, 2143.742
236.4429, 2146.560
236.9250, 2150.906
237.4071, 2157.855
237.8892, 2165.636
238.3713, 2171.604
238.8535, 2176.002
239.3356, 2178.127
239.8177, 2177.029
240.2998, 2171.151
240.7819, 2168.027
241.2640, 2167.970
241.7462, 2170.434
242.2283, 2174.877
242.7104, 2183.221
243.1925, 2190.330
243.6746, 2193.604
244.1567, 2190.419
244.6389, 2192.865
245.1210, 2203.730
245.6031, 2218.533
246.0852, 2229.447
246.5673, 2235.730
247.0494, 2239.322
247.5316, 2239.848
248.0137, 2234.876
248.4958, 2235.803
248.9779, 2246.860
249.4600, 2261.431
249.9421, 2266.055
250.4243, 2254.708
250.9064, 2244.324
251.3885, 2242.449
251.8706, 2253.979
252.3527, 2256.858
252.8348, 2246.630
253.3170, 2230.542
253.7991, 2223.079
254.2812, 2228.882
254.7633, 2234.518
255.2454, 2233.734
255.7275, 2222.807
256.2097, 2220.445
256.6918, 2232.303
257.1739, 2248.871
257.6560, 2251.210
258.1381, 2232.441
258.6202, 2213.590
259.1024, 2202.899
259.5845, 2202.782
260.0666, 2201.348
260.5487, 2198.638
261.0308, 2194.574
261.5129, 2188.525
261.9951, 2179.692
262.4772, 2170.869
262.9593, 2162.225
263.4414, 2152.380
263.9235, 2149.755
264.4056, 2157.178
264.8878, 2169.176
265.3699, 2176.411
265.8520, 2178.116
266.3341, 2177.403
266.8162, 2174.997
267.2983, 2170.589
267.7805, 2166.725
268.2626, 2163.846
268.7447, 2161.052
269.2268, 2156.212
269.7089, 2148.338
270.1910, 2142.051
270.6732, 2141.362
271.1553, 2147.813
271.6374, 2141.948
272.1195, 2117.956
272.6016, 2090.151
273.0837, 2086.452
273.5659, 2112.619
274.0480, 2133.185
274.5301, 2131.008
275.0122, 2104.974
275.4943, 2089.233
275.9764, 2086.296
276.4586, 2088.930
276.9407, 2086.062
277.4228, 2077.021
277.9049, 2068.622
278.3870, 2063.142
278.8691, 2060.566
279.3513, 2060.615
279.8334, 2063.355
280.3155, 2068.549
280.7976, 2078.157
281.2798, 2092.493
281.7619, 2102.085
282.2440, 2102.528
282.7261, 2094.721
283.2082, 2084.012
283.6903, 2069.272
284.1725, 2055.786
284.6546, 2050.502
285.1367, 2053.260
285.6188, 2058.862
286.1009, 2067.656
286.5830, 2078.026
287.0652, 2082.846
287.5473, 2081.781
288.0294, 2076.931
288.5115, 2068.163
288.9936, 2056.262
289.4757, 2048.069
289.9579, 2047.234
290.4400, 2051.357
290.9221, 2054.736
291.4042, 2057.497
291.8863, 2057.936
292.3684, 2052.543
292.8506, 2042.747
293.3327, 2034.753
293.8148, 2031.395
294.2969, 2030.479
294.7790, 2027.196
295.2611, 2021.529
295.7433, 2016.404
296.2254, 1995.244
296.7075, 2018.816
297.1896, 2031.631
297.6717, 2034.268
298.1538, 1996.240
298.6360, 2010.722
299.1181, 2004.160
299.6002, 1996.736
300.0823, 2018.609
300.5644, 1986.495
301.0465, 2007.903
301.5287, 2007.947
302.0108, 2017.768
302.4929, 2006.416
302.9750, 2001.603
303.4571, 2017.972
303.9392, 2022.612
304.4214, 2008.822
304.9035, 2019.265
305.3856, 1986.412
305.8677, 1991.552
306.3498, 2013.084
306.8319, 2000.359
307.3141, 2011.189
307.7962, 2013.048
308.2783, 1974.137
308.7604, 2006.129
309.2425, 2007.458
309.7246, 1977.303
310.2068, 2006.865
310.6889, 1981.050
311.1710, 1978.356
311.6531, 1974.635
312.1352, 1974.145
312.6173, 1978.790
313.0995, 1992.102
313.5816, 2000.870
314.0637, 1992.948
314.5458, 1976.544
315.0279, 1967.052
315.5100, 1978.784
315.9922, 1992.638
316.4743, 1997.238
316.9564, 1988.541
317.4385, 1981.942
317.9206, 1986.939
318.4027, 1996.071
318.8849, 1998.908
319.3670, 1982.628
319.8491, 1968.397
320.3312, 1965.345
320.8133, 1976.090
321.2954, 1986.086
321.7776, 1995.156
322.2597, 2001.159
322.7418, 2001.815
323.2239, 1991.760
323.7060, 1981.355
324.1881, 1971.752
324.6703, 1962.717
325.1524, 1958.327
325.6345, 1961.251
326.1166, 1967.732
326.5987, 1974.838
327.0808, 1986.364
327.5630, 1993.939
328.0451, 1993.636
328.5272, 1986.103
329.0093, 1986.023
329.4914, 2001.760
329.9735, 2017.361
330.4557, 2021.770
330.9378, 2005.958
331.4199, 1994.728
331.9020, 1991.264
332.3841, 1994.030
332.8662, 1995.645
333.3484, 1995.880
333.8305, 1995.287
334.3126, 1993.865
334.7947, 1990.928
335.2768, 1989.297
335.7589, 1989.144
336.2411, 1990.358
336.7232, 1993.385
337.2053, 1999.433
337.6874, 2003.689
338.1695, 2001.938
338.6516, 1992.688
339.1338, 1991.699
339.6159, 2001.707
340.0980, 2016.130
340.5801, 2023.423
341.0622, 2023.001
341.5443, 2021.544
342.0265, 2023.332
342.5086, 2027.401
342.9907, 2022.943
343.4728, 2008.202
343.9549, 1991.965
344.4370, 1985.277
344.9192, 1987.472
345.4013, 1992.243
345.8834, 1997.761
346.3655, 2004.147
346.8476, 2012.679
347.3297, 2023.468
347.8119, 2032.502
348.2940, 2031.812
348.7761, 2025.707
349.2582, 2027.674
349.7403, 2045.876
350.2225, 2069.479
350.7046, 2084.312
351.1867, 2090.892
351.6688, 2092.156
352.1509, 2086.375
352.6331, 2077.644
353.1152, 2072.376
353.5973, 2073.140
354.0794, 2075.540
354.5615, 2076.305
355.0436, 2075.618
355.5258, 2074.037
356.0079, 2070.465
356.4900, 2066.909
356.9721, 2064.782
357.4542, 2063.936
357.9363, 2065.762
358.4185, 2076.357
358.9006, 2089.595
359.3827, 2094.874
359.8648, 2081.776
360.3469, 2064.636
360.8290, 2048.845
361.3112, 2034.104
361.7933, 2026.495
362.2754, 2034.047
362.7575, 2047.334
363.2396, 2056.149
363.7217, 2056.680
364.2039, 2053.913
364.6860, 2046.932
365.1681, 2035.719
365.6502, 2028.785
366.1323, 2026.861
366.6144, 2029.563
367.0966, 2036.766
367.5787, 2057.658
368.0608, 2071.635
368.5429, 2076.301
369.0250, 2072.667
369.5071, 2065.597
369.9893, 2051.949
370.4714, 2038.562
370.9535, 2028.881
371.4356, 2024.813
371.9177, 2019.838
372.3998, 2011.192
372.8820, 2002.966
373.3641, 2006.637
373.8462, 2028.731
374.3283, 2045.651
374.8104, 2044.847
375.2925, 2023.945
375.7747, 2014.458
376.2568, 2019.419
376.7389, 2029.613
377.2210, 2032.622
377.7031, 2028.016
378.1852, 2022.304
378.6674, 2016.634
379.1495, 2011.488
379.6316, 2009.660
380.1137, 2011.581
380.5958, 2013.072
381.0779, 2007.448
381.5601, 1996.953
382.0422, 1994.254
382.5243, 2006.344
383.0064, 2022.092
383.4885, 2020.552
383.9706, 2003.806
384.4528, 1987.355
384.9349, 1984.657
385.4170, 1988.321
385.8991, 1984.252
386.3812, 1967.443
386.8633, 1952.172
387.3455, 1956.558
387.8276, 1972.889
388.3097, 1983.569
388.7918, 1970.959
389.2739, 1954.648
389.7560, 1953.331
390.2382, 1970.002
390.7203, 1982.610
391.2024, 1972.964
391.6845, 1954.855
392.1666, 1944.057
392.6487, 1952.422
393.1309, 1962.950
393.6130, 1969.604
394.0951, 1972.493
394.5772, 1974.152
395.0593, 1969.718
395.5414, 1967.739
396.0236, 1973.645
396.5057, 1999.889
396.9878, 2020.199
397.4699, 2033.114
397.9520, 2038.381
398.4341, 2034.798
398.9163, 2006.790
399.3984, 1986.195
399.8805, 1987.677
400.3626, 2024.636
400.8447, 2042.509
401.3268, 2029.502
401.8090, 2006.104
402.2911, 2003.137
402.7732, 2030.176
403.2553, 2052.537
403.7374, 2059.564
404.2195, 2052.249
404.7017, 2049.423
405.1838, 2052.922
405.6659, 2055.910
406.1480, 2051.205
406.6301, 2038.672
407.1122, 2026.648
407.5944, 2015.935
408.0765, 2007.278
408.5586, 2003.251
409.0407, 2003.764
409.5228, 2005.714
410.0049, 2007.930
410.4871, 2010.006
410.9692, 2010.407
411.4513, 2008.560
411.9334, 2006.724
412.4155, 2007.323
412.8976, 2010.017
413.3798, 2013.734
413.8619, 2022.387
414.3440, 2029.337
414.8261, 2023.288
415.3082, 2004.185
415.7903, 1991.614
416.2725, 2008.599
416.7546, 2035.276
417.2367, 2049.148
417.7188, 2029.467
418.2009, 2010.299
418.6830, 2007.965
419.1652, 2019.196
419.6473, 2032.110
420.1294, 2049.111
420.6115, 2062.120
421.0937, 2065.567
421.5758, 2051.705
422.0579, 2043.275
422.5400, 2049.801
423.0221, 2062.135
423.5042, 2065.232
423.9864, 2046.424
424.4685, 2032.098
424.9506, 2030.152
425.4327, 2042.040
425.9148, 2047.295
426.3969, 2041.025
426.8791, 2033.699
427.3612, 2035.306
427.8433, 2049.510
428.3254, 2061.171
428.8075, 2068.196
429.2896, 2071.216
429.7718, 2070.542
430.2539, 2064.768
430.7360, 2062.566
431.2181, 2073.205
431.7002, 2095.183
432.1823, 2104.404
432.6645, 2097.154
433.1466, 2085.546
433.6287, 2085.961
434.1108, 2096.740
434.5929, 2110.018
435.0750, 2124.450
435.5572, 2138.456
436.0393, 2148.523
436.5214, 2154.813
437.0035, 2160.817
437.4856, 2171.168
437.9677, 2182.308
438.4499, 2188.509
438.9320, 2184.860
439.4141, 2181.832
439.8962, 2189.609
440.3783, 2204.061
440.8604, 2214.764
441.3426, 2211.163
441.8247, 2206.880
442.3068, 2211.034
442.7889, 2227.047
443.2710, 2239.719
443.7531, 2244.594
444.2353, 2244.198
444.7174, 2241.399
445.1995, 2233.741
445.6816, 2226.840
446.1637, 2222.393
446.6458, 2220.068
447.1280, 2215.314
447.6101, 2202.397
448.0922, 2193.377
448.5743, 2196.878
449.0564, 2222.005
449.5385, 2234.733
450.0207, 2230.475
450.5028, 2216.852
450.9849, 2207.839
451.4670, 2204.224
451.9491, 2201.589
452.4312, 2197.824
452.9134, 2193.411
453.3955, 2192.337
453.8776, 2194.874
454.3597, 2198.762
454.8418, 2203.339
455.3239, 2207.803
455.8061, 2208.093
456.2882, 2201.550
456.7703, 2193.168
457.2524, 2190.087
457.7345, 2191.441
458.2166, 2193.660
458.6988, 2194.390
459.1809, 2194.994
459.6630, 2196.921
460.1451, 2200.398
460.6272, 2204.769
461.1093, 2210.661
461.5915, 2216.867
462.0736, 2221.765
462.5557, 2217.882
463.0378, 2219.395
463.5199, 2237.307
464.0020, 2268.437
464.4842, 2289.514
464.9663, 2285.035
465.4484, 2276.952
465.9305, 2276.826
466.4126, 2289.063
466.8947, 2302.661
467.3769, 2322.108
467.8590, 2340.925
468.3411, 2347.442
468.8232, 2334.287
469.3053, 2323.291
469.7874, 2319.868
470.2696, 2323.800
470.7517, 2332.765
471.2338, 2349.014
471.7159, 2363.316
472.1980, 2366.379
472.6801, 2358.441
473.1623, 2350.072
473.6444, 2342.206
474.1265, 2335.541
474.6086, 2330.332
475.0907, 2326.936
475.5728, 2327.660
476.0550, 2339.386
476.5371, 2354.069
477.0192, 2359.649
477.5013, 2355.798
477.9834, 2342.997
478.4655, 2314.581
478.9477, 2279.514
479.4298, 2249.434
479.9119, 2223.375
480.3940, 2208.172
480.8761, 2214.105
481.3582, 2234.713
481.8404, 2251.413
482.3225, 2258.573
482.8046, 2260.092
483.2867, 2258.147
483.7688, 2253.852
484.2509, 2242.835
484.7331, 2215.318
485.2152, 2185.827
485.6973, 2167.860
486.1794, 2169.079
486.6615, 2168.985
487.1436, 2165.936
487.6258, 2159.452
488.1079, 2145.329
488.5900, 2119.855
489.0721, 2097.258
489.5542, 2085.623
490.0363, 2084.929
490.5185, 2089.357
491.0006, 2100.254
491.4827, 2111.166
491.9648, 2111.972
492.4470, 2104.485
492.9291, 2098.891
493.4112, 2101.735
493.8933, 2105.780
494.3754, 2096.589
494.8575, 2076.406
495.3397, 2059.909
495.8218, 2064.293
496.3039, 2073.564
496.7860, 2067.230
497.2681, 2036.794
497.7502, 2012.209
498.2324, 2014.330
498.7145, 2030.363
499.1966, 2042.956
499.6787, 2051.630
500.1608, 2051.354
500.6429, 2032.674
501.1251, 1997.731
501.6072, 1979.747
502.0893, 1997.898
502.5714, 2018.285
503.0535, 2024.751
503.5356, 2010.545
504.0178, 1998.223
504.4999, 1987.147
504.9820, 1978.675
505.4641, 1975.227
505.9462, 1977.523
506.4283, 1981.442
506.9105, 1987.480
507.3926, 1993.849
507.8747, 1991.196
508.3568, 1978.946
508.8389, 1968.116
509.3210, 1967.481
509.8032, 1974.478
510.2853, 1983.214
510.7674, 1993.957
511.2495, 2002.099
511.7316, 2002.833
512.2137, 1997.457
512.6959, 1988.678
513.1780, 1972.136
513.6601, 1957.089
514.1422, 1951.245
514.6243, 1953.323
515.1064, 1954.219
515.5886, 1947.149
516.0707, 1940.047
516.5528, 1938.225
517.0349, 1945.739
517.5170, 1951.397
517.9991, 1953.773
518.4813, 1953.844
518.9634, 1952.693
519.4455, 1950.171
519.9276, 1946.570
520.4097, 1941.143
520.8918, 1934.543
521.3740, 1931.548
521.8561, 1933.916
522.3382, 1934.067
522.8203, 1922.703
523.3024, 1901.273
523.7845, 1895.681
524.2667, 1910.145
524.7488, 1929.828
525.2309, 1937.935
525.7130, 1936.376
526.1951, 1931.543
526.6772, 1924.076
527.1594, 1915.905
527.6415, 1906.692
528.1236, 1897.877
528.6057, 1895.703
529.0878, 1909.131
529.5699, 1927.093
530.0521, 1942.821
530.5342, 1956.912
531.0163, 1962.656
531.4984, 1947.056
531.9805, 1926.729
532.4626, 1919.263
532.9448, 1941.114
533.4269, 1959.220
533.9090, 1971.516
534.3911, 1977.573
534.8732, 1973.337
535.3553, 1949.811
535.8375, 1932.959
536.3196, 1938.399
536.8017, 1967.974
537.2838, 1979.307
537.7659, 1968.135
538.2480, 1953.119
538.7302, 1957.782
539.2123, 1978.647
539.6944, 1989.980
540.1765, 1982.292
540.6586, 1969.880
541.1407, 1974.829
541.6229, 1992.838
542.1050, 2008.461
542.5871, 2012.689
543.0692, 2011.312
543.5513, 2006.221
544.0334, 1997.728
544.5156, 1996.098
544.9977, 2012.939
545.4798, 2034.720
545.9619, 2050.365
546.4440, 2051.101
546.9261, 2055.618
547.4083, 2073.212
547.8904, 2094.828
548.3725, 2102.776
548.8546, 2083.073
549.3367, 2073.273
549.8188, 2086.974
550.3010, 2121.212
550.7831, 2141.478
551.2652, 2146.539
551.7473, 2141.692
552.2294, 2125.008
552.7115, 2098.567
553.1937, 2084.576
553.6758, 2085.616
554.1579, 2095.703
554.6400, 2113.790
555.1221, 2135.632
555.6042, 2148.474
556.0864, 2142.260
556.5685, 2130.881
557.0506, 2126.664
557.5327, 2128.398
558.0148, 2131.723
558.4969, 2136.542
558.9791, 2140.780
559.4612, 2142.562
559.9433, 2140.930
560.4254, 2140.875
560.9075, 2141.832
561.3896, 2145.665
561.8718, 2154.839
562.3539, 2181.697
562.8360, 2191.849
563.3181, 2175.558
563.8002, 2144.435
564.2823, 2124.762
564.7645, 2116.888
565.2466, 2120.336
565.7287, 2141.611
566.2108, 2174.586
566.6929, 2185.057
567.1750, 2172.056
567.6572, 2156.565
568.1393, 2159.441
568.6214, 2172.032
569.1035, 2175.792
569.5856, 2165.896
570.0677, 2155.079
570.5499, 2152.428
571.0320, 2156.078
571.5141, 2163.013
571.9962, 2178.437
572.4783, 2190.659
572.9604, 2192.906
573.4426, 2187.033
573.9247, 2182.881
574.4068, 2179.245
574.8889, 2180.388
575.3710, 2190.177
575.8531, 2212.028
576.3353, 2222.792
576.8174, 2216.448
577.2995, 2207.790
577.7816, 2212.389
578.2637, 2231.758
578.7458, 2248.279
579.2280, 2259.506
579.7101, 2266.625
580.1922, 2270.198
580.6743, 2270.898
581.1564, 2272.505
581.6385, 2276.665
582.1207, 2282.783
582.6028, 2293.048
583.0849, 2306.190
583.5670, 2313.040
584.0491, 2295.510
584.5313, 2277.602
585.0134, 2280.873
585.4955, 2316.784
585.9776, 2346.688
586.4597, 2357.847
586.9418, 2359.050
587.4240, 2359.566
587.9061, 2352.500
588.3882, 2356.573
588.8703, 2378.473
589.3524, 2411.519
589.8345, 2437.456
590.3167, 2456.965
590.7988, 2466.378
591.2809, 2459.222
591.7630, 2439.906
592.2451, 2431.052
592.7272, 2432.816
593.2094, 2441.264
593.6915, 2461.451
594.1736, 2484.308
594.6557, 2489.547
595.1378, 2469.887
595.6199, 2449.392
596.1021, 2445.506
596.5842, 2452.322
597.0663, 2461.457
597.5485, 2478.596
598.0306, 2488.512
598.5127, 2479.960
598.9948, 2458.394
599.4769, 2447.815
599.9590, 2462.359
600.4412, 2472.388
600.9233, 2465.559
601.4054, 2440.073
601.8875, 2426.264
602.3696, 2426.471
602.8517, 2432.924
603.3339, 2440.855
603.8160, 2450.040
604.2981, 2457.190
604.7802, 2462.558
605.2623, 2463.406
605.7444, 2450.962
606.2266, 2430.678
606.7087, 2417.805
607.1908, 2421.152
607.6729, 2430.369
608.1550, 2442.778
608.6371, 2455.216
609.1193, 2457.831
609.6014, 2433.520
610.0835, 2409.656
610.5656, 2401.045
611.0477, 2410.885
611.5298, 2417.832
612.0120, 2420.067
612.4941, 2420.241
612.9762, 2420.478
613.4583, 2422.047
613.9404, 2418.136
614.4225, 2406.090
614.9047, 2392.735
615.3868, 2390.504
615.8689, 2398.160
616.3510, 2399.100
616.8331, 2385.992
617.3152, 2366.997
617.7974, 2353.818
618.2795, 2345.536
618.7616, 2337.830
619.2437, 2328.057
619.7258, 2318.221
620.2079, 2309.853
620.6901, 2303.062
621.1722, 2296.414
621.6543, 2289.780
622.1364, 2282.837
622.6185, 2275.494
623.1006, 2267.954
623.5828, 2259.073
624.0649, 2246.075
624.5470, 2234.286
625.0291, 2231.961
625.5112, 2241.875
625.9933, 2246.034
626.4755, 2240.138
626.9576, 2228.181
627.4397, 2218.579
627.9218, 2210.789
628.4039, 2200.679
628.8860, 2180.733
629.3682, 2160.120
629.8503, 2154.014
630.3324, 2160.584
630.8145, 2166.128
631.2966, 2161.757
631.7787, 2154.091
632.2609, 2148.055
632.7430, 2145.248
633.2251, 2140.215
633.7072, 2122.419
634.1893, 2108.001
634.6714, 2112.659
635.1536, 2154.563
635.6357, 2173.838
636.1178, 2158.806
636.5999, 2126.841
637.0820, 2108.685
637.5641, 2104.833
638.0463, 2105.859
638.5284, 2110.937
639.0105, 2117.048
639.4926, 2116.378
639.9747, 2110.330
640.4568, 2107.023
640.9390, 2114.021
641.4211, 2124.285
641.9032, 2133.077
642.3853, 2140.009
642.8674, 2140.859
643.3495, 2125.986
643.8317, 2109.747
644.3138, 2102.008
644.7959, 2107.375
645.2780, 2115.633
645.7601, 2132.249
646.2422, 2146.959
646.7244, 2144.242
647.2065, 2118.651
647.6886, 2104.978
648.1707, 2112.405
648.6528, 2130.499
649.1349, 2140.635
649.6171, 2143.063
650.0992, 2140.051
650.5813, 2126.525
651.0634, 2111.941
651.5455, 2110.183
652.0276, 2118.947
652.5098, 2125.958
652.9919, 2122.514
653.4740, 2116.952
653.9561, 2114.226
654.4382, 2115.105
654.9203, 2117.153
655.4025, 2120.679
655.8846, 2124.783
656.3667, 2129.490
656.8488, 2136.785
657.3309, 2138.189
657.8130, 2132.107
658.2952, 2122.494
658.7773, 2112.653
659.2594, 2103.025
659.7415, 2101.204
660.2236, 2113.349
660.7057, 2127.197
661.1879, 2124.121
661.6700, 2108.188
662.1521, 2090.697
662.6342, 2068.835
663.1163, 2054.331
663.5984, 2059.981
664.0806, 2082.865
664.5627, 2098.671
665.0448, 2095.642
665.5269, 2089.247
666.0090, 2085.185
666.4911, 2083.274
666.9733, 2086.817
667.4554, 2100.357
667.9375, 2110.346
668.4196, 2102.043
668.9017, 2076.207
669.3839, 2058.089
669.8660, 2050.305
670.3481, 2048.814
670.8302, 2052.566
671.3123, 2058.835
671.7944, 2060.881
672.2766, 2051.307
672.7587, 2045.618
673.2408, 2061.156
673.7229, 2086.991
674.2050, 2102.027
674.6871, 2088.759
675.1693, 2076.583
675.6514, 2074.184
676.1335, 2079.706
676.6156, 2084.180
677.0977, 2088.953
677.5798, 2089.332
678.0620, 2079.464
678.5441, 2061.587
679.0262, 2062.067
679.5083, 2082.102
679.9904, 2100.896
680.4725, 2098.193
680.9547, 2084.017
681.4368, 2077.254
681.9189, 2081.111
682.4010, 2082.787
682.8831, 2067.445
683.3652, 2048.611
683.8474, 2040.326
684.3295, 2052.063
684.8116, 2064.411
685.2937, 2077.384
685.7758, 2088.221
686.2579, 2092.228
686.7401, 2086.148
687.2222, 2082.409
687.7043, 2084.198
688.1864, 2088.679
688.6685, 2088.818
689.1506, 2084.838
689.6328, 2080.258
690.1149, 2074.656
690.5970, 2070.635
691.0791, 2073.505
691.5612, 2082.085
692.0433, 2090.216
692.5255, 2096.214
693.0076, 2099.567
693.4897, 2098.573
693.9718, 2092.564
694.4539, 2089.734
694.9360, 2094.411
695.4182, 2099.543
695.9003, 2101.165
696.3824, 2098.059
696.8645, 2096.998
697.3466, 2098.966
697.8287, 2100.396
698.3109, 2095.254
698.7930, 2085.429
699.2751, 2081.836
699.7572, 2087.656
700.2393, 2095.374
700.7214, 2097.465
701.2036, 2096.009
701.6857, 2094.427
702.1678, 2092.439
702.6499, 2092.282
703.1320, 2096.336
703.6141, 2102.811
704.0963, 2107.176
704.5784, 2108.172
705.0605, 2108.717
705.5426, 2109.482
706.0247, 2110.267
706.5068, 2110.038
706.9890, 2108.685
707.4711, 2107.241
707.9532, 2106.350
708.4353, 2105.741
708.9174, 2105.349
709.3995, 2104.993
709.8817, 2102.839
710.3638, 2096.662
710.8459, 2088.761
711.3280, 2080.117
711.8101, 2070.258
712.2922, 2064.595
712.7744, 2063.449
713.2565, 2068.053
713.7386, 2080.516
714.2207, 2109.571
714.7028, 2122.043
715.1849, 2111.496
715.6671, 2095.748
716.1492, 2096.830
716.6313, 2113.004
717.1134, 2123.726
717.5955, 2125.419
718.0776, 2120.734
718.5598, 2106.170
719.0419, 2088.437
719.5240, 2080.883
720.0061, 2097.834
720.4882, 2114.224
720.9703, 2114.814
721.4525, 2106.767
721.9346, 2106.518
722.4167, 2128.608
722.8988, 2142.334
723.3809, 2139.740
723.8630, 2124.766
724.3452, 2112.286
724.8273, 2102.237
725.3094, 2095.363
725.7915, 2092.646
726.2736, 2093.227
726.7557, 2095.532
727.2379, 2099.395
727.7200, 2103.493
728.2021, 2106.933
728.6842, 2110.257
729.1663, 2114.224
729.6484, 2118.911
730.1306, 2122.713
730.6127, 2125.263
731.0948, 2126.661
731.5769, 2126.637
732.0590, 2124.304
732.5411, 2124.424
733.0233, 2127.507
733.5054, 2131.897
733.9875, 2137.883
734.4696, 2144.606
734.9517, 2144.887
735.4338, 2137.372
735.9160, 2126.915
736.3981, 2114.385
736.8802, 2103.376
737.3623, 2099.711
737.8444, 2108.196
738.3266, 2117.886
738.8087, 2124.008
739.2908, 2129.127
739.7729, 2137.515
740.2551, 2156.920
740.7372, 2165.524
741.2193, 2157.899
741.7014, 2140.637
742.1835, 2124.505
742.6656, 2109.520
743.1478, 2105.766
743.6299, 2123.503
744.1120, 2145.308
744.5941, 2136.935
745.0762, 2108.374
745.5583, 2090.396
746.0405, 2111.851
746.5226, 2135.543
747.0047, 2138.468
747.4868, 2124.226
747.9689, 2116.062
748.4510, 2120.078
748.9332, 2126.422
749.4153, 2133.735
749.8974, 2141.424
750.3795, 2142.115
750.8616, 2135.147
751.3438, 2126.439
751.8259, 2115.982
752.3080, 2107.318
752.7901, 2111.231
753.2722, 2127.314
753.7543, 2143.370
754.2365, 2152.563
754.7186, 2157.481
755.2007, 2159.801
755.6828, 2159.670
756.1649, 2157.439
756.6470, 2150.370
757.1292, 2143.658
757.6113, 2140.790
758.0934, 2143.024
758.5755, 2142.633
759.0576, 2138.357
759.5397, 2135.662
760.0219, 2145.658
760.5040, 2162.182
760.9861, 2161.622
761.4682, 2136.647
761.9503, 2114.965
762.4324, 2125.680
762.9146, 2148.969
763.3967, 2161.368
763.8788, 2151.620
764.3609, 2139.778
764.8430, 2123.135
765.3251, 2109.448
765.8073, 2108.957
766.2894, 2125.539
766.7715, 2140.349
767.2536, 2151.220
767.7357, 2158.326
768.2178, 2162.047
768.7000, 2162.270
769.1821, 2157.741
769.6642, 2143.863
770.1463, 2131.908
770.6284, 2132.423
771.1105, 2141.757
771.5927, 2152.853
772.0748, 2172.599
772.5569, 2183.103
773.0390, 2174.420
773.5211, 2154.846
774.0032, 2144.919
774.4854, 2145.949
774.9675, 2152.530
775.4496, 2166.246
775.9317, 2181.683
776.4138, 2183.535
776.8959, 2173.814
777.3781, 2163.534
777.8602, 2158.150
778.3423, 2154.907
778.8244, 2151.561
779.3065, 2148.300
779.7886, 2146.052
780.2708, 2147.014
780.7529, 2146.877
781.2350, 2142.073
781.7171, 2133.898
782.1992, 2137.286
782.6813, 2156.648
783.1635, 2169.687
783.6456, 2157.314
784.1277, 2131.004
784.6098, 2133.615
785.0919, 2162.077
785.5740, 2185.875
786.0562, 2179.115
786.5383, 2163.978
787.0204, 2158.827
787.5025, 2164.803
787.9846, 2171.107
788.4667, 2175.665
788.9489, 2179.584
789.4310, 2184.587
789.9131, 2191.128
790.3952, 2187.197
790.8773, 2170.109
791.3594, 2155.217
791.8416, 2158.910
792.3237, 2173.091
792.8058, 2173.312
793.2879, 2158.676
793.7700, 2147.807
794.2521, 2160.290
794.7343, 2177.519
795.2164, 2183.337
795.6985, 2173.005
796.1806, 2164.212
796.6627, 2158.515
797.1448, 2155.205
797.6270, 2153.428
798.1091, 2152.733
798.5912, 2159.559
799.0733, 2175.934
799.5554, 2189.365
800.0375, 2182.949
800.5197, 2166.187
801.0018, 2158.321
801.4839, 2163.051
801.9660, 2167.559
802.4481, 2158.855
802.9302, 2149.758
803.4124, 2152.258
803.8945, 2177.791
804.3766, 2192.299
804.8587, 2190.119
805.3408, 2184.373
805.8229, 2188.955
806.3051, 2203.750
806.7872, 2209.454
807.2693, 2203.380
807.7514, 2194.623
808.2335, 2190.984
808.7156, 2191.314
809.1978, 2195.323
809.6799, 2205.718
810.1620, 2210.375
810.6441, 2199.567
811.1262, 2183.197
811.6083, 2170.814
812.0905, 2162.424
812.5726, 2159.037
813.0547, 2162.572
813.5368, 2167.502
814.0189, 2164.078
814.5010, 2155.029
814.9832, 2158.722
815.4653, 2180.558
815.9474, 2203.212
816.4295, 2210.720
816.9116, 2209.749
817.3937, 2208.075
817.8759, 2205.321
818.3580, 2206.467
818.8401, 2219.187
819.3222, 2231.824
819.8043, 2232.347
820.2864, 2217.625
820.7686, 2203.801
821.2507, 2190.740
821.7328, 2183.844
822.2149, 2196.381
822.6970, 2220.314
823.1791, 2235.081
823.6613, 2234.380
824.1434, 2229.091
824.6255, 2224.013
825.1076, 2219.330
825.5897, 2215.330
826.0718, 2213.914
826.5540, 2210.215
827.0361, 2202.752
827.5182, 2194.637
828.0003, 2186.499
828.4824, 2178.543
828.9645, 2188.081
829.4467, 2222.009
829.9288, 2255.504
830.4109, 2258.953
830.8930, 2243.694
831.3751, 2226.314
831.8572, 2209.286
832.3394, 2194.906
832.8215, 2180.460
833.3036, 2171.141
833.7857, 2172.998
834.2678, 2191.513
834.7499, 2204.720
835.2321, 2210.067
835.7142, 2212.600
836.1963, 2220.417
836.6784, 2231.053
837.1605, 2234.484
837.6426, 2227.759
838.1248, 2218.374
838.6069, 2209.943
839.0890, 2203.074
839.5711, 2198.372
840.0532, 2194.150
840.5353, 2196.091
841.0175, 2208.516
841.4996, 2222.790
841.9817, 2230.930
842.4638, 2232.999
842.9459, 2226.046
843.4280, 2207.386
843.9102, 2192.285
844.3923, 2203.946
844.8744, 2228.346
845.3565, 2241.740
845.8386, 2236.326
846.3207, 2231.813
846.8029, 2239.448
847.2850, 2249.316
847.7671, 2252.180
848.2492, 2243.201
848.7313, 2241.602
849.2134, 2250.960
849.6956, 2258.575
850.1777, 2245.892
850.6598, 2220.505
851.1419, 2212.769
851.6240, 2228.271
852.1061, 2240.375
852.5883, 2215.107
853.0704, 2185.435
853.5525, 2184.772
854.0346, 2232.282
854.5167, 2264.438
854.9988, 2272.744
855.4810, 2271.612
855.9631, 2270.380
856.4452, 2269.059
856.9273, 2264.456
857.4094, 2255.980
857.8915, 2251.399
858.3737, 2263.600
858.8558, 2280.715
859.3379, 2286.793
859.8200, 2279.293
860.3021, 2270.531
860.7842, 2261.676
861.2664, 2256.151
861.7485, 2257.351
862.2306, 2266.670
862.7127, 2267.021
863.1948, 2256.163
863.6769, 2246.230
864.1591, 2249.892
864.6412, 2259.915
865.1233, 2255.559
865.6054, 2237.630
866.0875, 2225.466
866.5696, 2235.513
867.0518, 2250.818
867.5339, 2261.831
868.0160, 2267.717
868.4981, 2269.973
868.9802, 2266.830
869.4623, 2263.681
869.9445, 2261.201
870.4266, 2260.903
870.9087, 2275.888
871.3908, 2303.998
871.8729, 2320.769
872.3550, 2297.084
872.8372, 2267.553
873.3193, 2263.740
873.8014, 2281.688
874.2835, 2294.935
874.7656, 2291.067
875.2477, 2289.630
875.7299, 2296.401
876.2120, 2309.068
876.6941, 2320.598
877.1762, 2330.964
877.6583, 2334.424
878.1404, 2323.417
878.6226, 2309.389
879.1047, 2310.942
879.5869, 2321.768
880.0690, 2325.665
880.5511, 2301.018
881.0332, 2286.668
881.5153, 2303.048
881.9974, 2334.071
882.4796, 2347.269
882.9617, 2339.971
883.4438, 2329.330
883.9259, 2318.358
884.4080, 2308.109
884.8901, 2298.601
885.3723, 2291.301
885.8544, 2289.619
886.3365, 2294.847
886.8186, 2305.791
887.3007, 2327.753
887.7828, 2352.656
888.2650, 2369.819
888.7471, 2379.549
889.2292, 2377.504
889.7113, 2357.772
890.1934, 2338.736
890.6755, 2350.540
891.1577, 2382.795
891.6398, 2402.698
892.1219, 2402.599
892.6040, 2396.908
893.0861, 2390.570
893.5682, 2386.302
894.0504, 2387.407
894.5325, 2398.177
895.0146, 2404.404
895.4967, 2405.096
895.9788, 2403.081
896.4609, 2398.383
896.9431, 2392.315
897.4252, 2395.241
897.9073, 2407.827
898.3894, 2419.461
898.8715, 2419.202
899.3536, 2416.760
899.8358, 2420.869
900.3179, 2432.853
900.8000, 2444.430
901.2821, 2453.384
901.7642, 2463.830
902.2463, 2480.945
902.7285, 2501.956
903.2106, 2502.470
903.6927, 2483.467
904.1748, 2470.783
904.6569, 2487.846
905.1390, 2513.184
905.6212, 2526.051
906.1033, 2528.006
906.5854, 2528.656
907.0675, 2530.595
907.5496, 2531.339
908.0317, 2530.275
908.5139, 2527.653
908.9960, 2520.754
909.4781, 2509.574
909.9602, 2511.641
910.4423, 2538.568
910.9244, 2572.663
911.4066, 2594.552
911.8887, 2607.581
912.3708, 2618.180
912.8529, 2633.962
913.3350, 2639.523
913.8171, 2622.979
914.2993, 2601.800
914.7814, 2601.935
915.2635, 2625.522
915.7456, 2641.866
916.2277, 2646.142
916.7098, 2644.541
917.1920, 2634.550
917.6741, 2627.022
918.1562, 2643.449
918.6383, 2699.563
919.1204, 2737.344
919.6025, 2722.011
920.0847, 2696.157
920.5668, 2689.775
921.0489, 2707.693
921.5310, 2705.783
922.0131, 2680.938
922.4952, 2662.088
922.9774, 2688.126
923.4595, 2727.543
923.9416, 2726.087
924.4237, 2683.914
924.9058, 2652.332
925.3879, 2656.798
925.8701, 2671.718
926.3522, 2690.461
926.8343, 2711.022
927.3164, 2712.098
927.7985, 2690.407
928.2806, 2680.070
928.7628, 2704.715
929.2449, 2742.204
929.7270, 2758.656
930.2091, 2759.334
930.6912, 2758.965
931.1733, 2765.237
931.6555, 2769.179
932.1376, 2764.285
932.6197, 2757.043
933.1018, 2759.404
933.5839, 2772.989
934.0660, 2784.797
934.5482, 2793.357
935.0303, 2796.994
935.5124, 2789.051
935.9945, 2775.996
936.4766, 2768.963
936.9587, 2770.584
937.4409, 2777.886
937.9230, 2792.653
938.4051, 2810.933
938.8872, 2830.483
939.3693, 2852.355
939.8514, 2869.339
940.3336, 2880.590
940.8157, 2892.055
941.2978, 2915.102
941.7799, 2938.354
942.2620, 2939.819
942.7441, 2920.053
943.2263, 2909.803
943.7084, 2930.596
944.1905, 2953.641
944.6726, 2967.575
945.1547, 2973.733
945.6368, 2978.186
946.1190, 2980.424
946.6011, 2990.879
947.0832, 3019.654
947.5653, 3053.196
948.0474, 3074.481
948.5295, 3086.491
949.0117, 3096.160
949.4938, 3100.687
949.9759, 3109.926
950.4580, 3127.017
950.9401, 3148.553
951.4222, 3168.782
951.9044, 3187.692
952.3865, 3211.542
952.8686, 3242.586
953.3507, 3272.659
953.8328, 3291.475
954.3149, 3304.887
954.7971, 3320.124
955.2792, 3338.346
955.7613, 3358.364
956.2434, 3385.161
956.7255, 3407.369
957.2076, 3414.759
957.6898, 3408.099
958.1719, 3415.200
958.6540, 3435.960
959.1361, 3459.449
959.6182, 3482.152
960.1003, 3501.225
960.5825, 3509.656
961.0646, 3510.490
961.5467, 3522.325
962.0288, 3560.604
962.5109, 3591.454
962.9930, 3605.448
963.4752, 3607.886
963.9573, 3610.964
964.4394, 3614.070
964.9215, 3612.997
965.4036, 3603.861
965.8857, 3595.165
966.3679, 3594.637
966.8500, 3598.277
967.3321, 3600.678
967.8142, 3605.339
968.2963, 3610.913
968.7784, 3608.712
969.2606, 3599.421
969.7427, 3546.469
970.2248, 3561.658
970.7069, 3556.725
971.1890, 3555.887
971.6711, 3595.335
972.1533, 3547.595
972.6354, 3557.679
973.1175, 3555.351
973.5996, 3540.052
974.0817, 3535.213
974.5638, 3546.206
975.0460, 3547.525
975.5281, 3520.978
976.0102, 3485.063
976.4923, 3482.678
976.9744, 3504.428
977.4565, 3522.716
977.9387, 3524.134
978.4208, 3521.643
978.9029, 3519.261
979.3850, 3515.681
979.8671, 3508.620
980.3492, 3497.434
980.8314, 3486.217
981.3135, 3474.937
981.7956, 3465.716
982.2777, 3463.725
982.7598, 3463.845
983.2419, 3457.828
983.7241, 3443.591
984.2062, 3430.777
984.6883, 3420.300
985.1704, 3414.083
985.6525, 3413.097
986.1346, 3417.221
986.6168, 3427.508
987.0989, 3443.652
987.5810, 3456.080
988.0631, 3454.763
988.5452, 3451.026
989.0273, 3460.152
989.5095, 3475.209
989.9916, 3477.707
990.4737, 3445.020
990.9558, 3431.870
991.4379, 3454.080
991.9200, 3484.988
992.4022, 3476.107
992.8843, 3438.132
993.3664, 3418.596
993.8485, 3428.488
994.3306, 3443.964
994.8127, 3456.392
995.2949, 3461.879
995.7770, 3451.974
996.2591, 3421.851
996.7412, 3416.701
997.2233, 3444.673
997.7054, 3468.035
998.1876, 3459.169
998.6697, 3431.516
999.1518, 3413.434
999.6339, 3403.055
1000.116, 3392.623
1000.598, 3369.788
1001.080, 3356.699
1001.562, 3369.305
1002.044, 3392.421
1002.527, 3398.150
1003.009, 3385.169
1003.491, 3372.900
1003.973, 3364.746
1004.455, 3359.288
1004.937, 3357.694
1005.419, 3356.703
1005.901, 3351.231
1006.384, 3338.243
1006.866, 3330.725
1007.348, 3335.717
1007.830, 3337.870
1008.312, 3327.671
1008.794, 3307.118
1009.276, 3284.719
1009.758, 3261.429
1010.240, 3244.262
1010.723, 3244.397
1011.205, 3244.959
1011.687, 3231.810
1012.169, 3211.240
1012.651, 3202.363
1013.133, 3214.729
1013.615, 3208.047
1014.097, 3169.418
1014.580, 3128.285
1015.062, 3134.112
1015.544, 3164.861
1016.026, 3178.267
1016.508, 3164.576
1016.990, 3144.550
1017.472, 3117.439
1017.954, 3095.114
1018.436, 3086.231
1018.919, 3089.973
1019.401, 3086.516
1019.883, 3075.847
1020.365, 3062.534
1020.847, 3048.202
1021.329, 3033.318
1021.811, 3014.027
1022.293, 2994.895
1022.776, 2987.104
1023.258, 3002.178
1023.740, 3013.597
1024.222, 3019.653
1024.704, 3019.761
1025.186, 3009.136
1025.668, 2991.741
1026.150, 2982.153
1026.632, 2982.760
1027.115, 2985.266
1027.597, 2989.478
1028.079, 2989.644
1028.561, 2977.587
1029.043, 2954.466
1029.525, 2953.036
1030.007, 2977.593
1030.489, 2987.764
1030.972, 2955.347
1031.454, 2909.173
1031.936, 2886.473
1032.418, 2881.098
1032.900, 2880.090
1033.382, 2881.625
1033.864, 2884.477
1034.346, 2889.721
1034.828, 2894.531
1035.311, 2895.881
1035.793, 2893.931
1036.275, 2889.612
1036.757, 2882.961
1037.239, 2874.148
1037.721, 2855.986
1038.203, 2841.945
1038.685, 2847.417
1039.167, 2869.267
1039.650, 2872.876
1040.132, 2853.182
1040.614, 2837.029
1041.096, 2833.665
1041.578, 2838.530
1042.060, 2848.143
1042.542, 2859.913
1043.024, 2869.498
1043.507, 2878.059
1043.989, 2878.600
1044.471, 2862.768
1044.953, 2847.000
1045.435, 2845.482
1045.917, 2856.914
1046.399, 2866.296
1046.881, 2873.034
1047.364, 2872.243
1047.846, 2851.435
1048.328, 2830.453
1048.810, 2825.476
1049.292, 2832.645
1049.774, 2831.643
1050.256, 2818.300
1050.738, 2811.903
1051.220, 2818.098
1051.703, 2827.787
1052.185, 2824.275
1052.667, 2816.290
1053.149, 2820.656
1053.631, 2844.470
1054.113, 2862.335
1054.595, 2864.600
1055.077, 2862.505
1055.559, 2860.397
1056.042, 2858.579
1056.524, 2859.968
1057.006, 2864.064
1057.488, 2866.776
1057.970, 2867.684
1058.452, 2864.625
1058.934, 2853.608
1059.416, 2838.356
1059.899, 2825.764
1060.381, 2815.426
1060.863, 2810.056
1061.345, 2810.646
1061.827, 2812.903
1062.309, 2810.283
1062.791, 2807.506
1063.273, 2813.267
1063.755, 2828.047
1064.238, 2840.213
1064.720, 2844.213
1065.202, 2848.315
1065.684, 2854.812
1066.166, 2863.027
1066.648, 2873.377
1067.130, 2884.173
1067.612, 2887.223
1068.094, 2875.473
1068.577, 2866.109
1069.059, 2877.058
1069.541, 2890.075
1070.023, 2884.827
1070.505, 2854.777
1070.987, 2846.919
1071.469, 2863.417
1071.951, 2879.854
1072.434, 2875.725
1072.916, 2864.961
1073.398, 2864.045
1073.880, 2870.767
1074.362, 2876.309
1074.844, 2875.095
1075.326, 2880.052
1075.808, 2896.583
1076.291, 2913.160
1076.773, 2910.364
1077.255, 2894.794
1077.737, 2885.241
1078.219, 2884.635
1078.701, 2886.145
1079.183, 2885.848
1079.665, 2887.578
1080.147, 2894.397
1080.630, 2904.853
1081.112, 2910.782
1081.594, 2912.224
1082.076, 2909.691
1082.558, 2900.063
1083.040, 2892.903
1083.522, 2903.820
1084.004, 2919.258
1084.486, 2919.636
1084.969, 2895.242
1085.451, 2877.987
1085.933, 2868.321
1086.415, 2864.617
1086.897, 2868.694
1087.379, 2876.432
1087.861, 2881.802
1088.343, 2884.498
1088.826, 2884.003
1089.308, 2873.741
1089.790, 2869.189
1090.272, 2874.657
1090.754, 2884.968
1091.236, 2894.557
1091.718, 2902.272
1092.200, 2898.607
1092.682, 2880.687
1093.165, 2873.057
1093.647, 2909.144
1094.129, 2943.736
1094.611, 2943.071
1095.093, 2913.779
1095.575, 2907.258
1096.057, 2924.844
1096.539, 2929.814
1097.022, 2899.751
1097.504, 2869.218
1097.986, 2879.756
1098.468, 2909.609
1098.950, 2928.891
1099.432, 2930.099
1099.914, 2928.056
1100.396, 2921.846
1100.879, 2915.488
1101.361, 2910.860
1101.843, 2908.576
1102.325, 2912.933
1102.807, 2921.188
1103.289, 2923.126
1103.771, 2904.488
1104.253, 2893.941
1104.735, 2899.399
1105.218, 2910.574
1105.700, 2910.866
1106.182, 2903.749
1106.664, 2911.027
1107.146, 2935.521
1107.628, 2946.385
1108.110, 2899.881
1108.592, 2859.638
1109.074, 2869.133
1109.557, 2914.038
1110.039, 2938.761
1110.521, 2943.336
1111.003, 2936.732
1111.485, 2917.348
1111.967, 2900.767
1112.449, 2903.758
1112.931, 2916.739
1113.414, 2931.630
1113.896, 2950.029
1114.378, 2954.498
1114.860, 2942.830
1115.342, 2926.310
1115.824, 2901.806
1116.306, 2884.320
1116.788, 2911.612
1117.271, 2962.962
1117.753, 2992.474
1118.235, 2965.324
1118.717, 2944.120
1119.199, 2930.872
1119.681, 2928.010
1120.163, 2947.014
1120.645, 2977.007
1121.127, 2979.552
1121.609, 2956.788
1122.092, 2944.293
1122.574, 2982.166
1123.056, 3005.185
1123.538, 2984.708
1124.020, 2943.333
1124.502, 2924.963
1124.984, 2927.555
1125.466, 2935.044
1125.949, 2945.001
1126.431, 2954.951
1126.913, 2963.829
1127.395, 2971.386
1127.877, 2975.399
1128.359, 2977.093
1128.841, 2988.490
1129.323, 3010.315
1129.806, 3030.580
1130.288, 3047.647
1130.770, 3055.590
1131.252, 3038.145
1131.734, 3012.695
1132.216, 3004.959
1132.698, 3028.099
1133.180, 3025.836
1133.662, 2990.505
1134.145, 2962.241
1134.627, 2972.191
1135.109, 3001.107
1135.591, 3024.875
1136.073, 3042.557
1136.555, 3051.151
1137.037, 3042.058
1137.519, 3034.699
1138.001, 3029.352
1138.484, 3027.806
1138.966, 3035.423
1139.448, 3047.421
1139.930, 3052.520
1140.412, 3050.303
1140.894, 3043.291
1141.376, 3021.794
1141.858, 3010.126
1142.341, 3018.100
1142.823, 3034.898
1143.305, 3040.540
1143.787, 3037.360
1144.269, 3036.566
1144.751, 3040.427
1145.233, 3042.167
1145.715, 3031.729
1146.198, 3024.728
1146.680, 3031.990
1147.162, 3049.252
1147.644, 3057.091
1148.126, 3055.713
1148.608, 3047.154
1149.090, 3029.333
1149.572, 3011.660
1150.054, 2996.084
1150.536, 2987.905
1151.019, 2995.810
1151.501, 3021.921
1151.983, 3027.446
1152.465, 3011.510
1152.947, 2997.603
1153.429, 2998.849
1153.911, 3007.278
1154.393, 3024.019
1154.876, 3039.980
1155.358, 3035.971
1155.840, 2997.706
1156.322, 2984.454
1156.804, 3001.193
1157.286, 3021.503
1157.768, 3022.739
1158.250, 3016.262
1158.733, 3015.590
1159.215, 3019.742
1159.697, 3023.467
1160.179, 3026.460
1160.661, 3027.964
1161.143, 3027.970
1161.625, 3026.214
1162.107, 3018.795
1162.589, 3011.051
1163.072, 3013.945
1163.554, 3027.494
1164.036, 3038.647
1164.518, 3049.620
1165.000, 3047.051
1165.482, 3021.767
1165.964, 2990.742
1166.446, 2987.892
1166.928, 3002.681
1167.411, 3011.630
1167.893, 3009.697
1168.375, 3007.068
1168.857, 3003.488
1169.339, 3005.117
1169.821, 3018.369
1170.303, 3035.602
1170.785, 3032.109
1171.268, 3013.253
1171.750, 2996.167
1172.232, 2985.854
1172.714, 2979.262
1173.196, 2978.656
1173.678, 2978.078
1174.160, 2971.078
1174.642, 2960.585
1175.125, 2973.444
1175.607, 3004.197
1176.089, 3022.062
1176.571, 3002.180
1177.053, 2980.153
1177.535, 2968.627
1178.017, 2964.650
1178.499, 2969.344
1178.981, 2982.485
1179.464, 2976.733
1179.946, 2953.385
1180.428, 2937.454
1180.910, 2950.193
1181.392, 2968.488
1181.874, 2983.618
1182.356, 2994.801
1182.838, 3001.660
1183.320, 3004.313
1183.803, 2999.023
1184.285, 2985.283
1184.767, 2970.133
1185.249, 2955.574
1185.731, 2944.393
1186.213, 2939.806
1186.695, 2940.226
1187.177, 2941.817
1187.660, 2944.730
1188.142, 2946.898
1188.624, 2948.212
1189.106, 2946.801
1189.588, 2938.432
1190.070, 2928.787
1190.552, 2922.464
1191.034, 2919.301
1191.516, 2915.248
1191.999, 2909.584
1192.481, 2910.495
1192.963, 2920.727
1193.445, 2935.408
1193.927, 2956.388
1194.409, 2974.804
1194.891, 2978.234
1195.373, 2965.729
1195.855, 2965.997
1196.338, 2981.274
1196.820, 2989.345
1197.302, 2978.744
1197.784, 2963.219
1198.266, 2955.206
1198.748, 2952.566
1199.230, 2951.964
1199.712, 2951.574
1200.195, 2966.062
1200.677, 2999.134
1201.159, 3020.407
1201.641, 3004.478
1202.123, 2979.897
1202.605, 2979.754
1203.087, 2993.317
1203.569, 3003.666
1204.052, 3011.425
1204.534, 3005.116
1205.016, 2981.154
1205.498, 2964.337
1205.980, 2982.573
1206.462, 3008.317
1206.944, 3005.503
1207.426, 2986.199
1207.908, 2979.243
1208.391, 2992.808
1208.873, 3001.233
1209.355, 3002.270
1209.837, 3005.019
1210.319, 3023.911
1210.801, 3043.535
1211.283, 3040.182
1211.765, 3021.729
1212.247, 3018.999
1212.730, 3042.027
1213.212, 3054.191
1213.694, 3050.088
1214.176, 3042.538
1214.658, 3043.847
1215.140, 3048.655
1215.622, 3050.761
1216.104, 3050.491
1216.587, 3052.329
1217.069, 3058.463
1217.551, 3059.191
1218.033, 3051.665
1218.515, 3043.940
1218.997, 3042.595
1219.479, 3047.629
1219.961, 3064.591
1220.443, 3091.411
1220.926, 3099.083
1221.408, 3080.611
1221.890, 3067.022
1222.372, 3065.383
1222.854, 3071.414
1223.336, 3088.083
1223.818, 3104.415
1224.300, 3104.086
1224.782, 3084.637
1225.265, 3080.257
1225.747, 3094.764
1226.229, 3106.022
1226.711, 3105.952
1227.193, 3103.517
1227.675, 3112.977
1228.157, 3124.289
1228.639, 3120.763
1229.122, 3132.368
1229.604, 3148.623
1230.086, 3145.117
1230.568, 3177.480
1231.050, 3184.320
1231.532, 3176.344
1232.014, 3156.340
1232.496, 3134.061
1232.979, 3119.888
1233.461, 3113.757
1233.943, 3127.395
1234.425, 3163.572
1234.907, 3189.925
1235.389, 3185.147
1235.871, 3173.848
1236.353, 3177.231
1236.835, 3190.757
1237.318, 3213.533
1237.800, 3250.687
1238.282, 3246.103
1238.764, 3197.201
1239.246, 3160.729
1239.728, 3178.107
1240.210, 3208.745
1240.692, 3226.107
1241.175, 3231.772
1241.657, 3226.056
1242.139, 3205.647
1242.621, 3200.341
1243.103, 3210.232
1243.585, 3218.727
1244.067, 3207.785
1244.549, 3200.494
1245.031, 3220.819
1245.514, 3249.743
1245.996, 3259.398
1246.478, 3247.664
1246.960, 3243.874
1247.442, 3248.241
1247.924, 3255.048
1248.406, 3266.387
1248.888, 3272.678
1249.370, 3263.040
1249.853, 3248.444
1250.335, 3242.657
1250.817, 3245.538
1251.299, 3252.987
1251.781, 3264.513
1252.263, 3275.990
1252.745, 3287.688
1253.227, 3295.372
1253.710, 3296.344
1254.192, 3292.942
1254.674, 3286.557
1255.156, 3277.786
1255.638, 3269.760
1256.120, 3263.024
1256.602, 3261.131
1257.084, 3268.033
1257.567, 3278.132
1258.049, 3291.302
1258.531, 3304.149
1259.013, 3309.876
1259.495, 3311.281
1259.977, 3320.243
1260.459, 3336.752
1260.941, 3350.333
1261.423, 3357.910
1261.906, 3358.428
1262.388, 3349.402
1262.870, 3337.476
1263.352, 3329.865
1263.834, 3327.512
1264.316, 3336.858
1264.798, 3356.778
1265.280, 3367.882
1265.762, 3356.798
1266.245, 3348.267
1266.727, 3346.168
1267.209, 3349.222
1267.691, 3359.725
1268.173, 3372.238
1268.655, 3377.385
1269.137, 3374.710
1269.619, 3370.483
1270.102, 3363.391
1270.584, 3361.464
1271.066, 3367.631
1271.548, 3375.217
1272.030, 3377.804
1272.512, 3375.610
1272.994, 3364.105
1273.476, 3345.159
1273.958, 3343.375
1274.441, 3363.004
1274.923, 3382.134
1275.405, 3396.885
1275.887, 3405.272
1276.369, 3400.049
1276.851, 3391.496
1277.333, 3389.493
1277.815, 3393.558
1278.297, 3396.605
1278.780, 3398.368
1279.262, 3405.104
1279.744, 3418.988
1280.226, 3432.766
1280.708, 3445.828
1281.190, 3451.437
1281.672, 3440.258
1282.154, 3418.774
1282.637, 3411.143
1283.119, 3415.660
1283.601, 3414.396
1284.083, 3401.718
1284.565, 3396.426
1285.047, 3418.279
1285.529, 3441.486
1286.011, 3454.452
1286.494, 3458.830
1286.976, 3455.088
1287.458, 3446.448
1287.940, 3444.723
1288.422, 3453.237
1288.904, 3460.948
1289.386, 3467.739
1289.868, 3466.115
1290.350, 3448.868
1290.833, 3428.409
1291.315, 3433.188
1291.797, 3452.328
1292.279, 3465.209
1292.761, 3467.917
1293.243, 3464.859
1293.725, 3453.279
1294.207, 3446.681
1294.689, 3451.187
1295.172, 3458.567
1295.654, 3453.937
1296.136, 3446.385
1296.618, 3448.632
1297.100, 3463.615
1297.582, 3479.292
1298.064, 3497.554
1298.546, 3502.968
1299.029, 3486.215
1299.511, 3469.583
1299.993, 3479.344
1300.475, 3498.613
1300.957, 3514.991
1301.439, 3526.433
1301.921, 3516.243
1302.403, 3485.626
1302.885, 3472.841
1303.368, 3492.164
1303.850, 3514.462
1304.332, 3517.737
1304.814, 3519.269
1305.296, 3533.993
1305.778, 3553.748
1306.260, 3543.773
1306.742, 3512.501
1307.224, 3494.205
1307.707, 3499.210
1308.189, 3506.800
1308.671, 3507.534
1309.153, 3511.665
1309.635, 3525.115
1310.117, 3541.150
1310.599, 3545.229
1311.081, 3540.951
1311.564, 3531.985
1312.046, 3516.646
1312.528, 3521.090
1313.010, 3554.231
1313.492, 3586.251
1313.974, 3610.761
1314.456, 3620.169
1314.938, 3587.362
##END=



