##NAMES=Willemite
##RRUFFID=R050652
##IDEAL CHEMISTRY=Zn^2+^_2_SiO_4_
##LOCALITY=Franklin Furnace, Sussex County, New Jersey, USA
##OWNER=RRUFF
##SOURCE=University of Arizona Mineral Museum
##DESCRIPTION=Parallel aggregate of colorless acicular crystals
##STATUS=The identification of this mineral has been confirmed by X-ray diffraction and chemical analysis
##URL=rruff.info/R050652
##MEASURED CHEMISTRY=(Zn_1.99_Mn_0.01_)_Î£=2_Si_1.00_O_4_
92.02539, 243.9175
92.50751, 256.5789
92.98962, 264.3341
93.47174, 259.1360
93.95386, 248.3394
94.43597, 236.7522
94.91809, 226.4487
95.40021, 217.4335
95.88232, 208.9275
96.36444, 200.8353
96.84656, 193.4195
97.32867, 186.9514
97.81078, 181.2243
98.29290, 175.8704
98.77502, 170.4010
99.25713, 164.3725
99.73925, 159.6787
100.2214, 157.4436
100.7035, 155.2156
101.1856, 151.7892
101.6677, 147.1194
102.1498, 142.0088
102.6320, 137.3655
103.1141, 133.1088
103.5962, 129.6591
104.0783, 127.2002
104.5604, 125.4113
105.0425, 123.9574
105.5247, 122.7115
106.0068, 121.8092
106.4889, 121.4312
106.9710, 121.4378
107.4531, 122.0610
107.9352, 123.0299
108.4173, 124.5191
108.8995, 127.6273
109.3816, 133.5878
109.8637, 140.8602
110.3458, 148.4013
110.8279, 156.6390
111.3100, 163.2860
111.7922, 165.5585
112.2743, 162.9039
112.7564, 157.3550
113.2385, 147.4331
113.7206, 136.1410
114.2027, 125.8685
114.6849, 117.7043
115.1670, 111.3305
115.6491, 105.8359
116.1312, 101.9104
116.6133, 98.10068
117.0954, 93.89555
117.5776, 89.65273
118.0597, 85.91821
118.5418, 83.06740
119.0239, 81.10397
119.5060, 79.51936
119.9881, 78.40870
120.4703, 77.49090
120.9524, 76.68515
121.4345, 75.97798
121.9166, 75.38920
122.3987, 75.00575
122.8808, 74.87411
123.3630, 74.34435
123.8451, 72.93054
124.3272, 71.36301
124.8093, 70.42319
125.2914, 70.28321
125.7735, 70.43274
126.2557, 70.23585
126.7378, 69.77939
127.2199, 69.56640
127.7020, 70.07235
128.1841, 71.01856
128.6662, 71.46078
129.1483, 70.95260
129.6305, 70.25014
130.1126, 70.07085
130.5947, 70.35362
131.0768, 70.49236
131.5589, 69.82178
132.0410, 68.20788
132.5232, 66.88535
133.0053, 66.06097
133.4874, 65.53825
133.9695, 65.37269
134.4516, 65.52921
134.9337, 65.75825
135.4159, 65.61275
135.8980, 64.61059
136.3801, 64.17767
136.8622, 64.46681
137.3443, 65.19997
137.8264, 66.29028
138.3086, 67.68159
138.7907, 69.16900
139.2728, 70.15475
139.7549, 70.27113
140.2370, 70.28002
140.7191, 70.24706
141.2013, 70.13870
141.6834, 69.79634
142.1655, 69.05648
142.6476, 68.15599
143.1297, 68.16489
143.6118, 69.76323
144.0939, 71.34863
144.5761, 72.65121
145.0582, 73.54513
145.5403, 73.39864
146.0224, 71.49197
146.5045, 68.26750
146.9866, 65.33198
147.4688, 62.59075
147.9509, 60.29268
148.4330, 58.73878
148.9151, 57.98389
149.3972, 57.62606
149.8793, 57.68520
150.3615, 57.94361
150.8436, 58.16880
151.3257, 58.36745
151.8078, 58.43743
152.2899, 58.06767
152.7720, 56.91053
153.2542, 55.92132
153.7363, 55.38892
154.2184, 55.25029
154.7005, 55.45559
155.1826, 56.10035
155.6647, 57.10493
156.1469, 57.61683
156.6290, 57.00797
157.1111, 56.48264
157.5932, 56.31145
158.0753, 56.47297
158.5574, 56.86793
159.0396, 57.43801
159.5217, 58.20993
160.0038, 58.91169
160.4859, 59.62519
160.9680, 60.21181
161.4501, 60.71539
161.9323, 61.07130
162.4144, 61.05537
162.8965, 60.36102
163.3786, 58.69479
163.8607, 57.66722
164.3428, 57.74310
164.8250, 58.07727
165.3071, 58.05344
165.7892, 57.57881
166.2713, 56.97936
166.7534, 56.64022
167.2355, 56.59976
167.7177, 56.56426
168.1998, 56.35543
168.6819, 56.18671
169.1640, 56.40942
169.6461, 57.16722
170.1282, 58.04824
170.6104, 58.46479
171.0925, 58.47528
171.5746, 58.61189
172.0567, 58.92295
172.5388, 59.49984
173.0209, 60.71348
173.5031, 63.01649
173.9852, 65.44557
174.4673, 67.35403
174.9494, 68.73766
175.4315, 69.53262
175.9136, 69.67310
176.3958, 69.16506
176.8779, 68.08236
177.3600, 65.84160
177.8421, 63.48917
178.3242, 61.59546
178.8063, 60.18436
179.2885, 59.03004
179.7706, 57.85657
180.2527, 56.58127
180.7348, 55.65812
181.2169, 55.28594
181.6990, 55.13620
182.1812, 55.13276
182.6633, 55.22602
183.1454, 55.31983
183.6275, 55.21597
184.1096, 54.57381
184.5917, 54.50083
185.0738, 55.34450
185.5560, 56.41356
186.0381, 57.18553
186.5202, 57.54429
187.0023, 57.78427
187.4844, 58.40314
187.9665, 59.65347
188.4487, 60.93555
188.9308, 62.10327
189.4129, 63.36068
189.8950, 65.06435
190.3771, 67.31098
190.8592, 69.64155
191.3414, 71.14780
191.8235, 71.68298
192.3056, 71.64626
192.7877, 70.96815
193.2698, 69.76508
193.7519, 68.03539
194.2341, 65.68356
194.7162, 63.13928
195.1983, 61.35504
195.6804, 60.43711
196.1625, 59.59297
196.6446, 58.39115
197.1268, 57.08536
197.6089, 56.35052
198.0910, 56.63662
198.5731, 57.23694
199.0552, 56.97609
199.5373, 55.73558
200.0195, 54.45488
200.5016, 53.66310
200.9837, 53.27410
201.4658, 52.85469
201.9479, 52.25560
202.4300, 51.59454
202.9122, 50.95348
203.3943, 50.31598
203.8764, 49.86256
204.3585, 49.71451
204.8406, 49.87041
205.3227, 50.35062
205.8048, 51.85297
206.2870, 53.13708
206.7691, 53.09479
207.2512, 51.62368
207.7333, 49.88231
208.2154, 49.20086
208.6975, 49.80602
209.1797, 50.12357
209.6618, 49.58667
210.1439, 48.88713
210.6260, 48.30079
211.1081, 47.90534
211.5902, 47.75277
212.0724, 47.95898
212.5545, 48.64527
213.0366, 49.32668
213.5187, 49.98219
214.0008, 50.61071
214.4829, 51.27410
214.9651, 51.95540
215.4472, 52.52406
215.9293, 52.78691
216.4114, 52.68351
216.8935, 52.35329
217.3756, 51.63161
217.8578, 50.84518
218.3399, 50.17931
218.8220, 49.69184
219.3041, 49.35952
219.7862, 49.18211
220.2683, 49.42478
220.7505, 49.27371
221.2326, 48.37067
221.7147, 47.34075
222.1968, 46.64421
222.6789, 46.39529
223.1610, 46.44436
223.6432, 46.60038
224.1253, 47.06108
224.6074, 47.17357
225.0895, 46.71114
225.5716, 46.03272
226.0537, 45.32031
226.5358, 44.63696
227.0180, 44.24381
227.5001, 44.63199
227.9822, 46.23896
228.4643, 47.19613
228.9464, 46.89469
229.4285, 46.11870
229.9107, 45.65863
230.3928, 45.69021
230.8749, 45.99829
231.3570, 46.38171
231.8391, 46.85925
232.3212, 47.21767
232.8034, 47.39423
233.2855, 47.44368
233.7676, 47.41158
234.2497, 47.29574
234.7318, 47.15908
235.2139, 47.03953
235.6961, 46.93842
236.1782, 46.94902
236.6603, 47.51842
237.1424, 48.08722
237.6245, 47.55337
238.1066, 45.45989
238.5888, 43.34167
239.0709, 42.91475
239.5530, 43.69910
240.0351, 44.28861
240.5172, 44.12073
240.9993, 43.46708
241.4815, 42.77769
241.9636, 41.99869
242.4457, 41.39433
242.9278, 41.15216
243.4099, 41.20740
243.8920, 41.49153
244.3742, 42.22298
244.8563, 43.12682
245.3384, 43.51632
245.8205, 43.19460
246.3026, 42.79024
246.7847, 42.71539
247.2668, 42.79458
247.7490, 42.72499
248.2311, 42.24411
248.7132, 41.58849
249.1953, 41.42036
249.6774, 42.09089
250.1595, 42.52741
250.6417, 42.21582
251.1238, 41.45757
251.6059, 40.57436
252.0880, 39.63339
252.5701, 38.75348
253.0522, 38.24250
253.5344, 38.22906
254.0165, 38.36341
254.4986, 38.64486
254.9807, 38.95081
255.4628, 39.09819
255.9449, 38.97206
256.4271, 38.77468
256.9092, 39.09688
257.3913, 40.58332
257.8734, 41.31343
258.3555, 40.23214
258.8376, 38.68238
259.3198, 38.02246
259.8019, 38.79381
260.2840, 40.28306
260.7661, 40.97161
261.2482, 40.35966
261.7303, 39.86246
262.2125, 39.54420
262.6946, 39.44231
263.1767, 39.68029
263.6588, 40.27419
264.1409, 40.98181
264.6230, 41.34834
265.1052, 41.08690
265.5873, 41.04225
266.0694, 41.45911
266.5515, 41.93450
267.0336, 42.11415
267.5157, 41.94475
267.9979, 41.69670
268.4800, 41.81452
268.9621, 42.65081
269.4442, 43.06912
269.9263, 42.75612
270.4084, 42.34173
270.8906, 42.24477
271.3727, 42.51147
271.8548, 42.90008
272.3369, 43.11143
272.8190, 43.05947
273.3011, 43.11355
273.7833, 43.39317
274.2654, 43.65900
274.7475, 43.73359
275.2296, 43.64048
275.7117, 43.54197
276.1938, 43.58638
276.6760, 43.76817
277.1581, 44.15804
277.6402, 44.64343
278.1223, 45.38191
278.6044, 46.65615
279.0865, 48.30402
279.5686, 49.80790
280.0508, 50.71357
280.5329, 50.99984
281.0150, 51.64298
281.4971, 53.21230
281.9792, 54.49287
282.4613, 54.85664
282.9435, 54.55635
283.4256, 54.28786
283.9077, 54.54926
284.3898, 55.21194
284.8719, 55.08196
285.3540, 53.74927
285.8362, 52.22623
286.3183, 50.47977
286.8004, 48.75179
287.2825, 47.52140
287.7646, 47.08358
288.2467, 47.16282
288.7289, 46.77619
289.2110, 45.31574
289.6931, 44.17711
290.1752, 43.66627
290.6573, 43.58357
291.1394, 43.71258
291.6216, 43.98143
292.1037, 44.30544
292.5858, 44.50000
293.0679, 44.41225
293.5500, 44.49064
294.0321, 44.83339
294.5143, 45.34061
294.9964, 46.00536
295.4785, 46.82483
295.9606, 47.51575
296.4427, 47.57959
296.9248, 46.58059
297.4070, 46.34556
297.8891, 47.87170
298.3712, 49.62939
298.8533, 50.25217
299.3354, 49.54422
299.8175, 48.14420
300.2997, 46.57225
300.7818, 44.77157
301.2639, 43.37485
301.7460, 42.72868
302.2281, 42.21535
302.7102, 41.35043
303.1924, 40.16063
303.6745, 39.04782
304.1566, 38.33205
304.6387, 38.00177
305.1208, 37.58384
305.6029, 36.92538
306.0851, 36.33190
306.5672, 35.90104
307.0493, 35.65148
307.5314, 35.66273
308.0135, 36.04362
308.4956, 36.66960
308.9778, 36.98765
309.4599, 37.02045
309.9420, 36.79448
310.4241, 36.07146
310.9062, 35.11333
311.3883, 34.45065
311.8705, 34.31956
312.3526, 34.54027
312.8347, 34.76078
313.3168, 35.05886
313.7989, 35.18911
314.2810, 34.99284
314.7632, 34.63942
315.2453, 34.26293
315.7274, 33.88614
316.2095, 33.73212
316.6916, 34.23632
317.1737, 35.66433
317.6559, 36.54371
318.1380, 36.50770
318.6201, 36.02255
319.1022, 35.29859
319.5843, 34.41436
320.0664, 33.86482
320.5485, 34.25844
321.0306, 35.68972
321.5128, 36.42840
321.9949, 36.16042
322.4770, 35.49600
322.9591, 34.53144
323.4412, 33.42240
323.9233, 32.74490
324.4055, 32.99270
324.8876, 33.99577
325.3697, 34.47942
325.8518, 33.99972
326.3339, 33.57026
326.8160, 33.66306
327.2982, 34.08330
327.7803, 34.39339
328.2624, 34.38250
328.7445, 34.16161
329.2266, 34.00290
329.7087, 33.75151
330.1909, 33.81425
330.6730, 34.71613
331.1551, 35.81800
331.6372, 36.13856
332.1193, 35.38147
332.6014, 34.32087
333.0836, 34.14935
333.5657, 35.42609
334.0478, 35.88122
334.5299, 34.57582
335.0120, 32.98826
335.4941, 32.42038
335.9763, 32.97782
336.4584, 33.80503
336.9405, 34.09151
337.4226, 33.77060
337.9047, 33.75566
338.3868, 34.49926
338.8690, 35.09132
339.3511, 34.89139
339.8332, 34.10799
340.3153, 33.45839
340.7974, 33.43305
341.2795, 33.89217
341.7617, 33.92696
342.2438, 32.94414
342.7259, 32.29965
343.2080, 32.44459
343.6901, 33.08023
344.1722, 33.85028
344.6544, 34.61609
345.1365, 35.24334
345.6186, 35.43200
346.1007, 34.58525
346.5828, 34.21097
347.0649, 34.76463
347.5471, 35.53511
348.0292, 35.93935
348.5113, 35.85202
348.9934, 35.43508
349.4755, 34.82416
349.9576, 33.86258
350.4398, 33.40040
350.9219, 33.68771
351.4040, 34.15932
351.8861, 34.53734
352.3682, 34.83520
352.8503, 35.25878
353.3325, 36.02414
353.8146, 37.06773
354.2967, 37.36065
354.7788, 35.93274
355.2609, 34.86519
355.7430, 34.76974
356.2252, 35.25365
356.7073, 35.72664
357.1894, 35.90801
357.6715, 35.96846
358.1536, 36.36943
358.6357, 37.64482
359.1179, 38.43101
359.5999, 38.33954
360.0821, 37.99847
360.5642, 37.91689
361.0463, 38.19309
361.5284, 38.58126
362.0105, 38.74788
362.4926, 38.57020
362.9748, 38.65480
363.4569, 39.19043
363.9390, 39.79237
364.4211, 40.45887
364.9032, 41.06938
365.3853, 41.31788
365.8675, 40.86485
366.3496, 39.84709
366.8317, 39.60475
367.3138, 40.81163
367.7959, 41.98604
368.2780, 42.89198
368.7602, 43.55132
369.2423, 43.92585
369.7244, 43.98074
370.2065, 43.97021
370.6886, 44.49216
371.1707, 45.92345
371.6529, 46.92044
372.1350, 46.90476
372.6171, 46.70535
373.0992, 46.83312
373.5813, 47.36704
374.0634, 48.10548
374.5456, 48.83095
375.0277, 49.53238
375.5098, 50.43969
375.9919, 51.80099
376.4740, 53.10518
376.9561, 54.05106
377.4383, 54.76224
377.9204, 55.53237
378.4025, 56.59553
378.8846, 57.80108
379.3667, 58.74146
379.8488, 59.39117
380.3310, 59.83244
380.8131, 59.91972
381.2952, 59.90038
381.7773, 60.10490
382.2594, 60.69263
382.7415, 61.16107
383.2237, 60.83355
383.7058, 59.71550
384.1879, 58.75366
384.6700, 58.38353
385.1521, 58.01442
385.6342, 56.88858
386.1164, 55.09260
386.5985, 53.75483
387.0806, 53.93204
387.5627, 54.98468
388.0448, 55.34863
388.5269, 54.78239
389.0091, 53.92012
389.4912, 52.98109
389.9733, 52.09319
390.4554, 51.60284
390.9375, 51.93426
391.4196, 52.36375
391.9018, 52.12376
392.3839, 51.29376
392.8660, 50.56498
393.3481, 50.09850
393.8302, 50.06495
394.3123, 50.91858
394.7945, 53.09054
395.2766, 54.69744
395.7587, 54.46207
396.2408, 53.31331
396.7229, 52.94175
397.2050, 53.78124
397.6872, 54.82338
398.1693, 54.94926
398.6514, 54.06139
399.1335, 53.17622
399.6156, 52.21959
400.0977, 51.36402
400.5798, 50.94456
401.0620, 50.80810
401.5441, 50.28462
402.0262, 48.90918
402.5083, 46.85771
402.9904, 45.03758
403.4725, 43.27011
403.9547, 41.90742
404.4368, 41.34788
404.9189, 41.10399
405.4010, 40.52293
405.8831, 39.41578
406.3652, 38.13495
406.8474, 37.20646
407.3295, 36.79841
407.8116, 36.28627
408.2937, 35.52095
408.7758, 34.79737
409.2579, 34.28503
409.7401, 33.96526
410.2222, 33.73102
410.7043, 33.51019
411.1864, 33.29833
411.6685, 33.05159
412.1506, 32.83671
412.6328, 32.49380
413.1149, 31.74107
413.5970, 30.96576
414.0791, 30.69987
414.5612, 31.10118
415.0433, 31.67723
415.5255, 31.55931
416.0076, 30.40906
416.4897, 29.73681
416.9718, 30.19739
417.4539, 30.67948
417.9360, 30.55072
418.4182, 29.94474
418.9003, 29.45984
419.3824, 29.59226
419.8645, 30.18429
420.3466, 30.52330
420.8287, 30.51238
421.3109, 30.44097
421.7930, 30.37986
422.2751, 30.34386
422.7572, 30.40280
423.2393, 30.61932
423.7214, 30.72779
424.2036, 30.30453
424.6857, 29.37955
425.1678, 28.71869
425.6499, 28.52065
426.1320, 28.61850
426.6141, 29.06489
427.0963, 29.77064
427.5784, 29.98431
428.0605, 28.86545
428.5426, 27.27452
429.0247, 26.61332
429.5068, 26.99044
429.9890, 27.57285
430.4711, 27.86806
430.9532, 27.97577
431.4353, 28.25722
431.9174, 28.99135
432.3995, 29.48675
432.8817, 29.33152
433.3638, 28.69412
433.8459, 27.80461
434.3280, 26.68147
434.8101, 25.68319
435.2922, 25.36487
435.7744, 25.93342
436.2565, 26.39562
436.7386, 26.88449
437.2207, 27.12551
437.7028, 26.68434
438.1849, 25.74778
438.6671, 25.03174
439.1492, 25.03129
439.6313, 25.63584
440.1134, 26.20167
440.5955, 27.21778
441.0776, 27.57749
441.5598, 26.48289
442.0418, 25.01571
442.5240, 24.35278
443.0061, 24.76471
443.4882, 25.58416
443.9703, 25.89458
444.4524, 25.47534
444.9345, 25.59192
445.4167, 27.27536
445.8988, 28.47611
446.3809, 28.11038
446.8630, 26.74495
447.3451, 25.48346
447.8272, 24.92822
448.3094, 24.93461
448.7915, 25.24011
449.2736, 26.04829
449.7557, 26.56946
450.2378, 26.31122
450.7199, 25.89551
451.2021, 25.75377
451.6842, 25.93322
452.1663, 26.21061
452.6484, 26.55505
453.1305, 26.88358
453.6126, 26.69263
454.0948, 25.66480
454.5769, 24.81115
455.0590, 25.19248
455.5411, 26.17738
456.0232, 26.62954
456.5053, 26.00143
456.9875, 25.18388
457.4696, 24.85207
457.9517, 24.95947
458.4338, 25.34335
458.9159, 26.04711
459.3980, 26.81756
459.8802, 27.22253
460.3623, 27.23043
460.8444, 27.32062
461.3265, 27.72228
461.8086, 28.14173
462.2907, 28.31803
462.7729, 28.24655
463.2550, 28.03994
463.7371, 27.75116
464.2192, 27.40343
464.7013, 27.12305
465.1834, 26.91891
465.6656, 26.76506
466.1477, 26.66519
466.6298, 26.60901
467.1119, 26.62304
467.5940, 26.69658
468.0761, 26.72106
468.5583, 26.52550
469.0404, 26.02494
469.5225, 25.85042
470.0046, 26.33033
470.4867, 26.80173
470.9688, 27.20002
471.4510, 27.42539
471.9331, 27.23281
472.4152, 26.45098
472.8973, 25.56023
473.3794, 25.55708
473.8615, 26.66298
474.3437, 27.72068
474.8258, 28.89225
475.3079, 29.62057
475.7900, 29.24914
476.2721, 27.97301
476.7542, 26.87644
477.2364, 26.73509
477.7185, 27.21807
478.2006, 27.60023
478.6827, 27.86738
479.1648, 28.09082
479.6469, 28.28510
480.1291, 28.46717
480.6112, 28.69434
481.0933, 29.03824
481.5754, 29.23278
482.0575, 29.14857
482.5396, 28.82171
483.0217, 28.14733
483.5038, 27.07432
483.9860, 26.28916
484.4681, 26.61463
484.9502, 28.10045
485.4323, 28.78529
485.9144, 28.06971
486.3965, 27.24417
486.8787, 26.77983
487.3608, 26.60154
487.8429, 26.54310
488.3250, 26.53669
488.8071, 26.58695
489.2892, 26.71907
489.7714, 27.04325
490.2535, 27.17201
490.7356, 27.07181
491.2177, 26.84307
491.6998, 26.46476
492.1819, 26.00035
492.6641, 25.58440
493.1462, 25.31653
493.6283, 25.12550
494.1104, 24.80939
494.5925, 24.36469
495.0746, 23.80630
495.5568, 22.84629
496.0389, 21.98179
496.5210, 21.57606
497.0031, 21.64944
497.4852, 21.97453
497.9673, 22.64726
498.4495, 23.43373
498.9316, 23.60215
499.4137, 23.01845
499.8958, 22.31861
500.3779, 21.70794
500.8600, 21.28130
501.3422, 21.22474
501.8243, 21.66764
502.3064, 22.21609
502.7885, 22.86619
503.2706, 23.44380
503.7527, 23.58915
504.2349, 23.21973
504.7170, 22.62869
505.1991, 22.02624
505.6812, 21.39771
506.1633, 21.23230
506.6454, 21.97678
507.1276, 22.63416
507.6097, 22.89762
508.0918, 22.82089
508.5739, 22.43312
509.0560, 21.76022
509.5381, 21.00661
510.0203, 20.50172
510.5024, 20.30014
510.9845, 20.15943
511.4666, 20.07219
511.9487, 20.05414
512.4308, 20.05661
512.9130, 20.14068
513.3951, 20.48342
513.8772, 21.25295
514.3593, 22.08962
514.8414, 22.19355
515.3235, 21.41992
515.8057, 21.05179
516.2878, 21.74775
516.7699, 22.57465
517.2520, 22.70074
517.7341, 22.20473
518.2162, 21.71089
518.6984, 21.49825
519.1805, 21.41891
519.6626, 21.30477
520.1447, 21.15183
520.6268, 20.93486
521.1089, 20.57432
521.5911, 20.22125
522.0732, 20.27687
522.5553, 20.87016
523.0374, 21.40431
523.5195, 21.77956
524.0016, 22.05499
524.4838, 22.29638
524.9659, 22.49270
525.4480, 22.56551
525.9301, 22.44922
526.4122, 22.17476
526.8943, 21.88542
527.3765, 21.40045
527.8586, 21.18079
528.3407, 21.40653
528.8228, 21.79650
529.3049, 22.21829
529.7870, 22.59878
530.2692, 22.78429
530.7513, 22.50155
531.2334, 21.89004
531.7155, 21.83440
532.1976, 22.55452
532.6797, 23.31985
533.1619, 23.84412
533.6440, 24.24671
534.1261, 24.64525
534.6082, 25.05932
535.0903, 25.44178
535.5724, 25.86493
536.0546, 26.21588
536.5367, 26.14698
537.0188, 25.58011
537.5009, 25.11151
537.9830, 25.29613
538.4651, 25.94947
538.9473, 26.03776
539.4294, 24.72499
539.9115, 23.94938
540.3936, 24.60457
540.8757, 25.92413
541.3578, 27.15082
541.8400, 28.05203
542.3221, 28.46352
542.8042, 28.11818
543.2863, 26.99632
543.7684, 26.33877
544.2505, 26.27688
544.7326, 26.57070
545.2147, 27.39117
545.6968, 28.43523
546.1790, 29.40592
546.6611, 30.22131
547.1432, 30.93556
547.6253, 31.61843
548.1074, 32.26128
548.5895, 32.69996
549.0717, 32.82621
549.5538, 32.96695
550.0359, 33.55936
550.5180, 34.22713
551.0001, 34.33114
551.4822, 33.57660
551.9644, 32.71891
552.4465, 32.26576
552.9286, 32.03713
553.4107, 31.64767
553.8928, 31.02031
554.3749, 30.35435
554.8571, 29.88222
555.3392, 29.58406
555.8213, 28.83824
556.3034, 27.22763
556.7855, 25.74807
557.2676, 24.52171
557.7498, 23.62082
558.2319, 23.25796
558.7140, 23.41494
559.1961, 23.67376
559.6782, 23.51625
560.1603, 22.93327
560.6425, 22.82380
561.1246, 23.71448
561.6067, 24.30239
562.0888, 24.05897
562.5709, 23.40334
563.0530, 22.74633
563.5352, 22.18089
564.0173, 21.76250
564.4994, 21.53376
564.9815, 21.48984
565.4636, 21.66971
565.9457, 22.12558
566.4279, 22.56667
566.9100, 22.89494
567.3921, 23.02573
567.8742, 22.72035
568.3563, 21.53125
568.8384, 20.65294
569.3206, 20.71001
569.8027, 21.18798
570.2848, 21.50560
570.7669, 21.55839
571.2490, 21.47339
571.7311, 21.32893
572.2133, 21.14834
572.6954, 21.19845
573.1775, 21.69567
573.6596, 22.13473
574.1417, 22.59855
574.6238, 22.88532
575.1060, 22.66415
575.5881, 21.99327
576.0702, 21.44595
576.5523, 21.66189
577.0344, 22.36892
577.5165, 22.43137
577.9987, 21.64073
578.4808, 21.13822
578.9629, 21.65627
579.4450, 22.56349
579.9271, 22.97671
580.4092, 22.83608
580.8914, 22.53336
581.3735, 21.95755
581.8556, 21.45542
582.3377, 21.48831
582.8198, 22.01077
583.3019, 22.64199
583.7841, 23.20376
584.2662, 23.62381
584.7483, 23.68320
585.2304, 22.82266
585.7125, 22.53724
586.1946, 23.42872
586.6768, 24.32602
587.1589, 24.38158
587.6410, 23.81502
588.1231, 23.35458
588.6052, 23.41471
589.0873, 23.84017
589.5695, 24.37230
590.0516, 25.04520
590.5337, 25.59025
591.0158, 26.00683
591.4979, 26.21187
591.9800, 26.04529
592.4622, 25.60206
592.9443, 25.27186
593.4264, 25.18564
593.9085, 25.24473
594.3906, 25.50909
594.8727, 25.85838
595.3549, 25.93698
595.8370, 25.62435
596.3191, 25.10085
596.8012, 24.52056
597.2833, 23.80533
597.7654, 23.61454
598.2476, 24.41724
598.7297, 25.11973
599.2118, 25.35899
599.6939, 25.31607
600.1760, 25.31833
600.6581, 25.43364
601.1403, 25.32486
601.6224, 24.29723
602.1045, 22.42649
602.5866, 21.70092
603.0687, 22.59455
603.5508, 23.59673
604.0330, 24.03709
604.5151, 24.12998
604.9972, 24.09833
605.4793, 23.96204
605.9614, 23.72163
606.4435, 23.27896
606.9257, 22.77886
607.4078, 22.37097
607.8899, 22.08894
608.3720, 22.06153
608.8541, 22.41658
609.3362, 23.00742
609.8184, 23.37217
610.3005, 23.44532
610.7826, 23.36620
611.2647, 22.93024
611.7468, 22.52656
612.2289, 22.34794
612.7111, 22.41709
613.1932, 22.78179
613.6753, 23.55428
614.1574, 24.36554
614.6395, 24.47246
615.1216, 23.82689
615.6038, 23.02663
616.0859, 21.75970
616.5680, 20.97448
617.0501, 22.00422
617.5322, 24.25034
618.0143, 25.65040
618.4965, 25.22242
618.9786, 24.47861
619.4607, 24.28686
619.9428, 24.41904
620.4249, 24.40243
620.9070, 24.13613
621.3892, 23.96414
621.8713, 24.27028
622.3534, 25.04639
622.8355, 25.60117
623.3176, 26.19638
623.7997, 26.18950
624.2819, 24.86315
624.7640, 23.31541
625.2461, 22.57270
625.7282, 22.72412
626.2103, 23.10927
626.6924, 23.35275
627.1745, 23.42506
627.6566, 23.22561
628.1387, 22.74314
628.6208, 22.08586
629.1030, 21.10540
629.5851, 20.18696
630.0672, 20.05793
630.5493, 20.76231
631.0314, 21.17848
631.5135, 20.91963
631.9957, 20.53872
632.4778, 20.37026
632.9599, 20.34929
633.4420, 20.28919
633.9241, 20.12184
634.4063, 19.94479
634.8884, 19.89513
635.3705, 19.98213
635.8526, 20.12518
636.3347, 20.39509
636.8168, 20.61938
637.2990, 20.69208
637.7811, 20.71346
638.2632, 20.85249
638.7453, 21.15568
639.2274, 21.32500
639.7095, 21.11004
640.1917, 20.64195
640.6738, 20.04619
641.1559, 19.35492
641.6380, 18.91111
642.1201, 18.93875
642.6022, 19.26018
643.0844, 19.46927
643.5665, 19.43632
644.0486, 19.56598
644.5307, 19.99605
645.0128, 20.45388
645.4949, 20.89892
645.9771, 21.23758
646.4592, 21.29183
646.9413, 20.97668
647.4234, 20.50767
647.9055, 20.14578
648.3876, 19.89202
648.8698, 19.79186
649.3519, 19.83291
649.8340, 20.07335
650.3161, 20.79115
650.7982, 21.66987
651.2803, 22.00190
651.7625, 21.45848
652.2446, 21.09783
652.7267, 21.55783
653.2088, 22.26740
653.6909, 22.62231
654.1730, 22.59413
654.6552, 22.38939
655.1373, 22.11701
655.6194, 21.83182
656.1015, 21.67584
656.5836, 21.67709
657.0657, 21.73685
657.5479, 22.07480
658.0300, 22.25033
658.5121, 21.88410
658.9942, 21.24524
659.4763, 20.88990
659.9584, 21.04780
660.4406, 21.37347
660.9227, 21.58171
661.4048, 21.71520
661.8869, 21.94378
662.3690, 22.29597
662.8511, 22.46684
663.3333, 22.18850
663.8154, 21.59076
664.2975, 21.22092
664.7796, 21.21881
665.2617, 21.25449
665.7438, 21.40691
666.2260, 21.52122
666.7081, 21.42611
667.1902, 21.20489
667.6723, 21.06487
668.1544, 21.10196
668.6365, 21.32220
669.1187, 21.95600
669.6008, 22.95716
670.0829, 23.14310
670.5650, 22.08548
671.0471, 20.90363
671.5292, 20.52199
672.0114, 20.67005
672.4935, 20.31699
672.9756, 18.83356
673.4577, 17.92480
673.9398, 18.52596
674.4219, 19.63776
674.9041, 20.40681
675.3862, 20.74303
675.8683, 20.79581
676.3504, 20.61992
676.8325, 20.41745
677.3146, 20.71480
677.7968, 21.62657
678.2789, 22.53044
678.7610, 23.82338
679.2431, 24.49228
679.7252, 23.41090
680.2073, 21.41657
680.6895, 20.25112
681.1716, 20.50452
681.6537, 21.02785
682.1358, 21.19817
682.6179, 21.21935
683.1000, 21.44979
683.5822, 21.87866
684.0643, 22.13194
684.5464, 21.93431
685.0285, 21.49855
685.5106, 21.46812
685.9927, 22.13380
686.4749, 22.52112
686.9570, 22.55734
687.4391, 22.33937
687.9212, 21.67746
688.4033, 20.84046
688.8854, 20.31083
689.3676, 20.27686
689.8497, 20.42220
690.3318, 20.51813
690.8139, 20.59114
691.2960, 20.72837
691.7781, 20.93327
692.2603, 21.05362
692.7424, 20.99024
693.2245, 20.79420
693.7066, 20.59023
694.1887, 20.30720
694.6708, 20.16621
695.1530, 19.99930
695.6351, 20.13328
696.1172, 21.01002
696.5993, 22.21710
697.0814, 23.09432
697.5635, 23.41432
698.0457, 23.31868
698.5278, 22.77774
699.0099, 21.94075
699.4920, 21.17941
699.9741, 20.50354
700.4562, 20.34225
700.9384, 21.09100
701.4205, 22.27840
701.9026, 22.91813
702.3847, 22.85367
702.8668, 22.61584
703.3489, 21.66723
703.8311, 21.11082
704.3132, 21.98350
704.7953, 23.44053
705.2774, 24.07948
705.7595, 23.48306
706.2416, 22.51489
706.7238, 22.06529
707.2059, 22.02518
707.6880, 21.86716
708.1701, 21.54316
708.6522, 21.43121
709.1343, 21.73669
709.6164, 22.28042
710.0985, 22.84038
710.5806, 23.44830
711.0627, 23.84986
711.5449, 24.04540
712.0270, 24.01415
712.5091, 23.43271
712.9912, 22.75611
713.4733, 22.74550
713.9554, 23.49745
714.4376, 24.23329
714.9197, 24.13012
715.4018, 23.43870
715.8839, 23.17822
716.3660, 23.41504
716.8481, 23.59741
717.3303, 23.52886
717.8124, 23.37868
718.2945, 23.37453
718.7766, 23.49845
719.2587, 23.46095
719.7408, 22.87832
720.2230, 22.55469
720.7051, 23.09202
721.1872, 23.89615
721.6693, 24.23327
722.1514, 24.04732
722.6335, 23.80022
723.1157, 23.84307
723.5978, 24.06701
724.0799, 24.13117
724.5620, 23.99667
725.0441, 24.16278
725.5262, 24.95156
726.0084, 25.65315
726.4905, 25.60252
726.9726, 24.96607
727.4547, 24.38804
727.9368, 23.76565
728.4189, 23.41270
728.9011, 23.59121
729.3832, 23.95620
729.8653, 24.24506
730.3474, 24.41342
730.8295, 24.44163
731.3116, 24.30355
731.7938, 24.15081
732.2759, 24.37105
732.7580, 24.97557
733.2401, 25.01272
733.7222, 24.15635
734.2043, 23.38851
734.6865, 23.30575
735.1686, 23.68223
735.6507, 24.01423
736.1328, 24.30231
736.6149, 24.53963
737.0970, 24.82260
737.5792, 24.96400
738.0613, 24.61457
738.5434, 24.07857
739.0255, 24.03218
739.5076, 24.68032
739.9897, 25.42501
740.4719, 25.62403
740.9540, 25.30235
741.4361, 24.42565
741.9182, 22.75938
742.4003, 21.80624
742.8824, 22.43899
743.3646, 23.68109
743.8467, 24.20258
744.3288, 23.99661
744.8109, 24.04741
745.2930, 24.82049
745.7751, 25.41319
746.2573, 25.50146
746.7394, 25.18655
747.2215, 24.38379
747.7036, 23.24524
748.1857, 22.36350
748.6678, 22.21350
749.1500, 22.56763
749.6321, 23.02310
750.1142, 23.58020
750.5963, 23.87190
751.0784, 23.72957
751.5605, 23.60142
752.0427, 23.93377
752.5248, 24.59815
753.0069, 24.88041
753.4890, 24.51563
753.9711, 24.21616
754.4532, 24.08366
754.9354, 24.03324
755.4175, 23.99035
755.8996, 23.98112
756.3817, 24.11709
756.8638, 24.45834
757.3459, 24.77197
757.8281, 24.64694
758.3102, 24.25492
758.7923, 24.34787
759.2744, 24.99943
759.7565, 25.51902
760.2386, 25.53070
760.7208, 25.30716
761.2029, 25.31765
761.6850, 25.62699
762.1671, 25.91244
762.6492, 26.40332
763.1313, 26.59801
763.6135, 25.94397
764.0956, 25.14972
764.5777, 25.12381
765.0598, 25.89441
765.5419, 26.55662
766.0240, 26.41839
766.5062, 25.93551
766.9883, 25.67447
767.4704, 25.62553
767.9525, 25.83035
768.4346, 26.31065
768.9167, 26.72281
769.3989, 26.75521
769.8810, 26.45835
770.3631, 26.12874
770.8452, 25.65278
771.3273, 25.35130
771.8094, 25.51295
772.2916, 25.58580
772.7737, 25.09130
773.2558, 24.32420
773.7379, 23.89527
774.2200, 23.97972
774.7021, 24.38665
775.1843, 25.29042
775.6664, 26.26852
776.1485, 26.69510
776.6306, 26.62697
777.1127, 26.43278
777.5948, 26.26943
778.0770, 26.27038
778.5591, 26.76828
779.0412, 27.82731
779.5233, 27.96087
780.0054, 26.68690
780.4875, 25.49517
780.9697, 24.86094
781.4518, 24.53361
781.9339, 24.21716
782.4160, 23.93516
782.8981, 24.03882
783.3802, 24.93518
783.8624, 25.86528
784.3445, 26.60857
784.8266, 27.07368
785.3087, 26.96073
785.7908, 26.39349
786.2729, 26.02410
786.7551, 26.32159
787.2372, 26.91849
787.7193, 26.96646
788.2014, 26.47605
788.6835, 26.52103
789.1656, 27.44070
789.6478, 28.08312
790.1299, 27.57148
790.6120, 26.42049
791.0941, 25.92309
791.5762, 26.41566
792.0583, 26.51253
792.5404, 25.55057
793.0225, 24.82286
793.5046, 25.20446
793.9868, 26.05242
794.4689, 26.39038
794.9510, 26.06706
795.4331, 25.85172
795.9152, 26.50218
796.3973, 27.49116
796.8795, 27.86937
797.3616, 27.77050
797.8437, 27.92841
798.3258, 28.54353
798.8079, 28.96621
799.2900, 28.53891
799.7722, 27.48059
800.2543, 27.06989
800.7364, 27.83167
801.2185, 28.16364
801.7006, 27.37048
802.1827, 26.69979
802.6649, 26.90722
803.1470, 27.59649
803.6291, 28.04752
804.1112, 28.11704
804.5933, 27.95098
805.0754, 27.35266
805.5576, 26.76541
806.0397, 26.83918
806.5218, 27.26962
807.0039, 27.08521
807.4860, 26.02284
807.9681, 25.14905
808.4503, 25.84071
808.9324, 27.69320
809.4145, 28.44825
809.8966, 27.94876
810.3787, 27.31045
810.8608, 26.71465
811.3430, 26.22490
811.8251, 25.88129
812.3072, 25.69522
812.7893, 25.70397
813.2714, 25.95107
813.7535, 26.32245
814.2357, 27.02638
814.7178, 27.64300
815.1999, 27.77369
815.6820, 27.61094
816.1641, 27.60024
816.6462, 27.89940
817.1284, 28.21235
817.6105, 28.22471
818.0926, 28.08235
818.5747, 28.13253
819.0568, 28.32805
819.5389, 28.20831
820.0211, 27.58233
820.5032, 27.09118
820.9853, 27.58994
821.4674, 28.96336
821.9495, 29.32923
822.4316, 27.92544
822.9138, 27.19092
823.3959, 28.11569
823.8780, 29.26589
824.3601, 29.78484
824.8422, 29.78829
825.3243, 29.55677
825.8065, 28.95976
826.2886, 28.56829
826.7707, 28.76385
827.2528, 29.11876
827.7349, 29.31311
828.2170, 29.34486
828.6992, 29.27131
829.1813, 29.11853
829.6634, 28.93325
830.1455, 28.71470
830.6276, 28.51450
831.1097, 28.51642
831.5919, 28.71829
832.0740, 29.05765
832.5561, 29.56238
833.0382, 30.00459
833.5203, 30.14004
834.0024, 30.01774
834.4846, 30.01120
834.9667, 30.00773
835.4488, 30.31596
835.9309, 31.24248
836.4130, 32.15872
836.8951, 32.79798
837.3773, 33.18759
837.8594, 33.35867
838.3415, 33.28315
838.8236, 33.28713
839.3057, 33.63964
839.7878, 34.06448
840.2700, 34.16593
840.7521, 34.15741
841.2342, 34.66729
841.7163, 35.77540
842.1984, 36.70324
842.6805, 36.63447
843.1627, 35.97888
843.6448, 35.99357
844.1269, 36.69511
844.6090, 37.47122
845.0911, 38.27243
845.5732, 38.89157
846.0554, 38.98714
846.5375, 38.91923
847.0196, 39.79041
847.5017, 42.35011
847.9838, 44.12286
848.4659, 44.32644
848.9481, 44.68503
849.4302, 46.01605
849.9123, 47.77424
850.3944, 49.21191
850.8765, 50.27576
851.3586, 51.60511
851.8408, 53.50183
852.3229, 55.82207
852.8050, 58.50878
853.2871, 61.51983
853.7692, 64.96284
854.2513, 68.70393
854.7335, 72.17762
855.2156, 74.96056
855.6977, 77.51057
856.1798, 80.53247
856.6619, 84.03630
857.1440, 88.31447
857.6262, 93.47559
858.1083, 98.82844
858.5904, 104.0267
859.0725, 109.3006
859.5546, 115.0205
860.0367, 121.2076
860.5189, 127.4756
861.0010, 133.3384
861.4831, 139.9393
861.9652, 147.9010
862.4473, 156.3180
862.9294, 164.0325
863.4116, 171.6746
863.8937, 181.1052
864.3758, 193.3501
864.8579, 206.1477
865.3400, 217.9169
865.8221, 229.5912
866.3043, 241.7699
866.7864, 254.7930
867.2685, 269.5281
867.7506, 286.0572
868.2327, 302.3891
868.7148, 316.7138
869.1970, 328.8824
869.6791, 338.6501
870.1612, 345.9890
870.6433, 350.3716
871.1254, 351.8335
871.6075, 349.6595
872.0897, 343.1926
872.5718, 332.7953
873.0539, 319.4816
873.5360, 301.9081
874.0181, 284.5153
874.5002, 267.3221
874.9823, 250.4508
875.4644, 233.5592
875.9465, 217.2967
876.4286, 202.0833
876.9108, 188.0725
877.3929, 175.2882
877.8750, 163.7361
878.3571, 153.5166
878.8392, 145.0883
879.3214, 137.7772
879.8035, 130.9788
880.2856, 124.5069
880.7677, 118.0512
881.2498, 111.4053
881.7319, 105.2818
882.2141, 100.7437
882.6962, 97.39344
883.1783, 94.06041
883.6604, 90.72866
884.1425, 87.82771
884.6246, 85.53427
885.1068, 83.60963
885.5889, 81.89784
886.0710, 80.30198
886.5531, 77.96916
887.0352, 74.43710
887.5173, 71.52058
887.9995, 69.63341
888.4816, 68.13213
888.9637, 66.77068
889.4458, 65.46339
889.9279, 64.10418
890.4100, 62.81626
890.8922, 60.95531
891.3743, 57.67368
891.8564, 54.66902
892.3385, 52.48608
892.8206, 51.14336
893.3027, 50.85932
893.7849, 51.44883
894.2670, 52.19855
894.7491, 52.88803
895.2312, 53.31816
895.7133, 52.97333
896.1954, 52.41304
896.6776, 52.70309
897.1597, 53.71026
897.6418, 54.45303
898.1239, 54.51540
898.6060, 54.52693
899.0881, 55.37338
899.5703, 56.83894
900.0524, 57.76376
900.5345, 58.11898
901.0166, 58.40630
901.4987, 58.67658
901.9808, 59.15176
902.4630, 59.96211
902.9451, 61.15116
903.4272, 62.91037
903.9093, 65.62111
904.3914, 68.02752
904.8735, 69.64954
905.3557, 71.57482
905.8378, 74.41039
906.3199, 77.57098
906.8020, 80.76897
907.2841, 83.86757
907.7662, 85.62708
908.2484, 85.61420
908.7305, 84.37281
909.2126, 81.87923
909.6947, 78.44300
910.1768, 74.05266
910.6589, 69.00851
911.1411, 63.65745
911.6232, 58.12277
912.1053, 53.12781
912.5874, 49.22632
913.0695, 46.26736
913.5516, 44.45797
914.0338, 43.38697
914.5159, 41.64056
914.9980, 38.98335
915.4801, 36.68458
915.9622, 35.79148
916.4443, 35.70860
916.9265, 34.90498
917.4086, 33.38335
917.8907, 32.51148
918.3728, 32.52511
918.8549, 32.28242
919.3370, 31.10671
919.8192, 29.78393
920.3013, 29.46697
920.7834, 30.18830
921.2655, 30.49098
921.7476, 30.10954
922.2297, 29.76851
922.7119, 29.57922
923.1940, 29.44450
923.6761, 29.41693
924.1582, 29.37842
924.6403, 29.01015
925.1224, 28.13357
925.6046, 27.61465
926.0867, 27.92023
926.5688, 28.35078
927.0509, 28.74261
927.5330, 28.92236
928.0151, 28.53023
928.4973, 27.70594
928.9794, 27.15262
929.4615, 27.29535
929.9436, 27.58314
930.4257, 27.46371
930.9078, 27.23164
931.3900, 27.37235
931.8721, 27.80494
932.3542, 28.13565
932.8363, 28.24290
933.3184, 28.39586
933.8005, 28.89600
934.2827, 29.59767
934.7648, 30.17529
935.2469, 30.61442
935.7290, 30.61823
936.2111, 30.10137
936.6932, 30.06962
937.1754, 31.23272
937.6575, 32.81172
938.1396, 33.26073
938.6217, 32.42428
939.1038, 32.52248
939.5859, 34.03084
940.0681, 35.17968
940.5502, 35.29889
941.0323, 35.25219
941.5144, 35.84150
941.9965, 36.87328
942.4786, 37.47115
942.9608, 36.93877
943.4429, 37.43069
943.9250, 40.27459
944.4071, 42.69598
944.8892, 43.20432
945.3713, 42.94184
945.8535, 43.26562
946.3356, 44.20258
946.8177, 44.83417
947.2998, 44.76128
947.7819, 44.48785
948.2640, 44.18890
948.7462, 43.85381
949.2283, 43.42626
949.7104, 42.96783
950.1925, 42.63304
950.6746, 42.45370
951.1567, 42.21642
951.6389, 41.59991
952.1210, 40.97063
952.6031, 40.96733
953.0852, 41.26212
953.5673, 41.15671
954.0494, 40.56969
954.5316, 39.70501
955.0137, 38.66099
955.4958, 37.55575
955.9779, 36.48686
956.4600, 35.49642
956.9421, 34.85674
957.4242, 34.55163
957.9063, 34.29772
958.3884, 34.05795
958.8705, 33.36770
959.3527, 31.73299
959.8348, 29.62315
960.3169, 28.53573
960.7990, 28.71830
961.2811, 28.57919
961.7632, 28.07068
962.2454, 27.25101
962.7275, 25.81274
963.2096, 24.55855
963.6917, 24.56135
964.1738, 25.66306
964.6559, 26.08581
965.1381, 25.07570
965.6202, 24.60721
966.1023, 25.51210
966.5844, 26.07529
967.0665, 25.21609
967.5486, 23.76861
968.0308, 22.76449
968.5129, 22.27994
968.9950, 22.15913
969.4771, 22.79365
969.9592, 23.22343
970.4413, 22.94726
970.9235, 22.49981
971.4056, 22.26872
971.8877, 22.21964
972.3698, 22.19698
972.8519, 22.15951
973.3340, 22.19671
973.8162, 22.56210
974.2983, 22.81251
974.7804, 22.52473
975.2625, 21.92601
975.7446, 21.25792
976.2267, 20.60790
976.7089, 20.05510
977.1910, 19.63702
977.6731, 19.35814
978.1552, 19.23057
978.6373, 19.24135
979.1194, 19.40860
979.6016, 19.69139
980.0837, 20.10130
980.5658, 20.56489
981.0479, 20.51370
981.5300, 19.50483
982.0121, 18.15594
982.4943, 17.63151
982.9764, 17.77407
983.4585, 17.57810
983.9406, 17.03870
984.4227, 17.09870
984.9048, 18.10802
985.3870, 19.08840
985.8691, 19.12459
986.3512, 18.48582
986.8333, 18.01375
987.3154, 17.71360
987.7975, 17.54416
988.2797, 17.49912
988.7618, 17.63208
989.2439, 18.06337
989.7260, 18.46846
990.2081, 18.42799
990.6902, 18.00441
991.1724, 17.79117
991.6545, 17.83996
992.1366, 17.98302
992.6187, 18.24083
993.1008, 18.55864
993.5829, 19.19458
994.0651, 19.68271
994.5472, 19.14351
995.0293, 17.54964
995.5114, 16.66672
995.9935, 17.22127
996.4756, 17.45576
996.9578, 16.93529
997.4399, 16.26315
997.9220, 15.38169
998.4041, 14.74991
998.8862, 15.38516
999.3683, 17.42417
999.8505, 18.56832
1000.333, 17.44240
1000.815, 16.38887
1001.297, 16.17074
1001.779, 16.45647
1002.261, 17.47340
1002.743, 18.61424
1003.225, 18.55765
1003.707, 16.96242
1004.190, 15.70786
1004.672, 15.98771
1005.154, 16.62558
1005.636, 17.11900
1006.118, 17.33244
1006.600, 16.89001
1007.082, 16.07059
1007.564, 15.66286
1008.046, 15.95701
1008.529, 16.41212
1009.011, 16.74620
1009.493, 16.89719
1009.975, 16.75079
1010.457, 16.39049
1010.939, 15.91573
1011.421, 15.37740
1011.903, 14.79091
1012.385, 14.15666
1012.868, 13.77750
1013.350, 14.23013
1013.832, 15.02739
1014.314, 15.17448
1014.796, 14.89084
1015.278, 14.89810
1015.760, 15.28224
1016.242, 15.59151
1016.725, 15.54883
1017.207, 15.45277
1017.689, 15.84567
1018.171, 16.53255
1018.653, 16.73536
1019.135, 16.52797
1019.617, 16.50838
1020.099, 16.80063
1020.581, 17.06753
1021.064, 17.09208
1021.546, 16.87715
1022.028, 16.27467
1022.510, 16.19000
1022.992, 15.98430
1023.474, 15.53524
1023.956, 15.66780
1024.438, 15.22222
1024.921, 14.75495
1025.403, 14.66909
1025.885, 14.88467
1026.367, 15.29586
1026.849, 15.93618
1027.331, 16.15685
1027.813, 15.87745
1028.295, 15.63713
1028.777, 15.58431
1029.260, 15.59609
1029.742, 15.57971
1030.224, 15.54811
1030.706, 15.58298
1031.188, 15.78111
1031.670, 15.42844
1032.152, 14.15687
1032.634, 13.44995
1033.116, 13.95624
1033.599, 14.71500
1034.081, 15.00745
1034.563, 14.88764
1035.045, 14.44331
1035.527, 13.33755
1036.009, 13.14056
1036.491, 14.51136
1036.973, 15.52040
1037.456, 15.45813
1037.938, 15.08080
1038.420, 15.05331
1038.902, 15.20389
1039.384, 14.88192
1039.866, 13.65638
1040.348, 13.19123
1040.830, 14.30645
1041.313, 15.00755
1041.795, 14.37062
1042.277, 13.50449
1042.759, 13.22115
1043.241, 13.42807
1043.723, 13.88913
1044.205, 14.78861
1044.687, 15.41495
1045.169, 15.67644
1045.651, 15.74406
1046.134, 15.59754
1046.616, 15.33247
1047.098, 14.91243
1047.580, 14.44669
1048.062, 14.28082
1048.544, 14.61243
1049.026, 14.65466
1049.508, 13.77112
1049.991, 13.27563
1050.473, 13.96884
1050.955, 14.90444
1051.437, 15.49428
1051.919, 15.64421
1052.401, 15.11940
1052.883, 13.60988
1053.365, 12.69099
1053.848, 13.02023
1054.330, 13.57816
1054.812, 14.38893
1055.294, 14.90475
1055.776, 14.35132
1056.258, 13.19707
1056.740, 12.64822
1057.222, 12.99859
1057.704, 13.40686
1058.187, 13.60860
1058.669, 13.85724
1059.151, 14.45151
1059.633, 14.96904
1060.115, 14.92245
1060.597, 14.53522
1061.079, 14.31616
1061.561, 14.36188
1062.043, 14.64483
1062.526, 15.70642
1063.008, 16.30029
1063.490, 15.20861
1063.972, 13.99440
1064.454, 14.35721
1064.936, 15.58079
1065.418, 15.92285
1065.900, 15.01604
1066.383, 14.19718
1066.865, 13.95809
1067.347, 13.95516
1067.829, 14.17794
1068.311, 14.43290
1068.793, 14.59711
1069.275, 14.65229
1069.757, 14.56110
1070.240, 14.32626
1070.722, 14.13555
1071.204, 13.95788
1071.686, 13.98450
1072.168, 14.66125
1072.650, 15.24126
1073.132, 14.95360
1073.614, 14.19235
1074.096, 13.61942
1074.578, 13.37163
1075.061, 13.39108
1075.543, 13.86037
1076.025, 14.26727
1076.507, 14.48327
1076.989, 14.42459
1077.471, 13.67212
1077.953, 12.78310
1078.435, 12.73178
1078.918, 13.50710
1079.400, 14.06500
1079.882, 13.90933
1080.364, 13.69547
1080.846, 13.65134
1081.328, 13.75217
1081.810, 14.10878
1082.292, 14.51974
1082.774, 14.80760
1083.257, 14.89661
1083.739, 14.55797
1084.221, 13.41081
1084.703, 12.75732
1085.185, 13.84579
1085.667, 14.90321
1086.149, 14.41724
1086.631, 13.48892
1087.114, 13.67301
1087.596, 14.68448
1088.078, 14.93047
1088.560, 13.73857
1089.042, 12.83328
1089.524, 13.25174
1090.006, 13.76667
1090.488, 13.51980
1090.970, 13.15152
1091.453, 13.50286
1091.935, 14.27567
1092.417, 14.48652
1092.899, 13.83594
1093.381, 13.43954
1093.863, 13.90911
1094.345, 14.46716
1094.827, 14.92951
1095.309, 15.17035
1095.792, 14.96480
1096.274, 14.51128
1096.756, 14.13635
1097.238, 13.90020
1097.720, 13.87199
1098.202, 14.30917
1098.684, 14.62984
1099.166, 14.68186
1099.649, 14.50779
1100.131, 13.83501
1100.613, 13.11999
1101.095, 13.12386
1101.577, 13.85154
1102.059, 14.41219
1102.541, 14.45565
1103.023, 14.53934
1103.505, 14.89716
1103.988, 15.21018
1104.470, 15.39222
1104.952, 15.37597
1105.434, 14.97727
1105.916, 14.29280
1106.398, 13.79814
1106.880, 13.52765
1107.362, 13.53858
1107.844, 14.28727
1108.327, 14.74674
1108.809, 14.20485
1109.291, 13.49440
1109.773, 13.28000
1110.255, 13.51965
1110.737, 14.11769
1111.219, 15.34631
1111.701, 15.85091
1112.184, 14.71797
1112.666, 13.99408
1113.148, 14.52905
1113.630, 15.19362
1114.112, 15.30422
1114.594, 15.01776
1115.076, 14.51836
1115.558, 13.73579
1116.041, 13.47568
1116.523, 14.38160
1117.005, 14.69020
1117.487, 13.69020
1117.969, 12.83216
1118.451, 12.96298
1118.933, 13.44517
1119.415, 13.37990
1119.897, 13.72473
1120.380, 12.94171
1120.862, 14.09843
1121.344, 14.71300
1121.826, 14.69512
1122.308, 14.13396
1122.790, 12.62934
1123.272, 11.35617
1123.754, 11.55571
1124.236, 12.78786
1124.719, 13.56168
1125.201, 13.79927
1125.683, 14.03348
1126.165, 14.36005
1126.647, 14.23335
1127.129, 13.33830
1127.611, 12.62165
1128.093, 12.79335
1128.576, 13.40644
1129.058, 13.60422
1129.540, 13.41588
1130.022, 13.60146
1130.504, 14.22863
1130.986, 14.31904
1131.468, 13.65964
1131.950, 13.16962
1132.432, 13.29753
1132.915, 13.78188
1133.397, 14.41046
1133.879, 14.99472
1134.361, 14.73571
1134.843, 13.71402
1135.325, 12.78666
1135.807, 12.04645
1136.289, 11.95730
1136.771, 12.65727
1137.254, 13.57665
1137.736, 14.31459
1138.218, 14.72020
1138.700, 14.23453
1139.182, 13.24496
1139.664, 13.17418
1140.146, 13.82505
1140.628, 14.17850
1141.111, 14.08771
1141.593, 14.07318
1142.075, 14.41224
1142.557, 14.83151
1143.039, 15.13726
1143.521, 15.22954
1144.003, 14.74132
1144.485, 13.99588
1144.968, 13.67775
1145.450, 13.74406
1145.932, 13.83767
1146.414, 13.82405
1146.896, 13.63971
1147.378, 13.10062
1147.860, 12.66327
1148.342, 12.73213
1148.824, 13.17604
1149.307, 14.17212
1149.789, 15.27040
1150.271, 15.57454
1150.753, 15.15275
1151.235, 14.98096
1151.717, 15.53561
1152.199, 15.99784
1152.681, 15.73628
1153.163, 15.42024
1153.646, 15.76650
1154.128, 16.06074
1154.610, 15.18938
1155.092, 13.73770
1155.574, 13.22348
1156.056, 13.95574
1156.538, 14.66621
1157.020, 15.13451
1157.503, 15.32370
1157.985, 14.96727
1158.467, 14.61215
1158.949, 14.70184
1159.431, 14.90722
1159.913, 14.64988
1160.395, 14.01756
1160.877, 13.92562
1161.359, 14.97490
1161.842, 15.44761
1162.324, 14.88510
1162.806, 14.41948
1163.288, 14.34499
1163.770, 14.47958
1164.252, 14.78041
1164.734, 15.12074
1165.216, 15.13819
1165.698, 14.75828
1166.181, 15.18390
1166.663, 16.83829
1167.145, 17.68255
1167.627, 17.31329
1168.109, 16.47588
1168.591, 15.32574
1169.073, 14.57211
1169.555, 15.18163
1170.037, 16.65753
1170.520, 16.98960
1171.002, 16.22020
1171.484, 16.31044
1171.966, 17.30950
1172.448, 17.57874
1172.930, 16.69359
1173.412, 15.65627
1173.894, 15.10883
1174.377, 15.03607
1174.859, 15.82571
1175.341, 16.89138
1175.823, 16.18756
1176.305, 14.45464
1176.787, 14.05976
1177.269, 14.98250
1177.751, 15.76523
1178.234, 15.87683
1178.716, 15.69469
1179.198, 15.37140
1179.680, 15.19090
1180.162, 15.68714
1180.644, 15.51817
1181.126, 16.30205
1181.608, 15.97482
1182.090, 16.18764
1182.573, 16.84182
1183.055, 17.02562
1183.537, 16.35571
1184.019, 15.52547
1184.501, 14.51503
1184.983, 13.92775
1185.465, 14.40073
1185.947, 15.15725
1186.429, 15.61253
1186.912, 15.82281
1187.394, 15.92073
1187.876, 15.93839
1188.358, 16.11322
1188.840, 16.83630
1189.322, 17.15393
1189.804, 16.70400
1190.286, 16.17964
1190.769, 15.82779
1191.251, 15.47892
1191.733, 14.79673
1192.215, 14.11636
1192.697, 14.42586
1193.179, 15.91835
1193.661, 16.64807
1194.143, 16.29029
1194.625, 16.51163
1195.108, 17.82734
1195.590, 18.53503
1196.072, 17.70936
1196.554, 16.36095
1197.036, 15.59575
1197.518, 15.32356
1198.000, 15.38718
1198.482, 15.72742
1198.964, 15.66971
1199.447, 15.28807
1199.929, 15.69401
1200.411, 16.99173
1200.893, 17.44607
1201.375, 16.02024
1201.857, 14.35488
1202.339, 14.52832
1202.821, 15.50435
1203.304, 15.53482
1203.786, 15.16542
1204.268, 15.37726
1204.750, 16.06076
1205.232, 16.86617
1205.714, 17.57902
1206.196, 17.54590
1206.678, 16.04885
1207.161, 14.97385
1207.643, 16.14191
1208.125, 17.39869
1208.607, 17.14197
1209.089, 16.28287
1209.571, 15.66638
1210.053, 15.34458
1210.535, 15.25150
1211.017, 15.39718
1211.500, 15.37685
1211.982, 14.82822
1212.464, 14.57993
1212.946, 15.21507
1213.428, 15.52290
1213.910, 14.72567
1214.392, 13.80650
1214.874, 13.71599
1215.356, 14.22665
1215.839, 14.67961
1216.321, 15.09050
1216.803, 15.23489
1217.285, 15.03641
1217.767, 15.12076
1218.249, 15.62374
1218.731, 16.10922
1219.213, 16.37147
1219.696, 16.52798
1220.178, 16.74610
1220.660, 16.85625
1221.142, 16.27342
1221.624, 15.28830
1222.106, 14.84356
1222.588, 14.90745
1223.070, 15.30816
1223.552, 15.91318
1224.035, 16.37005
1224.517, 16.51445
1224.999, 16.48038
1225.481, 16.32912
1225.963, 16.10815
1226.445, 15.80049
1226.927, 15.50103
1227.409, 15.25699
1227.891, 15.12490
1228.374, 15.28590
1228.856, 15.65811
1229.338, 15.74903
1229.820, 15.33370
1230.302, 14.96896
1230.784, 14.84160
1231.266, 14.69980
1231.748, 14.30014
1232.231, 14.05368
1232.713, 14.37850
1233.195, 14.86600
1233.677, 14.95776
1234.159, 14.67473
1234.641, 14.12916
1235.123, 14.03351
1235.605, 13.77609
1236.088, 13.31739
1236.570, 13.46024
1237.052, 12.86470
1237.534, 12.60015
1238.016, 13.37718
1238.498, 14.66235
1238.980, 15.86751
1239.462, 16.83630
1239.944, 17.13881
1240.427, 16.86803
1240.909, 16.04864
1241.391, 14.95459
1241.873, 14.44741
1242.355, 14.62203
1242.837, 14.66123
1243.319, 14.06443
1243.801, 13.75408
1244.283, 15.03699
1244.766, 16.15647
1245.248, 15.34800
1245.730, 14.10086
1246.212, 13.98045
1246.694, 14.49222
1247.176, 14.52834
1247.658, 14.03978
1248.140, 13.92706
1248.622, 14.60309
1249.105, 15.05793
1249.587, 15.06355
1250.069, 15.13425
1250.551, 15.52290
1251.033, 15.75896
1251.515, 15.52570
1251.997, 14.99112
1252.479, 14.29761
1252.962, 13.58931
1253.444, 13.93161
1253.926, 13.58854
1254.408, 13.61506
1254.890, 14.20392
1255.372, 14.01852
1255.854, 15.24834
1256.336, 16.05477
1256.818, 15.36949
1257.301, 14.27314
1257.783, 13.83198
1258.265, 13.79602
1258.747, 13.88221
1259.229, 14.12581
1259.711, 14.90961
1260.193, 15.72971
1260.675, 15.43927
1261.157, 14.18762
1261.640, 13.44028
1262.122, 13.75349
1262.604, 14.02993
1263.086, 13.88008
1263.568, 13.70387
1264.050, 13.54864
1264.532, 13.49946
1265.014, 13.74546
1265.497, 13.99004
1265.979, 13.88316
1266.461, 13.48610
1266.943, 12.94957
1267.425, 12.12796
1267.907, 12.53003
1268.389, 14.35501
1268.871, 15.05713
1269.354, 14.16823
1269.836, 13.38101
1270.318, 13.46763
1270.800, 13.69515
1271.282, 13.31036
1271.764, 13.42807
1272.246, 12.86128
1272.728, 13.25189
1273.210, 13.25320
1273.693, 13.11897
1274.175, 13.52415
1274.657, 14.27984
1275.139, 14.54060
1275.621, 14.09854
1276.103, 13.71049
1276.585, 13.79355
1277.067, 13.81138
1277.549, 13.42885
1278.032, 13.13966
1278.514, 13.38887
1278.996, 13.62722
1279.478, 13.29106
1279.960, 12.67871
1280.442, 12.33394
1280.924, 12.25737
1281.406, 12.58076
1281.889, 12.53176
1282.371, 12.74153
1282.853, 13.12708
1283.335, 13.06924
1283.817, 13.79877
1284.299, 13.89224
1284.781, 12.37261
1285.263, 10.85657
1285.745, 10.99655
1286.228, 12.79858
##END=



