##NAMES=Willemite
##RRUFFID=R100109
##IDEAL CHEMISTRY=Zn^2+^_2_SiO_4_
##LOCALITY=Franklin, Sussex County, New Jersey, USA
##OWNER=RRUFF
##SOURCE=American Museum of Natural History
##DESCRIPTION=Pale yellow transparent fragments
##STATUS=The identification of this mineral is confirmed by single-crystal X-ray diffraction and chemical analysis.
##URL=rruff.info/R100109
##MEASURED CHEMISTRY=(Zn_1.677_Mn^+2^_0.242_Mg_0.034_Fe^+2^_0.001_)_Î£=1.954_Si_1.023_O_4_
91.53320, 132.5530
92.01532, 139.8857
92.49744, 142.2063
92.97955, 138.9077
93.46167, 131.3537
93.94379, 124.2876
94.42590, 119.0935
94.90802, 114.9968
95.39014, 110.7744
95.87225, 106.2431
96.35437, 102.2962
96.83649, 99.25243
97.31860, 96.92496
97.80072, 95.24048
98.28284, 94.16493
98.76495, 93.47794
99.24707, 92.60102
99.72919, 91.25498
100.2113, 90.07059
100.6934, 89.39304
101.1755, 88.99049
101.6577, 88.39257
102.1398, 87.11897
102.6219, 84.95672
103.1040, 83.25664
103.5861, 82.15077
104.0682, 81.23096
104.5504, 80.25207
105.0325, 79.18456
105.5146, 78.16809
105.9967, 77.38743
106.4788, 76.84151
106.9609, 76.56580
107.4431, 76.64868
107.9252, 76.97299
108.4073, 77.27230
108.8894, 77.33302
109.3715, 77.65615
109.8536, 79.28996
110.3358, 82.52329
110.8179, 85.56424
111.3000, 87.82101
111.7821, 89.25027
112.2642, 89.32806
112.7463, 87.14295
113.2285, 83.80765
113.7106, 80.29418
114.1927, 76.64933
114.6748, 73.18054
115.1569, 70.33285
115.6390, 68.13065
116.1212, 66.49208
116.6033, 65.78169
117.0854, 65.37385
117.5675, 64.59063
118.0496, 63.03320
118.5317, 60.93747
119.0139, 59.45766
119.4960, 59.22542
119.9781, 59.00727
120.4602, 58.53476
120.9423, 57.91401
121.4244, 57.38012
121.9066, 57.13129
122.3887, 57.20097
122.8708, 57.06656
123.3529, 56.52800
123.8350, 56.01089
124.3171, 55.77113
124.7993, 55.78985
125.2814, 55.82052
125.7635, 55.60263
126.2456, 55.06424
126.7277, 54.60441
127.2098, 54.19896
127.6920, 53.88776
128.1741, 53.75937
128.6562, 53.86276
129.1383, 53.99963
129.6204, 53.87142
130.1025, 53.50938
130.5847, 53.20215
131.0668, 53.13444
131.5489, 53.22863
132.0310, 53.19841
132.5131, 52.88243
132.9952, 52.53527
133.4774, 52.40897
133.9595, 52.50519
134.4416, 52.60519
134.9237, 52.37217
135.4058, 51.68736
135.8879, 51.50314
136.3701, 52.73604
136.8522, 54.06278
137.3343, 54.62577
137.8164, 54.23243
138.2985, 53.44929
138.7806, 53.27150
139.2628, 54.15008
139.7449, 54.84099
140.2270, 55.26254
140.7091, 55.46250
141.1912, 55.44607
141.6733, 55.21642
142.1555, 54.83279
142.6376, 54.50126
143.1197, 54.31366
143.6018, 54.07744
144.0839, 53.81269
144.5660, 53.48096
145.0482, 52.99799
145.5303, 52.29214
146.0124, 51.41187
146.4945, 50.71209
146.9766, 50.22691
147.4587, 49.84206
147.9409, 49.52138
148.4230, 49.26350
148.9051, 49.08440
149.3872, 49.04662
149.8693, 49.10016
150.3514, 48.98186
150.8336, 48.48609
151.3157, 47.94075
151.7978, 47.71242
152.2799, 47.85921
152.7620, 47.94221
153.2441, 47.27618
153.7263, 46.32157
154.2084, 45.92054
154.6905, 46.87856
155.1726, 48.50822
155.6547, 49.23504
156.1368, 48.67766
156.6190, 47.84502
157.1011, 47.12706
157.5832, 46.56909
158.0653, 46.26933
158.5474, 46.35802
159.0295, 46.80705
159.5117, 47.25117
159.9938, 47.81743
160.4759, 48.24005
160.9580, 48.38166
161.4401, 48.29293
161.9222, 48.10909
162.4044, 47.93513
162.8865, 47.76204
163.3686, 47.65062
163.8507, 47.67077
164.3328, 47.68726
164.8149, 47.67408
165.2971, 47.61060
165.7792, 47.45463
166.2613, 47.12794
166.7434, 46.48096
167.2255, 46.13106
167.7076, 46.17556
168.1898, 46.39905
168.6719, 46.69086
169.1540, 47.01772
169.6361, 47.35972
170.1182, 47.70861
170.6003, 48.14223
171.0825, 48.34572
171.5646, 48.04159
172.0467, 47.60069
172.5288, 47.51803
173.0109, 47.97178
173.4930, 48.57609
173.9752, 48.60064
174.4573, 47.96070
174.9394, 47.50759
175.4215, 47.67487
175.9036, 48.20521
176.3857, 48.52510
176.8679, 48.45625
177.3500, 48.13253
177.8321, 47.70873
178.3142, 47.16634
178.7963, 46.69158
179.2784, 46.44521
179.7606, 46.39492
180.2427, 46.27406
180.7248, 45.83574
181.2069, 45.47145
181.6890, 45.62017
182.1711, 46.33531
182.6533, 47.04950
183.1354, 47.08834
183.6175, 46.32813
184.0996, 45.87505
184.5817, 46.34066
185.0638, 46.98112
185.5460, 47.33533
186.0281, 47.31096
186.5102, 47.20924
186.9923, 47.48264
187.4744, 48.30363
187.9565, 49.04866
188.4387, 49.57409
188.9208, 50.04653
189.4029, 50.57913
189.8850, 51.20949
190.3671, 51.89175
190.8492, 52.57310
191.3314, 53.40209
191.8135, 53.94471
192.2956, 54.16239
192.7777, 54.13001
193.2598, 53.89899
193.7419, 53.49131
194.2241, 52.91432
194.7062, 52.18600
195.1883, 50.95037
195.6704, 49.97642
196.1525, 49.58448
196.6346, 49.36738
197.1168, 48.75185
197.5989, 47.46820
198.0810, 45.86152
198.5631, 44.95814
199.0452, 45.24115
199.5273, 45.52811
200.0095, 45.78131
200.4916, 45.90179
200.9737, 45.66237
201.4558, 44.89472
201.9379, 43.83464
202.4200, 43.15800
202.9022, 42.95039
203.3843, 42.86644
203.8664, 42.84740
204.3485, 42.86848
204.8306, 42.84178
205.3127, 42.68445
205.7949, 42.51224
206.2770, 42.59836
206.7591, 43.09857
207.2412, 43.50458
207.7233, 43.44098
208.2054, 42.98024
208.6876, 42.57978
209.1697, 42.47821
209.6518, 42.49030
210.1339, 42.31340
210.6160, 41.86848
211.0981, 41.43354
211.5803, 41.22624
212.0624, 41.24676
212.5445, 41.38389
213.0266, 41.73676
213.5087, 42.10463
213.9908, 42.25984
214.4730, 42.13428
214.9551, 41.98473
215.4372, 42.16909
215.9193, 42.77418
216.4014, 43.17638
216.8836, 43.03905
217.3657, 42.71514
217.8478, 42.40133
218.3299, 42.14502
218.8120, 41.92112
219.2941, 41.66161
219.7763, 41.29494
220.2584, 41.13971
220.7405, 41.43092
221.2226, 41.82845
221.7047, 42.13871
222.1868, 42.30300
222.6690, 42.32499
223.1511, 42.16968
223.6332, 41.68534
224.1153, 41.37465
224.5974, 41.47613
225.0795, 41.62153
225.5617, 41.46461
226.0438, 40.93461
226.5259, 40.32617
227.0080, 40.19376
227.4901, 40.97324
227.9722, 41.43796
228.4544, 41.40770
228.9365, 41.18229
229.4186, 40.90760
229.9007, 40.65391
230.3828, 40.51575
230.8649, 40.69037
231.3471, 41.64361
231.8292, 42.14325
232.3113, 41.93251
232.7934, 41.46228
233.2755, 41.04351
233.7576, 40.77950
234.2398, 40.65632
234.7219, 40.67067
235.2040, 41.04240
235.6861, 41.13667
236.1682, 40.76122
236.6503, 40.21972
237.1325, 39.74363
237.6146, 39.40306
238.0967, 39.19879
238.5788, 39.15497
239.0609, 39.39563
239.5430, 39.50740
240.0252, 39.30993
240.5073, 39.05950
240.9894, 39.12247
241.4715, 39.58322
241.9536, 39.99927
242.4357, 39.65960
242.9179, 38.28172
243.4000, 37.43599
243.8821, 37.60004
244.3642, 38.21656
244.8463, 38.78496
245.3284, 39.22049
245.8106, 39.41331
246.2927, 39.10169
246.7748, 38.25780
247.2569, 37.64892
247.7390, 37.56291
248.2211, 37.69298
248.7033, 37.61721
249.1854, 37.24086
249.6675, 36.91793
250.1496, 37.12710
250.6317, 37.77687
251.1138, 38.23013
251.5960, 38.25800
252.0781, 38.06184
252.5602, 37.87759
253.0423, 37.72310
253.5244, 37.60122
254.0065, 37.50862
254.4887, 37.45059
254.9708, 37.45908
255.4529, 37.63044
255.9350, 37.83782
256.4171, 37.87632
256.8992, 37.70533
257.3813, 37.52543
257.8635, 37.44752
258.3456, 37.46057
258.8277, 37.57336
259.3098, 37.82979
259.7919, 38.16229
260.2740, 38.48322
260.7562, 38.79390
261.2383, 39.08564
261.7204, 39.40376
262.2025, 39.68729
262.6846, 39.85474
263.1667, 39.89277
263.6489, 39.79205
264.1310, 39.47264
264.6131, 38.86105
265.0952, 38.35101
265.5773, 38.10726
266.0594, 38.06466
266.5416, 38.22611
267.0237, 38.64211
267.5058, 39.13025
267.9879, 39.40984
268.4700, 39.41360
268.9521, 39.51954
269.4343, 40.06290
269.9164, 40.65403
270.3985, 40.97682
270.8806, 40.94587
271.3627, 40.74487
271.8448, 40.54578
272.3270, 40.31752
272.8091, 40.24995
273.2912, 40.64402
273.7733, 41.05438
274.2554, 41.14248
274.7375, 40.86285
275.2197, 40.53880
275.7018, 40.56249
276.1839, 40.99452
276.6660, 41.37633
277.1481, 41.45001
277.6302, 41.60561
278.1124, 42.09545
278.5945, 42.90970
279.0766, 43.80140
279.5587, 44.55804
280.0408, 45.18069
280.5229, 45.67988
281.0051, 45.98729
281.4872, 46.21474
281.9693, 46.41940
282.4514, 46.58769
282.9335, 46.66734
283.4156, 46.63330
283.8978, 46.48747
284.3799, 46.13167
284.8620, 45.24884
285.3441, 44.46984
285.8262, 44.12312
286.3083, 44.05324
286.7905, 43.88670
287.2726, 43.30012
287.7547, 42.36503
288.2368, 41.80355
288.7189, 42.03056
289.2010, 42.15382
289.6832, 41.85242
290.1653, 41.31126
290.6474, 40.80948
291.1295, 40.50531
291.6116, 40.36660
292.0938, 40.26525
292.5759, 40.17055
293.0580, 40.17100
293.5401, 40.36377
294.0222, 40.62032
294.5043, 40.82661
294.9865, 40.93627
295.4686, 40.91468
295.9507, 40.62566
296.4328, 39.72178
296.9149, 39.19044
297.3970, 39.36422
297.8792, 39.78216
298.3613, 40.05156
298.8434, 40.05305
299.3255, 39.93220
299.8076, 39.94769
300.2897, 40.22689
300.7719, 40.34735
301.2540, 40.35662
301.7361, 40.18355
302.2182, 39.67822
302.7003, 38.87125
303.1824, 38.02397
303.6646, 37.46057
304.1467, 37.26966
304.6288, 37.05392
305.1109, 36.69320
305.5930, 36.41076
306.0751, 36.39362
306.5573, 36.57951
307.0394, 36.72478
307.5215, 36.57594
308.0036, 36.09787
308.4857, 35.83250
308.9678, 36.07737
309.4500, 36.24933
309.9321, 36.07737
310.4142, 35.70361
310.8963, 35.45404
311.3784, 35.57625
311.8605, 36.00027
312.3427, 36.16634
312.8248, 35.71535
313.3069, 35.41888
313.7890, 35.54514
314.2711, 35.86622
314.7532, 36.07740
315.2354, 36.02456
315.7175, 35.79760
316.1996, 35.65310
316.6817, 35.63342
317.1638, 35.63671
317.6459, 35.64368
318.1281, 35.66918
318.6102, 35.75497
319.0923, 35.90642
319.5744, 36.04661
320.0565, 35.99907
320.5386, 35.53077
321.0208, 35.43169
321.5029, 36.16466
321.9850, 36.89325
322.4671, 37.02842
322.9492, 36.54836
323.4313, 35.89537
323.9135, 35.53955
324.3956, 35.53053
324.8777, 35.57781
325.3598, 35.83165
325.8419, 36.00251
326.3240, 35.87288
326.8062, 35.54788
327.2883, 35.33282
327.7704, 35.50897
328.2525, 36.04066
328.7346, 36.28840
329.2167, 35.94700
329.6989, 35.65155
330.1810, 35.60320
330.6631, 35.68825
331.1452, 35.72955
331.6273, 35.63000
332.1094, 35.43189
332.5916, 35.27298
333.0737, 35.22110
333.5558, 35.08720
334.0379, 34.69395
334.5200, 34.29007
335.0021, 34.12537
335.4843, 34.27685
335.9664, 34.60982
336.4485, 34.97216
336.9306, 35.48938
337.4127, 35.65025
337.8948, 35.03811
338.3770, 34.35222
338.8591, 33.96976
339.3412, 33.93521
339.8233, 34.10126
340.3055, 34.38330
340.7876, 34.80565
341.2697, 35.08634
341.7518, 35.15703
342.2339, 35.13568
342.7160, 34.92153
343.1982, 34.64428
343.6803, 34.61551
344.1624, 35.17367
344.6445, 36.12931
345.1266, 36.48011
345.6087, 35.81370
346.0909, 35.19513
346.5730, 34.98687
347.0551, 35.01757
347.5372, 35.10859
348.0193, 35.21364
348.5014, 35.25702
348.9836, 35.03450
349.4657, 34.40920
349.9478, 33.98383
350.4299, 34.11196
350.9120, 34.37937
351.3941, 34.47752
351.8763, 34.35092
352.3584, 34.19281
352.8405, 34.18618
353.3226, 34.33281
353.8047, 34.57243
354.2868, 34.98051
354.7690, 35.39771
355.2511, 35.77648
355.7332, 36.09418
356.2153, 36.27183
356.6974, 36.18143
357.1795, 35.89739
357.6617, 35.68127
358.1438, 35.47509
358.6259, 35.47547
359.1080, 35.97475
359.5901, 36.70673
360.0722, 37.25788
360.5544, 37.49424
361.0365, 37.47041
361.5186, 37.12947
362.0007, 36.40043
362.4828, 35.93804
362.9649, 36.16235
363.4471, 36.72050
363.9292, 37.23407
364.4113, 37.67085
364.8934, 38.04233
365.3755, 38.34515
365.8576, 38.58587
366.3398, 38.80460
366.8219, 39.02559
367.3040, 39.20264
367.7861, 39.20932
368.2682, 39.07070
368.7503, 39.11979
369.2325, 39.67644
369.7146, 40.45164
370.1967, 40.92733
370.6788, 41.02887
371.1609, 41.02198
371.6430, 41.03252
372.1252, 41.09387
372.6073, 41.31551
373.0894, 41.76435
373.5715, 42.33683
374.0536, 43.03030
374.5357, 43.80894
375.0179, 44.46274
375.5000, 44.84816
375.9821, 45.07191
376.4642, 45.39922
376.9463, 45.87030
377.4284, 46.33306
377.9106, 46.70493
378.3927, 47.03644
378.8748, 47.46959
379.3569, 48.06473
379.8390, 48.58491
380.3211, 48.67534
380.8033, 48.23800
381.2854, 47.93224
381.7675, 47.76220
382.2496, 47.77005
382.7317, 48.05067
383.2138, 48.57777
383.6960, 49.19828
384.1781, 49.86376
384.6602, 50.53706
385.1423, 50.72339
385.6244, 50.17849
386.1065, 49.52137
386.5887, 48.75365
387.0708, 48.04675
387.5529, 47.75435
388.0350, 48.05117
388.5171, 48.61343
388.9992, 48.72474
389.4814, 47.95092
389.9635, 47.36779
390.4456, 47.03844
390.9277, 46.85376
391.4098, 46.80100
391.8919, 46.83607
392.3741, 46.80637
392.8562, 46.53242
393.3383, 45.96424
393.8204, 45.52948
394.3025, 45.33743
394.7846, 45.15517
395.2668, 44.90031
395.7489, 44.59685
396.2310, 44.29614
396.7131, 44.02522
397.1952, 43.78686
397.6773, 43.60075
398.1595, 43.56768
398.6416, 43.41156
399.1237, 42.99285
399.6058, 42.51545
400.0879, 42.17009
400.5700, 41.99335
401.0522, 41.85648
401.5343, 41.63207
402.0164, 41.33614
402.4985, 40.85006
402.9806, 39.88223
403.4627, 38.99359
403.9449, 38.51802
404.4270, 38.32632
404.9091, 38.04248
405.3912, 37.33260
405.8733, 36.41193
406.3554, 36.05592
406.8376, 36.58098
407.3197, 36.87043
407.8018, 36.11695
408.2839, 35.07287
408.7660, 34.57299
409.2481, 34.88662
409.7303, 35.33294
410.2124, 35.17894
410.6945, 34.46575
411.1766, 33.82747
411.6587, 33.37415
412.1408, 33.07051
412.6230, 32.92287
413.1051, 32.90747
413.5872, 32.84566
414.0693, 32.60788
414.5514, 32.29776
415.0335, 32.07122
415.5157, 31.93733
415.9978, 31.88939
416.4799, 31.99994
416.9620, 32.18003
417.4441, 32.16032
417.9262, 31.76887
418.4084, 31.39184
418.8905, 31.30787
419.3726, 31.41040
419.8547, 31.43181
420.3368, 31.28374
420.8189, 31.00707
421.3011, 30.61481
421.7832, 30.02326
422.2653, 29.67752
422.7474, 29.84210
423.2295, 30.12606
423.7116, 30.14579
424.1938, 29.90751
424.6759, 29.72228
425.1580, 29.84531
425.6401, 30.25651
426.1222, 30.58662
426.6043, 30.98260
427.0865, 31.14283
427.5686, 30.79834
428.0507, 30.23313
428.5328, 29.83253
429.0149, 29.74390
429.4970, 29.85496
429.9792, 29.98000
430.4613, 30.15689
430.9434, 30.26169
431.4255, 30.31184
431.9076, 30.29053
432.3897, 30.09486
432.8719, 29.80182
433.3540, 29.66126
433.8361, 29.93768
434.3182, 30.52370
434.8003, 30.59395
435.2824, 29.67533
435.7646, 28.96131
436.2467, 28.84921
436.7288, 29.01736
437.2109, 29.11782
437.6930, 29.04047
438.1751, 28.95599
438.6573, 29.16715
439.1394, 29.71536
439.6215, 29.95302
440.1036, 29.60714
440.5857, 29.12507
441.0678, 28.72488
441.5500, 28.42751
442.0321, 28.28584
442.5142, 28.52213
442.9963, 28.85318
443.4784, 28.59962
443.9605, 27.64480
444.4427, 27.03905
444.9248, 27.59730
445.4069, 28.69341
445.8890, 29.20383
446.3711, 28.92222
446.8532, 28.51042
447.3354, 28.18087
447.8175, 28.00108
448.2996, 28.24248
448.7817, 29.03491
449.2638, 29.79356
449.7459, 29.78392
450.2281, 28.94580
450.7102, 28.49517
451.1923, 28.76747
451.6744, 29.17987
452.1565, 29.42709
452.6386, 29.51211
453.1208, 29.49062
453.6029, 29.37958
454.0850, 29.22193
454.5671, 29.13725
455.0492, 29.20014
455.5313, 29.23765
456.0135, 29.20957
456.4956, 29.18106
456.9777, 29.20840
457.4598, 29.29564
457.9419, 29.41660
458.4240, 29.56860
458.9062, 29.75422
459.3883, 29.74984
459.8704, 29.20584
460.3525, 28.86808
460.8346, 29.08853
461.3167, 29.53549
461.7989, 29.75873
462.2810, 29.58411
462.7631, 29.26433
463.2452, 29.22071
463.7273, 29.51942
464.2094, 29.70122
464.6916, 29.68745
465.1737, 29.55170
465.6558, 29.19216
466.1379, 28.71845
466.6200, 28.49742
467.1021, 28.92936
467.5843, 29.65448
468.0664, 29.85558
468.5485, 29.43826
469.0306, 29.20474
469.5127, 29.70198
469.9948, 30.48605
470.4770, 30.84129
470.9591, 30.65560
471.4412, 30.37653
471.9233, 30.15182
472.4054, 30.00317
472.8875, 29.99216
473.3697, 30.13467
473.8518, 30.34526
474.3339, 30.58905
474.8160, 30.85443
475.2981, 30.92700
475.7802, 30.49051
476.2624, 30.19751
476.7445, 30.51467
477.2266, 31.15542
477.7087, 31.56271
478.1908, 31.51664
478.6729, 31.20290
479.1551, 30.94477
479.6372, 30.72676
480.1193, 30.61012
480.6014, 30.58927
481.0835, 30.65870
481.5656, 30.90308
482.0478, 31.24070
482.5299, 31.46533
483.0120, 31.42432
483.4941, 31.20146
483.9762, 31.13873
484.4583, 31.40276
484.9405, 31.48118
485.4226, 31.13258
485.9047, 30.67253
486.3868, 30.34578
486.8689, 30.18126
487.3510, 30.04555
487.8332, 29.79996
488.3153, 29.48115
488.7974, 29.26689
489.2795, 29.18423
489.7616, 29.15648
490.2437, 29.16353
490.7259, 29.18970
491.2080, 29.22552
491.6901, 29.31415
492.1722, 29.32217
492.6543, 29.08650
493.1364, 28.68978
493.6186, 28.36618
494.1007, 28.17141
494.5828, 28.07067
495.0649, 28.04806
495.5470, 28.11449
496.0291, 28.12441
496.5113, 28.07800
496.9934, 27.96951
497.4755, 27.78427
497.9576, 27.53453
498.4397, 27.18633
498.9218, 26.70885
499.4040, 26.28147
499.8861, 26.35559
500.3682, 27.52748
500.8503, 28.08759
501.3324, 27.58798
501.8145, 26.93578
502.2967, 26.66528
502.7788, 26.75207
503.2609, 26.90200
503.7430, 26.91469
504.2251, 26.82850
504.7072, 26.78942
505.1894, 26.80268
505.6715, 26.85209
506.1536, 27.03235
506.6357, 27.18176
507.1178, 27.11859
507.5999, 26.83568
508.0821, 26.58764
508.5642, 26.59223
509.0463, 26.77585
509.5284, 26.94259
510.0105, 27.09534
510.4926, 27.16556
510.9748, 27.06397
511.4569, 26.85872
511.9390, 26.71272
512.4211, 26.64848
512.9032, 26.61981
513.3853, 26.68285
513.8674, 26.74557
514.3495, 26.57066
514.8317, 26.10541
515.3138, 25.71698
515.7959, 25.85387
516.2780, 26.58483
516.7601, 26.74372
517.2422, 25.80742
517.7244, 24.98287
518.2065, 24.67898
518.6886, 24.73872
519.1707, 24.96538
519.6528, 25.27454
520.1349, 25.58220
520.6171, 25.75668
521.0992, 25.77609
521.5813, 25.75243
522.0634, 25.66358
522.5455, 25.55066
523.0276, 25.34006
523.5098, 25.12942
523.9919, 25.12567
524.4740, 25.47335
524.9561, 25.91114
525.4382, 26.04444
525.9203, 25.86713
526.4025, 25.66537
526.8846, 25.45924
527.3667, 25.31119
527.8488, 25.25555
528.3309, 25.29374
528.8130, 25.46693
529.2952, 25.98135
529.7773, 26.48723
530.2594, 26.59229
530.7415, 26.37585
531.2236, 26.22401
531.7057, 26.30952
532.1879, 26.54530
532.6700, 26.78466
533.1521, 27.12456
533.6342, 27.22449
534.1163, 26.81594
534.5984, 26.38870
535.0806, 26.23782
535.5627, 26.35031
536.0448, 26.60214
536.5269, 26.92211
537.0090, 27.30215
537.4911, 27.72820
537.9733, 28.27665
538.4554, 28.70752
538.9375, 28.87880
539.4196, 29.02398
539.9017, 29.26071
540.3839, 29.60245
540.8660, 30.03568
541.3481, 30.61366
541.8302, 31.24349
542.3123, 31.71335
542.7944, 32.01228
543.2766, 32.24175
543.7587, 32.41987
544.2408, 32.56142
544.7229, 32.72358
545.2050, 32.92818
545.6871, 32.97769
546.1693, 32.56049
546.6514, 32.10510
547.1335, 32.12973
547.6156, 32.61370
548.0977, 33.21177
548.5798, 33.75973
549.0620, 34.19725
549.5441, 34.31874
550.0262, 33.87436
550.5083, 33.42599
550.9904, 33.09478
551.4725, 32.66820
551.9547, 31.83211
552.4368, 30.71043
552.9189, 29.79328
553.4010, 29.49016
553.8831, 29.63124
554.3652, 29.50453
554.8474, 28.93077
555.3295, 28.54471
555.8116, 28.85807
556.2937, 29.17437
556.7758, 28.88341
557.2579, 27.99830
557.7401, 27.17850
558.2222, 26.79524
558.7043, 26.73148
559.1864, 26.89269
559.6685, 27.27606
560.1506, 27.45101
560.6328, 27.11480
561.1149, 26.53110
561.5970, 26.28156
562.0791, 26.42263
562.5612, 26.63168
563.0433, 26.98126
563.5255, 27.27732
564.0076, 27.31202
564.4897, 27.12482
564.9718, 26.90312
565.4539, 26.75136
565.9360, 26.70250
566.4182, 26.90034
566.9003, 27.64300
567.3824, 28.06529
567.8645, 27.92801
568.3466, 27.64689
568.8287, 27.38174
569.3109, 27.19694
569.7930, 27.21060
570.2751, 27.58783
570.7572, 28.11248
571.2393, 28.30657
571.7214, 28.14672
572.2036, 27.92885
572.6857, 27.68009
573.1678, 27.48567
573.6499, 27.50331
574.1320, 27.72633
574.6141, 27.80713
575.0963, 27.50607
575.5784, 27.13956
576.0605, 26.95918
576.5426, 26.95081
577.0247, 27.05181
577.5068, 27.24745
577.9890, 27.44788
578.4711, 27.46109
578.9532, 27.09935
579.4353, 27.03975
579.9174, 27.50694
580.3995, 28.01190
580.8817, 28.39388
581.3638, 28.62484
581.8459, 28.66686
582.3280, 28.48851
582.8101, 28.22421
583.2922, 28.12418
583.7744, 28.20907
584.2565, 28.13310
584.7386, 27.69945
585.2207, 27.31241
585.7029, 27.34951
586.1850, 27.65012
586.6671, 27.79393
587.1492, 27.53817
587.6313, 27.29011
588.1135, 27.38769
588.5956, 27.71402
589.0777, 28.02544
589.5598, 28.26285
590.0419, 28.38758
590.5240, 28.31594
591.0062, 28.02906
591.4883, 27.99610
591.9704, 28.44401
592.4525, 28.83883
592.9346, 29.00103
593.4167, 29.06540
593.8989, 29.23456
594.3810, 29.53089
594.8631, 29.74834
595.3452, 29.60266
595.8273, 29.14224
596.3094, 28.96100
596.7916, 29.20945
597.2737, 29.39220
597.7558, 29.19284
598.2379, 28.86978
598.7200, 28.68083
599.2021, 28.65711
599.6843, 28.72460
600.1664, 29.00883
600.6485, 29.28151
601.1306, 29.10971
601.6127, 28.52106
602.0948, 28.04580
602.5770, 28.00781
603.0591, 28.25750
603.5412, 28.38549
604.0233, 28.33284
604.5054, 28.24365
604.9875, 28.07901
605.4697, 27.91201
605.9518, 27.79153
606.4339, 27.70870
606.9160, 27.63128
607.3981, 27.54154
607.8802, 27.44669
608.3624, 27.34431
608.8445, 27.22315
609.3266, 27.19822
609.8087, 27.36888
610.2908, 27.53433
610.7729, 27.51970
611.2551, 27.38066
611.7372, 27.28449
612.2193, 27.32421
612.7014, 27.35563
613.1835, 27.23520
613.6656, 27.03598
614.1478, 26.94602
614.6299, 27.01065
615.1120, 27.05500
615.5941, 26.87037
616.0762, 26.45450
616.5583, 26.29708
617.0405, 26.52543
617.5226, 26.85294
618.0047, 27.56118
618.4868, 28.14913
618.9689, 27.94554
619.4510, 26.97480
619.9332, 26.06303
620.4153, 25.99785
620.8974, 26.52512
621.3795, 26.75278
621.8616, 26.66008
622.3438, 26.35112
622.8259, 25.64509
623.3080, 24.93499
623.7901, 24.76641
624.2722, 25.15900
624.7543, 25.61322
625.2365, 26.13707
625.7186, 26.55475
626.2007, 26.70904
626.6828, 26.63154
627.1649, 26.41275
627.6470, 26.08838
628.1292, 25.67495
628.6113, 25.16526
629.0934, 24.47670
629.5755, 24.03501
630.0576, 23.95503
630.5397, 24.01544
631.0219, 24.27915
631.5040, 24.59938
631.9861, 24.82385
632.4682, 24.91300
632.9503, 24.78270
633.4324, 24.04534
633.9146, 23.02628
634.3967, 22.97484
634.8788, 24.10744
635.3609, 25.05473
635.8430, 24.92536
636.3251, 24.10012
636.8073, 23.67970
637.2894, 23.81228
637.7715, 23.91805
638.2536, 23.88766
638.7357, 23.81699
639.2178, 23.83773
639.7000, 23.88574
640.1821, 23.71304
640.6642, 23.16126
641.1463, 22.52045
641.6284, 22.45779
642.1105, 23.13141
642.5927, 23.52426
643.0748, 23.33867
643.5569, 23.12638
644.0390, 22.89780
644.5211, 22.91021
645.0032, 23.78016
645.4854, 25.97530
645.9675, 28.25876
646.4496, 30.02957
646.9317, 31.26021
647.4138, 31.79778
647.8959, 31.65452
648.3781, 31.17580
648.8602, 30.54832
649.3423, 29.86122
649.8244, 29.55401
650.3065, 29.68433
650.7886, 30.14133
651.2708, 31.70293
651.7529, 32.90406
652.2350, 32.21433
652.7171, 30.29028
653.1992, 29.21447
653.6813, 30.30013
654.1635, 32.21082
654.6456, 32.95865
655.1277, 32.61153
655.6098, 31.89466
656.0919, 30.72685
656.5740, 29.88023
657.0562, 30.54615
657.5383, 32.28278
658.0204, 32.10755
658.5025, 26.99256
658.9846, 23.75451
659.4667, 26.54160
659.9489, 30.85550
660.4310, 31.65957
660.9131, 28.76752
661.3952, 25.34626
661.8773, 23.64364
662.3594, 23.28832
662.8416, 23.09759
663.3237, 23.13083
663.8058, 23.10023
664.2879, 22.81971
664.7700, 22.60588
665.2521, 22.73214
665.7343, 23.11221
666.2164, 23.44776
666.6985, 23.64632
667.1806, 23.79109
667.6627, 24.00264
668.1448, 24.18673
668.6270, 24.13807
669.1091, 23.82560
669.5912, 23.37705
670.0733, 22.85819
670.5554, 22.32335
671.0375, 22.16804
671.5197, 22.64160
672.0018, 23.09624
672.4839, 23.60971
672.9660, 23.96090
673.4481, 23.80872
673.9302, 23.33421
674.4124, 23.16871
674.8945, 23.80641
675.3766, 24.60971
675.8587, 24.67468
676.3408, 24.17250
676.8229, 23.94144
677.3051, 24.20218
677.7872, 24.47222
678.2693, 24.25631
678.7514, 23.62696
679.2335, 23.43221
679.7156, 24.14676
680.1978, 24.61118
680.6799, 24.44319
681.1620, 24.12735
681.6441, 24.09609
682.1262, 24.32073
682.6083, 24.48233
683.0905, 24.34625
683.5726, 24.11726
684.0547, 24.29420
684.5368, 24.87501
685.0189, 25.04220
685.5010, 24.47537
685.9832, 23.84450
686.4653, 23.76288
686.9474, 24.11344
687.4295, 24.26109
687.9116, 23.86420
688.3937, 23.71136
688.8759, 24.30992
689.3580, 25.07611
689.8401, 25.41127
690.3222, 25.30642
690.8043, 25.07327
691.2864, 24.89728
691.7686, 24.79236
692.2507, 24.85465
692.7328, 25.15134
693.2149, 25.16578
693.6970, 24.66735
694.1791, 24.10816
694.6613, 23.70005
695.1434, 23.47187
695.6255, 23.54965
696.1076, 24.18205
696.5897, 24.65249
697.0718, 24.50718
697.5540, 24.09698
698.0361, 23.84270
698.5182, 23.75997
699.0003, 23.61508
699.4824, 23.24739
699.9645, 22.82421
700.4467, 22.78340
700.9288, 23.23259
701.4109, 23.67447
701.8930, 24.21403
702.3751, 24.57289
702.8572, 24.53004
703.3394, 24.25459
703.8215, 24.01922
704.3036, 23.87708
704.7857, 23.78999
705.2678, 23.76193
705.7499, 23.76350
706.2321, 23.74690
706.7142, 23.71710
707.1963, 23.73224
707.6784, 23.82985
708.1605, 23.94349
708.6426, 23.92027
709.1248, 23.67597
709.6069, 23.59771
710.0890, 23.82044
710.5711, 24.05485
711.0532, 24.24190
711.5353, 24.36515
712.0175, 24.40084
712.4996, 24.34306
712.9817, 24.23260
713.4638, 24.02849
713.9459, 23.82432
714.4280, 23.72780
714.9102, 23.74915
715.3923, 23.98335
715.8744, 24.50302
716.3565, 24.96445
716.8386, 24.81629
717.3207, 23.94423
717.8029, 23.29388
718.2850, 22.66305
718.7671, 22.54370
719.2492, 23.49166
719.7313, 24.71160
720.2134, 25.47946
720.6956, 25.69360
721.1777, 25.58708
721.6598, 25.14872
722.1419, 24.56551
722.6240, 23.94552
723.1061, 23.37054
723.5883, 23.23963
724.0704, 23.69262
724.5525, 24.28206
725.0346, 24.55450
725.5167, 24.51427
725.9988, 24.36230
726.4810, 24.00615
726.9631, 23.66815
727.4452, 23.16729
727.9273, 22.85743
728.4094, 23.18556
728.8915, 23.97794
729.3737, 24.53831
729.8558, 24.45903
730.3379, 24.16924
730.8200, 24.12037
731.3021, 24.22716
731.7842, 24.24367
732.2664, 24.12816
732.7485, 24.00049
733.2306, 23.94822
733.7127, 23.95841
734.1948, 23.97394
734.6769, 23.91431
735.1591, 24.01177
735.6412, 24.59843
736.1233, 25.00521
736.6054, 24.72160
737.0875, 24.05450
737.5696, 23.57560
738.0518, 23.46166
738.5339, 23.56400
739.0160, 23.90730
739.4981, 24.33008
739.9802, 24.52155
740.4623, 24.47805
740.9445, 24.35848
741.4266, 24.22909
741.9087, 24.13181
742.3908, 24.18142
742.8729, 24.50024
743.3550, 24.42742
743.8372, 23.24107
744.3193, 22.53839
744.8014, 23.26233
745.2835, 24.38281
745.7656, 24.63696
746.2477, 23.90412
746.7299, 23.34297
747.2120, 23.90193
747.6941, 24.72804
748.1762, 24.70065
748.6583, 24.09805
749.1404, 23.87284
749.6226, 24.29161
750.1047, 24.84038
750.5868, 25.00767
751.0689, 24.81639
751.5510, 24.49425
752.0331, 23.86643
752.5153, 23.44838
752.9974, 23.37602
753.4795, 23.49099
753.9616, 23.77238
754.4437, 24.16503
754.9258, 24.53477
755.4080, 24.90089
755.8901, 25.12060
756.3722, 24.94984
756.8543, 24.64108
757.3364, 24.60853
757.8185, 24.85311
758.3007, 25.11073
758.7828, 25.23275
759.2649, 25.20321
759.7470, 24.90343
760.2291, 24.18101
760.7112, 23.95515
761.1934, 24.61269
761.6755, 25.19706
762.1576, 25.15138
762.6397, 24.82989
763.1218, 24.65684
763.6039, 24.67676
764.0861, 24.74746
764.5682, 24.84943
765.0503, 24.95676
765.5324, 25.07056
766.0145, 25.16842
766.4966, 25.17857
766.9788, 25.09579
767.4609, 25.05888
767.9430, 25.24285
768.4251, 25.57911
768.9072, 25.69084
769.3893, 25.52365
769.8715, 25.42227
770.3536, 25.53301
770.8357, 25.64534
771.3178, 25.52618
771.7999, 25.22589
772.2820, 25.00417
772.7642, 24.81156
773.2463, 24.78616
773.7284, 25.15972
774.2105, 25.56547
774.6926, 25.60233
775.1747, 25.37139
775.6569, 25.30236
776.1390, 25.63330
776.6211, 25.97296
777.1032, 25.60898
777.5853, 24.72348
778.0674, 24.45929
778.5496, 24.97435
779.0317, 25.40360
779.5138, 25.27159
779.9959, 24.89404
780.4780, 24.82215
780.9601, 25.12907
781.4423, 25.46418
781.9244, 25.90278
782.4065, 26.27659
782.8886, 26.59616
783.3707, 26.78372
783.8528, 26.66988
784.3350, 26.29711
784.8171, 26.02844
785.2992, 26.22407
785.7813, 26.47995
786.2634, 26.17686
786.7455, 25.48746
787.2277, 24.90770
787.7098, 24.54391
788.1919, 24.54370
788.6740, 25.09859
789.1561, 25.99286
789.6382, 26.37872
790.1204, 25.86002
790.6025, 25.79503
791.0846, 26.89106
791.5667, 27.73921
792.0488, 27.46266
792.5309, 26.64841
793.0131, 26.27656
793.4952, 26.58144
793.9773, 26.76889
794.4594, 26.15855
794.9415, 25.52735
795.4236, 25.82982
795.9058, 26.66984
796.3879, 26.97753
796.8700, 26.46426
797.3521, 25.85291
797.8342, 25.93482
798.3163, 26.54528
798.7985, 26.77715
799.2806, 26.53885
799.7627, 26.47301
800.2448, 26.81682
800.7269, 27.21832
801.2090, 27.35945
801.6912, 27.29001
802.1733, 27.31158
802.6554, 27.62812
803.1375, 27.71158
803.6196, 27.20521
804.1017, 26.66758
804.5839, 26.52941
805.0660, 26.67729
805.5481, 26.81254
806.0302, 26.82485
806.5123, 26.81042
806.9944, 26.85993
807.4766, 26.95666
807.9587, 27.11310
808.4408, 27.31054
808.9229, 27.31995
809.4050, 27.04038
809.8871, 26.65138
810.3693, 26.34693
810.8514, 26.12798
811.3335, 26.03735
811.8156, 26.12718
812.2977, 26.25965
812.7798, 26.43008
813.2620, 26.62076
813.7441, 26.91277
814.2262, 27.21224
814.7083, 27.24829
815.1904, 26.85669
815.6725, 26.42414
816.1547, 26.01404
816.6368, 25.78075
817.1189, 26.07876
817.6010, 26.72042
818.0831, 27.08142
818.5652, 26.90018
819.0474, 26.53096
819.5295, 26.43589
820.0116, 26.58275
820.4937, 26.64236
820.9758, 26.57161
821.4579, 26.70377
821.9401, 27.26153
822.4222, 27.85697
822.9043, 28.08196
823.3864, 27.94381
823.8685, 27.75515
824.3506, 27.54407
824.8328, 27.24837
825.3149, 26.57078
825.7970, 26.06108
826.2791, 26.25421
826.7612, 26.91688
827.2433, 27.47772
827.7255, 27.73989
828.2076, 27.81472
828.6897, 27.65919
829.1718, 27.44833
829.6539, 27.54094
830.1360, 27.87378
830.6182, 28.05366
831.1003, 27.92979
831.5824, 27.77916
832.0645, 27.96651
832.5466, 28.44757
833.0287, 28.63025
833.5109, 28.38623
833.9930, 28.22273
834.4751, 28.22650
834.9572, 28.36080
835.4393, 28.72404
835.9214, 29.19563
836.4036, 29.38744
836.8857, 29.02431
837.3678, 28.87950
837.8499, 29.26963
838.3320, 29.82267
838.8141, 30.40578
839.2963, 30.90783
839.7784, 31.09545
840.2605, 30.92397
840.7426, 30.83705
841.2247, 31.44076
841.7068, 32.30470
842.1890, 32.38836
842.6711, 31.88302
843.1532, 31.96322
843.6353, 32.95234
844.1174, 34.01454
844.5995, 34.38153
845.0817, 34.23616
845.5638, 34.38206
846.0459, 34.87257
846.5280, 35.50972
847.0101, 36.36317
847.4922, 37.24945
847.9744, 38.01553
848.4565, 38.77905
848.9386, 39.73305
849.4207, 40.90779
849.9028, 42.14604
850.3849, 43.53980
850.8671, 44.83633
851.3492, 45.58046
851.8313, 46.29328
852.3134, 47.77276
852.7955, 50.04456
853.2776, 52.46153
853.7598, 54.59419
854.2419, 56.92025
854.7240, 58.91565
855.2061, 61.38509
855.6882, 63.70176
856.1703, 65.83057
856.6525, 68.29063
857.1346, 71.36359
857.6167, 74.89978
858.0988, 78.59579
858.5809, 82.47788
859.0630, 86.33649
859.5452, 90.11632
860.0273, 93.96323
860.5094, 97.84042
860.9915, 101.8537
861.4736, 106.1060
861.9557, 110.5737
862.4379, 115.1603
862.9200, 119.6313
863.4021, 124.5166
863.8842, 130.2365
864.3663, 136.2159
864.8484, 142.0656
865.3306, 147.7337
865.8127, 153.3155
866.2948, 158.8111
866.7769, 164.3137
867.2590, 169.9225
867.7411, 175.5346
868.2233, 181.0972
868.7054, 186.4751
869.1875, 190.9346
869.6696, 194.2730
870.1517, 196.9248
870.6339, 199.3821
871.1160, 201.3740
871.5981, 201.6002
872.0802, 199.7481
872.5623, 197.2564
873.0444, 194.3830
873.5266, 190.7073
874.0087, 186.0614
874.4908, 180.3917
874.9729, 173.6254
875.4550, 165.5804
875.9371, 157.4208
876.4193, 149.1249
876.9014, 140.9868
877.3835, 133.1065
877.8656, 125.5520
878.3477, 118.4539
878.8298, 111.7502
879.3120, 104.9684
879.7941, 97.65708
880.2762, 90.86926
880.7583, 86.01852
881.2404, 82.25671
881.7225, 77.98698
882.2047, 73.26620
882.6868, 69.12658
883.1689, 66.00631
883.6510, 63.60099
884.1331, 61.60352
884.6152, 59.95242
885.0974, 58.21267
885.5795, 56.36001
886.0616, 54.65974
886.5437, 53.21885
887.0258, 51.82671
887.5079, 50.26023
887.9901, 48.61658
888.4722, 47.28791
888.9543, 46.56911
889.4364, 45.59524
889.9185, 43.91219
890.4006, 42.51143
890.8828, 42.10882
891.3649, 42.01209
891.8470, 41.28661
892.3291, 39.87630
892.8112, 38.61053
893.2933, 37.61893
893.7755, 37.10011
894.2576, 37.53548
894.7397, 38.29173
895.2218, 38.58354
895.7039, 38.41315
896.1860, 38.14312
896.6682, 37.93882
897.1503, 37.85595
897.6324, 38.08807
898.1145, 38.47089
898.5966, 38.43507
899.0787, 38.02125
899.5609, 37.79567
900.0430, 37.94812
900.5251, 38.13055
901.0072, 37.97948
901.4893, 37.60028
901.9714, 37.52265
902.4536, 37.83049
902.9357, 38.11988
903.4178, 38.26171
903.8999, 38.55858
904.3820, 39.32476
904.8641, 40.25592
905.3463, 40.79846
905.8284, 40.89853
906.3105, 41.06560
906.7926, 41.59126
907.2747, 41.85864
907.7568, 41.50219
908.2390, 40.95553
908.7211, 40.66920
909.2032, 40.53444
909.6853, 40.06034
910.1674, 38.97086
910.6495, 37.95031
911.1317, 37.71653
911.6138, 37.58130
912.0959, 36.61954
912.5780, 35.13470
913.0601, 33.94951
913.5422, 33.26629
914.0244, 32.67213
914.5065, 31.78734
914.9886, 30.79600
915.4707, 30.06656
915.9528, 29.58104
916.4349, 29.23032
916.9171, 29.00287
917.3992, 28.91634
917.8813, 29.02843
918.3634, 29.09083
918.8455, 28.61755
919.3276, 27.55303
919.8098, 26.94504
920.2919, 26.91945
920.7740, 27.04551
921.2561, 27.40673
921.7382, 27.65184
922.2203, 27.38073
922.7025, 26.74960
923.1846, 26.39233
923.6667, 26.52334
924.1488, 26.45562
924.6309, 25.76428
925.1130, 25.27347
925.5952, 25.56087
926.0773, 26.13465
926.5594, 26.43987
927.0415, 26.40350
927.5236, 26.16852
928.0057, 25.55249
928.4879, 25.11462
928.9700, 25.40075
929.4521, 25.93784
929.9342, 26.17187
930.4163, 26.14894
930.8984, 26.19422
931.3806, 26.42328
931.8627, 26.59782
932.3448, 26.43393
932.8269, 26.07580
933.3090, 25.70107
933.7911, 25.38358
934.2733, 25.58205
934.7554, 26.34657
935.2375, 26.94273
935.7196, 26.85829
936.2017, 26.38793
936.6838, 26.13500
937.1660, 26.10852
937.6481, 26.09887
938.1302, 26.09529
938.6123, 26.14303
939.0944, 26.22740
939.5765, 26.44456
940.0587, 26.97052
940.5408, 27.72824
941.0229, 28.11299
941.5050, 27.70045
941.9871, 27.69254
942.4692, 28.49355
942.9514, 29.28368
943.4335, 29.76309
943.9156, 30.03528
944.3977, 30.14119
944.8798, 30.09543
945.3619, 30.30903
945.8441, 31.19568
946.3262, 31.92549
946.8083, 32.13962
947.2904, 32.13231
947.7725, 32.13964
948.2546, 32.13915
948.7368, 31.98925
949.2189, 31.64269
949.7010, 31.33533
950.1831, 31.22657
950.6652, 31.22391
951.1473, 31.35119
951.6295, 31.46691
952.1116, 31.26053
952.5937, 30.75578
953.0758, 30.24488
953.5579, 29.87102
954.0400, 29.75606
954.5222, 30.33924
955.0043, 31.25928
955.4864, 31.30328
955.9685, 30.56433
956.4506, 30.07603
956.9327, 30.14607
957.4149, 30.23754
957.8970, 29.88391
958.3791, 29.16413
958.8612, 28.20240
959.3433, 26.95453
959.8254, 26.19106
960.3076, 26.04384
960.7897, 26.04032
961.2718, 26.04157
961.7539, 25.96569
962.2360, 25.68530
962.7181, 25.21148
963.2003, 24.83421
963.6824, 24.67565
964.1645, 24.35804
964.6466, 23.71948
965.1287, 23.07389
965.6108, 22.45794
966.0930, 21.99978
966.5751, 21.96937
967.0572, 22.42068
967.5393, 22.74654
968.0214, 22.92451
968.5035, 22.91520
968.9857, 22.51343
969.4678, 22.09757
969.9499, 22.01616
970.4320, 22.13375
970.9141, 22.12046
971.3962, 21.89933
971.8784, 21.55392
972.3605, 20.85721
972.8426, 20.33676
973.3247, 20.62490
973.8068, 21.13730
974.2889, 21.00725
974.7711, 20.33239
975.2532, 19.92397
975.7353, 20.19173
976.2174, 20.55530
976.6995, 20.42269
977.1816, 20.57845
977.6638, 20.15089
978.1459, 20.38020
978.6280, 20.29995
979.1101, 19.86649
979.5922, 19.60743
980.0743, 19.93585
980.5565, 20.43914
981.0386, 20.40873
981.5207, 19.98845
982.0028, 19.66207
982.4849, 19.45713
982.9670, 19.32619
983.4492, 19.25406
983.9313, 19.25676
984.4134, 19.37404
984.8955, 19.53045
985.3776, 19.43162
985.8597, 19.06388
986.3419, 18.90392
986.8240, 19.01064
987.3061, 19.20792
987.7882, 19.46747
988.2703, 19.64493
988.7524, 19.55733
989.2346, 19.22280
989.7167, 18.81754
990.1988, 18.24433
990.6809, 17.88428
991.1630, 17.74195
991.6451, 17.90462
992.1273, 18.73556
992.6094, 19.61227
993.0915, 19.49386
993.5736, 18.30879
994.0557, 17.50048
994.5378, 17.26905
995.0200, 17.13267
995.5021, 16.99475
995.9842, 16.99470
996.4663, 17.37884
996.9484, 17.87756
997.4305, 18.03860
997.9127, 17.80872
998.3948, 17.50671
998.8769, 16.88415
999.3590, 16.59619
999.8411, 17.11770
1000.323, 17.79518
1000.805, 18.15933
1001.287, 18.27430
1001.770, 18.33344
1002.252, 18.37635
1002.734, 18.39999
1003.216, 18.51046
1003.698, 18.47537
1004.180, 18.02691
1004.662, 17.45931
1005.144, 17.01225
1005.627, 16.74922
1006.109, 16.78947
1006.591, 17.19317
1007.073, 17.49247
1007.555, 17.11479
1008.037, 16.71963
1008.519, 17.07291
1009.001, 17.77897
1009.483, 18.28193
1009.966, 18.47709
1010.448, 18.32309
1010.930, 17.78027
1011.412, 17.31121
1011.894, 17.50649
1012.376, 17.98570
1012.858, 18.23492
1013.340, 18.26093
1013.823, 18.05874
1014.305, 17.67465
1014.787, 17.29735
1015.269, 17.03427
1015.751, 16.85616
1016.233, 16.71762
1016.715, 16.63651
1017.197, 16.68948
1017.679, 16.85196
1018.162, 17.01402
1018.644, 17.14898
1019.126, 17.25078
1019.608, 17.30992
1020.090, 17.37095
1020.572, 17.58324
1021.054, 17.88914
1021.536, 17.79455
1022.018, 17.31654
1022.501, 17.09583
1022.983, 17.30397
1023.465, 17.42373
1023.947, 17.03402
1024.429, 17.28657
1024.911, 17.31233
1025.393, 17.27105
1025.875, 17.54987
1026.358, 17.30799
1026.840, 17.27655
1027.322, 17.72339
1027.804, 18.05211
1028.286, 17.77692
1028.768, 17.09799
1029.250, 16.46257
1029.732, 15.82816
1030.214, 15.59105
1030.697, 15.78896
1031.179, 16.34383
1031.661, 17.51393
1032.143, 18.36908
1032.625, 18.04068
1033.107, 16.96848
1033.589, 16.41287
1034.071, 16.50428
1034.553, 16.52313
1035.036, 16.41500
1035.518, 16.35040
1036.000, 16.36010
1036.482, 16.44765
1036.964, 16.65384
1037.446, 16.92750
1037.928, 17.13015
1038.410, 17.30939
1038.893, 17.23918
1039.375, 16.57567
1039.857, 16.21877
1040.339, 16.71935
1040.821, 17.24095
1041.303, 16.99501
1041.785, 16.30271
1042.267, 16.13417
1042.750, 16.76141
1043.232, 17.00279
1043.714, 16.39567
1044.196, 16.01220
1044.678, 16.33952
1045.160, 16.74351
1045.642, 16.67871
1046.124, 16.35044
1046.606, 16.32010
1047.089, 16.75122
1047.571, 16.91482
1048.053, 16.39488
1048.535, 16.05777
1049.017, 16.37759
1049.499, 16.74169
1049.981, 16.60226
1050.463, 16.17057
1050.945, 15.97651
1051.428, 16.12975
1051.910, 16.18508
1052.392, 15.83251
1052.874, 15.67433
1053.356, 16.17851
1053.838, 16.68985
1054.320, 16.55558
1054.802, 16.09327
1055.285, 16.07878
1055.767, 16.68609
1056.249, 16.94867
1056.731, 16.23562
1057.213, 15.63855
1057.695, 15.58196
1058.177, 15.76741
1058.659, 16.09496
1059.141, 16.43799
1059.624, 16.59107
1060.106, 16.51843
1060.588, 16.44125
1061.070, 16.39132
1061.552, 16.40094
1062.034, 16.59050
1062.516, 16.74155
1062.998, 16.60653
1063.480, 16.34493
1063.963, 16.25793
1064.445, 16.38620
1064.927, 16.49031
1065.409, 16.45524
1065.891, 16.41671
1066.373, 16.55143
1066.855, 16.58398
1067.337, 16.07278
1067.820, 15.42951
1068.302, 15.42578
1068.784, 16.07821
1069.266, 16.45346
1069.748, 15.94306
1070.230, 15.54326
1070.712, 15.91751
1071.194, 16.33830
1071.677, 16.14413
1072.159, 15.70672
1072.641, 15.62672
1073.123, 15.92446
1073.605, 16.17910
1074.087, 16.22372
1074.569, 16.23828
1075.051, 16.28785
1075.533, 16.35654
1076.016, 16.43884
1076.498, 16.52970
1076.980, 16.66472
1077.462, 16.80807
1077.944, 16.80551
1078.426, 16.55256
1078.908, 16.34120
1079.390, 16.42614
1079.873, 16.46383
1080.355, 16.05963
1080.837, 15.60365
1081.319, 15.61464
1081.801, 15.99732
1082.283, 16.30175
1082.765, 16.38753
1083.247, 16.45639
1083.729, 16.63765
1084.212, 16.78305
1084.694, 16.77869
1085.176, 16.71740
1085.658, 16.67992
1086.140, 16.67207
1086.622, 16.69035
1087.104, 16.73603
1087.586, 16.74972
1088.068, 16.58700
1088.551, 16.53867
1089.033, 16.97559
1089.515, 17.38332
1089.997, 17.11524
1090.479, 16.55389
1090.961, 16.53622
1091.443, 17.17923
1091.925, 17.67261
1092.408, 17.67182
1092.890, 17.52129
1093.372, 17.27282
1093.854, 17.01311
1094.336, 16.79691
1094.818, 16.61292
1095.300, 16.43524
1095.782, 16.26273
1096.265, 16.11306
1096.747, 15.97257
1097.229, 15.89094
1097.711, 15.84091
1098.193, 15.90384
1098.675, 16.24549
1099.157, 16.64317
1099.639, 16.85985
1100.121, 16.89046
1100.604, 16.81095
1101.086, 16.58004
1101.568, 16.41972
1102.050, 16.52876
1102.532, 16.54339
1103.014, 16.11027
1103.496, 15.67962
1103.978, 15.76222
1104.460, 16.16463
1104.943, 16.29169
1105.425, 15.98451
1105.907, 15.86469
1106.389, 16.32165
1106.871, 16.59768
1107.353, 16.23133
1107.835, 15.85630
1108.317, 16.05324
1108.800, 16.47772
1109.282, 16.48502
1109.764, 16.01482
1110.246, 15.60430
1110.728, 15.21587
1111.210, 15.02030
1111.692, 15.16323
1112.174, 15.36026
1112.656, 15.58047
1113.139, 15.71204
1113.621, 15.52687
1114.103, 15.07346
1114.585, 14.88221
1115.067, 15.12774
1115.549, 15.32797
1116.031, 15.47338
1116.513, 15.58889
1116.995, 15.75968
1117.478, 15.81593
1117.960, 15.47986
1118.442, 14.94117
1118.924, 14.82682
1119.406, 15.27563
1119.888, 15.60067
1120.370, 15.76081
1120.852, 15.89758
1121.335, 16.14930
1121.817, 16.16528
1122.299, 15.54575
1122.781, 14.74075
1123.263, 14.61438
1123.745, 15.18466
1124.227, 15.54220
1124.709, 15.67300
1125.192, 15.61038
1125.674, 15.27095
1126.156, 14.99214
1126.638, 14.90410
1127.120, 15.02664
1127.602, 15.44962
1128.084, 16.05752
1128.566, 16.25540
1129.048, 15.99830
1129.531, 15.70447
1130.013, 15.37127
1130.495, 15.15463
1130.977, 15.10469
1131.459, 15.20289
1131.941, 15.47071
1132.423, 15.75919
1132.905, 15.68368
1133.387, 15.27893
1133.870, 15.10333
1134.352, 15.14977
1134.834, 15.21431
1135.316, 15.25948
1135.798, 15.48799
1136.280, 16.02786
1136.762, 16.52262
1137.244, 16.47497
1137.727, 16.05953
1138.209, 15.72628
1138.691, 15.49885
1139.173, 15.55509
1139.655, 15.85269
1140.137, 16.04235
1140.619, 16.01029
1141.101, 15.93425
1141.583, 15.93797
1142.066, 16.05101
1142.548, 16.55222
1143.030, 17.07379
1143.512, 16.62355
1143.994, 15.58394
1144.476, 15.14438
1144.958, 15.40659
1145.440, 15.54537
1145.922, 15.12902
1146.405, 14.72699
1146.887, 14.90601
1147.369, 15.34872
1147.851, 15.85019
1148.333, 16.27781
1148.815, 16.38760
1149.297, 16.26249
1149.779, 16.11028
1150.262, 16.00847
1150.744, 16.07713
1151.226, 16.63636
1151.708, 16.96631
1152.190, 16.17571
1152.672, 15.38663
1153.154, 15.76483
1153.636, 16.64068
1154.119, 16.97412
1154.601, 16.74839
1155.083, 16.60223
1155.565, 16.78077
1156.047, 16.79785
1156.529, 16.23723
1157.011, 15.81225
1157.493, 16.02753
1157.975, 16.32906
1158.458, 16.16413
1158.940, 15.76022
1159.422, 15.65495
1159.904, 15.91638
1160.386, 16.12077
1160.868, 16.21882
1161.350, 16.27881
1161.832, 16.23346
1162.314, 16.24935
1162.797, 16.45115
1163.279, 16.69167
1163.761, 16.80757
1164.243, 16.82844
1164.725, 16.91505
1165.207, 17.18810
1165.689, 17.04822
1166.171, 16.24864
1166.654, 15.80159
1167.136, 16.04084
1167.618, 16.41432
1168.100, 16.59192
1168.582, 16.60552
1169.064, 16.46578
1169.546, 16.21299
1170.028, 16.29889
1170.510, 16.73825
1170.993, 16.83103
1171.475, 16.49801
1171.957, 16.11675
1172.439, 15.82003
1172.921, 15.76361
1173.403, 16.13480
1173.885, 16.65711
1174.367, 16.73831
1174.849, 16.51748
1175.332, 16.43793
1175.814, 16.49543
1176.296, 16.66709
1176.778, 16.90405
1177.260, 16.99143
1177.742, 16.82669
1178.224, 16.57671
1178.706, 16.28767
1179.189, 16.13144
1179.671, 16.56337
1180.153, 17.11156
1180.635, 16.93002
1181.117, 16.31919
1181.599, 16.10486
1182.081, 16.39122
1182.563, 16.60279
1183.046, 16.42565
1183.528, 16.28022
1184.010, 16.64421
1184.492, 16.85832
1184.974, 16.14285
1185.456, 15.32135
1185.938, 15.47039
1186.420, 16.18070
1186.902, 16.19138
1187.385, 15.24376
1187.867, 14.89472
1188.349, 16.09886
1188.831, 16.94118
1189.313, 16.72671
1189.795, 16.48662
1190.277, 16.80838
1190.759, 17.26466
1191.241, 17.48156
1191.724, 17.46356
1192.206, 17.20652
1192.688, 16.62084
1193.170, 16.16129
1193.652, 15.80080
1194.134, 15.66913
1194.616, 15.83068
1195.098, 16.13012
1195.581, 16.54857
1196.063, 16.82745
1196.545, 16.53544
1197.027, 15.87869
1197.509, 15.79762
1197.991, 16.25411
1198.473, 16.69846
1198.955, 17.07908
1199.438, 17.22100
1199.920, 17.08406
1200.402, 16.76734
1200.884, 16.31400
1201.366, 15.97193
1201.848, 16.25465
1202.330, 16.75179
1202.812, 16.61960
1203.294, 16.12928
1203.776, 15.77682
1204.259, 15.61048
1204.741, 15.56791
1205.223, 15.61842
1205.705, 15.68521
1206.187, 15.66931
1206.669, 15.80516
1207.151, 16.52857
1207.633, 17.16958
1208.116, 17.05419
1208.598, 16.67198
1209.080, 16.65172
1209.562, 16.87165
1210.044, 16.83309
1210.526, 16.42535
1211.008, 16.10246
1211.490, 15.90755
1211.973, 15.86770
1212.455, 16.12726
1212.937, 16.37149
1213.419, 16.51580
1213.901, 16.52401
1214.383, 16.26527
1214.865, 15.87725
1215.347, 15.85755
1215.829, 16.28325
1216.312, 16.55860
1216.794, 16.68297
1217.276, 16.61868
1217.758, 16.32282
1218.240, 16.06540
1218.722, 15.97055
1219.204, 16.03349
1219.686, 16.29393
1220.168, 16.60464
1220.651, 16.50070
1221.133, 16.12609
1221.615, 16.11236
1222.097, 16.38556
1222.579, 16.51527
1223.061, 16.44598
1223.543, 16.43010
1224.025, 16.58631
1224.508, 16.67405
1224.990, 16.39464
1225.472, 16.05466
1225.954, 15.90030
1226.436, 15.90882
1226.918, 16.18688
1227.400, 16.53631
1227.882, 16.61323
1228.365, 16.43291
1228.847, 16.31754
1229.329, 16.39537
1229.811, 16.37365
1230.293, 15.98763
1230.775, 15.74477
1231.257, 16.02506
1231.739, 16.26632
1232.221, 16.07691
1232.703, 15.65792
1233.186, 15.14500
1233.668, 14.61945
1234.150, 14.70575
1234.632, 15.72149
1235.114, 16.01945
1235.596, 15.39329
1236.078, 14.98300
1236.560, 15.06348
1237.043, 15.29917
1237.525, 15.50472
1238.007, 15.73935
1238.489, 16.14414
1238.971, 16.54232
1239.453, 16.34326
1239.935, 15.74682
1240.417, 15.37235
1240.900, 15.24547
1241.382, 15.32523
1241.864, 15.55986
1242.346, 15.79292
1242.828, 15.95033
1243.310, 16.05169
1243.792, 16.03279
1244.274, 16.06044
1244.756, 16.31015
1245.239, 16.63086
1245.721, 17.09011
1246.203, 17.39255
1246.685, 16.89105
1247.167, 15.76960
1247.649, 15.25128
1248.131, 15.81941
1248.613, 16.06585
1249.095, 15.39813
1249.578, 15.05478
1250.060, 15.41491
1250.542, 15.87079
1251.024, 16.11748
1251.506, 16.33228
1251.988, 16.80507
1252.470, 17.35208
1252.952, 17.14693
1253.435, 16.16058
1253.917, 15.63865
1254.399, 15.57985
1254.881, 15.37253
1255.363, 14.93350
1255.845, 14.84625
1256.327, 15.36908
1256.809, 15.87149
1257.292, 15.71853
1257.774, 15.31471
1258.256, 15.14379
1258.738, 15.13028
1259.220, 15.24156
1259.702, 15.38572
1260.184, 15.35790
1260.666, 15.23589
1261.148, 15.37315
1261.630, 15.86864
1262.113, 16.17317
1262.595, 15.97415
1263.077, 15.72475
1263.559, 15.49894
1264.041, 15.31824
1264.523, 15.07629
1265.005, 15.00718
1265.487, 15.47120
1265.970, 16.15586
1266.452, 16.31486
1266.934, 15.93922
1267.416, 15.65200
1267.898, 15.43355
1268.380, 15.51898
1268.862, 15.95449
1269.344, 16.22484
1269.827, 16.16241
1270.309, 16.05512
1270.791, 16.11680
1271.273, 16.20288
1271.755, 16.02992
1272.237, 15.79959
1272.719, 15.98330
1273.201, 15.89031
1273.683, 16.30909
1274.166, 16.06701
1274.648, 16.04452
1275.130, 16.25388
1275.612, 16.21364
1276.094, 15.64657
1276.576, 15.25511
1277.058, 15.39193
1277.540, 15.65459
1278.022, 16.00152
1278.505, 16.29992
1278.987, 16.39626
1279.469, 16.45345
1279.951, 16.71559
1280.433, 17.08452
1280.915, 17.14007
1281.397, 16.84408
1281.879, 16.51908
1282.362, 16.15081
1282.844, 15.94693
1283.326, 15.94275
1283.808, 15.87460
1284.290, 15.63112
1284.772, 15.36723
1285.254, 15.19978
1285.736, 15.12732
##END=



