##NAMES=Willhendersonite
##RRUFFID=R060508
##IDEAL CHEMISTRY=KCa(Si_3_Al_3_)O_12_&#183;5H_2_O
##LOCALITY=San Venzano Quarry, Terni, Umbria, central Italy
##OWNER=RRUFF
##SOURCE=Michael Scott
##DESCRIPTION=Colorless tabular crystals forming a spherical aggregate
##STATUS=The identification of this mineral is confirmed by single-crystal X-ray diffraction and chemical analysis.
##URL=rruff.info/R060508
##MEASURED CHEMISTRY=(K_0.98_Na_0.02_)_Σ=1_Ca_1.00_(Si_3.06_Al_2.93_Fe^3+^_0.01_)_Σ=6_O_12_·5.43H_2_ O ; H_2_O estimated by difference; Fe^3+^ by charge balance
169.740, 3370.747
170.222, 3380.247
170.704, 3377.755
171.186, 3368.545
171.668, 3363.268
172.150, 3368.619
172.632, 3374.572
173.115, 3370.869
173.597, 3357.180
174.079, 3336.883
174.561, 3303.452
175.043, 3266.075
175.525, 3249.222
176.007, 3260.551
176.489, 3265.038
176.971, 3263.053
177.454, 3235.207
177.936, 3240.754
178.418, 3232.918
178.900, 3224.535
179.382, 3234.782
179.864, 3210.698
180.346, 3220.650
180.828, 3217.014
181.311, 3219.598
181.793, 3205.935
182.275, 3202.703
182.757, 3193.707
183.239, 3186.568
183.721, 3187.107
184.203, 3187.224
184.685, 3171.757
185.167, 3135.927
185.650, 3105.378
186.132, 3099.637
186.614, 3106.319
187.096, 3111.453
187.578, 3110.948
188.060, 3107.050
188.542, 3102.667
189.024, 3097.793
189.507, 3092.552
189.989, 3087.701
190.471, 3082.361
190.953, 3075.266
191.435, 3065.787
191.917, 3054.757
192.399, 3044.300
192.881, 3035.686
193.363, 3022.663
193.846, 2992.854
194.328, 2959.727
194.810, 2940.570
195.292, 2947.052
195.774, 2960.573
196.256, 2950.145
196.738, 2908.080
197.220, 2875.026
197.702, 2881.464
198.185, 2902.893
198.667, 2914.339
199.149, 2906.098
199.631, 2890.189
200.113, 2882.145
200.595, 2882.760
201.077, 2887.441
201.559, 2898.779
202.042, 2911.637
202.524, 2920.672
203.006, 2923.641
203.488, 2924.327
203.970, 2926.991
204.452, 2931.621
204.934, 2938.173
205.416, 2943.682
205.898, 2952.644
206.380, 2950.348
206.863, 2967.595
207.345, 2980.096
207.827, 2988.110
208.309, 2978.192
208.791, 2991.428
209.273, 2995.385
209.755, 2998.963
210.238, 3015.459
210.720, 3008.149
211.202, 3024.439
211.684, 3031.309
212.166, 3042.490
212.648, 3044.337
213.130, 3049.065
213.612, 3063.134
214.094, 3072.030
214.577, 3072.800
215.059, 3074.465
215.541, 3090.062
216.023, 3099.224
216.505, 3106.956
216.987, 3116.617
217.469, 3123.367
217.951, 3122.096
218.434, 3111.797
218.916, 3099.375
219.398, 3090.982
219.880, 3086.075
220.362, 3077.199
220.844, 3056.012
221.326, 3040.544
221.808, 3044.609
222.290, 3043.934
222.773, 3038.771
223.255, 3015.685
223.737, 3015.744
224.219, 3006.526
224.701, 2996.929
225.183, 3000.246
225.665, 2979.767
226.147, 2982.879
226.629, 2976.573
227.112, 2974.576
227.594, 2963.248
228.076, 2954.803
228.558, 2947.794
229.040, 2942.451
229.522, 2931.255
230.004, 2915.278
230.486, 2903.610
230.969, 2907.812
231.451, 2918.266
231.933, 2910.653
232.415, 2875.760
232.897, 2839.125
233.379, 2825.389
233.861, 2829.673
234.343, 2837.604
234.825, 2847.789
235.307, 2857.822
235.790, 2864.458
236.272, 2867.538
236.754, 2866.718
237.236, 2857.641
237.718, 2843.464
238.200, 2835.646
238.682, 2843.906
239.165, 2855.564
239.647, 2854.788
240.129, 2840.439
240.611, 2826.087
241.093, 2820.453
241.575, 2822.703
242.057, 2827.734
242.539, 2839.313
243.021, 2850.507
243.503, 2855.131
243.986, 2853.675
244.468, 2852.031
244.950, 2855.816
245.432, 2861.174
245.914, 2855.085
246.396, 2823.638
246.878, 2795.374
247.361, 2791.063
247.843, 2804.339
248.325, 2812.076
248.807, 2802.342
249.289, 2780.198
249.771, 2760.958
250.253, 2746.496
250.735, 2731.718
251.217, 2710.222
251.699, 2687.486
252.182, 2677.973
252.664, 2690.346
253.146, 2710.278
253.628, 2702.870
254.110, 2650.995
254.592, 2610.577
255.074, 2599.770
255.556, 2603.575
256.039, 2602.929
256.521, 2592.087
257.003, 2576.379
257.485, 2563.403
257.967, 2552.635
258.449, 2546.764
258.931, 2552.292
259.413, 2559.101
259.896, 2556.425
260.378, 2543.067
260.860, 2528.211
261.342, 2522.663
261.824, 2530.138
262.306, 2533.559
262.788, 2530.941
263.270, 2526.409
263.752, 2519.400
264.234, 2511.780
264.717, 2509.506
265.199, 2518.767
265.681, 2540.877
266.163, 2558.052
266.645, 2569.485
267.127, 2577.746
267.609, 2582.096
268.091, 2583.974
268.574, 2586.268
269.056, 2591.120
269.538, 2598.011
270.020, 2602.048
270.502, 2597.550
270.984, 2596.303
271.466, 2600.861
271.948, 2609.546
272.431, 2621.427
272.913, 2636.465
273.395, 2651.405
273.877, 2656.123
274.359, 2652.168
274.841, 2664.877
275.323, 2673.541
275.805, 2678.377
276.287, 2667.922
276.770, 2677.214
277.252, 2678.591
277.734, 2679.644
278.216, 2691.714
278.698, 2690.827
279.180, 2687.148
279.662, 2690.666
280.144, 2698.717
280.626, 2709.024
281.109, 2713.389
281.591, 2699.554
282.073, 2666.018
282.555, 2641.105
283.037, 2631.620
283.519, 2626.126
284.001, 2618.703
284.483, 2609.862
284.966, 2602.397
285.448, 2600.853
285.930, 2602.877
286.412, 2597.962
286.894, 2584.786
287.376, 2566.748
287.858, 2537.976
288.340, 2506.445
288.823, 2489.067
289.305, 2501.498
289.787, 2525.273
290.269, 2530.531
290.751, 2514.777
291.233, 2497.915
291.715, 2487.622
292.197, 2483.649
292.679, 2486.857
293.161, 2503.374
293.644, 2517.314
294.126, 2509.803
294.608, 2485.069
295.090, 2473.037
295.572, 2491.723
296.054, 2521.115
296.536, 2523.835
297.018, 2492.116
297.501, 2463.399
297.983, 2452.743
298.465, 2454.864
298.947, 2462.045
299.429, 2473.371
299.911, 2483.888
300.393, 2485.348
300.875, 2474.832
301.358, 2471.562
301.840, 2486.786
302.322, 2504.304
302.804, 2506.155
303.286, 2492.060
303.768, 2479.292
304.250, 2484.575
304.732, 2509.842
305.214, 2523.330
305.697, 2514.818
306.179, 2506.342
306.661, 2506.614
307.143, 2514.838
307.625, 2528.612
308.107, 2547.360
308.589, 2568.852
309.071, 2580.886
309.553, 2576.963
310.036, 2570.626
310.518, 2558.643
311.000, 2546.823
311.482, 2542.973
311.964, 2549.780
312.446, 2561.420
312.928, 2566.609
313.410, 2561.532
313.892, 2557.991
314.375, 2553.634
314.857, 2552.833
315.339, 2561.309
315.821, 2578.137
316.303, 2594.764
316.785, 2600.346
317.267, 2593.502
317.750, 2593.287
318.232, 2602.665
318.714, 2616.332
319.196, 2635.939
319.678, 2658.017
320.160, 2674.395
320.642, 2674.858
321.124, 2667.843
321.606, 2680.141
322.089, 2719.187
322.571, 2758.323
323.053, 2783.656
323.535, 2802.329
324.017, 2822.169
324.499, 2844.566
324.981, 2869.802
325.463, 2899.260
325.945, 2932.891
326.428, 2966.224
326.910, 3000.049
327.392, 3030.304
327.874, 3051.865
328.356, 3064.173
328.838, 3072.169
329.320, 3079.460
329.802, 3083.738
330.284, 3080.416
330.767, 3068.350
331.249, 3049.958
331.731, 3025.627
332.213, 2994.643
332.695, 2968.920
333.177, 2960.573
333.659, 2949.323
334.141, 2913.508
334.624, 2857.343
335.106, 2808.455
335.588, 2788.469
336.070, 2793.095
336.552, 2776.780
337.034, 2714.105
337.516, 2663.017
337.998, 2643.963
338.480, 2643.429
338.963, 2643.010
339.445, 2635.000
339.927, 2621.294
340.409, 2605.400
340.891, 2584.445
341.373, 2566.515
341.855, 2553.037
342.337, 2541.247
342.819, 2528.958
343.302, 2516.083
343.784, 2504.465
344.266, 2496.584
344.748, 2492.864
345.230, 2486.497
345.712, 2478.630
346.194, 2466.296
346.677, 2442.647
347.159, 2414.329
347.641, 2394.379
348.123, 2391.922
348.605, 2399.804
349.087, 2403.095
349.569, 2400.985
350.051, 2397.355
350.533, 2389.157
351.016, 2382.548
351.498, 2385.533
351.980, 2401.227
352.462, 2419.041
352.944, 2431.915
353.426, 2440.365
353.908, 2445.910
354.390, 2448.014
354.872, 2449.205
355.355, 2451.544
355.837, 2454.718
356.319, 2462.381
356.801, 2480.905
357.283, 2500.981
357.765, 2510.385
358.247, 2509.334
358.729, 2510.807
359.211, 2524.208
359.694, 2549.089
360.176, 2578.034
360.658, 2625.789
361.140, 2660.610
361.622, 2664.773
362.104, 2650.690
362.586, 2636.211
363.069, 2628.689
363.551, 2613.288
364.033, 2606.007
364.515, 2596.756
364.997, 2585.639
365.479, 2567.070
365.961, 2558.121
366.443, 2545.319
366.925, 2532.358
367.408, 2524.766
367.890, 2507.281
368.372, 2499.604
368.854, 2488.009
369.336, 2475.510
369.818, 2461.592
370.300, 2462.077
370.782, 2469.689
371.264, 2472.781
371.747, 2464.353
372.229, 2453.037
372.711, 2453.380
373.193, 2466.491
373.675, 2478.503
374.157, 2481.880
374.639, 2484.601
375.121, 2497.580
375.603, 2522.771
376.086, 2544.981
376.568, 2553.079
377.050, 2553.393
377.532, 2558.265
378.014, 2569.858
378.496, 2584.527
378.978, 2601.139
379.460, 2619.409
379.943, 2628.577
380.425, 2620.677
380.907, 2610.965
381.389, 2607.466
381.871, 2609.167
382.353, 2612.899
382.835, 2617.484
383.317, 2621.519
383.799, 2620.988
384.282, 2615.531
384.764, 2605.309
385.246, 2579.584
385.728, 2556.093
386.210, 2553.482
386.692, 2552.341
387.174, 2556.289
387.656, 2559.002
388.138, 2560.546
388.621, 2557.419
389.103, 2560.324
389.585, 2561.369
390.067, 2563.758
390.549, 2575.425
391.031, 2595.138
391.513, 2625.259
391.996, 2657.879
392.478, 2676.333
392.960, 2678.149
393.442, 2687.772
393.924, 2719.601
394.406, 2757.749
394.888, 2784.224
395.370, 2797.832
395.852, 2805.624
396.335, 2806.492
396.817, 2805.066
397.299, 2811.688
397.781, 2828.530
398.263, 2843.564
398.745, 2845.050
399.227, 2833.301
399.709, 2829.180
400.191, 2843.821
400.674, 2854.500
401.156, 2844.348
401.638, 2823.269
402.120, 2811.764
402.602, 2819.128
403.084, 2837.648
403.566, 2850.304
404.048, 2848.193
404.530, 2856.091
405.013, 2883.952
405.495, 2912.738
405.977, 2930.201
406.459, 2936.204
406.941, 2937.952
407.423, 2942.456
407.905, 2948.247
408.387, 2942.355
408.870, 2917.950
409.352, 2894.034
409.834, 2885.237
410.316, 2878.008
410.798, 2853.476
411.280, 2803.042
411.762, 2747.841
412.244, 2709.624
412.727, 2685.601
413.209, 2656.748
413.691, 2614.823
414.173, 2574.066
414.655, 2555.146
415.137, 2556.135
415.619, 2550.920
416.101, 2531.808
416.583, 2506.509
417.065, 2478.147
417.548, 2448.637
418.030, 2424.344
418.512, 2409.252
418.994, 2401.417
419.476, 2393.001
419.958, 2375.241
420.440, 2368.422
420.922, 2385.643
421.405, 2407.217
421.887, 2414.546
422.369, 2404.927
422.851, 2388.719
423.333, 2375.399
423.815, 2364.689
424.297, 2361.609
424.779, 2371.811
425.262, 2382.813
425.744, 2388.193
426.226, 2391.787
426.708, 2400.066
427.190, 2416.282
427.672, 2435.813
428.154, 2453.031
428.636, 2468.002
429.118, 2483.688
429.601, 2503.679
430.083, 2520.803
430.565, 2523.220
431.047, 2511.128
431.529, 2505.500
432.011, 2518.565
432.493, 2536.225
432.975, 2548.073
433.457, 2552.429
433.940, 2544.906
434.422, 2520.617
434.904, 2484.181
435.386, 2457.013
435.868, 2442.275
436.350, 2432.698
436.832, 2431.929
437.314, 2433.725
437.797, 2432.080
438.279, 2426.059
438.761, 2418.418
439.243, 2406.661
439.725, 2389.613
440.207, 2403.061
440.689, 2429.670
441.171, 2439.844
441.654, 2467.716
442.136, 2491.291
442.618, 2510.801
443.100, 2514.066
443.582, 2538.307
444.064, 2556.083
444.546, 2563.904
445.028, 2579.592
445.510, 2571.999
445.992, 2560.623
446.475, 2572.110
446.957, 2605.313
447.439, 2631.200
447.921, 2640.565
448.403, 2644.390
448.885, 2651.570
449.367, 2660.839
449.849, 2666.058
450.332, 2663.549
450.814, 2655.650
451.296, 2649.219
451.778, 2647.633
452.260, 2642.356
452.742, 2630.952
453.224, 2617.820
453.706, 2606.634
454.189, 2597.203
454.671, 2586.137
455.153, 2569.144
455.635, 2548.244
456.117, 2534.973
456.599, 2532.136
457.081, 2530.340
457.563, 2526.970
458.045, 2521.949
458.528, 2514.348
459.010, 2503.208
459.492, 2493.019
459.974, 2485.594
460.456, 2481.395
460.938, 2482.654
461.420, 2490.144
461.902, 2498.509
462.384, 2502.756
462.867, 2502.927
463.349, 2505.874
463.831, 2511.933
464.313, 2520.151
464.795, 2529.109
465.277, 2540.376
465.759, 2548.038
466.241, 2559.798
466.724, 2570.563
467.206, 2580.387
467.688, 2586.451
468.170, 2597.372
468.652, 2606.345
469.134, 2616.282
469.616, 2633.877
470.098, 2664.954
470.580, 2681.712
471.063, 2667.875
471.545, 2640.834
472.027, 2625.199
472.509, 2620.165
472.991, 2609.817
473.473, 2587.543
473.955, 2561.004
474.437, 2541.208
474.919, 2528.456
475.402, 2510.489
475.884, 2478.851
476.366, 2446.192
476.848, 2417.462
477.330, 2393.977
477.812, 2399.892
478.294, 2398.671
478.776, 2390.697
479.259, 2355.742
479.741, 2355.625
480.223, 2344.767
480.705, 2349.800
481.187, 2362.984
481.669, 2362.370
482.151, 2347.970
482.633, 2330.721
483.116, 2316.641
483.598, 2306.077
484.080, 2300.136
484.562, 2298.699
485.044, 2303.187
485.526, 2320.901
486.008, 2340.012
486.490, 2341.043
486.972, 2319.194
487.454, 2305.079
487.937, 2315.852
488.419, 2337.162
488.901, 2354.470
489.383, 2365.731
489.865, 2369.096
490.347, 2360.658
490.829, 2345.450
491.311, 2349.901
491.794, 2393.775
492.276, 2432.746
492.758, 2466.084
493.240, 2491.929
493.722, 2503.335
494.204, 2503.083
494.686, 2508.397
495.168, 2537.985
495.651, 2550.556
496.133, 2611.289
496.615, 2660.331
497.097, 2698.318
497.579, 2692.099
498.061, 2742.952
498.543, 2770.935
499.025, 2797.978
499.507, 2856.864
499.990, 2857.080
500.472, 2912.340
500.954, 2935.118
501.436, 2974.539
501.918, 3026.917
502.400, 3091.202
502.882, 3165.551
503.364, 3234.458
503.846, 3286.869
504.329, 3347.309
504.811, 3419.660
505.293, 3500.110
505.775, 3591.084
506.257, 3689.795
506.739, 3781.447
507.221, 3845.025
507.703, 3887.449
508.185, 3952.083
508.668, 4046.282
509.150, 4142.155
509.632, 4222.190
510.114, 4298.910
510.596, 4363.151
511.078, 4532.623
511.560, 4683.175
512.042, 4813.699
512.525, 4924.242
513.007, 5014.796
513.489, 5085.353
513.971, 5135.931
514.453, 5166.525
514.935, 5177.119
515.417, 5167.727
515.899, 5138.344
516.381, 5088.980
516.864, 5019.623
517.346, 4930.250
517.828, 4820.923
518.310, 4691.594
518.792, 4542.276
519.274, 4374.257
519.756, 4355.563
520.239, 4300.316
520.721, 4199.221
521.203, 4104.794
521.685, 4057.649
522.167, 4020.389
522.649, 3918.692
523.131, 3722.740
523.613, 3568.576
524.095, 3543.492
524.578, 3553.866
525.060, 3505.770
525.542, 3394.529
526.024, 3254.095
526.506, 3101.558
526.988, 2947.856
527.470, 2836.893
527.952, 2795.504
528.434, 2751.608
528.917, 2691.074
529.399, 2631.974
529.881, 2588.669
530.363, 2559.590
530.845, 2531.277
531.327, 2491.123
531.809, 2448.952
532.291, 2426.138
532.773, 2422.585
533.256, 2414.123
533.738, 2389.792
534.220, 2358.490
534.702, 2334.503
535.184, 2318.675
535.666, 2304.479
536.148, 2294.452
536.630, 2282.973
537.112, 2260.891
537.595, 2234.470
538.077, 2219.573
538.559, 2218.311
539.041, 2213.739
539.523, 2206.036
540.005, 2185.818
540.487, 2181.757
540.969, 2171.223
541.452, 2160.423
541.934, 2158.638
542.416, 2140.242
542.898, 2138.314
543.380, 2129.809
543.862, 2119.784
544.344, 2099.265
544.826, 2085.763
545.308, 2081.776
545.791, 2088.832
546.273, 2094.904
546.755, 2085.388
547.237, 2058.188
547.719, 2037.053
548.201, 2022.251
548.683, 2012.395
549.166, 2012.060
549.648, 2014.235
550.130, 2009.921
550.612, 1996.917
551.094, 1981.726
551.576, 1968.859
552.058, 1959.062
552.540, 1959.817
553.022, 1975.174
553.505, 1987.469
553.987, 1984.769
554.469, 1972.780
554.951, 1966.292
555.433, 1969.109
555.915, 1968.896
556.397, 1960.990
556.879, 1948.761
557.362, 1931.641
557.844, 1912.438
558.326, 1901.910
558.808, 1909.025
559.290, 1927.428
559.772, 1932.207
560.254, 1914.347
560.736, 1904.332
561.218, 1914.175
561.701, 1927.817
562.183, 1938.004
562.665, 1943.697
563.147, 1943.297
563.629, 1927.849
564.111, 1912.253
564.593, 1919.166
565.075, 1941.975
565.557, 1951.086
566.040, 1935.084
566.522, 1910.695
567.004, 1901.685
567.486, 1914.038
567.968, 1911.995
568.450, 1901.890
568.932, 1912.796
569.414, 1918.602
569.896, 1919.581
570.379, 1901.281
570.861, 1907.877
571.343, 1904.495
571.825, 1900.704
572.307, 1910.804
572.789, 1904.568
573.271, 1909.548
573.753, 1906.481
574.235, 1892.066
574.718, 1871.948
575.200, 1863.036
575.682, 1871.073
576.164, 1877.955
576.646, 1881.166
577.128, 1880.445
577.610, 1872.485
578.093, 1859.792
578.575, 1850.775
579.057, 1851.383
579.539, 1858.191
580.021, 1861.747
580.503, 1861.211
580.985, 1858.958
581.467, 1851.273
581.949, 1859.028
582.432, 1863.035
582.914, 1863.496
583.396, 1849.787
583.878, 1854.375
584.360, 1851.630
584.842, 1848.585
585.324, 1855.748
585.806, 1844.100
586.289, 1850.100
586.771, 1844.731
587.253, 1841.050
587.735, 1839.193
588.217, 1828.125
588.699, 1793.557
589.181, 1770.896
589.663, 1777.707
590.145, 1793.461
590.628, 1798.125
591.110, 1789.000
591.592, 1777.736
592.074, 1769.367
592.556, 1764.460
593.038, 1766.710
593.520, 1774.851
594.002, 1777.788
594.484, 1769.656
594.967, 1756.162
595.449, 1747.913
595.931, 1748.141
596.413, 1744.679
596.895, 1732.103
597.377, 1721.922
597.859, 1723.698
598.341, 1729.908
598.823, 1726.248
599.306, 1706.739
599.788, 1686.152
600.270, 1683.455
600.752, 1693.575
601.234, 1694.581
601.716, 1683.018
602.198, 1672.587
602.680, 1672.848
603.162, 1680.751
603.645, 1685.112
604.127, 1684.166
604.609, 1682.961
605.091, 1681.488
605.573, 1680.340
606.055, 1680.822
606.537, 1682.080
607.019, 1681.298
607.502, 1676.278
607.984, 1670.185
608.466, 1670.242
608.948, 1676.418
609.430, 1677.048
609.912, 1667.961
610.394, 1657.418
610.876, 1651.756
611.359, 1650.698
611.841, 1651.291
612.323, 1659.445
612.805, 1652.832
613.287, 1660.206
613.769, 1664.184
614.251, 1664.950
614.733, 1652.881
615.216, 1657.385
615.698, 1655.248
616.180, 1652.838
616.662, 1659.675
617.144, 1649.473
617.626, 1656.164
618.108, 1656.111
618.590, 1659.144
619.072, 1655.495
619.555, 1653.910
620.037, 1653.353
620.519, 1659.477
621.001, 1661.782
621.483, 1639.901
621.965, 1609.389
622.447, 1595.116
622.929, 1602.236
623.411, 1617.433
623.894, 1628.348
624.376, 1635.349
624.858, 1642.059
625.340, 1650.223
625.822, 1652.358
626.304, 1640.141
626.786, 1625.585
627.268, 1623.249
627.750, 1633.199
628.233, 1639.680
628.715, 1637.623
629.197, 1631.579
629.679, 1621.010
630.161, 1609.553
630.643, 1605.988
631.125, 1612.423
631.607, 1618.862
632.089, 1611.211
632.572, 1590.051
633.054, 1581.913
633.536, 1593.306
634.018, 1603.013
634.500, 1599.113
634.982, 1592.386
635.464, 1596.799
635.946, 1613.907
636.429, 1625.673
636.911, 1622.160
637.393, 1614.664
637.875, 1613.063
638.357, 1614.657
638.839, 1611.363
639.321, 1600.364
639.803, 1587.288
640.286, 1579.558
640.768, 1577.311
641.250, 1576.097
641.732, 1575.524
642.214, 1576.787
642.696, 1582.584
643.178, 1589.291
643.660, 1592.741
644.143, 1592.541
644.625, 1590.658
645.107, 1585.394
645.589, 1580.695
646.071, 1581.911
646.553, 1586.220
647.035, 1586.052
647.517, 1578.600
647.999, 1572.713
648.482, 1576.537
648.964, 1578.004
649.446, 1577.240
649.928, 1567.563
650.410, 1569.396
650.892, 1566.616
651.374, 1563.647
651.856, 1567.099
652.338, 1558.719
652.821, 1562.069
653.303, 1559.879
653.785, 1552.763
654.267, 1556.030
654.749, 1563.061
655.231, 1571.607
655.713, 1580.656
656.195, 1588.238
656.677, 1591.701
657.160, 1591.067
657.642, 1588.033
658.124, 1581.805
658.606, 1574.387
659.088, 1555.318
659.570, 1546.992
660.052, 1556.333
660.534, 1561.385
661.016, 1562.379
661.499, 1547.161
661.981, 1552.878
662.463, 1550.205
662.945, 1547.188
663.427, 1555.851
663.909, 1550.778
664.391, 1560.359
664.873, 1558.818
665.356, 1547.923
665.838, 1542.911
666.320, 1545.486
666.802, 1545.234
667.284, 1535.669
667.766, 1523.455
668.248, 1520.258
668.730, 1527.855
669.213, 1531.099
669.695, 1520.393
670.177, 1514.086
670.659, 1529.824
671.141, 1551.683
671.623, 1552.449
672.105, 1527.453
672.587, 1502.618
673.070, 1506.940
673.552, 1529.927
674.034, 1537.002
674.516, 1527.637
674.998, 1522.351
675.480, 1530.361
675.962, 1540.866
676.444, 1538.023
676.926, 1518.573
677.409, 1510.126
677.891, 1518.650
678.373, 1529.832
678.855, 1547.619
679.337, 1561.272
679.819, 1555.190
680.301, 1530.151
680.783, 1507.908
681.265, 1504.807
681.748, 1512.274
682.230, 1519.507
682.712, 1525.840
683.194, 1526.766
683.676, 1520.508
684.158, 1512.990
684.640, 1510.642
685.122, 1513.302
685.604, 1514.734
686.087, 1511.079
686.569, 1512.076
687.051, 1525.577
687.533, 1538.795
688.015, 1539.932
688.497, 1530.926
688.979, 1524.465
689.461, 1527.480
689.943, 1533.016
690.426, 1536.133
690.908, 1537.278
691.390, 1536.815
691.872, 1535.037
692.354, 1533.557
692.836, 1533.902
693.318, 1535.187
693.800, 1533.448
694.283, 1527.087
694.765, 1522.631
695.247, 1516.932
695.729, 1518.243
696.211, 1513.815
696.693, 1522.916
697.175, 1528.732
697.657, 1531.441
698.140, 1521.735
698.622, 1528.061
699.104, 1527.962
699.586, 1527.599
700.068, 1536.181
700.550, 1528.281
701.032, 1536.720
701.514, 1538.637
701.997, 1543.540
702.479, 1541.978
702.961, 1542.413
703.443, 1549.314
703.925, 1552.635
704.407, 1550.329
704.889, 1555.421
705.371, 1547.296
705.853, 1550.769
706.336, 1553.443
706.818, 1567.486
707.300, 1580.636
707.782, 1578.756
708.264, 1569.858
708.746, 1567.474
709.228, 1575.522
709.710, 1586.825
710.192, 1596.303
710.675, 1604.618
711.157, 1610.883
711.639, 1616.229
712.121, 1620.548
712.603, 1619.971
713.085, 1607.134
713.567, 1611.806
714.049, 1612.229
714.531, 1608.630
715.014, 1588.961
715.496, 1590.042
715.978, 1582.809
716.460, 1575.232
716.942, 1574.656
717.424, 1588.769
717.906, 1599.866
718.388, 1588.542
718.870, 1572.374
719.353, 1566.257
719.835, 1561.348
720.317, 1537.571
720.799, 1495.910
721.281, 1463.395
721.763, 1462.501
722.245, 1482.564
722.727, 1496.154
723.210, 1502.982
723.692, 1507.946
724.174, 1512.089
724.656, 1513.858
725.138, 1511.813
725.620, 1506.437
726.102, 1499.775
726.584, 1487.996
727.067, 1481.296
727.549, 1484.256
728.031, 1489.161
728.513, 1491.541
728.995, 1492.010
729.477, 1493.081
729.959, 1495.848
730.441, 1497.479
730.924, 1496.278
731.406, 1491.832
731.888, 1479.999
732.370, 1462.574
732.852, 1452.212
733.334, 1454.710
733.816, 1464.778
734.298, 1472.094
734.780, 1474.153
735.263, 1467.197
735.745, 1477.475
736.227, 1483.569
736.709, 1485.705
737.191, 1472.026
737.673, 1478.769
738.155, 1477.328
738.637, 1475.551
739.119, 1485.167
739.602, 1473.789
740.084, 1483.225
740.566, 1484.352
741.048, 1483.554
741.530, 1486.224
742.012, 1487.000
742.494, 1479.721
742.976, 1469.356
743.458, 1466.528
743.941, 1469.889
744.423, 1467.810
744.905, 1457.724
745.387, 1448.539
745.869, 1447.512
746.351, 1451.389
746.833, 1448.618
747.315, 1430.804
747.797, 1422.625
748.280, 1432.173
748.762, 1442.619
749.244, 1447.691
749.726, 1448.931
750.208, 1448.614
750.690, 1446.858
751.172, 1446.064
751.654, 1447.038
752.137, 1449.775
752.619, 1457.116
753.101, 1465.697
753.583, 1467.275
754.065, 1459.809
754.547, 1450.470
755.029, 1446.833
755.511, 1447.428
755.994, 1446.085
756.476, 1442.644
756.958, 1440.208
757.440, 1440.114
757.922, 1439.802
758.404, 1436.399
758.886, 1430.318
759.368, 1426.253
759.851, 1425.721
760.333, 1425.193
760.815, 1423.528
761.297, 1422.684
761.779, 1425.755
762.261, 1430.397
762.743, 1430.781
763.225, 1423.977
763.707, 1416.594
764.190, 1408.148
764.672, 1404.614
765.154, 1422.018
765.636, 1451.719
766.118, 1462.204
766.600, 1440.412
767.082, 1409.332
767.564, 1401.594
768.046, 1413.851
768.529, 1413.538
769.011, 1398.458
769.493, 1385.609
769.975, 1380.132
770.457, 1380.530
770.939, 1387.578
771.421, 1401.662
771.903, 1404.925
772.385, 1383.624
772.868, 1370.563
773.350, 1376.827
773.832, 1387.439
774.314, 1392.083
774.796, 1391.256
775.278, 1389.708
775.760, 1389.662
776.242, 1387.823
776.724, 1381.011
777.207, 1371.725
777.689, 1361.261
778.171, 1351.222
778.653, 1345.774
779.135, 1346.813
779.617, 1352.080
780.099, 1361.606
780.581, 1373.855
781.064, 1373.682
781.546, 1359.738
782.028, 1344.657
782.510, 1331.636
782.992, 1322.717
783.474, 1321.527
783.956, 1328.444
784.438, 1331.326
784.920, 1326.412
785.403, 1322.594
785.885, 1324.445
786.367, 1324.814
786.849, 1315.713
787.331, 1300.524
787.813, 1290.642
788.295, 1289.174
788.778, 1293.703
789.260, 1311.694
789.742, 1328.601
790.224, 1323.894
790.706, 1304.527
791.188, 1293.931
791.670, 1301.852
792.152, 1313.258
792.634, 1309.491
793.117, 1294.677
793.599, 1281.681
794.081, 1270.848
794.563, 1267.085
795.045, 1273.318
795.527, 1279.976
796.009, 1276.009
796.491, 1262.100
796.973, 1248.357
797.456, 1230.553
797.938, 1222.104
798.420, 1231.792
798.902, 1244.604
799.384, 1251.865
799.866, 1254.248
800.348, 1253.281
800.830, 1248.452
801.312, 1241.781
801.795, 1230.721
802.277, 1220.947
802.759, 1218.009
803.241, 1218.817
803.723, 1215.700
804.205, 1206.929
804.687, 1202.821
805.169, 1220.921
805.652, 1243.162
806.134, 1236.141
806.616, 1209.065
807.098, 1193.408
807.580, 1196.710
808.062, 1206.919
808.544, 1214.386
809.026, 1219.074
809.508, 1219.578
809.991, 1214.908
810.473, 1215.268
810.955, 1224.307
811.437, 1232.049
811.919, 1232.792
812.401, 1227.836
812.883, 1219.154
813.365, 1200.946
813.847, 1195.035
814.330, 1218.147
814.812, 1233.122
815.294, 1218.068
815.776, 1194.217
816.258, 1184.916
816.740, 1191.995
817.222, 1203.234
817.705, 1222.579
818.187, 1234.794
818.669, 1224.271
819.151, 1204.680
819.633, 1190.661
820.115, 1184.906
820.597, 1187.875
821.079, 1200.819
821.561, 1215.458
822.044, 1221.253
822.526, 1219.968
823.008, 1216.660
823.490, 1211.775
823.972, 1205.401
824.454, 1197.215
824.936, 1190.665
825.418, 1190.968
825.901, 1197.683
826.383, 1200.340
826.865, 1196.976
827.347, 1196.431
827.829, 1204.430
828.311, 1209.965
828.793, 1200.250
829.275, 1179.725
829.757, 1171.622
830.240, 1190.428
830.722, 1196.599
831.204, 1171.958
831.686, 1150.383
832.168, 1153.755
832.650, 1170.038
833.132, 1181.183
833.614, 1183.563
834.096, 1179.931
834.578, 1164.066
835.061, 1150.159
835.543, 1151.762
836.025, 1161.716
836.507, 1169.514
836.989, 1173.203
837.471, 1175.392
837.953, 1177.603
838.435, 1179.733
838.917, 1180.142
839.400, 1180.391
839.882, 1189.016
840.364, 1205.599
840.846, 1213.492
841.328, 1204.054
841.810, 1187.547
842.292, 1179.350
842.774, 1179.400
843.257, 1179.901
843.739, 1182.104
844.221, 1179.397
844.703, 1166.857
845.185, 1154.340
845.667, 1151.653
846.149, 1157.078
846.631, 1159.523
847.114, 1154.831
847.596, 1153.307
848.078, 1157.301
848.560, 1162.091
849.042, 1165.116
849.524, 1167.571
850.006, 1172.662
850.488, 1181.300
850.971, 1184.985
851.453, 1175.337
851.935, 1165.823
852.417, 1166.623
852.899, 1171.033
853.381, 1170.546
853.863, 1164.558
854.345, 1156.310
854.827, 1145.668
855.310, 1139.308
855.792, 1149.297
856.274, 1166.509
856.756, 1172.536
857.238, 1168.273
857.720, 1165.037
858.202, 1167.475
858.684, 1170.253
859.166, 1155.779
859.649, 1148.970
860.131, 1163.976
860.613, 1173.686
861.095, 1178.385
861.577, 1163.065
862.059, 1173.596
862.541, 1173.767
863.023, 1173.513
863.505, 1181.978
863.988, 1176.188
864.470, 1169.117
864.952, 1157.257
865.434, 1148.058
865.916, 1145.276
866.398, 1146.295
866.880, 1132.195
867.362, 1117.724
867.844, 1142.587
868.327, 1157.902
868.809, 1164.182
869.291, 1134.367
869.773, 1151.161
870.255, 1149.277
870.737, 1146.626
871.219, 1169.981
871.701, 1145.416
872.184, 1165.807
872.666, 1168.941
873.148, 1188.758
873.630, 1185.674
874.112, 1169.309
874.594, 1158.666
875.076, 1157.748
875.558, 1160.068
876.041, 1163.513
876.523, 1164.581
877.005, 1153.872
877.487, 1139.464
877.969, 1141.111
878.451, 1157.353
878.933, 1169.498
879.415, 1168.331
879.898, 1160.100
880.380, 1151.041
880.862, 1142.187
881.344, 1140.133
881.826, 1144.544
882.308, 1146.002
882.790, 1141.824
883.272, 1135.912
883.754, 1131.202
884.237, 1128.122
884.719, 1128.568
885.201, 1133.249
885.683, 1137.696
886.165, 1140.947
886.647, 1146.468
887.129, 1159.431
887.611, 1171.028
888.093, 1165.422
888.576, 1139.775
889.058, 1131.901
889.540, 1162.186
890.022, 1179.987
890.504, 1166.383
890.986, 1149.999
891.468, 1152.378
891.950, 1165.481
892.432, 1167.101
892.915, 1148.260
893.397, 1139.990
893.879, 1163.785
894.361, 1182.823
894.843, 1169.854
895.325, 1147.448
895.807, 1144.094
896.289, 1160.492
896.771, 1174.497
897.254, 1157.811
897.736, 1169.991
898.218, 1154.296
898.700, 1173.337
899.182, 1183.946
899.664, 1186.577
900.146, 1157.331
900.628, 1169.247
901.111, 1164.667
901.593, 1168.254
902.075, 1177.610
902.557, 1175.264
903.039, 1166.262
903.521, 1162.781
904.003, 1166.123
904.485, 1170.946
904.968, 1174.449
905.450, 1175.057
905.932, 1167.082
906.414, 1154.205
906.896, 1151.946
907.378, 1160.089
907.860, 1171.735
908.342, 1184.929
908.825, 1194.833
909.307, 1196.219
909.789, 1191.793
910.271, 1191.949
910.753, 1197.309
911.235, 1196.217
911.717, 1185.644
912.199, 1178.727
912.681, 1182.512
913.164, 1191.839
913.646, 1199.561
914.128, 1205.646
914.610, 1210.249
915.092, 1213.929
915.574, 1214.129
916.056, 1206.586
916.538, 1201.487
917.020, 1207.197
917.503, 1220.016
917.985, 1231.739
918.467, 1247.817
918.949, 1246.915
919.431, 1204.623
919.913, 1176.927
920.395, 1191.630
920.877, 1216.404
921.359, 1220.531
921.842, 1208.236
922.324, 1205.036
922.806, 1221.675
923.288, 1233.635
923.770, 1233.658
924.252, 1230.510
924.734, 1225.501
925.216, 1222.276
925.698, 1228.411
926.181, 1243.382
926.663, 1250.547
927.145, 1231.338
927.627, 1218.444
928.109, 1233.339
928.591, 1256.842
929.073, 1275.044
929.555, 1286.173
930.038, 1288.117
930.520, 1280.250
931.002, 1278.847
931.484, 1301.793
931.966, 1328.489
932.448, 1343.643
932.930, 1348.512
933.412, 1338.856
933.894, 1320.730
934.377, 1314.627
934.859, 1331.259
935.341, 1356.400
935.823, 1377.613
936.305, 1397.327
936.787, 1420.742
937.269, 1445.613
937.752, 1465.016
938.234, 1477.882
938.716, 1488.850
939.198, 1501.401
939.680, 1513.471
940.162, 1517.720
940.644, 1519.756
941.126, 1541.212
941.608, 1578.642
942.091, 1602.879
942.573, 1604.274
943.055, 1598.610
943.537, 1600.333
944.019, 1608.010
944.501, 1618.978
944.983, 1632.764
945.465, 1646.537
945.947, 1659.949
946.430, 1667.284
946.912, 1665.422
947.394, 1659.897
947.876, 1657.566
948.358, 1658.457
948.840, 1663.510
949.322, 1672.983
949.804, 1685.762
950.286, 1704.763
950.769, 1703.118
951.251, 1659.783
951.733, 1597.598
952.215, 1560.705
952.697, 1550.451
953.179, 1534.428
953.661, 1511.019
954.143, 1488.623
954.625, 1468.609
955.108, 1451.809
955.590, 1440.032
956.072, 1430.781
956.554, 1417.110
957.036, 1398.797
957.518, 1375.952
958.000, 1342.484
958.482, 1319.796
958.965, 1319.168
959.447, 1324.173
959.929, 1320.030
960.411, 1308.344
960.893, 1296.825
961.375, 1282.696
961.857, 1275.177
962.339, 1278.135
962.821, 1281.868
963.304, 1286.783
963.786, 1287.038
964.268, 1272.013
964.750, 1243.683
965.232, 1228.681
965.714, 1236.553
966.196, 1242.489
966.679, 1246.169
967.161, 1247.098
967.643, 1241.026
968.125, 1234.435
968.607, 1239.458
969.089, 1256.349
969.571, 1258.841
970.053, 1229.264
970.535, 1209.330
971.018, 1210.459
971.500, 1216.151
971.982, 1217.570
972.464, 1217.527
972.946, 1221.345
973.428, 1229.680
973.910, 1236.881
974.392, 1245.446
974.875, 1248.220
975.357, 1238.599
975.839, 1227.339
976.321, 1219.542
976.803, 1216.191
977.285, 1219.177
977.767, 1229.491
978.249, 1239.051
978.731, 1254.019
979.214, 1257.529
979.696, 1229.307
980.178, 1200.333
980.660, 1200.411
981.142, 1218.872
981.624, 1226.554
982.106, 1215.925
982.588, 1209.510
983.070, 1217.653
983.553, 1226.622
984.035, 1237.337
984.517, 1240.473
984.999, 1218.961
985.481, 1183.742
985.963, 1165.901
986.445, 1175.551
986.927, 1188.098
987.409, 1203.032
987.892, 1208.901
988.374, 1190.945
988.856, 1167.315
989.338, 1153.093
989.820, 1150.872
990.302, 1164.819
990.784, 1203.481
991.266, 1227.607
991.748, 1208.982
992.231, 1185.008
992.713, 1174.835
993.195, 1173.829
993.677, 1176.407
994.159, 1181.889
994.641, 1192.555
995.123, 1212.666
995.606, 1225.674
996.088, 1219.039
996.570, 1208.828
997.052, 1206.104
997.534, 1205.653
998.016, 1196.556
998.498, 1182.273
998.980, 1182.213
999.462, 1210.785
999.945, 1230.106
1000.427, 1210.181
1000.909, 1188.163
1001.391, 1189.550
1001.873, 1204.291
1002.355, 1221.870
1002.837, 1238.613
1003.319, 1248.823
1003.801, 1248.993
1004.284, 1246.660
1004.766, 1242.448
1005.248, 1240.104
1005.730, 1246.140
1006.212, 1253.239
1006.694, 1250.735
1007.176, 1239.271
1007.658, 1227.943
1008.141, 1218.298
1008.623, 1213.231
1009.105, 1217.673
1009.587, 1223.310
1010.069, 1223.661
1010.551, 1222.191
1011.033, 1223.033
1011.515, 1226.878
1011.997, 1234.059
1012.480, 1247.787
1012.962, 1256.880
1013.444, 1251.508
1013.926, 1245.223
1014.408, 1249.403
1014.890, 1256.493
1015.372, 1257.117
1015.854, 1250.575
1016.336, 1239.717
1016.819, 1221.554
1017.301, 1208.933
1017.783, 1206.312
1018.265, 1211.178
1018.747, 1233.586
1019.229, 1254.831
1019.711, 1247.826
1020.193, 1216.977
1020.676, 1194.173
1021.158, 1190.452
1021.640, 1189.236
1022.122, 1179.319
1022.604, 1177.104
1023.086, 1203.289
1023.568, 1233.808
1024.050, 1239.409
1024.532, 1223.157
1025.015, 1209.274
1025.497, 1203.144
1025.979, 1199.430
1026.461, 1197.117
1026.943, 1196.440
1027.425, 1195.164
1027.907, 1197.379
1028.389, 1210.514
1028.872, 1231.131
1029.354, 1245.244
1029.836, 1247.623
1030.318, 1251.260
1030.800, 1259.238
1031.282, 1267.974
1031.764, 1274.856
1032.246, 1282.904
1032.729, 1301.456
1033.211, 1323.641
1033.693, 1322.812
1034.175, 1280.924
1034.657, 1261.770
1035.139, 1291.120
1035.621, 1318.227
1036.103, 1325.309
1036.585, 1326.720
1037.068, 1333.449
1037.550, 1344.136
1038.032, 1353.641
1038.514, 1360.362
1038.996, 1370.766
1039.478, 1386.790
1039.960, 1403.746
1040.442, 1422.438
1040.924, 1439.840
1041.407, 1454.836
1041.889, 1466.680
1042.371, 1473.407
1042.853, 1474.249
1043.335, 1473.499
1043.817, 1467.854
1044.299, 1467.557
1044.781, 1479.517
1045.264, 1488.839
1045.746, 1483.613
1046.228, 1471.937
1046.710, 1470.509
1047.192, 1480.725
1047.674, 1482.514
1048.156, 1474.963
1048.638, 1460.601
1049.120, 1435.185
1049.603, 1415.746
1050.085, 1415.061
1050.567, 1419.426
1051.049, 1406.415
1051.531, 1377.247
1052.013, 1356.528
1052.495, 1345.043
1052.977, 1338.340
1053.459, 1337.771
1053.942, 1330.944
1054.424, 1310.379
1054.906, 1287.231
1055.388, 1275.831
1055.870, 1273.944
1056.352, 1263.441
1056.834, 1252.721
1057.316, 1257.316
1057.799, 1258.186
1058.281, 1255.545
1058.763, 1238.851
1059.245, 1240.304
1059.727, 1234.484
1060.209, 1228.366
1060.691, 1228.369
1061.173, 1212.794
1061.656, 1202.878
1062.138, 1197.441
1062.620, 1195.850
1063.102, 1197.581
1063.584, 1197.561
1064.066, 1190.922
1064.548, 1183.953
1065.030, 1188.816
1065.512, 1200.967
1065.995, 1211.156
1066.477, 1217.657
1066.959, 1212.362
1067.441, 1196.950
1067.923, 1192.629
1068.405, 1213.391
1068.887, 1238.017
1069.369, 1244.434
1069.851, 1238.805
1070.334, 1223.784
1070.816, 1206.509
1071.298, 1201.880
1071.780, 1208.399
1072.262, 1211.854
1072.744, 1206.101
1073.226, 1200.985
1073.708, 1204.506
1074.191, 1211.382
1074.673, 1220.220
1075.155, 1227.285
1075.637, 1226.612
1076.119, 1220.646
1076.601, 1215.136
1077.083, 1211.688
1077.565, 1211.888
1078.047, 1213.423
1078.530, 1222.803
1079.012, 1222.432
1079.494, 1215.770
1079.976, 1228.839
1080.458, 1237.120
1080.940, 1240.867
1081.422, 1226.506
1081.904, 1235.529
1082.386, 1235.180
1082.869, 1234.452
1083.351, 1246.765
1083.833, 1235.038
1084.315, 1247.145
1084.797, 1249.738
1085.279, 1256.685
1085.761, 1254.203
1086.243, 1254.633
1086.725, 1264.495
1087.208, 1269.139
1087.690, 1265.572
1088.172, 1272.796
1088.654, 1260.740
1089.136, 1265.602
1089.618, 1277.764
1090.100, 1274.670
1090.582, 1282.066
1091.065, 1285.472
1091.547, 1270.718
1092.029, 1287.538
1092.511, 1282.082
1092.993, 1294.359
1093.475, 1305.672
1093.957, 1308.022
1094.439, 1311.096
1094.922, 1300.799
1095.404, 1318.646
1095.886, 1329.659
1096.368, 1334.207
1096.850, 1322.304
1097.332, 1332.048
1097.814, 1337.059
1098.296, 1326.977
1098.778, 1328.961
1099.260, 1323.569
1099.743, 1339.770
1100.225, 1350.722
1100.707, 1356.717
1101.189, 1342.905
1101.671, 1354.669
1102.153, 1356.183
1102.635, 1357.278
1103.117, 1372.641
1103.600, 1371.232
1104.082, 1370.977
1104.564, 1370.790
1105.046, 1371.466
1105.528, 1373.340
1106.010, 1377.065
1106.492, 1386.225
1106.974, 1397.938
1107.457, 1402.443
1107.939, 1396.247
1108.421, 1389.866
1108.903, 1388.148
1109.385, 1388.220
1109.867, 1387.703
1110.349, 1389.203
1110.831, 1393.479
1111.313, 1401.950
1111.796, 1419.900
1112.278, 1446.968
1112.760, 1464.931
1113.242, 1468.613
1113.724, 1466.482
1114.206, 1448.563
1114.688, 1438.844
1115.170, 1451.316
1115.652, 1471.475
1116.135, 1488.879
1116.617, 1501.863
1117.099, 1501.884
1117.581, 1482.764
1118.063, 1477.930
1118.545, 1491.950
1119.027, 1503.988
1119.509, 1508.491
1119.992, 1513.706
1120.474, 1525.657
1120.956, 1538.955
1121.438, 1544.384
1121.920, 1543.202
1122.402, 1543.326
1122.884, 1544.698
1123.366, 1548.248
1123.849, 1553.387
1124.331, 1548.303
1124.813, 1529.109
1125.295, 1520.179
1125.777, 1547.286
1126.259, 1587.732
1126.741, 1605.269
1127.223, 1608.874
1127.705, 1613.528
1128.188, 1619.767
1128.670, 1625.820
1129.152, 1631.507
1129.634, 1638.371
1130.116, 1647.595
1130.598, 1654.903
1131.080, 1653.046
1131.562, 1652.848
1132.044, 1666.334
1132.527, 1682.653
1133.009, 1691.706
1133.491, 1693.430
1133.973, 1686.613
1134.455, 1670.914
1134.937, 1668.652
1135.419, 1697.936
1135.901, 1721.689
1136.384, 1728.589
1136.866, 1733.003
1137.348, 1741.581
1137.830, 1751.359
1138.312, 1759.541
1138.794, 1766.157
1139.276, 1771.124
1139.758, 1773.391
1140.240, 1777.700
1140.723, 1783.490
1141.205, 1794.054
1141.687, 1811.197
1142.169, 1828.990
1142.651, 1844.578
1143.133, 1854.739
1143.615, 1851.995
1144.097, 1840.703
1144.579, 1842.207
1145.062, 1853.931
1145.544, 1859.439
1146.026, 1858.282
1146.508, 1858.953
1146.990, 1864.515
1147.472, 1875.057
1147.954, 1892.243
1148.436, 1909.119
1148.919, 1914.902
1149.401, 1917.387
1149.883, 1929.188
1150.365, 1943.992
1150.847, 1948.847
1151.329, 1945.363
1151.811, 1946.147
1152.293, 1955.987
1152.776, 1961.728
1153.258, 1947.677
1153.740, 1941.796
1154.222, 1966.426
1154.704, 1992.666
1155.186, 1996.677
1155.668, 1990.837
1156.150, 1995.267
1156.632, 2009.970
1157.115, 2021.467
1157.597, 2028.489
1158.079, 2035.285
1158.561, 2043.113
1159.043, 2046.816
1159.525, 2042.354
1160.007, 2041.116
1160.489, 2052.527
1160.971, 2069.539
1161.454, 2079.418
1161.936, 2082.458
1162.418, 2076.764
1162.900, 2064.537
1163.382, 2066.037
1163.864, 2082.944
1164.346, 2109.946
1164.828, 2143.860
1165.311, 2170.613
1165.793, 2177.983
1166.275, 2176.423
1166.757, 2174.048
1167.239, 2174.911
1167.721, 2187.015
1168.203, 2204.905
1168.685, 2218.230
1169.167, 2227.979
1169.650, 2244.994
1170.132, 2273.958
1170.614, 2292.617
1171.096, 2274.588
1171.578, 2269.106
1172.060, 2309.578
1172.542, 2350.954
1173.024, 2363.160
1173.506, 2360.215
1173.989, 2359.330
1174.471, 2360.909
1174.953, 2366.823
1175.435, 2379.063
1175.917, 2388.298
1176.399, 2392.091
1176.881, 2402.319
1177.363, 2421.649
1177.846, 2450.203
1178.328, 2489.530
1178.810, 2528.825
1179.292, 2551.169
1179.774, 2562.928
1180.256, 2585.469
1180.738, 2614.019
1181.220, 2630.503
1181.703, 2637.021
1182.185, 2646.813
1182.667, 2663.164
1183.149, 2682.060
1183.631, 2702.343
1184.113, 2719.877
1184.595, 2722.003
1185.077, 2730.779
1185.559, 2776.801
1186.042, 2827.604
1186.524, 2845.250
1187.006, 2841.118
1187.488, 2843.761
1187.970, 2856.901
1188.452, 2870.271
1188.934, 2873.230
1189.416, 2893.136
1189.898, 2946.459
1190.381, 2989.079
1190.863, 3006.412
1191.345, 3008.535
1191.827, 2998.766
1192.309, 2987.839
1192.791, 3000.828
1193.273, 3034.604
1193.755, 3055.147
1194.238, 3063.911
1194.720, 3076.859
1195.202, 3095.599
1195.684, 3116.321
1196.166, 3137.551
1196.648, 3159.784
1197.130, 3184.022
1197.612, 3207.042
1198.094, 3228.644
1198.577, 3243.506
1199.059, 3239.801
1199.541, 3229.490
1200.023, 3228.488
1200.505, 3235.740
1200.987, 3242.365
1201.469, 3246.401
1201.951, 3256.705
##END=



