##NAMES=Wiluite
##RRUFFID=R060513
##IDEAL CHEMISTRY=Ca_19_(Al,Mg)_13_(B,[box],Al)_5_(SiO_4_)_10_(Si_2_O_7_)_4_(O,OH)_10_
##LOCALITY=Wilui River, Sakha Republic, Russian Federation
##OWNER=RRUFF
##SOURCE=Michael Scott
##DESCRIPTION=Dark green tetragonal prismatic
##STATUS=The identification of this mineral has been confirmed by X-ray diffraction and chemical analysis
##URL=rruff.info/R060513
##MEASURED CHEMISTRY=Ca_19.00_(Al_7.90_Mg_4.67_Ti_0.43_)_Σ=13_(B_3.00_[box]_2.00_)_Σ=5_Si_18.00_O_68_(O_7.76_(OH)_2.24_)_Σ=10_ ; B not measured but estimated by charge balance.
90.92609, 0.0000000E+00
91.40820, 42.66471
91.89032, 41.03056
92.37244, 41.97024
92.85455, 45.04521
93.33667, 47.63457
93.81879, 47.33345
94.30090, 44.97860
94.78302, 43.08694
95.26514, 42.28084
95.74725, 42.20431
96.22937, 42.24065
96.71149, 42.41177
97.19360, 42.44489
97.67572, 41.91317
98.15784, 40.83836
98.63995, 40.02113
99.12207, 39.70839
99.60419, 39.86235
100.0863, 40.10166
100.5684, 40.37846
101.0505, 40.83998
101.5327, 41.79936
102.0148, 43.45161
102.4969, 44.92907
102.9790, 46.00359
103.4611, 46.67434
103.9432, 46.79591
104.4253, 45.92255
104.9075, 44.74120
105.3896, 44.63438
105.8717, 45.88143
106.3538, 47.82929
106.8359, 50.42979
107.3180, 54.95461
107.8002, 57.81929
108.2823, 57.46406
108.7644, 55.14958
109.2465, 55.52472
109.7286, 60.97875
110.2107, 67.41211
110.6929, 73.15701
111.1750, 76.44920
111.6571, 80.89895
112.1392, 87.07470
112.6213, 94.82175
113.1034, 103.0455
113.5856, 110.9941
114.0677, 119.7857
114.5498, 130.1324
115.0319, 141.7197
115.5140, 155.3913
115.9961, 171.5177
116.4783, 190.0904
116.9604, 210.1322
117.4425, 232.9428
117.9246, 256.7870
118.4067, 279.5461
118.8888, 299.4195
119.3710, 319.0195
119.8531, 340.1653
120.3352, 363.0703
120.8173, 385.6503
121.2994, 405.9136
121.7815, 424.8154
122.2637, 444.0994
122.7458, 464.4486
123.2279, 485.4474
123.7100, 505.9967
124.1921, 525.4034
124.6742, 546.7815
125.1564, 573.7820
125.6385, 605.3559
126.1206, 638.3248
126.6027, 670.6504
127.0848, 702.8913
127.5669, 735.5856
128.0491, 768.5182
128.5312, 802.5400
129.0133, 839.4954
129.4954, 878.8564
129.9775, 918.8326
130.4596, 958.7608
130.9418, 998.1324
131.4239, 1036.708
131.9060, 1075.021
132.3881, 1112.080
132.8702, 1144.709
133.3523, 1172.947
133.8345, 1198.483
134.3166, 1222.982
134.7987, 1246.603
135.2808, 1266.952
135.7629, 1283.395
136.2450, 1296.490
136.7272, 1308.072
137.2093, 1317.711
137.6914, 1327.358
138.1735, 1339.570
138.6556, 1354.964
139.1377, 1369.207
139.6199, 1380.538
140.1020, 1388.885
140.5841, 1400.598
141.0662, 1416.124
141.5483, 1434.214
142.0304, 1453.200
142.5126, 1472.289
142.9947, 1493.137
143.4768, 1511.660
143.9589, 1524.827
144.4410, 1538.080
144.9231, 1551.341
145.4053, 1564.838
145.8874, 1579.419
146.3695, 1596.652
146.8516, 1612.743
147.3337, 1626.105
147.8158, 1635.890
148.2980, 1645.958
148.7801, 1656.939
149.2622, 1668.176
149.7443, 1678.056
150.2264, 1687.039
150.7085, 1694.499
151.1907, 1700.124
151.6728, 1703.647
152.1549, 1706.103
152.6370, 1706.540
153.1191, 1705.849
153.6012, 1706.259
154.0834, 1709.156
154.5655, 1712.155
155.0476, 1714.231
155.5297, 1714.223
156.0118, 1714.589
156.4939, 1715.297
156.9761, 1716.516
157.4582, 1718.867
157.9403, 1723.472
158.4224, 1728.591
158.9045, 1733.211
159.3866, 1736.109
159.8688, 1739.626
160.3509, 1744.203
160.8330, 1749.846
161.3151, 1756.594
161.7972, 1765.238
162.2793, 1774.604
162.7615, 1783.809
163.2436, 1793.388
163.7257, 1802.041
164.2078, 1808.545
164.6899, 1813.260
165.1720, 1818.781
165.6541, 1827.910
166.1363, 1837.839
166.6184, 1845.797
167.1005, 1850.185
167.5826, 1852.831
168.0647, 1854.671
168.5468, 1855.715
169.0290, 1856.088
169.5111, 1855.725
169.9932, 1854.773
170.4753, 1853.423
170.9574, 1851.454
171.4395, 1849.339
171.9217, 1847.856
172.4038, 1847.008
172.8859, 1845.310
173.3680, 1840.474
173.8501, 1834.134
174.3322, 1829.062
174.8144, 1827.494
175.2965, 1827.302
175.7786, 1826.271
176.2607, 1824.373
176.7428, 1821.422
177.2249, 1815.780
177.7071, 1808.800
178.1892, 1803.683
178.6713, 1803.375
179.1534, 1805.385
179.6355, 1805.686
180.1176, 1804.086
180.5998, 1801.440
181.0819, 1797.553
181.5640, 1793.046
182.0461, 1790.042
182.5282, 1791.087
183.0103, 1794.221
183.4925, 1794.731
183.9746, 1792.164
184.4567, 1788.422
184.9388, 1785.508
185.4209, 1783.361
185.9030, 1781.750
186.3852, 1781.234
186.8673, 1781.279
187.3494, 1775.281
187.8315, 1782.240
188.3136, 1786.327
188.7957, 1787.696
189.2779, 1778.206
189.7600, 1782.737
190.2421, 1781.650
190.7242, 1780.332
191.2063, 1786.837
191.6884, 1778.927
192.1706, 1784.069
192.6527, 1785.094
193.1348, 1786.253
193.6169, 1788.440
194.0990, 1793.166
194.5811, 1800.070
195.0633, 1803.980
195.5454, 1803.984
196.0275, 1802.219
196.5096, 1802.504
196.9917, 1804.941
197.4738, 1808.156
197.9560, 1811.788
198.4381, 1815.843
198.9202, 1819.165
199.4023, 1821.348
199.8844, 1823.354
200.3665, 1827.269
200.8487, 1833.424
201.3308, 1839.781
201.8129, 1845.029
202.2950, 1849.010
202.7771, 1854.397
203.2592, 1861.949
203.7414, 1870.305
204.2235, 1876.043
204.7056, 1878.197
205.1877, 1881.166
205.6698, 1888.132
206.1519, 1900.204
206.6341, 1908.440
207.1162, 1911.203
207.5983, 1911.036
208.0804, 1913.604
208.5625, 1919.351
209.0446, 1926.318
209.5268, 1933.944
210.0089, 1942.622
210.4910, 1949.866
210.9731, 1954.734
211.4552, 1958.797
211.9373, 1966.188
212.4195, 1978.309
212.9016, 1990.183
213.3837, 1999.070
213.8658, 2003.852
214.3479, 2010.151
214.8300, 2019.197
215.3121, 2029.230
215.7943, 2035.592
216.2764, 2036.698
216.7585, 2037.297
217.2406, 2039.843
217.7227, 2045.555
218.2048, 2048.992
218.6870, 2049.448
219.1691, 2047.888
219.6512, 2046.560
220.1333, 2045.589
220.6154, 2044.569
221.0975, 2043.305
221.5797, 2041.775
222.0618, 2040.146
222.5439, 2038.467
223.0260, 2036.722
223.5081, 2034.723
223.9902, 2032.170
224.4724, 2030.031
224.9545, 2028.776
225.4366, 2028.563
225.9187, 2028.924
226.4008, 2030.278
226.8829, 2032.052
227.3651, 2032.922
227.8472, 2032.281
228.3293, 2031.738
228.8114, 2031.756
229.2935, 2032.038
229.7757, 2033.743
230.2578, 2037.227
230.7399, 2041.883
231.2220, 2046.729
231.7041, 2052.135
232.1862, 2056.984
232.6684, 2060.644
233.1505, 2062.403
233.6326, 2065.220
234.1147, 2069.441
234.5968, 2074.522
235.0789, 2079.363
235.5611, 2083.552
236.0432, 2088.174
236.5253, 2093.886
237.0074, 2101.200
237.4895, 2107.397
237.9716, 2111.774
238.4538, 2115.487
238.9359, 2120.476
239.4180, 2127.788
239.9001, 2134.768
240.3822, 2140.255
240.8643, 2143.425
241.3465, 2148.779
241.8286, 2157.012
242.3107, 2166.921
242.7928, 2176.990
243.2749, 2187.906
243.7570, 2197.774
244.2392, 2206.102
244.7213, 2212.862
245.2034, 2218.140
245.6855, 2220.787
246.1676, 2222.966
246.6497, 2227.541
247.1319, 2235.861
247.6140, 2244.277
248.0961, 2252.598
248.5782, 2261.250
249.0603, 2265.977
249.5424, 2265.121
250.0246, 2262.023
250.5067, 2260.500
250.9888, 2262.010
251.4709, 2262.228
251.9530, 2260.067
252.4351, 2255.380
252.9173, 2250.152
253.3994, 2243.932
253.8815, 2237.490
254.3636, 2231.655
254.8457, 2227.010
255.3278, 2221.638
255.8100, 2214.918
256.2921, 2206.848
256.7742, 2199.303
257.2563, 2192.384
257.7384, 2185.853
258.2205, 2179.531
258.7026, 2173.093
259.1848, 2167.657
259.6669, 2163.647
260.1490, 2160.918
260.6311, 2158.316
261.1132, 2155.707
261.5953, 2153.533
262.0775, 2152.365
262.5596, 2152.792
263.0417, 2152.332
263.5238, 2149.848
264.0059, 2146.225
264.4880, 2146.058
264.9702, 2150.575
265.4523, 2156.088
265.9344, 2160.183
266.4165, 2162.396
266.8986, 2164.990
267.3807, 2168.444
267.8629, 2172.304
268.3450, 2174.992
268.8271, 2176.109
269.3092, 2177.175
269.7913, 2179.415
270.2734, 2183.418
270.7556, 2185.635
271.2377, 2185.201
271.7198, 2183.594
272.2019, 2184.144
272.6840, 2187.107
273.1661, 2191.519
273.6483, 2197.699
274.1304, 2206.139
274.6125, 2211.839
275.0946, 2213.751
275.5767, 2214.085
276.0588, 2216.799
276.5410, 2222.164
277.0231, 2228.137
277.5052, 2233.971
277.9873, 2239.651
278.4694, 2244.260
278.9515, 2247.223
279.4337, 2250.167
279.9158, 2256.190
280.3979, 2265.694
280.8800, 2273.644
281.3621, 2277.669
281.8442, 2278.224
282.3264, 2279.170
282.8085, 2280.578
283.2906, 2282.305
283.7727, 2283.895
284.2548, 2285.368
284.7369, 2288.164
285.2191, 2293.201
285.7012, 2299.851
286.1833, 2305.601
286.6654, 2310.353
287.1475, 2314.943
287.6296, 2320.007
288.1118, 2325.540
288.5939, 2331.625
289.0760, 2339.048
289.5581, 2346.409
290.0402, 2349.769
290.5223, 2349.009
291.0045, 2347.538
291.4866, 2347.541
291.9687, 2348.958
292.4508, 2351.805
292.9329, 2356.677
293.4150, 2362.096
293.8972, 2365.724
294.3793, 2367.656
294.8614, 2368.781
295.3435, 2369.177
295.8256, 2369.221
296.3077, 2369.927
296.7899, 2371.452
297.2720, 2373.616
297.7541, 2376.712
298.2362, 2380.426
298.7183, 2383.398
299.2004, 2384.555
299.6826, 2384.490
300.1647, 2383.982
300.6468, 2382.901
301.1289, 2382.375
301.6110, 2384.469
302.0931, 2388.122
302.5753, 2390.632
303.0574, 2389.572
303.5395, 2387.133
304.0216, 2386.349
304.5037, 2387.318
304.9858, 2388.429
305.4680, 2388.587
305.9501, 2387.962
306.4322, 2386.820
306.9143, 2384.607
307.3964, 2382.451
307.8785, 2381.676
308.3607, 2382.158
308.8428, 2382.477
309.3249, 2382.003
309.8070, 2380.741
310.2891, 2378.502
310.7712, 2373.677
311.2534, 2369.778
311.7355, 2370.481
312.2176, 2374.517
312.6997, 2377.218
313.1818, 2374.448
313.6639, 2370.169
314.1461, 2367.554
314.6282, 2367.667
315.1103, 2368.607
315.5924, 2370.625
316.0745, 2372.781
316.5566, 2373.128
317.0388, 2368.179
317.5209, 2363.194
318.0030, 2361.898
318.4851, 2366.073
318.9672, 2368.438
319.4493, 2365.091
319.9315, 2358.906
320.4136, 2353.635
320.8957, 2349.375
321.3778, 2347.136
321.8599, 2348.354
322.3420, 2353.513
322.8242, 2356.697
323.3063, 2355.143
323.7884, 2351.808
324.2705, 2349.274
324.7526, 2347.877
325.2347, 2347.359
325.7169, 2347.751
326.1990, 2349.025
326.6811, 2350.954
327.1632, 2355.661
327.6453, 2359.564
328.1274, 2360.671
328.6096, 2356.626
329.0917, 2352.625
329.5738, 2348.254
330.0559, 2343.984
330.5380, 2341.397
331.0201, 2342.669
331.5023, 2343.257
331.9844, 2340.761
332.4665, 2332.104
332.9486, 2328.259
333.4307, 2332.129
333.9128, 2339.313
334.3950, 2341.979
334.8771, 2337.567
335.3592, 2333.468
335.8413, 2332.050
336.3234, 2333.574
336.8055, 2335.074
337.2877, 2336.780
337.7698, 2338.102
338.2519, 2337.969
338.7340, 2335.627
339.2161, 2334.866
339.6982, 2337.026
340.1803, 2341.526
340.6624, 2344.543
341.1446, 2345.842
341.6267, 2346.581
342.1088, 2347.677
342.5909, 2349.145
343.0730, 2350.485
343.5551, 2351.740
344.0373, 2352.676
344.5194, 2352.113
345.0015, 2349.921
345.4836, 2348.802
345.9657, 2351.166
346.4478, 2356.278
346.9300, 2360.391
347.4121, 2363.462
347.8942, 2365.048
348.3763, 2363.505
348.8584, 2359.465
349.3405, 2356.537
349.8227, 2357.350
350.3048, 2360.228
350.7869, 2361.388
351.2690, 2360.813
351.7511, 2360.283
352.2332, 2361.989
352.7154, 2364.955
353.1975, 2367.009
353.6796, 2366.916
354.1617, 2366.148
354.6438, 2366.392
355.1259, 2367.443
355.6081, 2368.348
356.0902, 2368.384
356.5723, 2367.905
357.0544, 2367.268
357.5365, 2366.439
358.0186, 2365.591
358.5008, 2364.102
358.9829, 2362.646
359.4650, 2362.696
359.9471, 2367.403
360.4292, 2372.044
360.9113, 2373.099
361.3935, 2369.723
361.8756, 2366.692
362.3577, 2365.717
362.8398, 2366.269
363.3219, 2367.742
363.8040, 2372.099
364.2862, 2375.363
364.7683, 2376.042
365.2504, 2374.222
365.7325, 2371.832
366.2146, 2369.060
366.6967, 2365.986
367.1789, 2362.661
367.6610, 2357.096
368.1431, 2353.664
368.6252, 2355.134
369.1073, 2359.268
369.5894, 2358.944
370.0716, 2349.414
370.5537, 2340.290
371.0358, 2334.938
371.5179, 2334.441
372.0000, 2334.570
372.4821, 2336.553
372.9643, 2338.285
373.4464, 2336.710
373.9285, 2330.458
374.4106, 2323.622
374.8927, 2316.400
375.3748, 2308.868
375.8570, 2304.981
376.3391, 2306.242
376.8212, 2307.856
377.3033, 2305.309
377.7854, 2297.913
378.2675, 2291.501
378.7497, 2286.885
379.2318, 2283.640
379.7139, 2280.911
380.1960, 2278.823
380.6781, 2276.262
381.1602, 2271.628
381.6424, 2265.596
382.1245, 2263.106
382.6066, 2265.062
383.0887, 2267.731
383.5708, 2265.257
384.0529, 2258.879
384.5351, 2254.471
385.0172, 2255.692
385.4993, 2259.784
385.9814, 2262.149
386.4635, 2262.810
386.9456, 2262.828
387.4278, 2261.986
387.9099, 2261.271
388.3920, 2262.487
388.8741, 2266.856
389.3562, 2271.890
389.8383, 2275.339
390.3205, 2277.699
390.8026, 2280.301
391.2847, 2284.491
391.7668, 2288.754
392.2489, 2291.735
392.7310, 2292.972
393.2132, 2294.469
393.6953, 2297.719
394.1774, 2301.598
394.6595, 2304.773
395.1416, 2306.478
395.6237, 2307.744
396.1059, 2308.523
396.5880, 2308.925
397.0701, 2310.243
397.5522, 2313.722
398.0343, 2317.556
398.5164, 2320.696
398.9986, 2323.701
399.4807, 2325.179
399.9628, 2323.825
400.4449, 2321.035
400.9270, 2320.026
401.4091, 2321.652
401.8913, 2324.031
402.3734, 2327.198
402.8555, 2331.890
403.3376, 2332.774
403.8197, 2327.675
404.3018, 2321.282
404.7840, 2319.181
405.2661, 2323.072
405.7482, 2325.199
406.2303, 2323.781
406.7124, 2319.526
407.1945, 2315.309
407.6767, 2311.129
408.1588, 2306.851
408.6409, 2302.929
409.1230, 2299.198
409.6051, 2292.729
410.0872, 2282.571
410.5694, 2271.563
411.0515, 2264.557
411.5336, 2260.949
412.0157, 2257.159
412.4978, 2251.988
412.9799, 2245.492
413.4621, 2237.671
413.9442, 2228.492
414.4263, 2218.375
414.9084, 2206.728
415.3905, 2194.540
415.8727, 2183.244
416.3548, 2173.507
416.8369, 2164.267
417.3190, 2154.526
417.8011, 2144.569
418.2832, 2134.960
418.7654, 2126.641
419.2475, 2118.372
419.7296, 2109.663
420.2117, 2100.492
420.6938, 2089.936
421.1759, 2075.360
421.6581, 2060.129
422.1402, 2047.641
422.6223, 2042.992
423.1044, 2036.763
423.5865, 2025.436
424.0686, 2009.855
424.5508, 1996.331
425.0329, 1987.003
425.5150, 1978.715
425.9971, 1969.990
426.4792, 1959.848
426.9613, 1951.480
427.4435, 1946.031
427.9256, 1941.817
428.4077, 1936.074
428.8898, 1927.918
429.3719, 1920.087
429.8540, 1913.432
430.3362, 1907.860
430.8183, 1901.359
431.3004, 1893.617
431.7825, 1885.942
432.2646, 1879.589
432.7467, 1874.583
433.2289, 1869.136
433.7110, 1862.804
434.1931, 1856.445
434.6752, 1851.932
435.1573, 1849.111
435.6394, 1846.397
436.1216, 1843.118
436.6036, 1839.309
437.0858, 1834.882
437.5679, 1829.789
438.0500, 1824.913
438.5321, 1821.489
439.0142, 1818.729
439.4963, 1815.145
439.9785, 1809.289
440.4606, 1803.885
440.9427, 1802.413
441.4248, 1803.461
441.9069, 1802.834
442.3890, 1796.978
442.8712, 1789.916
443.3533, 1784.288
443.8354, 1780.685
444.3175, 1777.097
444.7996, 1772.627
445.2817, 1767.966
445.7639, 1763.798
446.2460, 1759.985
446.7281, 1756.896
447.2102, 1755.041
447.6923, 1754.161
448.1744, 1752.614
448.6566, 1749.524
449.1387, 1746.609
449.6208, 1744.706
450.1029, 1744.268
450.5850, 1743.330
451.0671, 1741.598
451.5493, 1739.673
452.0314, 1738.547
452.5135, 1738.492
452.9956, 1738.162
453.4777, 1737.257
453.9598, 1735.825
454.4420, 1733.999
454.9241, 1731.808
455.4062, 1729.193
455.8883, 1725.604
456.3704, 1721.436
456.8525, 1718.658
457.3347, 1717.697
457.8168, 1717.537
458.2989, 1716.717
458.7810, 1715.651
459.2631, 1715.572
459.7452, 1718.215
460.2274, 1721.420
460.7095, 1722.398
461.1916, 1721.464
461.6737, 1720.875
462.1558, 1722.385
462.6379, 1724.668
463.1201, 1726.490
463.6022, 1727.423
464.0843, 1728.327
464.5664, 1729.202
465.0485, 1730.316
465.5306, 1732.101
466.0128, 1736.376
466.4949, 1739.609
466.9770, 1740.239
467.4591, 1738.138
467.9412, 1736.718
468.4233, 1735.859
468.9055, 1735.880
469.3876, 1737.100
469.8697, 1740.408
470.3518, 1743.016
470.8339, 1744.737
471.3160, 1745.887
471.7982, 1746.953
472.2803, 1747.852
472.7624, 1749.071
473.2445, 1750.817
473.7266, 1753.014
474.2087, 1755.528
474.6909, 1758.475
475.1730, 1760.548
475.6551, 1759.840
476.1372, 1757.078
476.6193, 1755.271
477.1014, 1754.816
477.5836, 1755.546
478.0657, 1758.061
478.5478, 1761.720
479.0299, 1764.650
479.5120, 1766.220
479.9941, 1766.535
480.4763, 1765.061
480.9584, 1762.022
481.4405, 1759.480
481.9226, 1758.557
482.4047, 1758.630
482.8868, 1759.262
483.3690, 1760.575
483.8511, 1762.017
484.3332, 1763.717
484.8153, 1765.396
485.2974, 1766.633
485.7795, 1767.488
486.2617, 1767.729
486.7438, 1766.652
487.2259, 1764.320
487.7080, 1764.224
488.1901, 1767.605
488.6722, 1771.618
489.1544, 1774.358
489.6365, 1775.048
490.1186, 1777.734
490.6007, 1783.431
491.0828, 1789.859
491.5649, 1793.148
492.0471, 1793.117
492.5292, 1793.313
493.0113, 1794.829
493.4934, 1797.360
493.9755, 1800.098
494.4576, 1803.022
494.9398, 1806.578
495.4219, 1811.786
495.9040, 1817.669
496.3861, 1822.162
496.8682, 1824.937
497.3503, 1827.163
497.8325, 1829.478
498.3146, 1831.991
498.7967, 1834.920
499.2788, 1839.822
499.7609, 1843.802
500.2430, 1844.481
500.7252, 1842.734
501.2073, 1842.389
501.6894, 1845.781
502.1715, 1849.930
502.6536, 1853.547
503.1357, 1856.452
503.6179, 1859.000
504.1000, 1860.478
504.5821, 1862.087
505.0642, 1865.195
505.5463, 1870.898
506.0284, 1875.582
506.5106, 1878.571
506.9927, 1880.159
507.4748, 1880.911
507.9569, 1880.400
508.4390, 1880.980
508.9211, 1884.782
509.4033, 1891.179
509.8854, 1894.620
510.3675, 1894.820
510.8496, 1894.421
511.3317, 1896.251
511.8138, 1899.574
512.2960, 1902.307
512.7781, 1903.828
513.2602, 1905.062
513.7423, 1907.666
514.2244, 1910.804
514.7065, 1912.426
515.1887, 1910.281
515.6708, 1907.300
516.1529, 1905.334
516.6350, 1904.438
517.1171, 1903.745
517.5992, 1902.483
518.0814, 1901.656
518.5635, 1902.094
519.0456, 1906.158
519.5277, 1907.702
520.0098, 1904.588
520.4919, 1899.608
520.9741, 1896.884
521.4562, 1897.233
521.9383, 1898.295
522.4204, 1899.941
522.9025, 1901.914
523.3846, 1902.518
523.8668, 1901.538
524.3489, 1899.996
524.8310, 1898.378
525.3131, 1896.681
525.7952, 1894.910
526.2773, 1892.991
526.7595, 1891.351
527.2416, 1890.973
527.7237, 1891.297
528.2058, 1890.805
528.6879, 1888.651
529.1700, 1886.120
529.6522, 1884.112
530.1343, 1882.736
530.6164, 1882.209
531.0985, 1883.097
531.5806, 1884.555
532.0627, 1886.191
532.5449, 1887.988
533.0270, 1889.692
533.5091, 1891.882
533.9912, 1893.526
534.4733, 1893.836
534.9554, 1891.311
535.4376, 1889.393
535.9197, 1887.880
536.4018, 1887.039
536.8839, 1887.465
537.3660, 1889.429
537.8481, 1891.937
538.3303, 1895.078
538.8124, 1898.544
539.2945, 1900.676
539.7766, 1901.377
540.2587, 1901.593
540.7408, 1902.131
541.2230, 1902.758
541.7051, 1902.432
542.1872, 1901.028
542.6693, 1899.301
543.1514, 1897.280
543.6335, 1895.603
544.1157, 1895.584
544.5978, 1899.321
545.0799, 1902.451
545.5620, 1900.594
546.0441, 1895.706
546.5262, 1892.614
547.0084, 1895.101
547.4905, 1897.962
547.9726, 1898.625
548.4547, 1896.691
548.9368, 1896.001
549.4189, 1897.757
549.9011, 1900.098
550.3832, 1902.035
550.8653, 1903.596
551.3474, 1904.632
551.8295, 1905.184
552.3116, 1905.102
552.7938, 1904.008
553.2759, 1901.803
553.7580, 1899.520
554.2401, 1897.520
554.7222, 1895.549
555.2043, 1892.957
555.6865, 1889.797
556.1686, 1886.324
556.6507, 1882.300
557.1328, 1878.263
557.6149, 1875.272
558.0970, 1873.415
558.5792, 1871.148
559.0613, 1867.189
559.5434, 1862.426
560.0255, 1857.613
560.5076, 1852.271
560.9897, 1848.223
561.4719, 1847.745
561.9540, 1848.607
562.4361, 1847.106
562.9182, 1840.557
563.4003, 1834.013
563.8824, 1827.903
564.3646, 1822.380
564.8467, 1818.432
565.3288, 1816.617
565.8109, 1815.142
566.2930, 1813.028
566.7751, 1810.237
567.2573, 1807.577
567.7394, 1804.965
568.2215, 1802.692
568.7036, 1801.369
569.1857, 1800.682
569.6678, 1799.292
570.1500, 1796.666
570.6321, 1793.939
571.1142, 1792.572
571.5963, 1792.141
572.0784, 1791.687
572.5605, 1790.794
573.0427, 1789.767
573.5248, 1788.964
574.0069, 1788.304
574.4890, 1787.100
574.9711, 1784.238
575.4532, 1781.576
575.9354, 1779.953
576.4175, 1779.332
576.8996, 1780.198
577.3817, 1783.823
577.8638, 1787.675
578.3459, 1789.266
578.8281, 1787.810
579.3102, 1787.098
579.7923, 1787.495
580.2744, 1788.836
580.7565, 1791.284
581.2386, 1794.730
581.7208, 1797.387
582.2029, 1798.020
582.6850, 1797.842
583.1671, 1799.421
583.6492, 1802.438
584.1313, 1804.983
584.6134, 1804.387
585.0955, 1803.693
585.5776, 1806.056
586.0598, 1812.051
586.5419, 1818.621
587.0240, 1825.918
587.5061, 1832.488
587.9882, 1837.066
588.4703, 1836.035
588.9525, 1837.853
589.4346, 1844.961
589.9167, 1854.126
590.3988, 1860.012
590.8809, 1861.383
591.3630, 1862.326
591.8452, 1863.262
592.3273, 1864.575
592.8094, 1867.997
593.2915, 1873.592
593.7736, 1879.972
594.2557, 1887.517
594.7379, 1895.090
595.2200, 1899.189
595.7021, 1899.731
596.1842, 1900.100
596.6663, 1903.516
597.1484, 1908.094
597.6306, 1911.496
598.1127, 1912.890
598.5948, 1914.044
599.0769, 1915.892
599.5590, 1917.953
600.0411, 1919.627
600.5233, 1920.464
601.0054, 1921.296
601.4875, 1922.397
601.9696, 1923.603
602.4517, 1924.395
602.9338, 1924.709
603.4160, 1924.795
603.8981, 1924.875
604.3802, 1924.864
604.8623, 1923.457
605.3444, 1920.384
605.8265, 1917.947
606.3087, 1918.411
606.7908, 1920.838
607.2729, 1923.044
607.7550, 1924.968
608.2371, 1925.326
608.7192, 1921.403
609.2014, 1915.714
609.6835, 1911.868
610.1656, 1912.553
610.6477, 1912.561
611.1298, 1908.120
611.6119, 1901.724
612.0941, 1897.754
612.5762, 1901.288
613.0583, 1902.550
613.5404, 1898.318
614.0225, 1889.907
614.5046, 1884.176
614.9868, 1882.239
615.4689, 1880.540
615.9510, 1877.144
616.4331, 1872.206
616.9152, 1869.007
617.3973, 1867.723
617.8795, 1866.648
618.3616, 1864.668
618.8437, 1861.749
619.3258, 1857.626
619.8079, 1852.074
620.2900, 1846.239
620.7722, 1840.295
621.2543, 1834.918
621.7364, 1831.153
622.2185, 1830.488
622.7006, 1830.003
623.1827, 1829.062
623.6649, 1827.598
624.1470, 1825.416
624.6291, 1821.765
625.1112, 1818.274
625.5933, 1815.484
626.0754, 1813.208
626.5576, 1810.148
627.0397, 1806.091
627.5218, 1801.868
628.0039, 1797.436
628.4860, 1792.997
628.9681, 1790.640
629.4503, 1790.465
629.9324, 1791.016
630.4145, 1791.695
630.8966, 1792.046
631.3787, 1791.083
631.8608, 1788.403
632.3430, 1785.533
632.8251, 1783.569
633.3072, 1782.023
633.7893, 1780.262
634.2714, 1776.962
634.7535, 1774.798
635.2357, 1774.833
635.7178, 1776.310
636.1999, 1777.534
636.6820, 1778.448
637.1641, 1779.250
637.6462, 1780.544
638.1284, 1781.726
638.6105, 1779.690
639.0926, 1774.336
639.5747, 1766.486
640.0568, 1756.318
640.5389, 1744.031
641.0211, 1729.756
641.5032, 1713.623
641.9853, 1698.050
642.4674, 1684.099
642.9495, 1672.364
643.4316, 1664.308
643.9138, 1661.338
644.3959, 1657.470
644.8780, 1649.795
645.3601, 1640.269
645.8422, 1630.971
646.3243, 1620.004
646.8065, 1612.239
647.2886, 1609.147
647.7707, 1608.578
648.2528, 1606.779
648.7349, 1603.624
649.2170, 1599.620
649.6992, 1594.367
650.1813, 1588.726
650.6634, 1584.997
651.1455, 1583.049
651.6276, 1581.416
652.1097, 1578.673
652.5919, 1576.104
653.0740, 1575.905
653.5561, 1577.770
654.0382, 1579.126
654.5203, 1578.096
655.0024, 1576.375
655.4846, 1574.809
655.9667, 1573.294
656.4488, 1572.976
656.9309, 1574.883
657.4130, 1577.328
657.8951, 1579.058
658.3773, 1579.262
658.8594, 1581.227
659.3415, 1585.443
659.8236, 1590.728
660.3057, 1595.879
660.7878, 1600.800
661.2700, 1604.830
661.7521, 1607.700
662.2342, 1609.889
662.7163, 1611.071
663.1984, 1612.076
663.6805, 1614.982
664.1627, 1622.780
664.6448, 1630.841
665.1269, 1636.096
665.6090, 1639.290
666.0911, 1643.200
666.5732, 1649.340
667.0554, 1655.491
667.5375, 1660.715
668.0196, 1665.053
668.5017, 1670.372
668.9838, 1676.837
669.4659, 1683.911
669.9481, 1691.806
670.4302, 1700.312
670.9123, 1706.851
671.3944, 1711.242
671.8765, 1715.208
672.3586, 1719.251
672.8408, 1724.206
673.3229, 1732.164
673.8050, 1744.102
674.2871, 1755.953
674.7692, 1764.835
675.2513, 1772.172
675.7335, 1779.530
676.2156, 1785.734
676.6977, 1793.840
677.1798, 1805.559
677.6619, 1818.899
678.1440, 1830.747
678.6262, 1839.689
679.1083, 1851.209
679.5904, 1867.221
680.0725, 1885.853
680.5546, 1903.547
681.0367, 1920.359
681.5189, 1936.226
682.0010, 1949.913
682.4831, 1963.537
682.9652, 1981.475
683.4473, 2002.637
683.9294, 2023.520
684.4116, 2039.127
684.8937, 2055.933
685.3758, 2079.983
685.8579, 2111.792
686.3400, 2139.735
686.8221, 2156.501
687.3043, 2173.410
687.7864, 2195.934
688.2685, 2225.217
688.7506, 2253.659
689.2327, 2281.027
689.7148, 2308.935
690.1970, 2339.157
690.6791, 2371.604
691.1612, 2404.211
691.6433, 2436.481
692.1254, 2468.572
692.6075, 2501.902
693.0897, 2535.014
693.5718, 2565.781
694.0539, 2593.129
694.5360, 2618.860
695.0181, 2645.407
695.5002, 2670.552
695.9824, 2691.472
696.4645, 2710.706
696.9466, 2721.519
697.4287, 2721.372
697.9108, 2713.090
698.3929, 2704.233
698.8751, 2695.514
699.3572, 2681.120
699.8393, 2658.543
700.3214, 2629.379
700.8035, 2596.857
701.2856, 2561.037
701.7678, 2522.331
702.2499, 2478.606
702.7320, 2433.634
703.2141, 2390.431
703.6962, 2348.885
704.1783, 2308.800
704.6605, 2270.042
705.1426, 2232.739
705.6247, 2197.134
706.1068, 2163.218
706.5889, 2129.906
707.0710, 2096.847
707.5532, 2065.486
708.0353, 2036.629
708.5174, 2010.286
708.9995, 1985.490
709.4816, 1962.214
709.9637, 1940.020
710.4459, 1917.921
710.9280, 1896.619
711.4101, 1878.075
711.8922, 1862.760
712.3743, 1848.918
712.8564, 1835.687
713.3386, 1823.283
713.8207, 1811.684
714.3028, 1800.043
714.7849, 1790.758
715.2670, 1784.648
715.7491, 1780.330
716.2313, 1775.840
716.7134, 1770.836
717.1955, 1767.252
717.6776, 1765.774
718.1597, 1765.160
718.6418, 1762.478
719.1240, 1758.358
719.6061, 1755.885
720.0882, 1756.603
720.5703, 1758.982
721.0524, 1762.269
721.5345, 1766.006
722.0167, 1769.098
722.4988, 1768.930
722.9809, 1770.365
723.4630, 1776.359
723.9451, 1785.857
724.4272, 1793.358
724.9094, 1797.858
725.3915, 1802.275
725.8736, 1807.544
726.3557, 1813.559
726.8378, 1819.860
727.3199, 1826.508
727.8021, 1833.617
728.2842, 1841.199
728.7663, 1849.335
729.2484, 1858.179
729.7305, 1867.602
730.2126, 1877.176
730.6948, 1885.624
731.1769, 1894.846
731.6590, 1906.801
732.1411, 1922.461
732.6232, 1935.069
733.1053, 1942.053
733.5875, 1948.428
734.0696, 1957.293
734.5517, 1969.184
735.0338, 1979.981
735.5159, 1989.948
735.9980, 1998.177
736.4802, 2002.287
736.9623, 2004.138
737.4444, 2009.271
737.9265, 2018.847
738.4086, 2028.297
738.8907, 2034.422
739.3729, 2038.451
739.8550, 2041.447
740.3371, 2042.708
740.8192, 2044.886
741.3013, 2048.512
741.7834, 2053.161
742.2656, 2058.819
742.7477, 2066.344
743.2298, 2071.560
743.7119, 2073.404
744.1940, 2073.976
744.6761, 2076.452
745.1583, 2080.466
745.6404, 2084.407
746.1225, 2088.263
746.6046, 2090.948
747.0867, 2090.979
747.5688, 2089.200
748.0510, 2087.052
748.5331, 2084.870
749.0152, 2082.580
749.4973, 2079.956
749.9794, 2077.287
750.4615, 2075.240
750.9437, 2074.308
751.4258, 2072.806
751.9079, 2070.167
752.3900, 2066.935
752.8721, 2064.562
753.3542, 2062.953
753.8364, 2060.861
754.3185, 2057.530
754.8006, 2053.681
755.2827, 2051.041
755.7648, 2048.687
756.2469, 2044.059
756.7291, 2033.195
757.2112, 2022.775
757.6933, 2015.677
758.1754, 2011.490
758.6575, 2006.932
759.1396, 2001.747
759.6218, 1996.803
760.1039, 1992.646
760.5860, 1988.933
761.0681, 1983.384
761.5502, 1976.083
762.0323, 1968.936
762.5145, 1962.840
762.9966, 1957.626
763.4787, 1953.588
763.9608, 1950.448
764.4429, 1946.525
764.9250, 1940.022
765.4072, 1933.431
765.8893, 1927.664
766.3714, 1922.754
766.8535, 1920.140
767.3356, 1921.589
767.8177, 1922.111
768.2999, 1918.710
768.7820, 1911.867
769.2641, 1906.618
769.7462, 1902.992
770.2283, 1899.945
770.7104, 1896.322
771.1926, 1892.973
771.6747, 1891.499
772.1568, 1891.924
772.6389, 1892.025
773.1210, 1890.319
773.6031, 1888.305
774.0853, 1886.957
774.5674, 1886.492
775.0495, 1885.959
775.5316, 1885.744
776.0137, 1884.869
776.4958, 1881.737
776.9780, 1876.618
777.4601, 1876.080
777.9422, 1880.497
778.4243, 1884.829
778.9064, 1883.986
779.3885, 1880.898
779.8707, 1879.525
780.3528, 1880.430
780.8349, 1881.500
781.3170, 1881.966
781.7991, 1882.092
782.2812, 1881.883
782.7633, 1880.950
783.2454, 1881.157
783.7275, 1882.832
784.2097, 1884.974
784.6918, 1886.863
785.1739, 1888.490
785.6560, 1889.916
786.1381, 1891.148
786.6202, 1892.275
787.1024, 1893.242
787.5845, 1894.236
788.0666, 1895.324
788.5487, 1896.379
789.0308, 1898.344
789.5129, 1902.518
789.9951, 1907.103
790.4772, 1910.612
790.9593, 1912.612
791.4414, 1914.665
791.9235, 1916.492
792.4056, 1919.007
792.8878, 1923.843
793.3699, 1930.363
793.8520, 1934.948
794.3341, 1937.055
794.8162, 1939.289
795.2983, 1944.811
795.7805, 1951.317
796.2626, 1956.300
796.7447, 1958.981
797.2268, 1961.034
797.7089, 1961.802
798.1910, 1962.947
798.6732, 1965.841
799.1553, 1971.156
799.6374, 1975.707
800.1195, 1979.057
800.6016, 1982.885
801.0837, 1990.396
801.5659, 1999.896
802.0480, 2005.668
802.5301, 2006.454
803.0122, 2006.840
803.4943, 2009.616
803.9764, 2014.019
804.4586, 2019.525
804.9407, 2026.903
805.4228, 2033.114
805.9049, 2037.203
806.3870, 2040.764
806.8691, 2045.260
807.3513, 2050.827
807.8334, 2055.783
808.3155, 2059.963
808.7976, 2063.868
809.2797, 2068.849
809.7618, 2073.740
810.2440, 2075.457
810.7261, 2072.905
811.2082, 2071.620
811.6903, 2075.653
812.1724, 2081.755
812.6545, 2087.150
813.1367, 2091.381
813.6188, 2095.310
814.1009, 2098.329
814.5830, 2101.977
815.0651, 2108.578
815.5472, 2117.769
816.0294, 2123.244
816.5115, 2124.229
816.9936, 2125.242
817.4757, 2131.257
817.9578, 2139.370
818.4399, 2145.961
818.9221, 2150.173
819.4042, 2154.345
819.8863, 2158.445
820.3684, 2163.471
820.8505, 2170.501
821.3326, 2180.705
821.8148, 2187.675
822.2969, 2190.500
822.7790, 2192.895
823.2611, 2198.656
823.7432, 2206.507
824.2253, 2212.134
824.7075, 2215.116
825.1896, 2217.841
825.6717, 2221.382
826.1538, 2225.815
826.6359, 2231.604
827.1180, 2239.180
827.6002, 2245.521
828.0823, 2249.298
828.5644, 2253.090
829.0465, 2258.410
829.5286, 2265.254
830.0107, 2272.599
830.4929, 2280.532
830.9750, 2287.764
831.4571, 2292.107
831.9392, 2295.598
832.4213, 2301.841
832.9034, 2310.851
833.3856, 2318.995
833.8677, 2322.065
834.3498, 2325.766
834.8319, 2334.309
835.3140, 2347.912
835.7961, 2359.195
836.2783, 2367.408
836.7604, 2375.295
837.2425, 2384.629
837.7246, 2394.852
838.2067, 2403.263
838.6888, 2410.120
839.1710, 2417.475
839.6531, 2427.431
840.1352, 2437.864
840.6173, 2447.204
841.0994, 2455.392
841.5815, 2462.434
842.0637, 2467.408
842.5458, 2472.399
843.0279, 2478.228
843.5100, 2484.628
843.9921, 2489.871
844.4742, 2493.890
844.9564, 2497.752
845.4385, 2501.731
845.9206, 2506.128
846.4027, 2512.107
846.8848, 2519.070
847.3669, 2524.845
847.8491, 2527.116
848.3312, 2529.519
848.8133, 2534.161
849.2954, 2540.218
849.7775, 2544.527
850.2596, 2546.166
850.7418, 2549.141
851.2239, 2554.870
851.7060, 2562.179
852.1881, 2568.106
852.6702, 2573.140
853.1523, 2579.229
853.6345, 2588.733
854.1166, 2597.494
854.5987, 2601.699
855.0808, 2603.222
855.5629, 2605.836
856.0450, 2611.772
856.5272, 2616.445
857.0093, 2619.334
857.4914, 2620.819
857.9735, 2621.035
858.4556, 2620.133
858.9377, 2620.048
859.4199, 2621.180
859.9020, 2623.653
860.3841, 2629.218
860.8662, 2635.740
861.3483, 2639.918
861.8304, 2638.792
862.3126, 2639.161
862.7947, 2642.902
863.2768, 2648.698
863.7589, 2655.916
864.2410, 2665.164
864.7231, 2672.239
865.2053, 2676.517
865.6874, 2680.041
866.1695, 2685.732
866.6516, 2692.130
867.1337, 2695.863
867.6158, 2696.013
868.0980, 2696.838
868.5801, 2701.461
869.0622, 2707.063
869.5443, 2711.732
870.0264, 2715.704
870.5085, 2717.628
870.9907, 2716.953
871.4728, 2715.864
871.9549, 2715.897
872.4370, 2716.884
872.9191, 2717.940
873.4012, 2719.105
873.8834, 2720.909
874.3655, 2725.347
874.8476, 2729.246
875.3297, 2729.345
875.8118, 2725.599
876.2939, 2724.240
876.7761, 2727.083
877.2582, 2730.074
877.7403, 2731.943
878.2224, 2732.691
878.7045, 2732.220
879.1866, 2730.582
879.6688, 2728.541
880.1509, 2725.838
880.6330, 2723.484
881.1151, 2723.333
881.5972, 2724.420
882.0793, 2723.974
882.5615, 2720.141
883.0436, 2715.960
883.5257, 2712.228
884.0078, 2708.514
884.4899, 2703.542
884.9720, 2697.224
885.4542, 2691.644
885.9363, 2687.259
886.4184, 2684.013
886.9005, 2682.297
887.3826, 2681.517
887.8647, 2680.736
888.3469, 2680.325
888.8290, 2678.714
889.3111, 2675.639
889.7932, 2670.938
890.2753, 2663.670
890.7574, 2652.379
891.2396, 2645.534
891.7217, 2644.355
892.2038, 2644.352
892.6859, 2639.723
893.1680, 2632.921
893.6501, 2629.084
894.1323, 2629.083
894.6144, 2629.647
895.0965, 2629.763
895.5786, 2629.357
896.0607, 2628.225
896.5428, 2626.284
897.0250, 2624.806
897.5071, 2623.892
897.9892, 2623.231
898.4713, 2622.427
898.9534, 2621.767
899.4355, 2622.030
899.9177, 2623.183
900.3998, 2625.009
900.8819, 2627.145
901.3640, 2630.043
901.8461, 2634.431
902.3282, 2639.910
902.8104, 2644.283
903.2925, 2647.019
903.7746, 2649.564
904.2567, 2651.927
904.7388, 2654.738
905.2209, 2660.310
905.7031, 2667.857
906.1852, 2673.966
906.6673, 2675.644
907.1494, 2678.283
907.6315, 2685.810
908.1136, 2696.609
908.5958, 2708.289
909.0779, 2721.968
909.5600, 2734.095
910.0421, 2744.618
910.5242, 2753.368
911.0063, 2758.731
911.4885, 2761.807
911.9706, 2768.934
912.4527, 2781.317
912.9348, 2794.200
913.4169, 2802.466
913.8990, 2810.324
914.3812, 2822.344
914.8633, 2840.821
915.3454, 2855.026
915.8275, 2862.044
916.3096, 2869.156
916.7917, 2881.275
917.2739, 2897.414
917.7560, 2911.350
918.2381, 2923.136
918.7202, 2933.780
919.2023, 2942.688
919.6844, 2951.724
920.1666, 2963.250
920.6487, 2976.586
921.1308, 2987.849
921.6129, 2994.425
922.0950, 3002.595
922.5771, 3014.267
923.0593, 3027.992
923.5414, 3040.442
924.0235, 3051.589
924.5056, 3061.342
924.9877, 3068.249
925.4698, 3076.600
925.9520, 3092.486
926.4341, 3111.342
926.9162, 3126.617
927.3983, 3132.692
927.8804, 3141.500
928.3625, 3154.030
928.8447, 3167.850
929.3268, 3181.025
929.8089, 3193.307
930.2910, 3203.055
930.7731, 3210.030
931.2552, 3217.502
931.7374, 3229.756
932.2195, 3242.662
932.7016, 3252.734
933.1837, 3259.337
933.6658, 3265.297
934.1479, 3271.300
934.6301, 3276.027
935.1122, 3278.739
935.5943, 3279.795
936.0764, 3280.592
936.5585, 3281.141
937.0406, 3281.360
937.5228, 3282.175
938.0049, 3281.789
938.4870, 3278.405
938.9691, 3272.852
939.4512, 3267.094
939.9333, 3261.702
940.4155, 3255.452
940.8976, 3248.034
941.3797, 3239.899
941.8618, 3232.029
942.3439, 3224.153
942.8260, 3215.358
943.3082, 3205.296
943.7903, 3194.319
944.2724, 3181.370
944.7545, 3168.462
945.2366, 3157.772
945.7188, 3151.000
946.2009, 3141.036
946.6830, 3126.597
947.1651, 3111.751
947.6472, 3099.490
948.1293, 3089.137
948.6115, 3077.915
949.0936, 3065.827
949.5757, 3052.267
950.0578, 3035.880
950.5399, 3019.138
951.0220, 3002.358
951.5042, 2986.463
951.9863, 2974.817
952.4684, 2969.593
952.9505, 2963.036
953.4326, 2953.670
953.9147, 2941.697
954.3969, 2925.152
954.8790, 2906.187
955.3611, 2891.226
955.8432, 2884.137
956.3253, 2876.088
956.8074, 2860.467
957.2896, 2842.921
957.7717, 2829.021
958.2538, 2820.441
958.7359, 2809.267
959.2180, 2795.078
959.7001, 2780.181
960.1823, 2766.832
960.6644, 2753.844
961.1465, 2738.185
961.6286, 2720.207
962.1107, 2704.729
962.5928, 2697.784
963.0750, 2689.906
963.5571, 2675.861
964.0392, 2657.584
964.5213, 2643.124
965.0034, 2633.225
965.4855, 2620.598
965.9677, 2601.868
966.4498, 2581.762
966.9319, 2566.542
967.4140, 2554.943
967.8961, 2545.346
968.3782, 2539.682
968.8604, 2531.225
969.3425, 2517.009
969.8246, 2500.959
970.3067, 2485.663
970.7888, 2471.207
971.2709, 2457.512
971.7531, 2444.560
972.2352, 2433.230
972.7173, 2425.797
973.1994, 2419.156
973.6815, 2410.249
974.1636, 2399.047
974.6458, 2387.146
975.1279, 2371.902
975.6100, 2360.762
976.0921, 2357.612
976.5742, 2358.595
977.0563, 2352.673
977.5385, 2340.724
978.0206, 2328.194
978.5027, 2316.335
978.9848, 2305.794
979.4669, 2298.396
979.9490, 2292.055
980.4311, 2284.089
980.9132, 2274.034
981.3953, 2262.391
981.8774, 2248.134
982.3596, 2234.986
982.8417, 2227.868
983.3238, 2224.453
983.8059, 2217.268
984.2880, 2206.313
984.7701, 2196.608
985.2523, 2192.686
985.7344, 2189.127
986.2165, 2183.052
986.6986, 2174.843
987.1807, 2165.713
987.6628, 2155.328
988.1450, 2146.571
988.6271, 2140.814
989.1092, 2136.064
989.5913, 2129.441
990.0734, 2121.676
990.5555, 2114.118
991.0377, 2107.592
991.5198, 2100.562
992.0019, 2092.752
992.4840, 2084.350
992.9661, 2074.549
993.4482, 2063.164
993.9304, 2057.725
994.4125, 2058.433
994.8946, 2058.890
995.3767, 2053.784
995.8588, 2046.711
996.3409, 2040.529
996.8231, 2035.370
997.3052, 2030.821
997.7873, 2026.943
998.2694, 2023.276
998.7515, 2019.604
999.2336, 2016.192
999.7158, 2014.300
1000.198, 2013.282
1000.680, 2010.733
1001.162, 2005.880
1001.644, 1999.923
1002.126, 1992.648
1002.608, 1985.385
1003.091, 1979.318
1003.573, 1974.285
1004.055, 1971.326
1004.537, 1970.729
1005.019, 1970.762
1005.501, 1971.206
1005.983, 1971.040
1006.465, 1967.776
1006.948, 1962.193
1007.430, 1957.121
1007.912, 1953.973
1008.394, 1951.251
1008.876, 1948.473
1009.358, 1945.951
1009.840, 1944.489
1010.322, 1944.041
1010.804, 1942.871
1011.287, 1940.539
1011.769, 1938.267
1012.251, 1937.365
1012.733, 1936.994
1013.215, 1936.457
1013.697, 1935.722
1014.179, 1934.009
1014.661, 1930.435
1015.143, 1927.859
1015.626, 1928.192
1016.108, 1930.315
1016.590, 1931.031
1017.072, 1930.550
1017.554, 1929.657
1018.036, 1928.704
1018.518, 1927.433
1019.000, 1924.709
1019.483, 1922.136
1019.965, 1922.105
1020.447, 1925.213
1020.929, 1927.398
1021.411, 1928.290
1021.893, 1928.780
1022.375, 1930.248
1022.857, 1931.508
1023.339, 1930.895
1023.822, 1928.333
1024.304, 1925.374
1024.786, 1921.083
1025.268, 1918.476
1025.750, 1919.190
1026.232, 1921.692
1026.714, 1921.530
1027.196, 1919.206
1027.679, 1917.214
1028.161, 1916.529
1028.643, 1916.068
1029.125, 1915.450
1029.607, 1914.468
1030.089, 1912.720
1030.571, 1909.718
1031.053, 1907.759
1031.536, 1906.842
1032.018, 1906.778
1032.500, 1908.565
1032.982, 1910.471
1033.464, 1908.781
1033.946, 1904.416
1034.428, 1901.400
1034.910, 1902.512
1035.392, 1903.608
1035.875, 1904.318
1036.357, 1904.069
1036.839, 1901.367
1037.321, 1896.512
1037.803, 1892.396
1038.285, 1889.564
1038.767, 1886.750
1039.249, 1883.731
1039.731, 1879.702
1040.214, 1872.888
1040.696, 1862.986
1041.178, 1857.719
1041.660, 1858.631
1042.142, 1858.428
1042.624, 1853.385
1043.106, 1845.881
1043.588, 1839.578
1044.071, 1834.139
1044.553, 1828.777
1045.035, 1823.513
1045.517, 1817.781
1045.999, 1811.472
1046.481, 1804.682
1046.963, 1797.047
1047.445, 1788.729
1047.927, 1783.217
1048.410, 1780.528
1048.892, 1778.569
1049.374, 1776.992
1049.856, 1774.527
1050.338, 1769.988
1050.820, 1763.646
1051.302, 1757.030
1051.784, 1749.492
1052.266, 1744.192
1052.749, 1742.132
1053.231, 1741.486
1053.713, 1740.833
1054.195, 1739.451
1054.677, 1735.740
1055.159, 1728.967
1055.641, 1722.584
1056.123, 1716.946
1056.606, 1712.670
1057.088, 1710.523
1057.570, 1709.979
1058.052, 1708.525
1058.534, 1706.134
1059.016, 1702.465
1059.498, 1695.795
1059.980, 1689.890
1060.463, 1688.119
1060.945, 1688.092
1061.427, 1686.194
1061.909, 1681.405
1062.391, 1678.339
1062.873, 1677.290
1063.355, 1677.138
1063.837, 1677.979
1064.319, 1678.493
1064.802, 1676.311
1065.284, 1671.832
1065.766, 1667.929
1066.248, 1665.636
1066.730, 1663.584
1067.212, 1661.314
1067.694, 1659.411
1068.176, 1659.503
1068.658, 1660.958
1069.141, 1661.143
1069.623, 1659.315
1070.105, 1658.131
1070.587, 1660.902
1071.069, 1663.239
1071.551, 1661.432
1072.033, 1655.999
1072.515, 1654.669
1072.998, 1657.625
1073.480, 1659.646
1073.962, 1657.403
1074.444, 1654.728
1074.926, 1656.576
1075.408, 1660.477
1075.890, 1662.521
1076.372, 1660.495
1076.854, 1659.578
1077.337, 1660.169
1077.819, 1660.801
1078.301, 1659.589
1078.783, 1657.738
1079.265, 1658.585
1079.747, 1661.679
1080.229, 1664.326
1080.711, 1665.371
1081.193, 1665.691
1081.676, 1665.057
1082.158, 1664.313
1082.640, 1664.858
1083.122, 1666.611
1083.604, 1669.172
1084.086, 1672.570
1084.568, 1675.497
1085.050, 1676.668
1085.532, 1677.241
1086.015, 1678.663
1086.497, 1680.611
1086.979, 1678.933
1087.461, 1672.812
1087.943, 1668.815
1088.425, 1669.613
1088.907, 1672.412
1089.389, 1674.250
1089.872, 1675.466
1090.354, 1676.532
1090.836, 1677.565
1091.318, 1678.331
1091.800, 1678.519
1092.282, 1679.094
1092.764, 1681.188
1093.246, 1683.908
1093.729, 1683.498
1094.211, 1681.128
1094.693, 1681.169
1095.175, 1688.098
1095.657, 1694.333
1096.139, 1697.401
1096.621, 1699.150
1097.103, 1701.475
1097.585, 1704.353
1098.068, 1706.580
1098.550, 1708.123
1099.032, 1710.788
1099.514, 1716.298
1099.996, 1723.002
1100.478, 1731.033
1100.960, 1739.417
1101.442, 1744.452
1101.924, 1745.436
1102.407, 1747.394
1102.889, 1751.290
1103.371, 1756.340
1103.853, 1762.577
1104.335, 1768.950
1104.817, 1774.428
1105.299, 1778.863
1105.781, 1781.982
1106.264, 1783.600
1106.746, 1784.230
1107.228, 1783.242
1107.710, 1782.432
1108.192, 1787.273
1108.674, 1794.919
1109.156, 1798.737
1109.638, 1794.938
1110.120, 1791.578
1110.603, 1791.027
1111.085, 1791.126
1111.567, 1791.031
1112.049, 1790.536
1112.531, 1787.387
1113.013, 1782.079
1113.495, 1777.489
1113.977, 1776.462
1114.459, 1774.963
1114.942, 1770.740
1115.424, 1765.105
1115.906, 1759.535
1116.388, 1753.917
1116.870, 1749.945
1117.352, 1747.757
1117.834, 1746.059
1118.316, 1743.242
1118.799, 1741.003
1119.281, 1741.866
1119.763, 1744.696
1120.245, 1744.428
1120.727, 1739.875
1121.209, 1736.255
1121.691, 1734.614
1122.173, 1733.293
1122.656, 1729.725
1123.138, 1725.580
1123.620, 1723.343
1124.102, 1723.342
1124.584, 1723.004
1125.066, 1722.587
1125.548, 1720.351
1126.030, 1714.673
1126.512, 1708.455
1126.995, 1708.488
1127.477, 1712.430
1127.959, 1714.827
1128.441, 1714.121
1128.923, 1712.834
1129.405, 1711.348
1129.887, 1709.937
1130.369, 1708.748
1130.851, 1707.743
1131.334, 1706.469
1131.816, 1705.102
1132.298, 1704.540
1132.780, 1705.958
1133.262, 1706.949
1133.744, 1705.879
1134.226, 1704.191
1134.708, 1703.172
1135.191, 1702.842
1135.673, 1702.858
1136.155, 1703.201
1136.637, 1703.345
1137.119, 1703.318
1137.601, 1702.645
1138.083, 1700.035
1138.565, 1696.885
1139.047, 1696.416
1139.530, 1699.612
1140.012, 1699.915
1140.494, 1696.508
1140.976, 1693.258
1141.458, 1694.813
1141.940, 1697.377
1142.422, 1696.675
1142.904, 1693.203
1143.386, 1691.010
1143.869, 1690.630
1144.351, 1690.331
1144.833, 1689.569
1145.315, 1689.533
1145.797, 1693.291
1146.279, 1697.958
1146.761, 1699.205
1147.243, 1696.464
1147.726, 1693.046
1148.208, 1688.174
1148.690, 1685.584
1149.172, 1687.256
1149.654, 1690.440
1150.136, 1689.795
1150.618, 1686.679
1151.100, 1683.559
1151.583, 1680.702
1152.065, 1679.256
1152.547, 1680.102
1153.029, 1681.588
1153.511, 1683.498
1153.993, 1685.189
1154.475, 1683.683
1154.957, 1680.093
1155.439, 1678.334
1155.922, 1681.303
1156.404, 1683.196
1156.886, 1680.992
1157.368, 1677.821
1157.850, 1675.252
1158.332, 1673.400
1158.814, 1673.543
1159.296, 1675.475
1159.778, 1677.833
1160.261, 1681.482
1160.743, 1683.521
1161.225, 1680.342
1161.707, 1676.304
1162.189, 1676.394
1162.671, 1680.724
1163.153, 1683.299
1163.635, 1683.977
1164.118, 1683.809
1164.600, 1682.854
1165.082, 1681.949
1165.564, 1681.441
1166.046, 1681.467
1166.528, 1682.534
1167.010, 1684.917
1167.492, 1685.618
1167.974, 1684.318
1168.457, 1682.544
1168.939, 1681.640
1169.421, 1680.707
1169.903, 1678.499
1170.385, 1677.907
1170.867, 1677.168
1171.349, 1675.765
1171.831, 1676.165
1172.313, 1675.034
1172.796, 1673.950
1173.278, 1674.830
1173.760, 1676.344
1174.242, 1677.160
1174.724, 1677.214
1175.206, 1677.657
1175.688, 1678.570
1176.170, 1679.646
1176.653, 1680.886
1177.135, 1682.011
1177.617, 1681.762
1178.099, 1681.689
1178.581, 1683.766
1179.063, 1688.462
1179.545, 1694.238
1180.027, 1701.667
1180.510, 1707.781
1180.992, 1711.334
1181.474, 1713.160
1181.956, 1713.668
1182.438, 1713.659
1182.920, 1714.434
1183.402, 1716.499
1183.884, 1718.543
1184.366, 1720.948
1184.849, 1722.051
1185.331, 1720.556
1185.813, 1717.859
1186.295, 1716.087
1186.777, 1715.183
1187.259, 1715.220
1187.741, 1717.552
1188.223, 1717.525
1188.705, 1714.208
1189.188, 1710.325
1189.670, 1707.185
1190.152, 1704.959
1190.634, 1704.880
1191.116, 1705.866
1191.598, 1705.320
1192.080, 1700.774
1192.562, 1697.063
1193.045, 1694.368
1193.527, 1692.664
1194.009, 1692.775
1194.491, 1693.554
1194.973, 1691.631
1195.455, 1687.919
1195.937, 1685.572
1196.419, 1687.647
1196.901, 1688.154
1197.384, 1685.674
1197.866, 1682.988
1198.348, 1683.089
1198.830, 1684.906
1199.312, 1685.928
1199.794, 1686.198
1200.276, 1686.463
1200.758, 1687.809
1201.240, 1687.972
1201.723, 1686.500
1202.205, 1684.056
1202.687, 1679.922
1203.169, 1675.880
1203.651, 1677.751
1204.133, 1685.055
1204.615, 1690.401
1205.097, 1689.423
1205.580, 1688.234
1206.062, 1687.753
1206.544, 1687.956
1207.026, 1688.565
1207.508, 1689.874
1207.990, 1693.133
1208.472, 1698.316
1208.954, 1702.713
1209.437, 1705.592
1209.919, 1706.970
1210.401, 1706.340
1210.883, 1705.004
1211.365, 1705.681
1211.847, 1707.266
1212.329, 1706.536
1212.811, 1702.983
1213.293, 1701.111
1213.776, 1703.276
1214.258, 1706.479
1214.740, 1710.663
1215.222, 1714.515
1215.704, 1715.094
1216.186, 1713.459
1216.668, 1711.693
1217.150, 1710.030
1217.632, 1709.734
1218.115, 1712.278
1218.597, 1714.560
1219.079, 1715.745
1219.561, 1715.832
1220.043, 1713.391
1220.525, 1710.201
1221.007, 1710.803
1221.489, 1716.990
1221.972, 1721.463
1222.454, 1721.988
1222.936, 1721.768
1223.418, 1721.747
1223.900, 1722.080
1224.382, 1723.787
1224.864, 1725.934
1225.346, 1726.242
1225.828, 1723.446
1226.311, 1722.154
1226.793, 1723.769
1227.275, 1725.355
1227.757, 1725.663
1228.239, 1725.054
1228.721, 1723.763
1229.203, 1722.261
1229.685, 1721.664
1230.167, 1722.852
1230.650, 1722.688
1231.132, 1719.766
1231.614, 1718.503
1232.096, 1721.896
1232.578, 1727.510
1233.060, 1731.656
1233.542, 1734.170
1234.024, 1734.464
1234.507, 1731.224
1234.989, 1728.742
1235.471, 1727.260
1235.953, 1726.338
1236.435, 1725.970
1236.917, 1725.753
1237.399, 1724.674
1237.881, 1723.344
1238.364, 1722.925
1238.846, 1724.073
1239.328, 1725.327
1239.810, 1726.836
1240.292, 1727.870
1240.774, 1727.477
1241.256, 1726.873
1241.738, 1728.268
1242.220, 1728.055
1242.703, 1728.176
1243.185, 1729.293
1243.667, 1728.754
1244.149, 1729.766
1244.631, 1731.241
1245.113, 1732.468
1245.595, 1733.720
1246.077, 1735.105
1246.559, 1736.733
1247.042, 1739.207
1247.524, 1743.825
1248.006, 1743.540
1248.488, 1737.899
1248.970, 1733.149
1249.452, 1735.036
1249.934, 1738.047
1250.416, 1737.022
1250.899, 1734.240
1251.381, 1733.406
1251.863, 1735.057
1252.345, 1736.374
1252.827, 1737.358
1253.309, 1738.033
1253.791, 1738.528
1254.273, 1738.577
1254.755, 1737.677
1255.238, 1736.335
1255.720, 1735.413
1256.202, 1734.932
1256.684, 1732.811
1257.166, 1729.198
1257.648, 1727.422
1258.130, 1731.915
1258.612, 1735.991
1259.094, 1734.602
1259.577, 1738.349
1260.059, 1734.207
1260.541, 1740.127
1261.023, 1741.997
1261.505, 1740.103
1261.987, 1738.176
1262.469, 1738.332
1262.951, 1738.755
1263.434, 1739.214
1263.916, 1739.229
1264.398, 1738.043
1264.880, 1735.944
1265.362, 1734.007
1265.844, 1732.360
1266.326, 1731.575
1266.808, 1732.255
1267.291, 1733.247
1267.773, 1733.919
1268.255, 1735.481
1268.737, 1741.187
1269.219, 1748.033
1269.701, 1747.178
1270.183, 1740.364
1270.665, 1735.275
1271.147, 1736.117
1271.630, 1736.089
1272.112, 1734.170
1272.594, 1732.980
1273.076, 1736.343
1273.558, 1741.146
1274.040, 1741.911
1274.522, 1739.921
1275.004, 1739.823
1275.486, 1743.346
1275.969, 1746.100
1276.451, 1747.827
1276.933, 1748.693
1277.415, 1748.336
1277.897, 1747.588
1278.379, 1746.983
1278.861, 1746.771
1279.343, 1747.681
1279.825, 1750.280
1280.308, 1751.028
1280.790, 1749.682
1281.272, 1747.758
1281.754, 1745.234
1282.236, 1743.707
1282.718, 1744.538
1283.200, 1747.079
1283.682, 1750.675
1284.165, 1755.460
1284.647, 1757.028
1285.129, 1755.426
1285.611, 1754.075
1286.093, 1755.688
1286.575, 1757.305
1287.057, 1757.094
1287.539, 1756.637
1288.021, 1758.086
1288.504, 1760.886
1288.986, 1761.331
1289.468, 1759.799
1289.950, 1759.221
1290.432, 1761.888
1290.914, 1764.512
1291.396, 1766.721
1291.878, 1768.238
1292.360, 1768.820
1292.843, 1768.537
1293.325, 1766.391
1293.807, 1763.408
1294.289, 1763.114
1294.771, 1770.002
1295.253, 1774.224
1295.735, 1774.957
1296.217, 1774.403
1296.700, 1773.200
1297.182, 1772.698
1297.664, 1775.818
1298.146, 1780.852
1298.628, 1783.742
1299.110, 1784.065
1299.592, 1783.706
1300.074, 1782.647
1300.557, 1781.172
1301.039, 1779.178
1301.521, 1777.115
1302.003, 1775.887
1302.485, 1774.644
1302.967, 1772.714
1303.449, 1771.126
##END=



