##NAMES=Wiluite
##RRUFFID=R060513
##IDEAL CHEMISTRY=Ca_19_(Al,Mg)_13_(B,[box],Al)_5_(SiO_4_)_10_(Si_2_O_7_)_4_(O,OH)_10_
##LOCALITY=Wilui River, Sakha Republic, Russian Federation
##OWNER=RRUFF
##SOURCE=Michael Scott
##DESCRIPTION=Dark green tetragonal prismatic
##STATUS=The identification of this mineral has been confirmed by X-ray diffraction and chemical analysis
##URL=rruff.info/R060513
##MEASURED CHEMISTRY=Ca_19.00_(Al_7.90_Mg_4.67_Ti_0.43_)_Σ=13_(B_3.00_[box]_2.00_)_Σ=5_Si_18.00_O_68_(O_7.76_(OH)_2.24_)_Σ=10_ ; B not measured but estimated by charge balance.
92.37695, 920.5558
92.85907, 905.1579
93.34119, 908.5713
93.82330, 923.8270
94.30542, 936.3491
94.78754, 942.0200
95.26965, 943.0695
95.75177, 942.3939
96.23389, 941.1680
96.71600, 939.3245
97.19812, 937.5785
97.68024, 936.3632
98.16235, 935.0590
98.64447, 932.6703
99.12659, 928.8607
99.60870, 922.9197
100.0908, 917.0859
100.5729, 911.9519
101.0551, 907.7648
101.5372, 904.5336
102.0193, 901.9920
102.5014, 899.3962
102.9835, 895.3426
103.4656, 892.4909
103.9478, 891.8244
104.4299, 892.6077
104.9120, 893.4697
105.3941, 893.2823
105.8762, 891.8596
106.3583, 891.0168
106.8405, 890.9225
107.3226, 890.8584
107.8047, 890.5409
108.2868, 889.9047
108.7689, 888.8237
109.2510, 886.8688
109.7332, 883.9084
110.2153, 881.7986
110.6974, 881.2369
111.1795, 881.5322
111.6616, 881.5933
112.1437, 881.0388
112.6259, 880.5580
113.1080, 881.0452
113.5901, 882.4155
114.0722, 883.7107
114.5543, 884.3405
115.0364, 884.3257
115.5185, 884.0850
116.0007, 883.5048
116.4828, 882.8434
116.9649, 882.2939
117.4470, 881.8776
117.9291, 881.4086
118.4112, 880.6135
118.8934, 879.3578
119.3755, 878.0688
119.8576, 876.6723
120.3397, 875.3168
120.8218, 874.1055
121.3039, 873.0784
121.7861, 872.2172
122.2682, 871.4704
122.7503, 869.6282
123.2324, 870.2664
123.7145, 870.1611
124.1966, 869.3521
124.6788, 865.7321
125.1609, 865.7419
125.6430, 864.2972
126.1251, 862.7928
126.6072, 863.3135
127.0893, 860.1025
127.5715, 860.5909
128.0536, 859.6027
128.5357, 859.2903
129.0178, 857.5144
129.4999, 856.1906
129.9821, 853.8114
130.4642, 853.9183
130.9463, 854.7891
131.4284, 854.4058
131.9105, 852.3995
132.3926, 850.5668
132.8748, 850.6682
133.3569, 851.9230
133.8390, 853.0165
134.3211, 853.2435
134.8032, 852.8568
135.2853, 852.7370
135.7674, 853.0424
136.2496, 853.4390
136.7317, 853.9828
137.2138, 854.5169
137.6959, 854.6544
138.1780, 853.8275
138.6601, 851.8668
139.1423, 850.7762
139.6244, 851.4163
140.1065, 852.2533
140.5886, 853.1343
141.0707, 853.8038
141.5528, 853.7327
142.0350, 852.0392
142.5171, 847.3242
142.9992, 844.7242
143.4813, 845.6273
143.9634, 847.2648
144.4455, 847.7475
144.9277, 846.6318
145.4098, 844.8601
145.8919, 843.9768
146.3740, 844.6842
146.8561, 845.0231
147.3382, 844.6273
147.8204, 843.9145
148.3025, 843.4647
148.7846, 843.5306
149.2667, 843.7510
149.7488, 843.2565
150.2309, 841.8225
150.7131, 840.6124
151.1952, 840.2335
151.6773, 840.4596
152.1594, 840.5596
152.6415, 840.1737
153.1236, 839.6201
153.6058, 839.4264
154.0879, 839.6998
154.5700, 840.0080
155.0521, 840.0221
155.5342, 839.7362
156.0163, 839.2941
156.4985, 838.1583
156.9806, 837.2065
157.4627, 837.3536
157.9448, 838.9572
158.4269, 841.0748
158.9090, 842.2996
159.3912, 842.3273
159.8733, 842.1533
160.3554, 841.8727
160.8375, 841.5994
161.3196, 841.4151
161.8017, 841.3513
162.2839, 841.4252
162.7660, 841.6921
163.2481, 842.2285
163.7302, 842.8913
164.2123, 843.7004
164.6944, 844.6055
165.1766, 845.5114
165.6587, 846.3588
166.1408, 847.1984
166.6229, 848.3949
167.1050, 850.5842
167.5871, 852.4507
168.0693, 853.7342
168.5514, 854.5020
169.0335, 854.8591
169.5156, 854.8066
169.9977, 854.4011
170.4798, 854.4948
170.9620, 856.0999
171.4441, 857.1595
171.9262, 856.4001
172.4083, 854.1110
172.8904, 851.6650
173.3725, 849.9443
173.8547, 849.0165
174.3368, 848.4749
174.8189, 849.1413
175.3010, 849.6263
175.7831, 848.2576
176.2652, 844.9016
176.7474, 842.1122
177.2295, 842.5505
177.7116, 845.0224
178.1937, 846.6147
178.6758, 845.8846
179.1579, 844.2334
179.6401, 843.7291
180.1222, 844.5854
180.6043, 846.0041
181.0864, 847.9207
181.5685, 849.9928
182.0506, 851.6014
182.5328, 852.3336
183.0149, 852.4125
183.4970, 852.5229
183.9791, 852.6801
184.4612, 852.8490
184.9433, 853.5712
185.4255, 854.2740
185.9076, 853.8871
186.3897, 851.3591
186.8718, 846.9537
187.3539, 843.6490
187.8360, 842.5692
188.3182, 841.4883
188.8003, 839.4335
189.2824, 836.8625
189.7645, 834.7222
190.2466, 833.7462
190.7287, 833.9521
191.2109, 834.8588
191.6930, 837.3932
192.1751, 839.7388
192.6572, 841.4664
193.1393, 842.5110
193.6214, 842.8945
194.1036, 842.5685
194.5857, 841.4205
195.0678, 840.4424
195.5499, 839.1153
196.0320, 838.3521
196.5141, 838.7825
196.9963, 840.2707
197.4784, 842.1691
197.9605, 843.9438
198.4426, 845.5949
198.9247, 846.8508
199.4068, 847.3776
199.8890, 847.7988
200.3711, 848.5639
200.8532, 849.6921
201.3353, 850.8417
201.8174, 851.6840
202.2995, 852.1938
202.7817, 852.7949
203.2638, 853.4218
203.7459, 854.1937
204.2280, 855.4768
204.7101, 857.3592
205.1922, 858.8663
205.6744, 858.6071
206.1565, 857.0301
206.6386, 856.3254
207.1207, 857.7675
207.6028, 860.0018
208.0849, 861.0934
208.5671, 860.7051
209.0492, 859.9747
209.5313, 859.7609
210.0134, 859.8904
210.4955, 860.0298
210.9776, 859.8005
211.4598, 859.5289
211.9419, 860.0876
212.4240, 861.9200
212.9061, 863.6614
213.3882, 864.1934
213.8703, 864.0762
214.3525, 864.3729
214.8346, 865.9883
215.3167, 868.4305
215.7988, 869.7832
216.2809, 869.3094
216.7630, 868.8376
217.2451, 869.1377
217.7273, 869.9775
218.2094, 870.9721
218.6915, 871.9576
219.1736, 872.9035
219.6557, 873.5805
220.1378, 873.5259
220.6200, 873.7813
221.1021, 875.2471
221.5842, 877.1534
222.0663, 878.1589
222.5484, 877.1730
223.0305, 874.4979
223.5127, 873.0621
223.9948, 874.5310
224.4769, 875.5804
224.9590, 875.0206
225.4411, 873.6067
225.9232, 872.6912
226.4054, 873.2150
226.8875, 875.0413
227.3696, 876.6056
227.8517, 878.2744
228.3338, 879.2687
228.8159, 878.6885
229.2981, 877.3524
229.7802, 876.7388
230.2623, 877.8767
230.7444, 880.5618
231.2265, 882.4262
231.7086, 882.5811
232.1908, 882.9540
232.6729, 884.3224
233.1550, 886.2538
233.6371, 887.8036
234.1192, 888.3314
234.6013, 888.0439
235.0835, 888.5221
235.5656, 889.9413
236.0477, 891.7529
236.5298, 893.9178
237.0119, 896.3531
237.4940, 899.0662
237.9762, 902.2110
238.4583, 905.4681
238.9404, 907.3207
239.4225, 907.0502
239.9046, 906.4835
240.3867, 905.9634
240.8689, 905.5858
241.3510, 905.6081
241.8331, 906.1932
242.3152, 907.2442
242.7973, 908.3945
243.2794, 909.2748
243.7616, 910.7745
244.2437, 914.0238
244.7258, 918.3276
245.2079, 921.4676
245.6900, 922.2158
246.1721, 921.6240
246.6543, 921.8270
247.1364, 922.8611
247.6185, 924.4318
248.1006, 926.9906
248.5827, 930.1110
249.0648, 932.2468
249.5470, 932.7006
250.0291, 932.0798
250.5112, 931.2333
250.9933, 930.0510
251.4754, 929.2357
251.9576, 929.6248
252.4397, 930.8480
252.9218, 931.2151
253.4039, 929.9421
253.8860, 928.0582
254.3681, 926.6639
254.8503, 925.7469
255.3324, 925.0792
255.8145, 924.9818
256.2966, 925.1864
256.7787, 924.0964
257.2608, 920.3318
257.7430, 916.6830
258.2251, 915.5408
258.7072, 916.6309
259.1893, 918.1240
259.6714, 918.9695
260.1535, 919.2678
260.6357, 919.5609
261.1178, 919.8903
261.5999, 920.2358
262.0820, 920.5546
262.5641, 920.8717
263.0462, 921.2604
263.5284, 922.0363
264.0105, 923.0295
264.4926, 923.1204
264.9747, 921.5076
265.4568, 920.1268
265.9389, 919.6941
266.4211, 920.1363
266.9032, 921.3376
267.3853, 923.4979
267.8674, 926.3387
268.3495, 928.6386
268.8316, 930.0425
269.3138, 931.4113
269.7959, 933.5116
270.2780, 935.7113
270.7601, 936.9785
271.2422, 936.5756
271.7243, 935.0658
272.2065, 934.3162
272.6886, 934.6197
273.1707, 935.2723
273.6528, 936.1590
274.1349, 937.1937
274.6170, 938.2517
275.0992, 939.2703
275.5813, 940.3372
276.0634, 941.7569
276.5455, 944.0871
277.0276, 945.6869
277.5097, 946.0270
277.9919, 945.7687
278.4740, 945.4064
278.9561, 945.1221
279.4382, 945.0164
279.9203, 945.2978
280.4024, 946.1003
280.8846, 947.0325
281.3667, 948.3407
281.8488, 949.5599
282.3309, 950.2577
282.8130, 950.3601
283.2951, 950.2224
283.7773, 950.4659
284.2594, 951.5599
284.7415, 951.8237
285.2236, 949.6036
285.7057, 947.8694
286.1878, 949.2012
286.6700, 953.4073
287.1521, 957.6890
287.6342, 958.4847
288.1163, 954.3826
288.5984, 952.3260
289.0805, 953.7308
289.5627, 955.7231
290.0448, 957.2713
290.5269, 958.2468
291.0090, 958.9049
291.4911, 959.4982
291.9732, 960.0565
292.4554, 960.1332
292.9375, 958.7984
293.4196, 957.9100
293.9017, 958.3235
294.3838, 959.6777
294.8659, 961.1429
295.3481, 962.1442
295.8302, 962.7123
296.3123, 963.1957
296.7944, 963.1436
297.2765, 963.5067
297.7586, 964.8760
298.2408, 966.7044
298.7229, 968.1879
299.2050, 968.8773
299.6871, 968.9155
300.1692, 968.8314
300.6513, 968.3962
301.1335, 968.1242
301.6156, 968.0588
302.0977, 968.1810
302.5798, 968.4402
303.0619, 968.8206
303.5440, 969.3922
304.0262, 970.3322
304.5083, 971.9863
304.9904, 973.5039
305.4725, 975.0930
305.9546, 976.4208
306.4367, 977.2029
306.9189, 977.3785
307.4010, 977.0881
307.8831, 976.3873
308.3652, 974.5657
308.8473, 974.3147
309.3294, 976.5522
309.8116, 979.3256
310.2937, 981.7699
310.7758, 983.6484
311.2579, 984.8312
311.7400, 985.0663
312.2221, 984.1220
312.7043, 983.9059
313.1864, 984.9099
313.6685, 986.0411
314.1506, 987.0378
314.6327, 987.8178
315.1148, 988.2658
315.5970, 988.2403
316.0791, 987.8088
316.5612, 987.8839
317.0433, 989.4070
317.5254, 990.3985
318.0075, 989.7253
318.4897, 988.4064
318.9718, 988.1393
319.4539, 989.8398
319.9360, 992.7643
320.4181, 994.5384
320.9002, 994.1354
321.3824, 993.7361
321.8645, 993.2657
322.3466, 992.9367
322.8287, 993.0585
323.3108, 993.7015
323.7929, 994.5176
324.2751, 994.9411
324.7572, 995.0845
325.2393, 994.5176
325.7214, 991.9141
326.2035, 989.6551
326.6856, 989.8650
327.1678, 992.4804
327.6499, 995.4329
328.1320, 996.4073
328.6141, 994.9037
329.0962, 993.8559
329.5783, 993.8751
330.0605, 993.7075
330.5426, 992.6689
331.0247, 990.9652
331.5068, 989.1761
331.9889, 987.6686
332.4710, 986.4718
332.9532, 986.0929
333.4353, 987.0021
333.9174, 988.2794
334.3995, 990.6287
334.8816, 993.0316
335.3637, 993.6916
335.8459, 991.6257
336.3280, 988.1980
336.8101, 987.6635
337.2922, 993.1534
337.7743, 996.9470
338.2564, 998.0685
338.7386, 997.6348
339.2206, 996.1735
339.7028, 993.9988
340.1849, 991.8834
340.6670, 991.0596
341.1491, 992.0784
341.6312, 993.0568
342.1133, 993.8847
342.5955, 994.7607
343.0776, 995.8321
343.5597, 997.0743
344.0418, 998.3630
344.5239, 999.6569
345.0060, 1000.989
345.4882, 1001.734
345.9703, 1000.679
346.4524, 1000.216
346.9345, 1001.527
347.4166, 1003.850
347.8987, 1005.758
348.3809, 1006.325
348.8630, 1005.902
349.3451, 1005.895
349.8272, 1006.420
350.3093, 1007.225
350.7914, 1008.756
351.2736, 1010.265
351.7557, 1010.776
352.2378, 1009.965
352.7199, 1008.770
353.2020, 1008.960
353.6841, 1011.283
354.1663, 1012.687
354.6484, 1011.326
355.1305, 1010.127
355.6126, 1011.106
356.0947, 1014.232
356.5768, 1017.790
357.0590, 1020.174
357.5411, 1021.334
358.0232, 1022.407
358.5053, 1023.654
358.9874, 1024.493
359.4695, 1024.141
359.9517, 1023.242
360.4338, 1023.164
360.9159, 1025.016
361.3980, 1028.044
361.8801, 1029.933
362.3622, 1030.365
362.8444, 1030.298
363.3265, 1029.545
363.8086, 1028.740
364.2907, 1028.610
364.7728, 1029.425
365.2549, 1030.649
365.7371, 1031.671
366.2192, 1032.490
366.7013, 1033.125
367.1834, 1033.606
367.6655, 1033.854
368.1476, 1033.542
368.6298, 1032.740
369.1119, 1032.380
369.5940, 1033.932
370.0761, 1036.742
370.5582, 1037.208
371.0403, 1033.527
371.5225, 1030.267
372.0046, 1031.221
372.4867, 1034.917
372.9688, 1038.069
373.4509, 1039.462
373.9330, 1039.608
374.4152, 1039.042
374.8973, 1037.695
375.3794, 1036.229
375.8615, 1034.750
376.3436, 1033.467
376.8257, 1032.756
377.3079, 1032.891
377.7900, 1032.987
378.2721, 1032.316
378.7542, 1031.030
379.2363, 1029.710
379.7184, 1028.323
380.2006, 1027.278
380.6827, 1027.142
381.1648, 1027.862
381.6469, 1028.937
382.1290, 1031.086
382.6111, 1033.147
383.0933, 1033.128
383.5754, 1030.717
384.0575, 1027.958
384.5396, 1026.207
385.0217, 1025.550
385.5038, 1025.704
385.9860, 1027.480
386.4681, 1029.333
386.9502, 1030.593
387.4323, 1031.195
387.9144, 1030.772
388.3965, 1028.839
388.8787, 1026.266
389.3608, 1025.500
389.8429, 1027.341
390.3250, 1028.914
390.8071, 1029.267
391.2892, 1029.200
391.7714, 1029.757
392.2535, 1031.155
392.7356, 1032.749
393.2177, 1033.799
393.6998, 1034.202
394.1819, 1034.414
394.6641, 1034.826
395.1462, 1034.721
395.6283, 1033.041
396.1104, 1030.397
396.5925, 1028.599
397.0746, 1028.894
397.5568, 1030.898
398.0389, 1032.508
398.5210, 1033.676
399.0031, 1034.468
399.4852, 1035.124
399.9673, 1035.305
400.4495, 1034.371
400.9316, 1032.207
401.4137, 1029.677
401.8958, 1028.038
402.3779, 1027.302
402.8600, 1027.511
403.3422, 1030.637
403.8243, 1032.828
404.3064, 1031.188
404.7885, 1026.686
405.2706, 1022.666
405.7527, 1021.907
406.2349, 1023.855
406.7170, 1024.043
407.1991, 1020.791
407.6812, 1018.136
408.1633, 1017.838
408.6454, 1018.234
409.1276, 1017.315
409.6097, 1014.336
410.0918, 1010.559
410.5739, 1007.625
411.0560, 1005.508
411.5381, 1004.504
412.0203, 1006.542
412.5024, 1008.146
412.9845, 1006.722
413.4666, 1002.748
413.9487, 999.0258
414.4308, 998.1834
414.9130, 999.2371
415.3951, 998.1816
415.8772, 994.1179
416.3593, 990.1458
416.8414, 988.3851
417.3235, 987.6348
417.8057, 986.2704
418.2878, 983.6714
418.7699, 980.8138
419.2520, 978.5057
419.7341, 976.7346
420.2162, 975.5413
420.6984, 975.4340
421.1805, 975.2546
421.6626, 973.1672
422.1447, 969.1388
422.6268, 965.8561
423.1089, 965.3369
423.5911, 965.6591
424.0732, 963.7256
424.5553, 959.1929
425.0374, 954.9041
425.5195, 953.2162
426.0016, 953.7615
426.4838, 953.4083
426.9659, 952.1752
427.4480, 950.0722
427.9301, 946.4176
428.4122, 941.9490
428.8943, 938.2285
429.3765, 935.8492
429.8586, 934.3654
430.3407, 932.9935
430.8228, 931.5163
431.3049, 930.7586
431.7870, 931.9746
432.2692, 932.9923
432.7513, 931.9319
433.2334, 928.9756
433.7155, 925.7238
434.1976, 923.4844
434.6797, 922.1699
435.1619, 920.4412
435.6440, 917.5661
436.1261, 915.1037
436.6082, 913.5764
437.0903, 912.4769
437.5724, 911.1310
438.0546, 909.3225
438.5367, 907.4620
439.0188, 906.2823
439.5009, 906.0963
439.9830, 905.5651
440.4651, 904.8002
440.9473, 903.5369
441.4294, 901.0460
441.9115, 897.8792
442.3936, 895.5554
442.8757, 895.4462
443.3578, 896.7049
443.8400, 896.3027
444.3221, 893.4849
444.8042, 890.8939
445.2863, 889.5697
445.7684, 888.8581
446.2505, 888.3624
446.7327, 888.0377
447.2148, 887.5110
447.6969, 886.1984
448.1790, 884.3057
448.6611, 883.1351
449.1432, 883.3639
449.6254, 883.4015
450.1075, 881.2760
450.5896, 877.7330
451.0717, 875.0938
451.5538, 873.8444
452.0359, 873.8613
452.5181, 875.8111
453.0002, 879.3284
453.4823, 881.8802
453.9644, 882.2111
454.4465, 881.0138
454.9286, 879.7902
455.4108, 878.7180
455.8929, 877.1714
456.3750, 874.3825
456.8571, 871.3856
457.3392, 869.3166
457.8214, 868.3224
458.3035, 867.8143
458.7856, 867.2542
459.2677, 866.6352
459.7498, 866.6541
460.2319, 868.2883
460.7141, 869.3366
461.1962, 868.5978
461.6783, 867.0804
462.1604, 866.2706
462.6425, 866.7239
463.1246, 867.8078
463.6068, 868.5389
464.0889, 869.0753
464.5710, 868.7992
465.0531, 866.6803
465.5352, 864.7595
466.0173, 864.2065
466.4995, 864.6882
466.9816, 865.0969
467.4637, 864.6064
467.9458, 863.6582
468.4279, 863.8111
468.9100, 865.6462
469.3922, 867.0778
469.8743, 866.9875
470.3564, 866.5572
470.8385, 866.8450
471.3206, 867.9938
471.8027, 869.0567
472.2849, 869.2714
472.7670, 868.7897
473.2491, 868.1807
473.7312, 867.4927
474.2133, 866.6639
474.6954, 865.4317
475.1776, 864.0281
475.6597, 863.0352
476.1418, 862.6625
476.6239, 862.5805
477.1060, 862.8956
477.5881, 863.3512
478.0703, 863.0071
478.5524, 861.3964
479.0345, 859.4902
479.5166, 858.7753
479.9987, 859.5818
480.4808, 860.0852
480.9630, 860.2072
481.4451, 859.9949
481.9272, 859.2331
482.4093, 858.1305
482.8914, 857.2867
483.3735, 857.0746
483.8557, 857.3361
484.3378, 857.4949
484.8199, 857.3053
485.3020, 857.3691
485.7841, 858.1436
486.2662, 858.8567
486.7484, 858.6827
487.2305, 857.6921
487.7126, 856.8201
488.1947, 857.0753
488.6768, 858.3332
489.1589, 858.5319
489.6411, 856.5847
490.1232, 855.3096
490.6053, 856.1968
491.0874, 857.8536
491.5695, 858.5681
492.0516, 857.8085
492.5338, 856.8419
493.0159, 857.3985
493.4980, 859.2011
493.9801, 859.4561
494.4622, 856.9403
494.9443, 854.3978
495.4265, 854.3939
495.9086, 856.1888
496.3907, 857.8639
496.8728, 859.1000
497.3549, 859.9277
497.8370, 860.3113
498.3192, 860.2914
498.8013, 859.8898
499.2834, 858.9773
499.7655, 858.0790
500.2476, 858.1785
500.7297, 859.7266
501.2119, 860.6210
501.6940, 860.0830
502.1761, 859.3807
502.6582, 859.3410
503.1403, 859.9391
503.6224, 860.9263
504.1045, 862.2258
504.5866, 863.5652
505.0688, 863.9056
505.5509, 862.0214
506.0330, 861.0838
506.5151, 861.8578
506.9972, 863.1215
507.4793, 864.0609
507.9615, 864.5799
508.4436, 864.9553
508.9257, 865.3475
509.4078, 865.7952
509.8899, 866.6637
510.3720, 868.4922
510.8542, 869.5552
511.3363, 868.6474
511.8184, 866.9600
512.3005, 865.3578
512.7827, 863.9161
513.2648, 863.4334
513.7469, 865.8743
514.2290, 869.7386
514.7111, 869.8840
515.1932, 864.8411
515.6754, 860.0990
516.1575, 860.6252
516.6396, 865.0959
517.1217, 866.9551
517.6038, 863.7328
518.0859, 860.4895
518.5681, 860.2197
519.0502, 861.2664
519.5323, 860.4243
520.0144, 856.8255
520.4965, 852.8240
520.9786, 851.3688
521.4608, 852.9813
521.9429, 854.0095
522.4250, 854.2864
522.9071, 854.2729
523.3892, 853.9803
523.8713, 853.5447
524.3535, 853.1681
524.8356, 852.9327
525.3177, 852.6876
525.7998, 852.0634
526.2819, 850.8616
526.7640, 850.2715
527.2462, 850.6448
527.7283, 851.3876
528.2104, 852.6483
528.6925, 854.0256
529.1746, 854.6536
529.6567, 854.0482
530.1389, 852.7165
530.6210, 850.8522
531.1031, 848.5488
531.5852, 847.7051
532.0673, 849.6635
532.5494, 852.0533
533.0316, 851.4114
533.5137, 847.9725
533.9958, 845.5630
534.4779, 845.3723
534.9600, 846.1407
535.4421, 847.2167
535.9243, 848.4303
536.4064, 849.4623
536.8885, 850.1559
537.3706, 850.5790
537.8527, 850.8561
538.3348, 850.8892
538.8170, 850.9711
539.2991, 850.8776
539.7812, 851.0280
540.2633, 851.8111
540.7454, 853.0538
541.2275, 854.4506
541.7097, 855.9526
542.1918, 857.0463
542.6739, 856.0397
543.1560, 851.9784
543.6381, 848.8554
544.1202, 847.9886
544.6024, 847.9034
545.0845, 847.9343
545.5666, 847.9824
546.0487, 847.8937
546.5308, 847.5997
547.0129, 847.1141
547.4951, 846.2621
547.9772, 845.0630
548.4593, 844.3422
548.9414, 844.4796
549.4235, 845.2384
549.9056, 846.5120
550.3878, 848.6004
550.8699, 849.5574
551.3520, 848.0541
551.8341, 846.0109
552.3162, 844.9237
552.7983, 844.7598
553.2805, 844.9300
553.7626, 845.1295
554.2447, 845.2712
554.7268, 845.1125
555.2089, 844.6453
555.6910, 843.8555
556.1732, 842.5812
556.6553, 841.1624
557.1374, 839.6699
557.6195, 838.1990
558.1016, 836.9326
558.5837, 835.9655
559.0659, 835.2899
559.5480, 835.1744
560.0301, 835.8874
560.5122, 835.4707
560.9943, 832.4664
561.4764, 828.9720
561.9586, 827.2951
562.4407, 827.3046
562.9228, 826.8060
563.4049, 824.4459
563.8870, 821.5634
564.3691, 819.5992
564.8513, 818.4595
565.3334, 817.4274
565.8155, 816.2036
566.2976, 814.8463
566.7797, 813.4002
567.2618, 811.5490
567.7440, 810.4434
568.2261, 810.7181
568.7082, 811.1566
569.1903, 811.0287
569.6724, 810.4855
570.1545, 810.0408
570.6367, 809.9772
571.1188, 810.0826
571.6009, 809.9472
572.0830, 809.5840
572.5651, 808.8903
573.0472, 807.4236
573.5294, 806.0427
574.0115, 805.3607
574.4936, 805.1376
574.9757, 804.6757
575.4578, 803.5499
575.9399, 802.2519
576.4221, 801.0450
576.9042, 800.0591
577.3863, 800.2309
577.8684, 802.1059
578.3505, 804.4102
578.8326, 805.7133
579.3148, 805.9394
579.7969, 805.9270
580.2790, 805.3990
580.7611, 804.9512
581.2432, 804.9540
581.7253, 805.2127
582.2075, 805.4062
582.6896, 805.4197
583.1717, 801.5278
583.6538, 804.8688
584.1359, 807.0509
584.6180, 808.1243
585.1002, 805.4298
585.5823, 807.0957
586.0643, 806.7053
586.5464, 806.0191
587.0286, 807.6683
587.5107, 804.3873
587.9928, 805.5550
588.4749, 809.3726
588.9570, 811.5946
589.4391, 812.7724
589.9213, 812.6310
590.4034, 812.0724
590.8855, 811.5104
591.3676, 811.0400
591.8497, 805.0814
592.3318, 809.3890
592.8140, 812.3742
593.2961, 814.0864
593.7782, 811.8668
594.2603, 813.8441
594.7424, 813.6011
595.2245, 812.8987
595.7067, 814.3677
596.1888, 810.7427
596.6709, 811.4028
597.1530, 809.8146
597.6351, 808.6954
598.1172, 811.8597
598.5994, 811.8378
599.0815, 811.7703
599.5636, 811.6267
600.0457, 811.1787
600.5278, 810.1060
601.0099, 808.7498
601.4921, 807.6341
601.9742, 806.7514
602.4563, 806.5527
602.9384, 807.6120
603.4205, 808.8392
603.9026, 808.3621
604.3848, 806.1091
604.8669, 804.6907
605.3490, 805.4554
605.8311, 806.2178
606.3132, 805.3915
606.7953, 803.4914
607.2775, 801.7488
607.7596, 800.6546
608.2417, 799.8485
608.7238, 798.7750
609.2059, 797.3378
609.6880, 796.1274
610.1702, 795.4739
610.6523, 794.6735
611.1344, 793.5318
611.6165, 792.1002
612.0986, 790.2513
612.5807, 787.8735
613.0629, 785.9815
613.5450, 785.9523
614.0271, 787.1840
614.5092, 787.7160
614.9913, 787.3099
615.4734, 786.4523
615.9556, 785.1093
616.4377, 783.6593
616.9198, 783.5303
617.4019, 786.2148
617.8840, 787.2802
618.3661, 784.5667
618.8483, 780.7811
619.3304, 777.9043
619.8125, 776.2842
620.2946, 776.0824
620.7767, 777.6164
621.2589, 779.8762
621.7410, 779.5807
622.2231, 775.5207
622.7052, 772.5018
623.1873, 772.0593
623.6694, 772.0100
624.1516, 771.2458
624.6337, 769.8677
625.1158, 768.2645
625.5979, 766.1475
626.0800, 764.5049
626.5621, 764.9611
627.0443, 766.8170
627.5264, 767.3943
628.0085, 765.9001
628.4906, 764.2965
628.9727, 764.7867
629.4548, 767.3776
629.9370, 767.9436
630.4191, 764.9102
630.9012, 762.1633
631.3833, 760.4003
631.8654, 759.4231
632.3475, 759.0477
632.8297, 759.2028
633.3118, 759.8736
633.7939, 761.2825
634.2760, 763.0947
634.7581, 763.9346
635.2402, 763.7920
635.7224, 762.6010
636.2045, 758.8757
636.6866, 755.4230
637.1687, 755.6513
637.6508, 759.3597
638.1329, 762.3806
638.6151, 763.4548
639.0972, 763.3151
639.5793, 762.4063
640.0614, 760.7843
640.5435, 758.2222
641.0256, 754.6427
641.5078, 751.1252
641.9899, 749.2653
642.4720, 749.3607
642.9541, 748.6509
643.4362, 746.0285
643.9183, 743.8759
644.4005, 742.8892
644.8826, 742.5540
645.3647, 742.5316
645.8468, 742.6747
646.3289, 742.3766
646.8110, 740.5941
647.2932, 738.1121
647.7753, 737.1090
648.2574, 737.6974
648.7395, 738.2193
649.2216, 737.9369
649.7037, 737.1884
650.1859, 736.4430
650.6680, 735.5297
651.1501, 735.3597
651.6322, 737.3096
652.1143, 738.7419
652.5964, 737.9284
653.0786, 735.5212
653.5607, 732.4282
654.0428, 729.0916
654.5249, 726.5336
655.0070, 726.5400
655.4891, 729.2259
655.9713, 731.3644
656.4534, 733.0709
656.9355, 734.0033
657.4176, 733.0964
657.8997, 731.7201
658.3818, 731.7372
658.8640, 733.5829
659.3461, 734.8964
659.8282, 734.0377
660.3103, 732.4838
660.7924, 731.6569
661.2745, 731.6683
661.7567, 732.5717
662.2388, 734.4778
662.7209, 736.6970
663.2030, 737.8074
663.6851, 737.1436
664.1672, 737.5652
664.6494, 740.6299
665.1315, 743.1026
665.6136, 743.4791
666.0957, 742.7675
666.5778, 742.2817
667.0599, 742.3693
667.5421, 743.0848
668.0242, 744.9717
668.5063, 747.4278
668.9884, 748.9261
669.4705, 749.3573
669.9526, 749.4531
670.4348, 749.4638
670.9169, 749.5518
671.3990, 750.0082
671.8811, 750.5743
672.3632, 752.2546
672.8453, 756.5804
673.3275, 760.5237
673.8096, 762.1407
674.2917, 762.2661
674.7738, 762.4539
675.2559, 763.3055
675.7380, 764.5175
676.2202, 765.7735
676.7023, 767.0701
677.1844, 768.2867
677.6665, 769.2874
678.1486, 770.6924
678.6307, 772.9736
679.1129, 775.7864
679.5950, 778.4155
680.0771, 780.7958
680.5592, 783.3516
681.0413, 786.5832
681.5234, 789.6680
682.0056, 791.3098
682.4877, 792.3361
682.9698, 795.0560
683.4519, 800.4152
683.9340, 806.4765
684.4161, 810.2161
684.8983, 811.3674
685.3804, 813.1113
685.8625, 815.2054
686.3446, 818.3171
686.8267, 823.5291
687.3088, 829.4859
687.7910, 834.7025
688.2731, 838.9656
688.7552, 843.0945
689.2373, 846.9820
689.7194, 851.2643
690.2015, 856.7426
690.6837, 863.2012
691.1658, 869.8636
691.6479, 876.4265
692.1300, 882.8679
692.6121, 889.2169
693.0942, 895.3875
693.5764, 901.8920
694.0585, 909.8663
694.5406, 916.5561
695.0227, 920.5928
695.5048, 923.3924
695.9869, 926.6774
696.4691, 930.6380
696.9512, 933.6816
697.4333, 935.1784
697.9154, 935.0478
698.3975, 932.7460
698.8796, 928.5840
699.3618, 924.1580
699.8439, 920.1264
700.3260, 915.6192
700.8081, 909.4828
701.2902, 901.5863
701.7723, 893.2935
702.2545, 883.7394
702.7366, 874.8968
703.2187, 867.5706
703.7008, 860.8941
704.1829, 854.0162
704.6650, 846.8690
705.1472, 839.7245
705.6293, 832.8861
706.1114, 826.1514
706.5935, 819.0565
707.0756, 811.7423
707.5577, 805.0851
708.0399, 799.3734
708.5220, 794.1811
709.0041, 789.0266
709.4862, 783.9075
709.9683, 779.3381
710.4504, 775.6469
710.9326, 772.0051
711.4147, 768.0706
711.8968, 764.2755
712.3789, 761.0152
712.8610, 758.2753
713.3431, 755.8715
713.8253, 753.7317
714.3074, 751.7913
714.7895, 749.9942
715.2716, 748.3237
715.7537, 746.5103
716.2358, 744.4554
716.7180, 742.5226
717.2001, 740.9427
717.6822, 739.7531
718.1643, 739.2055
718.6464, 739.5234
719.1285, 740.1192
719.6107, 741.2449
720.0928, 742.3653
720.5749, 743.2039
721.0570, 743.6971
721.5391, 743.7249
722.0212, 743.1453
722.5034, 742.5204
722.9855, 742.8127
723.4676, 743.8118
723.9497, 744.0565
724.4318, 743.2130
724.9139, 742.7606
725.3961, 743.7145
725.8782, 745.6306
726.3603, 747.2672
726.8424, 748.4960
727.3245, 749.7714
727.8066, 751.2721
728.2888, 752.6827
728.7709, 752.9207
729.2530, 753.2038
729.7351, 756.3826
730.2172, 763.3093
730.6993, 769.7822
731.1815, 770.0793
731.6636, 766.1247
732.1457, 765.6209
732.6278, 769.0541
733.1099, 771.8934
733.5920, 771.9479
734.0742, 770.9052
734.5563, 771.3979
735.0384, 773.8361
735.5205, 775.8046
736.0026, 777.5372
736.4847, 778.5324
736.9669, 778.0363
737.4490, 777.0269
737.9311, 776.3594
738.4132, 776.3289
738.8953, 777.2842
739.3774, 780.3171
739.8596, 783.8138
740.3417, 783.6902
740.8238, 780.2343
741.3059, 778.1985
741.7880, 778.9816
742.2701, 780.9146
742.7523, 782.5630
743.2344, 783.9415
743.7165, 785.1945
744.1986, 786.8777
744.6807, 787.6742
745.1628, 786.7281
745.6450, 785.4084
746.1271, 784.6176
746.6092, 784.3925
747.0913, 784.4802
747.5734, 784.7994
748.0555, 785.2324
748.5377, 785.7839
749.0198, 786.3404
749.5019, 786.5367
749.9840, 786.3454
750.4661, 785.4612
750.9482, 783.5635
751.4304, 781.0378
751.9125, 778.7675
752.3946, 776.6500
752.8767, 775.0914
753.3588, 774.6126
753.8409, 774.0662
754.3231, 772.7529
754.8052, 771.1749
755.2873, 770.0764
755.7694, 769.6255
756.2515, 769.3512
756.7336, 769.0934
757.2158, 768.6821
757.6979, 767.7589
758.1800, 766.3845
758.6621, 764.9934
759.1442, 763.7509
759.6263, 762.3325
760.1085, 760.2040
760.5906, 757.3694
761.0727, 755.6393
761.5548, 756.1678
762.0369, 756.0920
762.5190, 754.6241
763.0012, 752.7426
763.4833, 750.9303
763.9654, 749.3314
764.4475, 748.2410
764.9296, 748.1448
765.4117, 747.9393
765.8939, 746.6147
766.3760, 744.5717
766.8581, 742.3347
767.3402, 740.0704
767.8223, 738.2174
768.3044, 737.0305
768.7866, 736.4924
769.2687, 736.7851
769.7508, 738.4296
770.2329, 738.8971
770.7150, 736.9986
771.1971, 735.4833
771.6793, 736.2973
772.1614, 737.8876
772.6435, 737.9502
773.1256, 736.0394
773.6077, 734.5945
774.0898, 735.3942
774.5720, 736.2692
775.0541, 734.9866
775.5362, 732.5184
776.0183, 731.0005
776.5004, 731.0209
776.9825, 731.5533
777.4647, 731.6353
777.9468, 731.3038
778.4289, 730.7548
778.9110, 730.0054
779.3931, 728.7983
779.8752, 726.4033
780.3574, 724.5728
780.8395, 725.4570
781.3216, 728.4399
781.8037, 730.2798
782.2858, 730.5094
782.7679, 730.0855
783.2501, 728.9725
783.7322, 727.5178
784.2143, 725.3672
784.6964, 723.1771
785.1785, 722.6603
785.6606, 724.6733
786.1428, 727.2478
786.6249, 727.8000
787.1070, 726.8068
787.5891, 726.2099
788.0712, 726.1209
788.5533, 726.2374
789.0355, 726.4355
789.5176, 726.7443
789.9997, 727.2079
790.4818, 727.8311
790.9639, 728.5814
791.4460, 730.0946
791.9282, 730.9255
792.4103, 730.4675
792.8924, 729.4014
793.3745, 727.9230
793.8566, 726.3499
794.3387, 725.6972
794.8209, 726.7369
795.3030, 728.4747
795.7851, 730.3791
796.2672, 732.1531
796.7493, 732.7657
797.2314, 732.2513
797.7136, 732.4150
798.1957, 734.5676
798.6778, 737.6032
799.1599, 738.6428
799.6420, 737.0455
800.1241, 736.0298
800.6063, 735.5315
801.0884, 735.8052
801.5705, 738.0838
802.0526, 740.6364
802.5347, 740.9384
803.0168, 738.6247
803.4990, 737.1545
803.9811, 738.1903
804.4632, 739.6484
804.9453, 739.9891
805.4274, 740.0161
805.9095, 741.2098
806.3917, 743.6639
806.8738, 746.0889
807.3559, 747.5093
807.8380, 748.1653
808.3201, 748.4875
808.8022, 748.4915
809.2844, 748.4476
809.7665, 748.4248
810.2486, 748.2043
810.7307, 747.4304
811.2128, 746.4807
811.6949, 746.6002
812.1771, 748.7786
812.6592, 749.9942
813.1413, 749.3592
813.6234, 748.7545
814.1055, 749.0665
814.5876, 749.8631
815.0698, 750.4443
815.5519, 750.6949
816.0340, 751.2036
816.5161, 752.5816
816.9982, 754.2138
817.4803, 755.3400
817.9625, 756.1262
818.4446, 757.0745
818.9267, 758.2859
819.4088, 759.4188
819.8909, 760.1671
820.3730, 760.6275
820.8552, 761.0549
821.3373, 761.3112
821.8194, 762.2838
822.3015, 764.9141
822.7836, 766.8479
823.2657, 765.4360
823.7479, 762.7762
824.2300, 763.5284
824.7121, 769.2780
825.1942, 772.6901
825.6763, 770.4082
826.1584, 767.4299
826.6406, 766.4203
827.1227, 766.6502
827.6048, 766.8458
828.0869, 766.7432
828.5690, 766.8748
829.0511, 767.8672
829.5333, 769.0952
830.0154, 769.1979
830.4975, 768.4834
830.9796, 768.4676
831.4617, 769.4464
831.9438, 771.0731
832.4260, 773.2292
832.9081, 775.6180
833.3902, 777.3377
833.8723, 778.0740
834.3544, 778.9319
834.8365, 779.8685
835.3187, 780.9730
835.8008, 782.5028
836.2829, 784.0774
836.7650, 785.1458
837.2471, 785.6431
837.7292, 786.3066
838.2114, 787.2098
838.6935, 788.5371
839.1756, 791.0146
839.6577, 793.6840
840.1398, 795.1088
840.6219, 795.2375
841.1041, 795.0678
841.5862, 795.2523
842.0683, 795.5574
842.5504, 795.1132
843.0325, 794.2418
843.5146, 795.6711
843.9968, 799.9299
844.4789, 803.4082
844.9610, 804.0180
845.4431, 803.0582
845.9252, 802.9264
846.4073, 803.9783
846.8895, 804.0067
847.3716, 801.3778
847.8537, 799.9105
848.3358, 801.0491
848.8179, 803.1776
849.3000, 805.3002
849.7822, 807.1666
850.2643, 808.1204
850.7464, 807.0813
851.2285, 806.4974
851.7106, 808.8217
852.1927, 811.6559
852.6749, 811.9183
853.1570, 810.0383
853.6391, 808.0742
854.1212, 806.9843
854.6033, 806.9869
855.0854, 809.1467
855.5676, 812.7500
856.0497, 813.7547
856.5318, 812.0128
857.0139, 811.9313
857.4960, 815.3019
857.9781, 819.4455
858.4603, 821.6484
858.9424, 821.9960
859.4245, 821.5266
859.9066, 819.0865
860.3887, 817.8159
860.8708, 818.7102
861.3530, 820.0088
861.8351, 821.0863
862.3172, 821.8436
862.7993, 822.0345
863.2814, 821.4753
863.7635, 821.2804
864.2457, 821.8392
864.7278, 823.0224
865.2099, 825.2770
865.6920, 827.8765
866.1741, 829.5801
866.6563, 830.1691
867.1384, 830.2123
867.6205, 830.0057
868.1026, 829.8018
868.5847, 830.1497
869.0668, 830.9686
869.5490, 831.8130
870.0311, 832.6324
870.5132, 833.1912
870.9953, 833.3465
871.4774, 833.1680
871.9595, 832.7331
872.4417, 831.9023
872.9238, 831.6176
873.4059, 832.5505
873.8880, 832.9629
874.3701, 831.7952
874.8522, 830.3137
875.3344, 829.3069
875.8165, 828.8705
876.2986, 829.3797
876.7807, 831.9423
877.2628, 833.9290
877.7449, 834.6185
878.2271, 834.1703
878.7092, 831.8954
879.1913, 828.7520
879.6734, 826.7790
880.1555, 826.6779
880.6376, 827.0826
881.1198, 826.9366
881.6019, 826.3436
882.0840, 825.4242
882.5661, 824.2217
883.0482, 822.8569
883.5303, 821.3675
884.0125, 819.8601
884.4946, 818.3887
884.9767, 817.0419
885.4588, 816.0707
885.9409, 815.4348
886.4230, 815.5613
886.9052, 817.1423
887.3873, 817.9335
887.8694, 816.4140
888.3515, 813.7582
888.8336, 811.7434
889.3157, 810.3721
889.7979, 809.6228
890.2800, 810.1536
890.7621, 810.4406
891.2442, 809.8818
891.7263, 809.0742
892.2084, 808.9168
892.6906, 808.9716
893.1727, 807.6409
893.6548, 803.8950
894.1369, 800.4225
894.6190, 799.2605
895.1011, 799.1865
895.5833, 799.0276
896.0654, 798.6915
896.5475, 798.3124
897.0296, 797.9033
897.5117, 797.0971
897.9938, 795.1931
898.4760, 793.0515
898.9581, 793.4548
899.4402, 796.1273
899.9223, 797.6404
900.4044, 797.3503
900.8865, 796.5671
901.3687, 795.9717
901.8508, 795.7388
902.3329, 796.4415
902.8150, 798.5986
903.2971, 798.9578
903.7792, 795.7674
904.2614, 793.8145
904.7435, 795.6605
905.2256, 798.3949
905.7077, 799.3390
906.1898, 798.7861
906.6719, 798.4193
907.1541, 797.8757
907.6362, 798.4494
908.1183, 801.2955
908.6004, 804.5718
909.0825, 807.0713
909.5646, 809.0032
910.0468, 811.0695
910.5289, 813.3974
911.0110, 815.1765
911.4931, 814.9753
911.9752, 814.7053
912.4573, 816.5150
912.9395, 819.8231
913.4216, 824.0341
913.9037, 828.6225
914.3858, 831.9280
914.8679, 832.8863
915.3500, 832.4999
915.8321, 831.8324
916.3142, 831.1373
916.7963, 832.9557
917.2784, 837.5275
917.7606, 840.9586
918.2427, 841.6315
918.7248, 841.7899
919.2069, 843.8771
919.6890, 847.6152
920.1711, 850.9432
920.6533, 853.9930
921.1354, 856.3087
921.6175, 857.3676
922.0996, 858.3386
922.5817, 859.9375
923.0638, 861.7843
923.5460, 863.1871
924.0281, 864.0117
924.5102, 865.4803
924.9923, 868.1733
925.4744, 871.0175
925.9565, 873.8602
926.4387, 876.5059
926.9208, 878.8109
927.4029, 880.7634
927.8850, 882.2099
928.3671, 882.9416
928.8492, 883.9879
929.3314, 886.1873
929.8135, 888.9631
930.2956, 892.2190
930.7777, 895.4039
931.2598, 897.1719
931.7419, 897.4183
932.2241, 897.7218
932.7062, 899.4647
933.1883, 899.6306
933.6704, 902.1716
934.1525, 901.4889
934.6346, 902.0126
935.1168, 903.9051
935.5989, 904.8397
936.0810, 903.6473
936.5631, 901.7043
937.0452, 900.9905
937.5273, 901.3741
938.0095, 900.5540
938.4916, 898.1793
938.9737, 895.9412
939.4558, 893.8054
939.9379, 892.6337
940.4200, 893.8211
940.9022, 895.9637
941.3843, 895.3378
941.8664, 890.7383
942.3485, 887.0494
942.8306, 884.7222
943.3127, 882.6946
943.7949, 880.8207
944.2770, 879.0186
944.7591, 877.4902
945.2412, 876.0163
945.7233, 873.7197
946.2054, 869.9643
946.6876, 866.3453
947.1697, 862.8488
947.6518, 860.2676
948.1339, 860.6055
948.6160, 861.6383
949.0981, 859.3101
949.5803, 853.2871
950.0624, 847.7904
950.5445, 845.6237
951.0266, 844.6924
951.5087, 843.3557
951.9908, 841.5712
952.4730, 839.0873
952.9551, 836.0624
953.4372, 833.0709
953.9193, 830.3592
954.4014, 827.7224
954.8835, 824.8171
955.3657, 821.8839
955.8478, 819.7510
956.3299, 818.3045
956.8120, 816.5895
957.2941, 814.4142
957.7762, 812.8507
958.2584, 812.8534
958.7405, 812.7599
959.2226, 808.4604
959.7047, 799.4405
960.1868, 795.2192
960.6689, 797.3259
961.1511, 798.0027
961.6332, 794.7949
962.1153, 789.9780
962.5974, 785.1393
963.0795, 780.5139
963.5616, 777.1974
964.0438, 776.1920
964.5259, 774.3204
965.0080, 770.6320
965.4901, 767.3138
965.9722, 765.6814
966.4543, 764.3710
966.9365, 761.5641
967.4186, 757.5081
967.9007, 754.8856
968.3828, 755.3011
968.8649, 755.3274
969.3470, 754.8324
969.8292, 753.1087
970.3113, 748.2819
970.7934, 742.5764
971.2755, 739.7405
971.7576, 740.2589
972.2397, 740.5332
972.7219, 738.6650
973.2040, 736.2530
973.6861, 734.0182
974.1682, 732.0021
974.6503, 730.3232
975.1324, 728.8900
975.6146, 727.5248
976.0967, 726.1498
976.5788, 724.6279
977.0609, 722.6086
977.5430, 720.5462
978.0251, 719.5320
978.5073, 718.8550
978.9894, 716.2087
979.4715, 711.7988
979.9536, 708.8819
980.4357, 709.2916
980.9178, 710.7419
981.4000, 710.0355
981.8821, 707.6552
982.3642, 705.2419
982.8463, 702.8597
983.3284, 700.9229
983.8105, 699.5491
984.2927, 698.2260
984.7748, 696.4893
985.2569, 694.8493
985.7390, 694.8363
986.2211, 696.6106
986.7032, 696.6271
987.1854, 694.5922
987.6675, 692.0215
988.1496, 688.9850
988.6317, 686.8027
989.1138, 687.1540
989.5959, 689.1330
990.0781, 688.6403
990.5602, 684.3733
991.0423, 681.4667
991.5244, 680.7698
992.0065, 679.9938
992.4886, 677.9483
992.9708, 675.7604
993.4529, 674.7218
993.9350, 674.7465
994.4171, 674.8430
994.8992, 675.4129
995.3813, 675.4252
995.8635, 674.1819
996.3456, 673.1361
996.8277, 673.5012
997.3098, 674.0804
997.7919, 673.0592
998.2740, 670.5010
998.7562, 668.8408
999.2383, 669.8769
999.7204, 670.0163
1000.203, 667.1234
1000.685, 664.2409
1001.167, 663.9532
1001.649, 664.8896
1002.131, 664.4760
1002.613, 662.3793
1003.095, 660.8857
1003.577, 661.2862
1004.059, 662.1813
1004.542, 663.3547
1005.024, 664.1850
1005.506, 663.6229
1005.988, 662.3058
1006.470, 661.8287
1006.952, 662.5807
1007.434, 663.1634
1007.916, 662.3550
1008.398, 661.2172
1008.881, 660.6483
1009.363, 660.4783
1009.845, 660.5945
1010.327, 660.8670
1010.809, 661.0126
1011.291, 660.9260
1011.773, 660.7985
1012.255, 660.7748
1012.738, 660.8531
1013.220, 661.2944
1013.702, 661.7677
1014.184, 661.1846
1014.666, 659.6843
1015.148, 658.6666
1015.630, 658.8165
1016.112, 659.4489
1016.594, 659.9944
1017.077, 660.2554
1017.559, 659.3057
1018.041, 657.5037
1018.523, 656.7975
1019.005, 657.4296
1019.487, 657.9003
1019.969, 657.3254
1020.451, 656.6547
1020.934, 657.7030
1021.416, 657.1715
1021.898, 656.7250
1022.380, 657.3418
1022.862, 655.7607
1023.344, 655.6813
1023.826, 655.9543
1024.308, 655.9180
1024.791, 655.5584
1025.273, 654.7142
1025.755, 653.4161
1026.237, 652.9170
1026.719, 653.3092
1027.201, 653.7784
1027.683, 654.1530
1028.165, 654.5995
1028.647, 655.2695
1029.130, 656.0146
1029.612, 656.6179
1030.094, 657.1483
1030.576, 656.3524
1031.058, 653.4824
1031.540, 651.9976
1032.022, 653.3083
1032.504, 654.6287
1032.986, 653.9545
1033.469, 652.0011
1033.951, 650.1996
1034.433, 648.3136
1034.915, 648.2040
1035.397, 650.9889
1035.879, 653.1707
1036.361, 654.1967
1036.843, 654.1400
1037.326, 652.3757
1037.808, 649.9246
1038.290, 649.3888
1038.772, 651.5408
1039.254, 652.1227
1039.736, 650.0818
1040.218, 648.1403
1040.700, 646.6423
1041.182, 645.5958
1041.665, 645.2864
1042.147, 645.3760
1042.629, 645.0861
1043.111, 644.3508
1043.593, 643.5231
1044.075, 642.3265
1044.557, 641.4303
1045.039, 641.6161
1045.521, 641.5175
1046.004, 639.9135
1046.486, 637.4257
1046.968, 635.3838
1047.450, 633.9303
1047.932, 632.6496
1048.414, 631.3500
1048.896, 630.4152
1049.378, 629.9551
1049.861, 629.8865
1050.343, 630.7123
1050.825, 631.7021
1051.307, 631.2593
1051.789, 629.0120
1052.271, 627.1189
1052.753, 625.8213
1053.235, 625.1722
1053.718, 625.4875
1054.200, 626.1821
1054.682, 627.0674
1055.164, 627.9180
1055.646, 628.5554
1056.128, 628.9825
1056.610, 628.3648
1057.092, 625.4972
1057.574, 622.8720
1058.057, 621.0386
1058.539, 620.0712
1059.021, 620.2869
1059.503, 621.2853
1059.985, 622.7991
1060.467, 624.7553
1060.949, 625.1962
1061.431, 622.0021
1061.913, 619.1894
1062.396, 618.0333
1062.878, 618.1154
1063.360, 620.2433
1063.842, 622.8660
1064.324, 623.2990
1064.806, 621.2427
1065.288, 619.1904
1065.770, 618.0712
1066.253, 617.1293
1066.735, 616.1680
1067.217, 615.1561
1067.699, 613.6328
1068.181, 612.2520
1068.663, 612.1791
1069.145, 613.4523
1069.627, 614.7611
1070.109, 615.8695
1070.592, 616.4984
1071.074, 616.0078
1071.556, 615.5149
1072.038, 616.1620
1072.520, 617.1889
1073.002, 617.3303
1073.484, 616.5562
1073.966, 615.9630
1074.448, 616.1750
1074.931, 616.1141
1075.413, 614.6813
1075.895, 613.4037
1076.377, 613.3538
1076.859, 614.1608
1077.341, 615.6056
1077.823, 617.3759
1078.305, 618.5765
1078.788, 618.9035
1079.270, 618.6454
1079.752, 617.4045
1080.234, 616.2071
1080.716, 615.6100
1081.198, 615.5450
1081.680, 616.2302
1082.162, 617.3214
1082.644, 617.6575
1083.127, 616.6293
1083.609, 616.1370
1084.091, 617.5294
1084.573, 619.1389
1085.055, 620.4850
1085.537, 621.1050
1086.019, 619.6963
1086.501, 617.3227
1086.984, 617.0599
1087.466, 619.9489
1087.948, 622.0568
1088.430, 620.9256
1088.912, 619.5916
1089.394, 619.3685
1089.876, 619.8891
1090.358, 621.3690
1090.840, 623.0938
1091.323, 623.5963
1091.805, 622.5792
1092.287, 621.7278
1092.769, 621.3868
1093.251, 621.7133
1093.733, 623.1913
1094.215, 624.9552
1094.697, 626.6560
1095.179, 628.0107
1095.662, 628.5262
1096.144, 628.2120
1096.626, 627.9576
1097.108, 628.4471
1097.590, 628.3983
1098.072, 626.4583
1098.554, 624.8675
1099.036, 625.1729
1099.519, 626.5864
1100.001, 628.3392
1100.483, 630.1707
1100.965, 631.3734
1101.447, 631.2913
1101.929, 631.6531
1102.411, 633.4760
1102.893, 635.1441
1103.375, 635.8811
1103.858, 636.1039
1104.340, 636.1315
1104.822, 636.0609
1105.304, 635.9981
1105.786, 635.7462
1106.268, 636.2517
1106.750, 638.1039
1107.232, 640.1803
1107.714, 642.3835
1108.197, 644.4172
1108.679, 645.5187
1109.161, 644.2041
1109.643, 647.5960
1110.125, 649.8260
1110.607, 650.9443
1111.089, 648.2909
1111.571, 649.9951
1112.054, 649.6397
1112.536, 648.9848
1113.018, 650.6623
1113.500, 647.4059
1113.982, 648.5953
1114.464, 647.6973
1114.946, 647.4283
1115.428, 645.0887
1115.911, 643.0919
1116.393, 645.7646
1116.875, 646.9825
1117.357, 644.4759
1117.839, 640.9800
1118.321, 639.3593
1118.803, 639.3647
1119.285, 639.5335
1119.767, 639.8382
1120.250, 640.4211
1120.732, 641.5729
1121.214, 642.4324
1121.696, 642.8356
1122.178, 642.6812
1122.660, 641.5738
1123.142, 640.1080
1123.624, 639.9374
1124.106, 641.2917
1124.589, 642.0961
1125.071, 642.0771
1125.553, 642.5459
1126.035, 644.0539
1126.517, 645.0803
1126.999, 644.5533
1127.481, 643.3939
1127.963, 642.9760
1128.446, 643.2950
1128.928, 644.8766
1129.410, 648.2000
1129.892, 647.5773
1130.374, 641.6230
1130.856, 638.0551
1131.338, 640.4081
1131.820, 644.5683
1132.302, 646.2747
1132.785, 646.1672
1133.267, 646.0413
1133.749, 645.9078
1134.231, 646.0541
1134.713, 646.4658
1135.195, 645.9449
1135.677, 644.1736
1136.159, 643.1202
1136.641, 644.2753
1137.124, 646.4708
1137.606, 648.1495
1138.088, 649.1301
1138.570, 647.9368
1139.052, 645.3221
1139.534, 645.2704
1140.016, 647.9970
1140.498, 650.1742
1140.981, 650.2492
1141.463, 649.7301
1141.945, 650.2973
1142.427, 651.1837
1142.909, 650.7148
1143.391, 649.6827
1143.873, 649.8436
1144.355, 651.0711
1144.838, 652.5665
1145.320, 654.0078
1145.802, 655.0917
1146.284, 655.5365
1146.766, 655.7902
1147.248, 656.1718
1147.730, 656.7313
1148.212, 657.6925
1148.694, 658.7949
1149.177, 659.6959
1149.659, 660.2931
1150.141, 660.3773
1150.623, 659.7814
1151.105, 659.5781
1151.587, 660.8574
1152.069, 662.2521
1152.551, 663.0896
1153.033, 663.3425
1153.516, 662.4600
1153.998, 661.1819
1154.480, 660.9295
1154.962, 661.9326
1155.444, 663.2785
1155.926, 665.2454
1156.408, 666.6399
1156.890, 666.7805
1157.373, 666.6163
1157.855, 666.5124
1158.337, 666.5242
1158.819, 666.4207
1159.301, 666.4172
1159.783, 667.6487
1160.265, 671.2936
1160.747, 673.2702
1161.229, 671.7217
1161.712, 670.7694
1162.194, 671.8212
1162.676, 673.1416
1163.158, 673.6307
1163.640, 673.6083
1164.122, 673.3519
1164.604, 672.7975
1165.086, 674.6888
1165.568, 680.5438
1166.051, 684.1435
1166.533, 684.3961
1167.015, 683.6947
1167.497, 682.6348
1167.979, 682.0807
1168.461, 682.9619
1168.943, 684.9901
1169.425, 687.4374
1169.908, 690.3145
1170.390, 692.7666
1170.872, 694.7722
1171.354, 695.9816
1171.836, 696.2907
1172.318, 697.3346
1172.800, 700.2165
1173.282, 703.2021
1173.765, 703.6942
1174.247, 702.5280
1174.729, 701.5994
1175.211, 701.2221
1175.693, 702.9904
1176.175, 706.5460
1176.657, 709.8641
1177.139, 712.1893
1177.621, 713.3282
1178.104, 712.7380
1178.586, 712.3270
1179.068, 715.0736
1179.550, 718.8222
1180.032, 720.4620
1180.514, 720.9105
1180.996, 721.8613
1181.478, 723.5985
1181.960, 725.9377
1182.443, 728.8292
1182.925, 731.7792
1183.407, 734.4850
1183.889, 737.1837
1184.371, 740.4805
1184.853, 743.3987
1185.335, 744.4891
1185.817, 744.9288
1186.300, 746.8542
1186.782, 750.2795
1187.264, 753.0660
1187.746, 754.5313
1188.228, 755.8616
1188.710, 757.1355
1189.192, 758.4393
1189.674, 759.5806
1190.156, 760.9725
1190.639, 763.3035
1191.121, 765.9266
1191.603, 767.1653
1192.085, 766.7728
1192.567, 768.3412
1193.049, 772.8264
1193.531, 776.4872
1194.013, 778.7396
1194.495, 780.6584
1194.978, 782.6142
1195.460, 784.6738
1195.942, 786.9036
1196.424, 789.2813
1196.906, 791.7965
1197.388, 794.4319
1197.870, 796.4631
1198.352, 797.9510
1198.835, 800.3783
1199.317, 803.9865
1199.799, 807.8734
1200.281, 811.5671
1200.763, 814.9151
1201.245, 817.3427
1201.727, 819.8088
1202.209, 824.7740
1202.692, 830.7896
1203.174, 834.7057
1203.656, 837.0136
1204.138, 839.5974
1204.620, 842.9085
1205.102, 846.3981
1205.584, 849.6909
1206.066, 853.6432
1206.548, 859.6005
1207.031, 865.6063
1207.513, 870.0107
1207.995, 873.7604
1208.477, 877.5095
1208.959, 881.6493
1209.441, 886.9371
1209.923, 893.4124
1210.405, 899.2521
1210.887, 903.6780
1211.370, 907.9567
1211.852, 911.6807
1212.334, 916.0750
1212.816, 922.2732
1213.298, 928.6904
1213.780, 933.4792
1214.262, 937.8317
1214.744, 945.3347
1215.227, 950.5584
1215.709, 955.1473
1216.191, 962.9714
1216.673, 964.8604
1217.155, 970.0548
1217.637, 976.8157
1218.119, 984.6520
1218.601, 991.7493
1219.083, 995.7702
1219.566, 998.8643
1220.048, 1007.332
1220.530, 1019.429
1221.012, 1026.722
1221.494, 1029.965
1221.976, 1033.303
1222.458, 1037.763
1222.940, 1044.146
1223.422, 1052.732
1223.905, 1061.620
1224.387, 1069.353
1224.869, 1076.259
1225.351, 1081.626
1225.833, 1087.333
1226.315, 1096.862
1226.797, 1107.693
1227.279, 1114.812
1227.762, 1118.690
1228.244, 1124.188
1228.726, 1132.894
1229.208, 1142.219
1229.690, 1152.342
1230.172, 1161.402
1230.654, 1167.684
1231.136, 1173.722
1231.619, 1181.162
1232.101, 1189.322
1232.583, 1197.538
1233.065, 1205.667
1233.547, 1212.809
1234.029, 1218.675
1234.511, 1224.300
1234.993, 1229.037
1235.475, 1236.526
1235.958, 1248.297
1236.440, 1259.593
1236.922, 1267.630
1237.404, 1274.122
1237.886, 1281.396
1238.368, 1288.916
1238.850, 1294.711
1239.332, 1299.346
1239.814, 1305.259
1240.297, 1312.390
1240.779, 1319.910
1241.261, 1327.535
1241.743, 1335.129
1242.225, 1342.630
1242.707, 1350.025
1243.189, 1356.268
1243.671, 1363.573
1244.154, 1375.963
1244.636, 1388.791
1245.118, 1396.585
1245.600, 1401.387
1246.082, 1406.596
1246.564, 1412.923
1247.046, 1420.803
1247.528, 1431.171
1248.010, 1440.528
1248.493, 1447.570
1248.975, 1454.596
1249.457, 1462.351
1249.939, 1470.005
1250.421, 1477.211
1250.903, 1483.900
1251.385, 1489.890
1251.867, 1495.341
1252.349, 1501.323
1252.832, 1507.947
1253.314, 1513.442
1253.796, 1517.712
1254.278, 1522.973
1254.760, 1529.693
1255.242, 1535.676
1255.724, 1539.707
1256.206, 1543.706
1256.689, 1550.172
1257.171, 1557.299
1257.653, 1561.418
1258.135, 1564.528
1258.617, 1570.791
1259.099, 1574.503
1259.581, 1583.041
1260.063, 1584.814
1260.546, 1588.457
1261.028, 1595.828
1261.510, 1602.305
1261.992, 1605.755
1262.474, 1607.963
1262.956, 1608.089
1263.438, 1608.882
1263.920, 1612.239
1264.402, 1617.061
1264.885, 1622.552
1265.367, 1628.245
1265.849, 1632.416
1266.331, 1634.835
1266.813, 1637.076
1267.295, 1638.751
1267.777, 1642.627
1268.259, 1649.587
1268.741, 1655.089
1269.224, 1657.138
1269.706, 1657.820
1270.188, 1659.073
1270.670, 1660.231
1271.152, 1660.059
1271.634, 1658.856
1272.116, 1656.433
1272.598, 1653.892
1273.081, 1653.913
1273.563, 1656.215
1274.045, 1659.474
1274.527, 1662.988
1275.009, 1664.404
1275.491, 1660.785
1275.973, 1658.832
1276.455, 1663.894
1276.938, 1668.872
1277.420, 1669.461
1277.902, 1671.566
1278.384, 1669.182
1278.866, 1670.087
1279.348, 1668.236
1279.830, 1663.782
1280.312, 1661.019
1280.794, 1660.540
1281.276, 1659.439
1281.759, 1657.390
1282.241, 1655.798
1282.723, 1655.148
1283.205, 1653.575
1283.687, 1649.817
1284.169, 1646.111
1284.651, 1645.910
1285.133, 1646.919
1285.616, 1644.971
1286.098, 1639.919
##END=



