##NAMES=Winchite
##RRUFFID=R060704
##IDEAL CHEMISTRY=[box]NaCa(Mg_4_Al)Si_8_O_22_(OH)_2_
##LOCALITY=Tirodi mines, Central Provinces, India
##OWNER=RRUFF
##SOURCE=Michael Scott
##DESCRIPTION=Matted group of tan colored bladed crystals, associated with ferriwinchite
##STATUS=The identification of this mineral is confirmed by single-crystal X-ray diffraction and chemical analysis.
##URL=rruff.info/R060704
##MEASURED CHEMISTRY=([box]_0.85_Na_0.09_K_0.06_)_Σ=1_(Ca_1.36_Na_0.64_)_Σ=2_(Mg_4.12_Fe^3+^_0.38_Mn_0.23_Fe^2+^_0.16_Al_0.11_)_Σ=5_Si_8.00_O_22_((OH)_1.90_F_0.10_)_Σ=2_ ; = gray phase. The bright phase is ferriwinchite
198.666, 60600.531
199.148, 60769.359
199.631, 60942.660
200.113, 61118.301
200.595, 61278.809
201.077, 61398.719
201.559, 61458.801
202.041, 61556.051
202.523, 61717.102
203.005, 61897.551
203.488, 62076.969
203.970, 62247.648
204.452, 62381.711
204.934, 62437.750
205.416, 62391.770
205.898, 62408.289
206.380, 62543.449
206.862, 62699.320
207.344, 62809.500
207.827, 62867.039
208.309, 62889.980
208.791, 62886.488
209.273, 62851.859
209.755, 62845.711
210.237, 62893.691
210.719, 62948.070
211.201, 62983.129
211.684, 62996.172
212.166, 62986.949
212.648, 62945.172
213.130, 62871.629
213.612, 62854.238
214.094, 62921.520
214.576, 63014.781
215.058, 63130.020
215.540, 63252.211
216.023, 63325.828
216.505, 63300.371
216.987, 63185.102
217.469, 63127.340
217.951, 63172.051
218.433, 63223.871
218.915, 63241.340
219.397, 63230.410
219.880, 63212.301
220.362, 63197.379
220.844, 63187.578
221.326, 63193.699
221.808, 63226.648
222.290, 63260.828
222.772, 63286.250
223.254, 63306.070
223.736, 63330.828
224.219, 63368.570
224.701, 63410.828
225.183, 63419.980
225.665, 63372.891
226.147, 63324.699
226.629, 63252.789
227.111, 63192.160
227.593, 63208.281
228.076, 63333.781
228.558, 63535.109
229.040, 63721.250
229.522, 63873.871
230.004, 64036.160
230.486, 64216.469
230.968, 64408.320
231.450, 64626.672
231.932, 64879.371
232.415, 65106.520
232.897, 65187.070
233.379, 65014.160
233.861, 64860.672
234.343, 64731.250
234.825, 64628.141
235.307, 64565.730
235.789, 64545.000
236.271, 64535.059
236.754, 64491.309
237.236, 64399.238
237.718, 64299.172
238.200, 64155.520
238.682, 64027.230
239.164, 63976.070
239.646, 64003.820
240.128, 64045.570
240.611, 64023.141
241.093, 63906.250
241.575, 63841.961
242.057, 63856.160
242.539, 63894.488
243.021, 63940.719
243.503, 63986.000
243.985, 64012.879
244.467, 64000.500
244.950, 63940.949
245.432, 63924.809
245.914, 64000.441
246.396, 64066.230
246.878, 64073.238
247.360, 64036.609
247.842, 63996.531
248.324, 63978.141
248.807, 63982.828
249.289, 64039.090
249.771, 64216.488
250.253, 64370.359
250.735, 64461.590
251.217, 64508.020
251.699, 64534.270
252.181, 64550.570
252.663, 64567.781
253.146, 64636.398
253.628, 64828.059
254.110, 64979.320
254.592, 65067.840
255.074, 65108.461
255.556, 65106.660
256.038, 65064.699
256.520, 65007.750
257.003, 64996.910
257.485, 65074.090
257.967, 65120.961
258.449, 65122.801
258.931, 65098.852
259.413, 65050.969
259.895, 64984.559
260.377, 64928.648
260.859, 64936.059
261.342, 65044.211
261.824, 65103.371
262.306, 65058.988
262.788, 65004.379
263.270, 64988.398
263.752, 65015.129
264.234, 65059.840
264.716, 65103.609
265.198, 65148.270
265.681, 65176.672
266.163, 65171.199
266.645, 65165.699
267.127, 65176.750
267.609, 65200.262
268.091, 65223.680
268.573, 65249.680
269.056, 65271.262
269.538, 65228.941
270.020, 65050.738
270.502, 64922.141
270.984, 64956.730
271.466, 65079.672
271.948, 65165.289
272.430, 65151.000
272.912, 65067.359
273.395, 64964.340
273.877, 64816.359
274.359, 64721.750
274.841, 64746.801
275.323, 64836.191
275.805, 64947.539
276.287, 65083.648
276.769, 65202.070
277.251, 65227.289
277.734, 65151.711
278.216, 65123.629
278.698, 65216.641
279.180, 65363.430
279.662, 65492.121
280.144, 65596.633
280.626, 65691.203
281.108, 65785.898
281.591, 65878.797
282.073, 65965.539
282.555, 66051.828
283.037, 66118.320
283.519, 66126.523
284.001, 66079.406
284.483, 66063.906
284.965, 66149.062
285.447, 66277.758
285.930, 66353.906
286.412, 66361.883
286.894, 66336.023
287.376, 66301.219
287.858, 66257.922
288.340, 66204.977
288.822, 66127.789
289.304, 66052.156
289.786, 66007.312
290.269, 65991.422
290.751, 65972.031
291.233, 65923.961
291.715, 65855.422
292.197, 65813.844
292.679, 65793.031
293.161, 65803.273
293.643, 65871.078
294.125, 65973.969
294.608, 66059.648
295.090, 66102.492
295.572, 66116.273
296.054, 66136.227
296.536, 66143.859
297.018, 66182.430
297.500, 66267.078
297.983, 66379.820
298.465, 66512.172
298.947, 66658.406
299.429, 66790.750
299.911, 66864.602
300.393, 66846.289
300.875, 66847.656
301.357, 66876.711
301.839, 66915.633
302.322, 66964.492
302.804, 67015.727
303.286, 67047.797
303.768, 67037.648
304.250, 66981.844
304.732, 66942.094
305.214, 66906.438
305.696, 66900.617
306.178, 66971.469
306.661, 67074.094
307.143, 67125.133
307.625, 67068.883
308.107, 66940.969
308.589, 66870.906
309.071, 66886.578
309.553, 66918.797
310.035, 66989.359
310.517, 67050.133
311.000, 67041.797
311.482, 66944.703
311.964, 66820.891
312.446, 66765.406
312.928, 66793.750
313.410, 66811.047
313.892, 66786.406
314.374, 66759.133
314.857, 66757.508
315.339, 66780.992
315.821, 66802.102
316.303, 66791.500
316.785, 66757.547
317.267, 66750.203
317.749, 66787.500
318.231, 66827.344
318.714, 66834.328
319.196, 66821.328
319.678, 66820.703
320.160, 66857.492
320.642, 66906.500
321.124, 66921.852
321.606, 66898.789
322.088, 66899.711
322.570, 66976.500
323.052, 67093.781
323.535, 67169.641
324.017, 67177.148
324.499, 67176.453
324.981, 67189.719
325.463, 67220.531
325.945, 67289.148
326.427, 67412.453
326.909, 67552.156
327.392, 67637.742
327.874, 67657.852
328.356, 67675.930
328.838, 67715.109
329.320, 67751.297
329.802, 67755.109
330.284, 67723.531
330.766, 67679.547
331.249, 67643.820
331.731, 67616.289
332.213, 67606.539
332.695, 67633.453
333.177, 67658.430
333.659, 67660.758
334.141, 67647.453
334.623, 67640.117
335.105, 67654.227
335.588, 67680.430
336.070, 67673.781
336.552, 67611.844
337.034, 67544.172
337.516, 67453.422
337.998, 67371.117
338.480, 67337.852
338.962, 67363.430
339.444, 67409.156
339.927, 67409.273
340.409, 67337.523
340.891, 67313.461
341.373, 67391.133
341.855, 67478.469
342.337, 67527.594
342.819, 67543.461
343.301, 67562.883
343.784, 67616.859
344.266, 67698.172
344.748, 67764.461
345.230, 67799.750
345.712, 67849.977
346.194, 67957.688
346.676, 68088.523
347.158, 68191.961
347.641, 68249.797
348.123, 68278.961
348.605, 68296.680
349.087, 68302.961
349.569, 68294.758
350.051, 68258.227
350.533, 68218.930
351.015, 68219.594
351.497, 68270.750
351.979, 68307.094
352.462, 68301.977
352.944, 68264.094
353.426, 68203.648
353.908, 68121.547
354.390, 68028.594
354.872, 67928.062
355.354, 67818.891
355.836, 67745.992
356.319, 67742.672
356.801, 67746.719
357.283, 67721.609
357.765, 67671.609
358.247, 67617.156
358.729, 67570.188
359.211, 67527.773
359.693, 67477.609
360.176, 67403.930
360.658, 67342.938
361.140, 67288.719
361.622, 67253.039
362.104, 67243.648
362.586, 67264.156
363.068, 67321.148
363.550, 67435.367
364.032, 67633.297
364.515, 67784.250
364.997, 67833.297
365.479, 67884.891
365.961, 67973.359
366.443, 68098.742
366.925, 68255.883
367.407, 68452.891
367.889, 68670.344
368.371, 68835.094
368.854, 68918.906
369.336, 69017.008
369.818, 69168.594
370.300, 69351.711
370.782, 69557.117
371.264, 69792.797
371.746, 70007.547
372.228, 70153.062
372.711, 70236.211
373.193, 70300.547
373.675, 70368.758
374.157, 70396.742
374.639, 70319.883
375.121, 70148.508
375.603, 69958.797
376.085, 69757.594
376.568, 69554.969
377.050, 69367.023
377.532, 69192.930
378.014, 69001.023
378.496, 68756.789
378.978, 68480.094
379.460, 68297.539
379.942, 68273.422
380.424, 68247.977
380.906, 68181.789
381.389, 68091.844
381.871, 68002.062
382.353, 67920.477
382.835, 67838.594
383.317, 67737.992
383.799, 67591.062
384.281, 67506.703
384.763, 67527.539
385.246, 67563.797
385.728, 67564.523
386.210, 67541.883
386.692, 67543.867
387.174, 67613.273
387.656, 67727.453
388.138, 67777.172
388.620, 67700.727
389.103, 67685.281
389.585, 67851.812
390.067, 68069.172
390.549, 68205.859
391.031, 68225.969
391.513, 68207.906
391.995, 68219.977
392.477, 68258.109
392.959, 68295.508
393.442, 68326.094
393.924, 68356.742
394.406, 68402.969
394.888, 68459.359
395.370, 68491.781
395.852, 68482.812
396.334, 68452.000
396.816, 68408.633
397.298, 68356.273
397.781, 68316.227
398.263, 68304.258
398.745, 68308.727
399.227, 68290.117
399.709, 68252.820
400.191, 68189.133
400.673, 68061.453
401.155, 67925.070
401.638, 67843.281
402.120, 67826.273
402.602, 67833.883
403.084, 67820.180
403.566, 67780.062
404.048, 67759.039
404.530, 67785.469
405.012, 67803.523
405.495, 67785.992
405.977, 67751.648
406.459, 67736.820
406.941, 67763.562
407.423, 67804.727
407.905, 67792.203
408.387, 67703.023
408.869, 67668.523
409.351, 67763.797
409.833, 67893.344
410.316, 67993.453
410.798, 68059.438
411.280, 68101.719
411.762, 68096.219
412.244, 68077.031
412.726, 68132.820
413.208, 68279.594
413.690, 68408.133
414.173, 68432.844
414.655, 68375.148
415.137, 68351.500
415.619, 68405.109
416.101, 68440.938
416.583, 68387.930
417.065, 68296.227
417.547, 68265.930
418.030, 68328.773
418.512, 68416.867
418.994, 68433.250
419.476, 68359.172
419.958, 68269.680
420.440, 68127.789
420.922, 68008.844
421.404, 67956.859
421.886, 67958.602
422.369, 67981.523
422.851, 68009.938
423.333, 68036.477
423.815, 68038.000
424.297, 68009.422
424.779, 67968.469
425.261, 67894.031
425.743, 67825.227
426.225, 67793.523
426.708, 67801.656
427.190, 67826.273
427.672, 67871.828
428.154, 67920.773
428.636, 67906.570
429.118, 67809.117
429.600, 67713.797
430.082, 67673.672
430.565, 67682.617
431.047, 67716.867
431.529, 67826.383
432.011, 67899.148
432.493, 67845.570
432.975, 67719.852
433.457, 67632.648
433.939, 67619.648
434.422, 67634.094
434.904, 67608.461
435.386, 67520.359
435.868, 67472.461
436.350, 67473.547
436.832, 67501.430
437.314, 67588.133
437.796, 67690.773
438.278, 67709.539
438.760, 67575.656
439.243, 67368.648
439.725, 67318.633
440.207, 67507.406
440.689, 67627.906
441.171, 67552.938
441.653, 67438.320
442.135, 67368.633
442.617, 67353.844
443.100, 67384.547
443.582, 67499.773
444.064, 67647.477
444.546, 67685.727
445.028, 67591.938
445.510, 67520.211
445.992, 67587.477
446.474, 67734.523
446.957, 67782.289
447.439, 67681.969
447.921, 67565.711
448.403, 67477.297
448.885, 67404.727
449.367, 67322.703
449.849, 67227.969
450.331, 67159.039
450.813, 67166.383
451.296, 67265.773
451.778, 67297.938
452.260, 67220.156
452.742, 67129.383
453.224, 67027.742
453.706, 66939.406
454.188, 66902.133
454.670, 66931.891
455.152, 66990.891
455.635, 67022.789
456.117, 67024.844
456.599, 67022.344
457.081, 67006.797
457.563, 66999.867
458.045, 67019.203
458.527, 67057.898
459.009, 67093.453
459.492, 67105.281
459.974, 67116.789
460.456, 67158.023
460.938, 67224.602
461.420, 67292.469
461.902, 67354.383
462.384, 67407.062
462.866, 67444.156
463.349, 67466.078
463.831, 67472.547
464.313, 67457.719
464.795, 67432.820
465.277, 67392.711
465.759, 67348.523
466.241, 67336.430
466.723, 67387.562
467.205, 67479.039
467.688, 67506.438
468.170, 67419.883
468.652, 67361.867
469.134, 67377.047
469.616, 67409.844
470.098, 67412.344
470.580, 67381.758
471.062, 67357.891
471.544, 67389.023
472.027, 67449.211
472.509, 67451.500
472.991, 67382.203
473.473, 67311.094
473.955, 67274.602
474.437, 67264.320
474.919, 67255.062
475.401, 67239.906
475.884, 67238.492
476.366, 67280.211
476.848, 67330.656
477.330, 67343.094
477.812, 67309.977
478.294, 67248.031
478.776, 67163.594
479.258, 67057.633
479.741, 67020.797
480.223, 67163.047
480.705, 67250.047
481.187, 67144.047
481.669, 67008.812
482.151, 67067.133
482.633, 67372.219
483.115, 67697.133
483.597, 67775.156
484.079, 67621.547
484.562, 67465.141
485.044, 67291.594
485.526, 67170.141
486.008, 67190.562
486.490, 67289.609
486.972, 67346.656
487.454, 67315.344
487.936, 67275.633
488.419, 67274.289
488.901, 67301.023
489.383, 67338.047
489.865, 67380.500
490.347, 67424.977
490.829, 67474.094
491.311, 67536.148
491.793, 67529.727
492.276, 67369.641
492.758, 67244.633
493.240, 67228.680
493.722, 67282.594
494.204, 67369.203
494.686, 67473.000
495.168, 67540.688
495.650, 67467.797
496.132, 67244.281
496.615, 67098.648
497.097, 67091.461
497.579, 67103.477
498.061, 67049.367
498.543, 66957.719
499.025, 66895.852
499.507, 66902.094
499.989, 66914.891
500.471, 66879.430
500.954, 66814.023
501.436, 66766.438
501.918, 66750.359
502.400, 66753.258
502.882, 66761.969
503.364, 66777.953
503.846, 66791.531
504.328, 66814.383
504.810, 66823.227
505.293, 66787.656
505.775, 66739.852
506.257, 66732.656
506.739, 66786.469
507.221, 66863.094
507.703, 66902.852
508.185, 66901.906
508.668, 66936.453
509.150, 67048.391
509.632, 67142.906
510.114, 67130.289
510.596, 67058.852
511.078, 67041.281
511.560, 67146.422
512.042, 67253.672
512.524, 67268.102
513.006, 67218.008
513.489, 67149.227
513.971, 67070.797
514.453, 67047.383
514.935, 67172.461
515.417, 67475.211
515.899, 67656.273
516.381, 67641.906
516.864, 67603.703
517.346, 67586.562
517.828, 67578.203
518.310, 67555.117
518.792, 67510.148
519.274, 67460.977
519.756, 67425.211
520.238, 67402.969
520.720, 67399.344
521.203, 67410.156
521.685, 67448.383
522.167, 67572.289
522.649, 67721.578
523.131, 67772.273
523.613, 67661.289
524.095, 67531.047
524.577, 67438.078
525.059, 67381.812
525.542, 67371.680
526.024, 67406.570
526.506, 67453.906
526.988, 67484.953
527.470, 67500.141
527.952, 67503.594
528.434, 67436.750
528.916, 67434.102
529.398, 67594.344
529.881, 67783.727
530.363, 67854.180
530.845, 67785.344
531.327, 67704.180
531.809, 67743.891
532.291, 67865.703
532.773, 67906.930
533.255, 67844.703
533.737, 67807.039
534.220, 67868.203
534.702, 67995.094
535.184, 68106.922
535.666, 68193.633
536.148, 68289.203
536.630, 68417.297
537.112, 68547.781
537.594, 68647.102
538.077, 68716.867
538.559, 68782.133
539.041, 68860.477
539.523, 68944.500
540.005, 69007.156
540.487, 69052.820
540.969, 69065.656
541.451, 69015.883
541.933, 68954.633
542.416, 68928.688
542.898, 68927.594
543.380, 68889.547
543.862, 68768.906
544.344, 68603.711
544.826, 68434.180
545.308, 68262.867
545.791, 68100.398
546.273, 67946.711
546.755, 67815.227
547.237, 67713.758
547.719, 67612.062
548.201, 67521.422
548.683, 67464.992
549.165, 67400.281
549.647, 67327.703
550.130, 67223.719
550.612, 67160.297
551.094, 67080.602
551.576, 67000.250
552.058, 66933.594
552.540, 66878.047
553.022, 66831.227
553.504, 66792.938
553.987, 66759.812
554.469, 66733.156
554.951, 66743.078
555.433, 66744.117
555.915, 66736.758
556.397, 66695.836
556.879, 66698.242
557.361, 66683.289
557.843, 66676.938
558.326, 66676.891
558.808, 66711.969
559.290, 66677.023
559.772, 66583.672
560.254, 66548.172
560.736, 66627.281
561.218, 66673.727
561.700, 66632.539
562.182, 66574.633
562.665, 66563.430
563.147, 66600.008
563.629, 66630.648
564.111, 66627.273
564.593, 66592.992
565.075, 66509.523
565.557, 66382.891
566.039, 66311.688
566.521, 66350.078
567.004, 66433.742
567.486, 66456.789
567.968, 66401.781
568.450, 66329.227
568.932, 66214.703
569.414, 66107.828
569.896, 66028.477
570.378, 65977.031
570.860, 65957.023
571.343, 65971.031
571.825, 65992.172
572.307, 65975.727
572.789, 65923.047
573.271, 65896.094
573.753, 65906.398
574.235, 65930.438
574.718, 65966.477
575.200, 66003.727
575.682, 66011.609
576.164, 65959.148
576.646, 65926.992
577.128, 65974.719
577.610, 66043.930
578.092, 66051.203
578.574, 65997.641
579.057, 65958.906
579.539, 65995.828
580.021, 66090.828
580.503, 66170.320
580.985, 66240.102
581.467, 66279.539
581.949, 66261.094
582.431, 66227.906
582.914, 66204.109
583.396, 66189.867
583.878, 66177.828
584.360, 66165.406
584.842, 66152.961
585.324, 66149.883
585.806, 66147.773
586.288, 66105.273
586.770, 66005.758
587.253, 65921.203
587.735, 65954.703
588.217, 66130.312
588.699, 66213.797
589.181, 66136.320
589.663, 66044.891
590.145, 65957.383
590.627, 65880.148
591.109, 65823.297
591.592, 65787.820
592.074, 65750.906
592.556, 65683.227
593.038, 65602.812
593.520, 65552.938
594.002, 65535.211
594.484, 65535.230
594.966, 65547.062
595.448, 65571.133
595.931, 65614.344
596.413, 65713.156
596.895, 65739.617
597.377, 65619.781
597.859, 65496.660
598.341, 65460.691
598.823, 65479.379
599.305, 65475.230
599.787, 65413.352
600.270, 65341.488
600.752, 65331.910
601.234, 65378.270
601.716, 65403.898
602.198, 65399.871
602.680, 65380.238
603.162, 65339.980
603.644, 65293.852
604.127, 65292.102
604.609, 65380.660
605.091, 65433.488
605.573, 65392.102
606.055, 65323.809
606.537, 65285.602
607.019, 65279.559
607.501, 65280.680
607.984, 65272.039
608.466, 65263.160
608.948, 65285.820
609.430, 65347.871
609.912, 65374.109
610.394, 65329.531
610.876, 65276.500
611.358, 65264.070
611.841, 65283.969
612.323, 65313.141
612.805, 65375.660
613.287, 65413.320
613.769, 65382.539
614.251, 65319.461
614.733, 65271.551
615.215, 65246.512
615.697, 65221.891
616.180, 65174.020
616.662, 65116.781
617.144, 65123.859
617.626, 65232.711
618.108, 65296.051
618.590, 65259.621
619.072, 65185.020
619.554, 65114.559
620.036, 65049.398
620.519, 64992.051
621.001, 64925.531
621.483, 64884.238
621.965, 64908.910
622.447, 64970.789
622.929, 65019.289
623.411, 65040.289
623.893, 65039.148
624.375, 65015.371
624.858, 64972.309
625.340, 64969.320
625.822, 65034.961
626.304, 65084.129
626.786, 65068.012
627.268, 65044.969
627.750, 65088.121
628.232, 65191.309
628.714, 65223.840
629.197, 65078.379
629.679, 64889.449
630.161, 64741.430
630.643, 64647.898
631.125, 64656.160
631.607, 64778.961
632.089, 64927.551
632.571, 64995.359
633.054, 64980.641
633.536, 64956.250
634.018, 64910.191
634.500, 64873.789
634.982, 64856.359
635.464, 64851.160
635.946, 64857.020
636.428, 64872.750
636.911, 64880.172
637.393, 64856.461
637.875, 64831.000
638.357, 64841.930
638.839, 64876.059
639.321, 64887.699
639.803, 64860.000
640.285, 64825.922
640.768, 64834.602
641.250, 64892.141
641.732, 64900.609
642.214, 64816.969
642.696, 64750.281
643.178, 64739.930
643.660, 64757.469
644.142, 64782.059
644.624, 64811.320
645.107, 64829.000
645.589, 64813.762
646.071, 64795.012
646.553, 64811.430
647.035, 64851.609
647.517, 64880.539
647.999, 64885.719
648.481, 64869.051
648.963, 64825.230
649.446, 64749.730
649.928, 64723.430
650.410, 64787.590
650.892, 64834.211
651.374, 64787.809
651.856, 64730.961
652.338, 64754.578
652.820, 64867.500
653.302, 64987.949
653.785, 65095.102
654.267, 65181.480
654.749, 65236.090
655.231, 65263.578
655.713, 65270.359
656.195, 65259.148
656.677, 65250.078
657.159, 65274.609
657.641, 65333.379
658.124, 65349.930
658.606, 65278.762
659.088, 65254.379
659.570, 65367.621
660.052, 65522.730
660.534, 65636.469
661.016, 65704.477
661.498, 65725.906
661.981, 65650.906
662.463, 65575.383
662.945, 65575.938
663.427, 65630.523
663.909, 65693.453
664.391, 65749.703
664.873, 65804.648
665.355, 65865.867
665.838, 65932.320
666.320, 65986.039
666.802, 66013.656
667.284, 66071.812
667.766, 66208.703
668.248, 66358.594
668.730, 66436.070
669.212, 66441.547
669.695, 66473.633
670.177, 66570.797
670.659, 66677.844
671.141, 66776.156
671.623, 66860.562
672.105, 66921.727
672.587, 66959.922
673.069, 66992.883
673.551, 67036.180
674.034, 67087.406
674.516, 67144.969
674.998, 67214.547
675.480, 67241.422
675.962, 67200.039
676.444, 67126.578
676.926, 67055.031
677.408, 66985.594
677.890, 66920.922
678.373, 66871.367
678.855, 66814.281
679.337, 66766.422
679.819, 66693.008
680.301, 66536.383
680.783, 66308.883
681.265, 66094.523
681.747, 65963.398
682.229, 65867.141
682.712, 65701.773
683.194, 65475.879
683.676, 65288.059
684.158, 65160.781
684.640, 65066.398
685.122, 64984.789
685.604, 64914.211
686.086, 64840.859
686.568, 64745.078
687.051, 64673.430
687.533, 64635.941
688.015, 64618.461
688.497, 64625.191
688.979, 64643.602
689.461, 64642.129
689.943, 64603.539
690.425, 64547.672
690.908, 64467.051
691.390, 64388.801
691.872, 64401.000
692.354, 64510.590
692.836, 64606.648
693.318, 64612.910
693.800, 64551.910
694.282, 64491.691
694.765, 64424.578
695.247, 64376.430
695.729, 64364.090
696.211, 64353.340
696.693, 64321.199
697.175, 64280.820
697.657, 64261.961
698.139, 64280.879
698.622, 64283.320
699.104, 64217.879
699.586, 64137.410
700.068, 64113.691
700.550, 64131.641
701.032, 64122.102
701.514, 64052.281
701.996, 63958.109
702.478, 63894.730
702.961, 63863.430
703.443, 63835.770
703.925, 63809.770
704.407, 63795.012
704.889, 63814.980
705.371, 63836.039
705.853, 63800.871
706.335, 63703.750
706.817, 63597.020
707.300, 63434.629
707.782, 63321.750
708.264, 63346.340
708.746, 63438.910
709.228, 63503.320
709.710, 63515.539
710.192, 63507.469
710.674, 63506.500
711.156, 63504.879
711.639, 63471.191
712.121, 63409.699
712.603, 63392.609
713.085, 63449.059
713.567, 63518.840
714.049, 63534.559
714.531, 63496.859
715.013, 63485.000
715.495, 63511.301
715.978, 63546.449
716.460, 63619.719
716.942, 63673.480
717.424, 63647.621
717.906, 63560.270
718.388, 63488.480
718.870, 63458.410
719.352, 63458.879
719.835, 63505.680
720.317, 63567.559
720.799, 63585.340
721.281, 63557.328
721.763, 63526.629
722.245, 63521.230
722.727, 63533.590
723.209, 63550.211
723.692, 63574.539
724.174, 63578.539
724.656, 63557.891
725.138, 63520.852
725.620, 63467.629
726.102, 63402.441
726.584, 63331.070
727.066, 63241.629
727.549, 63183.609
728.031, 63194.852
728.513, 63212.789
728.995, 63195.230
729.477, 63158.711
729.959, 63137.809
730.441, 63142.410
730.923, 63148.570
731.405, 63132.859
731.888, 63102.172
732.370, 63065.340
732.852, 63024.602
733.334, 63012.051
733.816, 63043.789
734.298, 63071.371
734.780, 63028.359
735.262, 62912.719
735.744, 62861.949
736.227, 62942.441
736.709, 62978.629
737.191, 62866.352
737.673, 62758.410
738.155, 62794.230
738.637, 62944.480
739.119, 63054.980
739.601, 63053.961
740.083, 63038.301
740.566, 63097.398
741.048, 63154.680
741.530, 63078.840
742.012, 62892.629
742.494, 62744.828
742.976, 62725.379
743.458, 62780.590
743.940, 62828.039
744.422, 62867.078
744.905, 62879.070
745.387, 62852.699
745.869, 62848.961
746.351, 62907.262
746.833, 63002.461
747.315, 63086.480
747.797, 63165.820
748.279, 63210.672
748.762, 63221.859
749.244, 63198.969
749.726, 63105.820
750.208, 62998.141
750.690, 62948.051
751.172, 62964.141
751.654, 62981.090
752.136, 62964.059
752.619, 62929.578
753.101, 62887.449
753.583, 62842.270
754.065, 62808.000
754.547, 62785.891
755.029, 62754.301
755.511, 62688.352
755.993, 62608.070
756.476, 62598.602
756.958, 62677.020
757.440, 62691.090
757.922, 62594.230
758.404, 62477.199
758.886, 62389.328
759.368, 62335.270
759.850, 62338.449
760.332, 62460.461
760.815, 62521.250
761.297, 62427.031
761.779, 62348.770
762.261, 62434.031
762.743, 62585.840
763.225, 62615.230
763.707, 62464.512
764.189, 62316.988
764.671, 62304.910
765.154, 62372.219
765.636, 62474.789
766.118, 62589.961
766.600, 62648.270
767.082, 62628.852
767.564, 62593.500
768.046, 62614.629
768.528, 62677.551
769.010, 62674.719
769.493, 62586.191
769.975, 62528.578
770.457, 62534.781
770.939, 62568.430
771.421, 62619.602
771.903, 62676.711
772.385, 62668.051
772.867, 62507.691
773.349, 62409.059
773.832, 62475.000
774.314, 62535.949
774.796, 62454.180
775.278, 62289.551
775.760, 62174.422
776.242, 62154.398
776.724, 62164.660
777.206, 62146.172
777.689, 62135.988
778.171, 62189.852
778.653, 62298.840
779.135, 62450.750
779.617, 62637.070
780.099, 62760.160
780.581, 62682.211
781.063, 62443.219
781.545, 62334.910
782.028, 62386.539
782.510, 62376.129
782.992, 62207.039
783.474, 62049.012
783.956, 62086.629
784.438, 62284.879
784.920, 62358.340
785.403, 62183.789
785.885, 62065.090
786.367, 62054.449
786.849, 62072.051
787.331, 62002.578
787.813, 61920.773
788.295, 61992.391
788.777, 62026.770
789.259, 62025.906
789.742, 61884.246
790.224, 61924.395
790.706, 61891.680
791.188, 61855.977
791.670, 61921.715
792.152, 61800.535
792.634, 61864.660
793.116, 61854.820
793.598, 61878.828
794.081, 61829.527
794.563, 61802.871
795.045, 61849.551
795.527, 61855.621
796.009, 61797.883
796.491, 61824.047
796.973, 61700.301
797.455, 61708.105
797.938, 61772.660
798.420, 61718.609
798.902, 61746.113
799.384, 61742.551
799.866, 61597.836
800.348, 61698.609
800.830, 61693.215
801.312, 61578.812
801.794, 61671.176
802.277, 61571.797
802.759, 61540.863
803.241, 61561.430
803.723, 61545.531
804.205, 61521.281
804.687, 61544.699
805.169, 61566.148
805.651, 61544.480
806.133, 61504.441
806.616, 61472.898
807.098, 61456.891
807.580, 61500.020
808.062, 61606.090
808.544, 61681.910
809.026, 61659.391
809.508, 61582.070
809.990, 61560.910
810.472, 61608.238
810.955, 61637.230
811.437, 61647.801
811.919, 61628.891
812.401, 61537.660
812.883, 61444.281
813.365, 61480.578
813.847, 61675.609
814.330, 61775.820
814.812, 61718.922
815.294, 61638.871
815.776, 61537.371
816.258, 61456.410
816.740, 61446.711
817.222, 61494.629
817.704, 61533.309
818.186, 61528.820
818.669, 61525.461
819.151, 61570.469
819.633, 61624.051
820.115, 61639.820
820.597, 61617.191
821.079, 61565.430
821.561, 61489.172
822.043, 61413.078
822.526, 61368.328
823.008, 61348.828
823.490, 61335.488
823.972, 61327.750
824.454, 61319.211
824.936, 61306.629
825.418, 61300.398
825.900, 61310.719
826.382, 61336.602
826.865, 61363.871
827.347, 61357.551
827.829, 61267.797
828.311, 61374.793
828.793, 61434.027
829.275, 61448.074
829.757, 61281.562
830.239, 61348.203
830.721, 61321.402
831.204, 61290.777
831.686, 61390.227
832.168, 61249.980
832.650, 61347.367
833.132, 61349.895
833.614, 61395.840
834.096, 61347.770
834.578, 61328.742
835.060, 61324.180
835.543, 61238.789
836.025, 61284.340
836.507, 61379.891
836.989, 61397.988
837.471, 61339.020
837.953, 61282.078
838.435, 61269.641
838.917, 61274.559
839.400, 61265.590
839.882, 61242.160
840.364, 61187.359
840.846, 61104.039
841.328, 61066.449
841.810, 61106.770
842.292, 61161.699
842.774, 61149.480
843.256, 61082.090
843.739, 61098.309
844.221, 61247.059
844.703, 61310.422
845.185, 61200.980
845.667, 61080.039
846.149, 61061.020
846.631, 61114.051
847.114, 61148.879
847.596, 61152.340
848.078, 61167.059
848.560, 61221.160
849.042, 61254.578
849.524, 61209.609
850.006, 61148.859
850.488, 61155.379
850.970, 61120.930
851.453, 61160.996
851.935, 61182.973
852.417, 61187.836
852.899, 61124.320
853.381, 61149.098
853.863, 61138.496
854.345, 61126.438
854.827, 61163.648
855.309, 61110.074
855.792, 61141.672
856.274, 61128.828
856.756, 61141.430
857.238, 61123.090
857.720, 61084.109
858.202, 61090.469
858.684, 61160.930
859.166, 61225.121
859.648, 61208.289
860.131, 61134.469
860.613, 61087.379
861.095, 61066.680
861.577, 61086.359
862.059, 61164.180
862.541, 61200.828
863.023, 61118.629
863.505, 60978.270
863.987, 60919.379
864.470, 60964.359
864.952, 60996.551
865.434, 61028.840
865.916, 61026.320
866.398, 60936.020
866.880, 60841.141
867.362, 60842.578
867.844, 60926.262
868.327, 60964.129
868.809, 60905.898
869.291, 60859.711
869.773, 60853.141
870.255, 60857.180
870.737, 60868.969
871.219, 60872.160
871.701, 60824.680
872.183, 60710.891
872.666, 60641.719
873.148, 60708.590
873.630, 60806.020
874.112, 60847.148
874.594, 60865.398
875.076, 60917.898
875.558, 61007.211
876.041, 61098.199
876.523, 61176.051
877.005, 61224.211
877.487, 61195.180
877.969, 61130.711
878.451, 61139.238
878.933, 61207.641
879.415, 61224.391
879.897, 61145.160
880.380, 61042.000
880.862, 60989.922
881.344, 60989.500
881.826, 61067.301
882.308, 61222.238
882.790, 61329.340
883.272, 61364.000
883.754, 61350.480
884.237, 61293.988
884.719, 61225.121
885.201, 61231.328
885.683, 61342.289
886.165, 61391.898
886.647, 61362.750
887.129, 61310.262
887.611, 61232.379
888.093, 61165.879
888.576, 61153.930
889.058, 61195.391
889.540, 61250.090
890.022, 61345.789
890.504, 61412.539
890.986, 61407.590
891.468, 61411.480
891.950, 61504.301
892.432, 61623.191
892.915, 61640.570
893.397, 61522.930
893.879, 61442.551
894.361, 61477.660
894.843, 61517.320
895.325, 61501.410
895.807, 61469.801
896.289, 61464.070
896.771, 61486.160
897.254, 61522.988
897.736, 61582.020
898.218, 61618.738
898.700, 61589.199
899.182, 61533.461
899.664, 61485.379
900.146, 61448.020
900.628, 61418.141
901.110, 61395.570
901.593, 61385.891
902.075, 61392.141
902.557, 61415.000
903.039, 61481.059
903.521, 61558.090
904.003, 61550.539
904.485, 61464.730
904.968, 61405.262
905.450, 61426.711
905.932, 61482.359
906.414, 61527.762
906.896, 61551.371
907.378, 61477.801
907.860, 61315.941
908.342, 61200.809
908.824, 61168.441
909.307, 61162.941
909.789, 61139.969
910.271, 61106.590
910.753, 61084.762
911.235, 61075.352
911.717, 61061.699
912.199, 61040.559
912.681, 61027.648
913.164, 61037.199
913.646, 61040.281
914.128, 60996.789
914.610, 60909.371
915.092, 60837.570
915.574, 60787.250
916.056, 60738.559
916.538, 60681.449
917.020, 60637.941
917.503, 60628.520
917.985, 60638.359
918.467, 60637.391
918.949, 60624.070
919.431, 60607.422
919.913, 60582.031
920.395, 60560.910
920.877, 60549.301
921.359, 60541.109
921.842, 60536.090
922.324, 60530.379
922.806, 60510.949
923.288, 60468.090
923.770, 60430.750
924.252, 60398.000
924.734, 60380.879
925.216, 60396.930
925.698, 60425.691
926.181, 60428.410
926.663, 60410.211
927.145, 60439.648
927.627, 60601.699
928.109, 60726.840
928.591, 60684.910
929.073, 60605.289
929.555, 60600.910
930.037, 60654.660
930.520, 60727.379
931.002, 60803.371
931.484, 60821.520
931.966, 60676.160
932.448, 60519.469
932.930, 60508.961
933.412, 60568.512
933.894, 60587.469
934.377, 60560.738
934.859, 60531.711
935.341, 60520.320
935.823, 60521.320
936.305, 60545.352
936.787, 60569.379
937.269, 60549.211
937.751, 60499.602
938.234, 60459.559
938.716, 60437.520
939.198, 60422.578
939.680, 60408.180
940.162, 60394.289
940.644, 60379.219
941.126, 60364.570
941.608, 60351.102
942.091, 60341.230
942.573, 60356.559
943.055, 60402.469
943.537, 60435.391
944.019, 60409.289
944.501, 60349.141
944.983, 60319.590
945.465, 60318.430
945.947, 60330.609
946.430, 60354.328
946.912, 60369.141
947.394, 60363.391
947.876, 60366.820
948.358, 60426.469
948.840, 60527.609
949.322, 60564.449
949.804, 60531.059
950.286, 60523.488
950.769, 60561.809
951.251, 60594.762
951.733, 60587.809
952.215, 60566.102
952.697, 60574.809
953.179, 60614.121
953.661, 60676.059
954.143, 60772.770
954.625, 60836.148
955.108, 60841.371
955.590, 60833.078
956.072, 60839.512
956.554, 60862.379
957.036, 60907.629
957.518, 60981.391
958.000, 61055.230
958.482, 61132.449
958.964, 61206.711
959.447, 61290.020
959.929, 61347.648
960.411, 61323.949
960.893, 61248.461
961.375, 61269.711
961.857, 61445.922
962.339, 61595.148
962.821, 61722.680
963.304, 61810.570
963.786, 61803.730
964.268, 61794.500
964.750, 61903.172
965.232, 62119.230
965.714, 62284.000
966.196, 62358.859
966.678, 62441.789
967.161, 62505.012
967.643, 62611.859
968.125, 62834.109
968.607, 63090.160
969.089, 63262.762
969.571, 63347.238
970.053, 63471.520
970.535, 63702.051
971.018, 63888.852
971.500, 64002.102
971.982, 64075.250
972.464, 64114.180
972.946, 64131.949
973.428, 64154.199
973.910, 64186.602
974.392, 64177.441
974.874, 64115.629
975.357, 64016.090
975.839, 63859.969
976.321, 63688.699
976.803, 63554.891
977.285, 63421.672
977.767, 63187.031
978.249, 62808.211
978.731, 62531.609
979.213, 62528.770
979.696, 62488.250
980.178, 62228.621
980.660, 61939.820
981.142, 61787.820
981.624, 61746.000
982.106, 61720.941
982.588, 61705.520
983.070, 61655.000
983.552, 61533.609
984.035, 61402.238
984.517, 61271.301
984.999, 61159.270
985.481, 61087.988
985.963, 61051.289
986.445, 61033.359
986.927, 61046.930
987.409, 61016.750
987.891, 60859.789
988.374, 60714.488
988.856, 60675.590
989.338, 60679.629
989.820, 60661.699
990.302, 60614.770
990.784, 60545.238
991.266, 60434.941
991.748, 60362.680
992.231, 60413.609
992.713, 60456.691
993.195, 60388.629
993.677, 60275.109
994.159, 60189.180
994.641, 60144.000
995.123, 60139.520
995.605, 60188.199
996.088, 60247.270
996.570, 60309.340
997.052, 60362.660
997.534, 60397.570
998.016, 60419.059
998.498, 60435.672
998.980, 60446.711
999.462, 60439.340
999.945, 60384.680
1000.427, 60360.441
1000.909, 60441.160
1001.391, 60526.328
1001.873, 60539.750
1002.355, 60507.738
1002.837, 60467.359
1003.319, 60427.852
1003.801, 60393.852
1004.284, 60354.621
1004.766, 60346.391
1005.248, 60443.680
1005.730, 60522.512
1006.212, 60452.820
1006.694, 60319.852
1007.176, 60271.500
1007.658, 60315.852
1008.140, 60318.891
1008.623, 60196.859
1009.105, 60139.266
1009.587, 60196.457
1010.069, 60225.789
1010.551, 60228.750
1011.033, 60126.383
1011.515, 60160.027
1011.997, 60139.164
1012.479, 60116.066
1012.962, 60168.844
1013.444, 60081.797
1013.926, 60133.383
1014.408, 60129.629
1014.890, 60151.203
1015.372, 60117.930
1015.854, 60101.602
1016.336, 60140.133
1016.819, 60148.273
1017.301, 60108.688
1017.783, 60131.871
1018.265, 60042.906
1018.747, 60052.352
1019.229, 60104.262
1019.711, 60067.434
1020.193, 60091.621
1020.675, 60092.570
1021.158, 59987.898
1021.640, 60022.781
1022.122, 60042.531
1022.604, 60054.910
1023.086, 60048.602
1023.568, 59993.461
1024.050, 59928.141
1024.532, 59904.891
1025.015, 59928.250
1025.497, 59972.770
1025.979, 60092.059
1026.461, 60141.199
1026.943, 59976.512
1027.425, 59847.949
1027.907, 59958.551
1028.389, 60160.629
1028.871, 60241.281
1029.354, 60196.270
1029.836, 60191.172
1030.318, 60322.680
1030.800, 60392.852
1031.282, 60331.160
1031.764, 60240.691
1032.246, 60143.309
1032.728, 60065.078
1033.210, 60039.949
1033.693, 60065.230
1034.175, 60096.230
1034.657, 60138.270
1035.139, 60171.160
1035.621, 60203.109
1036.103, 60214.660
1036.585, 60189.570
1037.067, 60146.281
1037.550, 60095.219
1038.032, 60040.949
1038.514, 60017.609
1038.996, 60041.309
1039.478, 60070.609
1039.960, 60114.320
1040.442, 60150.828
1040.924, 60167.250
1041.406, 60177.441
1041.889, 60199.430
1042.371, 60227.699
1042.853, 60231.949
1043.335, 60195.891
1043.817, 60171.320
1044.299, 60163.828
1044.781, 60157.719
1045.263, 60157.262
1045.745, 60141.969
1046.228, 60082.531
1046.710, 59996.961
1047.192, 59956.641
1047.674, 59976.699
1048.156, 59993.551
1048.638, 60013.871
1049.120, 60011.828
1049.602, 59969.691
1050.085, 59925.211
1050.567, 59896.531
1051.049, 59904.590
1051.531, 60031.969
1052.013, 60309.141
1052.495, 60435.539
1052.977, 60387.488
1053.459, 60305.941
1053.942, 60205.859
1054.424, 60180.211
1054.906, 60312.078
1055.388, 60514.648
1055.870, 60614.160
1056.352, 60612.262
1056.834, 60587.578
1057.316, 60539.340
1057.798, 60476.840
1058.281, 60400.379
1058.763, 60343.961
1059.245, 60328.699
1059.727, 60344.961
1060.209, 60397.301
1060.691, 60464.781
1061.173, 60440.379
1061.655, 60335.520
1062.137, 60208.551
1062.620, 60075.922
1063.102, 59984.898
1063.584, 59960.020
1064.066, 59963.230
1064.548, 59951.211
1065.030, 59934.160
1065.512, 59933.961
1065.994, 59947.430
1066.477, 59973.141
1066.959, 60003.699
1067.441, 60009.289
1067.923, 59979.969
1068.405, 59949.020
1068.887, 59947.410
1069.369, 59956.191
1069.851, 59952.359
1070.333, 59940.230
1070.816, 59916.469
1071.298, 59893.129
1071.780, 59912.781
1072.262, 59976.328
1072.744, 60001.629
1073.226, 59906.961
1073.708, 59821.020
1074.190, 59869.711
1074.672, 59962.738
1075.155, 60028.781
1075.637, 60060.078
1076.119, 60038.070
1076.601, 59976.699
1077.083, 59953.020
1077.565, 60022.141
1078.047, 60067.449
1078.530, 59992.871
1079.012, 59920.770
1079.494, 59940.230
1079.976, 59997.262
1080.458, 60039.609
1080.940, 60057.770
1081.422, 60042.809
1081.904, 59982.180
1082.386, 59926.871
1082.869, 59889.629
1083.351, 59857.852
1083.833, 59834.609
1084.315, 59808.969
1084.797, 59756.461
1085.279, 59699.289
1085.761, 59696.961
1086.243, 59764.910
1086.725, 59817.191
1087.208, 59860.629
1087.690, 59874.070
1088.172, 59817.309
1088.654, 59790.871
1089.136, 59878.039
1089.618, 59995.980
1090.100, 60008.262
1090.582, 59919.680
1091.065, 59881.371
1091.547, 59904.109
1092.029, 59923.039
1092.511, 59921.879
1092.993, 59964.160
1093.475, 60088.199
1093.957, 60219.109
1094.439, 60272.328
1094.922, 60270.160
1095.404, 60302.301
1095.886, 60364.109
1096.368, 60342.391
1096.850, 60234.988
1097.332, 60125.590
1097.814, 60040.211
1098.296, 60010.359
1098.778, 60067.289
1099.260, 60158.059
1099.743, 60202.410
1100.225, 60208.371
1100.707, 60189.859
1101.189, 60152.711
1101.671, 60110.430
1102.153, 60066.602
1102.635, 60014.230
1103.117, 59948.391
1103.600, 59915.180
1104.082, 60010.262
1104.564, 60113.160
1105.046, 60072.359
1105.528, 59959.129
1106.010, 59844.238
1106.492, 59759.672
1106.974, 59761.852
1107.457, 59861.539
1107.939, 59951.461
1108.421, 59964.191
1108.903, 59966.148
1109.385, 59989.012
1109.867, 60014.738
1110.349, 60023.762
1110.831, 60028.391
1111.313, 60060.352
1111.796, 60113.090
1112.278, 60116.012
1112.760, 59997.699
1113.242, 59938.859
1113.724, 60006.699
1114.206, 60081.738
1114.688, 60139.449
1115.170, 60168.801
1115.652, 60135.449
1116.135, 60075.199
1116.617, 60104.289
1117.099, 60261.172
1117.581, 60303.609
1118.063, 60188.051
1118.545, 60095.602
1119.027, 60060.750
1119.509, 60057.012
1119.992, 60072.148
1120.474, 60103.980
1120.956, 60159.809
1121.438, 60225.371
1121.920, 60186.141
1122.402, 60050.500
1122.884, 59992.641
1123.366, 60026.340
1123.849, 60065.512
1124.331, 60077.461
1124.813, 60080.590
1125.295, 60090.590
1125.777, 60102.320
1126.259, 60097.391
1126.741, 60092.590
1127.223, 60138.840
1127.705, 60212.738
1128.188, 60248.898
1128.670, 60240.469
1129.152, 60229.461
1129.634, 60238.762
1130.116, 60231.570
1130.598, 60172.180
1131.080, 60093.680
1131.562, 60006.988
1132.044, 59930.801
1132.527, 59869.359
1133.009, 59840.289
1133.491, 59904.238
1133.973, 60074.602
1134.455, 60158.391
1134.937, 60003.109
1135.419, 59901.031
1135.901, 59981.719
1136.384, 60064.711
1136.866, 60040.781
1137.348, 59975.238
1137.830, 59943.371
1138.312, 59939.410
1138.794, 59931.359
1139.276, 59908.770
1139.758, 59915.699
1140.240, 59970.879
1140.723, 59989.129
1141.205, 59931.141
1141.687, 59894.051
1142.169, 59951.590
1142.651, 60054.340
1143.133, 60124.371
1143.615, 60157.219
1144.097, 60091.770
1144.579, 59948.199
1145.062, 59907.199
1145.544, 59981.090
1146.026, 60050.191
1146.508, 60067.551
1146.990, 60078.730
1147.472, 60129.270
1147.954, 60183.070
1148.436, 60200.738
1148.919, 60180.750
1149.401, 60080.551
1149.883, 59957.801
1150.365, 59933.520
1150.847, 60009.059
1151.329, 60097.871
1151.811, 60177.422
1152.293, 60203.840
1152.776, 60105.070
1153.258, 60010.090
1153.740, 59984.480
1154.222, 59996.871
1154.704, 60041.160
1155.186, 60092.852
1155.668, 60103.570
1156.150, 60066.988
1156.632, 60048.410
1157.115, 60044.859
1157.597, 60068.270
1158.079, 60134.898
1158.561, 60195.500
1159.043, 60233.789
1159.525, 60251.680
1160.007, 60248.398
1160.489, 60229.461
1160.971, 60205.859
1161.454, 60177.648
1161.936, 60190.301
1162.418, 60240.531
1162.900, 60233.320
1163.382, 60156.910
1163.864, 60111.570
1164.346, 60148.629
1164.828, 60196.281
1165.311, 60168.551
1165.793, 60117.340
1166.275, 60127.910
1166.757, 60170.141
1167.239, 60213.449
1167.721, 60238.379
1168.203, 60193.391
1168.685, 60087.352
1169.167, 60017.512
1169.650, 60023.262
1170.132, 60074.922
1170.614, 60212.898
1171.096, 60324.559
1171.578, 60335.211
1172.060, 60306.840
1172.542, 60312.891
1173.024, 60318.859
1173.506, 60208.250
1173.989, 59960.512
1174.471, 59882.898
1174.953, 60074.852
1175.435, 60194.430
1175.917, 60203.820
1176.399, 60157.641
1176.881, 60051.840
1177.363, 59987.828
1177.846, 60074.629
1178.328, 60235.340
1178.810, 60287.609
1179.292, 60244.551
1179.774, 60176.148
1180.256, 60093.211
1180.738, 60048.680
1181.220, 60046.910
1181.703, 60062.078
1182.185, 60082.020
1182.667, 60086.719
1183.149, 60049.102
1183.631, 60004.238
1184.113, 59983.309
1184.595, 59978.219
1185.077, 59968.629
1185.559, 59975.422
1186.042, 60053.660
1186.524, 60185.660
1187.006, 60269.629
1187.488, 60278.590
1187.970, 60248.898
1188.452, 60079.621
1188.934, 60028.328
1189.416, 60278.398
1189.898, 60503.441
1190.381, 60498.340
1190.863, 60390.379
1191.345, 60359.840
1191.827, 60393.539
1192.309, 60403.328
1192.791, 60389.820
1193.273, 60322.059
1193.755, 60198.910
1194.238, 60178.309
1194.720, 60299.680
1195.202, 60449.230
1195.684, 60559.180
1196.166, 60612.750
1196.648, 60551.430
1197.130, 60451.051
1197.612, 60432.559
1198.094, 60455.570
1198.577, 60454.039
1199.059, 60434.801
1199.541, 60430.020
1200.023, 60446.160
1200.505, 60475.121
1200.987, 60535.539
1201.469, 60557.320
1201.951, 60484.160
1202.433, 60409.480
1202.916, 60349.770
1203.398, 60330.160
1203.880, 60397.410
1204.362, 60496.488
1204.844, 60517.570
1205.326, 60462.500
1205.808, 60440.469
1206.290, 60459.762
1206.773, 60456.539
1207.255, 60425.039
1207.737, 60373.891
1208.219, 60306.031
1208.701, 60285.949
1209.183, 60369.891
1209.665, 60487.180
1210.147, 60542.500
1210.630, 60553.129
1211.112, 60538.320
1211.594, 60507.531
1212.076, 60450.031
1212.558, 60396.410
1213.040, 60443.000
1213.522, 60599.801
1214.004, 60701.121
1214.486, 60645.590
1214.969, 60584.879
1215.451, 60530.988
1215.933, 60527.141
1216.415, 60643.051
1216.897, 60768.289
1217.379, 60810.309
1217.861, 60802.648
1218.343, 60817.801
1218.825, 60855.281
1219.308, 60827.320
1219.790, 60725.078
1220.272, 60681.441
1220.754, 60709.531
1221.236, 60749.750
1221.718, 60781.590
1222.200, 60804.551
1222.682, 60816.430
1223.165, 60829.410
1223.647, 60863.500
1224.129, 60904.309
1224.611, 60950.262
1225.093, 60976.289
1225.575, 60909.328
1226.057, 60802.781
1226.539, 60811.520
1227.021, 60949.660
1227.504, 60996.199
1227.986, 60794.090
1228.468, 60668.801
1228.950, 60739.859
1229.432, 60809.109
1229.914, 60824.891
1230.396, 60813.738
1230.878, 60785.871
1231.360, 60755.539
1231.843, 60746.371
1232.325, 60756.930
1232.807, 60786.000
1233.289, 60828.730
1233.771, 60809.980
1234.253, 60743.121
1234.735, 60770.102
1235.217, 60911.020
1235.700, 61013.922
1236.182, 60989.051
1236.664, 60938.199
1237.146, 60940.828
1237.628, 60967.430
1238.110, 61018.711
1238.592, 61057.340
1239.074, 61021.262
1239.557, 60962.211
1240.039, 60984.590
1240.521, 61081.121
1241.003, 61105.738
1241.485, 61007.340
1241.967, 60977.129
1242.449, 61046.289
1242.931, 61087.801
1243.413, 61070.672
1243.896, 61059.441
1244.378, 61090.398
1244.860, 61125.270
1245.342, 61123.250
1245.824, 61088.820
1246.306, 61001.328
1246.788, 60904.262
1247.270, 60912.711
1247.752, 60985.211
1248.235, 61028.789
1248.717, 61031.160
1249.199, 61015.211
1249.681, 60987.891
1250.163, 60950.660
1250.645, 60883.379
1251.127, 60836.969
1251.609, 60827.090
1252.092, 60840.988
1252.574, 60897.430
1253.056, 60943.520
1253.538, 60925.309
1254.020, 60877.469
1254.502, 60884.238
1254.984, 60938.211
1255.466, 60904.379
1255.948, 60796.039
1256.431, 60792.898
1256.913, 60894.320
1257.395, 60963.238
1257.877, 60964.172
1258.359, 60975.770
##END=



