##NAMES=Winchite
##RRUFFID=R061124
##IDEAL CHEMISTRY=[box]NaCa(Mg_4_Al)Si_8_O_22_(OH)_2_
##LOCALITY=Iratuyama, Ehime Prefecture, Japan
##OWNER=RRUFF
##SOURCE=Michael Scott
##DESCRIPTION=Dark green prismatic crystals frozen in a matrix of calcite and mica
##STATUS=The identification of this mineral is confirmed by single-crystal X-ray diffraction and chemical analysis.
##URL=rruff.info/R061124
##MEASURED CHEMISTRY=([box]_0.65_Na_0.31_K_0.04_)_Σ=1_Na_1.00_(Ca_0.97_Mn_0.03_)_Σ=1_[(Mg_3.36_Fe^2+^_0.64_)_Σ=4_(Al_0.55_Fe^3+^_0.35_)_Σ=1_](Si_7.65_Al_0.35_)_Σ=8_O_22_((OH)_1.87_F_0.13_)_Σ=2_
126.9327, 2158.209
127.4148, 2241.313
127.8969, 2328.342
128.3790, 2430.214
128.8611, 2551.883
129.3432, 2691.536
129.8254, 2841.886
130.3075, 3023.485
130.7896, 3192.230
131.2717, 3353.841
131.7538, 3495.529
132.2359, 3590.238
132.7181, 3619.920
133.2002, 3595.822
133.6823, 3569.419
134.1644, 3547.395
134.6465, 3517.017
135.1286, 3470.200
135.6108, 3410.666
136.0929, 3347.772
136.5750, 3285.719
137.0571, 3225.181
137.5392, 3168.452
138.0213, 3108.884
138.5035, 3058.126
138.9856, 3020.820
139.4677, 2997.257
139.9498, 2990.280
140.4319, 3001.089
140.9140, 3032.768
141.3961, 3083.129
141.8783, 3158.282
142.3604, 3247.707
142.8425, 3344.120
143.3246, 3447.525
143.8067, 3557.910
144.2888, 3669.750
144.7710, 3791.400
145.2531, 3940.335
145.7352, 4105.354
146.2173, 4239.383
146.6994, 4329.014
147.1815, 4408.084
147.6637, 4471.833
148.1458, 4516.354
148.6279, 4545.810
149.1100, 4562.379
149.5921, 4567.502
150.0742, 4560.063
150.5564, 4533.833
151.0385, 4482.864
151.5206, 4432.458
152.0027, 4400.405
152.4848, 4376.080
152.9669, 4344.910
153.4491, 4297.751
153.9312, 4240.810
154.4133, 4186.432
154.8954, 4132.755
155.3775, 4083.663
155.8596, 4040.467
156.3418, 4001.702
156.8239, 3966.106
157.3060, 3934.060
157.7881, 3903.914
158.2702, 3870.454
158.7523, 3829.937
159.2345, 3793.281
159.7166, 3764.741
160.1987, 3742.635
160.6808, 3724.405
161.1629, 3708.128
161.6451, 3695.124
162.1272, 3691.601
162.6093, 3707.351
163.0914, 3717.959
163.5735, 3710.383
164.0556, 3693.828
164.5378, 3682.667
165.0199, 3685.541
165.5020, 3700.601
165.9841, 3718.790
166.4662, 3742.738
166.9483, 3767.313
167.4305, 3789.920
167.9126, 3812.222
168.3947, 3836.795
168.8768, 3864.864
169.3589, 3896.538
169.8410, 3933.872
170.3232, 3988.236
170.8053, 4033.889
171.2874, 4068.027
171.7695, 4088.437
172.2516, 4091.469
172.7337, 4071.808
173.2159, 4032.046
173.6980, 3997.906
174.1801, 3980.811
174.6622, 3955.777
175.1443, 3913.770
175.6264, 3859.538
176.1085, 3801.572
176.5907, 3745.834
177.0728, 3691.373
177.5549, 3633.631
178.0370, 3569.748
178.5191, 3505.095
179.0012, 3439.967
179.4834, 3375.090
179.9655, 3311.192
180.4476, 3247.357
180.9297, 3184.746
181.4118, 3134.600
181.8939, 3106.425
182.3761, 3082.597
182.8582, 3061.456
183.3403, 3042.373
183.8224, 3024.553
184.3045, 3007.076
184.7866, 2990.630
185.2688, 2980.710
185.7509, 2988.805
186.2330, 2991.989
186.7151, 2983.810
187.1972, 2968.119
187.6793, 2952.088
188.1615, 2940.438
188.6436, 2931.909
189.1257, 2916.088
189.6078, 2873.595
190.0899, 2844.479
190.5720, 2843.581
191.0542, 2859.349
191.5363, 2873.495
192.0184, 2874.772
192.5005, 2865.912
192.9826, 2863.491
193.4647, 2878.094
193.9469, 2887.920
194.4290, 2887.515
194.9111, 2880.770
195.3932, 2873.713
195.8753, 2869.719
196.3574, 2867.805
196.8396, 2863.264
197.3217, 2848.693
197.8038, 2839.757
198.2859, 2842.928
198.7680, 2851.735
199.2501, 2856.665
199.7323, 2852.519
200.2144, 2842.938
200.6965, 2841.557
201.1786, 2861.423
201.6607, 2875.321
202.1428, 2875.431
202.6250, 2870.148
203.1071, 2870.847
203.5892, 2882.869
204.0713, 2901.527
204.5534, 2912.765
205.0355, 2911.077
205.5177, 2907.520
205.9998, 2899.183
206.4819, 2890.526
206.9640, 2887.009
207.4461, 2890.790
207.9282, 2898.878
208.4104, 2904.373
208.8925, 2907.552
209.3746, 2907.031
209.8567, 2895.485
210.3388, 2883.744
210.8209, 2883.605
211.3030, 2898.812
211.7852, 2922.145
212.2673, 2940.428
212.7494, 2952.057
213.2315, 2960.008
213.7136, 2962.308
214.1957, 2962.458
214.6779, 2963.261
215.1600, 2965.521
215.6421, 2968.310
216.1242, 2969.654
216.6063, 2965.260
217.0884, 2968.562
217.5706, 2983.322
218.0527, 3002.235
218.5348, 3023.261
219.0169, 3044.542
219.4990, 3060.800
219.9811, 3064.014
220.4633, 3046.813
220.9454, 3036.074
221.4275, 3036.321
221.9096, 3038.239
222.3917, 3035.948
222.8738, 3029.100
223.3560, 3021.462
223.8381, 3017.961
224.3202, 3021.616
224.8023, 3016.136
225.2844, 2995.407
225.7665, 2972.473
226.2487, 2953.096
226.7308, 2937.508
227.2129, 2923.216
227.6950, 2908.090
228.1771, 2892.057
228.6592, 2876.155
229.1414, 2861.369
229.6235, 2845.805
230.1056, 2828.304
230.5877, 2809.389
231.0698, 2790.771
231.5519, 2774.130
232.0341, 2759.345
232.5162, 2739.255
232.9983, 2702.250
233.4804, 2671.955
233.9625, 2657.795
234.4446, 2653.763
234.9268, 2648.915
235.4089, 2636.281
235.8910, 2617.458
236.3731, 2601.792
236.8552, 2590.672
237.3373, 2581.549
237.8195, 2577.729
238.3016, 2574.608
238.7837, 2564.932
239.2658, 2544.643
239.7479, 2519.087
240.2300, 2504.800
240.7122, 2510.237
241.1943, 2514.646
241.6764, 2515.803
242.1585, 2514.437
242.6406, 2510.738
243.1227, 2504.811
243.6049, 2497.917
244.0870, 2491.833
244.5691, 2484.488
245.0512, 2482.887
245.5333, 2494.385
246.0154, 2506.760
246.4975, 2509.990
246.9797, 2502.167
247.4618, 2490.044
247.9439, 2481.559
248.4260, 2476.139
248.9081, 2476.542
249.3902, 2486.277
249.8724, 2499.224
250.3545, 2514.555
250.8366, 2530.993
251.3187, 2544.927
251.8008, 2552.205
252.2829, 2552.349
252.7651, 2550.988
253.2472, 2547.230
253.7293, 2542.766
254.2114, 2537.791
254.6935, 2532.667
255.1756, 2528.228
255.6578, 2525.994
256.1399, 2525.477
256.6220, 2522.674
257.1041, 2521.149
257.5862, 2511.524
258.0684, 2483.396
258.5505, 2445.832
259.0326, 2416.340
259.5147, 2407.949
259.9968, 2412.106
260.4789, 2405.284
260.9611, 2382.885
261.4432, 2359.935
261.9253, 2342.142
262.4074, 2327.757
262.8895, 2314.712
263.3716, 2302.151
263.8537, 2290.956
264.3358, 2281.511
264.8180, 2273.313
265.3001, 2270.294
265.7822, 2282.656
266.2643, 2296.499
266.7464, 2295.625
267.2285, 2274.281
267.7107, 2250.545
268.1928, 2243.254
268.6749, 2251.087
269.1570, 2252.815
269.6391, 2237.125
270.1212, 2218.038
270.6034, 2212.744
271.0855, 2222.448
271.5676, 2231.937
272.0497, 2227.370
272.5318, 2215.197
273.0139, 2218.063
273.4961, 2246.566
273.9782, 2277.281
274.4603, 2284.504
274.9424, 2271.058
275.4245, 2253.573
275.9066, 2230.191
276.3888, 2208.482
276.8709, 2199.957
277.3530, 2206.349
277.8351, 2220.555
278.3172, 2240.632
278.7993, 2265.024
279.2815, 2281.889
279.7636, 2289.837
280.2457, 2290.257
280.7278, 2278.997
281.2099, 2258.307
281.6920, 2244.161
282.1742, 2248.335
282.6563, 2266.755
283.1384, 2277.712
283.6205, 2282.530
284.1026, 2279.596
284.5847, 2259.827
285.0669, 2232.045
285.5490, 2217.002
286.0311, 2225.741
286.5132, 2247.525
286.9953, 2254.523
287.4774, 2233.424
287.9596, 2220.414
288.4417, 2218.474
288.9238, 2227.782
289.4059, 2255.259
289.8880, 2301.771
290.3701, 2348.012
290.8523, 2365.350
291.3344, 2337.055
291.8165, 2320.032
292.2986, 2320.492
292.7807, 2326.430
293.2628, 2329.025
293.7450, 2328.476
294.2271, 2331.840
294.7092, 2346.804
295.1913, 2374.937
295.6734, 2395.209
296.1555, 2404.863
296.6377, 2409.902
297.1198, 2409.732
297.6019, 2406.483
298.0840, 2403.535
298.5661, 2403.043
299.0482, 2404.456
299.5304, 2405.171
300.0125, 2405.343
300.4946, 2404.539
300.9767, 2402.028
301.4588, 2398.948
301.9409, 2395.695
302.4231, 2392.420
302.9052, 2391.109
303.3873, 2397.274
303.8694, 2416.397
304.3515, 2426.025
304.8336, 2415.912
305.3158, 2400.802
305.7979, 2388.758
306.2800, 2380.904
306.7621, 2374.354
307.2442, 2364.788
307.7263, 2352.469
308.2085, 2347.865
308.6906, 2359.605
309.1727, 2369.099
309.6548, 2361.199
310.1369, 2341.801
310.6190, 2328.643
311.1012, 2334.603
311.5833, 2352.202
312.0654, 2365.594
312.5475, 2374.735
313.0296, 2379.479
313.5117, 2379.009
313.9939, 2373.976
314.4760, 2363.746
314.9581, 2342.602
315.4402, 2323.901
315.9223, 2323.766
316.4044, 2339.788
316.8866, 2350.752
317.3687, 2347.248
317.8508, 2335.348
318.3329, 2326.029
318.8150, 2319.730
319.2971, 2314.131
319.7793, 2306.779
320.2614, 2299.881
320.7435, 2297.796
321.2256, 2301.839
321.7077, 2308.301
322.1898, 2312.794
322.6720, 2314.820
323.1541, 2318.272
323.6362, 2326.206
324.1183, 2333.492
324.6004, 2331.945
325.0826, 2324.127
325.5647, 2325.014
326.0468, 2348.226
326.5289, 2391.826
327.0110, 2418.078
327.4931, 2417.890
327.9753, 2413.620
328.4574, 2407.483
328.9395, 2401.950
329.4216, 2401.257
329.9037, 2407.406
330.3858, 2416.503
330.8680, 2419.280
331.3501, 2412.484
331.8322, 2404.219
332.3143, 2388.141
332.7964, 2375.405
333.2785, 2378.377
333.7606, 2396.685
334.2427, 2415.629
334.7249, 2417.660
335.2070, 2400.135
335.6891, 2386.353
336.1712, 2378.032
336.6533, 2371.978
337.1354, 2366.730
337.6176, 2362.762
338.0997, 2361.836
338.5818, 2367.090
339.0639, 2374.591
339.5460, 2371.912
340.0281, 2355.088
340.5103, 2338.831
340.9924, 2328.758
341.4745, 2322.328
341.9566, 2318.441
342.4387, 2318.144
342.9208, 2315.490
343.4030, 2300.319
343.8851, 2274.872
344.3672, 2260.996
344.8493, 2268.970
345.3314, 2284.248
345.8135, 2290.725
346.2957, 2288.764
346.7778, 2283.974
347.2599, 2272.403
347.7420, 2261.704
348.2241, 2266.736
348.7062, 2289.330
349.1884, 2308.948
349.6705, 2307.077
350.1526, 2285.134
350.6347, 2273.018
351.1168, 2277.075
351.5989, 2284.280
352.0811, 2289.485
352.5632, 2292.917
353.0453, 2295.347
353.5274, 2296.987
354.0095, 2298.493
354.4916, 2301.565
354.9738, 2308.729
355.4559, 2314.108
355.9380, 2316.925
356.4201, 2318.416
356.9022, 2318.566
357.3843, 2317.940
357.8665, 2318.725
358.3486, 2323.125
358.8307, 2331.089
359.3128, 2343.017
359.7949, 2365.163
360.2770, 2385.267
360.7592, 2394.888
361.2413, 2399.999
361.7234, 2413.206
362.2055, 2443.375
362.6876, 2482.430
363.1697, 2508.122
363.6519, 2516.197
364.1340, 2521.975
364.6161, 2523.657
365.0982, 2528.389
365.5803, 2544.614
366.0624, 2574.292
366.5446, 2604.865
367.0267, 2625.792
367.5088, 2638.185
367.9909, 2648.844
368.4730, 2658.208
368.9551, 2666.925
369.4373, 2675.780
369.9194, 2684.579
370.4015, 2692.327
370.8836, 2698.884
371.3657, 2704.164
371.8478, 2709.697
372.3300, 2714.981
372.8121, 2714.367
373.2942, 2703.773
373.7763, 2685.426
374.2584, 2667.066
374.7405, 2644.831
375.2227, 2628.034
375.7048, 2621.396
376.1869, 2620.504
376.6690, 2620.252
377.1511, 2619.116
377.6332, 2617.013
378.1154, 2613.573
378.5975, 2607.756
379.0796, 2604.269
379.5617, 2606.967
380.0438, 2607.873
380.5259, 2600.526
381.0081, 2588.103
381.4902, 2578.752
381.9723, 2577.938
382.4544, 2583.736
382.9365, 2588.612
383.4186, 2592.768
383.9008, 2595.447
384.3829, 2595.477
384.8650, 2594.753
385.3471, 2594.983
385.8292, 2596.551
386.3113, 2598.513
386.7935, 2601.479
387.2756, 2605.046
387.7577, 2601.519
388.2398, 2583.209
388.7219, 2568.497
389.2040, 2576.694
389.6862, 2600.236
390.1683, 2615.368
390.6504, 2611.334
391.1325, 2596.738
391.6146, 2578.824
392.0967, 2557.921
392.5789, 2537.900
393.0610, 2520.209
393.5431, 2505.012
394.0252, 2492.836
394.5073, 2483.978
394.9894, 2476.956
395.4716, 2474.695
395.9537, 2472.523
396.4358, 2464.227
396.9179, 2448.807
397.4000, 2430.236
397.8821, 2411.918
398.3643, 2393.093
398.8464, 2380.779
399.3285, 2379.531
399.8106, 2378.902
400.2927, 2376.765
400.7748, 2372.418
401.2570, 2364.842
401.7391, 2353.362
402.2212, 2339.740
402.7033, 2326.517
403.1854, 2310.338
403.6675, 2304.043
404.1497, 2319.446
404.6317, 2337.822
405.1139, 2346.586
405.5960, 2345.820
406.0781, 2345.524
406.5602, 2354.939
407.0423, 2370.653
407.5244, 2380.970
408.0066, 2384.593
408.4887, 2386.028
408.9708, 2386.894
409.4529, 2387.592
409.9350, 2388.930
410.4171, 2391.203
410.8993, 2393.848
411.3814, 2395.940
411.8635, 2398.136
412.3456, 2403.467
412.8277, 2413.669
413.3098, 2422.542
413.7920, 2420.720
414.2741, 2403.310
414.7562, 2392.087
415.2383, 2396.204
415.7204, 2398.592
416.2025, 2383.010
416.6847, 2355.864
417.1668, 2338.233
417.6489, 2344.494
418.1310, 2366.765
418.6131, 2373.037
419.0952, 2351.430
419.5774, 2332.705
420.0595, 2322.552
420.5416, 2314.887
421.0237, 2304.412
421.5058, 2290.580
421.9879, 2277.366
422.4701, 2268.964
422.9522, 2264.938
423.4343, 2261.761
423.9164, 2262.944
424.3985, 2257.984
424.8806, 2232.168
425.3628, 2197.858
425.8449, 2176.838
426.3270, 2179.103
426.8091, 2188.641
427.2912, 2195.051
427.7733, 2197.984
428.2555, 2194.919
428.7376, 2183.467
429.2197, 2170.272
429.7018, 2164.739
430.1839, 2168.249
430.6660, 2172.734
431.1482, 2179.518
431.6303, 2185.636
432.1124, 2188.536
432.5945, 2188.847
433.0766, 2188.988
433.5587, 2190.447
434.0409, 2192.853
434.5230, 2194.864
435.0051, 2197.473
435.4872, 2197.995
435.9693, 2193.626
436.4514, 2189.099
436.9336, 2187.997
437.4157, 2190.795
437.8978, 2195.936
438.3799, 2206.422
438.8620, 2220.059
439.3441, 2215.075
439.8263, 2179.747
440.3084, 2150.632
440.7905, 2157.763
441.2726, 2179.835
441.7547, 2186.319
442.2368, 2165.584
442.7190, 2140.791
443.2011, 2128.134
443.6832, 2124.793
444.1653, 2123.794
444.6474, 2123.964
445.1295, 2123.231
445.6117, 2118.349
446.0938, 2108.128
446.5759, 2103.314
447.0580, 2105.756
447.5401, 2111.819
448.0222, 2123.833
448.5044, 2137.617
448.9865, 2144.870
449.4686, 2141.427
449.9507, 2131.115
450.4328, 2122.313
450.9149, 2115.719
451.3971, 2109.043
451.8792, 2097.871
452.3613, 2090.190
452.8434, 2092.936
453.3255, 2103.844
453.8076, 2114.230
454.2898, 2119.780
454.7719, 2120.280
455.2540, 2113.058
455.7361, 2096.152
456.2182, 2083.102
456.7003, 2080.472
457.1825, 2084.122
457.6646, 2088.171
458.1467, 2093.281
458.6288, 2095.552
459.1109, 2085.239
459.5930, 2074.964
460.0752, 2088.657
460.5573, 2126.732
461.0394, 2157.944
461.5215, 2156.300
462.0036, 2125.420
462.4857, 2105.139
462.9679, 2098.471
463.4500, 2098.053
463.9321, 2107.035
464.4142, 2119.412
464.8963, 2131.403
465.3784, 2141.058
465.8606, 2144.258
466.3427, 2131.262
466.8248, 2100.960
467.3069, 2091.177
467.7890, 2118.338
468.2711, 2141.811
468.7533, 2140.404
469.2354, 2125.020
469.7175, 2111.760
470.1996, 2104.463
470.6817, 2101.530
471.1638, 2104.071
471.6460, 2110.202
472.1281, 2112.621
472.6102, 2109.311
473.0923, 2103.103
473.5744, 2095.162
474.0565, 2085.033
474.5387, 2083.706
475.0208, 2102.488
475.5029, 2118.751
475.9850, 2120.979
476.4671, 2112.554
476.9492, 2098.599
477.4313, 2081.329
477.9135, 2065.253
478.3956, 2059.525
478.8777, 2068.828
479.3598, 2074.812
479.8419, 2075.116
480.3240, 2074.043
480.8062, 2073.478
481.2883, 2072.918
481.7704, 2070.709
482.2525, 2065.346
482.7346, 2059.100
483.2167, 2056.205
483.6989, 2056.557
484.1810, 2053.611
484.6631, 2043.342
485.1452, 2032.044
485.6273, 2028.878
486.1094, 2033.725
486.5916, 2037.817
487.0737, 2038.314
487.5558, 2038.489
488.0379, 2042.452
488.5200, 2048.464
489.0021, 2050.756
489.4843, 2046.197
489.9664, 2036.990
490.4485, 2027.902
490.9306, 2015.124
491.4127, 2010.099
491.8948, 2017.054
492.3770, 2027.223
492.8591, 2038.771
493.3412, 2049.452
493.8233, 2054.244
494.3054, 2047.496
494.7875, 2035.908
495.2697, 2033.750
495.7518, 2041.685
496.2339, 2051.667
496.7160, 2061.216
497.1981, 2071.650
497.6802, 2087.125
498.1624, 2108.514
498.6445, 2120.796
499.1266, 2114.316
499.6087, 2101.005
500.0908, 2086.782
500.5729, 2074.719
501.0551, 2074.323
501.5372, 2092.119
502.0193, 2120.590
502.5014, 2139.840
502.9835, 2147.725
503.4656, 2149.387
503.9478, 2132.593
504.4299, 2120.933
504.9120, 2135.706
505.3941, 2169.743
505.8762, 2196.525
506.3583, 2196.462
506.8405, 2182.054
507.3226, 2181.088
507.8047, 2194.830
508.2868, 2209.284
508.7689, 2221.131
509.2510, 2230.589
509.7332, 2235.235
510.2153, 2234.343
510.6974, 2242.714
511.1795, 2277.890
511.6616, 2313.380
512.1437, 2321.803
512.6259, 2308.784
513.1080, 2298.022
513.5901, 2301.737
514.0722, 2315.242
514.5543, 2327.688
515.0364, 2336.434
515.5186, 2349.394
516.0007, 2376.534
516.4828, 2398.482
516.9649, 2398.752
517.4470, 2384.766
517.9291, 2378.102
518.4113, 2392.694
518.8934, 2417.071
519.3755, 2432.418
519.8576, 2438.714
520.3397, 2443.338
520.8218, 2446.895
521.3040, 2451.577
521.7861, 2462.174
522.2682, 2478.444
522.7503, 2489.421
523.2324, 2487.271
523.7145, 2485.072
524.1967, 2491.556
524.6788, 2504.581
525.1609, 2519.220
525.6430, 2533.443
526.1251, 2546.314
526.6072, 2555.499
527.0894, 2558.369
527.5715, 2566.465
528.0536, 2585.730
528.5357, 2604.474
529.0178, 2617.762
529.4999, 2627.479
529.9821, 2637.145
530.4642, 2647.775
530.9463, 2659.564
531.4284, 2674.252
531.9105, 2690.693
532.3926, 2703.000
532.8748, 2708.992
533.3569, 2714.417
533.8390, 2722.843
534.3211, 2734.750
534.8032, 2757.011
535.2853, 2805.640
535.7675, 2845.571
536.2496, 2859.451
536.7317, 2860.136
537.2138, 2865.107
537.6959, 2878.422
538.1780, 2890.802
538.6602, 2890.590
539.1423, 2878.077
539.6244, 2870.238
540.1065, 2869.994
540.5886, 2869.132
541.0707, 2860.263
541.5529, 2850.828
542.0350, 2851.547
542.5171, 2866.251
542.9992, 2877.854
543.4813, 2878.594
543.9634, 2869.219
544.4456, 2844.447
544.9277, 2806.097
545.4098, 2777.905
545.8919, 2778.897
546.3740, 2799.163
546.8561, 2798.120
547.3383, 2751.222
547.8204, 2717.341
548.3025, 2706.416
548.7846, 2702.380
549.2667, 2695.983
549.7488, 2685.936
550.2310, 2673.298
550.7131, 2657.785
551.1952, 2641.462
551.6773, 2629.654
552.1594, 2622.710
552.6415, 2614.017
553.1237, 2599.666
553.6058, 2585.538
554.0879, 2581.113
554.5700, 2586.080
555.0521, 2585.800
555.5342, 2575.675
556.0164, 2562.086
556.4985, 2547.168
556.9806, 2532.032
557.4627, 2518.655
557.9448, 2507.745
558.4269, 2497.539
558.9091, 2484.594
559.3912, 2467.460
559.8733, 2456.909
560.3554, 2458.027
560.8375, 2458.957
561.3196, 2457.414
561.8018, 2451.853
562.2839, 2438.287
562.7660, 2413.249
563.2481, 2390.421
563.7302, 2381.041
564.2123, 2380.294
564.6945, 2381.296
565.1766, 2382.794
565.6587, 2377.787
566.1408, 2358.896
566.6229, 2330.615
567.1050, 2315.761
567.5872, 2326.922
568.0693, 2335.289
568.5514, 2339.593
569.0335, 2340.757
569.5156, 2338.735
569.9977, 2334.131
570.4799, 2328.047
570.9620, 2319.538
571.4441, 2311.956
571.9262, 2317.756
572.4083, 2337.400
572.8904, 2336.760
573.3726, 2296.591
573.8547, 2248.732
574.3368, 2234.041
574.8189, 2253.267
575.3010, 2261.035
575.7831, 2244.227
576.2653, 2225.327
576.7474, 2215.323
577.2295, 2210.757
577.7116, 2206.125
578.1937, 2199.526
578.6758, 2191.242
579.1580, 2182.165
579.6401, 2172.319
580.1222, 2156.768
580.6042, 2129.932
581.0864, 2108.344
581.5685, 2103.136
582.0506, 2105.531
582.5327, 2106.799
583.0148, 2106.453
583.4969, 2102.596
583.9791, 2091.420
584.4612, 2078.078
584.9433, 2069.413
585.4254, 2064.767
585.9075, 2058.721
586.3896, 2048.092
586.8718, 2034.580
587.3539, 2022.271
587.8360, 2011.808
588.3181, 2001.057
588.8002, 1989.333
589.2823, 1977.823
589.7645, 1965.601
590.2466, 1954.184
590.7287, 1947.007
591.2108, 1946.448
591.6929, 1947.494
592.1750, 1946.557
592.6572, 1943.432
593.1393, 1937.021
593.6214, 1927.110
594.1035, 1915.647
594.5856, 1903.410
595.0677, 1891.067
595.5499, 1883.844
596.0320, 1888.083
596.5141, 1889.228
596.9962, 1884.617
597.4783, 1877.593
597.9604, 1870.472
598.4426, 1863.524
598.9247, 1855.674
599.4068, 1844.483
599.8889, 1834.030
600.3710, 1833.849
600.8531, 1843.313
601.3353, 1849.460
601.8174, 1849.063
602.2995, 1843.098
602.7816, 1829.747
603.2637, 1807.899
603.7458, 1798.866
604.2280, 1810.769
604.7101, 1825.598
605.1922, 1841.865
605.6743, 1855.255
606.1564, 1859.279
606.6385, 1853.534
607.1207, 1845.720
607.6028, 1842.037
608.0849, 1842.382
608.5670, 1849.373
609.0491, 1866.275
609.5313, 1870.684
610.0134, 1846.049
610.4955, 1812.626
610.9776, 1802.635
611.4597, 1818.231
611.9418, 1827.348
612.4240, 1822.409
612.9061, 1812.282
613.3882, 1795.142
613.8703, 1778.421
614.3524, 1777.000
614.8345, 1795.543
615.3167, 1820.402
615.7988, 1834.901
616.2809, 1839.119
616.7630, 1840.845
617.2451, 1839.814
617.7272, 1836.865
618.2094, 1831.913
618.6915, 1825.403
619.1736, 1816.880
619.6557, 1804.816
620.1378, 1798.003
620.6199, 1803.037
621.1021, 1811.129
621.5842, 1816.118
622.0663, 1817.703
622.5484, 1816.084
623.0305, 1811.295
623.5126, 1806.259
623.9948, 1807.203
624.4769, 1815.634
624.9590, 1817.285
625.4411, 1807.555
625.9232, 1798.139
626.4053, 1793.851
626.8875, 1794.053
627.3696, 1799.249
627.8517, 1811.496
628.3338, 1821.844
628.8159, 1824.550
629.2980, 1824.863
629.7802, 1830.334
630.2623, 1839.037
630.7444, 1840.213
631.2265, 1827.172
631.7086, 1810.692
632.1907, 1815.200
632.6729, 1846.842
633.1550, 1869.186
633.6371, 1876.835
634.1192, 1879.610
634.6013, 1883.111
635.0834, 1885.442
635.5656, 1882.517
636.0477, 1871.740
636.5298, 1861.135
637.0119, 1851.158
637.4940, 1845.425
637.9761, 1850.882
638.4583, 1865.628
638.9404, 1879.457
639.4225, 1886.346
639.9046, 1889.296
640.3867, 1896.196
640.8688, 1909.525
641.3510, 1915.553
641.8331, 1905.963
642.3152, 1898.539
642.7973, 1906.241
643.2794, 1922.279
643.7615, 1932.999
644.2437, 1933.354
644.7258, 1934.920
645.2079, 1945.944
645.6900, 1959.746
646.1721, 1967.566
646.6542, 1969.773
647.1364, 1971.472
647.6185, 1975.219
648.1006, 1983.170
648.5827, 2002.496
649.0648, 2036.922
649.5469, 2064.731
650.0291, 2084.458
650.5112, 2096.631
650.9933, 2095.950
651.4754, 2089.277
651.9575, 2089.573
652.4396, 2098.912
652.9218, 2114.994
653.4039, 2143.322
653.8860, 2173.568
654.3681, 2192.889
654.8502, 2202.784
655.3323, 2213.910
655.8145, 2232.240
656.2966, 2256.331
656.7787, 2284.012
657.2608, 2316.088
657.7429, 2347.328
658.2250, 2377.663
658.7072, 2406.720
659.1893, 2428.947
659.6714, 2450.931
660.1535, 2486.844
660.6356, 2543.608
661.1177, 2599.962
661.5999, 2650.528
662.0820, 2696.447
662.5641, 2732.947
663.0462, 2765.505
663.5283, 2809.669
664.0104, 2873.895
664.4926, 2948.705
664.9747, 3020.269
665.4568, 3088.412
665.9389, 3153.851
666.4210, 3216.974
666.9031, 3276.400
667.3853, 3332.675
667.8674, 3384.183
668.3495, 3427.143
668.8316, 3457.008
669.3137, 3491.054
669.7958, 3548.378
670.2780, 3596.839
670.7601, 3607.579
671.2422, 3592.449
671.7243, 3582.044
672.2064, 3589.010
672.6885, 3591.968
673.1707, 3561.018
673.6528, 3500.482
674.1349, 3438.900
674.6170, 3378.317
675.0991, 3312.843
675.5812, 3237.897
676.0634, 3158.796
676.5455, 3086.429
677.0276, 3024.400
677.5097, 2958.267
677.9918, 2882.982
678.4739, 2808.694
678.9561, 2739.358
679.4382, 2674.456
679.9203, 2610.615
680.4024, 2547.326
680.8845, 2492.332
681.3666, 2458.738
681.8488, 2436.475
682.3309, 2400.574
682.8130, 2350.983
683.2951, 2301.825
683.7772, 2257.086
684.2593, 2220.182
684.7415, 2197.509
685.2236, 2192.705
685.7057, 2179.813
686.1878, 2148.919
686.6699, 2121.961
687.1520, 2106.832
687.6342, 2096.290
688.1163, 2082.113
688.5984, 2063.760
689.0805, 2048.443
689.5626, 2043.494
690.0447, 2041.139
690.5269, 2031.539
691.0090, 2016.982
691.4911, 2004.965
691.9732, 1997.529
692.4553, 1989.464
692.9374, 1974.030
693.4196, 1952.638
693.9017, 1944.167
694.3838, 1956.929
694.8659, 1964.480
695.3480, 1959.898
695.8301, 1949.097
696.3123, 1933.022
696.7944, 1913.744
697.2765, 1900.200
697.7586, 1897.633
698.2407, 1898.155
698.7228, 1898.485
699.2050, 1898.936
699.6871, 1901.035
700.1692, 1904.124
700.6513, 1904.875
701.1334, 1901.184
701.6155, 1892.924
702.0977, 1875.827
702.5798, 1848.347
703.0619, 1837.226
703.5440, 1851.442
704.0261, 1870.489
704.5082, 1882.823
704.9904, 1888.173
705.4725, 1885.258
705.9546, 1866.141
706.4367, 1853.529
706.9188, 1853.648
707.4009, 1858.361
707.8831, 1864.424
708.3652, 1870.282
708.8473, 1873.989
709.3294, 1874.694
709.8115, 1873.979
710.2936, 1873.626
710.7758, 1873.141
711.2579, 1870.348
711.7400, 1865.288
712.2221, 1862.582
712.7042, 1865.211
713.1863, 1868.898
713.6685, 1865.284
714.1506, 1851.074
714.6327, 1844.064
715.1148, 1851.189
715.5969, 1857.030
716.0790, 1858.518
716.5612, 1855.917
717.0433, 1846.954
717.5254, 1831.827
718.0075, 1822.414
718.4896, 1829.015
718.9717, 1839.076
719.4539, 1841.800
719.9360, 1839.602
720.4181, 1837.533
720.9002, 1837.049
721.3823, 1837.651
721.8644, 1839.055
722.3465, 1841.006
722.8286, 1843.883
723.3107, 1849.374
723.7928, 1844.601
724.2750, 1819.239
724.7571, 1795.153
725.2392, 1793.186
725.7213, 1810.863
726.2034, 1826.102
726.6855, 1842.740
727.1677, 1851.594
727.6498, 1845.330
728.1319, 1835.323
728.6140, 1830.142
729.0961, 1829.297
729.5782, 1828.651
730.0604, 1826.223
730.5425, 1823.782
731.0246, 1824.124
731.5067, 1825.860
731.9888, 1825.620
732.4709, 1823.047
732.9531, 1817.368
733.4352, 1807.445
733.9173, 1796.897
734.3994, 1793.528
734.8815, 1800.069
735.3636, 1801.455
735.8458, 1790.565
736.3279, 1784.722
736.8100, 1792.471
737.2921, 1806.803
737.7742, 1822.932
738.2563, 1840.647
738.7385, 1848.787
739.2206, 1833.773
739.7027, 1818.196
740.1848, 1793.787
740.6669, 1822.401
741.1490, 1839.014
741.6312, 1844.271
742.1133, 1804.161
742.5954, 1822.634
743.0775, 1817.629
743.5596, 1811.661
744.0417, 1838.379
744.5239, 1804.868
745.0060, 1831.067
745.4881, 1833.431
745.9702, 1846.704
746.4523, 1833.501
746.9344, 1833.179
747.4166, 1830.833
747.8987, 1831.185
748.3808, 1837.041
748.8629, 1842.791
749.3450, 1850.202
749.8271, 1854.137
750.3093, 1841.873
750.7914, 1805.876
751.2735, 1777.138
751.7556, 1778.204
752.2377, 1793.294
752.7198, 1809.849
753.2020, 1824.240
753.6841, 1828.554
754.1662, 1820.195
754.6483, 1809.457
755.1304, 1809.543
755.6125, 1818.779
756.0947, 1824.631
756.5768, 1827.288
757.0589, 1823.892
757.5410, 1809.112
758.0231, 1795.992
758.5052, 1800.638
758.9874, 1822.859
759.4695, 1837.128
759.9516, 1844.893
760.4337, 1843.689
760.9158, 1821.680
761.3979, 1800.268
761.8801, 1800.255
762.3622, 1814.949
762.8443, 1820.903
763.3264, 1788.171
763.8085, 1803.384
764.2906, 1811.397
764.7728, 1812.596
765.2549, 1786.575
765.7370, 1795.704
766.2191, 1790.746
766.7012, 1785.210
767.1833, 1799.286
767.6655, 1777.224
768.1476, 1790.988
768.6297, 1790.452
769.1118, 1796.460
769.5939, 1788.296
770.0760, 1786.076
770.5582, 1786.479
771.0403, 1788.605
771.5224, 1792.696
772.0045, 1795.734
772.4866, 1794.514
772.9688, 1796.481
773.4509, 1811.465
773.9330, 1823.926
774.4151, 1815.537
774.8972, 1791.552
775.3793, 1775.649
775.8615, 1779.666
776.3436, 1790.583
776.8257, 1802.144
777.3078, 1811.804
777.7899, 1816.205
778.2720, 1814.881
778.7542, 1805.830
779.2363, 1787.483
779.7184, 1769.511
780.2005, 1770.391
780.6826, 1789.215
781.1647, 1799.385
781.6469, 1798.792
782.1290, 1797.971
782.6111, 1801.713
783.0932, 1806.062
783.5753, 1804.357
784.0574, 1795.169
784.5396, 1794.367
785.0217, 1811.742
785.5038, 1824.199
785.9859, 1826.616
786.4680, 1823.265
786.9501, 1814.230
787.4323, 1802.292
787.9144, 1796.480
788.3965, 1804.732
788.8786, 1810.572
789.3607, 1795.866
789.8428, 1777.831
790.3250, 1782.119
790.8071, 1803.873
791.2892, 1820.218
791.7713, 1820.337
792.2534, 1810.726
792.7355, 1795.400
793.2177, 1777.125
793.6998, 1773.034
794.1819, 1783.935
794.6640, 1793.612
795.1461, 1797.111
795.6282, 1792.870
796.1104, 1776.121
796.5925, 1746.955
797.0746, 1735.622
797.5567, 1757.848
798.0388, 1770.871
798.5209, 1759.782
799.0031, 1744.372
799.4852, 1735.498
799.9673, 1732.519
800.4494, 1732.346
800.9315, 1734.125
801.4136, 1739.302
801.8958, 1753.053
802.3779, 1766.364
802.8600, 1773.146
803.3421, 1773.341
803.8242, 1764.394
804.3063, 1746.053
804.7885, 1734.860
805.2706, 1756.301
805.7527, 1789.938
806.2348, 1793.771
806.7169, 1774.384
807.1990, 1762.867
807.6812, 1767.926
808.1633, 1778.728
808.6454, 1785.784
809.1275, 1789.313
809.6096, 1789.177
810.0917, 1783.898
810.5739, 1783.341
811.0560, 1791.948
811.5381, 1798.596
812.0202, 1793.461
812.5023, 1782.185
812.9844, 1780.531
813.4666, 1794.138
813.9487, 1803.036
814.4308, 1806.039
814.9129, 1805.072
815.3950, 1799.284
815.8771, 1790.930
816.3593, 1780.861
816.8414, 1769.890
817.3235, 1763.510
817.8056, 1766.763
818.2877, 1772.916
818.7698, 1778.391
819.2520, 1782.911
819.7341, 1784.852
820.2162, 1785.184
820.6983, 1789.915
821.1804, 1804.004
821.6625, 1816.038
822.1447, 1802.176
822.6268, 1770.819
823.1089, 1761.224
823.5910, 1775.343
824.0731, 1783.240
824.5552, 1770.360
825.0374, 1751.917
825.5195, 1749.662
826.0016, 1763.721
826.4837, 1782.339
826.9658, 1812.891
827.4479, 1828.319
827.9301, 1812.415
828.4122, 1791.123
828.8943, 1788.624
829.3764, 1800.584
829.8585, 1804.947
830.3406, 1795.453
830.8228, 1787.688
831.3049, 1780.746
831.7870, 1778.799
832.2691, 1789.434
832.7512, 1804.820
833.2333, 1812.568
833.7155, 1809.734
834.1976, 1801.115
834.6797, 1779.100
835.1618, 1761.954
835.6439, 1773.214
836.1260, 1798.667
836.6082, 1812.703
837.0903, 1811.288
837.5724, 1805.856
838.0545, 1803.929
838.5366, 1804.026
839.0187, 1803.471
839.5009, 1802.672
839.9830, 1803.563
840.4651, 1806.325
840.9472, 1810.237
841.4293, 1815.089
841.9114, 1820.102
842.3936, 1824.213
842.8757, 1827.500
843.3578, 1827.575
843.8399, 1821.967
844.3220, 1821.054
844.8041, 1832.141
845.2863, 1842.639
845.7684, 1838.278
846.2505, 1821.218
846.7326, 1811.587
847.2147, 1814.887
847.6968, 1817.018
848.1790, 1814.508
848.6611, 1813.319
849.1432, 1820.291
849.6253, 1829.493
850.1074, 1829.640
850.5895, 1817.985
851.0717, 1807.655
851.5538, 1802.974
852.0359, 1802.669
852.5180, 1808.069
853.0001, 1816.143
853.4822, 1823.311
853.9644, 1828.882
854.4465, 1833.655
854.9286, 1838.056
855.4107, 1842.078
855.8928, 1846.035
856.3749, 1849.536
856.8571, 1850.972
857.3392, 1850.823
857.8213, 1852.729
858.3034, 1858.393
858.7855, 1864.189
859.2676, 1865.918
859.7498, 1863.547
860.2319, 1854.944
860.7140, 1839.390
861.1961, 1829.316
861.6782, 1828.318
862.1603, 1831.361
862.6425, 1834.526
863.1245, 1838.115
863.6066, 1843.480
864.0887, 1851.987
864.5709, 1858.589
865.0530, 1862.092
865.5351, 1865.274
866.0172, 1868.727
866.4993, 1872.932
866.9814, 1881.116
867.4636, 1894.430
867.9457, 1895.756
868.4278, 1871.458
868.9099, 1850.920
869.3920, 1839.399
869.8741, 1837.282
870.3563, 1850.630
870.8384, 1873.156
871.3205, 1887.756
871.8026, 1887.408
872.2847, 1885.175
872.7668, 1883.890
873.2490, 1887.164
873.7311, 1908.131
874.2132, 1932.560
874.6953, 1927.673
875.1774, 1890.665
875.6595, 1862.870
876.1417, 1881.736
876.6238, 1916.773
877.1059, 1925.831
877.5880, 1918.778
878.0701, 1919.059
878.5522, 1928.594
879.0344, 1936.848
879.5165, 1938.202
879.9986, 1935.452
880.4807, 1932.075
880.9628, 1928.222
881.4449, 1923.093
881.9271, 1916.655
882.4092, 1919.197
882.8913, 1934.983
883.3734, 1952.318
883.8555, 1959.857
884.3376, 1960.144
884.8198, 1965.872
885.3019, 1981.696
885.7840, 1982.744
886.2661, 1959.189
886.7482, 1938.415
887.2303, 1933.972
887.7125, 1939.842
888.1946, 1946.359
888.6767, 1952.912
889.1588, 1964.568
889.6409, 1989.995
890.1230, 2008.749
890.6052, 2018.102
891.0873, 2019.219
891.5694, 2006.141
892.0515, 1986.004
892.5336, 1979.276
893.0157, 1994.871
893.4979, 2007.631
893.9800, 2010.663
894.4621, 2009.637
894.9442, 2004.182
895.4263, 1998.571
895.9084, 1997.957
896.3906, 2002.883
896.8727, 2010.734
897.3548, 2022.485
897.8369, 2033.568
898.3190, 2041.047
898.8011, 2045.951
899.2833, 2048.771
899.7654, 2050.218
900.2475, 2052.835
900.7296, 2057.426
901.2117, 2057.911
901.6938, 2041.911
902.1760, 2022.839
902.6581, 2024.927
903.1402, 2040.898
903.6223, 2051.320
904.1044, 2052.745
904.5865, 2051.758
905.0687, 2052.628
905.5508, 2053.916
906.0329, 2054.021
906.5150, 2052.487
906.9971, 2045.432
907.4792, 2033.141
907.9614, 2023.308
908.4435, 2018.482
908.9256, 2019.251
909.4077, 2026.865
909.8898, 2040.064
910.3719, 2056.010
910.8541, 2076.525
911.3362, 2079.070
911.8183, 2056.028
912.3004, 2034.288
912.7825, 2027.660
913.2646, 2032.510
913.7468, 2044.208
914.2289, 2063.995
914.7110, 2077.493
915.1931, 2087.406
915.6752, 2083.689
916.1573, 2052.956
916.6395, 2023.321
917.1216, 2019.239
917.6037, 2033.014
918.0858, 2038.223
918.5679, 2029.514
919.0500, 2024.191
919.5322, 2026.022
920.0143, 2026.603
920.4964, 2017.818
920.9785, 2010.359
921.4606, 2019.642
921.9427, 2042.852
922.4249, 2054.413
922.9070, 2039.307
923.3891, 2028.468
923.8712, 2029.261
924.3533, 2035.841
924.8354, 2051.012
925.3176, 2066.528
925.7997, 2066.718
926.2818, 2049.468
926.7639, 2039.262
927.2460, 2054.481
927.7281, 2069.487
928.2103, 2068.366
928.6924, 2061.135
929.1745, 2055.838
929.6566, 2054.392
930.1387, 2059.409
930.6208, 2072.501
931.1030, 2082.934
931.5851, 2081.258
932.0672, 2075.002
932.5493, 2070.856
933.0314, 2067.970
933.5135, 2062.512
933.9957, 2055.675
934.4778, 2055.402
934.9599, 2067.214
935.4420, 2082.501
935.9241, 2092.002
936.4063, 2098.521
936.8884, 2107.787
937.3705, 2118.365
937.8526, 2125.222
938.3347, 2126.914
938.8168, 2124.817
939.2990, 2118.925
939.7811, 2112.310
940.2632, 2112.943
940.7453, 2117.298
941.2274, 2112.419
941.7095, 2098.320
942.1917, 2082.921
942.6738, 2069.650
943.1559, 2062.810
943.6380, 2068.498
944.1201, 2084.041
944.6022, 2103.201
945.0844, 2124.894
945.5665, 2137.482
946.0486, 2138.986
946.5307, 2138.095
947.0128, 2139.844
947.4949, 2141.288
947.9771, 2135.032
948.4592, 2122.374
948.9413, 2127.201
949.4234, 2151.077
949.9055, 2174.744
950.3876, 2195.514
950.8698, 2204.489
951.3519, 2191.183
951.8340, 2168.947
952.3161, 2176.011
952.7982, 2220.074
953.2803, 2234.518
953.7625, 2208.841
954.2446, 2194.371
954.7267, 2210.387
955.2088, 2233.861
955.6909, 2243.508
956.1730, 2242.359
956.6552, 2243.469
957.1373, 2245.465
957.6194, 2254.920
958.1015, 2276.848
958.5836, 2296.059
959.0657, 2306.922
959.5479, 2312.074
960.0300, 2313.686
960.5121, 2312.042
960.9942, 2310.989
961.4763, 2309.643
961.9584, 2310.837
962.4406, 2316.957
962.9227, 2322.486
963.4048, 2323.773
963.8869, 2323.710
964.3690, 2325.977
964.8511, 2330.510
965.3333, 2338.413
965.8154, 2359.910
966.2975, 2369.346
966.7796, 2348.883
967.2617, 2331.853
967.7438, 2342.174
968.2260, 2365.770
968.7081, 2378.272
969.1902, 2377.944
969.6723, 2373.714
970.1544, 2362.773
970.6365, 2352.582
971.1187, 2345.082
971.6008, 2325.137
972.0829, 2336.081
972.5650, 2339.823
973.0471, 2336.752
973.5292, 2306.462
974.0114, 2311.318
974.4935, 2302.090
974.9756, 2292.285
975.4577, 2302.090
975.9398, 2295.818
976.4219, 2295.102
976.9041, 2290.464
977.3862, 2279.959
977.8683, 2259.545
978.3504, 2246.337
978.8325, 2250.419
979.3146, 2255.149
979.7968, 2255.664
980.2789, 2251.285
980.7610, 2239.948
981.2431, 2223.285
981.7252, 2206.219
982.2073, 2185.859
982.6895, 2176.123
983.1716, 2191.413
983.6537, 2206.739
984.1358, 2207.796
984.6179, 2201.657
985.1000, 2196.587
985.5822, 2193.185
986.0643, 2188.653
986.5464, 2182.213
987.0285, 2174.554
987.5106, 2163.974
987.9927, 2154.378
988.4749, 2149.336
988.9570, 2146.121
989.4391, 2143.588
989.9212, 2139.906
990.4033, 2126.290
990.8854, 2088.276
991.3676, 2061.565
991.8497, 2066.102
992.3318, 2082.405
992.8139, 2102.264
993.2960, 2121.439
993.7781, 2135.663
994.2603, 2144.324
994.7424, 2149.487
995.2245, 2154.712
995.7066, 2151.942
996.1887, 2128.500
996.6708, 2104.286
997.1530, 2093.488
997.6351, 2093.608
998.1172, 2101.448
998.5993, 2115.196
999.0814, 2126.306
999.5635, 2132.565
1000.046, 2133.518
1000.528, 2121.651
1001.010, 2111.280
1001.492, 2117.389
1001.974, 2132.226
1002.456, 2141.142
1002.938, 2141.878
1003.420, 2143.649
1003.903, 2156.738
1004.385, 2163.426
1004.867, 2146.352
1005.349, 2127.304
1005.831, 2127.294
1006.313, 2138.161
1006.795, 2141.978
1007.277, 2135.901
1007.759, 2134.040
1008.242, 2147.738
1008.724, 2160.218
1009.206, 2165.538
1009.688, 2164.403
1010.170, 2153.895
1010.652, 2138.737
1011.134, 2124.760
1011.616, 2113.658
1012.099, 2111.712
1012.581, 2134.484
1013.063, 2149.986
1013.545, 2132.899
1014.027, 2112.533
1014.509, 2115.719
1014.991, 2132.701
1015.473, 2144.243
1015.955, 2146.544
1016.438, 2143.260
1016.920, 2131.111
1017.402, 2119.741
1017.884, 2116.435
1018.366, 2112.429
1018.848, 2095.518
1019.330, 2075.162
1019.812, 2070.980
1020.294, 2085.788
1020.777, 2093.746
1021.259, 2078.153
1021.741, 2065.654
1022.223, 2067.509
1022.705, 2074.243
1023.187, 2081.177
1023.669, 2087.048
1024.151, 2089.227
1024.634, 2087.523
1025.116, 2091.377
1025.598, 2115.247
1026.080, 2128.153
1026.562, 2109.003
1027.044, 2088.528
1027.526, 2089.014
1028.008, 2101.049
1028.490, 2108.739
1028.973, 2110.400
1029.455, 2111.990
1029.937, 2116.498
1030.419, 2118.328
1030.901, 2110.588
1031.383, 2105.952
1031.865, 2120.552
1032.347, 2138.265
1032.830, 2130.316
1033.312, 2095.485
1033.794, 2076.794
1034.276, 2088.385
1034.758, 2102.135
1035.240, 2123.574
1035.722, 2135.945
1036.204, 2121.721
1036.687, 2099.193
1037.169, 2095.970
1037.651, 2111.910
1038.133, 2115.635
1038.615, 2096.389
1039.097, 2080.804
1039.579, 2067.391
1040.061, 2061.160
1040.543, 2068.521
1041.026, 2080.567
1041.508, 2086.193
1041.990, 2086.239
1042.472, 2090.954
1042.954, 2109.840
1043.436, 2111.859
1043.918, 2079.087
1044.400, 2060.013
1044.882, 2080.625
1045.365, 2113.481
1045.847, 2131.384
1046.329, 2135.483
1046.811, 2132.106
1047.293, 2118.235
1047.775, 2106.098
1048.257, 2094.979
1048.739, 2088.007
1049.222, 2086.020
1049.704, 2089.862
1050.186, 2103.360
1050.668, 2120.720
1051.150, 2118.851
1051.632, 2093.813
1052.114, 2073.693
1052.596, 2058.256
1053.078, 2052.193
1053.561, 2057.140
1054.043, 2073.166
1054.525, 2104.177
1055.007, 2137.752
1055.489, 2139.278
1055.971, 2108.785
1056.453, 2087.522
1056.935, 2075.991
1057.417, 2069.926
1057.900, 2068.336
1058.382, 2071.136
1058.864, 2079.044
1059.346, 2087.084
1059.828, 2084.796
1060.310, 2074.448
1060.792, 2070.388
1061.274, 2071.309
1061.757, 2065.367
1062.239, 2051.353
1062.721, 2044.229
1063.203, 2052.661
1063.685, 2064.675
1064.167, 2063.669
1064.649, 2054.750
1065.131, 2049.452
1065.614, 2047.150
1066.096, 2047.745
1066.578, 2049.803
1067.060, 2045.575
1067.542, 2032.096
1068.024, 2023.101
1068.506, 2038.183
1068.988, 2058.420
1069.470, 2052.860
1069.953, 2035.890
1070.435, 2032.029
1070.917, 2040.115
1071.399, 2049.931
1071.881, 2057.735
1072.363, 2062.115
1072.845, 2059.303
1073.327, 2057.132
1073.809, 2068.543
1074.292, 2078.860
1074.774, 2059.011
1075.256, 2031.022
1075.738, 2047.776
1076.220, 2109.345
1076.702, 2143.464
1077.184, 2099.591
1077.666, 2062.966
1078.148, 2087.140
1078.631, 2119.795
1079.113, 2124.213
1079.595, 2115.490
1080.077, 2115.506
1080.559, 2123.824
1081.041, 2124.747
1081.523, 2105.031
1082.005, 2103.982
1082.488, 2149.745
1082.970, 2190.648
1083.452, 2201.198
1083.934, 2202.839
1084.416, 2215.095
1084.898, 2234.442
1085.380, 2247.875
1085.862, 2253.315
1086.344, 2259.943
1086.827, 2275.482
1087.309, 2278.685
1087.791, 2261.264
1088.273, 2237.062
1088.755, 2213.286
1089.237, 2189.608
1089.719, 2165.413
1090.201, 2140.734
1090.683, 2114.841
1091.166, 2084.863
1091.648, 2067.773
1092.130, 2069.762
1092.612, 2067.086
1093.094, 2046.954
1093.576, 2022.648
1094.058, 2009.892
1094.540, 2006.728
1095.023, 2007.024
1095.505, 2010.353
1095.987, 2003.959
1096.469, 1987.490
1096.951, 1977.777
1097.433, 1980.232
1097.915, 1983.994
1098.397, 1979.745
1098.880, 1972.099
1099.362, 1967.640
1099.844, 1967.028
1100.326, 1976.348
1100.808, 1990.835
1101.290, 1992.771
1101.772, 1980.931
1102.254, 1969.598
1102.736, 1966.301
1103.219, 1968.957
1103.701, 1983.554
1104.183, 1995.657
1104.665, 1983.665
1105.147, 1960.220
1105.629, 1940.698
1106.111, 1928.802
1106.593, 1929.218
1107.075, 1943.262
1107.558, 1953.899
1108.040, 1945.636
1108.522, 1939.709
1109.004, 1952.833
1109.486, 1967.641
1109.968, 1968.741
1110.450, 1962.154
1110.932, 1959.123
1111.415, 1960.476
1111.897, 1958.912
1112.379, 1947.917
1112.861, 1942.328
1113.343, 1949.061
1113.825, 1955.425
1114.307, 1957.294
1114.789, 1955.460
1115.271, 1946.670
1115.754, 1935.448
1116.236, 1940.400
1116.718, 1971.245
1117.200, 1975.989
1117.682, 1942.474
1118.164, 1920.547
1118.646, 1923.716
1119.128, 1931.937
1119.610, 1932.696
1120.093, 1930.570
1120.575, 1933.924
1121.057, 1941.436
1121.539, 1942.222
1122.021, 1936.479
1122.503, 1925.031
1122.985, 1909.027
1123.467, 1906.813
1123.950, 1925.678
1124.432, 1947.777
1124.914, 1957.742
1125.396, 1956.315
1125.878, 1939.349
1126.360, 1914.413
1126.842, 1893.704
1127.324, 1880.658
1127.807, 1883.270
1128.289, 1900.835
1128.771, 1922.905
1129.253, 1946.178
1129.735, 1959.608
1130.217, 1946.130
1130.699, 1928.209
1131.181, 1923.482
1131.663, 1926.575
1132.146, 1933.473
1132.628, 1941.122
1133.110, 1944.526
1133.592, 1942.548
1134.074, 1938.110
1134.556, 1931.272
1135.038, 1923.213
1135.520, 1914.861
1136.002, 1904.753
1136.485, 1886.432
1136.967, 1869.818
1137.449, 1869.682
1137.931, 1883.449
1138.413, 1891.976
1138.895, 1896.417
1139.377, 1890.661
1139.859, 1868.066
1140.342, 1856.017
1140.824, 1864.513
1141.306, 1877.715
1141.788, 1884.274
1142.270, 1886.741
1142.752, 1891.327
1143.234, 1896.704
1143.716, 1886.860
1144.198, 1864.798
1144.681, 1863.399
1145.163, 1884.378
1145.645, 1896.829
1146.127, 1888.303
1146.609, 1880.961
1147.091, 1900.036
1147.573, 1923.300
1148.055, 1914.882
1148.537, 1892.207
1149.020, 1880.153
1149.502, 1877.521
1149.984, 1878.098
1150.466, 1880.308
1150.948, 1885.703
1151.430, 1897.393
1151.912, 1901.197
1152.394, 1880.669
1152.877, 1861.373
1153.359, 1859.486
1153.841, 1863.429
1154.323, 1861.307
1154.805, 1857.020
1155.287, 1863.059
1155.769, 1882.239
1156.251, 1886.700
1156.734, 1862.355
1157.216, 1849.562
1157.698, 1858.630
1158.180, 1864.357
1158.662, 1855.593
1159.144, 1841.511
1159.626, 1829.046
1160.108, 1821.187
1160.590, 1830.628
1161.073, 1857.318
1161.555, 1868.747
1162.037, 1865.332
1162.519, 1869.138
1163.001, 1883.454
1163.483, 1886.276
1163.965, 1865.671
1164.447, 1844.189
1164.929, 1849.156
1165.412, 1866.196
1165.894, 1874.377
1166.376, 1876.657
1166.858, 1876.591
1167.340, 1875.458
1167.822, 1875.730
1168.304, 1877.144
1168.786, 1874.500
1169.269, 1862.617
1169.751, 1855.176
1170.233, 1861.573
1170.715, 1870.920
1171.197, 1885.281
1171.679, 1892.698
1172.161, 1872.876
1172.643, 1840.361
1173.125, 1832.222
1173.608, 1852.204
1174.090, 1868.130
1174.572, 1880.875
1175.054, 1887.183
1175.536, 1884.638
1176.018, 1881.118
1176.500, 1878.784
1176.982, 1880.635
1177.464, 1891.627
1177.947, 1904.191
1178.429, 1894.532
1178.911, 1867.673
1179.393, 1859.182
1179.875, 1866.935
1180.357, 1878.540
1180.839, 1890.009
1181.321, 1893.630
1181.804, 1886.091
1182.286, 1875.967
1182.768, 1870.321
1183.250, 1866.188
1183.732, 1858.182
1184.214, 1852.192
1184.696, 1855.693
1185.178, 1865.366
1185.661, 1877.655
1186.143, 1890.280
1186.625, 1896.867
1187.107, 1894.219
1187.589, 1890.831
1188.071, 1883.987
1188.553, 1882.971
1189.035, 1899.546
1189.517, 1910.043
1190.000, 1895.970
1190.482, 1873.699
1190.964, 1867.422
1191.446, 1875.442
1191.928, 1887.062
1192.410, 1903.220
1192.892, 1902.432
1193.374, 1883.381
1193.856, 1873.307
1194.339, 1879.461
1194.821, 1887.159
1195.303, 1886.650
1195.785, 1884.625
1196.267, 1889.439
1196.749, 1898.537
1197.231, 1912.271
1197.713, 1924.796
1198.196, 1926.057
1198.678, 1917.999
1199.160, 1903.977
1199.642, 1886.807
1200.124, 1880.468
1200.606, 1898.319
1201.088, 1910.447
1201.570, 1879.999
1202.052, 1895.318
1202.535, 1903.435
1203.017, 1904.740
1203.499, 1878.825
1203.981, 1888.060
1204.463, 1883.208
1204.945, 1877.779
1205.427, 1891.960
1205.909, 1870.004
1206.391, 1883.875
1206.874, 1883.442
1207.356, 1889.557
1207.838, 1881.498
1208.320, 1917.040
1208.802, 1905.038
1209.284, 1880.203
1209.766, 1877.458
1210.248, 1887.544
1210.731, 1898.603
1211.213, 1907.734
1211.695, 1906.408
1212.177, 1899.867
1212.659, 1907.578
1213.141, 1931.956
1213.623, 1940.803
1214.105, 1904.673
1214.588, 1881.145
1215.070, 1904.130
1215.552, 1923.791
1216.034, 1909.169
1216.516, 1890.077
1216.998, 1891.564
1217.480, 1905.677
1217.962, 1917.490
1218.444, 1926.945
1218.927, 1927.316
1219.409, 1917.198
1219.891, 1916.566
1220.373, 1927.388
1220.855, 1938.016
1221.337, 1944.295
1221.819, 1940.176
1222.301, 1919.288
1222.783, 1897.337
1223.266, 1896.799
1223.748, 1906.297
1224.230, 1913.601
1224.712, 1917.578
1225.194, 1914.297
1225.676, 1907.682
1226.158, 1906.518
1226.640, 1912.299
1227.122, 1920.358
1227.605, 1932.398
1228.087, 1940.906
1228.569, 1945.289
1229.051, 1944.604
1229.533, 1934.555
1230.015, 1926.101
1230.497, 1928.796
1230.979, 1934.059
1231.462, 1925.678
1231.944, 1907.103
1232.426, 1902.956
1232.908, 1911.642
##END=



