##NAMES=Witherite
##RRUFFID=R050148
##IDEAL CHEMISTRY=BaCO_3_
##LOCALITY=Settlingstones mine, Fourstones, Northumberland, England
##OWNER=RRUFF
##SOURCE=Jim McGlasson
##DESCRIPTION=Tan colored crystal fragment
##STATUS=The identification of this mineral has been confirmed by X-ray diffraction and chemical analysis
##URL=rruff.info/R050148
##MEASURED CHEMISTRY=(Ba_0.96_Sr_0.04_)CO_3_
93.74609, 385.0322
94.22821, 374.2136
94.71033, 378.1398
95.19244, 395.1714
95.67456, 419.4597
96.15668, 450.7727
96.63879, 487.8047
97.12091, 526.3668
97.60303, 566.4412
98.08514, 609.0463
98.56726, 653.7107
99.04938, 700.4895
99.53149, 753.7567
100.0136, 816.1469
100.4957, 887.4342
100.9778, 962.3690
101.4600, 1039.699
101.9421, 1120.983
102.4242, 1207.510
102.9063, 1299.700
103.3884, 1397.724
103.8705, 1501.517
104.3527, 1614.596
104.8348, 1726.559
105.3169, 1838.473
105.7990, 1949.258
106.2811, 2059.060
106.7632, 2167.074
107.2454, 2273.947
107.7275, 2378.533
108.2096, 2481.926
108.6917, 2583.195
109.1738, 2679.114
109.6559, 2768.633
110.1381, 2870.492
110.6202, 2985.571
111.1023, 3113.586
111.5844, 3254.259
112.0665, 3403.657
112.5486, 3571.165
113.0308, 3760.530
113.5129, 3976.244
113.9950, 4204.111
114.4771, 4442.577
114.9592, 4691.019
115.4413, 4952.219
115.9235, 5239.087
116.4056, 5528.591
116.8877, 5807.287
117.3698, 6078.757
117.8519, 6338.877
118.3340, 6584.608
118.8162, 6818.031
119.2983, 7043.147
119.7804, 7267.376
120.2625, 7484.219
120.7446, 7685.900
121.2267, 7865.712
121.7089, 8039.895
122.1910, 8218.299
122.6731, 8399.770
123.1552, 8578.914
123.6373, 8745.669
124.1194, 8909.243
124.6016, 9084.135
125.0837, 9270.939
125.5658, 9470.209
126.0479, 9680.015
126.5300, 9900.600
127.0121, 10137.37
127.4943, 10388.75
127.9764, 10658.14
128.4585, 10960.90
128.9406, 11289.49
129.4227, 11655.58
129.9048, 12077.24
130.3869, 12554.56
130.8691, 13086.88
131.3512, 13669.90
131.8333, 14257.79
132.3154, 14831.52
132.7975, 15461.37
133.2796, 16155.81
133.7618, 16864.05
134.2439, 17609.44
134.7260, 18319.82
135.2081, 18915.16
135.6902, 19407.38
136.1723, 19693.85
136.6545, 19710.45
137.1366, 19460.85
137.6187, 19034.87
138.1008, 18396.42
138.5829, 17630.97
139.0650, 16897.43
139.5472, 16176.79
140.0293, 15538.60
140.5114, 15017.61
140.9935, 14614.98
141.4756, 14302.28
141.9577, 14081.01
142.4399, 13939.99
142.9220, 13836.11
143.4041, 13768.33
143.8862, 13735.35
144.3683, 13736.91
144.8504, 13777.08
145.3326, 13841.16
145.8147, 13922.93
146.2968, 14024.11
146.7789, 14161.42
147.2610, 14338.21
147.7431, 14548.72
148.2253, 14790.90
148.7074, 15055.78
149.1895, 15363.06
149.6716, 15711.77
150.1537, 16101.77
150.6358, 16529.95
151.1180, 17020.64
151.6001, 17537.10
152.0822, 18033.82
152.5643, 18612.45
153.0464, 19073.51
153.5285, 19378.06
154.0107, 19517.68
154.4928, 19522.62
154.9749, 19316.62
155.4570, 19000.11
155.9391, 18701.31
156.4212, 18382.38
156.9034, 18125.34
157.3855, 17966.34
157.8676, 17938.46
158.3497, 17923.53
158.8318, 17967.90
159.3139, 18004.89
159.7961, 17921.23
160.2782, 17699.67
160.7603, 17344.64
161.2424, 16841.27
161.7245, 16134.75
162.2066, 15401.83
162.6888, 14655.13
163.1709, 13921.41
163.6530, 13260.51
164.1351, 12692.64
164.6172, 12205.30
165.0993, 11792.89
165.5815, 11462.77
166.0636, 11189.60
166.5457, 10967.90
167.0278, 10792.16
167.5099, 10646.07
167.9921, 10531.66
168.4742, 10438.15
168.9563, 10356.59
169.4384, 10287.31
169.9205, 10225.60
170.4026, 10169.69
170.8848, 10118.97
171.3669, 10071.68
171.8490, 10022.45
172.3311, 9977.678
172.8132, 9945.053
173.2953, 9928.623
173.7775, 9923.566
174.2596, 9929.688
174.7417, 9945.700
175.2238, 9961.583
175.7059, 9964.200
176.1880, 9962.716
176.6702, 9971.701
177.1523, 9996.367
177.6344, 10033.53
178.1165, 10084.70
178.5986, 10149.47
179.0807, 10211.58
179.5629, 10262.88
180.0450, 10302.21
180.5271, 10326.43
181.0092, 10337.63
181.4913, 10331.76
181.9734, 10296.35
182.4556, 10230.64
182.9377, 10156.08
183.4198, 10085.39
183.9019, 10020.11
184.3840, 9967.494
184.8661, 9933.811
185.3483, 9913.577
185.8304, 9892.722
186.3125, 9870.873
186.7946, 9852.531
187.2767, 9848.007
187.7588, 9854.165
188.2409, 9852.450
188.7231, 9827.048
189.2052, 9787.163
189.6873, 9766.996
190.1694, 9768.346
190.6515, 9780.547
191.1336, 9791.683
191.6158, 9802.009
192.0979, 9813.759
192.5800, 9827.775
193.0621, 9844.081
193.5442, 9863.400
194.0263, 9886.475
194.5085, 9910.924
194.9906, 9935.324
195.4727, 9959.719
195.9548, 9977.607
196.4369, 9980.854
196.9190, 9970.822
197.4012, 9973.146
197.8833, 9990.058
198.3654, 10013.96
198.8475, 10033.02
199.3296, 10047.04
199.8117, 10058.69
200.2939, 10067.77
200.7760, 10074.15
201.2581, 10083.38
201.7402, 10095.17
202.2223, 10110.39
202.7044, 10132.16
203.1866, 10161.62
203.6687, 10190.65
204.1508, 10214.17
204.6329, 10231.28
205.1150, 10254.64
205.5971, 10286.34
206.0793, 10322.12
206.5614, 10353.03
207.0435, 10377.21
207.5256, 10403.00
208.0077, 10433.53
208.4898, 10468.69
208.9720, 10509.43
209.4541, 10556.67
209.9362, 10608.45
210.4183, 10660.15
210.9004, 10709.60
211.3825, 10763.68
211.8647, 10826.49
212.3468, 10899.59
212.8289, 10973.43
213.3110, 11046.82
213.7931, 11121.81
214.2752, 11202.25
214.7574, 11290.54
215.2395, 11380.13
215.7216, 11470.03
216.2037, 11560.59
216.6858, 11648.28
217.1679, 11736.81
217.6501, 11820.76
218.1322, 11885.58
218.6143, 11928.66
219.0964, 11959.64
219.5785, 11981.67
220.0606, 11994.49
220.5428, 11999.63
221.0249, 11993.42
221.5070, 11981.31
221.9891, 11975.76
222.4712, 11976.46
222.9533, 11984.09
223.4355, 12000.92
223.9176, 12033.97
224.3997, 12057.41
224.8818, 12074.00
225.3639, 12079.91
225.8460, 12066.85
226.3282, 12035.33
226.8103, 11983.99
227.2924, 11910.88
227.7745, 11806.04
228.2566, 11703.14
228.7387, 11602.07
229.2209, 11502.88
229.7030, 11408.34
230.1851, 11317.65
230.6672, 11231.44
231.1493, 11149.05
231.6314, 11067.79
232.1136, 10998.38
232.5957, 10944.70
233.0778, 10901.04
233.5599, 10855.88
234.0420, 10805.88
234.5241, 10759.67
235.0063, 10720.86
235.4884, 10690.85
235.9705, 10665.04
236.4526, 10643.75
236.9347, 10626.08
237.4168, 10609.85
237.8990, 10593.62
238.3811, 10580.78
238.8632, 10573.46
239.3453, 10574.26
239.8274, 10572.09
240.3095, 10564.82
240.7917, 10555.69
241.2738, 10551.65
241.7559, 10558.17
242.2380, 10561.03
242.7201, 10553.93
243.2022, 10532.28
243.6844, 10516.58
244.1665, 10508.04
244.6486, 10504.81
245.1307, 10503.94
245.6128, 10506.62
246.0949, 10509.79
246.5771, 10512.35
247.0592, 10513.89
247.5413, 10516.22
248.0234, 10519.05
248.5055, 10522.65
248.9876, 10527.79
249.4697, 10536.23
249.9519, 10542.80
250.4340, 10545.87
250.9161, 10545.08
251.3982, 10542.61
251.8803, 10537.87
252.3624, 10532.11
252.8446, 10526.29
253.3267, 10517.27
253.8088, 10514.72
254.2909, 10523.55
254.7730, 10546.13
255.2551, 10561.89
255.7373, 10568.27
256.2194, 10570.51
256.7015, 10574.37
257.1836, 10579.49
257.6657, 10586.87
258.1479, 10598.04
258.6300, 10613.31
259.1121, 10622.50
259.5942, 10622.85
260.0763, 10619.92
260.5584, 10619.12
261.0406, 10619.85
261.5227, 10624.45
262.0048, 10635.59
262.4869, 10652.97
262.9690, 10663.18
263.4511, 10664.28
263.9333, 10661.28
264.4154, 10657.93
264.8975, 10652.85
265.3796, 10652.60
265.8617, 10660.60
266.3438, 10675.72
266.8260, 10684.97
267.3081, 10686.72
267.7902, 10685.83
268.2723, 10685.73
268.7544, 10685.92
269.2365, 10689.31
269.7187, 10697.63
270.2008, 10709.63
270.6829, 10716.88
271.1650, 10717.09
271.6471, 10717.87
272.1292, 10725.78
272.6114, 10742.24
273.0935, 10756.65
273.5756, 10766.56
274.0577, 10773.44
274.5398, 10784.08
275.0219, 10800.11
275.5041, 10813.63
275.9862, 10816.68
276.4683, 10807.01
276.9504, 10806.48
277.4325, 10820.52
277.9146, 10841.68
278.3968, 10850.00
278.8788, 10843.39
279.3610, 10835.21
279.8431, 10833.40
280.3252, 10838.39
280.8073, 10844.63
281.2894, 10852.75
281.7715, 10861.33
282.2537, 10866.46
282.7358, 10867.74
283.2179, 10871.09
283.7000, 10881.70
284.1821, 10899.06
284.6642, 10909.31
285.1464, 10910.22
285.6285, 10908.46
286.1106, 10915.11
286.5927, 10930.01
287.0748, 10944.35
287.5569, 10953.46
288.0391, 10958.03
288.5212, 10963.24
289.0033, 10968.84
289.4854, 10975.64
289.9675, 10985.54
290.4496, 10998.30
290.9318, 11010.47
291.4139, 11021.37
291.8960, 11030.96
292.3781, 11038.14
292.8602, 11042.90
293.3423, 11047.27
293.8245, 11053.53
294.3066, 11061.34
294.7887, 11069.22
295.2708, 11077.79
295.7529, 11085.37
296.2350, 11086.63
296.7172, 11081.57
297.1993, 11077.08
297.6814, 11080.55
298.1635, 11089.29
298.6456, 11095.52
299.1277, 11096.64
299.6099, 11095.47
300.0920, 11095.47
300.5741, 11096.83
301.0562, 11100.30
301.5383, 11108.98
302.0204, 11120.02
302.5026, 11127.63
302.9847, 11130.04
303.4668, 11130.47
303.9489, 11129.52
304.4310, 11128.70
304.9131, 11133.63
305.3953, 11154.28
305.8774, 11179.98
306.3595, 11195.47
306.8416, 11196.60
307.3237, 11194.79
307.8058, 11199.31
308.2880, 11208.26
308.7701, 11217.42
309.2522, 11226.03
309.7343, 11233.24
310.2164, 11238.45
310.6985, 11241.79
311.1807, 11243.18
311.6628, 11239.76
312.1449, 11235.13
312.6270, 11234.78
313.1091, 11247.66
313.5912, 11260.67
314.0734, 11264.14
314.5555, 11257.90
315.0376, 11252.44
315.5197, 11250.85
316.0018, 11253.74
316.4839, 11261.74
316.9661, 11279.86
317.4482, 11298.43
317.9303, 11313.49
318.4124, 11325.14
318.8945, 11335.39
319.3766, 11341.19
319.8588, 11347.63
320.3409, 11358.80
320.8230, 11385.01
321.3051, 11403.48
321.7872, 11402.16
322.2693, 11387.35
322.7515, 11378.37
323.2336, 11382.30
323.7157, 11391.32
324.1978, 11402.89
324.6799, 11421.87
325.1620, 11433.08
325.6442, 11429.15
326.1263, 11416.93
326.6084, 11408.60
327.0905, 11403.29
327.5726, 11403.99
328.0547, 11414.12
328.5369, 11439.24
329.0190, 11455.60
329.5011, 11457.90
329.9832, 11453.59
330.4653, 11450.82
330.9474, 11448.21
331.4296, 11449.10
331.9117, 11455.57
332.3938, 11468.06
332.8759, 11478.11
333.3580, 11485.76
333.8401, 11491.24
334.3223, 11494.35
334.8044, 11493.59
335.2865, 11493.27
335.7686, 11492.60
336.2507, 11492.39
336.7328, 11498.44
337.2150, 11513.85
337.6971, 11529.46
338.1792, 11539.26
338.6613, 11541.05
339.1434, 11544.52
339.6255, 11550.31
340.1077, 11557.75
340.5898, 11565.47
341.0719, 11573.01
341.5540, 11582.11
342.0361, 11595.81
342.5182, 11614.74
343.0004, 11624.67
343.4825, 11624.12
343.9646, 11618.47
344.4467, 11614.57
344.9288, 11612.60
345.4109, 11611.58
345.8931, 11611.18
346.3752, 11611.60
346.8573, 11614.04
347.3394, 11618.74
347.8215, 11623.32
348.3036, 11622.07
348.7858, 11617.27
349.2679, 11621.70
349.7500, 11643.30
350.2321, 11670.61
350.7142, 11681.01
351.1964, 11675.78
351.6785, 11668.19
352.1606, 11665.70
352.6427, 11668.00
353.1248, 11676.34
353.6069, 11693.85
354.0891, 11709.68
354.5712, 11708.35
355.0533, 11695.24
355.5354, 11685.39
356.0175, 11689.87
356.4996, 11700.64
356.9818, 11708.95
357.4639, 11713.76
357.9460, 11719.80
358.4281, 11733.96
358.9102, 11750.76
359.3923, 11761.95
359.8745, 11757.02
360.3566, 11751.11
360.8387, 11754.25
361.3208, 11765.91
361.8029, 11777.62
362.2850, 11781.97
362.7672, 11786.44
363.2493, 11797.46
363.7314, 11824.29
364.2135, 11848.68
364.6956, 11865.19
365.1777, 11874.84
365.6599, 11880.49
366.1420, 11878.38
366.6241, 11875.93
367.1062, 11876.30
367.5883, 11879.10
368.0704, 11886.25
368.5526, 11901.30
369.0347, 11919.95
369.5168, 11935.79
369.9989, 11945.44
370.4810, 11955.22
370.9631, 11967.59
371.4453, 11983.45
371.9274, 11993.69
372.4095, 11995.53
372.8916, 11993.81
373.3737, 11992.46
373.8558, 11991.15
374.3380, 11990.70
374.8201, 11990.88
375.3022, 11992.02
375.7843, 11996.96
376.2664, 12009.12
376.7485, 12018.31
377.2307, 12017.20
377.7128, 12003.84
378.1949, 11993.05
378.6770, 11985.39
379.1591, 11981.50
379.6412, 11984.27
380.1234, 11994.68
380.6055, 12004.23
381.0876, 12009.42
381.5697, 12010.71
382.0518, 12009.87
382.5339, 12006.40
383.0161, 12003.71
383.4982, 12003.67
383.9803, 12006.87
384.4624, 12018.15
384.9445, 12044.32
385.4266, 12073.81
385.9088, 12083.64
386.3909, 12075.24
386.8730, 12065.42
387.3551, 12066.40
387.8372, 12073.78
388.3193, 12080.08
388.8015, 12083.77
389.2836, 12086.93
389.7657, 12090.64
390.2478, 12095.42
390.7299, 12102.33
391.2120, 12118.02
391.6942, 12132.32
392.1763, 12135.71
392.6584, 12127.24
393.1405, 12116.29
393.6226, 12104.00
394.1047, 12093.38
394.5869, 12087.78
395.0690, 12091.92
395.5511, 12097.70
396.0332, 12102.10
396.5153, 12105.59
396.9974, 12110.74
397.4796, 12120.23
397.9617, 12130.08
398.4438, 12137.69
398.9259, 12138.97
399.4080, 12144.78
399.8901, 12166.39
400.3723, 12191.66
400.8544, 12197.51
401.3365, 12158.91
401.8186, 12130.67
402.3007, 12130.03
402.7828, 12161.03
403.2649, 12183.96
403.7470, 12195.73
404.2292, 12202.69
404.7113, 12210.28
405.1934, 12219.05
405.6755, 12226.34
406.1576, 12230.54
406.6397, 12233.18
407.1219, 12240.54
407.6040, 12253.65
408.0861, 12266.85
408.5682, 12276.16
409.0503, 12281.38
409.5324, 12288.46
410.0146, 12297.78
410.4967, 12308.20
410.9788, 12319.98
411.4609, 12332.48
411.9430, 12340.36
412.4251, 12338.53
412.9073, 12331.97
413.3894, 12332.92
413.8715, 12341.27
414.3536, 12349.25
414.8357, 12349.07
415.3178, 12344.42
415.8000, 12342.56
416.2821, 12346.30
416.7642, 12351.04
417.2463, 12350.85
417.7284, 12348.01
418.2105, 12348.50
418.6927, 12362.28
419.1748, 12376.01
419.6569, 12378.21
420.1390, 12366.66
420.6211, 12354.51
421.1032, 12342.64
421.5854, 12335.39
422.0675, 12337.36
422.5496, 12358.92
423.0317, 12380.48
423.5138, 12396.67
423.9959, 12407.95
424.4781, 12418.83
424.9602, 12429.93
425.4423, 12440.41
425.9244, 12450.06
426.4065, 12460.17
426.8886, 12466.29
427.3708, 12465.42
427.8529, 12461.61
428.3350, 12460.76
428.8171, 12461.23
429.2992, 12467.78
429.7813, 12484.00
430.2635, 12509.33
430.7456, 12528.14
431.2277, 12539.93
431.7098, 12546.03
432.1919, 12545.31
432.6740, 12536.95
433.1562, 12534.00
433.6383, 12540.29
434.1204, 12549.59
434.6025, 12546.14
435.0846, 12530.33
435.5667, 12519.36
436.0489, 12525.99
436.5310, 12544.44
437.0131, 12557.75
437.4952, 12565.78
437.9773, 12568.21
438.4594, 12560.23
438.9416, 12546.84
439.4237, 12538.64
439.9058, 12540.07
440.3879, 12546.81
440.8700, 12558.34
441.3521, 12572.73
441.8343, 12582.93
442.3164, 12577.81
442.7985, 12571.70
443.2806, 12577.74
443.7627, 12600.85
444.2448, 12621.12
444.7270, 12629.70
445.2091, 12630.76
445.6912, 12629.13
446.1733, 12622.01
446.6554, 12615.96
447.1375, 12611.93
447.6197, 12609.90
448.1018, 12610.95
448.5839, 12616.16
449.0660, 12623.51
449.5481, 12632.40
450.0302, 12645.16
450.5124, 12655.28
450.9945, 12663.63
451.4766, 12668.99
451.9587, 12667.92
452.4408, 12656.86
452.9229, 12649.82
453.4051, 12650.88
453.8872, 12659.54
454.3693, 12672.31
454.8514, 12690.39
455.3335, 12707.76
455.8156, 12719.61
456.2978, 12726.18
456.7799, 12730.44
457.2620, 12732.20
457.7441, 12732.77
458.2262, 12731.77
458.7083, 12730.31
459.1905, 12734.09
459.6726, 12751.62
460.1547, 12773.25
460.6368, 12784.40
461.1189, 12785.26
461.6010, 12784.73
462.0832, 12788.12
462.5653, 12794.12
463.0474, 12802.05
463.5295, 12815.99
464.0116, 12824.88
464.4937, 12816.71
464.9759, 12799.84
465.4580, 12791.45
465.9401, 12806.56
466.4222, 12823.20
466.9043, 12832.38
467.3864, 12832.77
467.8686, 12832.23
468.3507, 12827.87
468.8328, 12825.25
469.3149, 12828.48
469.7970, 12841.38
470.2791, 12853.57
470.7613, 12865.08
471.2434, 12874.94
471.7255, 12880.16
472.2076, 12878.74
472.6897, 12877.09
473.1718, 12877.24
473.6540, 12879.13
474.1361, 12883.82
474.6182, 12891.86
475.1003, 12900.88
475.5824, 12910.38
476.0645, 12919.87
476.5467, 12922.46
477.0288, 12914.04
477.5109, 12903.37
477.9930, 12906.36
478.4751, 12920.60
478.9572, 12934.33
479.4394, 12937.40
479.9215, 12937.78
480.4036, 12947.34
480.8857, 12966.79
481.3678, 12984.52
481.8499, 12992.03
482.3321, 12993.52
482.8142, 12993.32
483.2963, 12988.53
483.7784, 12987.36
484.2605, 12996.92
484.7426, 13012.67
485.2248, 13023.33
485.7069, 13021.40
486.1890, 13018.43
486.6711, 13018.94
487.1532, 13024.39
487.6353, 13028.00
488.1175, 13028.76
488.5996, 13028.78
489.0817, 13029.68
489.5638, 13031.73
490.0459, 13033.98
490.5280, 13035.72
491.0102, 13037.92
491.4923, 13044.67
491.9744, 13057.56
492.4565, 13066.37
492.9386, 13064.68
493.4207, 13054.38
493.9029, 13048.71
494.3850, 13047.96
494.8671, 13048.67
495.3492, 13048.58
495.8313, 13047.52
496.3134, 13044.08
496.7956, 13036.40
497.2777, 13030.42
497.7598, 13033.85
498.2419, 13044.42
498.7240, 13056.10
499.2061, 13068.29
499.6883, 13079.07
500.1704, 13085.40
500.6525, 13087.41
501.1346, 13092.49
501.6167, 13107.77
502.0988, 13124.63
502.5810, 13136.77
503.0631, 13141.56
503.5452, 13143.98
504.0273, 13140.67
504.5094, 13135.94
504.9915, 13137.54
505.4737, 13149.48
505.9558, 13161.51
506.4379, 13171.35
506.9200, 13178.93
507.4021, 13184.68
507.8842, 13187.39
508.3664, 13190.87
508.8485, 13199.52
509.3306, 13213.50
509.8127, 13220.47
510.2948, 13217.93
510.7769, 13212.86
511.2591, 13214.23
511.7412, 13221.75
512.2233, 13234.19
512.7054, 13256.85
513.1875, 13279.57
513.6696, 13284.76
514.1517, 13275.12
514.6339, 13265.29
515.1160, 13267.09
515.5981, 13271.82
516.0802, 13269.93
516.5623, 13258.44
517.0444, 13250.25
517.5266, 13252.85
518.0087, 13261.37
518.4908, 13270.50
518.9729, 13287.75
519.4550, 13295.90
519.9371, 13287.00
520.4193, 13264.91
520.9014, 13246.35
521.3835, 13227.30
521.8656, 13217.01
522.3477, 13221.50
522.8298, 13243.56
523.3120, 13257.53
523.7941, 13261.10
524.2762, 13260.77
524.7583, 13261.33
525.2404, 13262.70
525.7225, 13268.64
526.2047, 13281.70
526.6868, 13295.75
527.1689, 13295.71
527.6510, 13284.42
528.1331, 13280.14
528.6152, 13300.37
529.0974, 13328.60
529.5795, 13340.13
530.0616, 13335.96
530.5437, 13329.40
531.0258, 13327.09
531.5079, 13327.88
531.9901, 13330.80
532.4722, 13336.21
532.9543, 13342.71
533.4364, 13354.26
533.9185, 13365.40
534.4006, 13368.86
534.8828, 13346.08
535.3649, 13334.60
535.8470, 13348.90
536.3291, 13383.26
536.8112, 13405.05
537.2933, 13409.81
537.7755, 13408.66
538.2576, 13404.25
538.7397, 13394.91
539.2218, 13395.86
539.7039, 13409.18
540.1860, 13426.61
540.6682, 13440.94
541.1503, 13451.90
541.6324, 13456.29
542.1145, 13451.67
542.5966, 13443.57
543.0787, 13438.47
543.5609, 13436.92
544.0430, 13440.68
544.5251, 13455.64
545.0072, 13473.31
545.4893, 13485.17
545.9714, 13491.26
546.4536, 13495.17
546.9357, 13501.11
547.4178, 13504.07
547.8999, 13498.42
548.3820, 13475.78
548.8641, 13461.68
549.3463, 13465.85
549.8284, 13479.56
550.3105, 13491.54
550.7926, 13502.43
551.2747, 13509.72
551.7568, 13510.78
552.2390, 13508.03
552.7211, 13513.38
553.2032, 13530.54
553.6853, 13544.76
554.1674, 13549.52
554.6495, 13545.21
555.1317, 13531.88
555.6138, 13508.25
556.0959, 13488.88
556.5780, 13492.08
557.0601, 13510.80
557.5422, 13526.37
558.0244, 13535.55
558.5065, 13539.54
558.9886, 13534.18
559.4707, 13524.79
559.9528, 13522.12
560.4349, 13535.11
560.9171, 13551.78
561.3992, 13567.37
561.8813, 13581.45
562.3634, 13592.45
562.8455, 13594.77
563.3276, 13597.94
563.8098, 13608.18
564.2919, 13629.84
564.7740, 13642.62
565.2561, 13642.30
565.7382, 13637.00
566.2203, 13633.66
566.7025, 13631.85
567.1846, 13634.05
567.6667, 13641.91
568.1488, 13652.14
568.6309, 13657.30
569.1130, 13657.74
569.5952, 13658.88
570.0773, 13665.33
570.5594, 13673.18
571.0415, 13673.43
571.5236, 13667.12
572.0057, 13662.74
572.4879, 13669.30
572.9700, 13679.21
573.4521, 13683.89
573.9342, 13681.17
574.4163, 13679.51
574.8984, 13682.48
575.3806, 13688.54
575.8627, 13696.18
576.3448, 13708.44
576.8269, 13717.85
577.3090, 13721.97
577.7911, 13722.74
578.2733, 13724.94
578.7554, 13729.71
579.2375, 13733.17
579.7196, 13734.09
580.2017, 13732.56
580.6838, 13728.46
581.1660, 13720.84
581.6481, 13716.44
582.1302, 13722.35
582.6123, 13736.18
583.0944, 13748.54
583.5765, 13759.17
584.0587, 13766.13
584.5408, 13763.48
585.0229, 13756.63
585.5050, 13755.42
585.9871, 13768.18
586.4692, 13779.04
586.9514, 13774.34
587.4335, 13761.16
587.9156, 13754.18
588.3977, 13760.17
588.8798, 13770.76
589.3619, 13786.90
589.8441, 13808.10
590.3262, 13818.05
590.8083, 13805.91
591.2904, 13796.28
591.7725, 13804.12
592.2546, 13834.58
592.7368, 13850.32
593.2189, 13848.15
593.7010, 13839.32
594.1831, 13835.08
594.6652, 13835.19
595.1473, 13836.88
595.6295, 13839.39
596.1116, 13843.98
596.5937, 13853.21
597.0758, 13865.96
597.5579, 13879.40
598.0400, 13895.95
598.5222, 13909.25
599.0043, 13911.49
599.4864, 13905.12
599.9685, 13902.44
600.4506, 13911.79
600.9327, 13922.68
601.4149, 13929.62
601.8970, 13930.82
602.3791, 13933.61
602.8612, 13939.04
603.3433, 13945.17
603.8254, 13951.54
604.3076, 13960.17
604.7897, 13960.60
605.2718, 13949.69
605.7539, 13935.17
606.2360, 13930.53
606.7181, 13934.96
607.2003, 13939.12
607.6824, 13940.92
608.1645, 13940.30
608.6466, 13933.68
609.1287, 13923.54
609.6108, 13919.45
610.0930, 13932.94
610.5751, 13949.74
611.0572, 13955.95
611.5393, 13951.42
612.0214, 13955.03
612.5035, 13989.60
612.9857, 14022.25
613.4678, 14030.25
613.9499, 13992.90
614.4320, 13975.76
614.9141, 13991.83
615.3962, 14015.90
615.8784, 14018.87
616.3605, 13994.06
616.8426, 13979.74
617.3247, 13983.67
617.8068, 13997.33
618.2889, 14004.39
618.7711, 14005.72
619.2532, 14007.62
619.7353, 14014.36
620.2174, 14022.11
620.6995, 14022.90
621.1816, 14018.65
621.6638, 14018.65
622.1459, 14035.72
622.6280, 14053.40
623.1101, 14056.72
623.5922, 14042.82
624.0743, 14036.40
624.5565, 14051.13
625.0386, 14070.62
625.5207, 14083.85
626.0028, 14089.78
626.4849, 14090.70
626.9670, 14082.65
627.4492, 14073.73
627.9313, 14075.33
628.4134, 14088.51
628.8955, 14102.01
629.3776, 14114.37
629.8597, 14124.08
630.3419, 14126.25
630.8240, 14122.47
631.3061, 14120.67
631.7882, 14127.33
632.2703, 14136.08
632.7524, 14140.84
633.2346, 14141.81
633.7167, 14140.12
634.1988, 14133.13
634.6809, 14126.54
635.1630, 14123.01
635.6451, 14122.60
636.1273, 14128.13
636.6094, 14146.72
637.0915, 14165.85
637.5736, 14177.67
638.0557, 14180.88
638.5378, 14180.25
639.0200, 14173.54
639.5021, 14167.16
639.9842, 14170.21
640.4663, 14182.03
640.9484, 14195.77
641.4305, 14210.96
641.9127, 14224.47
642.3948, 14230.24
642.8769, 14230.48
643.3590, 14231.79
643.8411, 14235.77
644.3232, 14242.86
644.8054, 14256.38
645.2875, 14274.16
645.7696, 14287.27
646.2517, 14290.43
646.7338, 14290.49
647.2159, 14289.07
647.6981, 14285.90
648.1802, 14287.23
648.6623, 14295.88
649.1444, 14305.08
649.6265, 14310.59
650.1086, 14312.42
650.5908, 14313.79
651.0729, 14315.63
651.5550, 14314.38
652.0371, 14302.61
652.5192, 14284.32
653.0013, 14271.24
653.4835, 14265.52
653.9656, 14266.97
654.4477, 14278.61
654.9298, 14296.76
655.4119, 14315.47
655.8940, 14335.52
656.3762, 14352.33
656.8583, 14366.08
657.3404, 14375.27
657.8225, 14373.93
658.3046, 14348.19
658.7867, 14331.36
659.2689, 14335.60
659.7510, 14358.13
660.2331, 14372.42
660.7152, 14376.75
661.1973, 14380.22
661.6794, 14390.99
662.1616, 14405.73
662.6437, 14411.08
663.1258, 14406.60
663.6079, 14400.00
664.0900, 14397.98
664.5721, 14397.78
665.0543, 14395.45
665.5364, 14389.45
666.0185, 14386.12
666.5006, 14392.63
666.9827, 14401.70
667.4648, 14405.68
667.9470, 14400.30
668.4291, 14394.09
668.9112, 14384.21
669.3933, 14375.61
669.8754, 14378.05
670.3575, 14393.23
670.8397, 14409.44
671.3218, 14423.33
671.8039, 14436.40
672.2860, 14452.07
672.7681, 14469.94
673.2502, 14489.92
673.7324, 14508.13
674.2145, 14530.67
674.6966, 14567.73
675.1787, 14616.76
675.6608, 14663.04
676.1429, 14698.41
676.6251, 14729.16
677.1072, 14760.07
677.5893, 14792.79
678.0714, 14815.65
678.5535, 14817.73
679.0356, 14822.21
679.5178, 14845.94
679.9999, 14895.53
680.4820, 14929.72
680.9641, 14944.91
681.4462, 14957.61
681.9283, 14979.22
682.4105, 15012.98
682.8926, 15072.27
683.3747, 15163.28
683.8568, 15270.42
684.3389, 15374.87
684.8210, 15488.02
685.3032, 15630.22
685.7853, 15826.03
686.2674, 16029.10
686.7495, 16230.42
687.2316, 16428.36
687.7137, 16620.05
688.1959, 16782.33
688.6780, 16974.69
689.1601, 17228.18
689.6422, 17518.38
690.1243, 17776.24
690.6064, 18015.45
691.0886, 18128.70
691.5707, 18056.75
692.0528, 17826.94
692.5349, 17451.27
693.0170, 16948.30
693.4991, 16465.26
693.9813, 16070.83
694.4634, 15759.12
694.9455, 15548.90
695.4276, 15445.36
695.9097, 15352.98
696.3918, 15232.39
696.8740, 15119.78
697.3561, 15036.99
697.8382, 14989.34
698.3203, 14955.35
698.8024, 14935.61
699.2845, 14928.03
699.7667, 14937.53
700.2488, 14963.72
700.7309, 14970.29
701.2130, 14951.37
701.6951, 14919.63
702.1772, 14886.48
702.6594, 14852.62
703.1415, 14819.35
703.6236, 14783.78
704.1057, 14755.28
704.5878, 14745.29
705.0699, 14745.39
705.5521, 14741.85
706.0342, 14725.60
706.5163, 14712.65
706.9984, 14705.65
707.4805, 14703.70
707.9626, 14705.22
708.4448, 14711.72
708.9269, 14715.95
709.4090, 14715.06
709.8911, 14710.32
710.3732, 14702.90
710.8553, 14693.52
711.3374, 14690.83
711.8195, 14705.47
712.3016, 14725.79
712.7838, 14740.29
713.2659, 14748.71
713.7480, 14752.02
714.2301, 14742.86
714.7122, 14735.49
715.1943, 14740.53
715.6765, 14761.71
716.1586, 14770.71
716.6407, 14759.21
717.1228, 14747.11
717.6049, 14746.69
718.0870, 14759.00
718.5692, 14771.84
719.0513, 14786.19
719.5334, 14794.68
720.0155, 14784.47
720.4976, 14764.25
720.9797, 14753.16
721.4619, 14754.60
721.9440, 14761.93
722.4261, 14777.15
722.9082, 14792.40
723.3903, 14799.38
723.8724, 14791.06
724.3546, 14783.44
724.8367, 14775.67
725.3188, 14771.60
725.8009, 14777.49
726.2830, 14798.73
726.7651, 14810.05
727.2473, 14805.19
727.7294, 14794.62
728.2115, 14798.19
728.6936, 14813.05
729.1757, 14823.74
729.6578, 14824.19
730.1400, 14820.03
730.6221, 14811.47
731.1042, 14803.23
731.5863, 14805.28
732.0684, 14837.76
732.5505, 14864.15
733.0327, 14867.72
733.5148, 14854.32
733.9969, 14847.67
734.4790, 14850.99
734.9611, 14855.46
735.4432, 14858.55
735.9254, 14860.90
736.4075, 14863.68
736.8896, 14866.79
737.3717, 14875.42
737.8538, 14898.47
738.3359, 14925.49
738.8181, 14939.50
739.3002, 14941.76
739.7823, 14941.62
740.2644, 14936.89
740.7465, 14936.92
741.2286, 14952.36
741.7108, 14984.88
742.1929, 15001.27
742.6750, 14988.52
743.1571, 14974.43
743.6392, 14974.06
744.1213, 14988.32
744.6035, 14992.70
745.0856, 14986.37
745.5677, 14976.96
746.0498, 14967.25
746.5319, 14960.11
747.0140, 14964.17
747.4962, 14980.66
747.9783, 14997.05
748.4604, 15007.37
748.9425, 15012.44
749.4246, 15011.97
749.9067, 15003.56
750.3889, 14996.96
750.8710, 14991.27
751.3531, 14989.21
751.8352, 14994.40
752.3173, 15009.79
752.7994, 15016.15
753.2816, 15010.05
753.7637, 15002.22
754.2458, 15008.50
754.7279, 15023.20
755.2100, 15027.52
755.6921, 15015.48
756.1743, 15002.44
756.6564, 15003.04
757.1385, 15009.34
757.6206, 15011.98
758.1027, 15011.99
758.5848, 15003.85
759.0670, 14975.02
759.5491, 14944.77
760.0312, 14938.66
760.5133, 14966.57
760.9954, 14983.08
761.4775, 14979.66
761.9597, 14967.96
762.4418, 14965.74
762.9239, 14971.55
763.4060, 14979.79
763.8881, 14989.79
764.3702, 14999.22
764.8524, 15003.95
765.3345, 15006.47
765.8166, 15011.19
766.2987, 15018.68
766.7808, 15028.87
767.2629, 15045.67
767.7451, 15063.74
768.2272, 15071.56
768.7093, 15064.78
769.1914, 15062.02
769.6735, 15068.52
770.1556, 15080.58
770.6378, 15091.34
771.1199, 15100.78
771.6020, 15108.75
772.0841, 15117.60
772.5662, 15122.68
773.0483, 15113.74
773.5305, 15097.65
774.0126, 15091.87
774.4947, 15117.35
774.9768, 15137.04
775.4589, 15133.89
775.9410, 15116.30
776.4232, 15115.97
776.9053, 15138.59
777.3874, 15158.18
777.8695, 15165.75
778.3516, 15164.33
778.8337, 15159.31
779.3159, 15151.78
779.7980, 15148.49
780.2801, 15157.29
780.7622, 15168.68
781.2443, 15175.73
781.7264, 15178.57
782.2086, 15178.03
782.6907, 15168.54
783.1728, 15162.17
783.6549, 15164.27
784.1370, 15173.21
784.6191, 15179.22
785.1013, 15182.12
785.5834, 15183.00
786.0655, 15181.87
786.5476, 15179.40
787.0297, 15175.05
787.5118, 15169.93
787.9940, 15171.24
788.4761, 15195.71
788.9582, 15218.23
789.4403, 15213.05
789.9224, 15183.83
790.4045, 15165.17
790.8867, 15170.66
791.3688, 15182.03
791.8509, 15194.00
792.3330, 15206.50
792.8151, 15218.96
793.2972, 15231.41
793.7794, 15242.80
794.2615, 15255.26
794.7436, 15265.48
795.2257, 15261.79
795.7078, 15246.63
796.1899, 15234.90
796.6721, 15239.58
797.1542, 15247.51
797.6363, 15250.67
798.1184, 15248.91
798.6005, 15245.45
799.0826, 15239.07
799.5648, 15233.88
800.0469, 15231.57
800.5290, 15232.09
801.0111, 15233.38
801.4932, 15235.38
801.9753, 15239.20
802.4575, 15245.38
802.9396, 15253.71
803.4217, 15266.16
803.9038, 15281.44
804.3859, 15291.91
804.8680, 15290.70
805.3502, 15285.66
805.8323, 15278.37
806.3144, 15269.04
806.7965, 15267.68
807.2786, 15276.94
807.7607, 15289.00
808.2429, 15302.36
808.7250, 15315.80
809.2071, 15320.74
809.6892, 15317.50
810.1713, 15312.65
810.6534, 15308.47
811.1356, 15306.63
811.6177, 15314.80
812.0998, 15330.32
812.5819, 15332.78
813.0640, 15292.82
813.5461, 15259.77
814.0283, 15260.43
814.5104, 15291.63
814.9925, 15311.22
815.4746, 15315.88
815.9567, 15321.03
816.4388, 15336.88
816.9210, 15358.02
817.4031, 15365.40
817.8852, 15360.37
818.3673, 15354.26
818.8494, 15346.78
819.3315, 15346.17
819.8137, 15362.69
820.2958, 15393.78
820.7779, 15420.20
821.2600, 15438.00
821.7421, 15450.38
822.2242, 15458.40
822.7064, 15461.72
823.1885, 15454.59
823.6706, 15436.19
824.1527, 15422.32
824.6348, 15426.69
825.1169, 15437.39
825.5991, 15432.46
826.0812, 15415.34
826.5633, 15398.26
827.0454, 15383.24
827.5275, 15373.90
828.0096, 15373.93
828.4918, 15382.08
828.9739, 15389.95
829.4560, 15399.34
829.9381, 15403.58
830.4202, 15397.73
830.9023, 15387.14
831.3845, 15389.43
831.8666, 15402.96
832.3487, 15416.00
832.8308, 15421.54
833.3129, 15425.25
833.7950, 15433.23
834.2772, 15443.73
834.7593, 15452.13
835.2414, 15456.00
835.7235, 15458.95
836.2056, 15460.07
836.6877, 15461.46
837.1699, 15470.39
837.6520, 15488.45
838.1341, 15500.00
838.6162, 15497.79
839.0983, 15490.86
839.5804, 15495.99
840.0626, 15508.94
840.5447, 15518.82
841.0268, 15516.12
841.5089, 15515.08
841.9910, 15525.29
842.4731, 15541.04
842.9553, 15551.72
843.4374, 15557.37
843.9195, 15557.19
844.4016, 15549.92
844.8837, 15538.96
845.3658, 15529.55
845.8480, 15521.91
846.3301, 15515.98
846.8122, 15511.62
847.2943, 15510.38
847.7764, 15516.38
848.2585, 15525.75
848.7407, 15532.96
849.2228, 15537.34
849.7049, 15538.06
850.1870, 15529.48
850.6691, 15521.40
851.1512, 15526.23
851.6334, 15545.95
852.1155, 15559.46
852.5976, 15563.05
853.0797, 15564.69
853.5618, 15572.90
854.0439, 15585.57
854.5261, 15600.43
855.0082, 15618.31
855.4903, 15631.18
855.9724, 15631.02
856.4545, 15626.81
856.9366, 15627.53
857.4188, 15638.67
857.9009, 15636.91
858.3830, 15617.84
858.8651, 15598.06
859.3472, 15593.54
859.8293, 15601.03
860.3115, 15607.81
860.7936, 15613.27
861.2757, 15616.04
861.7578, 15610.65
862.2399, 15605.47
862.7220, 15607.60
863.2042, 15618.34
863.6863, 15630.75
864.1684, 15645.82
864.6505, 15659.10
865.1326, 15667.55
865.6147, 15671.48
866.0969, 15676.81
866.5790, 15683.43
867.0611, 15687.59
867.5432, 15680.27
868.0253, 15673.49
868.5074, 15688.23
868.9896, 15719.60
869.4717, 15736.96
869.9538, 15712.87
870.4359, 15691.56
870.9180, 15691.20
871.4001, 15706.54
871.8823, 15711.52
872.3644, 15704.91
872.8465, 15697.89
873.3286, 15694.94
873.8107, 15693.91
874.2928, 15686.43
874.7750, 15677.27
875.2571, 15679.87
875.7392, 15718.12
876.2213, 15749.25
876.7034, 15751.60
877.1855, 15735.01
877.6677, 15721.15
878.1498, 15708.13
878.6319, 15704.21
879.1140, 15713.35
879.5961, 15727.46
880.0782, 15732.59
880.5604, 15731.40
881.0425, 15732.74
881.5246, 15739.13
882.0067, 15747.92
882.4888, 15759.00
882.9709, 15770.68
883.4531, 15781.35
883.9352, 15794.28
884.4173, 15799.15
884.8994, 15792.75
885.3815, 15783.53
885.8636, 15778.34
886.3458, 15777.40
886.8279, 15785.53
887.3100, 15803.72
887.7921, 15818.20
888.2742, 15810.37
888.7563, 15797.81
889.2385, 15799.16
889.7206, 15818.61
890.2027, 15834.05
890.6848, 15838.70
891.1669, 15843.43
891.6490, 15855.92
892.1312, 15874.80
892.6133, 15876.63
893.0954, 15861.43
893.5775, 15847.89
894.0596, 15852.97
894.5417, 15862.92
895.0239, 15860.32
895.5060, 15847.78
895.9881, 15839.56
896.4702, 15841.89
896.9523, 15847.88
897.4344, 15859.05
897.9166, 15871.58
898.3987, 15869.32
898.8808, 15851.06
899.3629, 15838.81
899.8450, 15840.94
900.3271, 15850.58
900.8093, 15861.77
901.2914, 15872.79
901.7735, 15880.11
902.2556, 15879.00
902.7377, 15878.80
903.2198, 15883.90
903.7020, 15890.20
904.1841, 15892.01
904.6662, 15887.46
905.1483, 15888.32
905.6304, 15896.04
906.1125, 15907.56
906.5947, 15920.38
907.0768, 15933.99
907.5589, 15949.71
908.0410, 15969.20
908.5231, 15978.20
909.0052, 15959.23
909.4874, 15935.54
909.9695, 15922.32
910.4516, 15920.07
910.9337, 15927.25
911.4158, 15946.91
911.8979, 15962.75
912.3801, 15959.58
912.8622, 15946.12
913.3443, 15942.58
913.8264, 15947.53
914.3085, 15950.33
914.7906, 15943.37
915.2728, 15935.38
915.7549, 15929.20
916.2370, 15925.69
916.7191, 15928.67
917.2012, 15941.02
917.6833, 15949.18
918.1655, 15947.43
918.6476, 15941.99
919.1297, 15943.37
919.6118, 15950.72
920.0939, 15962.08
920.5760, 15979.51
921.0582, 15995.96
921.5403, 16007.68
922.0224, 16016.19
922.5045, 16023.83
922.9866, 16030.01
923.4688, 16035.42
923.9509, 16039.15
924.4330, 16043.85
924.9151, 16056.58
925.3972, 16071.80
925.8793, 16073.81
926.3615, 16059.96
926.8436, 16046.76
927.3257, 16043.32
927.8078, 16044.41
928.2899, 16047.81
928.7720, 16053.73
929.2542, 16056.63
929.7363, 16055.63
930.2184, 16055.54
930.7005, 16059.35
931.1826, 16066.01
931.6647, 16075.09
932.1469, 16085.08
932.6290, 16089.32
933.1111, 16077.77
933.5932, 16066.71
934.0753, 16064.58
934.5574, 16068.70
935.0396, 16069.90
935.5217, 16064.67
936.0038, 16069.03
936.4859, 16088.81
936.9680, 16112.67
937.4501, 16125.18
937.9323, 16127.73
938.4144, 16120.74
938.8965, 16098.92
939.3786, 16085.24
939.8607, 16096.80
940.3428, 16118.21
940.8250, 16136.89
941.3071, 16154.13
941.7892, 16160.49
942.2713, 16153.91
942.7534, 16144.58
943.2355, 16139.24
943.7177, 16137.37
944.1998, 16139.15
944.6819, 16143.92
945.1640, 16146.76
945.6461, 16141.73
946.1282, 16137.58
946.6104, 16138.80
947.0925, 16144.28
947.5746, 16150.62
948.0567, 16158.26
948.5388, 16164.42
949.0209, 16169.41
949.5031, 16170.56
949.9852, 16159.78
950.4673, 16142.46
950.9494, 16130.24
951.4315, 16130.34
951.9136, 16130.36
952.3958, 16123.69
952.8779, 16117.67
953.3600, 16119.26
953.8421, 16129.25
954.3242, 16143.92
954.8063, 16163.94
955.2885, 16181.84
955.7706, 16187.50
956.2527, 16188.40
956.7348, 16198.34
957.2169, 16217.78
957.6990, 16224.80
958.1811, 16194.98
958.6632, 16169.42
959.1453, 16163.58
959.6274, 16174.23
960.1096, 16187.89
960.5917, 16204.45
961.0738, 16213.16
961.5559, 16203.45
962.0380, 16192.10
962.5201, 16201.81
963.0023, 16222.50
963.4844, 16235.86
963.9665, 16229.76
964.4486, 16226.15
964.9307, 16229.10
965.4128, 16232.62
965.8950, 16226.41
966.3771, 16212.46
966.8592, 16212.74
967.3413, 16230.23
967.8234, 16247.97
968.3055, 16254.77
968.7877, 16253.38
969.2698, 16240.78
969.7519, 16215.59
970.2340, 16211.09
970.7161, 16242.40
971.1982, 16266.03
971.6804, 16260.81
972.1625, 16236.96
972.6446, 16224.09
973.1267, 16221.41
973.6088, 16225.02
974.0909, 16234.79
974.5731, 16248.16
975.0552, 16268.21
975.5373, 16289.38
976.0194, 16302.75
976.5015, 16306.71
976.9836, 16304.82
977.4658, 16294.76
977.9479, 16286.63
978.4300, 16293.07
978.9121, 16309.78
979.3942, 16329.18
979.8763, 16350.28
980.3585, 16370.19
980.8406, 16388.63
981.3227, 16403.59
981.8048, 16414.56
982.2869, 16421.32
982.7690, 16420.91
983.2512, 16412.40
983.7333, 16405.80
984.2154, 16407.52
984.6975, 16411.13
985.1796, 16408.83
985.6617, 16401.65
986.1439, 16391.55
986.6260, 16370.41
987.1081, 16359.77
987.5902, 16368.27
988.0723, 16382.60
988.5544, 16387.46
989.0366, 16383.55
989.5187, 16380.47
990.0008, 16378.93
990.4829, 16380.31
990.9650, 16385.35
991.4471, 16393.88
991.9293, 16409.75
992.4114, 16432.69
992.8935, 16440.21
993.3756, 16423.49
993.8577, 16406.56
994.3398, 16396.35
994.8220, 16392.67
995.3041, 16398.04
995.7862, 16410.19
996.2683, 16421.79
996.7504, 16433.04
997.2325, 16437.80
997.7147, 16425.31
998.1968, 16408.62
998.6789, 16404.33
999.1610, 16417.83
999.6431, 16425.74
1000.125, 16426.61
1000.607, 16426.16
1001.089, 16428.25
1001.572, 16433.01
1002.054, 16442.31
1002.536, 16455.47
1003.018, 16466.32
1003.500, 16472.21
1003.982, 16475.04
1004.464, 16474.36
1004.946, 16471.53
1005.429, 16470.02
1005.911, 16469.84
1006.393, 16473.08
1006.875, 16480.83
1007.357, 16490.96
1007.839, 16503.27
1008.321, 16516.09
1008.803, 16528.30
1009.285, 16543.25
1009.768, 16546.54
1010.250, 16532.71
1010.732, 16517.97
1011.214, 16512.86
1011.696, 16516.54
1012.178, 16528.81
1012.660, 16548.40
1013.142, 16568.14
1013.625, 16590.86
1014.107, 16605.34
1014.589, 16598.28
1015.071, 16580.29
1015.553, 16575.75
1016.035, 16587.04
1016.517, 16599.02
1016.999, 16610.30
1017.481, 16617.15
1017.964, 16610.62
1018.446, 16598.66
1018.928, 16592.18
1019.410, 16593.37
1019.892, 16598.57
1020.374, 16608.81
1020.856, 16620.58
1021.338, 16633.81
1021.820, 16647.14
1022.303, 16651.75
1022.785, 16648.54
1023.267, 16644.11
1023.749, 16635.02
1024.231, 16633.18
1024.713, 16653.84
1025.195, 16684.71
1025.677, 16704.48
1026.160, 16710.99
1026.642, 16707.62
1027.124, 16690.82
1027.606, 16677.46
1028.088, 16691.42
1028.570, 16719.13
1029.052, 16733.33
1029.534, 16732.73
1030.016, 16737.03
1030.499, 16767.13
1030.981, 16788.15
1031.463, 16782.84
1031.945, 16761.00
1032.427, 16757.96
1032.909, 16772.47
1033.391, 16784.42
1033.873, 16787.07
1034.356, 16786.06
1034.838, 16779.63
1035.320, 16775.87
1035.802, 16785.75
1036.284, 16816.74
1036.766, 16844.91
1037.248, 16870.78
1037.730, 16893.10
1038.213, 16911.41
1038.695, 16925.67
1039.177, 16939.11
1039.659, 16948.99
1040.141, 16942.61
1040.623, 16894.24
1041.105, 16852.90
1041.587, 16834.85
1042.069, 16831.81
1042.552, 16832.08
1043.034, 16835.48
1043.516, 16841.66
1043.998, 16849.15
1044.480, 16870.48
1044.962, 16907.19
1045.444, 16970.08
1045.926, 17063.10
1046.408, 17188.55
1046.891, 17376.13
1047.373, 17635.43
1047.855, 17937.03
1048.337, 18300.41
1048.819, 18662.90
1049.301, 18879.40
1049.783, 18988.08
1050.265, 19081.95
1050.748, 19173.50
1051.230, 19288.98
1051.712, 19442.76
1052.194, 19621.25
1052.676, 19817.46
1053.158, 20033.20
1053.640, 20244.88
1054.122, 20452.85
1054.604, 20720.92
1055.087, 21030.34
1055.569, 21473.11
1056.051, 22015.22
1056.533, 22755.95
1057.015, 24022.71
1057.497, 25922.05
1057.979, 28034.96
1058.461, 30296.20
1058.943, 32772.97
1059.426, 35877.93
1059.908, 39152.23
1060.390, 42286.27
1060.872, 45348.68
1061.354, 45842.59
1061.836, 40957.38
1062.318, 35158.90
1062.800, 29769.21
1063.283, 25006.27
1063.765, 21700.76
1064.247, 19764.17
1064.729, 18541.26
1065.211, 17945.82
1065.693, 17633.81
1066.175, 17456.63
1066.657, 17363.25
1067.140, 17293.47
1067.622, 17246.72
1068.104, 17202.25
1068.586, 17159.79
1069.068, 17123.82
1069.550, 17103.45
1070.032, 17088.54
1070.514, 17057.39
1070.996, 17017.52
1071.479, 16992.81
1071.961, 17006.17
1072.443, 17015.08
1072.925, 17013.22
1073.407, 17005.55
1073.889, 16997.54
1074.371, 16989.38
1074.853, 16981.69
1075.335, 16974.57
1075.818, 16966.44
1076.300, 16948.10
1076.782, 16936.57
1077.264, 16947.32
1077.746, 16973.65
1078.228, 16987.55
1078.710, 16988.91
1079.192, 16982.00
1079.675, 16965.58
1080.157, 16948.36
1080.639, 16936.31
1081.121, 16930.41
1081.603, 16933.09
1082.085, 16948.56
1082.567, 16959.53
1083.049, 16966.01
1083.531, 16967.44
1084.014, 16960.78
1084.496, 16950.53
1084.978, 16945.10
1085.460, 16944.94
1085.942, 16950.98
1086.424, 16972.79
1086.906, 16988.50
1087.388, 16990.57
1087.870, 16988.93
1088.353, 16994.61
1088.835, 17006.58
1089.317, 17012.83
1089.799, 17013.06
1090.281, 17014.36
1090.763, 17023.79
1091.245, 17033.26
1091.727, 17034.93
1092.209, 17032.84
1092.692, 17039.66
1093.174, 17056.53
1093.656, 17073.47
1094.138, 17089.88
1094.620, 17099.63
1095.102, 17090.55
1095.584, 17074.43
1096.066, 17064.91
1096.549, 17064.35
1097.031, 17061.88
1097.513, 17056.45
1097.995, 17049.76
1098.477, 17039.75
1098.959, 17032.65
1099.441, 17047.09
1099.923, 17073.67
1100.406, 17090.65
1100.888, 17086.71
1101.370, 17086.10
1101.852, 17099.34
1102.334, 17113.29
1102.816, 17119.87
1103.298, 17119.71
1103.780, 17116.62
1104.262, 17111.12
1104.745, 17107.02
1105.227, 17105.32
1105.709, 17106.35
1106.191, 17112.77
1106.673, 17120.49
1107.155, 17122.07
1107.637, 17115.39
1108.119, 17122.57
1108.601, 17146.17
1109.084, 17163.12
1109.566, 17143.85
1110.048, 17118.07
1110.530, 17117.38
1111.012, 17136.63
1111.494, 17141.42
1111.976, 17123.12
1112.458, 17111.38
1112.941, 17111.28
1113.423, 17119.49
1113.905, 17142.54
1114.387, 17166.33
1114.869, 17161.70
1115.351, 17122.92
1115.833, 17102.26
1116.315, 17124.17
1116.797, 17143.36
1117.280, 17143.86
1117.762, 17133.74
1118.244, 17132.63
1118.726, 17137.56
1119.208, 17137.99
1119.690, 17126.25
1120.172, 17125.03
1120.654, 17156.66
1121.136, 17189.75
1121.619, 17203.37
1122.101, 17200.28
1122.583, 17211.55
1123.065, 17235.03
1123.547, 17252.28
1124.029, 17247.10
1124.511, 17242.27
1124.993, 17260.96
1125.476, 17282.53
1125.958, 17277.49
1126.440, 17236.93
1126.922, 17221.38
1127.404, 17232.68
1127.886, 17248.79
1128.368, 17252.72
1128.850, 17254.58
1129.333, 17268.64
1129.815, 17288.17
1130.297, 17292.53
1130.779, 17274.18
1131.261, 17260.42
1131.743, 17253.72
1132.225, 17253.46
1132.707, 17269.53
1133.189, 17285.79
1133.672, 17272.68
1134.154, 17232.63
1134.636, 17207.93
1135.118, 17213.22
1135.600, 17224.45
1136.082, 17239.20
1136.564, 17253.49
1137.046, 17259.90
1137.528, 17261.19
1138.011, 17262.93
1138.493, 17265.87
1138.975, 17271.06
1139.457, 17281.11
1139.939, 17290.49
1140.421, 17296.87
1140.903, 17300.99
1141.385, 17305.95
1141.868, 17311.00
1142.350, 17313.48
1142.832, 17310.93
1143.314, 17310.22
1143.796, 17315.47
1144.278, 17323.28
1144.760, 17333.02
1145.242, 17343.87
1145.724, 17344.13
1146.207, 17334.80
1146.689, 17324.29
1147.171, 17312.41
1147.653, 17307.36
1148.135, 17319.74
1148.617, 17339.46
1149.099, 17356.43
1149.581, 17372.36
1150.063, 17371.18
1150.546, 17352.58
1151.028, 17335.93
1151.510, 17334.76
1151.992, 17340.98
1152.474, 17349.45
1152.956, 17360.08
1153.438, 17373.27
1153.920, 17390.86
1154.403, 17402.59
1154.885, 17406.96
1155.367, 17410.60
1155.849, 17420.69
1156.331, 17431.86
1156.813, 17435.96
1157.295, 17435.00
1157.777, 17440.58
1158.260, 17457.38
1158.742, 17470.26
1159.224, 17477.23
1159.706, 17478.70
1160.188, 17471.20
1160.670, 17460.53
1161.152, 17454.05
1161.634, 17452.63
1162.116, 17458.24
1162.599, 17480.01
1163.081, 17490.89
1163.563, 17481.59
1164.045, 17465.86
1164.527, 17466.01
1165.009, 17476.00
1165.491, 17485.78
1165.973, 17494.43
1166.455, 17494.96
1166.938, 17477.10
1167.420, 17464.21
1167.902, 17465.18
1168.384, 17474.27
1168.866, 17479.21
1169.348, 17481.14
1169.830, 17483.85
1170.312, 17488.78
1170.795, 17491.30
1171.277, 17487.14
1171.759, 17482.92
1172.241, 17480.84
1172.723, 17481.47
1173.205, 17488.02
1173.687, 17499.36
1174.169, 17512.22
1174.651, 17529.96
1175.134, 17539.78
1175.616, 17526.36
1176.098, 17513.61
1176.580, 17518.89
1177.062, 17539.02
1177.544, 17546.69
1178.026, 17544.24
1178.508, 17545.56
1178.990, 17561.63
1179.473, 17576.33
1179.955, 17579.60
1180.437, 17580.17
1180.919, 17587.84
1181.401, 17602.13
1181.883, 17601.58
1182.365, 17587.90
1182.847, 17580.20
1183.330, 17599.00
1183.812, 17616.42
1184.294, 17614.79
1184.776, 17605.83
1185.258, 17604.79
1185.740, 17612.17
1186.222, 17612.35
1186.704, 17605.17
1187.187, 17602.77
1187.669, 17620.68
1188.151, 17638.66
1188.633, 17640.82
1189.115, 17635.69
1189.597, 17639.06
1190.079, 17651.25
1190.561, 17661.10
1191.043, 17667.55
1191.526, 17667.89
1192.008, 17647.82
1192.490, 17631.99
1192.972, 17642.69
1193.454, 17670.15
1193.936, 17688.24
1194.418, 17696.14
1194.900, 17706.39
1195.382, 17721.25
1195.865, 17732.31
1196.347, 17735.32
1196.829, 17729.41
1197.311, 17707.15
1197.793, 17675.42
1198.275, 17660.33
1198.757, 17663.07
1199.239, 17673.05
1199.722, 17690.18
1200.204, 17703.10
1200.686, 17696.22
1201.168, 17685.48
1201.650, 17686.03
1202.132, 17683.38
1202.614, 17682.51
1203.096, 17691.10
1203.578, 17692.36
1204.061, 17707.32
1204.543, 17727.83
1205.025, 17752.73
1205.507, 17774.25
1205.989, 17781.89
1206.471, 17776.33
1206.953, 17772.54
1207.435, 17769.71
1207.917, 17776.91
1208.400, 17800.61
1208.882, 17823.43
1209.364, 17829.17
1209.846, 17824.88
1210.328, 17815.95
1210.810, 17803.31
1211.292, 17791.23
1211.774, 17779.80
1212.257, 17773.33
1212.739, 17777.65
1213.221, 17778.74
1213.703, 17749.71
1214.185, 17719.54
1214.667, 17726.04
1215.149, 17771.42
1215.631, 17796.99
1216.114, 17802.30
1216.596, 17798.58
1217.078, 17784.00
1217.560, 17774.22
1218.042, 17786.27
1218.524, 17808.42
1219.006, 17829.57
1219.488, 17850.07
1219.970, 17849.56
1220.453, 17827.18
1220.935, 17815.69
1221.417, 17841.00
1221.899, 17868.90
1222.381, 17869.85
1222.863, 17859.19
1223.345, 17856.20
1223.827, 17862.28
1224.309, 17864.43
1224.792, 17862.71
1225.274, 17863.04
1225.756, 17872.06
1226.238, 17880.30
1226.720, 17879.04
1227.202, 17874.80
1227.684, 17875.62
1228.166, 17882.18
1228.649, 17893.46
1229.131, 17909.12
1229.613, 17916.01
1230.095, 17899.92
1230.577, 17879.74
1231.059, 17862.42
1231.541, 17850.17
1232.023, 17843.46
1232.505, 17841.62
1232.988, 17861.76
1233.470, 17901.66
1233.952, 17930.09
1234.434, 17919.69
1234.916, 17902.44
1235.398, 17890.39
1235.880, 17884.62
1236.362, 17889.60
1236.844, 17904.99
1237.327, 17906.69
1237.809, 17895.46
1238.291, 17882.82
1238.773, 17867.72
1239.255, 17862.62
1239.737, 17885.41
1240.219, 17911.35
1240.701, 17909.83
1241.184, 17885.38
1241.666, 17880.68
1242.148, 17894.72
1242.630, 17906.74
1243.112, 17901.15
1243.594, 17896.90
1244.076, 17898.85
1244.558, 17906.21
1245.041, 17921.45
1245.523, 17941.80
1246.005, 17952.68
1246.487, 17954.95
1246.969, 17959.88
1247.451, 17978.65
1247.933, 17991.53
1248.415, 17989.38
1248.897, 17987.12
1249.380, 18008.00
1249.862, 18041.42
1250.344, 18049.98
1250.826, 18036.97
1251.308, 18031.09
1251.790, 18052.50
1252.272, 18068.72
1252.754, 18073.14
1253.236, 18074.85
1253.719, 18089.29
1254.201, 18106.33
1254.683, 18099.28
1255.165, 18073.43
1255.647, 18059.68
1256.129, 18079.29
1256.611, 18090.59
1257.093, 18089.52
1257.576, 18079.36
1258.058, 18053.74
1258.540, 18027.66
1259.022, 18029.24
1259.504, 18052.49
1259.986, 18063.57
1260.468, 18051.88
1260.950, 18046.41
1261.432, 18050.62
1261.915, 18059.96
1262.397, 18073.99
1262.879, 18087.76
1263.361, 18092.10
1263.843, 18107.79
1264.325, 18101.82
1264.807, 18129.30
1265.289, 18146.85
1265.771, 18151.13
1266.254, 18150.36
1266.736, 18153.84
1267.218, 18153.16
1267.700, 18132.99
1268.182, 18104.65
1268.664, 18100.93
1269.146, 18123.95
1269.628, 18139.72
1270.111, 18145.17
1270.593, 18146.65
1271.075, 18146.22
1271.557, 18146.66
1272.039, 18150.16
1272.521, 18155.89
1273.003, 18163.21
1273.485, 18171.92
1273.968, 18179.17
1274.450, 18184.71
1274.932, 18189.26
1275.414, 18188.59
1275.896, 18192.84
1276.378, 18208.26
1276.860, 18226.79
1277.342, 18239.23
1277.824, 18245.32
1278.307, 18241.64
1278.789, 18229.50
1279.271, 18221.53
1279.753, 18226.69
1280.235, 18232.46
1280.717, 18236.42
1281.199, 18240.45
1281.681, 18249.23
1282.163, 18249.16
1282.646, 18259.42
1283.128, 18252.26
1283.610, 18249.19
1284.092, 18251.84
1284.574, 18263.49
1285.056, 18288.42
1285.538, 18308.20
1286.020, 18295.98
1286.503, 18273.16
1286.985, 18270.18
1287.467, 18263.09
1287.949, 18258.76
1288.431, 18267.41
1288.913, 18265.68
1289.395, 18282.52
1289.877, 18299.62
1290.359, 18300.35
1290.842, 18295.60
1291.324, 18289.70
1291.806, 18287.09
1292.288, 18298.48
1292.770, 18326.15
1293.252, 18335.84
1293.734, 18325.93
1294.216, 18317.90
1294.698, 18333.09
1295.181, 18346.08
1295.663, 18339.37
1296.145, 18325.86
1296.627, 18318.76
1297.109, 18317.39
1297.591, 18315.19
1298.073, 18313.15
1298.555, 18318.81
1299.038, 18341.98
1299.520, 18366.00
1300.002, 18389.85
1300.484, 18416.43
1300.966, 18440.64
1301.448, 18458.64
1301.930, 18472.14
1302.412, 18483.09
1302.895, 18497.04
1303.377, 18513.01
1303.859, 18537.48
1304.341, 18570.16
1304.823, 18587.77
1305.305, 18545.98
##END=



