##NAMES=Wohlerite
##RRUFFID=R060086
##IDEAL CHEMISTRY=NaCa_2_(Zr^4+^,Nb^5+^)(Si_2_O_7_)(O,F)_2_
##LOCALITY=Langesundfjord, Norway
##OWNER=RRUFF
##SOURCE=University of Arizona Mineral Museum
##DESCRIPTION=Yellowish-brown fragment frozen in matrix
##STATUS=The identification of this mineral has been confirmed by X-ray diffraction and chemical analysis
##URL=rruff.info/R060086
##MEASURED CHEMISTRY=Na_1.00_(Ca_1.87_Fe^2+^_0.08_Mn_0.05_)_Σ=2_(Zr_0.52_Nb_0.41_Ti_0.06_Hf_0.01_)_Σ=1_Si_2.00_O_7_((OH)_1.15_O_0.78_F_0.70_)_Σ=2_
93.46680, 764.0908
93.94891, 756.9621
94.43103, 758.6407
94.91315, 763.3743
95.39526, 765.9764
95.87738, 766.5334
96.35950, 766.3033
96.84161, 764.3323
97.32373, 760.3627
97.80585, 755.0524
98.28796, 749.4469
98.77008, 743.6564
99.25220, 738.2686
99.73431, 734.0900
100.2164, 731.3964
100.6985, 727.4817
101.1807, 723.5074
101.6628, 720.1139
102.1449, 717.7038
102.6270, 716.4200
103.1091, 716.0323
103.5912, 715.6987
104.0734, 714.5486
104.5555, 714.2181
105.0376, 715.0861
105.5197, 716.9568
106.0018, 719.4213
106.4839, 722.1360
106.9661, 725.0979
107.4482, 728.4099
107.9303, 732.2250
108.4124, 735.9766
108.8945, 738.9575
109.3766, 741.1824
109.8588, 743.7678
110.3409, 748.2458
110.8230, 754.8795
111.3051, 761.4017
111.7872, 767.3333
112.2693, 773.0109
112.7515, 778.9402
113.2336, 785.1137
113.7157, 791.7488
114.1978, 799.0491
114.6799, 806.9277
115.1620, 815.3067
115.6442, 824.3594
116.1263, 834.0733
116.6084, 843.2977
117.0905, 851.1085
117.5726, 858.7797
118.0547, 867.3840
118.5369, 877.0709
119.0190, 887.0451
119.5011, 896.1075
119.9832, 903.4904
120.4653, 911.7231
120.9474, 921.6906
121.4296, 932.2802
121.9117, 942.5668
122.3938, 952.1425
122.8759, 961.2756
123.3580, 970.9576
123.8401, 981.3417
124.3223, 992.1598
124.8044, 1003.717
125.2865, 1015.667
125.7686, 1027.406
126.2507, 1038.663
126.7328, 1049.467
127.2150, 1060.323
127.6971, 1071.157
128.1792, 1082.125
128.6613, 1093.090
129.1434, 1104.175
129.6255, 1115.870
130.1077, 1128.996
130.5898, 1143.319
131.0719, 1156.475
131.5540, 1167.354
132.0361, 1177.655
132.5182, 1189.323
133.0004, 1202.690
133.4825, 1216.476
133.9646, 1229.975
134.4467, 1243.217
134.9288, 1255.765
135.4109, 1267.021
135.8931, 1277.355
136.3752, 1288.317
136.8573, 1300.494
137.3394, 1312.611
137.8215, 1323.989
138.3036, 1334.725
138.7858, 1345.064
139.2679, 1355.190
139.7500, 1365.079
140.2321, 1374.951
140.7142, 1384.958
141.1963, 1394.837
141.6785, 1404.765
142.1606, 1414.582
142.6427, 1423.893
143.1248, 1432.108
143.6069, 1438.701
144.0890, 1445.330
144.5712, 1451.979
145.0533, 1458.637
145.5354, 1465.561
146.0175, 1472.724
146.4996, 1479.698
146.9817, 1485.714
147.4639, 1490.393
147.9460, 1494.573
148.4281, 1497.823
148.9102, 1500.732
149.3923, 1504.174
149.8744, 1508.579
150.3566, 1513.351
150.8387, 1517.145
151.3208, 1520.057
151.8029, 1522.286
152.2850, 1523.641
152.7671, 1524.305
153.2493, 1524.918
153.7314, 1525.982
154.2135, 1526.844
154.6956, 1526.487
155.1777, 1524.536
155.6598, 1522.217
156.1420, 1520.834
156.6241, 1520.482
157.1062, 1519.203
157.5883, 1515.305
158.0704, 1510.435
158.5525, 1506.044
159.0347, 1502.602
159.5168, 1499.397
159.9989, 1495.508
160.4810, 1491.250
160.9631, 1485.379
161.4452, 1477.092
161.9274, 1467.505
162.4095, 1457.406
162.8916, 1447.121
163.3737, 1436.791
163.8558, 1427.051
164.3379, 1419.083
164.8201, 1410.066
165.3022, 1398.946
165.7843, 1386.698
166.2664, 1374.579
166.7485, 1363.247
167.2306, 1352.705
167.7128, 1342.615
168.1949, 1333.755
168.6770, 1324.512
169.1591, 1314.271
169.6412, 1303.337
170.1233, 1292.291
170.6055, 1281.547
171.0876, 1271.031
171.5697, 1260.827
172.0518, 1250.987
172.5339, 1241.334
173.0160, 1231.807
173.4982, 1222.415
173.9803, 1213.133
174.4624, 1204.005
174.9445, 1195.065
175.4266, 1186.066
175.9087, 1176.417
176.3909, 1167.050
176.8730, 1158.947
177.3551, 1152.174
177.8372, 1145.710
178.3193, 1139.027
178.8014, 1132.024
179.2836, 1124.567
179.7657, 1115.999
180.2478, 1107.152
180.7299, 1099.255
181.2120, 1092.587
181.6941, 1086.276
182.1763, 1080.081
182.6584, 1073.807
183.1405, 1067.058
183.6226, 1058.884
184.1047, 1050.070
184.5868, 1043.389
185.0690, 1040.334
185.5511, 1037.287
186.0332, 1032.405
186.5153, 1026.305
186.9974, 1020.133
187.4795, 1014.646
187.9617, 1009.795
188.4438, 1005.050
188.9259, 1000.597
189.4080, 996.0438
189.8901, 991.2471
190.3722, 986.2584
190.8544, 981.2053
191.3365, 976.2496
191.8186, 971.4014
192.3007, 966.2726
192.7828, 959.9822
193.2649, 954.2151
193.7471, 949.9899
194.2292, 946.9388
194.7113, 943.9218
195.1934, 939.9308
195.6755, 934.8365
196.1576, 929.3939
196.6398, 922.5969
197.1219, 916.3783
197.6040, 912.2098
198.0861, 909.7913
198.5682, 907.3791
199.0503, 903.2071
199.5325, 896.8309
200.0146, 891.1302
200.4967, 886.7305
200.9788, 882.4643
201.4609, 877.3380
201.9430, 871.3127
202.4252, 865.3925
202.9073, 860.5977
203.3894, 857.0828
203.8715, 853.3536
204.3536, 849.3115
204.8357, 845.0603
205.3179, 840.6481
205.8000, 836.0587
206.2821, 831.4426
206.7642, 826.7198
207.2463, 821.9736
207.7284, 817.9335
208.2106, 814.9962
208.6927, 812.7618
209.1748, 810.8375
209.6569, 809.3077
210.1390, 807.6312
210.6211, 805.2936
211.1033, 802.4554
211.5854, 799.3941
212.0675, 795.6262
212.5496, 791.7523
213.0317, 789.3212
213.5138, 789.0547
213.9960, 788.8799
214.4781, 787.3514
214.9602, 784.9361
215.4423, 782.5426
215.9244, 780.4973
216.4065, 778.8286
216.8886, 777.7474
217.3708, 777.5744
217.8529, 777.5341
218.3350, 777.4397
218.8171, 777.1964
219.2992, 776.6080
219.7813, 775.4211
220.2635, 773.7587
220.7456, 772.4794
221.2277, 771.8370
221.7098, 771.3231
222.1919, 770.5576
222.6740, 769.8073
223.1562, 769.5799
223.6383, 770.3379
224.1204, 771.9736
224.6025, 773.1287
225.0846, 773.3320
225.5667, 773.4941
226.0489, 773.8393
226.5310, 774.2953
227.0131, 774.6834
227.4952, 774.8624
227.9773, 774.8553
228.4594, 775.0602
228.9416, 775.9785
229.4237, 776.5892
229.9058, 776.3704
230.3879, 775.6763
230.8700, 775.1596
231.3521, 775.2625
231.8343, 775.9492
232.3164, 776.6804
232.7985, 777.5146
233.2806, 778.3196
233.7627, 779.1823
234.2448, 779.9880
234.7270, 780.4871
235.2091, 780.4819
235.6912, 780.0485
236.1733, 779.9181
236.6554, 780.6630
237.1375, 781.0463
237.6197, 780.4814
238.1018, 779.2526
238.5839, 777.9659
239.0660, 776.9297
239.5481, 776.1589
240.0302, 775.7309
240.5124, 776.0878
240.9945, 776.2452
241.4766, 775.8256
241.9587, 774.9379
242.4408, 773.7898
242.9229, 772.3696
243.4051, 770.8820
243.8872, 770.0161
244.3693, 770.2911
244.8514, 770.3495
245.3335, 769.4319
245.8156, 767.8001
246.2978, 766.2708
246.7799, 765.2468
247.2620, 764.4823
247.7441, 763.4230
248.2262, 762.0139
248.7083, 760.4926
249.1905, 758.7713
249.6726, 756.9868
250.1547, 755.7288
250.6368, 755.5673
251.1189, 755.6021
251.6010, 754.2923
252.0832, 751.3304
252.5653, 748.5837
253.0474, 747.4101
253.5295, 747.4387
254.0116, 746.9197
254.4937, 745.1393
254.9759, 742.9060
255.4580, 741.1821
255.9401, 739.9730
256.4222, 738.8907
256.9043, 737.7595
257.3864, 736.5752
257.8686, 735.3187
258.3507, 733.9841
258.8328, 732.5670
259.3149, 730.9235
259.7970, 729.1105
260.2791, 727.6228
260.7613, 726.8759
261.2434, 726.7650
261.7255, 726.7342
262.2076, 726.8751
262.6897, 726.8717
263.1718, 726.6981
263.6540, 726.2805
264.1361, 725.3717
264.6182, 723.4037
265.1003, 720.6442
265.5824, 718.7773
266.0645, 718.6292
266.5467, 718.2701
267.0288, 716.2958
267.5109, 713.3891
267.9930, 711.0876
268.4751, 710.6484
268.9572, 711.5757
269.4394, 711.5165
269.9215, 709.7741
270.4036, 708.0529
270.8857, 707.1660
271.3678, 706.7130
271.8499, 706.0130
272.3321, 704.5743
272.8142, 702.7319
273.2963, 701.7179
273.7784, 702.0281
274.2605, 702.3875
274.7426, 702.5428
275.2248, 702.4881
275.7069, 702.1540
276.1890, 701.4645
276.6711, 700.6196
277.1532, 700.1839
277.6353, 700.4698
278.1175, 700.5833
278.5996, 700.1560
279.0817, 699.5989
279.5638, 699.2718
280.0459, 699.3078
280.5280, 699.6552
281.0102, 700.2067
281.4923, 700.9113
281.9744, 701.9738
282.4565, 703.7334
282.9386, 705.6013
283.4207, 707.0546
283.9029, 707.9852
284.3850, 708.7659
284.8671, 710.0539
285.3492, 712.3121
285.8313, 713.9065
286.3134, 713.9974
286.7956, 714.0856
287.2777, 715.2830
287.7598, 717.6025
288.2419, 720.0909
288.7240, 721.4739
289.2061, 721.1279
289.6883, 721.9598
290.1704, 724.9180
290.6525, 728.1019
291.1346, 730.7469
291.6167, 732.7999
292.0988, 734.5121
292.5810, 736.0508
293.0631, 737.3575
293.5452, 739.0785
294.0273, 741.9122
294.5094, 744.4704
294.9915, 746.1541
295.4737, 747.1796
295.9558, 748.0147
296.4379, 748.9145
296.9200, 749.9323
297.4021, 751.8671
297.8842, 755.9753
298.3664, 759.7130
298.8485, 762.6832
299.3306, 764.9321
299.8127, 766.4475
300.2948, 767.1788
300.7769, 767.3690
301.2591, 767.9989
301.7412, 769.5486
302.2233, 770.9955
302.7054, 771.9818
303.1875, 772.9147
303.6696, 774.2922
304.1518, 776.3077
304.6339, 778.7119
305.1160, 781.0247
305.5981, 783.4035
306.0802, 785.3784
306.5623, 786.8096
307.0445, 787.9456
307.5266, 788.8892
308.0087, 789.7051
308.4908, 790.5540
308.9729, 791.6451
309.4550, 792.9269
309.9372, 794.6409
310.4193, 797.3497
310.9014, 799.9860
311.3835, 801.7314
311.8656, 802.6517
312.3477, 803.4888
312.8299, 805.0403
313.3120, 807.5234
313.7941, 809.3399
314.2762, 809.6789
314.7583, 810.2438
315.2404, 811.9261
315.7226, 814.4363
316.2047, 816.9240
316.6868, 818.7327
317.1689, 819.9170
317.6510, 821.3725
318.1331, 823.0110
318.6153, 825.0215
319.0974, 827.8767
319.5795, 831.0394
320.0616, 833.7270
320.5437, 835.5273
321.0258, 836.6064
321.5080, 837.5106
321.9901, 837.4209
322.4722, 838.2341
322.9543, 840.8065
323.4364, 843.9503
323.9185, 846.5504
324.4007, 848.2072
324.8828, 849.2604
325.3649, 850.3167
325.8470, 851.8278
326.3291, 852.4124
326.8112, 850.9854
327.2934, 849.5663
327.7755, 849.7822
328.2576, 851.6804
328.7397, 853.9449
329.2218, 855.0737
329.7039, 854.7062
330.1861, 854.9734
330.6682, 856.4567
331.1503, 857.9321
331.6324, 859.0535
332.1145, 859.7367
332.5966, 859.9091
333.0788, 859.4724
333.5609, 858.4626
334.0430, 857.5203
334.5251, 856.7639
335.0072, 855.9344
335.4893, 854.7933
335.9715, 853.5930
336.4536, 852.7292
336.9357, 852.4162
337.4178, 852.4608
337.8999, 852.2889
338.3820, 851.6765
338.8642, 851.1697
339.3463, 850.6855
339.8284, 850.3807
340.3105, 850.5419
340.7926, 851.1942
341.2747, 851.9067
341.7568, 852.0226
342.2390, 851.3773
342.7211, 850.5112
343.2032, 849.0938
343.6853, 847.7617
344.1674, 846.9160
344.6495, 846.5283
345.1317, 846.2791
345.6138, 845.8350
346.0959, 845.1645
346.5780, 844.8502
347.0601, 845.3016
347.5422, 845.7362
348.0244, 845.7728
348.5065, 845.6620
348.9886, 845.9243
349.4707, 846.9365
349.9528, 848.4492
350.4349, 849.3942
350.9171, 849.2603
351.3992, 849.3557
351.8813, 849.8190
352.3634, 850.6516
352.8455, 851.9692
353.3276, 853.8053
353.8098, 855.8025
354.2919, 857.2798
354.7740, 857.9544
355.2561, 858.9757
355.7382, 860.7153
356.2203, 862.6381
356.7025, 864.2971
357.1846, 865.7410
357.6667, 867.4929
358.1488, 870.2158
358.6309, 873.9385
359.1130, 877.4282
359.5952, 880.8636
360.0773, 883.7986
360.5594, 885.5855
361.0415, 886.7716
361.5236, 888.4285
362.0057, 891.2070
362.4879, 894.8716
362.9700, 898.8524
363.4521, 903.3901
363.9342, 907.6605
364.4163, 911.0096
364.8984, 914.1323
365.3806, 917.7618
365.8627, 922.1575
366.3448, 926.9479
366.8269, 931.8229
367.3090, 936.8597
367.7911, 941.4073
368.2733, 944.7787
368.7554, 948.0418
369.2375, 951.9064
369.7196, 956.4196
370.2017, 961.3148
370.6838, 966.6436
371.1660, 972.2598
371.6481, 977.3680
372.1302, 981.7275
372.6123, 985.8961
373.0944, 990.1710
373.5765, 994.5431
374.0587, 999.0716
374.5408, 1003.864
375.0229, 1008.742
375.5050, 1013.343
375.9871, 1017.587
376.4692, 1022.096
376.9514, 1027.384
377.4335, 1032.988
377.9156, 1038.304
378.3977, 1043.335
378.8798, 1047.933
379.3619, 1051.634
379.8441, 1054.707
380.3262, 1058.362
380.8083, 1063.079
381.2904, 1068.279
381.7725, 1073.306
382.2546, 1078.146
382.7368, 1082.994
383.2189, 1088.341
383.7010, 1093.583
384.1831, 1097.507
384.6652, 1099.924
385.1473, 1102.598
385.6295, 1107.276
386.1116, 1113.577
386.5937, 1118.803
387.0758, 1122.727
387.5579, 1125.672
388.0400, 1127.432
388.5222, 1128.282
389.0043, 1129.109
389.4864, 1130.263
389.9685, 1131.734
390.4506, 1133.688
390.9327, 1136.930
391.4149, 1138.875
391.8970, 1138.203
392.3791, 1136.305
392.8612, 1134.701
393.3433, 1133.746
393.8254, 1133.193
394.3076, 1132.793
394.7897, 1132.573
395.2718, 1132.406
395.7539, 1131.835
396.2360, 1131.718
396.7181, 1133.071
397.2003, 1135.359
397.6824, 1136.971
398.1645, 1136.814
398.6466, 1135.304
399.1287, 1134.551
399.6108, 1135.008
400.0930, 1135.712
400.5751, 1136.603
401.0572, 1137.681
401.5393, 1138.989
402.0214, 1140.529
402.5035, 1142.211
402.9857, 1143.909
403.4678, 1145.640
403.9499, 1147.351
404.4320, 1148.937
404.9141, 1150.616
405.3962, 1152.556
405.8784, 1154.695
406.3605, 1156.851
406.8426, 1158.888
407.3247, 1160.815
407.8068, 1162.583
408.2889, 1163.798
408.7711, 1165.431
409.2532, 1167.359
409.7353, 1169.903
410.2174, 1173.651
410.6995, 1178.800
411.1816, 1184.402
411.6638, 1189.201
412.1459, 1193.131
412.6280, 1196.487
413.1101, 1198.619
413.5922, 1200.734
414.0743, 1203.551
414.5565, 1206.970
415.0386, 1210.425
415.5207, 1213.331
416.0028, 1215.950
416.4849, 1219.199
416.9670, 1223.092
417.4492, 1227.604
417.9313, 1233.608
418.4134, 1239.953
418.8955, 1245.020
419.3776, 1248.098
419.8597, 1250.608
420.3419, 1253.474
420.8240, 1256.790
421.3061, 1261.746
421.7882, 1269.785
422.2703, 1278.054
422.7524, 1282.835
423.2346, 1284.305
423.7167, 1285.569
424.1988, 1287.263
424.6809, 1289.603
425.1630, 1293.147
425.6451, 1297.942
426.1273, 1302.939
426.6094, 1307.436
427.0915, 1311.464
427.5736, 1315.396
428.0557, 1319.030
428.5378, 1322.779
429.0200, 1327.146
429.5021, 1331.721
429.9842, 1335.631
430.4663, 1338.565
430.9484, 1340.796
431.4305, 1342.699
431.9127, 1343.987
432.3948, 1345.690
432.8769, 1348.480
433.3590, 1351.169
433.8411, 1352.746
434.3232, 1353.324
434.8054, 1353.821
435.2875, 1354.985
435.7696, 1356.692
436.2517, 1357.657
436.7338, 1357.962
437.2159, 1357.359
437.6981, 1355.078
438.1802, 1352.183
438.6623, 1349.964
439.1444, 1348.807
439.6265, 1347.887
440.1086, 1345.986
440.5908, 1342.947
441.0729, 1339.448
441.5550, 1335.251
442.0371, 1330.788
442.5192, 1326.103
443.0013, 1321.307
443.4835, 1316.709
443.9656, 1312.764
444.4477, 1308.950
444.9298, 1303.526
445.4119, 1295.749
445.8940, 1288.206
446.3762, 1281.717
446.8583, 1275.826
447.3404, 1270.479
447.8225, 1265.690
448.3046, 1260.667
448.7867, 1254.537
449.2689, 1247.531
449.7510, 1240.926
450.2331, 1235.161
450.7152, 1229.283
451.1973, 1222.563
451.6794, 1215.152
452.1616, 1207.229
452.6437, 1198.117
453.1258, 1189.094
453.6079, 1181.539
454.0900, 1175.276
454.5721, 1169.354
455.0543, 1163.523
455.5364, 1157.607
456.0185, 1151.103
456.5006, 1143.842
456.9827, 1136.884
457.4648, 1130.783
457.9470, 1124.934
458.4291, 1118.495
458.9112, 1111.454
459.3933, 1104.597
459.8754, 1098.619
460.3575, 1093.477
460.8397, 1087.956
461.3218, 1081.575
461.8039, 1075.446
462.2860, 1069.779
462.7681, 1064.560
463.2502, 1059.947
463.7324, 1055.953
464.2145, 1052.131
464.6966, 1047.758
465.1787, 1042.716
465.6608, 1037.539
466.1429, 1031.395
466.6251, 1025.913
467.1072, 1022.177
467.5893, 1019.675
468.0714, 1017.158
468.5535, 1013.835
469.0356, 1009.995
469.5178, 1006.510
469.9999, 1003.540
470.4820, 1000.451
470.9641, 996.7618
471.4462, 993.0725
471.9283, 989.9310
472.4105, 987.3772
472.8926, 984.8686
473.3747, 981.9125
473.8568, 978.6529
474.3389, 975.6746
474.8210, 973.0571
475.3032, 970.6110
475.7853, 968.3795
476.2674, 966.2076
476.7495, 963.7120
477.2316, 960.2511
477.7137, 957.3749
478.1959, 956.8044
478.6780, 957.7244
479.1601, 957.6605
479.6422, 955.7603
480.1243, 953.1359
480.6064, 951.2115
481.0886, 950.0967
481.5707, 948.9290
482.0528, 947.3505
482.5349, 945.9771
483.0170, 945.4570
483.4991, 945.5235
483.9813, 945.3041
484.4634, 944.2756
484.9455, 942.7762
485.4276, 941.8210
485.9097, 942.1056
486.3918, 941.9313
486.8740, 940.6715
487.3561, 939.4177
487.8382, 938.9467
488.3203, 939.3145
488.8024, 940.1561
489.2845, 941.2112
489.7667, 942.4733
490.2488, 943.8020
490.7309, 944.9380
491.2130, 946.6166
491.6951, 949.7791
492.1772, 953.1273
492.6594, 955.1214
493.1415, 955.3699
493.6236, 955.2344
494.1057, 956.1850
494.5878, 958.0622
495.0699, 959.4164
495.5521, 959.8556
496.0342, 960.2162
496.5163, 960.8331
496.9984, 961.8221
497.4805, 963.6063
497.9626, 966.8206
498.4448, 970.2416
498.9269, 972.7579
499.4090, 974.5989
499.8911, 976.6349
500.3732, 979.2002
500.8553, 981.9111
501.3375, 984.1352
501.8196, 985.6688
502.3017, 987.8344
502.7838, 991.3069
503.2659, 994.9300
503.7480, 997.8993
504.2302, 1000.345
504.7123, 1002.829
505.1944, 1005.666
505.6765, 1008.793
506.1586, 1012.036
506.6407, 1015.518
507.1228, 1018.952
507.6049, 1022.292
508.0871, 1025.637
508.5692, 1028.923
509.0513, 1032.250
509.5334, 1035.964
510.0155, 1040.486
510.4977, 1045.566
510.9798, 1049.774
511.4619, 1052.794
511.9440, 1055.675
512.4261, 1058.305
512.9083, 1061.215
513.3904, 1065.137
513.8725, 1070.199
514.3546, 1075.144
514.8367, 1078.515
515.3188, 1081.085
515.8010, 1085.510
516.2831, 1092.479
516.7652, 1099.071
517.2473, 1103.143
517.7294, 1105.259
518.2115, 1107.490
518.6937, 1109.569
519.1758, 1112.240
519.6579, 1116.214
520.1400, 1120.885
520.6221, 1125.266
521.1042, 1129.140
521.5864, 1132.853
522.0685, 1136.836
522.5506, 1141.174
523.0327, 1144.905
523.5148, 1147.585
523.9969, 1150.307
524.4791, 1153.818
524.9612, 1157.432
525.4433, 1159.995
525.9254, 1161.130
526.4075, 1161.817
526.8896, 1163.768
527.3718, 1167.506
527.8539, 1169.712
528.3360, 1168.868
528.8181, 1168.059
529.3002, 1168.709
529.7823, 1170.280
530.2645, 1171.786
530.7466, 1172.958
531.2287, 1173.609
531.7108, 1173.292
532.1929, 1172.070
532.6750, 1171.013
533.1572, 1170.613
533.6393, 1170.046
534.1214, 1168.143
534.6035, 1165.145
535.0856, 1162.438
535.5677, 1160.769
536.0499, 1159.091
536.5320, 1156.617
537.0141, 1153.469
537.4962, 1149.990
537.9783, 1146.328
538.4604, 1142.516
538.9426, 1138.677
539.4247, 1134.938
539.9068, 1130.699
540.3889, 1125.337
540.8710, 1120.121
541.3531, 1115.873
541.8353, 1112.277
542.3174, 1108.521
542.7995, 1104.173
543.2816, 1099.348
543.7637, 1094.155
544.2458, 1088.221
544.7280, 1083.072
545.2101, 1079.934
545.6922, 1076.762
546.1743, 1072.631
546.6564, 1067.512
547.1385, 1061.623
547.6207, 1054.696
548.1028, 1047.356
548.5849, 1040.567
549.0670, 1034.306
549.5491, 1028.093
550.0313, 1021.574
550.5134, 1015.338
550.9955, 1010.735
551.4776, 1007.894
551.9597, 1004.112
552.4418, 997.7429
552.9240, 991.2244
553.4061, 986.7605
553.8882, 983.8668
554.3703, 980.8206
554.8524, 976.7729
555.3345, 971.7599
555.8167, 965.7593
556.2988, 957.8482
556.7809, 950.7548
557.2630, 944.7907
557.7451, 939.1910
558.2272, 933.5494
558.7094, 927.8733
559.1915, 922.3235
559.6736, 916.9363
560.1557, 911.7977
560.6378, 907.2952
561.1199, 903.6511
561.6021, 899.3116
562.0842, 893.7552
562.5663, 887.5972
563.0484, 881.1500
563.5305, 874.5332
564.0126, 868.2822
564.4948, 862.5765
564.9769, 857.3444
565.4590, 852.9198
565.9411, 849.0554
566.4232, 844.4830
566.9053, 838.5862
567.3875, 832.2514
567.8696, 826.7475
568.3517, 822.2113
568.8338, 818.3248
569.3159, 816.0050
569.7980, 813.4649
570.2802, 809.4625
570.7623, 804.5684
571.2444, 799.9951
571.7265, 796.3243
572.2086, 793.0269
572.6907, 789.1119
573.1729, 784.2728
573.6550, 779.9081
574.1371, 776.3596
574.6192, 773.0195
575.1013, 769.5172
575.5834, 766.0112
576.0656, 762.9183
576.5477, 760.5511
577.0298, 758.2734
577.5119, 755.3727
577.9940, 751.9424
578.4761, 748.3479
578.9583, 744.5809
579.4404, 740.9891
579.9225, 737.9959
580.4046, 735.5826
580.8867, 733.0947
581.3688, 730.5527
581.8510, 727.9091
582.3331, 725.0680
582.8152, 722.1389
583.2973, 719.1875
583.7794, 716.2719
584.2615, 713.4885
584.7437, 710.9750
585.2258, 708.7404
585.7079, 706.6027
586.1900, 704.2328
586.6721, 702.3819
587.1542, 702.2399
587.6363, 702.1711
588.1184, 700.0319
588.6005, 695.3856
589.0826, 690.4724
589.5648, 687.5654
590.0469, 686.0656
590.5290, 683.6268
591.0111, 679.9025
591.4932, 676.2560
591.9753, 673.3631
592.4575, 671.1138
592.9396, 669.2543
593.4217, 668.0894
593.9038, 666.4780
594.3859, 663.3919
594.8680, 660.1113
595.3502, 658.3661
595.8323, 657.9699
596.3144, 657.1089
596.7965, 654.4686
597.2786, 650.6433
597.7607, 647.8151
598.2429, 646.4425
598.7250, 645.2631
599.2071, 644.5423
599.6892, 643.6707
600.1713, 642.1374
600.6534, 640.0987
601.1356, 638.1086
601.6177, 636.4914
602.0998, 635.1050
602.5819, 633.6748
603.0640, 632.2000
603.5461, 630.8774
604.0283, 629.7657
604.5104, 628.8097
604.9925, 628.0085
605.4746, 627.3384
605.9567, 626.6458
606.4388, 626.0441
606.9210, 625.2705
607.4031, 624.0281
607.8852, 622.5295
608.3673, 621.2260
608.8494, 620.2508
609.3315, 619.2634
609.8137, 617.7809
610.2958, 615.7066
610.7779, 614.1484
611.2600, 613.4598
611.7421, 612.8824
612.2242, 612.4206
612.7064, 611.8792
613.1885, 610.9770
613.6706, 609.6688
614.1527, 608.3448
614.6348, 607.3680
615.1169, 606.6453
615.5991, 605.9560
616.0812, 605.3250
616.5633, 604.4081
617.0454, 602.8963
617.5275, 601.0574
618.0096, 599.4850
618.4918, 598.2312
618.9739, 597.0212
619.4560, 596.0998
619.9381, 594.9638
620.4202, 592.9476
620.9023, 590.3267
621.3845, 588.0053
621.8666, 586.4887
622.3487, 585.4637
622.8308, 584.3253
623.3129, 583.1887
623.7950, 581.5689
624.2772, 578.8318
624.7593, 576.2137
625.2414, 574.2927
625.7235, 572.8995
626.2056, 571.6895
626.6877, 570.5825
627.1699, 569.5270
627.6520, 568.7381
628.1341, 567.9783
628.6162, 566.3680
629.0983, 563.6786
629.5804, 560.7890
630.0626, 558.3033
630.5447, 556.2081
631.0268, 554.3323
631.5089, 552.5953
631.9910, 551.1513
632.4731, 550.5298
632.9553, 549.8510
633.4374, 548.0508
633.9195, 545.2928
634.4016, 542.7291
634.8837, 541.2519
635.3658, 540.5027
635.8480, 539.4982
636.3301, 538.2680
636.8122, 536.6165
637.2943, 533.9890
637.7764, 531.4812
638.2585, 530.0699
638.7407, 529.5651
639.2228, 529.0554
639.7049, 528.1944
640.1870, 527.3033
640.6691, 526.6989
641.1512, 526.2493
641.6334, 525.6459
642.1155, 524.8104
642.5976, 523.8450
643.0797, 522.8323
643.5618, 521.7721
644.0439, 520.9012
644.5261, 520.5274
645.0082, 519.9567
645.4903, 518.7656
645.9724, 517.5549
646.4545, 516.9617
646.9366, 516.9827
647.4188, 517.0292
647.9009, 516.6749
648.3830, 516.0492
648.8651, 515.3228
649.3472, 514.4883
649.8293, 514.0885
650.3115, 514.5396
650.7936, 515.1205
651.2757, 514.7556
651.7578, 513.3963
652.2399, 512.4542
652.7220, 512.4232
653.2042, 512.4166
653.6863, 511.8445
654.1684, 511.0604
654.6505, 510.8280
655.1326, 511.2645
655.6147, 511.4934
656.0969, 510.4880
656.5790, 508.3119
657.0611, 505.9120
657.5432, 502.5539
658.0253, 500.5365
658.5074, 502.9019
658.9896, 505.5597
659.4717, 504.4393
659.9538, 499.3884
660.4359, 494.5092
660.9180, 491.6559
661.4001, 489.7972
661.8823, 488.0806
662.3644, 486.4245
662.8465, 484.6630
663.3286, 482.7297
663.8107, 480.6712
664.2928, 478.5125
664.7750, 476.1835
665.2571, 474.1738
665.7392, 472.6331
666.2213, 471.2295
666.7034, 470.0612
667.1855, 468.8981
667.6677, 467.5218
668.1498, 465.8807
668.6319, 464.0305
669.1140, 461.8601
669.5961, 459.5578
670.0782, 457.6290
670.5604, 456.0828
671.0425, 454.2745
671.5246, 451.8367
672.0067, 449.2495
672.4888, 447.2604
672.9709, 445.9847
673.4531, 444.7420
673.9352, 443.8684
674.4173, 442.6503
674.8994, 440.3682
675.3815, 437.7193
675.8636, 435.7417
676.3458, 434.6821
676.8279, 433.7997
677.3100, 432.2676
677.7921, 430.2106
678.2742, 428.4590
678.7563, 427.0438
679.2385, 425.8025
679.7206, 424.7885
680.2027, 423.8264
680.6848, 422.7261
681.1669, 421.4850
681.6490, 420.1161
682.1312, 418.5269
682.6133, 416.9123
683.0954, 415.3744
683.5775, 413.9182
684.0596, 412.5263
684.5417, 411.2007
685.0239, 410.0003
685.5060, 409.0425
685.9881, 408.3131
686.4702, 407.1885
686.9523, 405.3615
687.4344, 403.7399
687.9166, 402.8113
688.3987, 402.0452
688.8808, 400.9691
689.3629, 399.5838
689.8450, 398.2674
690.3271, 397.1918
690.8093, 396.2452
691.2914, 395.3273
691.7735, 394.4581
692.2556, 393.7883
692.7377, 393.3604
693.2198, 392.7917
693.7020, 391.5655
694.1841, 389.6980
694.6662, 388.4665
695.1483, 388.5999
695.6304, 388.3130
696.1125, 386.9138
696.5947, 385.3132
697.0768, 384.2037
697.5589, 383.6202
698.0410, 383.2632
698.5231, 383.1625
699.0052, 383.0093
699.4874, 382.2906
699.9695, 381.1561
700.4516, 380.2066
700.9337, 379.5979
701.4158, 379.2266
701.8979, 379.0795
702.3801, 379.1196
702.8622, 378.7242
703.3443, 377.4735
703.8264, 376.3334
704.3085, 375.2431
704.7906, 374.4129
705.2728, 374.2534
705.7549, 374.5279
706.2370, 374.4069
706.7191, 373.2984
707.2012, 371.8676
707.6833, 371.1176
708.1655, 370.9176
708.6476, 370.4637
709.1297, 369.5454
709.6118, 368.7363
710.0939, 368.5245
710.5760, 368.8004
711.0582, 368.9684
711.5403, 369.2821
712.0224, 369.1361
712.5045, 368.0269
712.9866, 366.8408
713.4688, 366.3069
713.9509, 366.2221
714.4330, 365.9259
714.9151, 365.0689
715.3972, 364.0891
715.8793, 363.7079
716.3615, 363.7820
716.8436, 363.2721
717.3257, 361.9382
717.8078, 360.7965
718.2899, 360.5731
718.7720, 360.9140
719.2542, 360.8587
719.7363, 360.2297
720.2184, 359.6770
720.7005, 359.1884
721.1826, 358.8522
721.6647, 358.9291
722.1469, 359.1381
722.6290, 358.9450
723.1111, 358.1627
723.5932, 357.1735
724.0753, 356.3829
724.5574, 355.7563
725.0396, 355.1651
725.5217, 354.6172
726.0038, 353.9918
726.4859, 353.1753
726.9680, 352.3300
727.4501, 351.7367
727.9323, 351.4203
728.4144, 351.1820
728.8965, 351.2085
729.3786, 351.0945
729.8607, 350.3730
730.3428, 349.5439
730.8250, 349.4067
731.3071, 350.0388
731.7892, 350.6690
732.2713, 350.5866
732.7534, 350.0134
733.2355, 349.6118
733.7177, 349.3970
734.1998, 348.9841
734.6819, 348.1057
735.1640, 347.3230
735.6461, 347.2611
736.1282, 347.9094
736.6104, 348.5189
737.0925, 349.0175
737.5746, 349.5674
738.0567, 350.5185
738.5388, 351.3125
739.0209, 351.0777
739.5031, 350.1224
739.9852, 349.8096
740.4673, 351.0838
740.9494, 352.9920
741.4315, 353.7678
741.9136, 353.5499
742.3958, 354.0277
742.8779, 355.5870
743.3600, 357.2246
743.8421, 358.2143
744.3242, 358.7902
744.8063, 359.7430
745.2885, 361.2467
745.7706, 362.7216
746.2527, 364.1546
746.7348, 365.5157
747.2169, 366.6066
747.6990, 367.6541
748.1812, 369.1505
748.6633, 371.2511
749.1454, 373.4242
749.6275, 374.9107
750.1096, 376.0044
750.5917, 377.8462
751.0739, 380.5125
751.5560, 382.7852
752.0381, 384.1190
752.5202, 384.9324
753.0023, 385.8149
753.4844, 386.7842
753.9666, 387.6945
754.4487, 388.3888
754.9308, 389.2269
755.4129, 390.4304
755.8950, 391.7466
756.3771, 392.9991
756.8593, 394.1159
757.3414, 394.9872
757.8235, 395.5438
758.3056, 395.8154
758.7877, 395.7875
759.2698, 395.5003
759.7520, 395.1226
760.2341, 394.6859
760.7162, 394.2274
761.1983, 393.8021
761.6804, 393.3670
762.1625, 392.7019
762.6447, 391.8856
763.1268, 390.6909
763.6089, 388.7431
764.0910, 386.8187
764.5731, 385.3393
765.0552, 384.1754
765.5374, 383.1027
766.0195, 382.0995
766.5016, 380.8334
766.9837, 379.0524
767.4658, 376.8316
767.9479, 373.9901
768.4301, 370.7050
768.9122, 368.0439
769.3943, 366.4931
769.8764, 365.4654
770.3585, 364.1117
770.8406, 362.3921
771.3228, 360.6901
771.8049, 358.8415
772.2870, 357.2696
772.7691, 356.2813
773.2512, 355.4702
773.7333, 354.3821
774.2155, 353.0808
774.6976, 352.1713
775.1797, 352.0243
775.6618, 352.2011
776.1439, 352.5831
776.6260, 353.0095
777.1082, 353.1979
777.5903, 353.1251
778.0724, 352.9693
778.5545, 352.8451
779.0366, 352.7713
779.5187, 352.7110
780.0009, 352.5643
780.4830, 353.1522
780.9651, 355.1216
781.4472, 356.7858
781.9293, 356.5431
782.4114, 355.5259
782.8936, 356.0439
783.3757, 358.7026
783.8578, 360.8731
784.3399, 361.6064
784.8220, 361.9558
785.3041, 362.3633
785.7863, 362.9801
786.2684, 363.9716
786.7505, 365.3815
787.2326, 367.0951
787.7147, 369.0392
788.1968, 371.1864
788.6790, 373.4107
789.1611, 375.6961
789.6432, 378.3293
790.1253, 381.4312
790.6074, 384.7598
791.0895, 388.0366
791.5717, 391.2992
792.0538, 394.9199
792.5359, 398.7348
793.0180, 403.1339
793.5001, 408.6172
793.9822, 414.2789
794.4644, 419.2567
794.9465, 424.0049
795.4286, 429.7528
795.9107, 437.0464
796.3928, 444.7520
796.8749, 451.8584
797.3571, 458.7298
797.8392, 466.1136
798.3213, 473.9826
798.8034, 481.6123
799.2855, 488.6628
799.7676, 495.8053
800.2498, 504.0875
800.7319, 513.6262
801.2140, 522.1429
801.6961, 528.9391
802.1782, 536.0097
802.6603, 544.2090
803.1425, 552.5588
803.6246, 560.2652
804.1067, 567.4144
804.5888, 574.5120
805.0709, 581.6637
805.5530, 588.7997
806.0352, 596.0590
806.5173, 603.1324
806.9994, 609.6885
807.4815, 615.7112
807.9636, 621.5527
808.4457, 627.4152
808.9279, 632.6732
809.4100, 636.1524
809.8921, 637.9650
810.3742, 639.5230
810.8563, 641.0104
811.3384, 641.5505
811.8206, 640.6964
812.3027, 638.7991
812.7848, 636.5756
813.2669, 634.2546
813.7490, 629.6622
814.2311, 622.0051
814.7133, 613.1738
815.1954, 603.1262
815.6775, 592.5739
816.1596, 582.3622
816.6417, 572.3621
817.1238, 561.6185
817.6060, 549.5423
818.0881, 536.9643
818.5702, 524.7361
819.0523, 512.7229
819.5344, 500.4706
820.0165, 487.9820
820.4987, 475.9691
820.9808, 464.8258
821.4629, 454.6439
821.9450, 445.7780
822.4271, 438.3676
822.9092, 430.8765
823.3914, 422.9598
823.8735, 415.5654
824.3556, 409.1250
824.8377, 403.3207
825.3198, 397.8200
825.8019, 392.6603
826.2841, 388.2766
826.7662, 385.3580
827.2483, 382.5337
827.7304, 378.8957
828.2125, 375.2882
828.6946, 372.7087
829.1768, 371.0689
829.6589, 369.6479
830.1410, 368.0846
830.6231, 366.4843
831.1052, 364.8725
831.5873, 363.3364
832.0695, 362.2761
832.5516, 361.7203
833.0337, 361.3881
833.5158, 361.2168
833.9979, 360.9792
834.4800, 360.2602
834.9622, 358.9620
835.4443, 358.2314
835.9264, 358.6305
836.4085, 358.7606
836.8906, 358.1664
837.3727, 357.3844
837.8549, 356.7435
838.3370, 356.2679
838.8191, 355.9340
839.3012, 355.7268
839.7833, 355.6761
840.2654, 356.1411
840.7476, 356.5316
841.2297, 355.8937
841.7118, 354.5839
842.1939, 353.8924
842.6760, 354.3490
843.1581, 355.0092
843.6403, 354.4590
844.1224, 353.0476
844.6045, 352.8419
845.0866, 353.9513
845.5687, 354.3698
846.0508, 353.3303
846.5330, 351.8750
847.0151, 351.0661
847.4972, 350.8251
847.9793, 350.2972
848.4614, 349.3602
848.9435, 348.3141
849.4257, 347.2910
849.9078, 346.0384
850.3899, 344.3412
850.8720, 342.3360
851.3541, 340.1834
851.8362, 337.8588
852.3184, 335.8783
852.8005, 334.9848
853.2826, 334.1653
853.7647, 332.1336
854.2468, 329.4727
854.7289, 327.6086
855.2111, 326.8240
855.6932, 326.1617
856.1753, 324.8489
856.6574, 322.9967
857.1395, 320.6642
857.6216, 317.8532
858.1038, 315.8926
858.5859, 315.1426
859.0680, 314.4709
859.5501, 313.0880
860.0322, 311.3795
860.5143, 310.3058
860.9965, 310.2559
861.4786, 309.6468
861.9607, 307.7932
862.4428, 306.2400
862.9249, 305.5921
863.4070, 305.3483
863.8892, 305.0705
864.3713, 304.7003
864.8534, 304.2637
865.3355, 303.8286
865.8176, 303.2485
866.2997, 302.2206
866.7819, 301.1178
867.2640, 300.4867
867.7461, 300.2734
868.2282, 300.0316
868.7103, 299.5401
869.1924, 299.1405
869.6746, 299.5576
870.1567, 300.5144
870.6388, 300.4767
871.1209, 299.4014
871.6030, 298.2690
872.0851, 297.3397
872.5673, 296.6541
873.0494, 296.2566
873.5315, 296.1407
874.0136, 296.2577
874.4957, 296.6532
874.9778, 297.2013
875.4600, 298.3745
875.9421, 299.1953
876.4242, 298.8579
876.9063, 297.9701
877.3884, 297.6532
877.8705, 298.1689
878.3527, 298.4541
878.8348, 297.7615
879.3169, 297.1184
879.7990, 297.2989
880.2811, 297.9243
880.7632, 298.4738
881.2454, 298.8378
881.7275, 299.0986
882.2096, 299.2574
882.6917, 299.4745
883.1738, 299.9840
883.6559, 300.7481
884.1381, 301.7153
884.6202, 302.8575
885.1023, 303.8524
885.5844, 304.5169
886.0665, 305.1211
886.5486, 306.0979
887.0308, 307.4572
887.5129, 308.7006
887.9950, 309.7083
888.4771, 310.9435
888.9592, 312.7369
889.4413, 314.5359
889.9235, 315.8322
890.4056, 316.7434
890.8877, 317.7278
891.3698, 318.6857
891.8519, 319.9427
892.3340, 321.6927
892.8162, 323.6017
893.2983, 325.5571
893.7804, 327.5155
894.2625, 329.3648
894.7446, 331.1145
895.2267, 333.0000
895.7089, 335.5320
896.1910, 337.9001
896.6731, 338.8682
897.1552, 339.2547
897.6373, 340.6261
898.1194, 343.0428
898.6016, 345.5607
899.0837, 347.6482
899.5658, 349.4822
900.0479, 351.2205
900.5300, 352.9070
901.0121, 355.0995
901.4943, 357.8761
901.9764, 360.2446
902.4585, 361.8706
902.9406, 362.9447
903.4227, 363.5756
903.9048, 363.8298
904.3870, 364.2971
904.8691, 365.1968
905.3512, 365.8646
905.8333, 366.0990
906.3154, 366.2678
906.7975, 366.5249
907.2797, 366.8375
907.7618, 367.2573
908.2439, 367.8406
908.7260, 367.9326
909.2081, 366.7542
909.6902, 365.7763
910.1724, 366.3332
910.6545, 367.0285
911.1366, 366.0877
911.6187, 363.7646
912.1008, 361.6712
912.5829, 360.5722
913.0651, 359.8094
913.5472, 358.7549
914.0293, 357.6274
914.5114, 356.9090
914.9935, 356.4622
915.4756, 355.7308
915.9578, 354.5356
916.4398, 353.0299
916.9219, 351.3369
917.4041, 349.5035
917.8862, 347.7023
918.3683, 345.9374
918.8504, 343.8581
919.3325, 341.3628
919.8146, 338.8145
920.2968, 336.3905
920.7789, 334.0707
921.2610, 331.8291
921.7431, 329.7163
922.2252, 327.3226
922.7073, 324.4857
923.1895, 321.6337
923.6716, 318.9681
924.1537, 316.2101
924.6358, 312.8056
925.1179, 309.1295
925.6000, 306.5104
926.0822, 305.7370
926.5643, 304.4781
927.0464, 301.4875
927.5285, 298.5439
928.0106, 296.9630
928.4927, 296.0111
928.9749, 294.5875
929.4570, 292.5524
929.9391, 290.5482
930.4212, 288.8133
930.9033, 287.4377
931.3854, 286.6525
931.8676, 286.1949
932.3497, 285.6710
932.8318, 285.0573
933.3139, 284.5363
933.7960, 284.1802
934.2781, 283.7146
934.7603, 282.6371
935.2424, 281.2497
935.7245, 280.6393
936.2066, 280.7440
936.6887, 280.7765
937.1708, 280.5592
937.6530, 280.3937
938.1351, 280.5152
938.6172, 280.7896
939.0993, 280.8678
939.5814, 280.6993
940.0635, 280.5946
940.5457, 280.4970
941.0278, 280.6225
941.5099, 281.2218
941.9920, 281.8477
942.4741, 281.9135
942.9562, 281.5149
943.4384, 281.6289
943.9205, 282.5656
944.4026, 283.5143
944.8847, 284.2671
945.3668, 285.2116
945.8489, 287.0104
946.3311, 288.8646
946.8132, 289.4677
947.2953, 288.7345
947.7774, 288.3434
948.2595, 289.0023
948.7416, 289.9877
949.2238, 291.1007
949.7059, 292.2241
950.1880, 293.3346
950.6701, 294.3440
951.1522, 295.0175
951.6343, 295.2725
952.1165, 295.5636
952.5986, 296.5564
953.0807, 297.5966
953.5628, 297.5888
954.0449, 296.9541
954.5270, 296.8141
955.0092, 297.2753
955.4913, 297.5294
955.9734, 297.0400
956.4555, 296.2474
956.9376, 295.9503
957.4197, 296.0048
957.9019, 295.5391
958.3840, 294.5453
958.8661, 293.9327
959.3482, 294.0496
959.8303, 293.9580
960.3124, 292.6656
960.7946, 290.5808
961.2767, 289.3932
961.7588, 289.3180
962.2409, 288.9952
962.7230, 288.2054
963.2051, 287.5320
963.6873, 287.2159
964.1694, 287.1708
964.6515, 287.3851
965.1336, 287.8576
965.6157, 287.9053
966.0978, 286.8454
966.5800, 286.4309
967.0621, 287.5450
967.5442, 288.5031
968.0263, 288.2299
968.5084, 287.3444
968.9905, 286.8024
969.4727, 286.6913
969.9548, 286.8111
970.4369, 287.3817
970.9190, 287.8443
971.4011, 287.8599
971.8832, 287.7876
972.3654, 288.0243
972.8475, 288.4295
973.3296, 288.5821
973.8117, 288.3407
974.2938, 288.0595
974.7759, 288.0121
975.2581, 287.9427
975.7402, 287.5829
976.2223, 287.0781
976.7044, 286.7177
977.1865, 286.4620
977.6686, 285.9298
978.1508, 284.8735
978.6329, 283.8618
979.1150, 283.6690
979.5971, 283.8509
980.0792, 283.5697
980.5613, 282.9255
981.0435, 282.3839
981.5256, 282.0480
982.0077, 281.6793
982.4898, 281.0762
982.9719, 280.4293
983.4540, 280.1624
983.9362, 280.2043
984.4183, 280.1172
984.9004, 279.8815
985.3825, 279.6177
985.8646, 279.3530
986.3467, 279.2831
986.8289, 279.6757
987.3110, 280.3311
987.7931, 280.3277
988.2752, 279.5150
988.7573, 279.2929
989.2394, 279.9244
989.7216, 280.5358
990.2037, 280.7433
990.6858, 280.7485
991.1679, 280.8268
991.6500, 280.9600
992.1321, 280.7387
992.6143, 279.6174
993.0964, 279.4353
993.5785, 281.0451
994.0606, 282.6173
994.5427, 283.2620
995.0248, 283.3030
995.5070, 283.1278
995.9891, 282.7114
996.4712, 282.4909
996.9533, 282.4357
997.4354, 282.6362
997.9175, 283.5621
998.3997, 284.2810
998.8818, 283.9431
999.3639, 283.1351
999.8460, 282.9812
1000.328, 283.6677
1000.810, 284.0379
1001.292, 283.4971
1001.774, 282.9881
1002.257, 282.8051
1002.739, 282.8707
1003.221, 283.2520
1003.703, 283.7858
1004.185, 284.1734
1004.667, 284.3394
1005.149, 284.3214
1005.631, 283.9208
1006.114, 283.5847
1006.596, 283.6704
1007.078, 283.9679
1007.560, 284.3263
1008.042, 284.6377
1008.524, 284.6503
1009.006, 284.2489
1009.488, 283.9717
1009.970, 284.3610
1010.453, 284.9940
1010.935, 285.5253
1011.417, 285.8983
1011.899, 285.8870
1012.381, 285.6116
1012.863, 285.6709
1013.345, 286.3844
1013.827, 287.1900
1014.310, 287.4736
1014.792, 287.4159
1015.274, 287.1542
1015.756, 286.8701
1016.238, 287.2595
1016.720, 288.3204
1017.202, 289.0865
1017.684, 288.9470
1018.166, 288.5063
1018.649, 288.7298
1019.131, 289.3900
1019.613, 289.5415
1020.095, 289.2862
1020.577, 289.5163
1021.059, 290.4204
1021.541, 291.2237
1022.023, 291.3605
1022.505, 291.2606
1022.988, 291.8718
1023.470, 293.0999
1023.952, 293.6586
1024.434, 293.5307
1024.916, 293.3197
1025.398, 293.1308
1025.880, 293.4121
1026.362, 294.5721
1026.845, 296.2408
1027.327, 297.5714
1027.809, 298.5549
1028.291, 299.3100
1028.773, 299.8293
1029.255, 300.0922
1029.737, 299.9908
1030.219, 299.9764
1030.702, 300.4220
1031.184, 301.2159
1031.666, 302.0995
1032.148, 303.1667
1032.630, 303.7467
1033.112, 303.5725
1033.594, 303.7006
1034.076, 304.5482
1034.558, 305.5309
1035.041, 306.1042
1035.523, 306.4892
1036.005, 307.4311
1036.487, 309.2637
1036.969, 310.4454
1037.451, 310.6807
1037.933, 310.8279
1038.415, 311.0004
1038.897, 311.3014
1039.380, 311.8135
1039.862, 312.5218
1040.344, 313.4079
1040.826, 314.6381
1041.308, 315.5394
1041.790, 315.9462
1042.272, 316.2549
1042.754, 316.2883
1043.237, 316.5071
1043.719, 317.5978
1044.201, 319.1302
1044.683, 319.7431
1045.165, 318.9019
1045.647, 318.7045
1046.129, 319.7902
1046.611, 320.7899
1047.094, 321.3879
1047.576, 321.7321
1048.058, 321.7221
1048.540, 321.5880
1049.022, 321.9988
1049.504, 323.2461
1049.986, 324.0850
1050.468, 323.9940
1050.950, 323.9418
1051.432, 324.3666
1051.915, 324.8261
1052.397, 324.9367
1052.879, 324.7962
1053.361, 324.6043
1053.843, 324.2887
1054.325, 324.4878
1054.807, 326.0022
1055.289, 327.1906
1055.772, 327.1075
1056.254, 326.7793
1056.736, 327.0925
1057.218, 327.8204
1057.700, 328.2935
1058.182, 328.3568
1058.664, 328.6097
1059.146, 329.4276
1059.629, 330.1996
1060.111, 330.5576
1060.593, 330.8862
1061.075, 331.5884
1061.557, 332.4875
1062.039, 333.1263
1062.521, 333.4093
1063.003, 333.8566
1063.485, 334.7790
1063.968, 335.7269
1064.450, 336.5461
1064.932, 337.2725
1065.414, 337.9356
1065.896, 338.5264
1066.378, 338.9373
1066.860, 339.1662
1067.342, 339.6883
1067.824, 340.9588
1068.307, 342.1977
1068.789, 342.9492
1069.271, 343.6482
1069.753, 344.6643
1070.235, 345.8791
1070.717, 347.0753
1071.199, 348.2164
1071.681, 349.3184
1072.164, 350.3534
1072.646, 351.4102
1073.128, 352.6117
1073.610, 353.7796
1074.092, 354.5483
1074.574, 355.3131
1075.056, 356.7867
1075.538, 358.9632
1076.021, 361.0547
1076.503, 362.7086
1076.985, 364.3167
1077.467, 365.9806
1077.949, 367.7564
1078.431, 369.8708
1078.913, 372.0104
1079.395, 373.6592
1079.877, 374.8663
1080.359, 376.1429
1080.842, 377.5916
1081.324, 379.3468
1081.806, 381.7701
1082.288, 384.1997
1082.770, 386.1103
1083.252, 387.8402
1083.734, 389.8050
1084.216, 392.0289
1084.698, 394.3698
1085.181, 396.8022
1085.663, 399.3521
1086.145, 402.3296
1086.627, 405.0832
1087.109, 407.0556
1087.591, 408.7239
1088.073, 410.3815
1088.555, 412.2202
1089.038, 414.6803
1089.520, 417.9638
1090.002, 420.9412
1090.484, 422.9266
1090.966, 424.7654
1091.448, 426.6530
1091.930, 428.7880
1092.412, 431.4032
1092.895, 434.3799
1093.377, 437.5773
1093.859, 440.9748
1094.341, 443.8951
1094.823, 445.4965
1095.305, 447.3980
1095.787, 450.7512
1096.269, 454.1709
1096.751, 456.2970
1097.234, 457.9077
1097.716, 460.5059
1098.198, 464.1719
1098.680, 467.2832
1099.162, 468.9066
1099.644, 470.6416
1100.126, 472.9519
1100.608, 475.5574
1101.090, 478.5486
1101.573, 481.5570
1102.055, 483.9167
1102.537, 485.8108
1103.019, 488.6055
1103.501, 493.1742
1103.983, 497.2259
1104.465, 500.0550
1104.947, 502.5063
1105.430, 504.6948
1105.912, 506.9131
1106.394, 509.4298
1106.876, 512.2107
1107.358, 515.0574
1107.840, 517.9844
1108.322, 520.8436
1108.804, 523.7008
1109.286, 526.3906
1109.769, 528.7532
1110.251, 531.0394
1110.733, 533.2569
1111.215, 535.5851
1111.697, 538.5396
1112.179, 542.2913
1112.661, 545.3522
1113.143, 547.1163
1113.625, 548.9016
1114.108, 550.6094
1114.590, 552.7183
1115.072, 555.9879
1115.554, 559.4993
1116.036, 561.8754
1116.518, 563.1504
1117.000, 564.7599
1117.482, 566.8463
1117.965, 568.9961
1118.447, 571.4319
1118.929, 573.5639
1119.411, 574.8802
1119.893, 576.1625
1120.375, 578.4418
1120.857, 581.3289
1121.339, 583.1038
1121.822, 583.5281
1122.304, 583.5239
1122.786, 582.5383
1123.268, 582.5180
1123.750, 584.5296
1124.232, 586.5698
1124.714, 587.1618
1125.196, 586.7570
1125.678, 586.2632
1126.161, 585.6664
1126.643, 585.1865
1127.125, 584.7704
1127.607, 584.7326
1128.089, 585.2481
1128.571, 585.6674
1129.053, 585.6208
1129.535, 585.3798
1130.017, 585.3856
1130.500, 585.5021
1130.982, 584.7273
1131.464, 582.9700
1131.946, 581.6639
1132.428, 580.9579
1132.910, 580.3912
1133.392, 579.8071
1133.874, 579.2383
1134.357, 578.6950
1134.839, 578.2584
1135.321, 578.2325
1135.803, 578.5482
1136.285, 578.6094
1136.767, 578.3757
1137.249, 577.3453
1137.731, 575.4427
1138.214, 573.8040
1138.696, 573.1330
1139.178, 572.9785
1139.660, 572.7849
1140.142, 572.5526
1140.624, 572.2203
1141.106, 571.8580
1141.588, 571.9461
1142.070, 572.3448
1142.552, 571.8829
1143.035, 570.1638
1143.517, 568.5463
1143.999, 568.3049
1144.481, 568.7358
1144.963, 568.8994
1145.445, 568.9437
1145.927, 569.2313
1146.409, 569.6198
1146.892, 569.5215
1147.374, 568.9708
1147.856, 568.9280
1148.338, 570.0382
1148.820, 571.2130
1149.302, 571.4527
1149.784, 571.3134
1150.266, 571.0285
1150.749, 570.9811
1151.231, 571.9370
1151.713, 573.5831
1152.195, 574.7538
1152.677, 575.0911
1153.159, 575.7043
1153.641, 577.4980
1154.123, 579.3431
1154.605, 580.5004
1155.088, 581.5237
1155.570, 582.6768
1156.052, 584.1403
1156.534, 586.4515
1157.016, 589.4517
1157.498, 591.5522
1157.980, 591.5294
1158.462, 592.2850
1158.944, 595.0107
1159.427, 598.0557
1159.909, 600.9053
1160.391, 603.5575
1160.873, 605.9893
1161.355, 608.2449
1161.837, 610.3795
1162.319, 612.3806
1162.801, 614.3342
1163.284, 616.0178
1163.766, 618.0554
1164.248, 620.6984
1164.730, 623.4893
1165.212, 626.3849
1165.694, 629.0573
1166.176, 630.8408
1166.658, 631.9114
1167.141, 633.9459
1167.623, 637.1417
1168.105, 640.5359
1168.587, 644.2543
1169.069, 647.3845
1169.551, 649.4741
1170.033, 651.6515
1170.515, 654.9579
1170.997, 658.6592
1171.479, 661.1023
1171.962, 662.4179
1172.444, 664.2513
1172.926, 666.6152
1173.408, 669.8931
1173.890, 674.0922
1174.372, 677.6668
1174.854, 679.8971
1175.336, 681.9628
1175.819, 685.2216
1176.301, 688.8915
1176.783, 691.1166
1177.265, 692.5566
1177.747, 694.9435
1178.229, 698.1862
1178.711, 701.4771
1179.193, 704.6930
1179.676, 708.5729
1180.158, 713.6508
1180.640, 718.1683
1181.122, 719.8723
1181.604, 720.6941
1182.086, 722.6879
1182.568, 725.2307
1183.050, 727.2352
1183.532, 728.9802
1184.015, 731.4952
1184.497, 734.9875
1184.979, 738.5117
1185.461, 741.9202
1185.943, 744.7953
1186.425, 746.4904
1186.907, 748.1031
1187.389, 749.9299
1187.871, 752.3896
1188.354, 756.6213
1188.836, 761.8622
1189.318, 765.2130
1189.800, 765.6221
1190.282, 766.7006
1190.764, 769.2270
1191.246, 771.8079
1191.728, 774.0982
1192.211, 776.4934
1192.693, 779.3256
1193.175, 782.2548
1193.657, 784.9006
1194.139, 787.2352
1194.621, 788.8507
1195.103, 789.3484
1195.585, 790.9365
1196.068, 793.9396
1196.550, 796.9049
1197.032, 799.4572
1197.514, 801.5618
1197.996, 803.1547
1198.478, 804.4037
1198.960, 805.5143
1199.442, 806.5652
1199.924, 808.0528
1200.406, 809.9043
1200.889, 811.7786
1201.371, 813.5852
1201.853, 814.9106
1202.335, 815.6708
1202.817, 816.8115
1203.299, 819.2533
1203.781, 821.8959
1204.263, 823.3084
1204.746, 823.9727
1205.228, 824.0983
1205.710, 824.2903
1206.192, 825.7986
1206.674, 828.3945
1207.156, 830.8931
1207.638, 832.8761
1208.120, 834.3902
1208.603, 834.9944
1209.085, 835.7383
1209.567, 837.3121
1210.049, 839.1107
1210.531, 840.9777
1211.013, 842.5615
1211.495, 843.0622
1211.977, 842.8148
1212.459, 843.6735
1212.942, 846.3323
1213.424, 848.7589
1213.906, 850.7355
1214.388, 852.5502
1214.870, 854.0939
1215.352, 855.7626
1215.834, 857.9955
1216.316, 860.1854
1216.798, 861.3168
1217.281, 861.6363
1217.763, 862.9904
1218.245, 865.5159
1218.727, 867.9247
1219.209, 870.1393
1219.691, 872.2266
1220.173, 874.1641
1220.655, 876.6307
1221.138, 880.1111
1221.620, 883.9708
1222.102, 887.4553
1222.584, 890.5523
1223.066, 892.8504
1223.548, 894.8789
1224.030, 898.3759
1224.512, 902.9994
1224.995, 906.9862
1225.477, 909.9905
1225.959, 913.1249
1226.441, 916.9161
1226.923, 921.5723
1227.405, 927.8266
1227.887, 934.3546
1228.369, 940.4550
1228.851, 945.8682
1229.333, 949.5896
1229.816, 952.7062
1230.298, 957.7343
1230.780, 964.9484
1231.262, 971.6998
1231.744, 976.3916
1232.226, 982.1445
1232.708, 990.3441
1233.190, 998.3729
1233.673, 1005.195
1234.155, 1011.779
1234.637, 1018.786
1235.119, 1026.146
1235.601, 1033.510
1236.083, 1040.906
1236.565, 1050.658
1237.047, 1063.202
1237.530, 1074.744
1238.012, 1084.885
1238.494, 1094.291
1238.976, 1103.158
1239.458, 1112.655
1239.940, 1123.836
1240.422, 1135.833
1240.904, 1147.433
1241.386, 1158.831
1241.869, 1170.653
1242.351, 1182.713
1242.833, 1194.284
1243.315, 1205.757
1243.797, 1218.504
1244.279, 1232.897
1244.761, 1248.009
1245.243, 1263.726
1245.725, 1279.319
1246.208, 1294.018
1246.690, 1308.830
1247.172, 1324.634
1247.654, 1340.687
1248.136, 1355.728
1248.618, 1370.426
1249.100, 1386.609
1249.582, 1404.574
1250.065, 1422.079
1250.547, 1438.611
1251.029, 1455.392
1251.511, 1472.205
1251.993, 1489.851
1252.475, 1508.920
1252.957, 1528.314
1253.439, 1547.257
1253.922, 1565.803
1254.404, 1583.905
1254.886, 1601.839
1255.368, 1622.194
1255.850, 1644.615
1256.332, 1665.824
1256.814, 1685.672
1257.296, 1705.570
1257.778, 1725.890
1258.260, 1746.446
1258.743, 1767.132
1259.225, 1787.798
1259.707, 1808.228
1260.189, 1828.465
1260.671, 1848.291
1261.153, 1868.304
1261.635, 1889.789
1262.117, 1911.733
1262.600, 1931.814
1263.082, 1949.943
1263.564, 1968.590
1264.046, 1988.317
1264.528, 2008.619
1265.010, 2030.761
1265.492, 2051.504
1265.974, 2069.590
1266.457, 2086.418
1266.939, 2102.222
1267.421, 2117.774
1267.903, 2134.188
1268.385, 2151.266
1268.867, 2167.830
1269.349, 2183.969
1269.831, 2198.698
1270.313, 2211.991
1270.796, 2225.770
1271.278, 2240.304
1271.760, 2252.368
1272.242, 2260.342
1272.724, 2267.457
1273.206, 2277.124
1273.688, 2287.522
1274.170, 2296.529
1274.652, 2304.314
1275.135, 2311.102
1275.617, 2316.875
1276.099, 2321.381
1276.581, 2324.840
1277.063, 2327.577
1277.545, 2329.610
1278.027, 2332.710
1278.509, 2339.800
1278.992, 2344.421
1279.474, 2344.577
1279.956, 2342.569
1280.438, 2338.583
1280.920, 2333.889
1281.402, 2329.317
1281.884, 2324.992
1282.366, 2321.351
1282.849, 2318.304
1283.331, 2313.821
1283.813, 2307.868
1284.295, 2303.880
1284.777, 2301.962
1285.259, 2298.352
1285.741, 2291.976
1286.223, 2284.377
1286.705, 2276.705
1287.188, 2269.011
##END=



