##NAMES=Wohlerite
##RRUFFID=R050275
##IDEAL CHEMISTRY=NaCa_2_(Zr^4+^,Nb^5+^)(Si_2_O_7_)(O,F)_2_
##LOCALITY= Langesundsfjord, Norway
##OWNER=RRUFF
##SOURCE=Marcus Origlieri
##DESCRIPTION=Yellowish brown granular
##STATUS=The identification of this mineral has been confirmed by X-ray diffraction.
##URL=rruff.info/R050275
98.94037, 2008.344
99.42249, 2002.836
99.90460, 1993.462
100.3867, 1985.506
100.8688, 1980.501
101.3510, 1976.749
101.8331, 1973.084
102.3152, 1971.304
102.7973, 1973.043
103.2794, 1978.270
103.7615, 1984.540
104.2437, 1990.904
104.7258, 1997.454
105.2079, 2004.133
105.6900, 2010.635
106.1721, 2017.547
106.6542, 2026.100
107.1364, 2035.939
107.6185, 2046.932
108.1006, 2058.724
108.5827, 2071.462
109.0648, 2085.393
109.5469, 2100.786
110.0291, 2117.552
110.5112, 2133.895
110.9933, 2148.414
111.4754, 2163.763
111.9575, 2180.336
112.4396, 2198.278
112.9218, 2218.016
113.4039, 2240.216
113.8860, 2265.723
114.3681, 2289.521
114.8502, 2309.848
115.3323, 2329.773
115.8144, 2351.289
116.2966, 2374.845
116.7787, 2400.026
117.2608, 2427.095
117.7429, 2456.144
118.2250, 2484.146
118.7071, 2509.099
119.1893, 2532.535
119.6714, 2558.213
120.1535, 2587.483
120.6356, 2618.560
121.1177, 2649.022
121.5998, 2678.759
122.0820, 2708.952
122.5641, 2740.337
123.0462, 2772.932
123.5283, 2806.095
124.0104, 2840.291
124.4925, 2874.635
124.9747, 2908.390
125.4568, 2941.397
125.9389, 2974.390
126.4210, 3008.526
126.9031, 3043.631
127.3852, 3079.989
127.8674, 3118.198
128.3495, 3157.160
128.8316, 3196.322
129.3137, 3235.208
129.7958, 3274.047
130.2780, 3312.928
130.7601, 3351.717
131.2422, 3391.038
131.7243, 3430.631
132.2064, 3470.688
132.6885, 3511.964
133.1707, 3554.833
133.6528, 3599.206
134.1349, 3642.388
134.6170, 3683.815
135.0991, 3724.906
135.5812, 3766.304
136.0633, 3807.899
136.5455, 3849.435
137.0276, 3890.297
137.5097, 3930.755
137.9918, 3972.077
138.4739, 4015.585
138.9560, 4059.222
139.4382, 4100.384
139.9203, 4138.505
140.4024, 4175.370
140.8845, 4211.998
141.3666, 4248.192
141.8487, 4284.232
142.3309, 4320.117
142.8130, 4355.643
143.2951, 4390.592
143.7772, 4425.229
144.2593, 4458.386
144.7414, 4490.338
145.2236, 4520.820
145.7057, 4549.511
146.1878, 4575.641
146.6699, 4598.970
147.1520, 4623.037
147.6341, 4650.121
148.1163, 4676.137
148.5984, 4699.678
149.0805, 4720.641
149.5626, 4739.818
150.0447, 4757.803
150.5268, 4774.094
151.0090, 4790.898
151.4911, 4810.281
151.9732, 4828.501
152.4553, 4843.479
152.9374, 4854.653
153.4195, 4862.641
153.9017, 4867.931
154.3838, 4867.667
154.8659, 4870.253
155.3480, 4879.328
155.8301, 4889.696
156.3122, 4896.237
156.7944, 4897.342
157.2765, 4894.105
157.7586, 4887.542
158.2407, 4877.363
158.7228, 4866.359
159.2049, 4855.507
159.6871, 4844.417
160.1692, 4832.267
160.6513, 4818.955
161.1334, 4804.104
161.6155, 4788.026
162.0976, 4771.144
162.5798, 4751.552
163.0619, 4727.375
163.5440, 4698.876
164.0261, 4669.493
164.5082, 4641.140
164.9903, 4611.666
165.4725, 4578.497
165.9546, 4541.193
166.4367, 4502.617
166.9188, 4467.122
167.4009, 4435.758
167.8830, 4402.549
168.3652, 4364.614
168.8473, 4325.094
169.3294, 4285.772
169.8115, 4247.170
170.2936, 4209.011
170.7757, 4170.345
171.2579, 4129.662
171.7400, 4091.591
172.2221, 4057.978
172.7042, 4026.068
173.1863, 3993.508
173.6684, 3959.249
174.1506, 3923.458
174.6327, 3886.703
175.1148, 3846.438
175.5969, 3807.854
176.0790, 3771.510
176.5611, 3737.061
177.0433, 3704.026
177.5254, 3672.272
178.0075, 3641.466
178.4896, 3609.929
178.9717, 3576.724
179.4538, 3544.024
179.9360, 3512.506
180.4181, 3481.952
180.9002, 3452.060
181.3823, 3422.957
181.8644, 3394.338
182.3465, 3365.216
182.8287, 3334.770
183.3108, 3304.771
183.7929, 3276.067
184.2750, 3248.593
184.7571, 3221.618
185.2392, 3194.354
185.7214, 3167.603
186.2035, 3143.021
186.6856, 3122.363
187.1677, 3102.242
187.6498, 3079.576
188.1319, 3054.191
188.6141, 3029.044
189.0962, 3005.466
189.5783, 2983.192
190.0604, 2961.802
190.5425, 2941.462
191.0246, 2921.716
191.5068, 2901.850
191.9889, 2881.873
192.4710, 2861.726
192.9531, 2841.481
193.4352, 2821.141
193.9173, 2800.532
194.3995, 2779.456
194.8816, 2758.295
195.3637, 2737.594
195.8458, 2717.294
196.3279, 2697.827
196.8100, 2679.557
197.2922, 2661.885
197.7743, 2644.113
198.2564, 2625.753
198.7385, 2607.229
199.2206, 2590.235
199.7027, 2576.099
200.1849, 2561.856
200.6670, 2546.511
201.1491, 2530.907
201.6312, 2516.199
202.1133, 2503.158
202.5954, 2491.551
203.0776, 2479.962
203.5597, 2469.028
204.0418, 2457.503
204.5239, 2444.871
205.0060, 2431.550
205.4881, 2418.302
205.9703, 2405.553
206.4524, 2393.295
206.9345, 2381.950
207.4166, 2371.680
207.8987, 2362.020
208.3808, 2353.015
208.8630, 2344.605
209.3451, 2336.821
209.8272, 2329.834
210.3093, 2323.428
210.7914, 2315.811
211.2735, 2305.252
211.7557, 2295.491
212.2378, 2288.487
212.7199, 2283.633
213.2020, 2278.730
213.6841, 2272.198
214.1662, 2264.692
214.6484, 2259.089
215.1305, 2257.261
215.6126, 2255.330
216.0947, 2250.593
216.5768, 2243.492
217.0589, 2236.948
217.5410, 2232.716
218.0232, 2230.196
218.5053, 2227.398
218.9874, 2223.886
219.4695, 2220.579
219.9516, 2218.347
220.4337, 2217.180
220.9159, 2216.098
221.3980, 2214.714
221.8801, 2213.104
222.3622, 2211.299
222.8443, 2209.029
223.3264, 2207.062
223.8086, 2206.507
224.2907, 2207.538
224.7728, 2208.215
225.2549, 2207.134
225.7370, 2205.569
226.2191, 2204.734
226.7013, 2205.029
227.1834, 2205.618
227.6655, 2205.294
228.1476, 2203.740
228.6297, 2202.593
229.1118, 2202.708
229.5940, 2203.222
230.0761, 2203.580
230.5582, 2203.627
231.0403, 2203.453
231.5224, 2203.177
232.0045, 2202.794
232.4867, 2202.335
232.9688, 2201.700
233.4509, 2201.069
233.9330, 2200.696
234.4151, 2200.635
234.8972, 2200.517
235.3794, 2199.572
235.8615, 2197.016
236.3436, 2195.501
236.8257, 2196.515
237.3078, 2197.698
237.7899, 2197.121
238.2721, 2194.384
238.7542, 2190.782
239.2363, 2188.572
239.7184, 2189.048
240.2005, 2188.307
240.6826, 2184.981
241.1648, 2181.457
241.6469, 2179.555
242.1290, 2179.639
242.6111, 2180.736
243.0932, 2181.474
243.5753, 2182.106
244.0575, 2181.705
244.5396, 2179.102
245.0217, 2176.388
245.5038, 2175.265
245.9859, 2175.951
246.4680, 2177.279
246.9502, 2177.720
247.4323, 2177.079
247.9144, 2175.790
248.3965, 2173.070
248.8786, 2170.283
249.3607, 2168.713
249.8429, 2168.423
250.3250, 2168.145
250.8071, 2166.254
251.2892, 2161.968
251.7713, 2158.919
252.2534, 2157.833
252.7356, 2157.414
253.2177, 2156.743
253.6998, 2155.719
254.1819, 2154.834
254.6640, 2154.810
255.1461, 2155.919
255.6283, 2155.375
256.1104, 2152.078
256.5925, 2147.990
257.0746, 2143.970
257.5567, 2140.254
258.0388, 2137.824
258.5210, 2138.026
259.0031, 2140.904
259.4852, 2141.922
259.9673, 2139.451
260.4494, 2136.354
260.9315, 2134.394
261.4137, 2133.693
261.8958, 2134.262
262.3779, 2136.562
262.8600, 2140.280
263.3421, 2143.119
263.8242, 2144.971
264.3064, 2145.962
264.7885, 2145.683
265.2706, 2144.270
265.7527, 2143.172
266.2348, 2143.193
266.7169, 2144.243
267.1991, 2145.720
267.6812, 2147.627
268.1633, 2149.923
268.6454, 2152.737
269.1275, 2156.015
269.6096, 2159.321
270.0918, 2162.635
270.5739, 2165.714
271.0560, 2168.149
271.5381, 2169.648
272.0202, 2171.200
272.5023, 2173.284
272.9845, 2175.944
273.4666, 2179.579
273.9487, 2184.986
274.4308, 2190.916
274.9129, 2195.892
275.3951, 2199.857
275.8772, 2203.012
276.3593, 2204.900
276.8414, 2205.811
277.3235, 2207.648
277.8056, 2211.104
278.2878, 2215.434
278.7699, 2220.002
279.2520, 2224.817
279.7341, 2229.179
280.2162, 2232.120
280.6983, 2234.056
281.1805, 2237.013
281.6626, 2241.418
282.1447, 2246.758
282.6268, 2253.046
283.1089, 2259.960
283.5910, 2266.144
284.0732, 2270.742
284.5553, 2273.969
285.0374, 2276.464
285.5195, 2277.580
286.0016, 2279.124
286.4837, 2282.458
286.9659, 2286.959
287.4480, 2291.328
287.9301, 2294.751
288.4122, 2297.641
288.8943, 2301.173
289.3764, 2305.726
289.8586, 2310.120
290.3407, 2313.039
290.8228, 2315.672
291.3049, 2319.955
291.7870, 2327.302
292.2691, 2335.818
292.7513, 2341.728
293.2334, 2343.960
293.7155, 2346.500
294.1976, 2351.032
294.6797, 2356.435
295.1618, 2361.844
295.6440, 2366.987
296.1261, 2371.942
296.6082, 2376.686
297.0903, 2381.067
297.5724, 2385.914
298.0545, 2391.685
298.5367, 2397.920
299.0188, 2404.499
299.5009, 2411.395
299.9830, 2418.260
300.4651, 2424.577
300.9472, 2430.242
301.4294, 2436.455
301.9115, 2444.389
302.3936, 2452.143
302.8757, 2458.533
303.3578, 2463.644
303.8399, 2468.511
304.3221, 2473.738
304.8042, 2479.300
305.2863, 2486.236
305.7684, 2495.907
306.2505, 2505.664
306.7326, 2514.127
307.2148, 2521.635
307.6969, 2529.229
308.1790, 2537.840
308.6611, 2547.185
309.1432, 2555.475
309.6253, 2561.773
310.1075, 2568.325
310.5896, 2576.657
311.0717, 2585.578
311.5538, 2593.216
312.0359, 2598.327
312.5180, 2601.883
313.0002, 2606.462
313.4823, 2612.065
313.9644, 2618.780
314.4465, 2627.289
314.9286, 2636.489
315.4107, 2645.465
315.8929, 2653.968
316.3750, 2661.869
316.8571, 2669.033
317.3392, 2675.594
317.8213, 2681.094
318.3034, 2683.404
318.7856, 2686.015
319.2677, 2691.690
319.7498, 2700.748
320.2319, 2710.745
320.7140, 2719.210
321.1961, 2726.064
321.6783, 2732.007
322.1604, 2735.474
322.6425, 2739.437
323.1246, 2746.195
323.6067, 2755.027
324.0888, 2763.013
324.5710, 2767.394
325.0531, 2768.415
325.5352, 2770.145
326.0173, 2772.446
326.4994, 2775.780
326.9815, 2780.559
327.4637, 2786.360
327.9458, 2792.532
328.4279, 2798.993
328.9100, 2805.375
329.3921, 2810.467
329.8742, 2813.743
330.3564, 2816.763
330.8385, 2819.937
331.3206, 2823.210
331.8027, 2826.685
332.2848, 2830.485
332.7669, 2834.034
333.2491, 2836.199
333.7312, 2836.546
334.2133, 2837.253
334.6954, 2839.039
335.1775, 2841.238
335.6596, 2843.149
336.1418, 2844.746
336.6239, 2847.128
337.1060, 2852.384
337.5881, 2860.660
338.0702, 2866.133
338.5523, 2865.816
339.0345, 2864.860
339.5165, 2865.393
339.9987, 2867.657
340.4808, 2871.946
340.9629, 2880.040
341.4450, 2890.769
341.9271, 2897.509
342.4092, 2898.159
342.8914, 2898.381
343.3735, 2901.184
343.8556, 2905.397
344.3377, 2909.063
344.8198, 2910.875
345.3019, 2912.328
345.7841, 2916.312
346.2662, 2923.349
346.7483, 2930.796
347.2304, 2937.625
347.7125, 2944.339
348.1946, 2951.474
348.6768, 2959.187
349.1589, 2967.032
349.6410, 2974.675
350.1231, 2982.090
350.6052, 2989.105
351.0873, 2994.817
351.5695, 3001.011
352.0516, 3009.604
352.5337, 3020.390
353.0158, 3030.805
353.4979, 3038.279
353.9800, 3043.967
354.4622, 3051.979
354.9443, 3063.317
355.4264, 3075.722
355.9085, 3088.199
356.3906, 3100.536
356.8727, 3112.189
357.3549, 3121.996
357.8370, 3131.568
358.3191, 3143.646
358.8012, 3158.546
359.2833, 3173.195
359.7654, 3185.467
360.2476, 3196.690
360.7297, 3208.821
361.2118, 3222.208
361.6939, 3236.123
362.1760, 3249.871
362.6581, 3263.581
363.1403, 3278.041
363.6224, 3294.246
364.1045, 3310.271
364.5866, 3323.569
365.0687, 3334.034
365.5508, 3344.155
366.0330, 3353.010
366.5151, 3362.574
366.9972, 3377.285
367.4793, 3398.453
367.9614, 3420.952
368.4435, 3440.118
368.9257, 3456.476
369.4078, 3473.381
369.8899, 3492.161
370.3720, 3510.929
370.8541, 3528.220
371.3362, 3544.112
371.8184, 3558.621
372.3005, 3571.271
372.7826, 3582.944
373.2647, 3596.494
373.7468, 3613.404
374.2289, 3629.889
374.7111, 3644.065
375.1932, 3656.870
375.6753, 3670.241
376.1574, 3684.747
376.6395, 3700.000
377.1216, 3715.341
377.6038, 3730.543
378.0859, 3746.584
378.5680, 3765.050
379.0501, 3783.458
379.5322, 3798.449
380.0143, 3810.103
380.4965, 3822.563
380.9786, 3839.830
381.4607, 3862.140
381.9428, 3881.668
382.4249, 3897.638
382.9070, 3912.115
383.3892, 3925.229
383.8713, 3937.529
384.3534, 3949.817
384.8355, 3962.469
385.3176, 3975.384
385.7997, 3988.183
386.2819, 4001.049
386.7640, 4013.545
387.2461, 4024.926
387.7282, 4036.259
388.2103, 4049.096
388.6924, 4063.532
389.1746, 4077.857
389.6567, 4090.082
390.1388, 4100.100
390.6209, 4108.211
391.1030, 4112.190
391.5851, 4116.650
392.0673, 4123.733
392.5494, 4133.014
393.0315, 4143.182
393.5136, 4153.479
393.9957, 4163.736
394.4778, 4172.855
394.9600, 4180.053
395.4421, 4187.147
395.9242, 4194.248
396.4063, 4201.457
396.8884, 4208.928
397.3705, 4216.705
397.8527, 4224.710
398.3348, 4232.933
398.8169, 4241.733
399.2990, 4249.642
399.7811, 4255.212
400.2632, 4261.100
400.7454, 4268.822
401.2275, 4278.100
401.7096, 4287.626
402.1917, 4296.254
402.6738, 4304.217
403.1559, 4313.207
403.6381, 4324.217
404.1202, 4334.422
404.6023, 4340.316
405.0844, 4345.700
405.5665, 4356.093
406.0486, 4374.297
406.5308, 4394.685
407.0129, 4409.516
407.4950, 4418.355
407.9771, 4427.897
408.4592, 4439.778
408.9413, 4453.204
409.4235, 4467.541
409.9056, 4482.781
410.3877, 4498.303
410.8698, 4513.473
411.3519, 4528.797
411.8340, 4546.180
412.3162, 4566.553
412.7983, 4586.466
413.2804, 4602.298
413.7625, 4615.938
414.2446, 4631.421
414.7267, 4649.616
415.2089, 4669.688
415.6910, 4692.027
416.1731, 4716.039
416.6552, 4738.266
417.1373, 4756.702
417.6194, 4773.536
418.1016, 4792.925
418.5837, 4815.101
419.0658, 4837.686
419.5479, 4859.962
420.0300, 4882.363
420.5121, 4905.608
420.9943, 4929.792
421.4764, 4953.608
421.9585, 4975.788
422.4406, 4996.173
422.9227, 5017.027
423.4048, 5039.717
423.8870, 5061.323
424.3691, 5079.428
424.8512, 5095.423
425.3333, 5112.160
425.8154, 5130.967
426.2975, 5151.177
426.7797, 5171.640
427.2618, 5193.458
427.7439, 5213.561
428.2260, 5233.288
428.7081, 5250.404
429.1902, 5261.541
429.6724, 5267.600
430.1545, 5274.330
430.6366, 5287.879
431.1187, 5308.477
431.6008, 5323.802
432.0829, 5330.445
432.5651, 5335.123
433.0472, 5338.813
433.5293, 5341.513
434.0114, 5343.399
434.4935, 5344.578
434.9756, 5344.079
435.4578, 5339.444
435.9399, 5329.026
436.4220, 5319.856
436.9041, 5316.118
437.3862, 5311.167
437.8683, 5301.005
438.3505, 5285.871
438.8326, 5268.696
439.3147, 5251.365
439.7968, 5233.761
440.2789, 5215.167
440.7610, 5195.530
441.2432, 5175.058
441.7253, 5154.205
442.2074, 5132.580
442.6895, 5109.680
443.1716, 5085.698
443.6537, 5059.644
444.1359, 5029.987
444.6180, 4997.168
445.1001, 4962.950
445.5822, 4927.030
446.0643, 4891.047
446.5464, 4857.489
447.0286, 4826.127
447.5107, 4793.943
447.9928, 4761.891
448.4749, 4727.509
448.9570, 4686.241
449.4391, 4638.521
449.9213, 4592.291
450.4034, 4552.479
450.8855, 4517.579
451.3676, 4482.293
451.8497, 4445.889
452.3318, 4410.280
452.8140, 4377.078
453.2961, 4344.317
453.7782, 4309.268
454.2603, 4271.305
454.7424, 4232.850
455.2245, 4196.412
455.7067, 4162.230
456.1888, 4128.826
456.6709, 4095.533
457.1530, 4063.522
457.6351, 4033.959
458.1172, 4005.850
458.5994, 3976.831
459.0815, 3945.565
459.5636, 3913.517
460.0457, 3884.531
460.5278, 3860.901
461.0099, 3835.772
461.4921, 3806.557
461.9742, 3777.277
462.4563, 3750.913
462.9384, 3727.249
463.4205, 3703.660
463.9026, 3678.055
464.3848, 3650.638
464.8669, 3623.508
465.3490, 3595.727
465.8311, 3570.157
466.3132, 3548.634
466.7953, 3529.412
467.2775, 3510.572
467.7596, 3491.673
468.2417, 3473.218
468.7238, 3456.277
469.2059, 3440.449
469.6880, 3423.863
470.1702, 3406.121
470.6523, 3387.591
471.1344, 3367.910
471.6165, 3347.486
472.0986, 3328.739
472.5807, 3312.934
473.0629, 3298.473
473.5450, 3284.359
474.0271, 3270.446
474.5092, 3255.746
474.9913, 3239.636
475.4734, 3222.825
475.9556, 3207.083
476.4377, 3192.535
476.9198, 3178.502
477.4019, 3165.190
477.8840, 3152.215
478.3661, 3139.078
478.8483, 3125.805
479.3304, 3113.235
479.8125, 3101.949
480.2946, 3091.948
480.7767, 3082.134
481.2589, 3072.190
481.7410, 3062.846
482.2231, 3054.573
482.7052, 3046.768
483.1873, 3038.908
483.6694, 3030.749
484.1516, 3022.164
484.6337, 3012.668
485.1158, 3001.828
485.5979, 2992.406
486.0800, 2984.850
486.5621, 2978.377
487.0443, 2974.217
487.5264, 2970.664
488.0085, 2964.193
488.4906, 2952.194
488.9727, 2939.146
489.4548, 2933.077
489.9370, 2934.578
490.4191, 2934.229
490.9012, 2928.599
491.3833, 2921.203
491.8654, 2915.427
492.3475, 2911.217
492.8297, 2907.331
493.3118, 2902.967
493.7939, 2898.843
494.2760, 2895.899
494.7581, 2894.149
495.2402, 2893.260
495.7224, 2893.251
496.2045, 2893.829
496.6866, 2894.123
497.1687, 2894.110
497.6508, 2893.927
498.1329, 2893.525
498.6151, 2893.008
499.0972, 2892.414
499.5793, 2891.783
500.0614, 2891.317
500.5435, 2891.266
501.0256, 2891.612
501.5078, 2891.417
501.9899, 2889.371
502.4720, 2888.335
502.9541, 2888.467
503.4362, 2890.075
503.9183, 2894.474
504.4004, 2901.716
504.8825, 2908.667
505.3647, 2910.229
505.8468, 2905.228
506.3289, 2904.061
506.8110, 2909.231
507.2931, 2915.512
507.7752, 2920.519
508.2574, 2925.070
508.7395, 2930.819
509.2216, 2938.913
509.7037, 2947.222
510.1858, 2953.005
510.6679, 2956.368
511.1501, 2959.074
511.6322, 2960.782
512.1143, 2963.105
512.5964, 2968.275
513.0786, 2975.867
513.5607, 2983.078
514.0428, 2988.378
514.5249, 2993.560
515.0070, 3000.226
515.4891, 3008.224
515.9713, 3016.819
516.4534, 3025.966
516.9355, 3034.802
517.4176, 3041.291
517.8997, 3044.015
518.3818, 3047.140
518.8640, 3049.901
519.3461, 3053.808
519.8282, 3060.731
520.3103, 3069.965
520.7924, 3079.015
521.2745, 3086.151
521.7567, 3091.786
522.2388, 3097.332
522.7209, 3102.038
523.2030, 3108.133
523.6851, 3118.089
524.1672, 3127.767
524.6494, 3133.527
525.1315, 3135.500
525.6136, 3137.128
526.0957, 3141.071
526.5778, 3146.828
527.0599, 3153.154
527.5421, 3160.686
528.0242, 3166.423
528.5063, 3167.702
528.9884, 3167.019
529.4705, 3167.729
529.9526, 3170.325
530.4348, 3173.159
530.9169, 3175.806
531.3990, 3177.977
531.8811, 3178.977
532.3632, 3178.726
532.8453, 3178.169
533.3275, 3178.014
533.8096, 3178.179
534.2917, 3178.062
534.7738, 3178.481
535.2559, 3177.636
535.7380, 3174.856
536.2202, 3170.739
536.7023, 3165.108
537.1844, 3158.405
537.6665, 3152.859
538.1486, 3151.505
538.6307, 3154.423
539.1129, 3152.981
539.5950, 3143.669
540.0771, 3134.416
540.5592, 3127.148
541.0413, 3120.963
541.5234, 3114.822
542.0056, 3108.462
542.4877, 3102.258
542.9698, 3097.498
543.4519, 3093.665
543.9340, 3086.436
544.4161, 3074.157
544.8983, 3061.733
545.3804, 3052.289
545.8625, 3044.917
546.3446, 3038.284
546.8267, 3033.452
547.3088, 3027.102
547.7910, 3015.867
548.2731, 3002.040
548.7552, 2990.024
549.2373, 2980.849
549.7194, 2972.854
550.2015, 2964.815
550.6837, 2956.826
551.1658, 2946.361
551.6479, 2931.394
552.1300, 2916.901
552.6121, 2903.526
553.0942, 2891.595
553.5764, 2882.044
554.0585, 2874.819
554.5406, 2867.694
555.0227, 2857.965
555.5048, 2845.443
555.9869, 2832.508
556.4691, 2818.600
556.9512, 2805.040
557.4333, 2791.716
557.9154, 2779.128
558.3975, 2768.668
558.8796, 2761.129
559.3618, 2752.667
559.8439, 2738.718
560.3260, 2720.846
560.8081, 2704.954
561.2902, 2691.938
561.7723, 2680.469
562.2545, 2670.274
562.7366, 2660.851
563.2187, 2649.739
563.7008, 2635.769
564.1829, 2621.633
564.6650, 2607.957
565.1472, 2594.961
565.6293, 2583.063
566.1114, 2572.302
566.5935, 2561.993
567.0756, 2551.569
567.5577, 2541.020
568.0399, 2529.638
568.5220, 2516.191
569.0041, 2503.367
569.4862, 2492.445
569.9683, 2481.841
570.4504, 2470.017
570.9326, 2456.583
571.4147, 2442.466
571.8968, 2427.871
572.3789, 2413.125
572.8610, 2400.005
573.3431, 2388.785
573.8253, 2378.639
574.3074, 2370.390
574.7895, 2362.438
575.2716, 2352.378
575.7537, 2339.715
576.2358, 2326.477
576.7180, 2312.527
577.2001, 2299.203
577.6822, 2289.088
578.1643, 2282.149
578.6464, 2275.280
579.1285, 2266.438
579.6107, 2255.906
580.0928, 2244.892
580.5749, 2232.299
581.0570, 2220.710
581.5391, 2210.859
582.0212, 2201.458
582.5034, 2191.428
582.9855, 2180.818
583.4676, 2170.542
583.9497, 2161.260
584.4318, 2152.678
584.9139, 2143.940
585.3961, 2134.956
585.8782, 2125.972
586.3602, 2117.365
586.8423, 2108.469
587.3245, 2098.379
587.8066, 2087.315
588.2887, 2077.226
588.7708, 2069.929
589.2529, 2063.383
589.7350, 2055.002
590.2172, 2045.079
590.6993, 2035.823
591.1814, 2028.297
591.6635, 2021.157
592.1456, 2012.222
592.6277, 2000.906
593.1099, 1989.773
593.5920, 1977.882
594.0741, 1967.138
594.5562, 1959.273
595.0383, 1953.120
595.5204, 1946.475
596.0026, 1938.425
596.4847, 1929.703
596.9668, 1921.031
597.4489, 1912.255
597.9310, 1905.079
598.4131, 1900.855
598.8953, 1896.532
599.3774, 1890.347
599.8595, 1883.106
600.3416, 1876.197
600.8237, 1870.126
601.3058, 1863.968
601.7880, 1857.072
602.2701, 1849.499
602.7522, 1840.574
603.2343, 1830.068
603.7164, 1821.616
604.1985, 1819.021
604.6807, 1821.216
605.1628, 1819.321
605.6449, 1810.419
606.1270, 1801.876
606.6091, 1795.084
607.0912, 1789.053
607.5734, 1783.043
608.0555, 1776.924
608.5376, 1770.851
609.0197, 1765.034
609.5018, 1759.353
609.9839, 1753.097
610.4661, 1745.918
610.9482, 1739.262
611.4303, 1733.733
611.9124, 1728.726
612.3945, 1723.876
612.8766, 1719.150
613.3588, 1714.394
613.8409, 1709.644
614.3230, 1704.749
614.8051, 1699.310
615.2872, 1693.505
615.7693, 1688.406
616.2515, 1684.532
616.7336, 1680.943
617.2157, 1676.278
617.6978, 1670.120
618.1799, 1664.624
618.6620, 1660.473
619.1442, 1656.148
619.6263, 1651.040
620.1084, 1645.416
620.5905, 1639.655
621.0726, 1633.877
621.5547, 1628.223
622.0369, 1622.713
622.5190, 1617.382
623.0011, 1613.079
623.4832, 1610.745
623.9653, 1607.309
624.4474, 1599.850
624.9296, 1591.069
625.4117, 1584.853
625.8938, 1582.149
626.3759, 1578.953
626.8580, 1572.809
627.3401, 1565.585
627.8223, 1559.563
628.3044, 1554.757
628.7865, 1549.993
629.2686, 1544.573
629.7507, 1538.857
630.2328, 1533.880
630.7150, 1530.353
631.1971, 1526.111
631.6792, 1520.240
632.1613, 1514.667
632.6434, 1510.745
633.1255, 1507.777
633.6077, 1504.129
634.0898, 1498.979
634.5719, 1493.517
635.0540, 1489.796
635.5361, 1487.472
636.0182, 1483.133
636.5004, 1475.481
636.9825, 1468.311
637.4646, 1464.806
637.9467, 1464.076
638.4288, 1462.338
638.9109, 1459.442
639.3931, 1455.708
639.8752, 1449.741
640.3573, 1443.869
640.8394, 1441.474
641.3215, 1442.156
641.8036, 1442.222
642.2858, 1438.943
642.7679, 1433.215
643.2500, 1428.101
643.7321, 1423.691
644.2142, 1419.692
644.6964, 1416.013
645.1785, 1412.816
645.6606, 1410.245
646.1427, 1408.241
646.6248, 1406.663
647.1069, 1405.823
647.5891, 1404.849
648.0712, 1402.672
648.5533, 1399.651
649.0354, 1397.066
649.5175, 1395.243
649.9996, 1393.134
650.4818, 1389.513
650.9639, 1384.540
651.4460, 1381.182
651.9281, 1381.046
652.4102, 1380.331
652.8923, 1378.198
653.3745, 1375.470
653.8566, 1372.797
654.3387, 1370.269
654.8208, 1367.769
655.3029, 1365.276
655.7850, 1362.674
656.2672, 1359.455
656.7493, 1355.519
657.2314, 1352.416
657.7135, 1351.373
658.1956, 1350.103
658.6777, 1345.554
659.1599, 1338.395
659.6420, 1332.157
660.1241, 1327.670
660.6062, 1323.866
661.0883, 1320.552
661.5704, 1317.456
662.0526, 1314.217
662.5347, 1310.741
663.0168, 1307.215
663.4989, 1303.848
663.9810, 1300.538
664.4631, 1296.536
664.9453, 1291.455
665.4274, 1286.495
665.9095, 1281.575
666.3916, 1277.101
666.8737, 1273.433
667.3558, 1270.536
667.8380, 1268.112
668.3201, 1266.456
668.8022, 1264.833
669.2843, 1262.831
669.7664, 1260.273
670.2485, 1256.420
670.7307, 1251.061
671.2128, 1245.005
671.6949, 1238.854
672.1770, 1232.651
672.6591, 1227.809
673.1412, 1225.204
673.6234, 1222.935
674.1055, 1221.661
674.5876, 1220.020
675.0697, 1216.357
675.5518, 1210.958
676.0339, 1205.912
676.5161, 1202.885
676.9982, 1200.792
677.4803, 1197.627
677.9624, 1193.443
678.4445, 1189.083
678.9266, 1184.520
679.4088, 1180.456
679.8909, 1177.850
680.3730, 1176.692
680.8551, 1174.693
681.3372, 1171.322
681.8193, 1167.764
682.3015, 1163.854
682.7836, 1160.217
683.2657, 1157.740
683.7478, 1156.335
684.2299, 1155.157
684.7120, 1153.742
685.1942, 1151.785
685.6763, 1147.989
686.1584, 1141.949
686.6405, 1136.815
687.1226, 1133.497
687.6047, 1131.064
688.0869, 1128.989
688.5690, 1127.154
689.0511, 1125.002
689.5332, 1122.502
690.0153, 1119.624
690.4974, 1115.991
690.9796, 1112.160
691.4617, 1108.711
691.9438, 1105.805
692.4259, 1103.566
692.9080, 1102.152
693.3901, 1101.318
693.8723, 1100.270
694.3544, 1099.236
694.8365, 1097.186
695.3186, 1092.824
695.8007, 1088.562
696.2828, 1085.878
696.7650, 1084.494
697.2471, 1083.716
697.7292, 1084.131
698.2113, 1083.744
698.6934, 1080.458
699.1755, 1075.820
699.6577, 1072.530
700.1398, 1070.839
700.6219, 1069.025
701.1040, 1065.743
701.5861, 1061.716
702.0682, 1059.510
702.5504, 1060.264
703.0325, 1060.276
703.5146, 1059.254
703.9967, 1057.469
704.4788, 1054.597
704.9609, 1051.116
705.4431, 1047.930
705.9252, 1045.341
706.4073, 1043.032
706.8894, 1040.577
707.3715, 1038.270
707.8536, 1036.825
708.3358, 1036.235
708.8179, 1035.626
709.3000, 1034.526
709.7821, 1032.931
710.2642, 1030.682
710.7463, 1026.684
711.2285, 1024.622
711.7106, 1026.895
712.1927, 1028.435
712.6748, 1026.675
713.1569, 1023.045
713.6390, 1019.615
714.1212, 1016.933
714.6033, 1015.006
715.0854, 1014.259
715.5675, 1014.129
716.0496, 1013.520
716.5317, 1012.395
717.0139, 1011.081
717.4960, 1009.694
717.9781, 1008.284
718.4602, 1006.845
718.9423, 1005.151
719.4244, 1004.385
719.9066, 1006.102
720.3887, 1006.849
720.8708, 1004.769
721.3529, 1001.594
721.8350, 999.6420
722.3171, 999.1964
722.7993, 998.1085
723.2814, 993.8389
723.7635, 988.3098
724.2456, 984.9294
724.7277, 983.5682
725.2098, 983.6434
725.6920, 985.3177
726.1741, 986.6531
726.6562, 985.0472
727.1383, 980.2977
727.6204, 977.6397
728.1025, 978.8864
728.5847, 979.8246
729.0668, 980.1310
729.5489, 979.5795
730.0310, 977.3649
730.5131, 973.9689
730.9952, 971.3359
731.4774, 970.7132
731.9595, 971.1686
732.4416, 971.6361
732.9237, 972.0802
733.4058, 972.3605
733.8879, 972.4583
734.3701, 972.2949
734.8522, 971.8118
735.3343, 971.0110
735.8164, 969.8995
736.2985, 967.7033
736.7806, 966.3314
737.2628, 966.4147
737.7449, 966.7455
738.2270, 966.6029
738.7091, 966.1254
739.1912, 965.7605
739.6733, 965.6965
740.1555, 965.6713
740.6376, 965.1248
741.1197, 964.4544
741.6018, 964.9220
742.0839, 966.5989
742.5660, 968.2044
743.0482, 969.0107
743.5303, 969.4413
744.0124, 970.3753
744.4945, 972.0734
744.9766, 973.4227
745.4587, 974.2187
745.9409, 974.9180
746.4230, 975.5006
746.9051, 976.1535
747.3872, 977.0181
747.8693, 978.1469
748.3514, 979.7189
748.8336, 982.8405
749.3157, 985.9239
749.7978, 986.1020
750.2799, 983.8968
750.7620, 981.8304
751.2441, 980.6809
751.7263, 980.0677
752.2084, 979.5596
752.6905, 979.1732
753.1726, 979.4352
753.6547, 981.5036
754.1368, 982.4330
754.6190, 980.8814
755.1011, 978.9639
755.5832, 978.0836
756.0653, 978.1613
756.5474, 978.6779
757.0295, 980.1063
757.5117, 980.5358
757.9938, 977.3480
758.4759, 972.2610
758.9580, 968.9241
759.4401, 967.6147
759.9222, 965.7388
760.4044, 961.5021
760.8865, 956.2204
761.3686, 953.5593
761.8507, 955.1602
762.3328, 954.3063
762.8149, 949.0272
763.2971, 943.6666
763.7792, 939.6561
764.2613, 936.7263
764.7434, 934.7507
765.2255, 933.8200
765.7076, 932.4830
766.1898, 929.2605
766.6719, 925.9897
767.1540, 925.0215
767.6361, 925.3983
768.1182, 924.3818
768.6003, 921.1689
769.0825, 917.4147
769.5646, 914.9916
770.0467, 913.6913
770.5288, 911.7496
771.0109, 908.7490
771.4930, 906.4266
771.9752, 905.3820
772.4573, 904.9738
772.9394, 904.8048
773.4215, 904.8154
773.9036, 904.7450
774.3857, 904.3432
774.8679, 904.1627
775.3500, 905.0740
775.8321, 905.8703
776.3142, 904.6752
776.7963, 902.0986
777.2784, 900.7315
777.7606, 902.0732
778.2427, 904.2667
778.7248, 903.9739
779.2069, 901.4130
779.6890, 900.0147
780.1711, 899.9837
780.6533, 901.2433
781.1354, 904.5872
781.6175, 908.4039
782.0996, 909.4537
782.5817, 906.7747
783.0638, 906.0302
783.5460, 909.0875
784.0281, 912.2377
784.5102, 914.1036
784.9923, 915.2078
785.4744, 915.9998
785.9565, 916.7106
786.4387, 917.7775
786.9208, 919.3745
787.4029, 921.6533
787.8850, 925.2851
788.3671, 929.9457
788.8492, 933.8073
789.3314, 936.4283
789.8135, 939.1002
790.2956, 942.6485
790.7777, 947.2272
791.2598, 953.6184
791.7419, 963.5048
792.2241, 971.9630
792.7062, 977.2386
793.1883, 982.9020
793.6704, 990.0521
794.1525, 998.8167
794.6346, 1009.788
795.1168, 1023.360
795.5989, 1036.068
796.0810, 1044.535
796.5631, 1051.999
797.0452, 1062.367
797.5273, 1074.950
798.0095, 1087.148
798.4916, 1098.155
798.9737, 1109.497
799.4558, 1122.911
799.9379, 1138.156
800.4200, 1153.204
800.9022, 1168.147
801.3843, 1182.304
801.8664, 1195.363
802.3485, 1207.780
802.8306, 1219.314
803.3127, 1230.452
803.7949, 1243.062
804.2770, 1258.093
804.7591, 1273.132
805.2412, 1287.451
805.7233, 1301.422
806.2054, 1315.897
806.6876, 1330.232
807.1697, 1343.189
807.6518, 1354.230
808.1339, 1363.764
808.6160, 1371.992
809.0981, 1379.101
809.5803, 1385.979
810.0624, 1392.659
810.5445, 1397.556
811.0266, 1400.020
811.5087, 1400.887
811.9908, 1401.625
812.4730, 1402.260
812.9551, 1397.777
813.4372, 1385.051
813.9193, 1371.400
814.4014, 1358.225
814.8835, 1343.846
815.3657, 1326.648
815.8478, 1307.263
816.3299, 1287.563
816.8120, 1268.166
817.2941, 1248.305
817.7762, 1227.479
818.2584, 1205.950
818.7405, 1183.585
819.2226, 1160.795
819.7047, 1138.617
820.1868, 1117.418
820.6689, 1097.937
821.1511, 1081.577
821.6332, 1068.138
822.1153, 1053.393
822.5974, 1036.488
823.0795, 1021.574
823.5616, 1010.618
824.0438, 1001.188
824.5259, 990.7701
825.0080, 979.5004
825.4901, 968.8459
825.9722, 958.1986
826.4543, 949.1272
826.9365, 942.1225
827.4186, 936.6292
827.9007, 933.2228
828.3828, 930.8383
828.8649, 927.1126
829.3470, 921.0213
829.8292, 914.5838
830.3113, 909.6083
830.7934, 905.7766
831.2755, 902.6650
831.7576, 900.1462
832.2397, 897.7043
832.7219, 895.1411
833.2040, 892.4554
833.6861, 889.5322
834.1682, 886.4322
834.6503, 884.6014
835.1324, 884.9822
835.6146, 884.4475
836.0967, 881.8033
836.5788, 878.7215
837.0609, 876.1854
837.5430, 874.1360
838.0251, 872.3973
838.5073, 871.0491
838.9894, 869.7602
839.4715, 868.6378
839.9536, 867.3365
840.4357, 865.3662
840.9178, 863.0589
841.4000, 861.0915
841.8821, 859.6646
842.3642, 858.4629
842.8463, 857.3080
843.3284, 856.0934
843.8105, 854.4634
844.2927, 852.4649
844.7748, 850.5157
845.2569, 848.7062
845.7390, 847.0707
846.2211, 845.6377
846.7032, 844.3909
847.1854, 843.3102
847.6675, 843.0262
848.1496, 841.4915
848.6317, 836.5424
849.1138, 832.6791
849.5959, 833.2281
850.0781, 835.4252
850.5602, 834.9254
851.0423, 830.9677
851.5244, 827.2750
852.0065, 825.6848
852.4886, 824.1910
852.9708, 821.4642
853.4529, 817.9356
853.9350, 814.0408
854.4171, 810.0499
854.8992, 806.5065
855.3813, 803.7831
855.8635, 801.7365
856.3456, 800.6405
856.8277, 800.1353
857.3098, 797.4887
857.7919, 792.2423
858.2740, 788.4085
858.7562, 788.5804
859.2383, 790.5096
859.7204, 789.9700
860.2025, 786.4017
860.6846, 783.5294
861.1667, 781.5170
861.6489, 779.9686
862.1310, 779.3268
862.6131, 778.6560
863.0952, 776.7765
863.5773, 774.0357
864.0594, 772.3362
864.5416, 772.9570
865.0237, 773.3455
865.5058, 772.3292
865.9879, 770.6074
866.4700, 768.2711
866.9521, 765.8896
867.4343, 764.8126
867.9164, 765.5392
868.3985, 766.5059
868.8806, 766.0392
869.3627, 764.5520
869.8448, 762.8405
870.3270, 760.9924
870.8091, 759.8514
871.2912, 759.7119
871.7733, 759.5614
872.2554, 758.4139
872.7375, 756.5175
873.2197, 755.0009
873.7018, 753.7024
874.1839, 753.3674
874.6660, 755.4860
875.1481, 756.6203
875.6302, 753.5060
876.1124, 748.9538
876.5945, 747.4177
877.0766, 749.6068
877.5587, 750.6398
878.0408, 748.2712
878.5229, 746.0463
879.0051, 745.9242
879.4872, 746.6190
879.9693, 746.7648
880.4514, 746.1776
880.9335, 745.1035
881.4156, 743.4633
881.8978, 742.0344
882.3799, 741.8850
882.8620, 742.4838
883.3441, 742.7722
883.8262, 742.6962
884.3083, 742.5629
884.7905, 742.5060
885.2726, 742.4159
885.7547, 742.1113
886.2368, 741.6355
886.7189, 741.5098
887.2010, 741.9035
887.6832, 741.7478
888.1653, 740.4578
888.6474, 739.2819
889.1295, 739.4248
889.6116, 740.4511
890.0938, 740.6536
890.5759, 739.4552
891.0580, 738.6266
891.5401, 737.8610
892.0222, 737.8719
892.5043, 739.5780
892.9865, 741.8815
893.4686, 743.5612
893.9507, 744.4451
894.4328, 744.8162
894.9149, 744.1574
895.3970, 743.7797
895.8792, 745.0100
896.3613, 746.8758
896.8434, 748.1611
897.3255, 748.7483
897.8076, 748.8796
898.2897, 748.6656
898.7719, 748.3730
899.2540, 748.2185
899.7361, 748.2757
900.2182, 749.0142
900.7003, 750.3928
901.1824, 751.4138
901.6646, 751.7721
902.1467, 751.7120
902.6288, 751.4053
903.1109, 750.9276
903.5930, 750.7489
904.0751, 751.2413
904.5573, 750.8938
905.0394, 748.9495
905.5215, 747.1367
906.0036, 746.4198
906.4857, 746.3195
906.9678, 746.3750
907.4500, 746.7027
907.9321, 745.8959
908.4142, 743.1183
908.8963, 740.0271
909.3784, 737.0701
909.8605, 734.1484
910.3427, 730.8184
910.8248, 727.4229
911.3069, 725.1248
911.7890, 724.6809
912.2711, 723.8447
912.7532, 720.2537
913.2354, 715.8058
913.7175, 712.9906
914.1996, 711.3182
914.6817, 708.9921
915.1638, 705.6041
915.6459, 702.4994
916.1280, 701.0013
916.6101, 700.2977
917.0922, 698.3021
917.5743, 695.1754
918.0565, 692.4439
918.5386, 690.3021
919.0207, 688.7317
919.5028, 687.8777
919.9849, 687.1635
920.4670, 685.6393
920.9492, 683.2696
921.4313, 680.2232
921.9134, 675.3636
922.3955, 672.3545
922.8776, 672.8173
923.3597, 674.5256
923.8419, 676.2260
924.3240, 677.7343
924.8061, 678.4591
925.2882, 678.3088
925.7703, 677.5203
926.2524, 676.3535
926.7346, 674.2838
927.2167, 669.1173
927.6988, 664.0485
928.1809, 663.8995
928.6630, 668.4752
929.1451, 671.8750
929.6273, 670.6682
930.1094, 668.5422
930.5915, 668.4030
931.0736, 668.7773
931.5557, 667.6436
932.0378, 665.2452
932.5200, 663.2644
933.0021, 662.2676
933.4842, 660.2352
933.9663, 653.9998
934.4484, 645.7372
934.9305, 640.4976
935.4127, 638.0411
935.8948, 637.5496
936.3769, 638.8012
936.8590, 639.9745
937.3411, 639.7943
937.8232, 638.8593
938.3054, 638.3994
938.7875, 638.4261
939.2696, 638.9127
939.7517, 640.0430
940.2338, 640.8634
940.7159, 640.7148
941.1981, 640.7650
941.6802, 642.4445
942.1623, 645.4630
942.6444, 647.5104
943.1265, 648.3707
943.6086, 648.6075
944.0908, 647.0313
944.5729, 646.2236
945.0550, 648.1160
945.5371, 650.9218
946.0192, 652.0530
946.5013, 651.3523
946.9835, 651.4061
947.4656, 653.6705
947.9477, 655.7712
948.4298, 656.6779
948.9119, 657.0688
949.3940, 657.3852
949.8762, 657.7590
950.3583, 658.3836
950.8404, 659.3336
951.3225, 660.0811
951.8046, 660.2513
952.2867, 660.0237
952.7689, 659.4272
953.2510, 658.6390
953.7331, 658.0152
954.2152, 657.5748
954.6973, 657.0787
955.1794, 656.3922
955.6616, 655.4846
956.1437, 654.0931
956.6258, 652.4587
957.1079, 651.6558
957.5900, 651.5901
958.0721, 650.8726
958.5543, 649.0510
959.0364, 647.1639
959.5185, 646.2065
960.0006, 645.8616
960.4827, 645.0051
960.9648, 643.5625
961.4470, 642.2459
961.9291, 641.0206
962.4112, 640.2693
962.8933, 640.2455
963.3754, 640.6857
963.8575, 641.4733
964.3397, 642.5817
964.8218, 642.2792
965.3039, 639.4530
965.7860, 637.2550
966.2681, 636.0967
966.7502, 635.5287
967.2324, 635.8458
967.7145, 636.3586
968.1966, 635.7858
968.6787, 633.9058
969.1608, 632.6080
969.6429, 632.2774
970.1251, 632.3873
970.6072, 633.1854
971.0893, 633.9933
971.5714, 634.1281
972.0535, 633.8460
972.5356, 633.8818
973.0178, 634.4760
973.4999, 634.9987
973.9820, 635.1913
974.4641, 635.1436
974.9462, 634.8885
975.4283, 634.4547
975.9105, 633.7014
976.3926, 632.7834
976.8747, 632.2791
977.3568, 632.5392
977.8389, 632.9323
978.3210, 633.0258
978.8032, 632.7475
979.2853, 631.7222
979.7674, 630.2558
980.2495, 629.1866
980.7316, 628.7081
981.2137, 628.4402
981.6959, 628.0162
982.1780, 627.9560
982.6601, 629.9670
983.1422, 633.1906
983.6243, 633.4199
984.1064, 630.7047
984.5886, 629.0680
985.0707, 630.0023
985.5528, 631.6836
986.0349, 632.3342
986.5170, 632.1071
986.9991, 631.2885
987.4813, 629.7704
987.9634, 629.5535
988.4455, 631.0895
988.9276, 632.4717
989.4097, 632.7538
989.8918, 632.6959
990.3740, 633.4714
990.8561, 634.9721
991.3382, 634.8364
991.8203, 631.9857
992.3024, 630.4015
992.7845, 630.8027
993.2667, 632.1199
993.7488, 634.4635
994.2309, 636.8889
994.7130, 637.6397
995.1951, 636.4618
995.6772, 635.8997
996.1594, 636.5299
996.6415, 636.9310
997.1236, 636.6860
997.6057, 636.3942
998.0878, 636.4984
998.5699, 636.7743
999.0521, 636.7515
999.5342, 636.3309
1000.016, 636.0844
1000.498, 635.9473
1000.981, 636.2319
1001.463, 637.5815
1001.945, 638.9438
1002.427, 639.2294
1002.909, 638.8516
1003.391, 639.0098
1003.873, 640.0887
1004.355, 640.8506
1004.837, 640.4340
1005.320, 639.8813
1005.802, 639.8646
1006.284, 640.0969
1006.766, 640.2241
1007.248, 640.2454
1007.730, 640.4152
1008.212, 640.8840
1008.694, 640.9930
1009.177, 639.5807
1009.659, 638.1689
1010.141, 638.6874
1010.623, 640.2045
1011.105, 641.0854
1011.587, 641.1379
1012.069, 640.8840
1012.551, 640.5375
1013.033, 640.4996
1013.516, 641.5657
1013.998, 643.0117
1014.480, 643.4265
1014.962, 643.1703
1015.444, 643.3871
1015.926, 644.2628
1016.408, 645.3020
1016.890, 646.2457
1017.372, 646.7548
1017.855, 645.9427
1018.337, 644.3585
1018.819, 643.8659
1019.301, 644.3264
1019.783, 644.4212
1020.265, 643.8654
1020.747, 643.8152
1021.229, 645.2516
1021.712, 647.1865
1022.194, 647.3496
1022.676, 646.0416
1023.158, 646.0099
1023.640, 647.3132
1024.122, 648.0619
1024.604, 647.6534
1025.086, 647.4622
1025.568, 648.7608
1026.051, 650.7635
1026.533, 651.3331
1027.015, 650.3959
1027.497, 649.4706
1027.979, 648.5253
1028.461, 648.0488
1028.943, 648.2813
1029.425, 648.6545
1029.908, 648.6020
1030.390, 648.3735
1030.872, 648.8864
1031.354, 650.3882
1031.836, 651.3524
1032.318, 651.6114
1032.800, 651.8545
1033.282, 652.3965
1033.765, 652.7601
1034.247, 652.3091
1034.729, 651.4095
1035.211, 651.5375
1035.693, 653.0317
1036.175, 654.5742
1036.657, 656.3878
1037.139, 657.7780
1037.621, 658.3787
1038.104, 658.6553
1038.586, 659.0543
1039.068, 659.4864
1039.550, 659.5087
1040.032, 658.4990
1040.514, 658.6130
1040.996, 660.8254
1041.478, 662.7363
1041.960, 663.8591
1042.443, 664.2079
1042.925, 663.3134
1043.407, 661.6004
1043.889, 660.9011
1044.371, 661.7911
1044.853, 662.3909
1045.335, 662.3506
1045.817, 662.4261
1046.300, 662.8939
1046.782, 663.5302
1047.264, 664.2283
1047.746, 664.9283
1048.228, 665.4105
1048.710, 665.4734
1049.192, 665.8141
1049.674, 666.5692
1050.156, 667.5320
1050.639, 668.9139
1051.121, 670.2365
1051.603, 671.0497
1052.085, 671.4451
1052.567, 671.7970
1053.049, 672.2309
1053.531, 672.3677
1054.013, 671.4877
1054.495, 671.1173
1054.978, 672.4681
1055.460, 674.0936
1055.942, 674.4957
1056.424, 674.0712
1056.906, 674.1738
1057.388, 675.1205
1057.870, 676.2499
1058.352, 677.7153
1058.835, 678.9138
1059.317, 679.3536
1059.799, 679.5943
1060.281, 680.1037
1060.763, 680.8576
1061.245, 681.7284
1061.727, 682.7230
1062.209, 683.5457
1062.692, 683.9224
1063.174, 684.3184
1063.656, 684.9559
1064.138, 685.7025
1064.620, 686.5021
1065.102, 687.2865
1065.584, 687.7650
1066.066, 687.8177
1066.548, 688.6443
1067.031, 692.1234
1067.513, 694.6884
1067.995, 693.1974
1068.477, 691.2990
1068.959, 692.4308
1069.441, 695.6932
1069.923, 698.8860
1070.405, 701.5299
1070.887, 703.8360
1071.370, 705.4443
1071.852, 707.2856
1072.334, 710.6436
1072.816, 713.6555
1073.298, 713.6199
1073.780, 712.4453
1074.262, 714.0388
1074.744, 718.9113
1075.227, 723.4586
1075.709, 725.8984
1076.191, 727.9871
1076.673, 730.7319
1077.155, 733.2897
1077.637, 734.4312
1078.119, 735.1740
1078.601, 737.3594
1079.083, 741.0993
1079.566, 744.7183
1080.048, 747.4700
1080.530, 750.1815
1081.012, 753.0890
1081.494, 756.2986
1081.976, 760.0501
1082.458, 764.0606
1082.940, 768.1423
1083.422, 772.0987
1083.905, 775.0417
1084.387, 775.8552
1084.869, 777.7889
1085.351, 783.5663
1085.833, 789.6559
1086.315, 793.7294
1086.797, 796.6477
1087.279, 799.3607
1087.761, 802.0818
1088.244, 804.7928
1088.726, 807.2138
1089.208, 810.7296
1089.690, 817.0975
1090.172, 823.3892
1090.654, 827.5720
1091.136, 831.0182
1091.618, 835.0834
1092.101, 839.8049
1092.583, 844.9492
1093.065, 850.5532
1093.547, 855.6062
1094.029, 859.4986
1094.511, 862.9902
1094.993, 866.4466
1095.475, 869.6131
1095.958, 871.5876
1096.440, 873.2938
1096.922, 876.9072
1097.404, 882.8602
1097.886, 888.2392
1098.368, 891.9150
1098.850, 895.0524
1099.332, 897.4091
1099.814, 900.0648
1100.297, 903.9008
1100.779, 908.5206
1101.261, 913.2917
1101.743, 918.1645
1102.225, 923.2941
1102.707, 929.6066
1103.189, 934.8558
1103.671, 937.5104
1104.153, 940.0800
1104.636, 944.1326
1105.118, 948.7897
1105.600, 952.9948
1106.082, 956.6880
1106.564, 960.1071
1107.046, 962.7853
1107.528, 966.2874
1108.010, 972.3492
1108.493, 977.4291
1108.975, 978.7598
1109.457, 979.6026
1109.939, 983.2719
1110.421, 989.0120
1110.903, 994.2318
1111.385, 998.8452
1111.867, 1002.464
1112.349, 1004.346
1112.832, 1006.233
1113.314, 1008.517
1113.796, 1011.010
1114.278, 1012.903
1114.760, 1015.155
1115.242, 1020.187
1115.724, 1028.687
1116.206, 1035.014
1116.688, 1038.086
1117.171, 1040.736
1117.653, 1043.174
1118.135, 1045.319
1118.617, 1046.661
1119.099, 1048.065
1119.581, 1050.918
1120.063, 1055.077
1120.545, 1058.302
1121.028, 1060.169
1121.510, 1062.097
1121.992, 1064.495
1122.474, 1066.173
1122.956, 1066.303
1123.438, 1066.152
1123.920, 1066.866
1124.402, 1068.346
1124.885, 1070.356
1125.367, 1073.345
1125.849, 1074.958
1126.331, 1075.050
1126.813, 1074.111
1127.295, 1071.891
1127.777, 1069.709
1128.259, 1068.371
1128.741, 1067.980
1129.224, 1069.103
1129.706, 1071.677
1130.188, 1071.673
1130.670, 1068.691
1131.152, 1066.413
1131.634, 1065.477
1132.116, 1064.512
1132.598, 1062.753
1133.080, 1061.166
1133.563, 1061.204
1134.045, 1062.108
1134.527, 1060.226
1135.009, 1055.780
1135.491, 1054.007
1135.973, 1055.219
1136.455, 1055.991
1136.937, 1055.187
1137.420, 1053.616
1137.902, 1051.889
1138.384, 1050.113
1138.866, 1048.155
1139.348, 1046.360
1139.830, 1046.819
1140.312, 1048.875
1140.794, 1048.717
1141.276, 1045.899
1141.759, 1043.256
1142.241, 1042.336
1142.723, 1042.347
1143.205, 1042.791
1143.687, 1043.184
1144.169, 1042.062
1144.651, 1040.371
1145.133, 1040.662
1145.615, 1042.517
1146.098, 1043.320
1146.580, 1042.338
1147.062, 1041.658
1147.544, 1043.189
1148.026, 1044.916
1148.508, 1043.621
1148.990, 1042.124
1149.472, 1044.920
1149.955, 1049.960
1150.437, 1052.851
1150.919, 1053.310
1151.401, 1054.189
1151.883, 1056.793
1152.365, 1059.639
1152.847, 1061.691
1153.329, 1063.738
1153.812, 1066.466
1154.294, 1069.395
1154.776, 1071.724
1155.258, 1073.856
1155.740, 1077.183
1156.222, 1082.026
1156.704, 1085.603
1157.186, 1085.260
1157.668, 1085.917
1158.151, 1089.914
1158.633, 1094.695
1159.115, 1098.719
1159.597, 1102.507
1160.079, 1107.506
1160.561, 1113.302
1161.043, 1116.453
1161.525, 1114.020
1162.007, 1114.354
1162.490, 1119.977
1162.972, 1125.671
1163.454, 1129.303
1163.936, 1133.350
1164.418, 1140.330
1164.900, 1148.674
1165.382, 1154.978
1165.864, 1159.076
1166.347, 1162.656
1166.829, 1165.066
1167.311, 1169.093
1167.793, 1175.761
1168.275, 1182.175
1168.757, 1186.821
1169.239, 1191.081
1169.721, 1196.670
1170.203, 1203.160
1170.686, 1208.463
1171.168, 1212.535
1171.650, 1217.476
1172.132, 1223.394
1172.614, 1229.347
1173.096, 1235.085
1173.578, 1241.198
1174.060, 1248.204
1174.542, 1254.885
1175.025, 1258.891
1175.507, 1261.276
1175.989, 1265.514
1176.471, 1271.336
1176.953, 1278.323
1177.435, 1285.984
1177.917, 1291.891
1178.399, 1295.409
1178.882, 1299.668
1179.364, 1307.649
1179.846, 1316.531
1180.328, 1322.949
1180.810, 1328.087
1181.292, 1333.228
1181.774, 1338.589
1182.256, 1344.615
1182.739, 1350.979
1183.221, 1356.231
1183.703, 1359.625
1184.185, 1363.279
1184.667, 1369.124
1185.149, 1374.814
1185.631, 1378.451
1186.113, 1381.622
1186.595, 1385.709
1187.078, 1390.473
1187.560, 1395.118
1188.042, 1399.615
1188.524, 1405.082
1189.006, 1412.944
1189.488, 1419.700
1189.970, 1423.822
1190.452, 1427.956
1190.934, 1433.750
1191.417, 1439.469
1191.899, 1443.151
1192.381, 1445.807
1192.863, 1450.252
##END=



