##NAMES=Wolfeite
##RRUFFID=R050614
##IDEAL CHEMISTRY=Fe^2+^_2_PO_4_(OH)
##LOCALITY=Hagendorf, Bavaria
##OWNER=RRUFF
##SOURCE=University of Arizona Mineral Museum
##DESCRIPTION=Reddish-brown elongated prismatic crystals
##STATUS=The identification of this mineral has been confirmed by X-ray diffraction and chemical analysis
##URL=rruff.info/R050614
##MEASURED CHEMISTRY=(Fe^2+^_1.49_Mn^2+^_0.49_Mg_0.02_)_Î£=2_(P_1.00_O_4_)(OH)
91.11523, 9.255781
91.59735, 9.420987
92.07947, 9.275077
92.56158, 8.914233
93.04370, 8.641298
93.52582, 8.718089
94.00793, 8.998062
94.49006, 9.149655
94.97218, 9.110020
95.45429, 9.001431
95.93641, 9.056672
96.41853, 9.270336
96.90064, 9.420843
97.38276, 9.249025
97.86488, 8.799123
98.34699, 8.589685
98.82911, 8.786938
99.31123, 9.236335
99.79334, 9.402943
100.2755, 9.232692
100.7576, 8.961843
101.2397, 8.770554
101.7218, 8.649002
102.2039, 8.660526
102.6861, 8.888310
103.1682, 9.329655
103.6503, 9.498635
104.1324, 9.283463
104.6145, 8.921505
105.0966, 8.690358
105.5788, 8.635392
106.0609, 8.638699
106.5430, 8.690950
107.0251, 8.830779
107.5072, 8.874026
107.9893, 8.676684
108.4715, 8.418703
108.9536, 8.422670
109.4357, 8.922611
109.9178, 9.476520
110.3999, 9.949267
110.8820, 10.24891
111.3642, 10.61199
111.8463, 11.00830
112.3284, 11.47008
112.8105, 12.08598
113.2926, 12.85817
113.7747, 13.80365
114.2569, 14.92594
114.7390, 16.35088
115.2211, 17.81695
115.7032, 19.21484
116.1853, 20.57739
116.6674, 22.06457
117.1496, 23.66902
117.6317, 25.47091
118.1138, 27.51894
118.5959, 29.86665
119.0780, 32.44859
119.5602, 35.12346
120.0423, 37.93196
120.5244, 41.20732
121.0065, 45.24199
121.4886, 49.83786
121.9707, 54.75512
122.4529, 60.30513
122.9350, 65.83804
123.4171, 70.83070
123.8992, 75.25581
124.3813, 79.20475
124.8634, 82.67451
125.3456, 85.71763
125.8277, 88.46482
126.3098, 90.79900
126.7919, 92.90572
127.2740, 94.92068
127.7561, 96.76629
128.2383, 98.88112
128.7204, 101.8948
129.2025, 105.7002
129.6846, 109.7341
130.1667, 113.6164
130.6488, 117.4197
131.1310, 121.6297
131.6131, 126.3497
132.0952, 131.4058
132.5773, 136.4201
133.0594, 141.4096
133.5416, 146.6933
134.0237, 152.6853
134.5058, 159.3672
134.9879, 166.0385
135.4700, 172.8163
135.9521, 179.4240
136.4343, 185.1534
136.9164, 189.9403
137.3985, 194.1718
137.8806, 198.2604
138.3627, 202.2903
138.8448, 205.7494
139.3270, 208.5229
139.8091, 210.6692
140.2912, 212.6699
140.7733, 214.6392
141.2554, 216.2944
141.7375, 217.2459
142.2197, 217.2527
142.7018, 217.2065
143.1839, 217.1985
143.6660, 217.1941
144.1481, 217.6792
144.6303, 218.4858
145.1124, 219.9248
145.5945, 222.4026
146.0766, 226.3550
146.5587, 230.7270
147.0408, 235.1852
147.5230, 239.5152
148.0051, 244.6245
148.4872, 249.5551
148.9693, 253.6933
149.4514, 258.1689
149.9335, 263.6537
150.4157, 268.8232
150.8978, 273.2623
151.3799, 277.0470
151.8620, 280.1988
152.3441, 282.6261
152.8262, 284.4868
153.3084, 286.0033
153.7905, 289.1360
154.2726, 290.3765
154.7547, 288.2975
155.2368, 280.8285
155.7189, 273.4806
156.2011, 266.8315
156.6832, 260.6954
157.1653, 254.8143
157.6474, 248.9963
158.1295, 243.4845
158.6117, 238.3534
159.0938, 233.1530
159.5759, 228.9331
160.0580, 226.3884
160.5401, 225.1214
161.0222, 223.7981
161.5044, 221.1694
161.9865, 218.7883
162.4686, 217.7671
162.9507, 219.9137
163.4328, 221.7128
163.9149, 221.5108
164.3971, 219.6545
164.8792, 217.8379
165.3613, 216.8489
165.8434, 216.2591
166.3255, 215.6780
166.8076, 215.0693
167.2898, 214.3725
167.7719, 213.4935
168.2540, 212.4557
168.7361, 211.4553
169.2182, 210.5671
169.7004, 209.7924
170.1825, 209.1324
170.6646, 208.3534
171.1467, 207.8424
171.6288, 208.0597
172.1109, 208.9756
172.5931, 209.9150
173.0752, 210.3727
173.5573, 210.5300
174.0394, 210.6824
174.5215, 210.8600
175.0036, 211.1313
175.4858, 211.6721
175.9679, 212.4962
176.4500, 213.2093
176.9321, 213.5547
177.4142, 213.5477
177.8963, 213.2222
178.3785, 212.2521
178.8606, 211.0768
179.3427, 210.4615
179.8248, 210.4438
180.3069, 210.5969
180.7891, 210.4905
181.2712, 210.1929
181.7533, 209.9209
182.2354, 209.7809
182.7175, 209.7360
183.1996, 209.7222
183.6818, 209.7407
184.1639, 209.7644
184.6460, 209.8010
185.1281, 209.8328
185.6102, 209.7670
186.0923, 209.4610
186.5745, 209.0119
187.0566, 208.7481
187.5387, 208.6978
188.0208, 208.7732
188.5029, 208.8294
188.9850, 208.8797
189.4672, 209.0619
189.9493, 209.5234
190.4314, 210.2041
190.9135, 210.7446
191.3956, 211.0497
191.8778, 211.4095
192.3599, 212.3200
192.8420, 213.7800
193.3241, 215.4506
193.8062, 217.1598
194.2883, 218.9275
194.7705, 220.8533
195.2526, 222.9807
195.7347, 225.1833
196.2168, 227.3766
196.6989, 229.5950
197.1810, 231.3457
197.6632, 231.9480
198.1453, 231.4105
198.6274, 232.1100
199.1095, 234.6228
199.5916, 237.8004
200.0737, 239.1343
200.5559, 238.4371
201.0380, 237.2129
201.5201, 236.1399
202.0022, 235.2041
202.4843, 234.5912
202.9665, 234.4344
203.4486, 234.4891
203.9307, 234.2208
204.4128, 233.6309
204.8949, 232.7464
205.3770, 231.5476
205.8592, 230.0084
206.3413, 228.2807
206.8234, 226.2176
207.3055, 224.0784
207.7876, 222.5992
208.2697, 221.9514
208.7519, 221.4623
209.2340, 220.7685
209.7161, 219.8187
210.1982, 218.9339
210.6803, 218.2166
211.1624, 217.5255
211.6446, 216.3889
212.1267, 214.6144
212.6088, 212.8961
213.0909, 211.5921
213.5730, 210.7740
214.0551, 210.1394
214.5373, 209.7888
215.0194, 209.5710
215.5015, 209.0136
215.9836, 208.0033
216.4657, 206.8825
216.9479, 205.8360
217.4300, 204.9580
217.9121, 203.8189
218.3942, 202.3133
218.8763, 200.5685
219.3584, 199.0155
219.8406, 197.8416
220.3227, 196.5194
220.8048, 194.6952
221.2869, 192.0211
221.7690, 189.8122
222.2511, 188.2475
222.7333, 187.1419
223.2154, 186.0434
223.6975, 185.0262
224.1796, 183.8765
224.6617, 182.4407
225.1438, 180.5336
225.6260, 178.8475
226.1081, 177.4080
226.5902, 176.2076
227.0723, 175.2428
227.5544, 174.4238
228.0366, 173.9718
228.5187, 174.2023
229.0008, 175.9934
229.4829, 176.2220
229.9650, 174.1504
230.4471, 170.6846
230.9293, 168.2160
231.4114, 167.0630
231.8935, 166.3671
232.3756, 165.7905
232.8577, 165.3586
233.3398, 164.9495
233.8220, 164.5467
234.3041, 164.1677
234.7862, 163.8859
235.2683, 163.8069
235.7504, 163.6666
236.2325, 163.3504
236.7147, 162.8191
237.1968, 162.2133
237.6789, 161.3890
238.1610, 160.5554
238.6431, 160.1883
239.1253, 160.4702
239.6074, 160.9455
240.0895, 161.5242
240.5716, 162.4125
241.0537, 162.7215
241.5358, 161.9156
242.0180, 160.7872
242.5001, 161.1130
242.9822, 164.2832
243.4643, 166.6264
243.9464, 166.4976
244.4285, 162.6571
244.9107, 160.4748
245.3928, 160.5910
245.8749, 161.9553
246.3570, 162.7366
246.8391, 162.5845
247.3212, 162.4435
247.8034, 162.6381
248.2855, 163.2680
248.7676, 163.8283
249.2497, 164.3354
249.7318, 164.7697
250.2140, 165.0901
250.6961, 165.2460
251.1782, 165.3892
251.6603, 165.5667
252.1424, 165.7888
252.6245, 166.0072
253.1067, 166.2340
253.5888, 166.4522
254.0709, 166.6492
254.5530, 166.8476
255.0351, 166.9729
255.5172, 166.9526
255.9994, 166.7513
256.4815, 166.7645
256.9636, 166.9933
257.4457, 167.4318
257.9278, 168.1245
258.4099, 169.2269
258.8921, 170.2312
259.3742, 171.0343
259.8563, 171.6287
260.3384, 172.0872
260.8205, 172.3273
261.3026, 172.5358
261.7848, 172.9150
262.2669, 173.5245
262.7490, 174.1221
263.2311, 174.5987
263.7132, 174.9790
264.1953, 175.6433
264.6775, 176.6253
265.1596, 177.8304
265.6417, 179.3172
266.1238, 181.3309
266.6059, 182.6930
267.0880, 182.8642
267.5702, 182.1356
268.0523, 182.6120
268.5344, 184.7341
269.0165, 187.1733
269.4987, 188.9933
269.9808, 190.1575
270.4629, 190.8702
270.9450, 190.9343
271.4271, 190.6211
271.9092, 191.1016
272.3914, 192.5937
272.8735, 194.2586
273.3556, 195.5676
273.8377, 196.4917
274.3198, 197.2121
274.8019, 197.6519
275.2841, 197.9720
275.7662, 198.6312
276.2483, 199.6633
276.7304, 200.8810
277.2125, 202.2541
277.6946, 203.8193
278.1768, 205.0578
278.6589, 205.8343
279.1410, 206.4113
279.6231, 207.4111
280.1052, 208.9310
280.5873, 210.2919
281.0695, 210.9944
281.5516, 211.0555
282.0337, 211.5073
282.5158, 212.4639
282.9979, 213.6274
283.4800, 214.4902
283.9622, 215.0343
284.4443, 215.6299
284.9264, 216.5286
285.4085, 217.6651
285.8906, 218.5030
286.3727, 218.9920
286.8549, 219.3516
287.3370, 219.8900
287.8191, 220.5939
288.3012, 221.2244
288.7833, 221.8101
289.2654, 222.2483
289.7476, 222.0190
290.2297, 221.0525
290.7118, 219.9799
291.1939, 219.7583
291.6761, 220.1738
292.1582, 219.8408
292.6403, 217.9734
293.1224, 215.2999
293.6045, 213.5571
294.0866, 212.7665
294.5688, 212.0600
295.0509, 210.5432
295.5330, 208.4604
296.0151, 206.7047
296.4972, 205.5469
296.9793, 204.7105
297.4615, 203.8710
297.9436, 203.0056
298.4257, 201.9667
298.9078, 200.5827
299.3899, 198.9534
299.8720, 197.3056
300.3542, 195.6252
300.8363, 194.0157
301.3184, 192.6130
301.8005, 191.3833
302.2826, 190.2483
302.7647, 189.1961
303.2469, 188.1883
303.7290, 187.1695
304.2111, 186.1611
304.6932, 185.0552
305.1753, 183.6667
305.6574, 182.1019
306.1396, 180.6668
306.6217, 179.4502
307.1038, 178.4535
307.5859, 177.7718
308.0680, 177.4378
308.5501, 177.0411
309.0323, 176.1309
309.5144, 174.9728
309.9965, 173.9937
310.4786, 173.5553
310.9607, 173.2177
311.4428, 172.6273
311.9250, 171.7897
312.4071, 170.9606
312.8892, 170.2627
313.3713, 169.6823
313.8534, 169.2018
314.3355, 168.9258
314.8177, 168.6544
315.2998, 168.2968
315.7819, 167.8609
316.2640, 167.3769
316.7462, 166.8447
317.2283, 166.2802
317.7104, 165.6868
318.1925, 165.0408
318.6746, 164.4004
319.1567, 163.7666
319.6389, 163.1471
320.1210, 162.5809
320.6031, 162.0764
321.0852, 161.6305
321.5673, 161.2649
322.0494, 161.0761
322.5316, 160.7505
323.0137, 160.0593
323.4958, 159.2209
323.9779, 158.5897
324.4600, 158.4183
324.9421, 158.2909
325.4243, 158.0779
325.9064, 157.7541
326.3885, 157.4302
326.8706, 157.0606
327.3527, 156.7195
327.8348, 156.4791
328.3170, 156.3811
328.7991, 156.3376
329.2812, 156.1599
329.7633, 155.8227
330.2454, 156.2819
330.7275, 158.5172
331.2097, 160.7480
331.6918, 161.6835
332.1739, 160.5114
332.6560, 159.3237
333.1381, 158.1983
333.6202, 157.1863
334.1024, 156.5888
334.5845, 156.4107
335.0666, 156.6429
335.5487, 157.4223
336.0308, 159.1499
336.5129, 160.2485
336.9951, 160.6460
337.4772, 160.4263
337.9593, 159.5900
338.4414, 157.8020
338.9236, 156.3804
339.4057, 155.9477
339.8878, 156.5876
340.3699, 157.1728
340.8520, 157.7570
341.3341, 158.1917
341.8163, 158.2058
342.2984, 157.7500
342.7805, 157.3704
343.2626, 157.1390
343.7447, 157.1108
344.2268, 157.7963
344.7090, 159.3328
345.1911, 160.7793
345.6732, 161.0238
346.1553, 160.2343
346.6374, 159.7981
347.1195, 160.1213
347.6017, 160.7962
348.0838, 160.9303
348.5659, 160.5582
349.0480, 160.2226
349.5301, 160.5241
350.0122, 161.1496
350.4944, 161.1930
350.9765, 160.4256
351.4586, 159.4786
351.9407, 159.2294
352.4228, 159.4847
352.9049, 159.5996
353.3871, 158.9828
353.8692, 158.1496
354.3513, 157.8801
354.8334, 158.2387
355.3155, 158.5607
355.7976, 158.1268
356.2798, 157.3323
356.7619, 156.8105
357.2440, 157.0147
357.7261, 157.4157
358.2082, 157.7130
358.6903, 157.8977
359.1725, 157.9191
359.6546, 157.5253
360.1367, 157.0662
360.6188, 156.8757
361.1009, 157.2303
361.5831, 157.5579
362.0652, 157.5565
362.5473, 157.3414
363.0294, 157.1961
363.5115, 157.1929
363.9937, 157.3050
364.4758, 157.5573
364.9579, 158.0302
365.4400, 158.4001
365.9221, 158.4251
366.4042, 158.3714
366.8864, 158.5756
367.3685, 159.4859
367.8506, 160.2553
368.3327, 160.6394
368.8148, 160.5974
369.2969, 160.6028
369.7791, 160.6526
370.2612, 160.7573
370.7433, 160.9332
371.2254, 161.2913
371.7075, 161.5238
372.1896, 161.4232
372.6718, 161.1596
373.1539, 161.5220
373.6360, 162.9775
374.1181, 164.2938
374.6002, 164.8005
375.0823, 164.2115
375.5645, 163.8267
376.0466, 163.6313
376.5287, 163.6593
377.0108, 164.0550
377.4929, 164.9033
377.9750, 165.6772
378.4572, 166.1498
378.9393, 166.3656
379.4214, 166.7568
379.9035, 167.3684
380.3856, 167.9588
380.8677, 168.1653
381.3499, 168.0334
381.8320, 168.1821
382.3141, 168.8150
382.7962, 169.7216
383.2783, 170.4666
383.7604, 171.0577
384.2426, 171.6948
384.7247, 172.4992
385.2068, 173.4442
385.6889, 174.5661
386.1711, 175.9089
386.6532, 177.2141
387.1353, 178.1136
387.6174, 178.7538
388.0995, 179.5218
388.5816, 180.7566
389.0638, 182.1255
389.5459, 183.1876
390.0280, 183.9617
390.5101, 184.9982
390.9922, 186.8852
391.4743, 189.1425
391.9565, 191.2549
392.4386, 192.8836
392.9207, 194.5453
393.4028, 196.4658
393.8849, 198.6081
394.3670, 200.8855
394.8492, 203.0009
395.3313, 205.4118
395.8134, 208.5026
396.2955, 212.6869
396.7776, 216.5249
397.2597, 219.0965
397.7419, 221.2863
398.2240, 224.2790
398.7061, 228.4725
399.1882, 233.2058
399.6703, 238.7291
400.1524, 245.1196
400.6346, 250.4621
401.1167, 253.6250
401.5988, 256.6629
402.0809, 260.9857
402.5630, 267.3478
403.0451, 273.5434
403.5273, 279.3204
404.0094, 284.8222
404.4915, 290.3018
404.9736, 295.5920
405.4557, 301.2924
405.9378, 307.8797
406.4200, 315.4661
406.9021, 322.5838
407.3842, 329.0676
407.8663, 335.3015
408.3484, 341.7746
408.8306, 348.5243
409.3127, 355.1061
409.7948, 361.4296
410.2769, 367.4931
410.7590, 373.3532
411.2411, 379.0407
411.7233, 384.0146
412.2054, 387.7461
412.6875, 390.5199
413.1696, 393.1268
413.6517, 395.8911
414.1339, 397.9698
414.6160, 398.1060
415.0981, 396.7094
415.5802, 394.8788
416.0623, 393.2694
416.5444, 391.4228
417.0266, 388.8743
417.5087, 385.5914
417.9908, 381.9808
418.4729, 378.5150
418.9550, 374.7823
419.4371, 370.3762
419.9193, 364.5231
420.4014, 358.7076
420.8835, 353.7122
421.3656, 349.2916
421.8477, 344.5995
422.3298, 339.5668
422.8120, 334.1359
423.2941, 328.1984
423.7762, 321.7249
424.2583, 314.9781
424.7404, 307.7285
425.2225, 300.4185
425.7047, 293.3517
426.1868, 286.7471
426.6689, 280.1994
427.1510, 273.5211
427.6331, 266.7729
428.1152, 260.3353
428.5974, 254.0612
429.0795, 248.1994
429.5616, 242.8745
430.0437, 238.2057
430.5258, 233.5936
431.0079, 228.9490
431.4901, 224.4751
431.9722, 220.5361
432.4543, 217.1590
432.9364, 214.1353
433.4185, 211.4338
433.9007, 209.0574
434.3828, 207.2646
434.8649, 206.1105
435.3470, 204.8712
435.8291, 202.5232
436.3112, 199.4990
436.7934, 197.2893
437.2755, 196.3342
437.7576, 195.9538
438.2397, 195.4812
438.7218, 194.9155
439.2039, 194.2481
439.6861, 193.1283
440.1682, 192.0930
440.6503, 191.8530
441.1324, 192.4716
441.6145, 193.0951
442.0966, 193.1759
442.5788, 192.9998
443.0609, 192.8735
443.5430, 192.9020
444.0251, 192.9738
444.5072, 192.8965
444.9893, 192.7926
445.4715, 193.1011
445.9536, 194.5675
446.4357, 195.9301
446.9178, 196.5468
447.3999, 195.9447
447.8820, 195.8030
448.3642, 196.3834
448.8463, 197.3154
449.3284, 198.2199
449.8105, 199.0444
450.2926, 199.9390
450.7747, 200.9829
451.2569, 202.1340
451.7390, 203.0392
452.2211, 203.5650
452.7032, 204.1967
453.1853, 205.3574
453.6674, 207.1098
454.1496, 208.3079
454.6317, 208.7957
455.1138, 209.0183
455.5959, 209.7196
456.0781, 210.8389
456.5602, 211.6402
457.0423, 211.8001
457.5244, 211.5264
458.0065, 211.1266
458.4886, 210.6235
458.9708, 210.2043
459.4529, 210.2414
459.9350, 210.3879
460.4171, 210.0635
460.8992, 209.0755
461.3813, 207.9907
461.8635, 207.3800
462.3456, 206.9489
462.8277, 206.2130
463.3098, 204.9207
463.7919, 203.3099
464.2740, 201.3804
464.7562, 199.1609
465.2383, 197.0063
465.7204, 194.8750
466.2025, 192.9318
466.6846, 191.3167
467.1667, 190.2943
467.6489, 189.1970
468.1310, 188.1392
468.6131, 186.9348
469.0952, 185.1877
469.5773, 182.2698
470.0594, 179.8351
470.5416, 178.4255
471.0237, 178.0020
471.5058, 177.2100
471.9879, 175.9643
472.4700, 174.5390
472.9521, 173.0410
473.4343, 171.4406
473.9164, 170.3041
474.3985, 169.7900
474.8806, 169.5133
475.3627, 168.7780
475.8448, 167.6306
476.3270, 166.5458
476.8091, 165.7040
477.2912, 165.0779
477.7733, 164.7368
478.2554, 164.6570
478.7375, 164.4811
479.2197, 163.7747
479.7018, 162.8602
480.1839, 162.2010
480.6660, 161.9452
481.1482, 161.7974
481.6303, 161.6535
482.1124, 161.4755
482.5945, 161.1991
483.0766, 160.6228
483.5587, 160.1046
484.0409, 159.8551
484.5230, 159.8697
485.0051, 159.8107
485.4872, 159.6300
485.9693, 159.3471
486.4514, 158.9668
486.9336, 158.3941
487.4157, 157.8843
487.8978, 157.3764
488.3799, 156.9674
488.8620, 156.8507
489.3441, 157.2225
489.8263, 157.3936
490.3084, 157.1329
490.7905, 156.5058
491.2726, 155.9888
491.7547, 155.5814
492.2368, 155.2705
492.7190, 155.1920
493.2011, 155.2686
493.6832, 154.8795
494.1653, 153.8682
494.6474, 152.7605
495.1295, 152.1950
495.6117, 152.0710
496.0938, 152.0818
496.5759, 152.3616
497.0580, 152.5089
497.5401, 151.9205
498.0222, 150.7297
498.5044, 149.6470
498.9865, 149.1243
499.4686, 148.8343
499.9507, 148.5128
500.4328, 148.0942
500.9149, 147.7514
501.3971, 147.5772
501.8792, 147.4952
502.3613, 147.4155
502.8434, 147.5840
503.3256, 147.4535
503.8077, 146.7014
504.2898, 145.5141
504.7719, 144.7977
505.2540, 144.9471
505.7361, 144.9804
506.2183, 144.3828
506.7004, 142.9900
507.1825, 142.0945
507.6646, 141.8248
508.1467, 141.7785
508.6288, 141.5211
509.1110, 141.0550
509.5931, 140.5688
510.0752, 140.0384
510.5573, 139.6032
511.0394, 139.7020
511.5215, 140.2324
512.0037, 140.5410
512.4858, 139.9420
512.9679, 139.0456
513.4500, 138.8119
513.9321, 139.2634
514.4142, 139.7134
514.8964, 139.6794
515.3785, 139.3916
515.8606, 139.0436
516.3427, 138.3963
516.8248, 138.1937
517.3069, 139.1543
517.7891, 140.7027
518.2712, 141.7769
518.7533, 142.2691
519.2354, 142.1248
519.7175, 140.9292
520.1996, 138.7163
520.6818, 137.3976
521.1639, 137.4129
521.6460, 137.7809
522.1281, 137.9691
522.6102, 137.9558
523.0923, 137.8441
523.5745, 137.6152
524.0566, 137.3203
524.5387, 136.9675
525.0208, 136.5545
525.5029, 136.2973
525.9850, 136.0755
526.4672, 136.2098
526.9493, 138.1067
527.4314, 141.4865
527.9135, 143.7617
528.3956, 142.4121
528.8777, 139.4247
529.3599, 137.4525
529.8420, 136.7299
530.3241, 136.5335
530.8062, 136.5654
531.2883, 136.7756
531.7704, 137.1140
532.2526, 137.7629
532.7347, 138.2890
533.2168, 138.5351
533.6989, 138.5667
534.1810, 138.5431
534.6631, 138.1530
535.1453, 138.0657
535.6274, 138.5751
536.1095, 139.7108
536.5916, 140.5549
537.0737, 141.0402
537.5558, 141.3517
538.0380, 141.5303
538.5201, 141.5097
539.0023, 141.8896
539.4844, 142.8093
539.9665, 143.8757
540.4486, 144.3928
540.9307, 144.4371
541.4128, 144.6625
541.8950, 145.2234
542.3771, 146.1369
542.8592, 147.6298
543.3413, 149.5822
543.8234, 151.4704
544.3055, 153.0083
544.7877, 154.3039
545.2698, 155.3035
545.7519, 155.9614
546.2340, 156.9041
546.7161, 158.6064
547.1982, 160.6344
547.6804, 162.6459
548.1625, 164.6239
548.6446, 166.4955
549.1267, 168.1946
549.6088, 169.7947
550.0909, 171.4265
550.5731, 173.0286
551.0552, 174.7781
551.5373, 176.6942
552.0194, 178.7879
552.5015, 181.0993
552.9836, 183.6570
553.4658, 186.3371
553.9479, 189.1272
554.4300, 192.0024
554.9121, 194.7549
555.3942, 197.3657
555.8763, 199.7427
556.3585, 201.4403
556.8406, 202.8005
557.3227, 204.8081
557.8048, 208.3424
558.2869, 211.7618
558.7690, 213.4280
559.2512, 213.7776
559.7333, 213.8875
560.2154, 214.2834
560.6975, 214.5348
561.1796, 214.3296
561.6617, 213.6475
562.1439, 213.0870
562.6260, 212.8511
563.1081, 212.7151
563.5902, 212.5489
564.0723, 212.3754
564.5544, 212.0877
565.0366, 211.4891
565.5187, 210.9630
566.0008, 211.0011
566.4829, 211.6147
566.9650, 212.8024
567.4471, 214.7819
567.9293, 217.1201
568.4114, 218.5387
568.8935, 219.1089
569.3756, 219.7619
569.8577, 221.2423
570.3398, 223.0765
570.8220, 224.3589
571.3041, 225.1039
571.7862, 225.6860
572.2683, 226.1418
572.7504, 226.6940
573.2325, 227.6335
573.7147, 229.1917
574.1968, 230.6608
574.6789, 231.6081
575.1610, 232.3740
575.6431, 233.4120
576.1252, 235.0858
576.6074, 236.6755
577.0895, 238.0629
577.5716, 239.3018
578.0537, 240.6042
578.5358, 241.9572
579.0179, 243.4157
579.5001, 245.0964
579.9822, 246.9746
580.4643, 248.3669
580.9464, 249.2237
581.4285, 249.9253
581.9106, 250.7869
582.3928, 251.7652
582.8749, 252.7002
583.3570, 253.5637
583.8391, 254.4367
584.3212, 255.2561
584.8033, 256.1738
585.2855, 257.4581
585.7676, 259.4748
586.2498, 261.5928
586.7319, 263.4633
587.2140, 265.1961
587.6961, 267.1048
588.1782, 269.3229
588.6603, 271.6728
589.1425, 274.0814
589.6246, 276.5586
590.1067, 279.1739
590.5888, 281.8629
591.0709, 284.7366
591.5530, 287.9103
592.0352, 291.4151
592.5173, 295.0015
592.9994, 298.6978
593.4815, 302.3694
593.9636, 305.7597
594.4457, 308.9251
594.9279, 312.3646
595.4100, 316.3419
595.8921, 320.4156
596.3742, 323.9719
596.8563, 327.1444
597.3384, 330.2431
597.8206, 333.6513
598.3027, 336.8219
598.7848, 339.2001
599.2669, 340.8822
599.7490, 342.6905
600.2311, 345.2280
600.7133, 347.6570
601.1954, 349.6205
601.6775, 351.2047
602.1596, 351.9367
602.6417, 351.3740
603.1238, 350.4676
603.6060, 350.3344
604.0881, 351.3285
604.5702, 350.9201
605.0523, 348.6098
605.5344, 345.2016
606.0165, 342.1787
606.4987, 339.4052
606.9808, 336.1526
607.4629, 332.3601
607.9450, 327.7852
608.4271, 321.7969
608.9092, 314.6527
609.3914, 307.5602
609.8735, 301.4213
610.3556, 295.4054
610.8377, 288.7198
611.3198, 281.3128
611.8019, 274.3586
612.2841, 268.3510
612.7662, 262.7164
613.2483, 256.9677
613.7304, 251.0118
614.2125, 245.3506
614.6946, 239.9709
615.1768, 234.8197
615.6589, 229.8016
616.1410, 224.8468
616.6231, 220.2013
617.1052, 215.9274
617.5873, 211.9395
618.0695, 208.3301
618.5516, 205.0288
619.0337, 201.7179
619.5158, 198.1089
619.9979, 194.5045
620.4800, 191.3767
620.9622, 188.6490
621.4443, 186.0063
621.9264, 183.1943
622.4085, 180.4568
622.8906, 177.9366
623.3727, 175.6849
623.8549, 173.4696
624.3370, 170.9969
624.8191, 168.7221
625.3012, 167.0215
625.7833, 166.3306
626.2654, 165.0963
626.7476, 163.0483
627.2297, 160.7983
627.7118, 159.2640
628.1939, 158.4660
628.6760, 157.5574
629.1581, 156.2969
629.6403, 154.9173
630.1224, 153.7019
630.6045, 152.6728
631.0866, 151.9075
631.5687, 151.7344
632.0509, 151.6325
632.5330, 151.0546
633.0151, 150.0933
633.4973, 149.2386
633.9794, 148.6759
634.4615, 148.2899
634.9436, 148.1004
635.4257, 148.1982
635.9078, 147.9888
636.3900, 147.2332
636.8721, 146.3928
637.3542, 145.8223
637.8363, 145.5995
638.3184, 145.2180
638.8005, 144.5933
639.2827, 143.9676
639.7648, 143.7083
640.2469, 143.7627
640.7290, 143.7491
641.2111, 143.5041
641.6932, 143.3015
642.1754, 143.6231
642.6575, 144.2557
643.1396, 144.6776
643.6217, 144.5946
644.1038, 144.2930
644.5859, 143.8244
645.0681, 143.2437
645.5502, 142.7781
646.0323, 142.4224
646.5144, 142.2600
646.9965, 142.3835
647.4786, 142.8197
647.9608, 143.0795
648.4429, 143.1384
648.9250, 143.0758
649.4071, 142.9726
649.8892, 142.8249
650.3713, 142.3651
650.8535, 141.5181
651.3356, 140.7284
651.8177, 140.4412
652.2998, 140.5670
652.7819, 140.9875
653.2640, 141.8247
653.7462, 142.5258
654.2283, 142.5415
654.7104, 142.1803
655.1925, 141.9017
655.6746, 142.1034
656.1567, 142.1121
656.6389, 141.5620
657.1210, 140.6874
657.6031, 140.1538
658.0852, 140.1069
658.5673, 140.1311
659.0494, 140.0964
659.5316, 140.0316
660.0137, 140.1408
660.4958, 140.4380
660.9779, 140.7441
661.4600, 140.9663
661.9421, 141.1138
662.4243, 141.2240
662.9064, 141.2959
663.3885, 141.2864
663.8706, 141.0264
664.3527, 140.7440
664.8348, 140.7174
665.3170, 141.0757
665.7991, 141.3138
666.2812, 141.0372
666.7633, 140.6832
667.2454, 140.6903
667.7275, 141.4561
668.2097, 141.8908
668.6918, 141.8416
669.1739, 141.5689
669.6560, 141.5125
670.1381, 141.7072
670.6202, 141.7060
671.1024, 141.3023
671.5845, 140.8010
672.0666, 140.7869
672.5487, 141.1812
673.0308, 141.6847
673.5129, 142.3098
673.9951, 142.8514
674.4772, 143.1699
674.9593, 143.2604
675.4414, 143.1039
675.9235, 142.0705
676.4056, 141.3540
676.8878, 141.7836
677.3699, 143.4907
677.8520, 144.3293
678.3341, 143.8557
678.8162, 143.1653
679.2984, 142.8604
679.7805, 142.9651
680.2626, 143.1387
680.7448, 143.4053
681.2269, 143.6000
681.7090, 143.4382
682.1911, 143.0830
682.6732, 142.9809
683.1553, 143.2285
683.6375, 143.5785
684.1196, 143.9713
684.6017, 144.2997
685.0838, 144.4270
685.5659, 144.1040
686.0480, 143.8736
686.5302, 143.9336
687.0123, 144.1492
687.4944, 144.2850
687.9765, 144.2971
688.4586, 144.3067
688.9407, 144.2790
689.4229, 144.3004
689.9050, 144.7230
690.3871, 145.5616
690.8692, 146.1300
691.3513, 145.9040
691.8334, 145.4060
692.3156, 145.7064
692.7977, 146.6292
693.2798, 147.3493
693.7619, 147.2439
694.2440, 146.8866
694.7261, 146.6442
695.2083, 146.5395
695.6904, 146.4356
696.1725, 146.1909
696.6546, 146.0493
697.1367, 146.1388
697.6188, 146.4946
698.1010, 146.8760
698.5831, 147.3462
699.0652, 147.6955
699.5473, 147.6543
700.0294, 147.2864
700.5115, 147.1752
700.9937, 147.3836
701.4758, 147.6604
701.9579, 147.6654
702.4400, 147.5948
702.9221, 147.8127
703.4042, 148.5642
703.8864, 149.1487
704.3685, 149.1535
704.8506, 148.8102
705.3327, 148.3904
705.8148, 147.7331
706.2969, 147.2778
706.7791, 147.1369
707.2612, 147.1617
707.7433, 147.0578
708.2254, 146.7806
708.7075, 146.7210
709.1896, 147.0974
709.6718, 147.5900
710.1539, 147.3645
710.6360, 146.6178
711.1181, 146.1539
711.6002, 146.6729
712.0823, 147.3926
712.5645, 147.6721
713.0466, 147.5929
713.5287, 147.4547
714.0108, 147.4384
714.4929, 147.3084
714.9750, 146.7547
715.4572, 145.8492
715.9393, 145.7037
716.4214, 146.7124
716.9035, 147.6458
717.3856, 147.8440
717.8677, 147.3779
718.3499, 146.9905
718.8320, 146.6746
719.3141, 146.4836
719.7962, 146.5020
720.2783, 146.6516
720.7604, 146.8116
721.2426, 146.9702
721.7247, 147.1816
722.2068, 147.5797
722.6889, 147.9758
723.1710, 148.2382
723.6531, 148.3489
724.1353, 148.3024
724.6174, 147.9841
725.0995, 147.6326
725.5816, 147.4519
726.0638, 147.4676
726.5459, 147.4759
727.0280, 147.4346
727.5101, 147.4721
727.9922, 147.9445
728.4744, 148.6295
728.9565, 148.8196
729.4386, 148.1672
729.9207, 147.4785
730.4028, 147.4673
730.8849, 147.8045
731.3671, 148.0346
731.8492, 147.6045
732.3313, 147.5644
732.8134, 148.5181
733.2955, 149.8489
733.7776, 150.5516
734.2598, 150.4857
734.7419, 150.2037
735.2240, 149.6803
735.7061, 149.1697
736.1882, 149.4053
736.6703, 150.2810
737.1525, 150.9533
737.6346, 150.8050
738.1167, 150.5743
738.5988, 151.3932
739.0809, 152.8385
739.5630, 153.7005
740.0452, 152.8486
740.5273, 151.9320
741.0094, 151.6822
741.4915, 152.0035
741.9736, 152.2074
742.4557, 152.2795
742.9379, 152.2462
743.4200, 152.0493
743.9021, 151.7493
744.3842, 151.8061
744.8663, 152.2204
745.3484, 152.4727
745.8306, 151.9785
746.3127, 151.2544
746.7948, 151.1551
747.2769, 151.6314
747.7590, 152.1144
748.2411, 152.4142
748.7233, 152.5349
749.2054, 152.4424
749.6875, 152.1060
750.1696, 151.8084
750.6517, 151.5533
751.1339, 151.3412
751.6160, 151.1740
752.0981, 151.0497
752.5802, 150.9590
753.0623, 150.8979
753.5444, 150.8879
754.0266, 150.8522
754.5087, 150.9043
754.9908, 151.5180
755.4729, 152.7976
755.9550, 153.4475
756.4371, 151.9242
756.9193, 149.8979
757.4014, 148.7486
757.8835, 149.0347
758.3656, 149.2509
758.8477, 149.3701
759.3298, 149.3394
759.8120, 149.0852
760.2941, 148.5858
760.7762, 148.0291
761.2583, 147.3633
761.7404, 146.8965
762.2225, 147.2934
762.7047, 148.1102
763.1868, 148.2535
763.6689, 147.4055
764.1510, 146.3869
764.6331, 145.5720
765.1152, 144.9672
765.5974, 144.5894
766.0795, 144.6315
766.5616, 144.5869
767.0437, 144.3209
767.5258, 144.0403
768.0079, 144.0627
768.4901, 144.4611
768.9722, 144.4641
769.4543, 143.8551
769.9364, 143.1535
770.4185, 143.1636
770.9006, 143.6458
771.3828, 144.0119
771.8649, 144.1379
772.3470, 144.0073
772.8291, 143.3427
773.3113, 142.5048
773.7934, 141.9923
774.2755, 142.4386
774.7576, 142.5021
775.2397, 141.8014
775.7219, 140.8678
776.2040, 140.6237
776.6861, 141.1709
777.1682, 141.5020
777.6503, 141.3799
778.1324, 141.0356
778.6146, 140.7512
779.0967, 140.5356
779.5788, 140.4174
780.0609, 140.4751
780.5430, 140.5266
781.0251, 140.4507
781.5073, 140.2942
781.9894, 140.1454
782.4715, 140.1128
782.9536, 139.9582
783.4357, 138.6912
783.9178, 139.4396
784.4000, 139.8409
784.8821, 139.9140
785.3642, 138.6753
785.8463, 139.1304
786.3284, 138.9068
786.8105, 138.6553
787.2927, 139.3488
787.7748, 138.3009
788.2569, 138.9795
788.7390, 138.9688
789.2211, 139.2737
789.7032, 138.8955
790.1854, 138.7282
790.6675, 139.5334
791.1496, 139.7574
791.6317, 139.3845
792.1138, 138.7022
792.5959, 138.4422
793.0781, 138.6020
793.5602, 138.8488
794.0423, 139.1480
794.5244, 139.3725
795.0065, 139.1974
795.4886, 138.8129
795.9708, 138.6769
796.4529, 139.3729
796.9350, 139.9387
797.4171, 139.7793
797.8992, 139.2048
798.3813, 139.1118
798.8635, 139.7830
799.3456, 140.3419
799.8277, 140.5915
800.3098, 140.6173
800.7919, 140.5390
801.2740, 140.3823
801.7562, 140.4227
802.2383, 140.8859
802.7204, 141.4331
803.2025, 141.7120
803.6846, 141.7941
804.1667, 141.8471
804.6489, 141.9819
805.1310, 142.0409
805.6131, 141.9749
806.0952, 141.8027
806.5773, 141.4879
807.0594, 140.8972
807.5416, 140.6538
808.0237, 141.0152
808.5058, 141.6815
808.9879, 142.0226
809.4700, 142.0974
809.9521, 142.1496
810.4343, 142.2575
810.9164, 142.4052
811.3985, 142.6095
811.8806, 142.8413
812.3627, 143.0403
812.8448, 143.2813
813.3270, 143.3511
813.8091, 143.0502
814.2912, 142.6479
814.7733, 142.8350
815.2554, 143.6875
815.7375, 144.3192
816.2197, 144.4355
816.7018, 144.3204
817.1839, 144.4309
817.6660, 144.6781
818.1481, 144.8495
818.6302, 144.7817
819.1124, 144.7216
819.5945, 144.8083
820.0767, 144.9780
820.5588, 145.1033
821.0409, 145.1252
821.5230, 145.2035
822.0051, 145.3694
822.4872, 145.5900
822.9694, 145.8432
823.4515, 146.1186
823.9336, 146.2867
824.4157, 146.2818
824.8978, 146.2323
825.3799, 146.1638
825.8621, 146.1724
826.3442, 146.4203
826.8263, 147.3313
827.3084, 147.9971
827.7905, 147.9858
828.2726, 147.7362
828.7548, 147.8100
829.2369, 148.3074
829.7190, 148.6909
830.2011, 148.8730
830.6832, 148.9619
831.1653, 149.1049
831.6475, 149.2800
832.1296, 149.4335
832.6117, 149.5581
833.0938, 149.6379
833.5759, 149.6068
834.0580, 149.5543
834.5402, 149.5831
835.0223, 149.8904
835.5044, 149.9788
835.9865, 149.6793
836.4686, 149.3764
836.9507, 149.5413
837.4329, 150.1549
837.9150, 150.7511
838.3971, 151.3017
838.8792, 151.7068
839.3613, 151.8525
839.8434, 151.7960
840.3256, 151.5240
840.8077, 150.8925
841.2898, 150.6257
841.7719, 151.2530
842.2540, 152.1282
842.7361, 152.7922
843.2183, 153.2375
843.7004, 153.4486
844.1825, 153.3634
844.6646, 153.2627
845.1467, 153.3559
845.6288, 153.6359
846.1110, 154.2245
846.5931, 155.1357
847.0752, 155.7561
847.5573, 155.3174
848.0394, 154.6961
848.5215, 154.5613
849.0037, 155.0680
849.4858, 155.5731
849.9679, 156.0975
850.4500, 156.5562
850.9321, 156.8778
851.4142, 157.0815
851.8964, 157.3720
852.3785, 157.7493
852.8606, 158.1300
853.3427, 158.4595
853.8248, 158.7565
854.3069, 159.0767
854.7891, 159.4050
855.2712, 159.5910
855.7533, 159.2881
856.2354, 159.1543
856.7175, 159.5175
857.1996, 160.2745
857.6818, 160.6347
858.1639, 160.5242
858.6460, 160.5602
859.1281, 161.0947
859.6102, 161.9099
860.0923, 162.6541
860.5745, 163.3372
861.0566, 163.9704
861.5387, 164.7183
862.0208, 165.2627
862.5029, 165.3242
862.9850, 165.0674
863.4672, 165.0568
863.9493, 165.4088
864.4314, 165.7041
864.9135, 165.8057
865.3956, 165.8650
865.8777, 166.1876
866.3599, 166.7511
866.8420, 167.4507
867.3242, 168.3520
867.8063, 169.2178
868.2884, 169.8171
868.7705, 170.2842
869.2526, 170.8091
869.7347, 171.7408
870.2169, 172.2459
870.6990, 172.0948
871.1811, 171.7139
871.6632, 171.6469
872.1453, 171.8799
872.6274, 172.1448
873.1096, 172.3945
873.5917, 172.7085
874.0738, 173.2138
874.5559, 173.8074
875.0380, 174.3957
875.5201, 175.0151
876.0023, 175.4485
876.4844, 175.4084
876.9665, 175.3646
877.4486, 175.6555
877.9307, 176.3551
878.4128, 176.8523
878.8950, 177.1269
879.3771, 177.3896
879.8592, 177.8560
880.3413, 178.4085
880.8234, 178.8858
881.3055, 179.2744
881.7877, 179.5418
882.2698, 179.3270
882.7519, 179.3143
883.2340, 180.0097
883.7161, 181.3536
884.1982, 182.2613
884.6804, 182.6404
885.1625, 182.9495
885.6446, 183.3780
886.1267, 183.9108
886.6088, 184.6624
887.0909, 185.5356
887.5731, 186.1134
888.0552, 185.8638
888.5373, 185.6010
889.0194, 185.6548
889.5015, 186.0392
889.9836, 186.7609
890.4658, 188.0934
890.9479, 189.0677
891.4300, 189.3861
891.9121, 189.3932
892.3942, 189.7662
892.8763, 190.4199
893.3585, 190.9290
893.8406, 190.9819
894.3227, 191.3049
894.8048, 192.7958
895.2869, 194.7023
895.7690, 196.0913
896.2512, 196.5074
896.7333, 196.8130
897.2154, 196.8957
897.6975, 197.0415
898.1796, 197.6209
898.6617, 198.5683
899.1439, 199.3614
899.6260, 199.9515
900.1081, 200.5380
900.5902, 201.3190
901.0723, 202.1564
901.5544, 202.9254
902.0366, 203.5924
902.5187, 204.2926
903.0008, 204.9994
903.4829, 205.7968
903.9650, 206.8109
904.4471, 207.9898
904.9293, 208.7516
905.4114, 209.1274
905.8935, 209.5918
906.3756, 210.6195
906.8577, 211.7429
907.3398, 212.3384
907.8220, 212.5819
908.3041, 213.1745
908.7862, 214.6999
909.2683, 216.1131
909.7504, 217.1530
910.2325, 217.9667
910.7147, 218.8952
911.1968, 219.9442
911.6789, 221.0741
912.1610, 222.2735
912.6431, 223.5193
913.1252, 224.8467
913.6074, 226.1781
914.0895, 227.3927
914.5717, 228.3974
915.0538, 229.3747
915.5359, 230.3216
916.0180, 231.2932
916.5001, 232.3579
916.9822, 233.5188
917.4644, 234.7391
917.9465, 236.0242
918.4286, 237.3083
918.9107, 238.4413
919.3928, 239.5717
919.8749, 240.9389
920.3571, 242.5764
920.8392, 244.1374
921.3213, 245.3711
921.8034, 246.6655
922.2855, 248.1409
922.7676, 249.8151
923.2498, 251.9400
923.7319, 254.5284
924.2140, 256.7610
924.6961, 257.7334
925.1782, 258.4991
925.6603, 260.5233
926.1425, 263.4492
926.6246, 266.3239
927.1067, 268.6516
927.5888, 271.0315
928.0709, 273.4664
928.5530, 276.1191
929.0352, 279.3102
929.5173, 283.0688
929.9994, 286.8847
930.4815, 290.6309
930.9636, 294.4446
931.4457, 298.4663
931.9279, 302.6544
932.4100, 306.8316
932.8921, 310.6212
933.3742, 315.4010
933.8563, 321.9867
934.3384, 329.1946
934.8206, 336.0937
935.3027, 342.7257
935.7848, 349.9476
936.2669, 357.8063
936.7490, 366.5322
937.2311, 376.3557
937.7133, 387.1708
938.1954, 398.3371
938.6775, 410.1130
939.1596, 423.3287
939.6417, 438.6255
940.1238, 454.9857
940.6060, 471.8683
941.0881, 489.5115
941.5702, 508.7985
942.0523, 529.7620
942.5344, 552.7061
943.0165, 578.1063
943.4987, 605.6465
943.9808, 635.1721
944.4629, 666.6451
944.9450, 699.8740
945.4271, 735.1837
945.9092, 772.4597
946.3914, 811.3736
946.8735, 852.7015
947.3556, 897.4938
947.8377, 945.4380
948.3198, 994.7481
948.8019, 1045.112
949.2841, 1097.346
949.7662, 1151.409
950.2483, 1207.471
950.7304, 1265.725
951.2125, 1326.164
951.6946, 1387.851
952.1768, 1451.512
952.6589, 1515.080
953.1410, 1578.403
953.6231, 1640.724
954.1052, 1702.052
954.5873, 1762.074
955.0695, 1819.076
955.5516, 1873.927
956.0337, 1923.388
956.5158, 1965.426
956.9979, 1999.720
957.4800, 2025.860
957.9622, 2044.777
958.4443, 2054.059
958.9264, 2052.724
959.4085, 2043.338
959.8906, 2027.541
960.3727, 2005.949
960.8549, 1979.883
961.3370, 1949.162
961.8192, 1919.961
962.3013, 1895.055
962.7834, 1873.690
963.2655, 1854.277
963.7476, 1836.707
964.2297, 1829.440
964.7119, 1833.228
965.1940, 1845.070
965.6761, 1863.824
966.1582, 1889.744
966.6403, 1923.724
967.1224, 1965.563
967.6046, 2015.746
968.0867, 2079.405
968.5688, 2144.961
969.0509, 2211.511
969.5330, 2276.298
970.0151, 2337.986
970.4973, 2397.862
970.9794, 2447.293
971.4615, 2486.401
971.9436, 2509.146
972.4257, 2512.028
972.9078, 2493.044
973.3900, 2447.888
973.8721, 2375.855
974.3542, 2284.063
974.8363, 2164.886
975.3184, 2033.908
975.8005, 1897.320
976.2827, 1754.885
976.7648, 1614.550
977.2469, 1476.926
977.7290, 1347.687
978.2111, 1230.235
978.6932, 1123.568
979.1754, 1027.511
979.6575, 941.2728
980.1396, 863.3379
980.6217, 793.6876
981.1038, 732.7862
981.5859, 681.7429
982.0681, 637.6866
982.5502, 598.7963
983.0323, 564.6478
983.5144, 533.4881
983.9965, 504.9731
984.4786, 479.6669
984.9608, 458.8522
985.4429, 440.7248
985.9250, 424.0802
986.4071, 408.9183
986.8892, 395.2008
987.3713, 383.1771
987.8535, 372.2426
988.3356, 362.2104
988.8177, 353.1069
989.2998, 345.1045
989.7819, 338.0890
990.2640, 331.7137
990.7462, 326.0413
991.2283, 320.8042
991.7104, 316.0435
992.1925, 311.5927
992.6746, 307.2483
993.1567, 302.8895
993.6389, 299.2519
994.1210, 296.4258
994.6031, 293.8927
995.0852, 290.9551
995.5673, 288.1431
996.0494, 286.3637
996.5316, 285.5834
997.0137, 284.7006
997.4958, 283.0642
997.9779, 281.6324
998.4600, 280.7708
998.9421, 280.2831
999.4243, 279.5035
999.9064, 278.4989
1000.388, 277.9284
1000.871, 278.1302
1001.353, 278.5158
1001.835, 278.6135
1002.317, 278.5688
1002.799, 278.5326
1003.281, 278.3745
1003.763, 278.6236
1004.245, 279.3559
1004.728, 280.3240
1005.210, 281.2729
1005.692, 282.3262
1006.174, 283.9706
1006.656, 286.1456
1007.138, 288.3542
1007.620, 290.6049
1008.102, 292.5744
1008.585, 293.7615
1009.067, 294.6544
1009.549, 296.4472
1010.031, 299.2896
1010.513, 301.9733
1010.995, 304.2133
1011.477, 306.3355
1011.959, 308.9014
1012.441, 311.4831
1012.924, 313.4063
1013.406, 314.3744
1013.888, 315.4997
1014.370, 317.1395
1014.852, 318.7338
1015.334, 320.1748
1015.816, 321.3445
1016.298, 321.3469
1016.781, 320.3195
1017.263, 319.2771
1017.745, 318.9550
1018.227, 318.6110
1018.709, 317.8916
1019.191, 316.7878
1019.673, 315.2523
1020.155, 313.0672
1020.637, 311.2249
1021.120, 309.9682
1021.602, 308.4735
1022.084, 305.4901
1022.566, 301.7477
1023.048, 298.5889
1023.530, 296.1488
1024.012, 293.8368
1024.494, 291.4034
1024.976, 289.1081
1025.459, 287.0584
1025.941, 285.2181
1026.423, 283.4486
1026.905, 281.7513
1027.387, 280.3534
1027.869, 279.5289
1028.351, 278.6407
1028.833, 276.9014
1029.316, 274.8340
1029.798, 273.0958
1030.280, 271.9347
1030.762, 270.7551
1031.244, 269.5542
1031.726, 268.3555
1032.208, 266.9919
1032.690, 265.6718
1033.172, 265.0572
1033.655, 265.0678
1034.137, 265.2442
1034.619, 265.6064
1035.101, 265.8121
1035.583, 265.6778
1036.065, 265.3358
1036.547, 264.9327
1037.029, 264.4611
1037.512, 264.3085
1037.994, 264.5647
1038.476, 265.0066
1038.958, 265.4587
1039.440, 265.9449
1039.922, 266.4627
1040.404, 267.0099
1040.886, 267.7148
1041.369, 268.6482
1041.851, 269.6020
1042.333, 270.5108
1042.815, 271.3795
1043.297, 272.1548
1043.779, 272.8982
1044.261, 273.7594
1044.743, 274.7625
1045.225, 275.9456
1045.708, 277.4665
1046.190, 279.0667
1046.672, 280.4439
1047.154, 281.5415
1047.636, 282.9637
1048.118, 284.7331
1048.600, 286.8139
1049.082, 289.4333
1049.564, 292.1610
1050.047, 294.5199
1050.529, 296.5925
1051.011, 298.6531
1051.493, 300.3866
1051.975, 302.8872
1052.457, 306.5043
1052.939, 310.6535
1053.421, 314.6828
1053.904, 318.4651
1054.386, 321.7238
1054.868, 324.3006
1055.350, 327.1000
1055.832, 331.2019
1056.314, 334.9612
1056.796, 337.4136
1057.278, 338.7386
1057.760, 340.4311
1058.243, 342.4621
1058.725, 343.8906
1059.207, 344.4935
1059.689, 344.0435
1060.171, 341.9517
1060.653, 338.8379
1061.135, 335.6095
1061.617, 332.9955
1062.099, 328.8058
1062.582, 322.6830
1063.064, 316.0519
1063.546, 309.9133
1064.028, 304.0777
1064.510, 298.1298
1064.992, 292.1210
1065.474, 286.2811
1065.956, 280.5023
1066.439, 275.1294
1066.921, 270.3289
1067.403, 265.8698
1067.885, 260.9693
1068.367, 255.7744
1068.849, 252.2122
1069.331, 250.6347
1069.813, 249.2920
1070.296, 246.8043
1070.778, 244.0624
1071.260, 241.6581
1071.742, 239.6123
1072.224, 238.2570
1072.706, 237.7515
1073.188, 236.9223
1073.670, 235.1099
1074.152, 233.1976
1074.635, 232.4277
1075.117, 232.3730
1075.599, 232.3208
1076.081, 231.9442
1076.563, 231.9966
1077.045, 232.7433
1077.527, 233.5084
1078.009, 233.6643
1078.491, 233.4599
1078.974, 233.9625
1079.456, 235.0625
1079.938, 236.1861
1080.420, 237.0983
1080.902, 237.9485
1081.384, 238.6146
1081.866, 239.3571
1082.349, 240.6880
1082.831, 242.6508
1083.313, 243.9210
1083.795, 244.3642
1084.277, 244.4306
1084.759, 244.2328
1085.241, 244.0210
1085.723, 244.0900
1086.205, 244.3904
1086.688, 244.4106
1087.170, 244.0942
1087.652, 243.7041
1088.134, 243.3852
1088.616, 242.8105
1089.098, 241.2733
1089.580, 239.2383
1090.062, 237.5156
1090.544, 236.3467
1091.027, 234.9429
1091.509, 233.1413
1091.991, 231.0672
1092.473, 228.6852
1092.955, 226.1071
1093.437, 223.6944
1093.919, 221.4347
1094.401, 219.3526
1094.884, 217.6258
1095.366, 215.7491
1095.848, 213.1432
1096.330, 210.5165
1096.812, 208.6317
1097.294, 207.6162
1097.776, 205.8804
1098.258, 203.4194
1098.740, 201.1490
1099.223, 200.0915
1099.705, 199.0797
1100.187, 196.7442
1100.669, 193.7500
1101.151, 191.9371
1101.633, 191.7535
1102.115, 191.6181
1102.597, 191.4242
1103.079, 191.0591
1103.562, 190.2247
1104.044, 189.2420
1104.526, 188.6307
1105.008, 188.4003
1105.490, 188.1424
1105.972, 188.0371
1106.454, 187.4204
1106.936, 185.9742
1107.419, 184.1753
1107.901, 182.9207
1108.383, 182.0869
1108.865, 181.4424
1109.347, 181.0108
1109.829, 180.3077
1110.311, 178.6241
1110.793, 177.1327
1111.276, 176.6618
1111.758, 176.8848
1112.240, 175.6366
1112.722, 173.0803
1113.204, 170.9924
1113.686, 170.3882
1114.168, 169.7341
1114.650, 167.4787
1115.132, 164.9460
1115.615, 163.6391
1116.097, 163.8385
1116.579, 163.5649
1117.061, 162.7953
1117.543, 161.9313
1118.025, 161.1943
1118.507, 160.5377
1118.989, 159.9524
1119.471, 159.4011
1119.954, 158.8070
1120.436, 158.1188
1120.918, 157.4794
1121.400, 156.8780
1121.882, 156.3841
1122.364, 156.1810
1122.846, 156.0717
1123.328, 155.6445
1123.811, 154.9535
1124.293, 154.4384
1124.775, 154.4737
1125.257, 154.3433
1125.739, 153.8681
1126.221, 153.2787
1126.703, 152.9489
1127.185, 152.7939
1127.667, 152.5423
1128.150, 152.1547
1128.632, 151.8351
1129.114, 151.6890
1129.596, 151.6417
1130.078, 151.7606
1130.560, 151.8982
1131.042, 151.4954
1131.524, 150.6485
1132.007, 149.9516
1132.489, 149.5406
1132.971, 149.3787
1133.453, 149.7272
1133.935, 150.0779
1134.417, 149.9943
1134.899, 149.5000
1135.381, 149.1323
1135.864, 148.8855
1136.346, 148.9026
1136.828, 149.3875
1137.310, 149.8980
1137.792, 150.1543
1138.274, 150.1332
1138.756, 149.7089
1139.238, 148.7132
1139.720, 148.1737
1140.203, 148.1198
1140.685, 148.3171
1141.167, 148.8149
1141.649, 149.3218
1142.131, 149.4832
1142.613, 149.3748
1143.095, 149.1515
1143.577, 148.7226
1144.059, 148.4217
1144.542, 148.2668
1145.024, 148.2242
1145.506, 148.3567
1145.988, 148.5337
1146.470, 148.5077
1146.952, 148.3085
1147.434, 148.1104
1147.916, 147.8856
1148.399, 147.8091
1148.881, 147.9947
1149.363, 148.1644
1149.845, 147.7614
1150.327, 147.1050
1150.809, 147.0806
1151.291, 147.7282
1151.773, 148.3531
1152.255, 148.7801
1152.738, 148.9706
1153.220, 148.8836
1153.702, 148.6093
1154.184, 148.2529
1154.666, 147.8556
1155.148, 147.5804
1155.630, 147.4552
1156.112, 147.4302
1156.594, 147.6028
1157.077, 147.7328
1157.559, 147.7232
1158.041, 147.5756
1158.523, 147.1386
1159.005, 146.4984
1159.487, 146.4124
1159.969, 147.2410
1160.451, 148.0365
1160.934, 148.1935
1161.416, 148.0162
1161.898, 147.6635
1162.380, 147.1783
1162.862, 146.8879
1163.344, 146.7945
1163.826, 146.9474
1164.308, 147.5678
1164.791, 148.0189
1165.273, 147.4192
1165.755, 146.6333
1166.237, 146.7157
1166.719, 147.8317
1167.201, 148.1166
1167.683, 147.5204
1168.165, 146.9217
1168.647, 146.8281
1169.130, 146.8762
1169.612, 146.8080
1170.094, 146.6270
1170.576, 146.3085
1171.058, 145.7699
1171.540, 145.4042
1172.022, 145.2129
1172.504, 145.2112
1172.987, 145.6364
1173.469, 146.0730
1173.951, 145.9688
1174.433, 145.5311
1174.915, 145.2822
1175.397, 145.4365
1175.879, 145.2625
1176.361, 144.6450
1176.844, 144.0762
1177.326, 143.8348
1177.808, 143.9902
1178.290, 145.0430
1178.772, 146.6279
1179.254, 147.2641
1179.736, 146.4370
1180.218, 145.5205
1180.700, 144.5892
1181.182, 143.8035
1181.665, 143.4264
1182.147, 143.2471
1182.629, 142.9192
1183.111, 142.4708
1183.593, 142.2555
1184.075, 142.4283
1184.557, 142.6536
1185.039, 142.9225
1185.522, 143.1054
1186.004, 142.9081
1186.486, 142.5582
1186.968, 142.4729
1187.450, 142.6783
1187.932, 142.7362
1188.414, 142.4978
1188.896, 142.2182
1189.379, 141.9370
1189.861, 141.6763
1190.343, 141.4466
1190.825, 141.2757
1191.307, 141.2462
1191.789, 141.3806
1192.271, 141.4761
1192.753, 141.5086
1193.235, 141.4741
1193.718, 141.3859
1194.200, 141.2086
1194.682, 140.7102
1195.164, 140.1168
1195.646, 139.9407
1196.128, 140.3633
1196.610, 140.7136
1197.092, 140.8835
1197.574, 140.8857
1198.057, 140.6451
1198.539, 140.3298
1199.021, 140.3615
1199.503, 140.6042
1199.985, 140.7446
1200.467, 140.6680
1200.949, 140.6203
1201.431, 140.6692
1201.914, 140.7166
1202.396, 140.6855
1202.878, 140.6470
1203.360, 140.9101
1203.842, 141.3056
1204.324, 141.3525
1204.806, 140.6768
1205.288, 140.2865
1205.771, 140.4879
1206.253, 140.7623
1206.735, 140.8091
1207.217, 140.7174
1207.699, 140.7348
1208.181, 140.8310
1208.663, 140.9415
1209.145, 141.1965
1209.627, 141.1115
1210.109, 140.3880
1210.592, 139.7622
1211.074, 139.8550
1211.556, 140.3859
1212.038, 140.5073
1212.520, 140.3277
1213.002, 140.1422
1213.484, 139.9769
1213.966, 139.9668
1214.449, 140.2054
1214.931, 140.4353
1215.413, 140.5080
1215.895, 140.4014
1216.377, 139.8141
1216.859, 138.9767
1217.341, 138.6111
1217.823, 139.5525
1218.306, 140.1441
1218.788, 140.1892
1219.270, 139.9295
1219.752, 139.3937
1220.234, 138.7703
1220.716, 138.5823
1221.198, 138.7462
1221.680, 138.9475
1222.162, 139.2236
1222.645, 139.2740
1223.127, 138.9967
1223.609, 138.6685
1224.091, 138.5508
1224.573, 138.5762
1225.055, 138.6280
1225.537, 138.6946
1226.019, 138.7490
1226.502, 138.8205
1226.984, 138.8158
1227.466, 138.7242
1227.948, 138.5636
1228.430, 138.2455
1228.912, 137.9232
1229.394, 137.9871
1229.876, 138.3305
1230.359, 138.4430
1230.841, 138.0874
1231.323, 137.6845
1231.805, 137.2246
1232.287, 136.8675
1232.769, 136.7821
1233.251, 136.9067
1233.733, 137.3992
1234.215, 138.0717
1234.698, 137.9869
1235.180, 136.5413
1235.662, 135.4869
1236.144, 135.0370
1236.626, 134.9014
1237.108, 134.8617
1237.590, 134.9014
1238.072, 135.1051
1238.554, 135.3937
1239.037, 135.3478
1239.519, 134.8208
1240.001, 134.3147
1240.483, 133.8344
1240.965, 133.6517
1241.447, 134.4520
1241.929, 135.3761
1242.411, 135.3592
1242.894, 134.5698
1243.376, 134.1194
1243.858, 134.0969
1244.340, 134.2357
1244.822, 134.5474
1245.304, 134.6706
1245.786, 133.9710
1246.268, 133.1765
1246.750, 133.0758
1247.233, 133.4859
1247.715, 133.4477
1248.197, 132.8904
1248.679, 132.5307
1249.161, 132.4791
1249.643, 132.5149
1250.125, 132.5406
1250.607, 132.4961
1251.089, 132.2320
1251.572, 131.8775
1252.054, 131.8248
1252.536, 132.0723
1253.018, 132.2695
1253.500, 132.3717
1253.982, 132.3466
1254.464, 132.2045
1254.946, 131.8788
1255.429, 131.0972
1255.911, 130.2281
1256.393, 130.1550
1256.875, 130.7821
1257.357, 131.1938
1257.839, 131.2650
1258.321, 131.2074
1258.803, 131.1526
1259.286, 130.9881
1259.768, 130.6427
1260.250, 130.2049
1260.732, 129.6649
1261.214, 129.1681
1261.696, 129.5238
1262.178, 130.8178
1262.660, 131.7419
1263.142, 131.4608
1263.625, 130.9728
1264.107, 130.4751
1264.589, 130.0635
1265.071, 129.7319
1265.553, 129.6411
1266.035, 130.5926
1266.517, 132.5642
1266.999, 133.4036
1267.482, 131.4616
1267.964, 129.9596
1268.446, 129.6180
1268.928, 129.7745
1269.410, 129.4589
1269.892, 129.0267
1270.374, 129.2004
1270.856, 129.9719
1271.339, 130.2341
1271.821, 129.6350
1272.303, 129.2556
1272.785, 129.3517
1273.267, 129.5018
1273.749, 129.0670
1274.231, 128.5104
1274.713, 128.4126
1275.195, 128.7420
1275.677, 128.9322
1276.160, 128.9286
1276.642, 129.0460
1277.124, 129.3674
1277.606, 129.5599
1278.088, 129.1116
1278.570, 128.5755
1279.052, 128.4573
1279.534, 128.6313
1280.017, 128.6508
1280.499, 128.5119
1280.981, 128.3166
1281.463, 128.0679
1281.945, 127.9868
1282.427, 128.5356
1282.909, 128.9664
1283.391, 128.7492
1283.874, 128.2049
1284.356, 127.8267
1284.838, 127.6255
1285.320, 127.7301
1285.802, 128.1407
1286.284, 128.5685
1286.766, 129.0385
1287.248, 129.2183
1287.730, 128.8691
1288.213, 128.4229
1288.695, 128.6074
1289.177, 129.1677
1289.659, 129.3917
1290.141, 129.2635
1290.623, 129.2028
1291.105, 129.5381
1291.587, 129.6153
1292.069, 129.2733
1292.552, 128.8470
1293.034, 128.8202
1293.516, 128.8994
1293.998, 128.5352
1294.480, 127.8299
1294.962, 127.5127
1295.444, 127.8079
1295.926, 127.8480
1296.409, 127.4930
1296.891, 127.1860
1297.373, 127.4356
1297.855, 127.8271
1298.337, 128.0350
1298.819, 128.0614
1299.301, 127.9362
1299.783, 127.6287
1300.266, 127.5255
1300.748, 127.6578
1301.230, 127.8748
1301.712, 128.2910
1302.194, 128.5318
1302.676, 128.4417
1303.158, 128.0628
##END=



