##NAMES=Wolfeite
##RRUFFID=R050614
##IDEAL CHEMISTRY=Fe^2+^_2_PO_4_(OH)
##LOCALITY=Hagendorf, Bavaria
##OWNER=RRUFF
##SOURCE=University of Arizona Mineral Museum
##DESCRIPTION=Reddish-brown elongated prismatic crystals
##STATUS=The identification of this mineral has been confirmed by X-ray diffraction and chemical analysis
##URL=rruff.info/R050614
##MEASURED CHEMISTRY=(Fe^2+^_1.49_Mn^2+^_0.49_Mg_0.02_)_Î£=2_(P_1.00_O_4_)(OH)
92.06543, 382.3668
92.54755, 383.2439
93.02966, 385.2994
93.51178, 385.4573
93.99390, 382.6823
94.47601, 377.1647
94.95813, 370.0441
95.44025, 362.7771
95.92236, 356.5919
96.40448, 351.5084
96.88660, 345.5196
97.36871, 338.0809
97.85082, 330.6430
98.33294, 324.1278
98.81506, 318.4541
99.29717, 312.7855
99.77929, 307.8789
100.2614, 303.7461
100.7435, 299.4108
101.2256, 293.9942
101.7078, 288.1197
102.1899, 283.3020
102.6720, 279.8153
103.1541, 277.5359
103.6362, 276.2366
104.1183, 275.8796
104.6005, 275.7376
105.0826, 275.2825
105.5647, 274.4973
106.0468, 273.4571
106.5289, 271.7248
107.0110, 269.9168
107.4931, 268.3421
107.9753, 267.0824
108.4574, 266.1348
108.9395, 265.4812
109.4216, 265.0301
109.9037, 265.0780
110.3858, 266.0531
110.8680, 267.3304
111.3501, 268.2332
111.8322, 268.3835
112.3143, 267.9091
112.7964, 267.6308
113.2785, 267.6521
113.7607, 267.7326
114.2428, 267.9140
114.7249, 268.1226
115.2070, 268.1848
115.6891, 267.9550
116.1712, 267.4236
116.6534, 266.9173
117.1355, 266.1899
117.6176, 265.6435
118.0997, 265.6739
118.5818, 266.3345
119.0639, 267.1671
119.5461, 267.8145
120.0282, 268.3098
120.5103, 268.7042
120.9924, 268.9211
121.4745, 269.0482
121.9566, 269.3563
122.4388, 270.1148
122.9209, 270.6417
123.4030, 270.5988
123.8851, 270.0204
124.3672, 269.0080
124.8493, 267.3917
125.3315, 265.0898
125.8136, 263.3138
126.2957, 262.5280
126.7778, 262.0427
127.2599, 261.7828
127.7420, 261.6496
128.2242, 261.3877
128.7063, 260.5915
129.1884, 258.8179
129.6705, 257.4093
130.1526, 256.4824
130.6347, 255.7803
131.1169, 255.1992
131.5990, 254.6844
132.0811, 254.1347
132.5632, 253.3241
133.0453, 251.9378
133.5274, 250.6567
134.0096, 249.3806
134.4917, 248.2573
134.9738, 247.5861
135.4559, 247.5694
135.9380, 247.9570
136.4201, 247.8882
136.9023, 247.2384
137.3844, 246.4277
137.8665, 245.5180
138.3486, 244.5537
138.8307, 243.7470
139.3128, 243.3071
139.7950, 243.0852
140.2771, 242.7172
140.7592, 242.1069
141.2413, 241.4220
141.7234, 240.8773
142.2055, 240.5265
142.6877, 240.0441
143.1698, 239.0269
143.6519, 237.8322
144.1340, 236.8454
144.6161, 236.1566
145.0982, 235.8016
145.5803, 235.9545
146.0625, 237.0574
146.5446, 237.9615
147.0267, 238.0702
147.5088, 237.7639
147.9909, 237.6509
148.4730, 238.2013
148.9552, 239.3659
149.4373, 240.1199
149.9194, 240.0723
150.4015, 239.9406
150.8836, 239.8712
151.3657, 239.8622
151.8479, 239.8868
152.3300, 239.9751
152.8121, 240.2458
153.2942, 239.7599
153.7763, 238.1166
154.2584, 236.2491
154.7406, 234.6337
155.2227, 233.2956
155.7048, 231.9179
156.1869, 230.1155
156.6690, 227.6878
157.1511, 225.5979
157.6333, 224.0260
158.1154, 222.6799
158.5975, 221.2528
159.0796, 219.6716
159.5617, 218.2198
160.0438, 217.3531
160.5260, 217.0798
161.0081, 216.8724
161.4902, 216.7388
161.9723, 216.5826
162.4544, 216.1750
162.9365, 215.3686
163.4187, 214.5002
163.9008, 213.8845
164.3829, 213.5036
164.8650, 213.4210
165.3471, 214.0171
165.8292, 215.1205
166.3113, 215.5360
166.7935, 214.5690
167.2756, 213.2113
167.7577, 212.1349
168.2398, 211.3799
168.7219, 210.8918
169.2040, 210.7532
169.6862, 211.0547
170.1683, 211.0813
170.6504, 210.2355
171.1325, 209.4007
171.6146, 209.0989
172.0967, 209.4192
172.5789, 210.0317
173.0610, 210.4982
173.5431, 210.8359
174.0252, 210.9584
174.5073, 210.7283
174.9894, 210.4087
175.4716, 210.2096
175.9537, 210.1935
176.4358, 210.2490
176.9179, 210.1432
177.4000, 209.6674
177.8821, 209.3164
178.3643, 209.1954
178.8464, 209.1620
179.3285, 209.1215
179.8106, 209.0352
180.2927, 208.8465
180.7748, 208.3877
181.2570, 207.2210
181.7391, 206.3289
182.2212, 206.0350
182.7033, 206.0448
183.1854, 205.8587
183.6675, 205.1975
184.1497, 204.3115
184.6318, 204.0488
185.1139, 204.6925
185.5960, 205.3481
186.0781, 205.8124
186.5602, 206.0654
187.0423, 205.9883
187.5245, 205.3734
188.0066, 204.5276
188.4887, 204.1941
188.9708, 204.6456
189.4529, 205.1180
189.9350, 205.1041
190.4172, 204.6391
190.8993, 204.0823
191.3814, 203.3740
191.8635, 202.8081
192.3456, 202.8107
192.8277, 203.5991
193.3099, 204.6129
193.7920, 205.3424
194.2741, 205.7723
194.7562, 206.0378
195.2383, 206.0319
195.7204, 205.9530
196.2026, 205.9808
196.6847, 206.1868
197.1668, 206.4414
197.6489, 206.5437
198.1310, 206.4526
198.6131, 206.3242
199.0953, 206.2881
199.5774, 206.2036
200.0595, 205.9078
200.5416, 205.3240
201.0237, 204.5918
201.5058, 204.0127
201.9880, 203.5994
202.4701, 203.3392
202.9522, 203.3022
203.4343, 203.3573
203.9164, 202.7249
204.3985, 202.9778
204.8807, 202.9532
205.3628, 202.6662
205.8449, 201.3305
206.3270, 201.3490
206.8091, 200.8247
207.2912, 200.2782
207.7733, 200.4873
208.2555, 199.3040
208.7376, 199.5011
209.2197, 198.9855
209.7018, 198.8284
210.1839, 198.6990
210.6660, 198.5699
211.1482, 198.4493
211.6303, 198.3704
212.1124, 198.3568
212.5945, 198.3712
213.0766, 198.2489
213.5587, 197.7953
214.0409, 197.4444
214.5230, 197.3527
215.0051, 197.4152
215.4872, 197.4560
215.9693, 197.3952
216.4514, 197.2359
216.9336, 196.9783
217.4157, 196.5359
217.8978, 196.1284
218.3799, 195.9156
218.8620, 195.8012
219.3441, 195.4966
219.8263, 194.7832
220.3084, 193.8853
220.7905, 193.4364
221.2726, 193.7410
221.7547, 193.9179
222.2368, 193.4633
222.7190, 192.4917
223.2011, 191.4254
223.6832, 190.3037
224.1653, 189.3316
224.6474, 188.8465
225.1295, 188.9991
225.6117, 189.2631
226.0938, 189.3252
226.5759, 189.1993
227.0580, 188.9865
227.5401, 188.6350
228.0222, 188.2831
228.5043, 188.1058
228.9865, 188.1416
229.4686, 188.2339
229.9507, 188.3087
230.4328, 188.3652
230.9149, 188.2581
231.3970, 187.7865
231.8792, 187.2411
232.3613, 186.8118
232.8434, 186.5143
233.3255, 186.4389
233.8076, 186.8517
234.2897, 187.8280
234.7719, 188.4114
235.2540, 188.0047
235.7361, 187.3730
236.2182, 186.9174
236.7003, 186.7045
237.1824, 186.6990
237.6646, 186.9685
238.1467, 187.6114
238.6288, 187.9751
239.1109, 187.8062
239.5930, 187.4355
240.0751, 186.9055
240.5573, 186.2692
241.0394, 185.7250
241.5215, 185.5632
242.0036, 185.9109
242.4857, 186.1171
242.9678, 185.9837
243.4500, 185.8307
243.9321, 185.7844
244.4142, 185.8731
244.8963, 186.0860
245.3784, 186.5031
245.8605, 187.3188
246.3427, 187.6045
246.8248, 186.7895
247.3069, 185.9625
247.7890, 185.7147
248.2711, 186.0272
248.7532, 186.4596
249.2354, 186.5224
249.7175, 186.0741
250.1996, 185.8727
250.6817, 186.2631
251.1638, 186.5687
251.6459, 186.3678
252.1281, 185.7337
252.6102, 185.0811
253.0923, 184.8293
253.5744, 185.0718
254.0565, 185.1406
254.5386, 184.9328
255.0208, 184.6784
255.5029, 184.4032
255.9850, 184.1564
256.4671, 184.0398
256.9492, 184.1535
257.4313, 184.5179
257.9135, 184.8737
258.3956, 185.4886
258.8777, 185.8491
259.3598, 185.4951
259.8419, 184.6460
260.3240, 183.9833
260.8062, 184.0651
261.2883, 184.8860
261.7704, 185.3196
262.2525, 185.0266
262.7346, 184.7892
263.2167, 185.0451
263.6989, 185.6339
264.1810, 186.0749
264.6631, 186.0374
265.1452, 185.5877
265.6273, 185.3204
266.1094, 185.2319
266.5916, 185.2839
267.0737, 185.5840
267.5558, 186.0227
268.0379, 186.3350
268.5200, 186.3542
269.0021, 186.1631
269.4843, 186.1127
269.9664, 186.2165
270.4485, 186.4043
270.9306, 186.8521
271.4127, 187.3663
271.8948, 187.4702
272.3770, 186.8730
272.8591, 185.8897
273.3412, 185.3219
273.8233, 185.1538
274.3054, 185.2766
274.7875, 186.0168
275.2697, 186.9873
275.7518, 187.3875
276.2339, 186.8571
276.7160, 185.8573
277.1981, 185.2168
277.6802, 184.9165
278.1623, 184.8126
278.6444, 184.9781
279.1266, 185.2910
279.6087, 185.5686
280.0908, 185.7792
280.5729, 185.8943
281.0550, 185.8473
281.5371, 185.6501
282.0193, 185.3855
282.5014, 185.0105
282.9835, 184.6018
283.4656, 184.2776
283.9477, 184.0659
284.4298, 183.8931
284.9120, 183.6848
285.3941, 183.4462
285.8762, 183.2241
286.3583, 183.0591
286.8404, 182.9002
287.3225, 182.6570
287.8047, 182.3082
288.2868, 181.9934
288.7689, 181.8321
289.2510, 181.8006
289.7331, 181.8139
290.2152, 181.9286
290.6974, 182.0411
291.1795, 182.1184
291.6616, 182.1665
292.1437, 181.9299
292.6258, 180.9465
293.1079, 179.6253
293.5901, 178.9456
294.0722, 179.4404
294.5543, 180.1156
295.0364, 180.0988
295.5185, 179.4241
296.0006, 178.7079
296.4828, 178.2054
296.9649, 177.8516
297.4470, 177.4986
297.9291, 177.1125
298.4112, 176.7955
298.8933, 176.7033
299.3755, 176.7844
299.8576, 176.7100
300.3397, 176.3131
300.8218, 175.7666
301.3039, 175.2715
301.7860, 174.8118
302.2682, 174.5129
302.7503, 174.6333
303.2324, 175.0037
303.7145, 174.9811
304.1966, 174.2630
304.6787, 173.3914
305.1609, 173.0457
305.6430, 173.1524
306.1251, 173.0374
306.6072, 171.9798
307.0893, 170.5482
307.5714, 170.1564
308.0536, 171.2940
308.5357, 172.5344
309.0178, 172.5881
309.4999, 171.7783
309.9820, 170.8452
310.4641, 169.8379
310.9463, 168.9202
311.4284, 168.3930
311.9105, 168.3139
312.3926, 168.3523
312.8747, 168.4074
313.3568, 168.4158
313.8390, 168.2368
314.3211, 167.7041
314.8032, 167.1192
315.2853, 166.7080
315.7674, 166.4694
316.2495, 166.6122
316.7317, 167.6707
317.2138, 168.9211
317.6959, 169.2227
318.1780, 168.2334
318.6601, 166.9763
319.1422, 166.1595
319.6243, 165.7338
320.1064, 165.3732
320.5886, 164.9175
321.0707, 164.5709
321.5528, 164.6476
322.0349, 165.1858
322.5170, 165.5976
322.9991, 165.5909
323.4813, 165.2195
323.9634, 164.5618
324.4455, 163.5014
324.9276, 162.4480
325.4097, 161.8183
325.8918, 161.5489
326.3740, 161.4531
326.8561, 161.5953
327.3382, 161.8284
327.8203, 161.9142
328.3024, 161.8218
328.7845, 161.6516
329.2667, 161.3302
329.7488, 160.9884
330.2309, 160.9835
330.7130, 161.8154
331.1951, 162.7035
331.6772, 162.7523
332.1594, 161.9749
332.6415, 161.2175
333.1236, 160.9191
333.6057, 160.9381
334.0878, 160.9162
334.5699, 160.7971
335.0521, 160.7199
335.5342, 160.8554
336.0163, 161.1340
336.4984, 161.2339
336.9805, 160.9718
337.4626, 160.5818
337.9448, 160.4399
338.4269, 160.5661
338.9090, 160.7149
339.3911, 160.8049
339.8732, 160.8494
340.3553, 160.8895
340.8375, 160.9488
341.3196, 160.9401
341.8017, 160.6573
342.2838, 160.1366
342.7659, 159.8648
343.2480, 160.2085
343.7302, 160.6902
344.2123, 160.7391
344.6944, 160.3177
345.1765, 159.8798
345.6586, 159.7715
346.1407, 159.9450
346.6229, 160.0031
347.1050, 159.7005
347.5871, 159.4990
348.0692, 159.4253
348.5513, 159.9814
349.0334, 160.2602
349.5156, 160.2764
349.9977, 159.2439
350.4798, 159.5656
350.9619, 159.3446
351.4440, 159.1014
351.9261, 159.6137
352.4083, 158.7337
352.8904, 159.2341
353.3725, 159.1835
353.8546, 159.3850
354.3367, 159.0405
354.8188, 158.8646
355.3010, 159.2350
355.7831, 159.3029
356.2652, 158.8955
356.7473, 159.1131
357.2294, 158.2141
357.7115, 157.6841
358.1937, 157.1768
358.6758, 156.8677
359.1579, 156.7379
359.6400, 156.9277
360.1221, 157.1404
360.6042, 157.1919
361.0863, 157.1439
361.5685, 157.1835
362.0506, 157.4267
362.5327, 157.8181
363.0148, 158.1304
363.4969, 158.5029
363.9790, 158.6321
364.4612, 158.2439
364.9433, 157.6766
365.4254, 157.3797
365.9075, 157.4943
366.3896, 157.7718
366.8717, 157.7966
367.3539, 157.3236
367.8360, 157.1700
368.3181, 157.5459
368.8002, 158.0545
369.2823, 158.5294
369.7644, 158.8991
370.2466, 159.0611
370.7287, 158.8901
371.2108, 158.3581
371.6929, 157.9687
372.1750, 157.8033
372.6571, 157.6792
373.1393, 157.5148
373.6214, 157.3576
374.1035, 157.3056
374.5856, 157.4187
375.0677, 157.6410
375.5498, 157.7872
376.0320, 157.7385
376.5141, 157.7934
376.9962, 158.0882
377.4783, 158.4239
377.9604, 158.5874
378.4425, 158.5436
378.9247, 158.4704
379.4068, 158.6584
379.8889, 159.2575
380.3710, 159.5898
380.8531, 159.4119
381.3352, 159.1861
381.8174, 159.0538
382.2995, 159.0424
382.7816, 159.1690
383.2637, 159.4972
383.7458, 159.9753
384.2279, 160.2099
384.7101, 159.9296
385.1922, 159.8248
385.6743, 160.0702
386.1564, 160.5910
386.6385, 161.4051
387.1206, 162.5766
387.6028, 163.7152
388.0849, 164.0203
388.5670, 163.2107
389.0491, 162.9173
389.5312, 164.2009
390.0133, 165.6428
390.4955, 166.1282
390.9776, 165.6486
391.4597, 165.3223
391.9418, 166.2790
392.4239, 168.2510
392.9060, 169.5377
393.3882, 169.5905
393.8703, 169.7211
394.3524, 171.0341
394.8345, 173.0428
395.3166, 174.6975
395.7987, 175.4030
396.2809, 175.7222
396.7630, 176.3703
397.2451, 177.3622
397.7272, 178.5479
398.2093, 179.9477
398.6914, 181.4727
399.1736, 182.9314
399.6557, 184.2597
400.1378, 185.7562
400.6199, 187.8041
401.1020, 190.1638
401.5841, 192.0966
402.0662, 193.3079
402.5483, 194.4373
403.0305, 196.4165
403.5126, 199.1816
403.9947, 201.4715
404.4768, 202.5737
404.9589, 203.4300
405.4410, 205.0263
405.9232, 207.3325
406.4053, 209.5544
406.8874, 211.1281
407.3695, 212.1958
407.8516, 213.5801
408.3337, 215.4929
408.8159, 217.4215
409.2980, 219.3407
409.7801, 221.1496
410.2622, 222.6781
410.7443, 223.8797
411.2264, 224.8293
411.7086, 225.6550
412.1907, 226.3712
412.6728, 226.8788
413.1549, 226.9809
413.6370, 227.0379
414.1191, 227.4133
414.6013, 228.0198
415.0834, 228.4375
415.5655, 228.3344
416.0476, 227.7265
416.5297, 226.8961
417.0118, 225.4977
417.4940, 224.2723
417.9761, 223.6021
418.4582, 223.0751
418.9403, 222.1503
419.4224, 220.6229
419.9045, 218.7995
420.3867, 217.2079
420.8688, 215.9788
421.3509, 214.6582
421.8330, 213.4421
422.3151, 211.9663
422.7972, 209.8849
423.2794, 207.3253
423.7615, 204.7652
424.2436, 202.6412
424.7257, 200.8524
425.2078, 198.6570
425.6899, 195.7977
426.1721, 192.9794
426.6542, 190.4099
427.1363, 188.0208
427.6184, 185.7093
428.1005, 183.4277
428.5826, 181.2921
429.0648, 179.5179
429.5469, 178.0994
430.0290, 176.6449
430.5111, 174.9370
430.9932, 173.3396
431.4753, 172.2222
431.9575, 171.5308
432.4396, 170.8200
432.9217, 169.7915
433.4038, 168.6444
433.8859, 167.6999
434.3680, 166.9819
434.8502, 166.4367
435.3323, 166.1809
435.8144, 166.0402
436.2965, 165.5158
436.7786, 164.2157
437.2607, 163.0996
437.7429, 162.8774
438.2250, 163.2152
438.7071, 163.3310
439.1892, 162.9682
439.6713, 162.4088
440.1534, 162.0010
440.6356, 161.7285
441.1177, 161.7393
441.5998, 162.4035
442.0819, 163.0693
442.5640, 163.2140
443.0461, 162.8974
443.5282, 162.5014
444.0103, 162.2665
444.4925, 162.1822
444.9746, 162.1939
445.4567, 162.2330
445.9388, 162.4602
446.4209, 163.1758
446.9030, 163.9401
447.3852, 164.2138
447.8673, 163.9028
448.3494, 163.4783
448.8315, 163.5510
449.3136, 164.2164
449.7957, 164.8978
450.2779, 165.7970
450.7600, 166.5115
451.2421, 166.8707
451.7242, 166.9432
452.2063, 166.8248
452.6884, 166.5181
453.1706, 166.1859
453.6527, 166.2990
454.1348, 167.0727
454.6169, 167.6088
455.0990, 167.4252
455.5811, 167.0927
456.0633, 167.0266
456.5454, 167.2542
457.0275, 167.4540
457.5096, 167.3892
457.9917, 167.1077
458.4738, 166.7696
458.9560, 166.3770
459.4381, 165.9478
459.9202, 165.4911
460.4023, 165.0058
460.8844, 164.4740
461.3665, 163.8365
461.8487, 163.2337
462.3308, 162.9059
462.8129, 162.7246
463.2950, 162.1650
463.7771, 160.9533
464.2592, 159.5775
464.7414, 158.7883
465.2235, 158.6843
465.7056, 158.3962
466.1877, 157.6510
466.6698, 156.8160
467.1519, 156.2053
467.6341, 155.7920
468.1162, 155.3736
468.5983, 154.8311
469.0804, 154.1674
469.5625, 153.4130
470.0446, 152.5022
470.5268, 151.5833
471.0089, 150.4153
471.4910, 149.3929
471.9731, 149.0878
472.4552, 149.4952
472.9373, 149.8998
473.4195, 149.4567
473.9016, 148.0810
474.3837, 147.0199
474.8658, 146.3672
475.3479, 145.9632
475.8300, 145.8851
476.3122, 145.9878
476.7943, 146.1395
477.2764, 146.3142
477.7585, 146.3190
478.2406, 145.7499
478.7227, 144.5267
479.2049, 143.4620
479.6870, 142.6295
480.1691, 142.0908
480.6512, 142.0147
481.1333, 142.2984
481.6154, 142.4693
482.0976, 142.2769
482.5797, 141.8491
483.0618, 141.3139
483.5439, 140.6672
484.0260, 140.1641
484.5081, 140.0234
484.9902, 140.0374
485.4724, 139.7343
485.9545, 138.9850
486.4366, 138.3221
486.9187, 137.8830
487.4008, 137.6504
487.8829, 137.6496
488.3651, 137.8701
488.8472, 138.1818
489.3293, 138.5106
489.8114, 138.8560
490.2935, 138.8836
490.7756, 138.5898
491.2578, 138.0489
491.7399, 136.9372
492.2220, 135.7189
492.7041, 135.0609
493.1862, 135.1698
493.6683, 135.6302
494.1505, 135.8717
494.6326, 135.8905
495.1147, 135.7069
495.5968, 134.9124
496.0789, 134.3181
496.5610, 134.3000
497.0432, 134.6942
497.5253, 135.2529
498.0074, 135.9526
498.4895, 136.4458
498.9716, 135.8902
499.4537, 134.0692
499.9359, 132.5573
500.4180, 131.6953
500.9001, 131.3129
501.3822, 131.3553
501.8643, 131.7769
502.3464, 132.2244
502.8286, 132.5776
503.3107, 132.8383
503.7928, 133.0414
504.2749, 133.1867
504.7570, 133.1553
505.2391, 132.8741
505.7213, 132.3758
506.2034, 131.7244
506.6855, 130.7598
507.1676, 130.0256
507.6497, 129.6884
508.1318, 129.6423
508.6140, 129.8813
509.0961, 130.3526
509.5782, 130.7982
510.0603, 131.0129
510.5424, 130.9968
511.0245, 130.7125
511.5067, 129.6911
511.9888, 128.9710
512.4709, 128.9275
512.9530, 129.1676
513.4351, 129.2655
513.9172, 129.1105
514.3994, 128.8827
514.8815, 128.8348
515.3636, 128.9956
515.8457, 128.9366
516.3278, 128.4682
516.8099, 128.0292
517.2921, 127.8937
517.7742, 127.8753
518.2563, 127.6480
518.7384, 127.0419
519.2205, 126.4088
519.7026, 126.1149
520.1848, 126.1385
520.6669, 126.3516
521.1490, 126.8081
521.6311, 127.2839
522.1132, 127.5608
522.5953, 127.6613
523.0775, 127.6433
523.5596, 127.4129
524.0417, 127.1590
524.5238, 127.1207
525.0059, 127.1748
525.4880, 126.8660
525.9702, 125.9607
526.4523, 124.9522
526.9344, 124.7223
527.4165, 125.7342
527.8986, 126.3378
528.3807, 126.3769
528.8629, 126.1933
529.3450, 125.8918
529.8271, 125.5252
530.3092, 125.1452
530.7913, 124.7771
531.2734, 124.4364
531.7556, 124.1375
532.2377, 123.8261
532.7198, 123.7154
533.2019, 124.0831
533.6840, 124.4603
534.1661, 124.5261
534.6483, 124.3446
535.1304, 124.2577
535.6125, 124.5905
536.0946, 125.0555
536.5767, 125.0336
537.0588, 124.4932
537.5410, 124.1317
538.0231, 124.2634
538.5052, 124.6801
538.9873, 125.0597
539.4694, 125.3965
539.9515, 125.7535
540.4337, 126.2993
540.9158, 126.7748
541.3979, 126.7723
541.8800, 126.3876
542.3621, 126.2282
542.8442, 126.7115
543.3264, 127.6052
543.8085, 128.1133
544.2906, 127.7425
544.7726, 127.6626
545.2548, 128.2636
545.7369, 128.8678
546.2190, 128.8419
546.7011, 128.2957
547.1832, 127.8332
547.6653, 127.8982
548.1475, 128.4193
548.6296, 129.2204
549.1117, 130.5821
549.5938, 131.4810
550.0759, 130.8264
550.5580, 130.1163
551.0402, 130.7105
551.5223, 132.6373
552.0044, 134.4211
552.4865, 135.2074
552.9686, 135.3001
553.4507, 135.0779
553.9329, 134.5556
554.4150, 134.2613
554.8971, 134.5929
555.3792, 135.2374
555.8613, 135.3007
556.3434, 134.3632
556.8256, 133.9985
557.3077, 135.0190
557.7898, 136.3851
558.2719, 137.1363
558.7540, 137.2699
559.2361, 137.3297
559.7183, 137.7130
560.2004, 138.2888
560.6825, 138.4708
561.1646, 137.7722
561.6467, 137.5220
562.1288, 138.3147
562.6110, 139.1742
563.0931, 139.2482
563.5752, 138.6458
564.0573, 138.2480
564.5394, 138.8159
565.0215, 139.9450
565.5037, 140.5942
565.9858, 140.7179
566.4679, 140.6476
566.9500, 140.2917
567.4321, 139.9858
567.9142, 140.1904
568.3964, 140.9351
568.8785, 141.7297
569.3606, 142.4680
569.8427, 143.1388
570.3248, 143.7659
570.8069, 144.3263
571.2891, 144.6902
571.7712, 144.7413
572.2533, 144.6762
572.7354, 145.0016
573.2175, 146.1729
573.6996, 146.9256
574.1818, 146.9885
574.6639, 146.9032
575.1460, 146.9272
575.6281, 147.0876
576.1102, 147.3435
576.5923, 147.6723
577.0745, 148.0791
577.5566, 148.6146
578.0387, 149.3235
578.5208, 149.9102
579.0029, 150.2321
579.4850, 150.4967
579.9672, 150.9333
580.4493, 151.4719
580.9314, 151.8066
581.4135, 151.6217
581.8956, 151.3553
582.3777, 151.4579
582.8599, 151.8512
583.3420, 152.2757
583.8241, 152.6704
584.3062, 152.9337
584.7883, 152.8963
585.2704, 152.4666
585.7526, 152.1823
586.2347, 151.9978
586.7168, 151.9940
587.1989, 152.3310
587.6810, 152.8341
588.1631, 153.2655
588.6453, 153.5315
589.1274, 153.6401
589.6095, 153.4848
590.0916, 152.9880
590.5737, 152.9984
591.0558, 153.9175
591.5380, 154.7776
592.0201, 154.9546
592.5022, 154.8438
592.9843, 155.0791
593.4664, 155.8962
593.9485, 156.7509
594.4307, 157.2427
594.9128, 157.4556
595.3949, 157.5855
595.8770, 157.6632
596.3591, 157.6040
596.8412, 157.2444
597.3234, 156.6829
597.8055, 156.6584
598.2876, 157.7429
598.7697, 158.5218
599.2518, 158.5959
599.7339, 158.3750
600.2161, 158.1938
600.6982, 158.1181
601.1803, 158.1046
601.6624, 158.1392
602.1445, 158.1877
602.6266, 158.1123
603.1088, 157.9510
603.5909, 157.5597
604.0730, 156.5273
604.5551, 155.5228
605.0372, 155.2581
605.5193, 155.6392
606.0015, 155.6468
606.4836, 154.6490
606.9657, 153.1098
607.4478, 151.4777
607.9299, 149.7948
608.4120, 148.2390
608.8942, 146.8975
609.3763, 145.6872
609.8584, 144.4933
610.3405, 143.3575
610.8226, 142.0841
611.3047, 140.4929
611.7869, 138.9624
612.2690, 137.6939
612.7511, 136.5997
613.2332, 135.5487
613.7153, 134.4851
614.1974, 133.3743
614.6796, 132.1244
615.1617, 130.7159
615.6438, 129.4236
616.1259, 128.2281
616.6080, 127.1880
617.0901, 126.4824
617.5723, 125.8886
618.0544, 125.0523
618.5365, 123.8379
619.0186, 122.6726
619.5007, 121.7114
619.9828, 120.9926
620.4650, 120.7379
620.9471, 120.9100
621.4292, 120.8725
621.9113, 120.1453
622.3934, 118.9431
622.8755, 118.0994
623.3577, 117.7020
623.8398, 117.5731
624.3219, 118.2301
624.8040, 118.7082
625.2861, 118.1727
625.7682, 116.8779
626.2504, 115.6906
626.7325, 115.1326
627.2145, 114.9097
627.6967, 114.4762
628.1788, 113.8193
628.6609, 113.2336
629.1430, 112.7285
629.6251, 112.3822
630.1072, 112.4195
630.5894, 112.7088
631.0715, 112.7508
631.5536, 112.2753
632.0357, 111.7511
632.5178, 111.2796
632.9999, 110.9595
633.4821, 111.0508
633.9642, 111.5640
634.4463, 112.1086
634.9284, 112.3357
635.4105, 112.2480
635.8926, 111.8506
636.3748, 110.8352
636.8569, 110.0054
637.3390, 109.4170
637.8211, 109.1045
638.3032, 109.2622
638.7853, 109.8006
639.2675, 110.1810
639.7496, 109.9128
640.2317, 109.3785
640.7138, 109.2490
641.1959, 109.4877
641.6780, 109.5942
642.1602, 109.3706
642.6423, 109.0133
643.1244, 108.7649
643.6065, 108.6430
644.0886, 108.5501
644.5707, 108.5074
645.0529, 108.4698
645.5350, 108.3984
646.0171, 108.3283
646.4992, 108.3197
646.9813, 108.3839
647.4634, 108.4629
647.9456, 108.4922
648.4277, 108.4762
648.9098, 108.4891
649.3919, 108.5884
649.8740, 108.5627
650.3561, 108.2151
650.8383, 107.7708
651.3204, 107.4944
651.8025, 107.4077
652.2846, 107.3110
652.7667, 107.0360
653.2488, 106.7874
653.7310, 106.8506
654.2131, 107.1280
654.6952, 107.2668
655.1773, 107.1163
655.6594, 106.8154
656.1415, 106.5605
656.6237, 106.3278
657.1058, 106.2591
657.5879, 106.6188
658.0700, 106.8533
658.5521, 106.7773
659.0342, 106.5101
659.5164, 106.1490
659.9985, 105.7221
660.4806, 105.3998
660.9627, 105.3439
661.4448, 105.4885
661.9269, 105.7470
662.4091, 106.1153
662.8912, 106.3358
663.3733, 106.2725
663.8554, 106.0053
664.3375, 105.6592
664.8196, 105.1325
665.3018, 104.8352
665.7839, 104.9746
666.2660, 105.1457
666.7481, 105.0307
667.2302, 104.8238
667.7123, 104.9827
668.1945, 105.6603
668.6766, 106.3158
669.1587, 106.0947
669.6408, 105.0825
670.1229, 104.6577
670.6050, 105.0198
671.0872, 105.4881
671.5693, 105.7725
672.0514, 105.9336
672.5335, 106.1111
673.0156, 106.3509
673.4977, 106.3850
673.9799, 105.9334
674.4620, 105.4065
674.9441, 105.1400
675.4262, 105.0971
675.9083, 105.1456
676.3904, 105.2272
676.8726, 105.2418
677.3547, 104.9628
677.8368, 104.2951
678.3189, 103.9844
678.8010, 104.2943
679.2831, 104.5822
679.7653, 104.5485
680.2474, 104.3784
680.7295, 104.3088
681.2116, 104.3865
681.6937, 104.4375
682.1758, 104.3093
682.6580, 104.1345
683.1401, 104.1101
683.6222, 104.2138
684.1043, 104.2830
684.5864, 104.2430
685.0685, 104.1279
685.5507, 103.9885
686.0328, 103.8066
686.5149, 103.6735
686.9970, 103.6178
687.4791, 103.5797
687.9612, 103.5341
688.4434, 103.4995
688.9255, 103.4872
689.4076, 103.5014
689.8897, 103.5814
690.3718, 103.8524
690.8539, 104.1761
691.3361, 104.2291
691.8182, 104.0193
692.3003, 103.8751
692.7824, 103.9613
693.2645, 104.1201
693.7466, 104.1040
694.2288, 103.8842
694.7109, 103.5965
695.1930, 103.0789
695.6751, 102.6871
696.1572, 102.6727
696.6393, 102.7928
697.1215, 102.6534
697.6036, 102.2047
698.0857, 101.8960
698.5678, 102.2716
699.0499, 103.0705
699.5320, 103.5315
700.0142, 103.6417
700.4963, 103.6246
700.9784, 103.5340
701.4605, 103.3994
701.9426, 103.2757
702.4247, 103.1764
702.9069, 102.9537
703.3890, 102.4054
703.8711, 101.9649
704.3532, 101.8938
704.8353, 101.9768
705.3174, 101.9516
705.7996, 101.7672
706.2817, 101.5188
706.7638, 101.2437
707.2459, 100.9977
707.7280, 101.0366
708.2101, 101.4136
708.6923, 101.5422
709.1743, 101.1088
709.6564, 100.5968
710.1385, 100.6426
710.6207, 101.1788
711.1028, 101.3445
711.5849, 100.6514
712.0670, 100.0901
712.5491, 100.2153
713.0313, 100.5669
713.5134, 100.5604
713.9955, 100.1716
714.4776, 99.83410
714.9597, 99.89993
715.4418, 100.1944
715.9240, 100.2100
716.4061, 99.90182
716.8882, 99.71696
717.3703, 99.79484
717.8524, 99.92948
718.3345, 99.97050
718.8167, 99.93159
719.2988, 99.85184
719.7809, 99.69706
720.2630, 99.56098
720.7451, 99.55091
721.2272, 99.52455
721.7094, 98.79193
722.1915, 99.35863
722.6736, 99.64793
723.1557, 99.67472
723.6378, 98.65279
724.1199, 98.98508
724.6021, 98.77463
725.0842, 98.54195
725.5663, 99.06483
726.0484, 98.19543
726.5305, 98.70632
727.0126, 98.66624
727.4948, 98.87830
727.9769, 98.54432
728.4590, 98.37901
728.9411, 98.75993
729.4232, 98.83839
729.9053, 98.44156
730.3875, 98.66965
730.8696, 97.78117
731.3517, 97.87253
731.8338, 98.38661
732.3159, 98.01723
732.7980, 98.25533
733.2802, 98.26205
733.7623, 97.21735
734.2444, 98.00120
734.7265, 97.99426
735.2086, 97.17535
735.6907, 97.89655
736.1729, 97.18957
736.6550, 97.47013
737.1371, 97.51730
737.6192, 97.49580
738.1013, 97.37589
738.5834, 97.19117
739.0656, 96.98366
739.5477, 96.76710
740.0298, 96.54750
740.5119, 96.30248
740.9940, 96.07277
741.4761, 96.05766
741.9583, 96.29435
742.4404, 96.54679
742.9225, 96.83791
743.4046, 97.00854
743.8867, 96.80067
744.3688, 96.29491
744.8510, 95.95601
745.3331, 96.03371
745.8152, 96.01768
746.2973, 95.47919
746.7794, 94.94411
747.2615, 95.11071
747.7437, 95.85107
748.2258, 96.43572
748.7079, 96.41383
749.1900, 96.02431
749.6721, 95.61549
750.1542, 95.19087
750.6364, 95.02158
751.1185, 95.23207
751.6006, 95.39462
752.0827, 95.19279
752.5648, 94.76977
753.0469, 94.51500
753.5291, 94.45265
754.0112, 94.46993
754.4933, 94.61825
754.9754, 94.77676
755.4575, 94.89657
755.9396, 94.96426
756.4218, 94.99313
756.9039, 94.98176
757.3860, 94.84927
757.8681, 94.39662
758.3502, 93.75591
758.8323, 93.45115
759.3145, 93.49944
759.7966, 93.50407
760.2787, 93.29299
760.7608, 93.04240
761.2429, 93.01074
761.7250, 93.23603
762.2072, 93.22326
762.6893, 92.81786
763.1714, 92.39423
763.6535, 91.88650
764.1356, 91.50817
764.6177, 91.57474
765.0999, 91.98857
765.5820, 92.24285
766.0641, 91.95152
766.5462, 91.55189
767.0283, 91.71863
767.5104, 92.27774
767.9926, 92.51089
768.4747, 92.29051
768.9568, 92.12549
769.4389, 92.41843
769.9210, 92.97824
770.4031, 93.16910
770.8853, 92.86328
771.3674, 92.43099
771.8495, 91.54562
772.3316, 90.89092
772.8137, 90.99749
773.2958, 91.43388
773.7780, 91.49833
774.2601, 91.01379
774.7422, 90.52603
775.2243, 90.33365
775.7064, 90.36288
776.1885, 90.61549
776.6707, 91.01441
777.1528, 91.35934
777.6349, 91.57967
778.1170, 91.56728
778.5991, 91.13022
779.0812, 90.30312
779.5634, 89.86587
780.0455, 89.27953
780.5276, 89.96294
781.0097, 90.30730
781.4918, 90.33082
781.9739, 89.07258
782.4561, 89.46944
782.9382, 89.20304
783.4203, 88.90943
783.9024, 89.53927
784.3845, 88.46745
784.8666, 89.08266
785.3488, 89.02441
785.8309, 89.27441
786.3130, 88.85699
786.7951, 88.64571
787.2772, 89.10204
787.7593, 88.50777
788.2415, 88.28405
788.7236, 88.10264
789.2057, 87.93304
789.6878, 87.94714
790.1699, 88.29774
790.6520, 88.81856
791.1342, 89.26102
791.6162, 89.65107
792.0983, 89.82327
792.5804, 89.62313
793.0626, 89.37224
793.5447, 89.11021
794.0268, 88.91615
794.5089, 88.91476
794.9910, 89.08731
795.4731, 89.25584
795.9553, 89.35139
796.4374, 89.30877
796.9195, 88.89604
797.4016, 88.22949
797.8837, 87.85841
798.3658, 87.88702
798.8480, 88.09483
799.3301, 88.36748
799.8122, 88.63470
800.2943, 88.64783
800.7764, 88.27808
801.2585, 87.93199
801.7407, 87.49952
802.2228, 87.21809
802.7049, 87.31619
803.1870, 87.56405
803.6691, 87.61958
804.1512, 87.41670
804.6334, 87.22927
805.1155, 87.07389
805.5976, 87.09602
806.0797, 87.66676
806.5618, 88.46983
807.0439, 88.76796
807.5261, 88.40074
808.0082, 87.91002
808.4903, 87.81066
808.9724, 87.98666
809.4545, 87.98900
809.9366, 87.78822
810.4188, 87.60140
810.9009, 87.43201
811.3830, 87.35992
811.8651, 87.55314
812.3472, 87.88173
812.8293, 87.86122
813.3115, 87.21510
813.7936, 86.81363
814.2757, 86.96254
814.7578, 87.20881
815.2399, 87.44301
815.7220, 87.52055
816.2042, 87.09391
816.6863, 86.11557
817.1684, 85.32238
817.6505, 85.53154
818.1326, 86.26615
818.6147, 86.69740
819.0969, 86.84636
819.5790, 86.84519
820.0611, 86.72607
820.5432, 86.55374
821.0253, 86.36168
821.5074, 86.18388
821.9896, 86.27407
822.4717, 86.82343
822.9538, 87.20596
823.4359, 87.31670
823.9180, 87.28152
824.4001, 87.05479
824.8823, 86.76385
825.3644, 86.69089
825.8465, 86.96488
826.3286, 87.10323
826.8107, 86.72395
827.2928, 86.31734
827.7750, 86.36632
828.2571, 86.67467
828.7392, 86.83302
829.2213, 86.72230
829.7034, 86.47408
830.1855, 86.15702
830.6677, 85.83726
831.1498, 85.72823
831.6319, 85.82455
832.1140, 85.92725
832.5961, 85.98425
833.0782, 86.09028
833.5604, 86.38719
834.0425, 86.76844
834.5246, 86.76961
835.0067, 86.04514
835.4888, 85.52654
835.9709, 85.22502
836.4531, 85.10509
836.9352, 85.25026
837.4173, 85.52273
837.8994, 85.73812
838.3815, 85.86172
838.8636, 85.94130
839.3458, 85.88087
839.8279, 85.89635
840.3100, 86.38440
840.7921, 87.03812
841.2742, 87.18572
841.7563, 86.73953
842.2385, 86.19287
842.7206, 85.93240
843.2027, 85.87570
843.6848, 85.83608
844.1669, 85.81435
844.6490, 85.77248
845.1312, 85.68848
845.6133, 85.64226
846.0954, 85.65431
846.5775, 85.76066
847.0596, 86.08685
847.5417, 86.82648
848.0239, 87.16358
848.5060, 86.85436
848.9881, 86.45506
849.4702, 86.04819
849.9523, 85.70348
850.4344, 85.41978
850.9166, 85.23784
851.3987, 85.36134
851.8808, 86.17054
852.3629, 86.91788
852.8450, 86.80675
853.3271, 86.30663
853.8093, 86.20488
854.2914, 86.52055
854.7735, 86.83243
855.2556, 86.91304
855.7377, 86.79492
856.2198, 86.44192
856.7020, 85.87227
857.1841, 85.59200
857.6662, 85.65681
858.1483, 85.75252
858.6304, 85.76405
859.1125, 85.75651
859.5947, 85.79457
860.0768, 85.87784
860.5589, 86.04321
861.0410, 86.38257
861.5231, 86.67013
862.0052, 86.92136
862.4874, 87.07535
862.9695, 87.02251
863.4516, 86.85387
863.9337, 86.76552
864.4158, 86.81538
864.8979, 86.92474
865.3801, 87.16195
865.8622, 87.34345
866.3443, 87.24308
866.8264, 86.92489
867.3085, 86.51974
867.7906, 86.08747
868.2728, 85.71996
868.7549, 85.48694
869.2370, 85.40726
869.7191, 85.62143
870.2012, 86.12524
870.6833, 86.40086
871.1655, 86.33218
871.6476, 86.17849
872.1297, 86.11112
872.6118, 86.08100
873.0939, 85.95219
873.5760, 85.63744
874.0581, 85.48206
874.5402, 85.55251
875.0223, 85.70755
875.5045, 86.05796
875.9866, 86.37365
876.4687, 86.40553
876.9508, 86.16148
877.4329, 85.86755
877.9150, 85.51632
878.3972, 85.23987
878.8793, 85.12858
879.3614, 85.11572
879.8435, 85.12217
880.3256, 85.15551
880.8077, 85.30244
881.2899, 85.60484
881.7720, 85.87318
882.2541, 85.85391
882.7362, 85.63072
883.2183, 85.38396
883.7004, 85.13850
884.1826, 85.13742
884.6647, 85.47581
885.1468, 85.84590
885.6289, 85.92615
886.1110, 85.79258
886.5931, 85.89284
887.0753, 86.41000
887.5574, 86.59516
888.0395, 86.21484
888.5216, 85.74294
889.0037, 85.39885
889.4858, 85.14025
889.9680, 84.90549
890.4501, 84.70145
890.9322, 84.47166
891.4143, 84.01728
891.8964, 83.76376
892.3785, 84.06352
892.8607, 84.53256
893.3428, 84.82181
893.8249, 84.88389
894.3070, 84.73557
894.7891, 84.29084
895.2712, 83.92573
895.7534, 84.08994
896.2355, 84.49091
896.7176, 84.70815
897.1997, 84.72268
897.6818, 84.62474
898.1639, 84.45053
898.6461, 84.17868
899.1282, 83.70733
899.6103, 83.15714
900.0924, 83.13171
900.5745, 83.66137
901.0566, 84.06052
901.5388, 84.21728
902.0209, 84.10433
902.5030, 83.60021
902.9851, 82.90958
903.4672, 82.62312
903.9493, 82.88322
904.4315, 83.14070
904.9136, 83.27231
905.3957, 83.56293
905.8778, 84.46716
906.3599, 85.30428
906.8420, 85.23313
907.3242, 84.34753
907.8063, 83.71241
908.2884, 83.65633
908.7705, 83.78419
909.2526, 84.19742
909.7347, 84.52357
910.2169, 84.26958
910.6990, 83.69524
911.1811, 83.39387
911.6632, 83.56775
912.1453, 83.98762
912.6274, 84.72298
913.1096, 85.41727
913.5917, 85.43050
914.0738, 84.95445
914.5559, 84.46078
915.0380, 84.08797
915.5201, 84.02434
916.0023, 84.44388
916.4844, 85.08786
916.9665, 85.40525
917.4486, 85.39794
917.9307, 85.27596
918.4128, 85.00240
918.8950, 84.90049
919.3771, 85.13192
919.8592, 85.52100
920.3413, 85.85310
920.8234, 86.13322
921.3055, 86.48587
921.7877, 87.09451
922.2698, 87.45141
922.7519, 87.26160
923.2340, 87.05583
923.7161, 87.10742
924.1982, 87.32948
924.6804, 87.56673
925.1625, 87.80250
925.6446, 88.06271
926.1267, 88.32804
926.6088, 88.64787
927.0909, 89.06023
927.5731, 89.52852
928.0552, 89.96748
928.5373, 90.41565
929.0194, 91.05937
929.5015, 92.04177
929.9836, 93.01630
930.4658, 93.59622
930.9479, 94.05294
931.4300, 94.75302
931.9121, 95.68919
932.3942, 96.81397
932.8763, 98.07977
933.3585, 99.22804
933.8406, 99.91665
934.3227, 100.4646
934.8048, 101.8173
935.2869, 103.8543
935.7690, 105.2500
936.2512, 105.7572
936.7333, 107.1890
937.2154, 110.7044
937.6975, 115.0326
938.1796, 117.9619
938.6617, 119.4017
939.1439, 121.6201
939.6260, 124.7650
940.1081, 128.3248
940.5902, 132.4155
941.0723, 136.6069
941.5544, 140.3801
942.0366, 144.0049
942.5187, 148.4989
943.0008, 154.2357
943.4829, 159.9189
943.9650, 165.2103
944.4471, 170.7878
944.9293, 177.1083
945.4114, 183.7033
945.8935, 189.8966
946.3756, 195.7973
946.8577, 202.2419
947.3398, 209.6874
947.8220, 217.4114
948.3041, 225.2432
948.7862, 232.9726
949.2683, 240.1877
949.7504, 247.1997
950.2325, 254.7283
950.7147, 262.9473
951.1968, 271.3120
951.6789, 279.7319
952.1610, 287.8073
952.6431, 294.7968
953.1252, 301.1973
953.6074, 308.3182
954.0895, 316.0872
954.5716, 323.3049
955.0537, 329.3992
955.5358, 334.5307
956.0179, 338.9551
956.5000, 342.6187
956.9821, 345.1857
957.4642, 346.6876
957.9464, 347.6999
958.4285, 348.3863
958.9106, 348.3122
959.3927, 347.1084
959.8748, 345.0113
960.3569, 342.5678
960.8391, 339.6418
961.3212, 337.0862
961.8033, 334.9502
962.2854, 333.0310
962.7675, 331.0626
963.2496, 329.6174
963.7318, 329.3799
964.2139, 330.2225
964.6960, 331.1650
965.1781, 331.3479
965.6602, 333.0602
966.1423, 336.7437
966.6245, 341.4098
967.1066, 347.3581
967.5887, 353.6808
968.0708, 359.3402
968.5529, 364.2798
969.0350, 368.7460
969.5172, 373.5515
969.9993, 376.8598
970.4814, 378.0723
970.9635, 377.5619
971.4456, 375.9056
971.9277, 372.6482
972.4099, 366.9221
972.8920, 358.5239
973.3741, 347.8914
973.8562, 334.7216
974.3383, 319.9987
974.8204, 304.0718
975.3026, 287.4135
975.7847, 270.2043
976.2668, 252.9055
976.7489, 236.3133
977.2310, 220.8254
977.7131, 206.6396
978.1953, 193.9877
978.6774, 182.7602
979.1595, 172.8826
979.6416, 164.1288
980.1237, 156.0644
980.6058, 148.5627
981.0880, 141.7362
981.5701, 135.6561
982.0522, 130.3527
982.5343, 126.1237
983.0164, 122.8360
983.4985, 119.7434
983.9807, 116.8381
984.4628, 114.1733
984.9449, 111.7811
985.4270, 109.5350
985.9091, 107.3350
986.3912, 105.1839
986.8734, 103.0065
987.3555, 100.7449
987.8376, 98.98425
988.3197, 97.78004
988.8018, 96.94712
989.2839, 96.49575
989.7661, 96.23573
990.2482, 96.02916
990.7303, 95.83076
991.2124, 95.27382
991.6945, 94.14027
992.1766, 93.14787
992.6588, 92.23241
993.1409, 91.61111
993.6230, 91.55528
994.1051, 91.71308
994.5872, 91.64249
995.0693, 91.34595
995.5515, 91.01958
996.0336, 90.45987
996.5157, 90.17242
996.9978, 90.48055
997.4799, 90.78904
997.9620, 90.72128
998.4442, 90.48237
998.9263, 90.40611
999.4084, 90.52641
999.8905, 90.57520
1000.373, 90.34230
1000.855, 90.22123
1001.337, 90.48961
1001.819, 90.79832
1002.301, 90.80910
1002.783, 90.66557
1003.265, 90.74196
1003.747, 91.11924
1004.230, 91.30097
1004.712, 90.57285
1005.194, 90.10808
1005.676, 91.10283
1006.158, 92.47665
1006.640, 92.94249
1007.122, 92.64828
1007.604, 92.30212
1008.086, 92.15458
1008.569, 92.30199
1009.051, 93.03555
1009.533, 93.90263
1010.015, 94.46174
1010.497, 94.77602
1010.979, 94.87759
1011.461, 94.84914
1011.943, 94.94389
1012.426, 95.28069
1012.908, 95.60896
1013.390, 95.61353
1013.872, 95.45628
1014.354, 95.48804
1014.836, 95.60654
1015.318, 95.37503
1015.800, 94.82230
1016.282, 94.67020
1016.765, 95.35108
1017.247, 96.20338
1017.729, 96.35249
1018.211, 95.89375
1018.693, 94.98240
1019.175, 93.72176
1019.657, 92.76913
1020.139, 92.26057
1020.622, 91.99220
1021.104, 91.85899
1021.586, 91.70241
1022.068, 91.17715
1022.550, 90.33092
1023.032, 89.67363
1023.514, 89.20735
1023.996, 88.74779
1024.478, 88.23936
1024.961, 87.86919
1025.443, 87.80007
1025.925, 87.87431
1026.407, 87.76498
1026.889, 87.47456
1027.371, 86.86575
1027.853, 85.80839
1028.335, 85.20762
1028.818, 85.36942
1029.300, 85.78779
1029.782, 86.09037
1030.264, 86.34278
1030.746, 86.80749
1031.228, 87.67857
1031.710, 87.47318
1032.192, 85.74575
1032.674, 84.24768
1033.156, 83.44294
1033.639, 82.98591
1034.121, 82.61150
1034.603, 82.36922
1035.085, 82.44488
1035.567, 83.01675
1036.049, 83.22258
1036.531, 82.88467
1037.013, 82.51591
1037.496, 82.15548
1037.978, 81.93656
1038.460, 82.07977
1038.942, 82.42290
1039.424, 82.45251
1039.906, 82.08286
1040.388, 81.65588
1040.870, 81.11942
1041.353, 80.60163
1041.835, 79.95638
1042.317, 79.50357
1042.799, 79.61967
1043.281, 80.11385
1043.763, 80.44807
1044.245, 80.64075
1044.727, 80.59602
1045.209, 80.01150
1045.692, 79.58700
1046.174, 79.63097
1046.656, 79.79607
1047.138, 79.77946
1047.620, 79.66814
1048.102, 79.72886
1048.584, 80.02388
1049.066, 80.33315
1049.548, 80.79402
1050.031, 81.04772
1050.513, 80.76498
1050.995, 80.42261
1051.477, 80.45076
1051.959, 80.72172
1052.441, 80.85266
1052.923, 80.75274
1053.405, 80.70689
1053.888, 80.75633
1054.370, 80.89271
1054.852, 81.23151
1055.334, 81.55045
1055.816, 81.64795
1056.298, 81.58260
1056.780, 81.50340
1057.262, 81.43118
1057.745, 81.38670
1058.227, 81.37486
1058.709, 81.39406
1059.191, 81.74497
1059.673, 81.86001
1060.155, 80.98738
1060.637, 79.57699
1061.119, 78.69717
1061.601, 78.59636
1062.083, 78.32658
1062.566, 77.37051
1063.048, 76.42522
1063.530, 75.69502
1064.012, 75.19253
1064.494, 75.21326
1064.976, 75.36764
1065.458, 74.77824
1065.940, 73.27325
1066.423, 72.09038
1066.905, 71.97997
1067.387, 71.94065
1067.869, 71.59274
1068.351, 71.05270
1068.833, 70.22379
1069.315, 69.36315
1069.797, 68.93371
1070.280, 69.00161
1070.762, 69.11175
1071.244, 69.13731
1071.726, 69.08408
1072.208, 68.88345
1072.690, 68.67374
1073.172, 68.54168
1073.654, 68.49128
1074.136, 68.54507
1074.619, 68.68654
1075.101, 68.76841
1075.583, 68.63091
1076.065, 68.59171
1076.547, 68.98374
1077.029, 69.35262
1077.511, 69.22282
1077.993, 68.90059
1078.475, 68.88118
1078.958, 69.19692
1079.440, 69.53785
1079.922, 69.81480
1080.404, 70.04406
1080.886, 70.17115
1081.368, 70.32114
1081.850, 70.63462
1082.332, 70.99544
1082.814, 71.23644
1083.297, 71.36325
1083.779, 71.51403
1084.261, 71.76402
1084.743, 71.94604
1085.225, 71.83925
1085.707, 71.80056
1086.189, 72.36005
1086.671, 72.90005
1087.154, 72.38447
1087.636, 71.19569
1088.118, 70.92643
1088.600, 72.28854
1089.082, 73.11352
1089.564, 71.98038
1090.046, 70.69760
1090.528, 70.30988
1091.010, 70.24058
1091.493, 69.91441
1091.975, 69.38506
1092.457, 68.94331
1092.939, 68.65852
1093.421, 68.38241
1093.903, 68.04733
1094.385, 67.72513
1094.867, 67.69903
1095.349, 67.47009
1095.832, 66.26823
1096.314, 64.69161
1096.796, 63.97441
1097.278, 64.30352
1097.760, 64.42270
1098.242, 63.75011
1098.724, 63.07980
1099.206, 62.69069
1099.689, 62.36889
1100.171, 61.83453
1100.653, 61.34691
1101.135, 61.39886
1101.617, 61.96148
1102.099, 62.29378
1102.581, 62.17931
1103.063, 61.89526
1103.546, 61.20197
1104.028, 60.70650
1104.510, 60.99419
1104.992, 61.45789
1105.474, 61.34449
1105.956, 60.74936
1106.438, 60.33781
1106.920, 60.25946
1107.402, 60.23238
1107.885, 60.21145
1108.367, 60.23484
1108.849, 60.51702
1109.331, 60.67430
1109.813, 60.24987
1110.295, 59.45111
1110.777, 58.91274
1111.259, 58.80495
1111.741, 58.41113
1112.224, 57.25292
1112.706, 56.41224
1113.188, 56.35950
1113.670, 56.43365
1114.152, 56.19971
1114.634, 55.82081
1115.116, 55.63408
1115.598, 55.67806
1116.081, 55.44697
1116.563, 54.55407
1117.045, 54.06333
1117.527, 54.35441
1118.009, 54.65493
1118.491, 54.56491
1118.973, 54.34747
1119.455, 54.38909
1119.938, 54.62986
1120.420, 54.47768
1120.902, 53.67775
1121.384, 53.11942
1121.866, 52.89286
1122.348, 52.77203
1122.830, 52.74410
1123.312, 52.66780
1123.794, 52.34058
1124.276, 51.92069
1124.759, 51.96281
1125.241, 52.61328
1125.723, 52.86671
1126.205, 52.62796
1126.687, 52.31820
1127.169, 51.94654
1127.651, 51.86596
1128.133, 52.41073
1128.616, 53.15810
1129.098, 53.32263
1129.580, 52.94180
1130.062, 52.65303
1130.544, 52.46017
1131.026, 52.35955
1131.508, 52.36682
1131.990, 52.27145
1132.473, 51.95039
1132.955, 51.67701
1133.437, 51.83548
1133.919, 52.20561
1134.401, 51.96376
1134.883, 51.16984
1135.365, 50.44160
1135.847, 49.84580
1136.329, 49.83131
1136.812, 50.52027
1137.294, 51.08755
1137.776, 50.86317
1138.258, 50.24666
1138.740, 49.84238
1139.222, 49.65710
1139.704, 49.81279
1140.186, 50.21399
1140.668, 50.46612
1141.151, 50.51040
1141.633, 50.50498
1142.115, 50.53100
1142.597, 50.53662
1143.079, 50.42828
1143.561, 50.29462
1144.043, 50.33724
1144.525, 50.44158
1145.008, 50.32048
1145.490, 50.04258
1145.972, 49.92068
1146.454, 50.03428
1146.936, 50.15909
1147.418, 50.11152
1147.900, 50.08110
1148.382, 50.40188
1148.865, 50.70949
1149.347, 50.49079
1149.829, 49.98899
1150.311, 49.58508
1150.793, 49.37722
1151.275, 49.44826
1151.757, 49.91311
1152.239, 50.21485
1152.721, 49.76795
1153.203, 49.37313
1153.686, 49.69542
1154.168, 50.21495
1154.650, 50.44822
1155.132, 50.40837
1155.614, 50.25935
1156.096, 50.03180
1156.578, 49.61089
1157.060, 48.40022
1157.543, 47.81031
1158.025, 48.97001
1158.507, 50.02769
1158.989, 49.71296
1159.471, 48.81696
1159.953, 48.27124
1160.435, 48.09958
1160.917, 48.14719
1161.400, 48.60600
1161.882, 48.85135
1162.364, 48.77269
1162.846, 48.63611
1163.328, 48.40784
1163.810, 48.28054
1164.292, 48.46239
1164.774, 48.78479
1165.256, 48.87934
1165.739, 48.72711
1166.221, 48.70266
1166.703, 48.90027
1167.185, 48.81972
1167.667, 48.26788
1168.149, 47.95002
1168.631, 48.25259
1169.113, 48.71355
1169.595, 48.85207
1170.078, 48.68275
1170.560, 48.09045
1171.042, 47.10552
1171.524, 46.92808
1172.006, 47.57643
1172.488, 47.99803
1172.970, 47.92832
1173.452, 47.76058
1173.934, 47.74242
1174.417, 47.83529
1174.899, 48.07864
1175.381, 48.33888
1175.863, 48.18246
1176.345, 47.75501
1176.827, 47.47303
1177.309, 47.36272
1177.791, 47.28175
1178.274, 47.18358
1178.756, 47.15960
1179.238, 47.34567
1179.720, 47.46711
1180.202, 47.11135
1180.684, 46.61626
1181.166, 46.38528
1181.648, 46.33645
1182.130, 46.30296
1182.613, 46.26361
1183.095, 46.28642
1183.577, 46.40916
1184.059, 46.47102
1184.541, 46.35556
1185.023, 46.19825
1185.505, 45.96264
1185.987, 45.82195
1186.469, 46.00082
1186.952, 46.33525
1187.434, 46.54871
1187.916, 46.61669
1188.398, 46.65703
1188.880, 46.72166
1189.362, 46.70171
1189.844, 46.47190
1190.326, 46.31019
1190.809, 46.39760
1191.291, 46.48551
1191.773, 46.34393
1192.255, 46.07348
1192.737, 45.90089
1193.219, 45.82369
1193.701, 45.89717
1194.183, 46.18373
1194.666, 46.37665
1195.148, 46.41756
1195.630, 46.44651
1196.112, 46.54516
1196.594, 46.57526
1197.076, 46.38124
1197.558, 46.01581
1198.040, 45.54230
1198.522, 45.00988
1199.005, 44.89179
1199.487, 45.14994
1199.969, 45.39037
1200.451, 45.51015
1200.933, 45.39954
1201.415, 44.99287
1201.897, 44.63355
1202.379, 44.79050
1202.861, 45.13827
1203.344, 45.11066
1203.826, 44.92825
1204.308, 45.06084
1204.790, 45.35514
1205.272, 45.30674
1205.754, 44.86493
1206.236, 44.46083
1206.718, 44.30486
1207.201, 44.22644
1207.683, 44.19476
1208.165, 44.12090
1208.647, 43.78626
1209.129, 43.51527
1209.611, 43.78649
1210.093, 44.33195
1210.575, 44.45848
1211.057, 44.05835
1211.540, 43.97534
1212.022, 44.93791
1212.504, 45.27100
1212.986, 44.11421
1213.468, 43.20445
1213.950, 43.28350
1214.432, 43.67722
1214.914, 43.84313
1215.396, 43.81816
1215.879, 43.66113
1216.361, 43.33780
1216.843, 43.40036
1217.325, 43.95121
1217.807, 44.12495
1218.289, 43.74230
1218.771, 43.48517
1219.253, 43.67748
1219.736, 43.91119
1220.218, 43.75441
1220.700, 43.37843
1221.182, 43.09486
1221.664, 42.92137
1222.146, 42.98574
1222.628, 43.20751
1223.110, 43.30237
1223.593, 43.24400
1224.075, 43.17278
1224.557, 43.15251
1225.039, 43.20631
1225.521, 43.39471
1226.003, 43.61111
1226.485, 43.82134
1226.967, 43.95250
1227.449, 43.89644
1227.932, 43.72631
1228.414, 43.48464
1228.896, 43.24041
1229.378, 43.24838
1229.860, 43.69645
1230.342, 43.89119
1230.824, 43.46472
1231.306, 43.05848
1231.788, 42.85503
1232.271, 42.72596
1232.753, 42.59728
1233.235, 42.49758
1233.717, 42.48767
1234.199, 42.54283
1234.681, 42.48313
1235.163, 42.26082
1235.645, 42.15940
1236.128, 42.19634
1236.610, 42.29855
1237.092, 42.46233
1237.574, 42.55208
1238.056, 42.48530
1238.538, 42.31099
1239.020, 42.05691
1239.502, 41.79211
1239.984, 41.70732
1240.467, 41.74878
1240.949, 41.77849
1241.431, 41.78502
1241.913, 41.79374
1242.395, 41.79525
1242.877, 41.70015
1243.359, 41.45015
1243.841, 41.24316
1244.323, 41.26098
1244.806, 41.33229
1245.288, 41.52467
1245.770, 41.52801
1246.252, 40.72694
1246.734, 39.71630
1247.216, 39.57843
1247.698, 40.27468
1248.180, 40.68375
1248.662, 40.52694
1249.145, 40.38453
1249.627, 40.23214
1250.109, 40.20408
1250.591, 40.42155
1251.073, 40.58467
1251.555, 40.45563
1252.037, 40.31321
1252.519, 40.58830
1253.002, 41.13787
1253.484, 41.29348
1253.966, 41.06100
1254.448, 40.58902
1254.930, 39.92759
1255.412, 39.72874
1255.894, 40.08947
1256.376, 40.42293
1256.859, 40.41576
1257.341, 40.25898
1257.823, 40.11671
1258.305, 39.97980
1258.787, 39.49529
1259.269, 38.73195
1259.751, 39.38877
1260.233, 39.76819
1260.715, 39.88510
1261.198, 38.95335
1261.680, 39.37575
1262.162, 39.25544
1262.644, 39.11289
1263.126, 39.72588
1263.608, 38.94662
1264.090, 39.54763
1264.572, 39.59766
1265.054, 39.89986
1265.537, 39.65606
1266.019, 39.58087
1266.501, 40.05190
1266.983, 40.22049
1267.465, 39.91378
1267.947, 40.23201
1268.429, 39.43366
1268.911, 39.61513
1269.394, 39.54796
1269.876, 39.60162
1270.358, 40.10115
1270.840, 40.40350
1271.322, 39.86235
1271.804, 39.09893
1272.286, 39.06559
1272.768, 39.44701
1273.250, 39.83696
1273.733, 40.16002
1274.215, 40.32221
1274.697, 40.32994
1275.179, 40.20739
1275.661, 39.97384
1276.143, 39.75402
1276.625, 39.55980
1277.107, 39.45700
1277.589, 39.57164
1278.072, 39.64536
1278.554, 39.56574
1279.036, 39.39657
1279.518, 39.17906
1280.000, 38.90936
1280.482, 38.50028
1280.964, 38.00706
1281.446, 38.20481
1281.929, 39.23198
1282.411, 39.74638
1282.893, 39.65991
1283.375, 39.58630
1283.857, 39.67706
1284.339, 39.54179
1284.821, 38.93740
1285.303, 38.67004
1285.786, 39.51149
1286.268, 41.46280
##END=



