##NAMES=Wollastonite
##RRUFFID=R040008
##IDEAL CHEMISTRY=CaSiO_3_
##LOCALITY=Lake Baikal, Siberia, Russia
##OWNER=RRUFF
##SOURCE=University of Arizona Mineral Museum
##DESCRIPTION=2M polytype. Colorless parallel acicular crystals
##STATUS=The identification of this mineral has been confirmed by X-ray diffraction and chemical analysis
##URL=rruff.info/R040008
##MEASURED CHEMISTRY=Ca_1.00_Si_1.00_O_3_; trace amounts of Fe and Mn
112.904, 2260.546
113.386, 2466.142
113.868, 2699.108
114.351, 2912.195
114.833, 3094.469
115.315, 3268.406
115.797, 3443.210
116.279, 3616.851
116.761, 3785.304
117.243, 3942.770
117.725, 4089.561
118.207, 4238.825
118.690, 4404.032
119.172, 4559.635
119.654, 4687.297
120.136, 4754.083
120.618, 4784.024
121.100, 4831.040
121.582, 4902.321
122.064, 4954.518
122.547, 5010.190
123.029, 5034.432
123.511, 5006.109
123.993, 4928.593
124.475, 4822.961
124.957, 4711.676
125.439, 4594.684
125.921, 4474.091
126.404, 4329.695
126.886, 4196.760
127.368, 4099.212
127.850, 4039.878
128.332, 4005.150
128.814, 3975.580
129.296, 3947.952
129.778, 3932.651
130.260, 3930.726
130.743, 3938.607
131.225, 3951.160
131.707, 3967.088
132.189, 3992.440
132.671, 4039.172
133.153, 4127.311
133.635, 4205.492
134.117, 4266.419
134.600, 4318.747
135.082, 4370.192
135.564, 4423.088
136.046, 4480.266
136.528, 4550.396
137.010, 4646.572
137.492, 4732.278
137.974, 4804.891
138.456, 4862.986
138.939, 4900.449
139.421, 4912.208
139.903, 4909.021
140.385, 4918.688
140.867, 4944.506
141.349, 4972.915
141.831, 5002.844
142.313, 5032.430
142.796, 5056.460
143.278, 5071.491
143.760, 5080.930
144.242, 5093.950
144.724, 5115.045
145.206, 5132.163
145.688, 5132.018
146.170, 5120.478
146.652, 5122.776
147.135, 5156.149
147.617, 5206.574
148.099, 5240.448
148.581, 5246.355
149.063, 5253.971
149.545, 5284.682
150.027, 5336.525
150.509, 5389.318
150.992, 5426.126
151.474, 5464.155
151.956, 5532.375
152.438, 5641.267
152.920, 5767.144
153.402, 5890.511
153.884, 6011.078
154.366, 6135.462
154.848, 6264.812
155.331, 6400.472
155.813, 6547.881
156.295, 6719.609
156.777, 6885.878
157.259, 7018.096
157.741, 7115.890
158.223, 7183.694
158.705, 7207.463
159.187, 7206.631
159.669, 7196.694
160.152, 7168.787
160.634, 7151.028
161.116, 7175.651
161.598, 7242.687
162.080, 7353.420
162.562, 7525.159
163.044, 7736.636
163.527, 7970.966
164.009, 8227.027
164.491, 8501.773
164.973, 8817.177
165.455, 9215.870
165.937, 9519.089
166.419, 9656.658
166.901, 9666.743
167.383, 9556.713
167.865, 9302.246
168.348, 8974.317
168.830, 8687.373
169.312, 8426.582
169.794, 8251.618
170.276, 8240.401
170.758, 8297.524
171.240, 8329.006
171.723, 8301.679
172.205, 8223.204
172.687, 8103.597
173.169, 7928.471
173.651, 7742.510
174.133, 7543.197
174.615, 7349.017
175.097, 7183.149
175.579, 7062.300
176.061, 6964.578
176.544, 6842.167
177.026, 6692.093
177.508, 6521.604
177.990, 6307.990
178.472, 6087.683
178.954, 5896.588
179.436, 5750.593
179.918, 5644.564
180.401, 5567.917
180.883, 5525.339
181.365, 5506.122
181.847, 5518.053
182.329, 5542.903
182.811, 5558.213
183.293, 5551.769
183.775, 5538.714
184.258, 5559.559
184.740, 5635.110
185.222, 5708.884
185.704, 5767.876
186.186, 5819.757
186.668, 5870.829
187.150, 5923.756
187.632, 5979.108
188.114, 6037.988
188.596, 6100.500
189.079, 6166.571
189.561, 6236.315
190.043, 6308.476
190.525, 6382.954
191.007, 6460.147
191.489, 6536.063
191.971, 6607.210
192.454, 6697.045
192.936, 6734.099
193.418, 6703.439
193.900, 6627.430
194.382, 6520.185
194.864, 6386.796
195.346, 6238.969
195.828, 6100.478
196.310, 5969.706
196.792, 5853.233
197.275, 5751.790
197.757, 5662.017
198.239, 5580.061
198.721, 5504.905
199.203, 5439.294
199.685, 5389.829
200.167, 5362.215
200.650, 5340.739
201.132, 5328.639
201.614, 5317.534
202.096, 5297.111
202.578, 5264.626
203.060, 5231.536
203.542, 5220.060
204.024, 5244.657
204.506, 5259.640
204.988, 5251.833
205.471, 5240.226
205.953, 5241.373
206.435, 5258.790
206.917, 5279.967
207.399, 5283.507
207.881, 5257.062
208.363, 5243.288
208.845, 5244.842
209.328, 5258.012
209.810, 5285.498
210.292, 5326.043
210.774, 5368.721
211.256, 5397.185
211.738, 5403.115
212.220, 5419.202
212.702, 5453.704
213.184, 5492.470
213.667, 5530.417
214.149, 5565.594
214.631, 5595.097
215.113, 5615.413
215.595, 5625.620
216.077, 5629.911
216.559, 5623.714
217.041, 5615.512
217.523, 5605.066
218.006, 5594.889
218.488, 5592.201
218.970, 5606.744
219.452, 5641.990
219.934, 5672.492
220.416, 5687.259
220.898, 5706.663
221.380, 5739.695
221.863, 5785.061
222.345, 5835.706
222.827, 5883.847
223.309, 5928.970
223.791, 5986.341
224.273, 6068.106
224.755, 6151.445
225.237, 6228.017
225.719, 6299.709
226.202, 6372.635
226.684, 6455.137
227.166, 6545.391
227.648, 6610.401
228.130, 6628.143
228.612, 6645.063
229.094, 6685.964
229.577, 6736.129
230.059, 6767.331
230.541, 6758.071
231.023, 6718.252
231.505, 6691.686
231.987, 6679.069
232.469, 6680.659
232.951, 6696.309
233.433, 6723.934
233.915, 6761.414
234.398, 6809.271
234.880, 6864.614
235.362, 6922.123
235.844, 6990.548
236.326, 7042.586
236.808, 7073.548
237.290, 7085.448
237.772, 7077.377
238.255, 7047.843
238.737, 7003.411
239.219, 6956.830
239.701, 6912.031
240.183, 6852.652
240.665, 6759.757
241.147, 6658.387
241.629, 6568.180
242.111, 6494.523
242.594, 6429.379
243.076, 6361.280
243.558, 6288.623
244.040, 6224.778
244.522, 6177.792
245.004, 6138.198
245.486, 6100.839
245.968, 6065.066
246.451, 6028.638
246.933, 5989.747
247.415, 5948.217
247.897, 5904.301
248.379, 5847.824
248.861, 5799.287
249.343, 5776.049
249.825, 5776.916
250.307, 5782.808
250.790, 5780.909
251.272, 5773.099
251.754, 5768.080
252.236, 5765.018
252.718, 5768.175
253.200, 5781.339
253.682, 5802.974
254.164, 5827.580
254.646, 5857.006
255.129, 5887.056
255.611, 5908.460
256.093, 5920.341
256.575, 5924.770
257.057, 5919.149
257.539, 5907.089
258.021, 5896.064
258.503, 5898.980
258.986, 5898.898
259.468, 5868.299
259.950, 5803.920
260.432, 5739.588
260.914, 5696.574
261.396, 5668.436
261.878, 5638.510
262.360, 5604.389
262.842, 5568.969
263.325, 5517.765
263.807, 5457.045
264.289, 5446.109
264.771, 5445.035
265.253, 5441.567
265.735, 5435.834
266.217, 5421.052
266.699, 5417.955
267.181, 5410.175
267.664, 5402.202
268.146, 5400.750
268.628, 5387.284
269.110, 5385.729
269.592, 5379.419
270.074, 5375.285
270.556, 5366.438
271.039, 5359.047
271.521, 5356.371
272.003, 5345.841
272.485, 5354.191
272.967, 5366.440
273.449, 5371.662
273.931, 5366.421
274.413, 5367.068
274.895, 5363.683
275.378, 5373.293
275.860, 5383.493
276.342, 5406.640
276.824, 5426.642
277.306, 5443.669
277.788, 5448.820
278.270, 5469.309
278.752, 5483.650
279.234, 5497.743
279.717, 5520.391
280.199, 5532.973
280.681, 5539.598
281.163, 5550.169
281.645, 5563.715
282.127, 5568.652
282.609, 5564.319
283.091, 5552.911
283.573, 5533.784
284.056, 5508.189
284.538, 5474.500
285.020, 5431.612
285.502, 5386.759
285.984, 5360.963
286.466, 5371.455
286.948, 5377.546
287.431, 5373.525
287.913, 5366.083
288.395, 5357.241
288.877, 5348.865
289.359, 5348.460
289.841, 5371.409
290.323, 5432.929
290.805, 5475.480
291.287, 5481.940
291.770, 5483.250
292.252, 5493.704
292.734, 5515.090
293.216, 5543.045
293.698, 5574.428
294.180, 5609.369
294.662, 5645.656
295.144, 5681.842
295.626, 5721.026
296.109, 5763.641
296.591, 5809.993
297.073, 5860.292
297.555, 5917.477
298.037, 5977.549
298.519, 6028.284
299.001, 6065.690
299.483, 6102.434
299.966, 6146.109
300.448, 6191.341
300.930, 6230.395
301.412, 6258.744
301.894, 6285.449
302.376, 6323.454
302.858, 6373.624
303.340, 6420.867
303.822, 6464.351
304.305, 6498.896
304.787, 6519.158
305.269, 6523.814
305.751, 6520.749
306.233, 6512.367
306.715, 6499.930
307.197, 6485.711
307.679, 6467.141
308.161, 6453.175
308.644, 6448.551
309.126, 6452.023
309.608, 6484.247
310.090, 6563.381
310.572, 6668.043
311.054, 6770.699
311.536, 6869.034
312.018, 6980.219
312.500, 7119.558
312.983, 7287.827
313.465, 7464.311
313.947, 7638.275
314.429, 7829.584
314.911, 8052.940
315.393, 8303.596
315.875, 8568.823
316.358, 8842.666
316.840, 9124.752
317.322, 9414.155
317.804, 9718.927
318.286, 10020.660
318.768, 10335.780
319.250, 10638.420
319.732, 10909.730
320.214, 11140.280
320.697, 11318.980
321.179, 11424.070
321.661, 11444.460
322.143, 11406.850
322.625, 11311.780
323.107, 11168.530
323.589, 10959.010
324.071, 10699.630
324.553, 10439.850
325.036, 10217.720
325.518, 10033.360
326.000, 9904.794
326.482, 9842.630
326.964, 9833.201
327.446, 9873.601
327.928, 9963.048
328.410, 10101.600
328.892, 10289.430
329.375, 10525.930
329.857, 10810.170
330.339, 11148.990
330.821, 11520.190
331.303, 11912.670
331.785, 12338.370
332.267, 12815.980
332.749, 13353.250
333.232, 13910.000
333.714, 14457.900
334.196, 14999.640
334.678, 15518.890
335.160, 16040.670
335.642, 16496.660
336.124, 16856.359
336.606, 17119.131
337.089, 17243.211
337.571, 17197.471
338.053, 17006.699
338.535, 16688.381
339.017, 16237.240
339.499, 15729.080
339.981, 15192.430
340.463, 14642.150
340.945, 14134.140
341.427, 13670.900
341.910, 13249.190
342.392, 12897.420
342.874, 12591.510
343.356, 12267.230
343.838, 11893.620
344.320, 11489.390
344.802, 11089.050
345.284, 10699.150
345.767, 10305.810
346.249, 9891.499
346.731, 9484.151
347.213, 9107.700
347.695, 8766.904
348.177, 8454.934
348.659, 8160.990
349.141, 7878.662
349.624, 7652.457
350.106, 7508.541
350.588, 7385.062
351.070, 7258.018
351.552, 7131.620
352.034, 7019.083
352.516, 6930.109
352.998, 6861.593
353.480, 6803.556
353.963, 6765.044
354.445, 6721.946
354.927, 6656.857
355.409, 6592.257
355.891, 6551.441
356.373, 6540.891
356.855, 6541.618
357.337, 6530.746
357.819, 6507.481
358.302, 6489.032
358.784, 6469.837
359.266, 6455.619
359.748, 6474.343
360.230, 6485.070
360.712, 6488.231
361.194, 6461.163
361.676, 6473.129
362.159, 6469.452
362.641, 6465.133
363.123, 6482.594
363.605, 6459.922
364.087, 6477.037
364.569, 6478.270
365.051, 6486.771
365.533, 6479.533
366.016, 6476.742
366.498, 6464.761
366.980, 6457.230
367.462, 6430.229
367.944, 6393.112
368.426, 6360.691
368.908, 6332.455
369.390, 6310.968
369.872, 6307.527
370.354, 6303.164
370.837, 6275.569
371.319, 6228.280
371.801, 6190.241
372.283, 6189.919
372.765, 6226.595
373.247, 6232.352
373.729, 6176.184
374.211, 6122.376
374.694, 6083.130
375.176, 6054.223
375.658, 6029.995
376.140, 6008.313
376.622, 5987.160
377.104, 5961.348
377.586, 5926.971
378.068, 5901.575
378.551, 5898.941
379.033, 5897.696
379.515, 5882.821
379.997, 5855.603
380.479, 5831.995
380.961, 5826.492
381.443, 5833.769
381.925, 5833.919
382.407, 5822.959
382.890, 5814.860
383.372, 5818.901
383.854, 5831.968
384.336, 5849.832
384.818, 5877.131
385.300, 5902.112
385.782, 5906.834
386.264, 5899.910
386.746, 5916.520
387.229, 5975.037
387.711, 6048.438
388.193, 6090.396
388.675, 6091.690
389.157, 6095.374
389.639, 6109.105
390.121, 6125.056
390.603, 6138.397
391.086, 6147.868
391.568, 6150.660
392.050, 6142.554
392.532, 6124.666
393.014, 6122.468
393.496, 6145.826
393.978, 6174.188
394.460, 6200.218
394.943, 6230.875
395.425, 6273.561
395.907, 6331.095
396.389, 6404.064
396.871, 6495.947
397.353, 6611.175
397.835, 6726.926
398.317, 6835.144
398.799, 6949.192
399.281, 7076.513
399.764, 7216.009
400.246, 7362.078
400.728, 7517.723
401.210, 7675.657
401.692, 7823.375
402.174, 7960.666
402.656, 8085.246
403.138, 8200.099
403.621, 8296.878
404.103, 8361.686
404.585, 8387.723
405.067, 8395.070
405.549, 8398.987
406.031, 8390.053
406.513, 8351.962
406.995, 8280.978
407.478, 8175.287
407.960, 8024.911
408.442, 7816.717
408.924, 7636.403
409.406, 7492.833
409.888, 7366.835
410.370, 7254.221
410.852, 7150.824
411.334, 7048.883
411.817, 6944.274
412.299, 6839.745
412.781, 6744.510
413.263, 6663.039
413.745, 6582.868
414.227, 6500.232
414.709, 6420.196
415.191, 6344.623
415.673, 6274.749
416.156, 6214.719
416.638, 6175.698
417.120, 6153.185
417.602, 6113.341
418.084, 6048.726
418.566, 5982.415
419.048, 5926.135
419.530, 5877.061
420.013, 5831.363
420.495, 5787.309
420.977, 5748.168
421.459, 5718.719
421.941, 5696.985
422.423, 5676.371
422.905, 5654.913
423.387, 5634.132
423.870, 5615.384
424.352, 5597.960
424.834, 5587.042
425.316, 5586.659
425.798, 5589.696
426.280, 5592.800
426.762, 5595.222
427.244, 5594.810
427.726, 5589.091
428.208, 5588.030
428.691, 5601.606
429.173, 5611.629
429.655, 5618.291
430.137, 5611.520
430.619, 5622.093
431.101, 5625.716
431.583, 5629.054
432.065, 5642.069
432.548, 5637.252
433.030, 5650.113
433.512, 5654.625
433.994, 5664.982
434.476, 5682.046
434.958, 5697.483
435.440, 5711.379
435.922, 5719.121
436.405, 5734.810
436.887, 5747.312
437.369, 5759.686
437.851, 5776.494
438.333, 5785.132
438.815, 5801.867
439.297, 5815.371
439.779, 5830.353
440.261, 5842.132
440.744, 5854.818
441.226, 5859.203
441.708, 5865.490
442.190, 5867.698
442.672, 5864.949
443.154, 5855.541
443.636, 5837.930
444.118, 5816.571
444.600, 5804.577
445.083, 5810.970
445.565, 5809.537
446.047, 5793.735
446.529, 5774.188
447.011, 5757.571
447.493, 5744.154
447.975, 5730.260
448.457, 5710.025
448.940, 5687.292
449.422, 5678.984
449.904, 5670.365
450.386, 5671.500
450.868, 5670.267
451.350, 5666.794
451.832, 5654.370
452.314, 5653.503
452.797, 5648.005
453.279, 5642.317
453.761, 5643.078
454.243, 5631.956
454.725, 5632.614
455.207, 5628.569
455.689, 5626.677
456.171, 5620.125
456.653, 5615.012
457.135, 5614.562
457.618, 5611.529
458.100, 5604.439
458.582, 5597.797
459.064, 5593.886
459.546, 5609.013
460.028, 5633.440
460.510, 5650.850
460.992, 5656.823
461.474, 5678.322
461.957, 5730.404
462.439, 5783.758
462.921, 5820.168
463.403, 5847.352
463.885, 5884.838
464.367, 5944.434
464.849, 6013.265
465.332, 6081.190
465.814, 6147.134
466.296, 6194.906
466.778, 6217.242
467.260, 6222.645
467.742, 6228.503
468.224, 6241.588
468.706, 6212.498
469.188, 6110.168
469.671, 5982.459
470.153, 5858.493
470.635, 5740.038
471.117, 5618.126
471.599, 5484.559
472.081, 5351.379
472.563, 5256.599
473.045, 5222.438
473.527, 5188.894
474.010, 5153.333
474.492, 5115.358
474.974, 5070.572
475.456, 5021.505
475.938, 4979.746
476.420, 4956.027
476.902, 4945.300
477.384, 4931.066
477.866, 4910.989
478.349, 4900.286
478.831, 4914.557
479.313, 4937.008
479.795, 4937.100
480.277, 4905.098
480.759, 4884.753
481.241, 4906.207
481.723, 4942.190
482.206, 4958.094
482.688, 4950.819
483.170, 4936.775
483.652, 4927.649
484.134, 4923.139
484.616, 4920.568
485.098, 4922.386
485.580, 4923.244
486.062, 4914.269
486.545, 4909.097
487.027, 4923.675
487.509, 4959.074
487.991, 4999.390
488.473, 5029.607
488.955, 5050.884
489.437, 5071.005
489.919, 5086.527
490.402, 5109.118
490.884, 5151.270
491.366, 5202.189
491.848, 5245.442
492.330, 5275.462
492.812, 5307.603
493.294, 5339.750
493.776, 5371.890
494.259, 5404.031
494.741, 5436.171
495.223, 5468.310
495.705, 5500.452
496.187, 5532.599
496.669, 5564.739
497.151, 5596.880
497.633, 5629.020
498.115, 5661.159
498.598, 5693.300
499.080, 5725.448
499.562, 5757.587
500.044, 5789.729
500.526, 5821.868
501.008, 5842.625
501.490, 5871.840
501.972, 5909.772
502.454, 5956.123
502.937, 6016.285
503.419, 6083.280
503.901, 6148.321
504.383, 6210.133
504.865, 6268.160
505.347, 6321.577
505.829, 6370.846
506.311, 6423.124
506.793, 6479.620
507.276, 6513.524
507.758, 6498.285
508.240, 6434.333
508.722, 6367.447
509.204, 6304.637
509.686, 6230.048
510.168, 6137.628
510.651, 6033.269
511.133, 5918.594
511.615, 5795.719
512.097, 5677.567
512.579, 5579.552
513.061, 5500.297
513.543, 5420.427
514.025, 5337.939
514.507, 5260.448
514.990, 5195.847
515.472, 5138.031
515.954, 5078.075
516.436, 5012.879
516.918, 4950.598
517.400, 4891.871
517.882, 4840.008
518.364, 4804.743
518.846, 4785.747
519.329, 4764.386
519.811, 4723.750
520.293, 4666.290
520.775, 4617.960
521.257, 4580.309
521.739, 4551.115
522.221, 4533.963
522.703, 4522.649
523.185, 4513.410
523.668, 4504.708
524.150, 4493.769
524.632, 4475.806
525.114, 4453.380
525.596, 4438.346
526.078, 4432.423
526.560, 4425.428
527.042, 4409.612
527.524, 4391.541
528.007, 4384.691
528.489, 4393.950
528.971, 4398.079
529.453, 4386.182
529.935, 4368.879
530.417, 4356.125
530.899, 4348.703
531.381, 4345.207
531.864, 4346.030
532.346, 4347.067
532.828, 4330.843
533.310, 4281.100
533.792, 4245.932
534.274, 4236.121
534.756, 4236.556
535.238, 4243.420
535.721, 4253.040
536.203, 4255.046
536.685, 4237.382
537.167, 4212.954
537.649, 4202.766
538.131, 4206.076
538.613, 4213.547
539.095, 4223.862
539.578, 4232.807
540.060, 4233.121
540.542, 4222.337
541.024, 4213.150
541.506, 4200.539
541.988, 4194.922
542.470, 4208.321
542.952, 4232.160
543.434, 4248.698
543.917, 4249.859
544.399, 4243.500
544.881, 4244.500
545.363, 4255.292
545.845, 4253.986
546.327, 4227.494
546.809, 4204.295
547.291, 4205.529
547.773, 4221.681
548.256, 4231.838
548.738, 4228.412
549.220, 4222.048
549.702, 4220.695
550.184, 4221.568
550.666, 4216.953
551.148, 4205.454
551.630, 4197.495
552.112, 4205.669
552.595, 4229.611
553.077, 4234.389
553.559, 4187.831
554.041, 4160.413
554.523, 4175.903
555.005, 4206.993
555.487, 4229.875
555.969, 4239.366
556.451, 4240.685
556.934, 4234.330
557.416, 4223.459
557.898, 4217.470
558.380, 4216.677
558.862, 4218.740
559.344, 4223.793
559.826, 4230.118
560.308, 4233.445
560.791, 4231.717
561.273, 4234.268
561.755, 4247.456
562.237, 4261.345
562.719, 4267.884
563.201, 4268.730
563.683, 4269.133
564.165, 4271.598
564.648, 4277.772
565.130, 4291.364
565.612, 4312.951
566.094, 4338.902
566.576, 4371.992
567.058, 4405.462
567.540, 4437.840
568.022, 4467.250
568.505, 4487.561
568.987, 4483.322
569.469, 4487.766
569.951, 4530.758
570.433, 4597.461
570.915, 4658.382
571.397, 4707.221
571.879, 4755.792
572.361, 4816.312
572.844, 4888.382
573.326, 4962.166
573.808, 5033.705
574.290, 5112.916
574.772, 5204.825
575.254, 5302.177
575.736, 5398.165
576.218, 5492.279
576.700, 5589.493
577.183, 5695.170
577.665, 5805.734
578.147, 5915.474
578.629, 6023.981
579.111, 6131.620
579.593, 6242.425
580.075, 6344.456
580.557, 6416.315
581.039, 6451.214
581.522, 6470.431
582.004, 6486.087
582.486, 6474.361
582.968, 6420.909
583.450, 6331.406
583.932, 6212.414
584.414, 6065.310
584.896, 5910.597
585.378, 5775.272
585.861, 5658.769
586.343, 5540.944
586.825, 5416.289
587.307, 5299.520
587.789, 5198.176
588.271, 5113.036
588.753, 5043.234
589.235, 4995.169
589.718, 4951.689
590.200, 4911.765
590.682, 4871.267
591.164, 4820.512
591.646, 4762.925
592.128, 4716.860
592.610, 4696.686
593.092, 4692.775
593.575, 4672.547
594.057, 4627.437
594.539, 4597.921
595.021, 4599.784
595.503, 4611.051
595.985, 4620.486
596.467, 4626.056
596.949, 4618.849
597.432, 4583.524
597.914, 4547.382
598.396, 4526.753
598.878, 4518.769
599.360, 4521.443
599.842, 4533.307
600.324, 4543.936
600.806, 4541.186
601.288, 4525.886
601.771, 4521.732
602.253, 4540.609
602.735, 4551.283
603.217, 4538.210
603.699, 4520.399
604.181, 4514.833
604.663, 4522.696
605.145, 4531.700
605.627, 4532.675
606.110, 4533.208
606.592, 4541.412
607.074, 4557.351
607.556, 4582.716
608.038, 4619.563
608.520, 4656.418
609.002, 4675.306
609.484, 4671.716
609.966, 4672.657
610.449, 4676.392
610.931, 4686.740
611.413, 4705.155
611.895, 4730.613
612.377, 4762.353
612.859, 4800.166
613.341, 4841.846
613.823, 4889.396
614.305, 4938.135
614.788, 4976.841
615.270, 5005.446
615.752, 5035.583
616.234, 5073.112
616.716, 5116.053
617.198, 5160.347
617.680, 5205.476
618.162, 5253.105
618.645, 5292.639
619.127, 5345.066
619.609, 5427.630
620.091, 5528.008
620.573, 5623.927
621.055, 5706.599
621.537, 5789.460
622.019, 5882.062
622.502, 5985.965
622.984, 6103.692
623.466, 6234.094
623.948, 6393.711
624.430, 6598.139
624.912, 6835.643
625.394, 7069.998
625.876, 7265.708
626.359, 7518.829
626.841, 7839.777
627.323, 8211.743
627.805, 8631.877
628.287, 9094.636
628.769, 9596.044
629.251, 10135.130
629.733, 10707.530
630.215, 11303.460
630.698, 11923.960
631.180, 12584.510
631.662, 13286.070
632.144, 14018.080
632.626, 14771.670
633.108, 15546.650
633.590, 16342.790
634.072, 17205.369
634.554, 18023.330
635.037, 18855.150
635.519, 19582.930
636.001, 20149.859
636.483, 20536.061
636.965, 20727.680
637.447, 20724.990
637.929, 20491.840
638.411, 19949.590
638.893, 19119.900
639.376, 18101.660
639.858, 16882.910
640.340, 15607.560
640.822, 14358.960
641.304, 13152.610
641.786, 12068.840
642.268, 11111.750
642.750, 10257.850
643.232, 9518.947
643.715, 8871.011
644.197, 8310.091
644.679, 7823.348
645.161, 7390.402
645.643, 6999.777
646.125, 6657.175
646.607, 6380.121
647.089, 6162.221
647.572, 5963.999
648.054, 5778.939
648.536, 5611.832
649.018, 5469.548
649.500, 5349.063
649.982, 5233.012
650.464, 5115.876
650.946, 5010.630
651.429, 4920.862
651.911, 4840.877
652.393, 4766.607
652.875, 4697.905
653.357, 4636.468
653.839, 4583.330
654.321, 4537.413
654.803, 4499.481
655.286, 4468.267
655.768, 4438.253
656.250, 4408.552
656.732, 4379.921
657.214, 4353.877
657.696, 4328.992
658.178, 4297.348
658.660, 4242.930
659.142, 4204.633
659.625, 4195.350
660.107, 4192.198
660.589, 4181.458
661.071, 4163.922
661.553, 4145.328
662.035, 4127.172
662.517, 4111.415
662.999, 4101.283
663.481, 4095.059
663.964, 4088.097
664.446, 4079.688
664.928, 4069.523
665.410, 4056.354
665.892, 4042.493
666.374, 4037.829
666.856, 4052.778
667.338, 4057.865
667.820, 4047.743
668.303, 4032.148
668.785, 4012.937
669.267, 3992.697
669.749, 3975.449
670.231, 3961.916
670.713, 3953.993
671.195, 3955.018
671.677, 3962.056
672.159, 3971.298
672.642, 3981.785
673.124, 3990.093
673.606, 3993.610
674.088, 3995.351
674.570, 4003.733
675.052, 4021.700
675.534, 4037.277
676.016, 4042.117
676.499, 4053.910
676.981, 4087.736
677.463, 4132.065
677.945, 4165.997
678.427, 4184.047
678.909, 4197.118
679.391, 4201.105
679.873, 4209.215
680.356, 4239.386
680.838, 4288.282
681.320, 4341.924
681.802, 4394.121
682.284, 4438.838
682.766, 4459.415
683.248, 4451.147
683.730, 4473.324
684.213, 4541.830
684.695, 4609.524
685.177, 4652.916
685.659, 4681.602
686.141, 4710.291
686.623, 4736.108
687.105, 4775.048
687.587, 4814.743
688.069, 4883.962
688.552, 5048.116
689.034, 5244.552
689.516, 5354.084
689.998, 5338.308
690.480, 5265.872
690.962, 5202.957
691.444, 5149.321
691.926, 5106.997
692.408, 5078.371
692.891, 5036.748
693.373, 4968.890
693.855, 4886.915
694.337, 4806.141
694.819, 4725.774
695.301, 4651.076
695.783, 4578.778
696.265, 4515.351
696.747, 4470.145
697.230, 4430.578
697.712, 4380.222
698.194, 4318.376
698.676, 4262.262
699.158, 4225.492
699.640, 4200.121
700.122, 4175.250
700.604, 4151.464
701.086, 4132.869
701.569, 4120.930
702.051, 4107.711
702.533, 4083.547
703.015, 4049.913
703.497, 4028.021
703.979, 4020.510
704.461, 4020.166
704.943, 4038.790
705.426, 4053.115
705.908, 4039.282
706.390, 4005.829
706.872, 3988.208
707.354, 4006.750
707.836, 4029.899
708.318, 4045.087
708.800, 4048.938
709.282, 4031.536
709.765, 3995.807
710.247, 3959.142
710.729, 3932.961
711.211, 3913.865
711.693, 3893.910
712.175, 3872.610
712.657, 3857.041
713.140, 3852.023
713.622, 3843.293
714.104, 3817.368
714.586, 3782.501
715.068, 3761.411
715.550, 3760.646
716.032, 3758.010
716.514, 3748.342
716.996, 3737.833
717.479, 3730.949
717.961, 3725.952
718.443, 3718.955
718.925, 3708.620
719.407, 3697.396
719.889, 3685.000
720.371, 3674.034
720.853, 3675.682
721.335, 3688.500
721.818, 3687.250
722.300, 3659.403
722.782, 3624.793
723.264, 3613.078
723.746, 3627.497
724.228, 3634.055
724.710, 3627.332
725.192, 3620.514
725.674, 3620.611
726.157, 3619.261
726.639, 3606.205
727.121, 3582.571
727.603, 3563.327
728.085, 3553.912
728.567, 3550.766
729.049, 3556.106
729.531, 3564.150
730.013, 3563.809
730.496, 3554.860
730.978, 3549.087
731.460, 3556.975
731.942, 3570.569
732.424, 3565.716
732.906, 3540.809
733.388, 3532.631
733.870, 3552.107
734.353, 3574.025
734.835, 3580.998
735.317, 3576.204
735.799, 3572.113
736.281, 3570.180
736.763, 3566.250
737.245, 3554.614
737.727, 3546.320
738.209, 3548.877
738.692, 3558.903
739.174, 3571.581
739.656, 3586.000
740.138, 3594.996
740.620, 3591.493
741.102, 3580.000
741.584, 3564.329
742.067, 3546.681
742.549, 3534.898
743.031, 3532.155
743.513, 3533.622
743.995, 3534.640
744.477, 3535.021
744.959, 3523.152
745.441, 3493.575
745.923, 3465.976
746.406, 3438.876
746.888, 3422.942
747.370, 3434.775
747.852, 3470.901
748.334, 3499.536
748.816, 3520.245
749.298, 3529.339
749.780, 3510.813
750.263, 3490.768
750.745, 3501.082
751.227, 3535.113
751.709, 3558.407
752.191, 3550.024
752.673, 3532.833
753.155, 3537.817
753.637, 3557.023
754.119, 3565.011
754.602, 3559.536
755.084, 3556.840
755.566, 3567.529
756.048, 3581.404
756.530, 3574.021
757.012, 3535.191
757.494, 3520.652
757.976, 3546.075
758.458, 3571.678
758.941, 3584.225
759.423, 3587.464
759.905, 3582.074
760.387, 3567.414
760.869, 3559.597
761.351, 3570.103
761.833, 3580.023
762.315, 3574.806
762.797, 3565.440
763.280, 3571.283
763.762, 3591.341
764.244, 3602.274
764.726, 3583.206
765.208, 3552.635
765.690, 3540.935
766.172, 3545.182
766.654, 3553.966
767.136, 3565.564
767.619, 3572.534
768.101, 3569.485
768.583, 3558.429
769.065, 3543.702
769.547, 3519.162
770.029, 3509.122
770.511, 3525.908
770.994, 3541.888
771.476, 3545.249
771.958, 3539.783
772.440, 3528.492
772.922, 3509.949
773.404, 3496.695
773.886, 3493.453
774.368, 3494.990
774.850, 3498.310
775.333, 3504.286
775.815, 3518.183
776.297, 3538.629
776.779, 3551.862
777.261, 3545.181
777.743, 3527.043
778.225, 3506.631
778.707, 3486.714
779.190, 3482.552
779.672, 3497.202
780.154, 3510.375
780.636, 3505.242
781.118, 3489.072
781.600, 3486.723
782.082, 3503.036
782.564, 3517.169
783.046, 3529.070
783.529, 3536.950
784.011, 3538.532
784.493, 3535.952
784.975, 3532.755
785.457, 3529.289
785.939, 3524.095
786.421, 3514.696
786.903, 3505.903
787.385, 3501.538
787.868, 3498.606
788.350, 3489.400
788.832, 3474.862
789.314, 3470.439
789.796, 3496.058
790.278, 3527.644
790.760, 3529.425
791.242, 3512.353
791.724, 3506.539
792.207, 3516.635
792.689, 3526.517
793.171, 3524.012
793.653, 3515.512
794.135, 3519.126
794.617, 3537.341
795.099, 3545.722
795.581, 3539.786
796.063, 3531.523
796.546, 3525.621
797.028, 3522.319
797.510, 3522.698
797.992, 3528.437
798.474, 3531.718
798.956, 3529.375
799.438, 3528.441
799.920, 3533.194
800.403, 3539.136
800.885, 3540.114
801.367, 3536.749
801.849, 3537.224
802.331, 3549.886
802.813, 3561.662
803.295, 3558.860
803.777, 3551.056
804.260, 3553.121
804.742, 3564.869
805.224, 3577.206
805.706, 3585.419
806.188, 3588.625
806.670, 3583.229
807.152, 3570.998
807.634, 3561.186
808.117, 3554.157
808.599, 3555.168
809.081, 3568.627
809.563, 3584.195
810.045, 3587.668
810.527, 3578.806
811.009, 3561.263
811.491, 3522.573
811.973, 3497.878
812.456, 3509.242
812.938, 3524.207
813.420, 3514.324
813.902, 3486.152
814.384, 3467.432
814.866, 3463.890
815.348, 3466.726
815.830, 3484.333
816.312, 3497.767
816.795, 3483.553
817.277, 3456.075
817.759, 3446.879
818.241, 3466.259
818.723, 3491.595
819.205, 3510.119
819.687, 3520.180
820.169, 3516.244
820.651, 3501.906
821.134, 3485.376
821.616, 3469.659
822.098, 3460.069
822.580, 3462.718
823.062, 3473.191
823.544, 3477.442
824.026, 3475.216
824.508, 3474.994
824.990, 3479.186
825.473, 3479.832
825.955, 3470.117
826.437, 3455.268
826.919, 3448.542
827.401, 3453.007
827.883, 3456.026
828.365, 3452.469
828.847, 3454.015
829.330, 3471.886
829.812, 3491.425
830.294, 3496.619
830.776, 3487.132
831.258, 3475.054
831.740, 3457.187
832.222, 3444.842
832.704, 3446.559
833.187, 3453.182
833.669, 3458.831
834.151, 3461.033
834.633, 3456.619
835.115, 3444.006
835.597, 3425.940
836.079, 3396.329
836.561, 3367.324
837.043, 3361.807
837.526, 3375.819
838.008, 3392.323
838.490, 3405.093
838.972, 3411.929
839.454, 3403.747
839.936, 3391.864
840.418, 3371.687
840.900, 3389.989
841.382, 3398.950
841.865, 3399.072
842.347, 3363.885
842.829, 3374.293
843.311, 3366.429
843.793, 3367.611
844.275, 3348.160
844.757, 3335.240
845.239, 3330.584
845.721, 3329.985
846.204, 3331.931
846.686, 3337.023
847.168, 3349.480
847.650, 3369.826
848.132, 3378.100
848.614, 3362.674
849.096, 3346.079
849.578, 3334.165
850.060, 3325.418
850.543, 3317.358
851.025, 3311.080
851.507, 3311.554
851.989, 3323.196
852.471, 3331.758
852.953, 3321.114
853.435, 3306.713
853.917, 3308.854
854.400, 3322.065
854.882, 3331.065
855.364, 3330.977
855.846, 3325.105
856.328, 3315.241
856.810, 3302.977
857.292, 3291.109
857.774, 3279.872
858.256, 3269.255
858.739, 3259.407
859.221, 3255.245
859.703, 3260.408
860.185, 3272.192
860.667, 3287.653
861.149, 3308.857
861.631, 3311.297
862.114, 3287.848
862.596, 3269.492
863.078, 3269.610
863.560, 3277.338
864.042, 3279.292
864.524, 3275.454
865.006, 3276.079
865.488, 3289.215
865.970, 3294.270
866.453, 3278.297
866.935, 3264.528
867.417, 3270.262
867.899, 3287.391
868.381, 3297.483
868.863, 3295.763
869.345, 3296.672
869.827, 3311.949
870.309, 3321.943
870.792, 3308.885
871.274, 3288.104
871.756, 3279.801
872.238, 3285.492
872.720, 3292.770
873.202, 3293.463
873.684, 3296.476
874.166, 3314.547
874.648, 3336.140
875.131, 3344.005
875.613, 3339.936
876.095, 3335.416
876.577, 3335.314
877.059, 3336.965
877.541, 3337.584
878.023, 3337.690
878.505, 3336.775
878.987, 3336.083
879.470, 3344.701
879.952, 3364.345
880.434, 3378.514
880.916, 3372.128
881.398, 3355.953
881.880, 3361.005
882.362, 3388.408
882.844, 3404.944
883.327, 3405.798
883.809, 3409.630
884.291, 3424.528
884.773, 3447.356
885.255, 3474.435
885.737, 3505.985
886.219, 3536.017
886.701, 3564.695
887.183, 3591.472
887.666, 3616.847
888.148, 3639.449
888.630, 3658.745
889.112, 3674.406
889.594, 3685.788
890.076, 3692.260
890.558, 3696.061
891.041, 3703.440
891.523, 3700.979
892.005, 3679.409
892.487, 3648.154
892.969, 3616.206
893.451, 3584.575
893.933, 3552.911
894.415, 3517.960
894.897, 3487.055
895.380, 3465.668
895.862, 3447.557
896.344, 3427.625
896.826, 3406.542
897.308, 3385.614
897.790, 3365.299
898.272, 3351.144
898.754, 3352.141
899.237, 3356.453
899.719, 3349.954
900.201, 3338.677
900.683, 3335.831
901.165, 3340.998
901.647, 3340.057
902.129, 3323.051
902.611, 3306.407
903.093, 3316.978
903.576, 3342.959
904.058, 3354.833
904.540, 3353.438
905.022, 3353.566
905.504, 3359.857
905.986, 3361.411
906.468, 3345.370
906.950, 3319.893
907.432, 3311.173
907.915, 3318.532
908.397, 3328.872
908.879, 3341.131
909.361, 3349.333
909.843, 3350.644
910.325, 3344.960
910.807, 3331.550
911.289, 3310.345
911.771, 3283.794
912.254, 3245.342
912.736, 3228.873
913.218, 3250.193
913.700, 3277.577
914.182, 3286.508
914.664, 3281.439
915.146, 3277.024
915.628, 3272.647
916.110, 3270.218
916.593, 3265.173
917.075, 3269.213
917.557, 3300.087
918.039, 3331.522
918.521, 3328.120
919.003, 3293.384
919.485, 3277.910
919.968, 3303.883
920.450, 3319.391
920.932, 3307.069
921.414, 3294.881
921.896, 3301.509
922.378, 3317.387
922.860, 3326.145
923.342, 3325.431
923.824, 3324.155
924.307, 3323.201
924.789, 3324.085
925.271, 3330.985
925.753, 3337.162
926.235, 3331.546
926.717, 3320.155
927.199, 3321.565
927.681, 3343.861
928.164, 3365.896
928.646, 3376.786
929.128, 3382.053
929.610, 3384.264
930.092, 3384.824
930.574, 3386.110
931.056, 3387.758
931.538, 3385.901
932.020, 3376.935
932.503, 3368.092
932.985, 3362.699
933.467, 3363.460
933.949, 3380.102
934.431, 3405.186
934.913, 3418.523
935.395, 3415.203
935.877, 3408.543
936.359, 3409.570
936.842, 3413.393
937.324, 3411.828
937.806, 3407.441
938.288, 3407.596
938.770, 3411.744
939.252, 3411.773
939.734, 3404.100
940.216, 3396.310
940.698, 3398.691
941.181, 3407.398
941.663, 3410.495
942.145, 3409.261
942.627, 3409.089
943.109, 3411.397
943.591, 3422.097
944.073, 3445.455
944.555, 3475.311
945.037, 3503.371
945.520, 3528.856
946.002, 3541.101
946.484, 3539.963
946.966, 3539.866
947.448, 3544.074
947.930, 3553.720
948.412, 3564.277
948.894, 3592.588
949.377, 3629.882
949.859, 3667.173
950.341, 3704.463
950.823, 3741.749
951.305, 3779.049
951.787, 3816.335
952.269, 3853.626
952.751, 3890.913
953.234, 3908.159
953.716, 3955.816
954.198, 4043.372
954.680, 4117.888
955.162, 4164.865
955.644, 4225.514
956.126, 4324.296
956.608, 4438.047
957.091, 4528.093
957.573, 4593.812
958.055, 4709.245
958.537, 4887.727
959.019, 5081.929
959.501, 5274.814
959.983, 5503.014
960.465, 5782.838
960.947, 6113.806
961.430, 6485.891
961.912, 6887.935
962.394, 7407.773
962.876, 8041.965
963.358, 8800.481
963.840, 9675.094
964.322, 10688.660
964.804, 11872.660
965.286, 13203.700
965.769, 14638.110
966.251, 16173.790
966.733, 17802.340
967.215, 19523.350
967.697, 21326.330
968.179, 23275.051
968.661, 25244.740
969.143, 27330.279
969.625, 29370.711
970.108, 30816.051
970.590, 31763.500
971.072, 31779.359
971.554, 30602.660
972.036, 28754.980
972.518, 26051.859
973.000, 23052.109
973.482, 20196.900
973.964, 17534.100
974.447, 15234.860
974.929, 13356.050
975.411, 11762.410
975.893, 10465.960
976.375, 9396.310
976.857, 8577.730
977.339, 7932.451
977.821, 7393.881
978.304, 6948.312
978.786, 6574.417
979.268, 6296.100
979.750, 6044.302
980.232, 5795.608
980.714, 5573.686
981.196, 5398.861
981.678, 5258.634
982.161, 5135.618
982.643, 5027.359
983.125, 4937.180
983.607, 4876.893
984.089, 4819.934
984.571, 4753.018
985.053, 4690.385
985.535, 4637.883
986.018, 4599.118
986.500, 4582.743
986.982, 4589.559
987.464, 4595.444
987.946, 4588.144
988.428, 4582.956
988.910, 4577.003
989.392, 4584.534
989.874, 4622.606
990.357, 4681.510
990.839, 4739.805
991.321, 4792.775
991.803, 4857.801
992.285, 4948.672
992.767, 5044.812
993.249, 5133.277
993.731, 5224.798
994.213, 5334.930
994.696, 5454.619
995.178, 5565.510
995.660, 5663.881
996.142, 5741.648
996.624, 5800.061
997.106, 5831.746
997.588, 5836.996
998.070, 5810.342
998.552, 5736.599
999.035, 5628.227
999.517, 5517.932
999.999, 5416.054
1000.481, 5289.997
1000.963, 5101.989
1001.445, 4912.454
1001.927, 4744.570
1002.409, 4601.207
1002.892, 4487.499
1003.374, 4400.504
1003.856, 4331.531
1004.338, 4278.467
1004.820, 4241.524
1005.302, 4232.155
1005.784, 4225.728
1006.266, 4197.815
1006.748, 4172.665
1007.231, 4179.369
1007.713, 4211.990
1008.195, 4246.921
1008.677, 4277.869
1009.159, 4308.029
1009.641, 4331.934
1010.123, 4363.660
1010.605, 4414.870
1011.088, 4475.704
1011.570, 4536.474
1012.052, 4597.179
1012.534, 4659.781
1013.016, 4724.052
1013.498, 4795.559
1013.980, 4883.691
1014.462, 4971.509
1014.944, 5038.123
1015.427, 5107.975
1015.909, 5210.497
1016.391, 5339.147
1016.873, 5468.120
1017.355, 5595.181
1017.837, 5701.693
1018.319, 5773.402
1018.801, 5832.470
1019.284, 5891.423
1019.766, 5942.140
1020.248, 5985.965
1020.730, 6013.043
1021.212, 5996.828
1021.694, 5925.708
1022.176, 5835.415
1022.658, 5733.260
1023.140, 5618.625
1023.623, 5485.032
1024.105, 5343.380
1024.587, 5191.808
1025.069, 5041.663
1025.551, 4918.244
1026.033, 4825.023
1026.515, 4762.619
1026.997, 4741.509
1027.479, 4737.533
1027.962, 4744.963
1028.444, 4762.271
1028.926, 4789.924
1029.408, 4826.430
1029.890, 4868.380
1030.372, 4916.178
1030.854, 4965.991
1031.336, 5024.022
1031.819, 5074.994
1032.301, 5109.067
1032.783, 5138.945
1033.265, 5176.687
1033.747, 5217.822
1034.229, 5244.295
1034.711, 5240.542
1035.193, 5280.563
1035.676, 5372.999
1036.158, 5504.630
1036.640, 5657.919
1037.122, 5864.206
1037.604, 6153.177
1038.086, 6509.182
1038.568, 6895.812
1039.050, 7307.867
1039.532, 7771.716
1040.015, 8284.084
1040.497, 8854.032
1040.979, 9502.866
1041.461, 10184.400
1041.943, 10894.100
1042.425, 11605.490
1042.907, 12279.890
1043.389, 12919.650
1043.871, 13483.860
1044.354, 14068.780
1044.836, 14350.090
1045.318, 14243.700
1045.800, 13879.840
1046.282, 13296.840
1046.764, 12543.250
1047.246, 11681.790
1047.728, 10707.070
1048.211, 9825.744
1048.693, 9042.009
1049.175, 8337.227
1049.657, 7703.923
1050.139, 7157.924
1050.621, 6709.616
1051.103, 6348.092
1051.585, 6067.354
1052.068, 5858.828
1052.550, 5642.107
1053.032, 5410.983
1053.514, 5241.411
1053.996, 5148.880
1054.478, 5069.534
1054.960, 4974.722
1055.442, 4886.712
1055.924, 4834.347
1056.406, 4808.882
1056.889, 4772.912
1057.371, 4727.907
1057.853, 4707.788
1058.335, 4714.933
1058.817, 4726.570
1059.299, 4734.355
1059.781, 4739.706
1060.263, 4745.611
1060.746, 4746.168
1061.228, 4725.961
1061.710, 4688.257
1062.192, 4644.342
1062.674, 4596.629
1063.156, 4556.402
1063.638, 4525.708
1064.120, 4489.220
1064.603, 4433.456
1065.085, 4372.530
1065.567, 4325.879
1066.049, 4290.579
1066.531, 4261.323
1067.013, 4237.182
1067.495, 4218.202
1067.977, 4203.315
1068.459, 4186.131
1068.942, 4161.461
1069.424, 4142.926
1069.906, 4144.459
1070.388, 4151.811
1070.870, 4157.751
1071.352, 4162.355
1071.834, 4161.617
1072.316, 4167.776
1072.798, 4171.170
1073.281, 4174.461
1073.763, 4181.590
1074.245, 4181.630
1074.727, 4188.699
1075.209, 4192.960
1075.691, 4198.507
1076.173, 4201.273
1076.655, 4204.898
1077.138, 4211.312
1077.620, 4216.179
1078.102, 4218.625
1078.584, 4224.253
1079.066, 4224.196
1079.548, 4229.127
1080.030, 4236.212
1080.512, 4238.797
1080.994, 4241.968
1081.477, 4256.703
1081.959, 4266.365
1082.441, 4283.218
1082.923, 4291.437
1083.405, 4306.430
1083.887, 4319.777
1084.369, 4331.571
1084.851, 4337.148
1085.333, 4350.753
1085.816, 4361.164
1086.298, 4371.418
1086.780, 4386.151
1087.262, 4395.617
1087.744, 4402.654
1088.226, 4427.130
1088.708, 4445.096
1089.190, 4445.104
1089.672, 4442.416
1090.155, 4449.662
1090.637, 4465.313
1091.119, 4489.537
1091.601, 4511.676
1092.083, 4531.852
1092.565, 4544.163
1093.047, 4566.629
1093.529, 4585.028
1094.012, 4603.294
1094.494, 4627.188
1094.976, 4640.643
1095.458, 4664.448
1095.940, 4683.363
1096.422, 4690.682
1096.904, 4709.383
1097.386, 4739.519
1097.869, 4779.712
1098.351, 4818.444
1098.833, 4850.345
1099.315, 4879.683
1099.797, 4911.239
1100.279, 4942.617
1100.761, 4966.101
1101.243, 4987.587
1101.725, 5025.819
1102.208, 5073.406
1102.690, 5095.167
1103.172, 5087.435
1103.654, 5104.208
1104.136, 5197.501
1104.618, 5288.216
1105.100, 5290.439
1105.582, 5270.880
1106.064, 5298.351
1106.547, 5352.835
1107.029, 5396.757
1107.511, 5427.553
1107.993, 5465.046
1108.475, 5519.547
1108.957, 5567.845
1109.439, 5592.470
1109.921, 5618.727
1110.404, 5661.033
1110.886, 5708.807
1111.368, 5750.029
1111.850, 5788.982
1112.332, 5837.816
1112.814, 5899.063
1113.296, 5961.864
1113.778, 6036.188
1114.260, 6095.187
1114.743, 6119.600
1115.225, 6151.511
1115.707, 6213.900
1116.189, 6294.556
1116.671, 6381.814
1117.153, 6473.116
1117.635, 6542.272
1118.117, 6582.160
1118.599, 6634.269
1119.082, 6702.065
1119.564, 6776.127
1120.046, 6852.459
1120.528, 6939.996
1121.010, 7049.288
1121.492, 7167.411
1121.974, 7233.374
1122.456, 7317.366
1122.939, 7448.937
1123.421, 7568.816
1123.903, 7677.784
1124.385, 7743.286
1124.867, 7864.922
1125.349, 7969.267
1125.831, 8054.939
1126.313, 8205.692
1126.796, 8375.837
1127.278, 8490.176
1127.760, 8578.254
1128.242, 8685.914
1128.724, 8813.715
1129.206, 8951.184
1129.688, 9093.639
1130.170, 9229.042
1130.652, 9339.208
1131.135, 9461.815
1131.617, 9627.494
1132.099, 9804.130
1132.581, 9976.118
1133.063, 10138.700
1133.545, 10281.110
1134.027, 10410.230
1134.509, 10554.310
1134.991, 10724.360
1135.474, 10891.230
1135.956, 11038.090
1136.438, 11200.550
1136.920, 11403.470
1137.402, 11602.990
1137.884, 11765.350
1138.366, 11910.000
1138.848, 12073.640
1139.331, 12256.060
1139.813, 12440.610
1140.295, 12629.110
1140.777, 12805.390
1141.259, 12968.210
1141.741, 13115.820
1142.223, 13245.040
1142.705, 13386.540
1143.188, 13576.660
1143.670, 13789.050
1144.152, 13964.680
1144.634, 14106.360
1145.116, 14213.470
1145.598, 14294.370
1146.080, 14378.530
1146.562, 14473.260
1147.044, 14584.040
1147.526, 14716.030
1148.009, 14826.740
1148.491, 14863.130
1148.973, 14869.280
1149.455, 14881.160
1149.937, 14899.240
1150.419, 14927.270
1150.901, 14959.910
1151.383, 14987.320
1151.866, 15007.260
1152.348, 15020.090
1152.830, 15038.660
1153.312, 15029.930
1153.794, 14956.570
1154.276, 14887.180
1154.758, 14863.150
1155.240, 14855.380
1155.723, 14832.900
1156.205, 14800.000
1156.687, 14774.760
1157.169, 14766.760
1157.651, 14716.800
1158.133, 14600.590
1158.615, 14521.220
1159.097, 14502.380
1159.579, 14461.962
1160.062, 14474.485
1160.544, 14474.187
1161.026, 14461.715
1161.508, 14400.627
1161.990, 14402.321
1162.472, 14378.853
1162.954, 14354.356
1163.436, 14364.882
1163.918, 14334.220
1164.401, 14351.170
1164.883, 14365.840
1165.365, 14345.590
1165.847, 14322.030
1166.329, 14329.930
1166.811, 14349.530
1167.293, 14364.170
1167.775, 14372.550
1168.258, 14375.880
1168.740, 14372.030
1169.222, 14347.700
1169.704, 14300.310
1170.186, 14282.800
1170.668, 14353.880
1171.150, 14395.560
1171.632, 14345.300
1172.115, 14296.920
1172.597, 14306.820
1173.079, 14335.210
1173.561, 14347.210
1174.043, 14343.160
1174.525, 14320.390
1175.007, 14270.880
1175.489, 14253.660
1175.971, 14276.590
1176.453, 14288.590
1176.936, 14279.360
1177.418, 14263.110
1177.900, 14247.230
1178.382, 14226.340
1178.864, 14182.630
1179.346, 14146.890
1179.828, 14076.211
1180.310, 14049.233
1180.793, 14011.558
1181.275, 13963.935
1181.757, 13876.219
1182.239, 13840.277
1182.721, 13788.380
1183.203, 13729.590
1183.685, 13687.180
1184.167, 13665.770
1184.650, 13636.540
1185.132, 13568.430
1185.614, 13493.160
1186.096, 13443.200
1186.578, 13408.480
1187.060, 13361.010
1187.542, 13298.160
1188.024, 13260.850
1188.506, 13279.420
1188.989, 13270.110
1189.471, 13222.860
1189.953, 13162.020
1190.435, 13088.190
1190.917, 13020.380
1191.399, 12973.570
1191.881, 12943.700
1192.363, 12928.300
1192.845, 12923.120
1193.328, 12891.620
1193.810, 12839.490
1194.292, 12804.380
1194.774, 12789.490
1195.256, 12784.660
1195.738, 12784.780
1196.220, 12778.850
1196.702, 12759.270
1197.185, 12729.020
1197.667, 12667.920
1198.149, 12620.680
1198.631, 12650.410
1199.113, 12710.370
1199.595, 12732.590
1200.077, 12727.500
1200.559, 12747.020
1201.042, 12803.430
1201.524, 12856.210
1202.006, 12899.500
1202.488, 12935.980
1202.970, 12958.860
1203.452, 12985.640
1203.934, 13020.070
1204.416, 13066.350
1204.898, 13130.020
1205.380, 13206.510
1205.863, 13285.710
1206.345, 13367.350
1206.827, 13441.340
1207.309, 13508.700
1207.791, 13575.520
1208.273, 13645.270
1208.755, 13740.380
1209.237, 13868.190
1209.720, 13992.630
1210.202, 14079.790
1210.684, 14157.250
1211.166, 14244.930
1211.648, 14348.030
1212.130, 14488.780
1212.612, 14638.050
1213.094, 14747.480
1213.577, 14825.350
1214.059, 14914.570
1214.541, 15023.650
1215.023, 15142.190
1215.505, 15280.530
1215.987, 15408.340
1216.469, 15513.770
1216.951, 15624.780
1217.433, 15764.420
1217.916, 15891.560
1218.398, 15958.630
1218.880, 15993.750
1219.362, 16078.170
1219.844, 16207.820
1220.326, 16339.030
1220.808, 16470.520
1221.290, 16596.750
1221.772, 16714.939
1222.255, 16806.811
1222.737, 16867.840
1223.219, 16939.561
1223.701, 17056.320
1224.183, 17190.801
1224.665, 17341.420
1225.147, 17475.850
1225.629, 17556.279
1226.112, 17610.359
1226.594, 17663.090
1227.076, 17721.900
1227.558, 17798.650
1228.040, 17898.471
1228.522, 17989.900
1229.004, 18067.529
1229.486, 18148.029
1229.969, 18240.721
1230.451, 18313.270
1230.933, 18351.910
1231.415, 18375.561
1231.897, 18400.391
1232.379, 18421.570
1232.861, 18429.920
1233.343, 18426.250
1233.825, 18418.000
1234.307, 18398.711
1234.790, 18339.070
1235.272, 18251.689
1235.754, 18192.811
1236.236, 18172.381
1236.718, 18128.180
1237.200, 18018.830
1237.682, 17904.830
1238.164, 17826.789
1238.647, 17739.961
1239.129, 17617.020
1239.611, 17479.789
1240.093, 17336.990
1240.575, 17198.109
1241.057, 17078.891
1241.539, 16978.020
1242.021, 16879.811
1242.504, 16788.689
1242.986, 16653.100
1243.468, 16468.350
1243.950, 16315.310
1244.432, 16213.680
1244.914, 16110.540
1245.396, 15974.120
1245.878, 15825.170
1246.360, 15681.290
1246.843, 15545.510
1247.325, 15434.690
1247.807, 15325.910
1248.289, 15178.510
1248.771, 15020.150
1249.253, 14900.520
1249.735, 14819.140
1250.217, 14740.060
1250.699, 14665.690
1251.182, 14558.460
1251.664, 14375.990
1252.146, 14237.000
1252.628, 14177.250
1253.110, 14114.220
1253.592, 14007.740
1254.074, 13892.700
1254.556, 13805.340
1255.039, 13733.320
1255.521, 13650.110
1256.003, 13558.380
1256.485, 13458.520
1256.967, 13360.860
1257.449, 13301.910
1257.931, 13270.960
1258.413, 13217.440
1258.896, 13129.010
1259.378, 13043.490
1259.860, 12979.930
1260.342, 12921.980
1260.824, 12857.430
1261.306, 12804.940
1261.788, 12789.840
1262.270, 12771.750
1262.752, 12712.910
1263.234, 12641.960
1263.717, 12606.120
1264.199, 12599.160
1264.681, 12578.830
1265.163, 12545.000
1265.645, 12494.680
1266.127, 12431.750
1266.609, 12394.280
1267.091, 12386.770
1267.574, 12377.330
1268.056, 12350.660
##END=



