##NAMES=Wollastonite
##RRUFFID=R040008
##IDEAL CHEMISTRY=CaSiO_3_
##LOCALITY=Lake Baikal, Siberia, Russia
##OWNER=RRUFF
##SOURCE=University of Arizona Mineral Museum
##DESCRIPTION=2M polytype. Colorless parallel acicular crystals
##STATUS=The identification of this mineral has been confirmed by X-ray diffraction and chemical analysis
##URL=rruff.info/R040008
##MEASURED CHEMISTRY=Ca_1.00_Si_1.00_O_3_; trace amounts of Fe and Mn
153.8242, 32614.72
154.3063, 32728.61
154.7885, 32865.19
155.2706, 33019.31
155.7527, 33167.41
156.2348, 33280.97
156.7169, 33400.98
157.1990, 33553.12
157.6812, 33768.89
158.1633, 33989.61
158.6454, 34200.51
159.1275, 34396.91
159.6096, 34588.09
160.0917, 34755.62
160.5739, 34921.02
161.0560, 35107.13
161.5381, 35348.33
162.0202, 35587.20
162.5023, 35796.21
162.9844, 35967.06
163.4666, 36126.99
163.9487, 36307.42
164.4308, 36482.90
164.9129, 36611.37
165.3950, 36663.52
165.8771, 36671.43
166.3593, 36651.55
166.8414, 36596.69
167.3235, 36543.59
167.8056, 36514.07
168.2877, 36504.91
168.7698, 36505.76
169.2519, 36510.05
169.7341, 36523.24
170.2162, 36553.80
170.6983, 36618.10
171.1804, 36680.88
171.6625, 36709.56
172.1446, 36708.87
172.6268, 36705.43
173.1089, 36706.04
173.5910, 36717.06
174.0731, 36748.42
174.5552, 36810.82
175.0373, 36889.83
175.5195, 36965.75
176.0016, 37039.17
176.4837, 37120.65
176.9658, 37229.79
177.4479, 37353.68
177.9300, 37462.71
178.4122, 37533.25
178.8943, 37584.45
179.3764, 37643.68
179.8585, 37710.02
180.3406, 37791.18
180.8227, 37908.07
181.3049, 38050.42
181.7870, 38183.38
182.2691, 38277.13
182.7512, 38347.77
183.2333, 38432.68
183.7154, 38534.52
184.1976, 38647.75
184.6797, 38772.13
185.1618, 38906.23
185.6439, 39029.24
186.1260, 39125.13
186.6081, 39198.79
187.0903, 39273.85
187.5724, 39357.18
188.0545, 39437.54
188.5366, 39484.83
189.0187, 39498.48
189.5008, 39530.71
189.9829, 39647.54
190.4651, 39832.99
190.9472, 39962.29
191.4293, 39994.61
191.9114, 39968.87
192.3935, 39998.32
192.8756, 40091.29
193.3578, 40177.34
193.8399, 40177.10
194.3220, 40093.17
194.8041, 40040.69
195.2862, 40056.93
195.7683, 40126.57
196.2505, 40174.95
196.7326, 40197.47
197.2147, 40218.58
197.6968, 40276.34
198.1789, 40375.39
198.6610, 40443.82
199.1432, 40437.57
199.6253, 40365.72
200.1074, 40372.68
200.5895, 40475.28
201.0716, 40616.80
201.5537, 40723.03
202.0359, 40788.76
202.5180, 40843.73
203.0001, 40895.18
203.4822, 40942.22
203.9643, 40985.79
204.4464, 41019.39
204.9286, 41054.25
205.4107, 41115.90
205.8928, 41213.71
206.3749, 41302.47
206.8570, 41359.22
207.3391, 41377.27
207.8212, 41405.15
208.3034, 41447.38
208.7855, 41498.38
209.2676, 41546.24
209.7497, 41594.37
210.2318, 41636.38
210.7139, 41665.46
211.1961, 41675.18
211.6782, 41706.63
212.1603, 41770.25
212.6424, 41855.41
213.1245, 41922.25
213.6066, 41956.45
214.0888, 42000.30
214.5709, 42085.96
215.0530, 42234.27
215.5351, 42354.42
216.0172, 42428.10
216.4993, 42464.63
216.9815, 42517.16
217.4636, 42583.75
217.9457, 42664.37
218.4278, 42764.30
218.9099, 42896.73
219.3920, 43009.47
219.8742, 43096.70
220.3563, 43158.06
220.8384, 43197.77
221.3205, 43204.29
221.8026, 43206.87
222.2847, 43230.44
222.7669, 43283.62
223.2490, 43343.15
223.7311, 43408.09
224.2132, 43479.85
224.6953, 43544.75
225.1774, 43596.52
225.6596, 43650.07
226.1417, 43721.92
226.6238, 43820.10
227.1059, 43917.24
227.5880, 44006.05
228.0701, 44084.08
228.5522, 44173.97
229.0344, 44292.52
229.5165, 44405.18
229.9986, 44468.45
230.4807, 44446.10
230.9628, 44439.49
231.4449, 44480.37
231.9271, 44579.16
232.4092, 44649.13
232.8913, 44667.36
233.3734, 44676.44
233.8555, 44739.21
234.3376, 44905.24
234.8198, 45042.98
235.3019, 45105.82
235.7840, 45070.66
236.2661, 45077.11
236.7482, 45149.02
237.2303, 45248.39
237.7125, 45313.81
238.1946, 45318.40
238.6767, 45334.10
239.1588, 45387.96
239.6409, 45495.31
240.1230, 45588.01
240.6052, 45658.71
241.0873, 45718.10
241.5694, 45781.69
242.0515, 45837.66
242.5336, 45915.56
243.0157, 46031.57
243.4979, 46206.48
243.9800, 46352.79
244.4621, 46465.98
244.9442, 46549.09
245.4263, 46607.69
245.9084, 46620.42
246.3905, 46637.80
246.8727, 46683.14
247.3548, 46777.67
247.8369, 46839.92
248.3190, 46854.52
248.8011, 46842.58
249.2832, 46852.06
249.7654, 46889.09
250.2475, 46941.24
250.7296, 47013.14
251.2117, 47141.54
251.6938, 47204.93
252.1759, 47174.83
252.6581, 47092.22
253.1402, 47058.69
253.6223, 47095.31
254.1044, 47150.47
254.5865, 47205.72
255.0686, 47274.87
255.5508, 47305.43
256.0329, 47264.26
256.5150, 47192.30
256.9971, 47212.25
257.4792, 47369.98
257.9613, 47536.92
258.4435, 47648.27
258.9256, 47678.63
259.4077, 47716.72
259.8898, 47763.73
260.3719, 47818.97
260.8540, 47883.46
261.3362, 47960.32
261.8183, 48038.85
262.3004, 48118.45
262.7825, 48206.91
263.2646, 48262.66
263.7467, 48264.82
264.2289, 48238.22
264.7110, 48268.43
265.1931, 48383.23
265.6752, 48495.83
266.1573, 48556.98
266.6394, 48553.97
267.1216, 48547.37
267.6037, 48535.30
268.0858, 48525.73
268.5679, 48544.61
269.0500, 48599.77
269.5321, 48665.71
270.0143, 48733.21
270.4964, 48806.13
270.9785, 48860.22
271.4606, 48882.32
271.9427, 48892.45
272.4248, 48952.81
272.9070, 49074.13
273.3891, 49213.28
273.8712, 49359.63
274.3533, 49521.27
274.8354, 49615.52
275.3175, 49607.49
275.7997, 49545.58
276.2818, 49566.66
276.7639, 49683.55
277.2460, 49827.95
277.7281, 49961.98
278.2102, 50084.35
278.6924, 50208.71
279.1745, 50344.34
279.6566, 50472.86
280.1387, 50540.49
280.6208, 50537.88
281.1029, 50527.09
281.5851, 50554.55
282.0672, 50620.19
282.5493, 50654.43
283.0314, 50642.53
283.5135, 50607.18
283.9956, 50600.02
284.4778, 50623.79
284.9599, 50651.98
285.4420, 50660.71
285.9241, 50653.94
286.4062, 50675.13
286.8883, 50731.91
287.3705, 50812.63
287.8526, 50905.05
288.3347, 51009.43
288.8168, 51099.08
289.2989, 51149.97
289.7810, 51168.35
290.2632, 51189.80
290.7453, 51220.58
291.2274, 51247.12
291.7095, 51225.05
292.1916, 51160.20
292.6737, 51134.62
293.1558, 51240.24
293.6379, 51429.54
294.1201, 51542.06
294.6022, 51551.05
295.0843, 51519.36
295.5664, 51522.53
296.0485, 51560.41
296.5306, 51624.12
297.0128, 51726.57
297.4949, 51852.13
297.9770, 51960.00
298.4591, 52042.90
298.9412, 52127.54
299.4233, 52253.48
299.9055, 52410.39
300.3876, 52556.41
300.8697, 52642.45
301.3518, 52707.84
301.8339, 52825.61
302.3160, 53010.06
302.7982, 53195.20
303.2803, 53310.69
303.7624, 53372.75
304.2445, 53430.43
304.7266, 53519.45
305.2087, 53609.33
305.6909, 53665.46
306.1730, 53682.66
306.6551, 53683.41
307.1372, 53685.32
307.6193, 53685.60
308.1014, 53677.94
308.5836, 53635.18
309.0657, 53600.88
309.5478, 53628.17
310.0299, 53725.75
310.5120, 53811.88
310.9941, 53814.25
311.4763, 53774.03
311.9584, 53750.71
312.4405, 53758.60
312.9226, 53799.36
313.4047, 53887.52
313.8868, 54025.75
314.3690, 54155.61
314.8511, 54238.30
315.3332, 54299.56
315.8153, 54368.64
316.2974, 54450.28
316.7795, 54548.54
317.2617, 54678.05
317.7438, 54838.56
318.2259, 54979.01
318.7080, 55080.64
319.1901, 55155.01
319.6722, 55212.24
320.1544, 55232.59
320.6365, 55257.79
321.1186, 55301.32
321.6007, 55361.50
322.0828, 55420.37
322.5649, 55487.39
323.0471, 55541.94
323.5292, 55569.48
324.0113, 55519.46
324.4934, 55493.20
324.9755, 55523.98
325.4576, 55601.32
325.9398, 55654.31
326.4219, 55636.15
326.9040, 55619.07
327.3861, 55641.57
327.8682, 55729.86
328.3503, 55828.41
328.8325, 55947.33
329.3146, 56077.51
329.7967, 56191.42
330.2788, 56298.62
330.7609, 56381.71
331.2430, 56428.47
331.7251, 56388.37
332.2072, 56402.51
332.6894, 56492.16
333.1715, 56634.17
333.6536, 56766.66
334.1357, 56900.35
334.6178, 57012.47
335.0999, 57082.91
335.5821, 57080.26
336.0642, 57141.84
336.5463, 57297.01
337.0284, 57492.73
337.5105, 57635.39
337.9926, 57717.87
338.4748, 57762.19
338.9569, 57769.44
339.4390, 57736.48
339.9211, 57693.55
340.4032, 57634.51
340.8853, 57576.86
341.3675, 57554.25
341.8496, 57571.96
342.3317, 57581.27
342.8138, 57574.74
343.2959, 57550.66
343.7780, 57477.85
344.2602, 57350.92
344.7423, 57210.23
345.2244, 57084.49
345.7065, 56977.43
346.1886, 56930.41
346.6707, 56978.23
347.1529, 57083.46
347.6350, 57142.15
348.1171, 57151.54
348.5992, 57152.61
349.0813, 57186.65
349.5634, 57239.94
350.0456, 57270.26
350.5277, 57244.69
351.0098, 57213.17
351.4919, 57278.25
351.9740, 57424.29
352.4561, 57535.02
352.9383, 57492.53
353.4204, 57370.07
353.9025, 57283.48
354.3846, 57261.77
354.8667, 57273.79
355.3488, 57300.79
355.8310, 57341.32
356.3131, 57388.51
356.7952, 57455.01
357.2773, 57519.10
357.7594, 57555.10
358.2415, 57549.46
358.7237, 57550.82
359.2058, 57603.29
359.6879, 57681.25
360.1700, 57738.73
360.6521, 57703.68
361.1342, 57682.02
361.6164, 57748.62
362.0985, 57926.18
362.5806, 58079.95
363.0627, 58166.88
363.5448, 58201.96
364.0269, 58203.04
364.5091, 58116.41
364.9912, 58051.99
365.4733, 58057.73
365.9554, 58138.80
366.4375, 58204.46
366.9196, 58236.54
367.4018, 58252.93
367.8839, 58268.01
368.3660, 58261.98
368.8481, 58279.95
369.3302, 58339.85
369.8123, 58435.60
370.2944, 58508.15
370.7766, 58530.35
371.2587, 58555.56
371.7408, 58616.25
372.2229, 58740.78
372.7050, 58839.88
373.1871, 58900.32
373.6693, 58932.14
374.1514, 58968.83
374.6335, 59011.95
375.1156, 59053.52
375.5977, 59084.00
376.0798, 59094.36
376.5620, 59144.04
377.0441, 59250.68
377.5262, 59375.15
378.0083, 59454.96
378.4904, 59489.31
378.9725, 59498.42
379.4547, 59477.41
379.9368, 59434.43
380.4189, 59432.49
380.9010, 59478.40
381.3831, 59543.70
381.8652, 59583.02
382.3474, 59605.57
382.8295, 59669.99
383.3116, 59809.23
383.7937, 59992.68
384.2758, 60171.93
384.7579, 60345.01
385.2401, 60487.47
385.7222, 60546.24
386.2043, 60563.18
386.6864, 60631.32
387.1685, 60790.48
387.6506, 60974.30
388.1328, 61128.56
388.6149, 61251.52
389.0970, 61332.05
389.5791, 61325.64
390.0612, 61295.25
390.5433, 61311.21
391.0255, 61402.45
391.5076, 61485.77
391.9897, 61496.28
392.4718, 61469.68
392.9539, 61468.63
393.4360, 61531.34
393.9182, 61617.72
394.4003, 61710.76
394.8824, 61808.82
395.3645, 61917.91
395.8466, 62047.34
396.3287, 62185.05
396.8109, 62319.26
397.2930, 62409.96
397.7751, 62532.30
398.2572, 62720.60
398.7393, 62970.76
399.2214, 63182.81
399.7036, 63319.51
400.1857, 63442.33
400.6678, 63585.95
401.1499, 63762.05
401.6320, 63942.36
402.1141, 64131.38
402.5963, 64325.14
403.0784, 64509.00
403.5605, 64676.89
404.0426, 64847.84
404.5247, 65022.66
405.0068, 65192.34
405.4890, 65420.82
405.9711, 65725.56
406.4532, 66065.63
406.9353, 66378.73
407.4174, 66658.63
407.8995, 66963.13
408.3816, 67320.73
408.8637, 67720.90
409.3459, 68117.76
409.8280, 68514.11
410.3101, 68903.50
410.7922, 69313.95
411.2743, 69721.84
411.7564, 70014.87
412.2386, 70165.08
412.7207, 70184.51
413.2028, 70072.47
413.6849, 69836.15
414.1670, 69534.24
414.6491, 69181.54
415.1313, 68792.70
415.6134, 68373.88
416.0955, 67910.79
416.5776, 67457.04
417.0597, 67068.18
417.5418, 66719.70
418.0240, 66356.77
418.5061, 65903.23
418.9882, 65469.48
419.4703, 65134.49
419.9524, 64905.55
420.4345, 64721.89
420.9167, 64573.92
421.3988, 64454.59
421.8809, 64352.27
422.3630, 64292.18
422.8451, 64223.70
423.3272, 64132.85
423.8094, 64022.75
424.2915, 63915.10
424.7736, 63775.75
425.2557, 63668.88
425.7378, 63628.88
426.2199, 63719.14
426.7021, 63770.43
427.1842, 63760.55
427.6663, 63717.70
428.1484, 63708.74
428.6305, 63757.66
429.1126, 63787.07
429.5948, 63750.78
430.0769, 63639.23
430.5590, 63622.82
431.0411, 63731.94
431.5232, 63871.92
432.0053, 63923.66
432.4875, 63883.40
432.9696, 63864.48
433.4517, 63907.52
433.9338, 63985.77
434.4159, 64021.04
434.8980, 64013.93
435.3802, 63996.54
435.8623, 63976.65
436.3444, 63965.59
436.8265, 63999.43
437.3086, 64094.50
437.7907, 64203.09
438.2729, 64270.03
438.7550, 64306.66
439.2371, 64344.85
439.7192, 64415.02
440.2013, 64483.84
440.6834, 64508.75
441.1656, 64483.05
441.6477, 64475.65
442.1298, 64557.88
442.6119, 64665.43
443.0940, 64729.27
443.5761, 64670.66
444.0583, 64623.58
444.5403, 64646.80
445.0225, 64727.36
445.5046, 64789.75
445.9867, 64823.38
446.4688, 64834.36
446.9509, 64822.13
447.4330, 64751.63
447.9152, 64721.91
448.3973, 64751.61
448.8794, 64815.63
449.3615, 64873.92
449.8436, 64919.07
450.3257, 64971.29
450.8079, 65038.77
451.2900, 65121.64
451.7721, 65187.91
452.2542, 65232.44
452.7363, 65267.90
453.2184, 65303.55
453.7006, 65338.64
454.1827, 65378.55
454.6648, 65426.75
455.1469, 65477.07
455.6290, 65518.07
456.1111, 65550.10
456.5933, 65566.22
457.0754, 65545.77
457.5575, 65508.55
458.0396, 65497.77
458.5217, 65516.46
459.0038, 65565.88
459.4860, 65675.23
459.9681, 65815.45
460.4502, 65926.31
460.9323, 65950.34
461.4144, 65960.83
461.8965, 66018.77
462.3787, 66118.34
462.8608, 66210.87
463.3429, 66247.92
463.8250, 66284.16
464.3071, 66364.06
464.7892, 66522.49
465.2714, 66678.94
465.7535, 66815.77
466.2356, 66937.83
466.7177, 67052.11
467.1998, 67207.94
467.6819, 67305.36
468.1641, 67294.20
468.6462, 67146.98
469.1283, 67070.28
469.6104, 67090.41
470.0925, 67149.45
470.5746, 67203.97
471.0568, 67261.60
471.5389, 67282.23
472.0210, 67246.28
472.5031, 67175.77
472.9852, 67154.76
473.4673, 67193.92
473.9495, 67205.08
474.4316, 67108.17
474.9137, 66929.65
475.3958, 66827.59
475.8779, 66815.64
476.3600, 66849.09
476.8422, 66889.09
477.3243, 66934.57
477.8064, 66976.77
478.2885, 66989.68
478.7706, 67018.41
479.2527, 67141.64
479.7349, 67341.47
480.2170, 67510.58
480.6991, 67529.55
481.1812, 67513.54
481.6633, 67571.41
482.1454, 67756.79
482.6275, 67923.18
483.1096, 67977.30
483.5918, 67975.32
484.0739, 68006.99
484.5560, 68106.70
485.0381, 68225.05
485.5202, 68380.09
486.0023, 68581.44
486.4845, 68653.07
486.9666, 68476.54
487.4487, 68280.13
487.9308, 68223.76
488.4129, 68404.77
488.8951, 68497.02
489.3772, 68456.20
489.8593, 68341.68
490.3414, 68283.98
490.8235, 68289.31
491.3056, 68324.23
491.7878, 68381.84
492.2699, 68459.91
492.7520, 68545.23
493.2341, 68639.95
493.7162, 68714.73
494.1983, 68724.73
494.6805, 68687.41
495.1626, 68655.50
495.6447, 68637.32
496.1268, 68633.75
496.6089, 68654.75
497.0910, 68692.74
497.5732, 68724.90
498.0553, 68702.35
498.5374, 68694.39
499.0195, 68782.09
499.5016, 68989.27
499.9837, 69147.27
500.4659, 69110.42
500.9480, 69022.09
501.4301, 69019.70
501.9122, 69254.05
502.3943, 69439.79
502.8764, 69498.01
503.3586, 69457.11
503.8407, 69446.98
504.3228, 69466.97
504.8049, 69515.24
505.2870, 69601.05
505.7691, 69740.37
506.2513, 69824.45
506.7334, 69828.20
507.2155, 69813.41
507.6976, 69865.21
508.1797, 69990.66
508.6618, 70096.80
509.1440, 70164.80
509.6261, 70199.10
510.1082, 70194.79
510.5903, 70155.48
511.0724, 70129.53
511.5545, 70163.02
512.0366, 70229.13
512.5187, 70271.77
513.0009, 70281.38
513.4830, 70307.21
513.9651, 70405.62
514.4472, 70542.48
514.9293, 70666.97
515.4114, 70766.98
515.8936, 70840.92
516.3757, 70876.74
516.8578, 70880.63
517.3399, 70887.30
517.8220, 70859.66
518.3041, 70873.33
518.7863, 70979.35
519.2684, 71252.74
519.7505, 71443.22
520.2326, 71501.77
520.7147, 71506.48
521.1968, 71549.18
521.6790, 71652.27
522.1611, 71743.02
522.6432, 71816.59
523.1253, 71867.52
523.6074, 71852.04
524.0895, 71757.88
524.5717, 71679.11
525.0538, 71681.97
525.5359, 71752.84
526.0180, 71821.60
526.5001, 71883.35
526.9822, 71948.80
527.4644, 72052.73
527.9465, 72169.88
528.4286, 72238.48
528.9107, 72200.54
529.3928, 72146.41
529.8749, 72167.01
530.3571, 72243.33
530.8392, 72302.35
531.3213, 72296.01
531.8034, 72272.77
532.2855, 72259.77
532.7676, 72260.02
533.2498, 72276.36
533.7319, 72333.60
534.2140, 72398.02
534.6961, 72433.66
535.1782, 72398.28
535.6603, 72398.58
536.1425, 72459.85
536.6246, 72564.66
537.1067, 72649.80
537.5888, 72709.75
538.0709, 72763.89
538.5530, 72819.98
539.0352, 72877.05
539.5173, 72930.36
539.9994, 72973.74
540.4815, 73033.15
540.9636, 73138.84
541.4457, 73283.58
541.9279, 73451.29
542.4100, 73669.44
542.8921, 73851.55
543.3742, 73838.13
543.8563, 73689.69
544.3384, 73585.98
544.8206, 73661.52
545.3027, 73785.00
545.7848, 73864.01
546.2669, 73889.81
546.7490, 73918.27
547.2311, 73979.84
547.7133, 74047.02
548.1954, 74100.20
548.6775, 74153.07
549.1596, 74169.57
549.6417, 74107.64
550.1238, 74020.69
550.6060, 74024.93
551.0881, 74162.02
551.5702, 74302.59
552.0523, 74413.95
552.5344, 74496.24
553.0165, 74547.88
553.4987, 74565.79
553.9808, 74567.85
554.4629, 74546.91
554.9450, 74516.66
555.4271, 74555.05
555.9092, 74687.86
556.3914, 74833.93
556.8735, 74891.67
557.3556, 74889.75
557.8377, 74890.26
558.3198, 74938.63
558.8019, 74985.28
559.2841, 74974.63
559.7662, 74920.80
560.2483, 74904.34
560.7304, 74939.07
561.2125, 75032.69
561.6946, 75211.68
562.1768, 75549.13
562.6589, 75773.87
563.1410, 75786.49
563.6231, 75728.18
564.1052, 75745.28
564.5873, 75874.98
565.0695, 75993.98
565.5516, 76090.03
566.0337, 76160.77
566.5158, 76189.15
566.9979, 76170.31
567.4800, 76152.09
567.9622, 76153.06
568.4443, 76174.71
568.9264, 76234.98
569.4085, 76336.87
569.8906, 76427.66
570.3727, 76454.84
570.8549, 76442.23
571.3370, 76422.52
571.8191, 76385.42
572.3012, 76381.16
572.7833, 76474.48
573.2654, 76619.91
573.7476, 76732.10
574.2297, 76751.45
574.7118, 76766.07
575.1939, 76829.03
575.6760, 76941.38
576.1581, 76971.07
576.6403, 76827.13
577.1223, 76697.65
577.6044, 76686.88
578.0865, 76839.62
578.5687, 76970.71
579.0508, 77080.99
579.5329, 77167.66
580.0150, 77205.01
580.4971, 77194.52
580.9792, 77246.39
581.4614, 77423.05
581.9435, 77634.96
582.4256, 77682.36
582.9077, 77597.41
583.3898, 77537.31
583.8719, 77614.93
584.3541, 77747.02
584.8362, 77858.64
585.3183, 77943.34
585.8004, 78013.83
586.2825, 78060.33
586.7646, 78104.08
587.2468, 78164.34
587.7289, 78267.63
588.2110, 78353.89
588.6931, 78416.17
589.1752, 78458.48
589.6573, 78486.77
590.1395, 78506.99
590.6216, 78498.21
591.1037, 78434.05
591.5858, 78336.45
592.0679, 78334.95
592.5500, 78440.06
593.0322, 78577.79
593.5143, 78727.03
593.9964, 78873.71
594.4785, 78950.85
594.9606, 78949.52
595.4427, 78926.78
595.9249, 78919.31
596.4070, 78931.02
596.8891, 78969.47
597.3712, 79046.09
597.8533, 79136.37
598.3354, 79232.23
598.8176, 79330.95
599.2997, 79426.35
599.7818, 79516.44
600.2639, 79600.82
600.7460, 79673.20
601.2281, 79733.52
601.7103, 79809.42
602.1924, 79906.40
602.6745, 80010.87
603.1566, 80110.96
603.6387, 80203.36
604.1208, 80318.98
604.6030, 80463.91
605.0851, 80617.81
605.5672, 80763.28
606.0493, 80898.33
606.5314, 80995.88
607.0135, 81036.09
607.4957, 81059.38
607.9778, 81114.58
608.4599, 81195.35
608.9420, 81285.32
609.4241, 81387.58
609.9063, 81485.37
610.3884, 81552.49
610.8705, 81590.62
611.3526, 81668.84
611.8347, 81886.82
612.3168, 82094.16
612.7990, 82195.48
613.2811, 82140.31
613.7632, 82093.69
614.2453, 82039.06
614.7274, 82013.09
615.2095, 82076.89
615.6917, 82246.26
616.1738, 82399.56
616.6559, 82507.48
617.1380, 82590.06
617.6201, 82690.06
618.1022, 82804.40
618.5844, 82920.79
619.0665, 83028.79
619.5486, 83134.79
620.0307, 83234.59
620.5128, 83330.09
620.9949, 83465.23
621.4771, 83715.89
621.9592, 83980.66
622.4413, 84175.21
622.9234, 84258.06
623.4055, 84350.26
623.8876, 84464.55
624.3698, 84603.69
624.8519, 84773.97
625.3340, 85005.32
625.8161, 85206.88
626.2982, 85356.48
626.7803, 85480.27
627.2625, 85648.23
627.7446, 85864.69
628.2267, 86081.49
628.7088, 86265.52
629.1909, 86441.39
629.6730, 86674.23
630.1552, 86962.77
630.6373, 87275.39
631.1194, 87612.53
631.6015, 87947.14
632.0836, 88228.36
632.5657, 88431.82
633.0479, 88695.69
633.5300, 89160.44
634.0121, 89679.09
634.4942, 90102.72
634.9763, 90473.26
635.4584, 90661.04
635.9406, 90630.33
636.4227, 90425.70
636.9048, 90129.18
637.3869, 89744.88
637.8690, 89255.25
638.3511, 88648.26
638.8333, 87938.09
639.3154, 87154.06
639.7975, 86303.48
640.2796, 85475.45
640.7617, 84715.15
641.2438, 84034.24
641.7260, 83462.38
642.2081, 83008.95
642.6902, 82583.45
643.1723, 82105.12
643.6544, 81639.74
644.1365, 81242.48
644.6187, 80934.97
645.1008, 80685.15
645.5829, 80514.39
646.0650, 80386.72
646.5471, 80251.78
647.0292, 80092.93
647.5114, 79946.13
647.9935, 79809.01
648.4756, 79684.99
648.9577, 79606.86
649.4398, 79576.88
649.9219, 79533.66
650.4041, 79434.51
650.8862, 79301.94
651.3683, 79201.81
651.8504, 79133.45
652.3325, 79075.51
652.8146, 79048.63
653.2967, 79009.05
653.7788, 78899.87
654.2609, 78700.59
654.7430, 78511.83
655.2252, 78367.48
655.7073, 78257.40
656.1894, 78174.05
656.6715, 78141.43
657.1536, 78102.70
657.6357, 78063.18
658.1179, 78010.74
658.6000, 77912.66
659.0821, 77751.80
659.5642, 77627.44
660.0463, 77577.25
660.5284, 77574.07
661.0106, 77555.56
661.4927, 77522.44
661.9748, 77471.07
662.4569, 77387.02
662.9390, 77293.82
663.4211, 77210.48
663.9033, 77140.23
664.3854, 77109.59
664.8675, 77164.24
665.3496, 77241.18
665.8317, 77296.88
666.3138, 77318.22
666.7960, 77330.10
667.2781, 77325.48
667.7602, 77312.23
668.2423, 77293.35
668.7244, 77257.68
669.2065, 77242.72
669.6887, 77258.38
670.1708, 77280.84
670.6529, 77263.51
671.1350, 77211.55
671.6171, 77168.87
672.0992, 77171.48
672.5814, 77177.99
673.0635, 77134.43
673.5456, 77052.18
674.0277, 76963.56
674.5098, 76873.43
674.9919, 76799.70
675.4741, 76756.69
675.9562, 76748.77
676.4383, 76754.77
676.9204, 76779.34
677.4025, 76812.39
677.8846, 76848.06
678.3668, 76883.27
678.8489, 76928.05
679.3310, 76984.37
679.8131, 77035.41
680.2952, 77062.49
680.7773, 77065.03
681.2595, 77045.58
681.7416, 76991.46
682.2237, 76949.44
682.7058, 76978.11
683.1879, 77057.36
683.6700, 77147.05
684.1522, 77279.62
684.6343, 77373.23
685.1164, 77362.07
685.5985, 77283.95
686.0806, 77244.29
686.5627, 77291.07
687.0449, 77352.42
687.5270, 77424.38
688.0091, 77503.75
688.4912, 77540.16
688.9733, 77520.32
689.4554, 77508.43
689.9376, 77545.10
690.4197, 77621.37
690.9018, 77703.43
691.3839, 77789.53
691.8660, 77848.96
692.3481, 77841.57
692.8303, 77796.76
693.3124, 77751.23
693.7945, 77710.49
694.2766, 77668.58
694.7587, 77588.09
695.2408, 77520.64
695.7230, 77522.02
696.2051, 77724.83
696.6872, 77817.26
697.1693, 77754.73
697.6514, 77601.39
698.1335, 77453.69
698.6157, 77307.16
699.0978, 77213.71
699.5799, 77196.50
700.0620, 77232.27
700.5441, 77286.23
701.0262, 77353.38
701.5084, 77407.98
701.9905, 77437.94
702.4726, 77446.23
702.9547, 77416.79
703.4368, 77357.45
703.9189, 77327.32
704.4011, 77377.53
704.8832, 77435.27
705.3653, 77459.21
705.8474, 77441.09
706.3295, 77437.41
706.8116, 77452.34
707.2938, 77474.59
707.7759, 77495.49
708.2580, 77515.68
708.7401, 77555.50
709.2222, 77622.80
709.7043, 77677.27
710.1865, 77667.34
710.6686, 77613.07
711.1507, 77545.91
711.6328, 77448.79
712.1149, 77402.07
712.5970, 77499.23
713.0792, 77667.78
713.5613, 77805.63
714.0434, 77872.59
714.5255, 77919.79
715.0076, 77948.71
715.4897, 77964.09
715.9719, 77976.20
716.4540, 77980.55
716.9361, 77995.84
717.4182, 78037.50
717.9003, 78088.30
718.3824, 78080.10
718.8646, 78021.31
719.3467, 77988.86
719.8288, 78057.97
720.3109, 78160.28
720.7930, 78225.29
721.2751, 78251.86
721.7573, 78253.39
722.2394, 78184.48
722.7215, 78132.91
723.2036, 78165.21
723.6857, 78314.61
724.1678, 78398.25
724.6500, 78377.03
725.1321, 78342.33
725.6142, 78374.63
726.0963, 78479.02
726.5784, 78514.20
727.0605, 78463.51
727.5427, 78393.00
728.0248, 78365.13
728.5069, 78374.63
728.9890, 78415.74
729.4711, 78500.50
729.9532, 78582.65
730.4353, 78622.42
730.9174, 78645.87
731.3995, 78687.22
731.8817, 78801.48
732.3638, 78873.47
732.8459, 78880.95
733.3280, 78841.77
733.8101, 78775.15
734.2922, 78656.25
734.7744, 78620.19
735.2565, 78734.59
735.7386, 78921.22
736.2207, 78983.80
736.7028, 78939.83
737.1849, 78891.78
737.6671, 78900.51
738.1492, 78928.13
738.6313, 78941.03
739.1134, 78943.42
739.5955, 78951.80
740.0776, 78977.96
740.5598, 79009.62
741.0419, 79040.13
741.5240, 79068.93
742.0061, 79104.45
742.4882, 79129.43
742.9703, 79192.16
743.4525, 79344.85
743.9346, 79573.90
744.4167, 79712.46
744.8988, 79750.63
745.3809, 79786.89
745.8630, 79916.68
746.3452, 80090.65
746.8273, 80257.83
747.3094, 80421.45
747.7915, 80510.70
748.2736, 80439.82
748.7557, 80313.80
749.2379, 80232.57
749.7200, 80261.58
750.2021, 80237.82
750.6842, 80125.85
751.1663, 80012.00
751.6484, 80013.18
752.1306, 80133.66
752.6127, 80253.02
753.0948, 80353.04
753.5769, 80430.73
754.0590, 80447.92
754.5411, 80437.28
755.0233, 80477.05
755.5054, 80649.39
755.9875, 80798.88
756.4696, 80795.77
756.9517, 80713.80
757.4338, 80709.77
757.9160, 80938.61
758.3981, 81071.73
758.8802, 81027.52
759.3623, 80868.03
759.8444, 80765.95
760.3265, 80727.87
760.8087, 80726.84
761.2908, 80770.42
761.7729, 80836.61
762.2550, 80859.33
762.7371, 80857.59
763.2192, 80910.85
763.7014, 81137.50
764.1835, 81371.95
764.6656, 81476.23
765.1477, 81460.48
765.6298, 81484.70
766.1119, 81585.84
766.5941, 81717.27
767.0762, 81879.87
767.5583, 82069.19
768.0404, 82158.55
768.5225, 82126.08
769.0046, 82097.42
769.4868, 82167.84
769.9689, 82305.88
770.4510, 82445.95
770.9331, 82584.64
771.4152, 82691.76
771.8973, 82729.58
772.3795, 82739.14
772.8616, 82753.57
773.3437, 82780.91
773.8258, 82805.63
774.3079, 82817.16
774.7900, 82838.30
775.2722, 82890.52
775.7543, 82987.53
776.2364, 83049.63
776.7185, 83065.59
777.2006, 83092.64
777.6827, 83224.22
778.1649, 83411.77
778.6470, 83509.05
779.1291, 83467.85
779.6112, 83448.94
780.0933, 83610.23
780.5754, 83837.66
781.0576, 84002.01
781.5397, 84031.18
782.0218, 84067.49
782.5039, 84119.48
782.9860, 84184.66
783.4681, 84271.34
783.9503, 84388.85
784.4324, 84453.27
784.9145, 84432.73
785.3966, 84411.13
785.8787, 84553.41
786.3608, 84795.87
786.8430, 84953.92
787.3251, 84902.54
787.8072, 84874.23
788.2893, 85084.16
788.7714, 85402.51
789.2535, 85621.09
789.7357, 85575.11
790.2178, 85571.98
790.6999, 85639.73
791.1820, 85770.09
791.6641, 85982.98
792.1462, 86291.70
792.6284, 86501.77
793.1105, 86524.43
793.5926, 86472.98
794.0747, 86536.89
794.5568, 86687.85
795.0389, 86842.73
795.5211, 86989.55
796.0032, 87106.10
796.4853, 87175.33
796.9674, 87207.41
797.4495, 87231.02
797.9316, 87224.27
798.4138, 87252.41
798.8959, 87341.12
799.3780, 87472.23
799.8601, 87576.62
800.3422, 87653.80
800.8243, 87731.88
801.3065, 87824.84
801.7886, 87922.55
802.2707, 87989.71
802.7528, 88042.21
803.2349, 88143.34
803.7170, 88370.00
804.1992, 88606.52
804.6813, 88809.52
805.1633, 88974.75
805.6454, 89098.37
806.1276, 89157.46
806.6097, 89219.00
807.0918, 89297.98
807.5739, 89401.31
808.0560, 89577.10
808.5381, 89822.05
809.0203, 90066.05
809.5024, 90276.14
809.9845, 90456.38
810.4666, 90606.82
810.9487, 90730.49
811.4308, 90846.84
811.9130, 90904.73
812.3951, 91013.42
812.8772, 91257.53
813.3593, 91622.94
813.8414, 91869.52
814.3235, 91954.56
814.8057, 92051.76
815.2878, 92280.23
815.7699, 92590.95
816.2520, 92773.35
816.7341, 92841.91
817.2162, 92925.60
817.6984, 93133.56
818.1805, 93376.27
818.6626, 93580.23
819.1447, 93744.27
819.6268, 93910.52
820.1089, 94095.94
820.5911, 94277.80
821.0732, 94454.70
821.5553, 94625.23
822.0374, 94739.13
822.5195, 94787.10
823.0016, 94855.87
823.4838, 95042.52
823.9659, 95276.56
824.4480, 95412.31
824.9301, 95451.05
825.4122, 95456.16
825.8943, 95398.70
826.3765, 95370.50
826.8586, 95443.02
827.3407, 95631.31
827.8228, 95786.42
828.3049, 95901.86
828.7870, 95991.88
829.2692, 96073.39
829.7513, 96140.97
830.2334, 96117.52
830.7155, 96005.30
831.1976, 95899.74
831.6797, 95874.28
832.1619, 95890.88
832.6440, 95923.01
833.1261, 95967.18
833.6082, 95982.00
834.0903, 95892.52
834.5724, 95829.98
835.0546, 95873.05
835.5367, 96025.01
836.0188, 96100.70
836.5009, 96085.49
836.9830, 96052.00
837.4651, 96056.33
837.9473, 96075.24
838.4294, 96028.61
838.9115, 95922.93
839.3936, 95839.51
839.8757, 95848.61
840.3578, 95884.13
840.8400, 95909.80
841.3221, 95922.94
841.8042, 95900.52
842.2863, 95799.56
842.7684, 95725.73
843.2505, 95732.22
843.7327, 95810.17
844.2148, 95897.14
844.6969, 95991.95
845.1790, 96024.99
845.6611, 95877.66
846.1432, 95684.09
846.6254, 95652.19
847.1075, 95759.88
847.5896, 95767.28
848.0717, 95440.05
848.5538, 95129.72
849.0359, 95002.46
849.5181, 95046.06
850.0002, 95084.30
850.4823, 95129.13
850.9644, 95126.66
851.4465, 95019.54
851.9286, 94855.30
852.4108, 94772.08
852.8929, 94758.49
853.3750, 94752.55
853.8571, 94692.85
854.3392, 94652.89
854.8214, 94697.02
855.3035, 94816.16
855.7856, 94901.15
856.2677, 94924.23
856.7498, 94946.35
857.2319, 94983.34
857.7141, 95033.30
858.1962, 95100.02
858.6783, 95180.63
859.1604, 95249.73
859.6425, 95288.96
860.1246, 95310.40
860.6068, 95309.26
861.0889, 95297.01
861.5710, 95314.95
862.0531, 95422.10
862.5352, 95509.16
863.0173, 95544.82
863.4995, 95539.21
863.9816, 95531.53
864.4637, 95525.87
864.9458, 95485.41
865.4279, 95372.44
865.9100, 95248.95
866.3922, 95251.03
866.8743, 95338.32
867.3564, 95394.62
867.8385, 95314.14
868.3206, 95253.26
868.8027, 95319.36
869.2849, 95452.61
869.7670, 95496.02
870.2491, 95410.59
870.7312, 95327.14
871.2133, 95254.95
871.6954, 95223.83
872.1776, 95343.53
872.6597, 95568.13
873.1418, 95701.02
873.6239, 95624.27
874.1060, 95524.52
874.5881, 95527.66
875.0703, 95603.33
875.5524, 95705.82
876.0345, 95890.67
876.5166, 96002.93
876.9987, 95993.07
877.4808, 95949.55
877.9630, 96019.90
878.4451, 96197.34
878.9272, 96329.81
879.4093, 96386.76
879.8914, 96413.55
880.3735, 96445.74
880.8557, 96483.93
881.3377, 96530.76
881.8198, 96601.41
882.3019, 96650.41
882.7841, 96614.63
883.2662, 96597.06
883.7483, 96709.63
884.2304, 96980.88
884.7125, 97147.58
885.1946, 97178.25
885.6768, 97190.84
886.1589, 97317.88
886.6410, 97506.98
887.1231, 97682.23
887.6052, 97835.31
888.0873, 97956.62
888.5695, 98013.83
889.0516, 98060.68
889.5337, 98138.39
890.0158, 98253.59
890.4979, 98362.13
890.9800, 98468.08
891.4622, 98544.01
891.9443, 98563.26
892.4264, 98533.91
892.9085, 98458.25
893.3906, 98339.88
893.8727, 98249.23
894.3549, 98239.40
894.8370, 98255.32
895.3191, 98281.62
895.8012, 98315.20
896.2833, 98271.09
896.7654, 98107.34
897.2476, 97971.33
897.7297, 97957.15
898.2118, 98016.48
898.6939, 97970.88
899.1760, 97838.41
899.6581, 97714.13
900.1403, 97657.30
900.6224, 97625.59
901.1045, 97607.08
901.5866, 97593.76
902.0687, 97550.82
902.5508, 97429.98
903.0330, 97357.01
903.5151, 97361.39
903.9972, 97422.89
904.4793, 97520.45
904.9614, 97643.17
905.4435, 97702.77
905.9257, 97637.07
906.4078, 97551.94
906.8899, 97544.51
907.3720, 97579.53
907.8541, 97599.39
908.3362, 97561.22
908.8184, 97548.40
909.3005, 97566.96
909.7826, 97613.81
910.2647, 97705.79
910.7468, 97837.13
911.2289, 97900.29
911.7111, 97868.51
912.1932, 97813.95
912.6753, 97813.34
913.1574, 97826.43
913.6395, 97795.55
914.1216, 97676.52
914.6038, 97619.66
915.0859, 97701.94
915.5680, 97794.45
916.0501, 97793.75
916.5322, 97695.42
917.0143, 97691.99
917.4965, 97791.52
917.9786, 97899.90
918.4607, 97939.94
918.9428, 97949.43
919.4249, 97951.16
919.9070, 97950.69
920.3892, 98014.24
920.8713, 98230.75
921.3534, 98438.91
921.8355, 98573.75
922.3176, 98641.94
922.7997, 98714.29
923.2819, 98788.09
923.7640, 98851.48
924.2461, 98877.05
924.7282, 98902.16
925.2103, 99000.99
925.6924, 99141.06
926.1746, 99232.31
926.6567, 99178.70
927.1388, 99150.76
927.6209, 99210.09
928.1030, 99311.24
928.5851, 99360.93
929.0673, 99358.14
929.5494, 99355.94
930.0315, 99372.43
930.5136, 99383.41
930.9957, 99349.55
931.4778, 99292.37
931.9600, 99245.48
932.4421, 99221.18
932.9242, 99198.54
933.4063, 99141.20
933.8884, 99107.03
934.3705, 99168.05
934.8527, 99343.82
935.3348, 99398.66
935.8169, 99310.02
936.2990, 99200.94
936.7811, 99177.31
937.2632, 99206.95
937.7454, 99261.46
938.2275, 99338.20
938.7096, 99389.96
939.1917, 99380.38
939.6738, 99363.70
940.1559, 99363.48
940.6381, 99378.30
941.1202, 99394.94
941.6023, 99414.67
942.0844, 99407.80
942.5665, 99335.76
943.0486, 99243.54
943.5308, 99166.35
944.0129, 99115.91
944.4950, 99127.18
944.9771, 99296.86
945.4592, 99425.22
945.9413, 99452.04
946.4235, 99423.73
946.9056, 99443.32
947.3877, 99511.77
947.8698, 99536.03
948.3519, 99477.33
948.8340, 99422.60
949.3162, 99490.37
949.7983, 99618.75
950.2804, 99714.50
950.7625, 99719.13
951.2446, 99771.92
951.7267, 99941.38
952.2089, 100102.8
952.6910, 100130.2
953.1731, 100023.2
953.6552, 100010.2
954.1373, 100101.3
954.6194, 100213.8
955.1016, 100247.0
955.5837, 100290.9
956.0658, 100461.0
956.5479, 100761.1
957.0300, 101004.3
957.5121, 101094.5
957.9942, 101221.5
958.4763, 101458.2
958.9584, 101776.9
959.4406, 102063.0
959.9227, 102321.3
960.4048, 102600.4
960.8869, 102909.7
961.3690, 103257.1
961.8511, 103644.2
962.3333, 104074.4
962.8154, 104562.3
963.2975, 105058.9
963.7796, 105712.0
964.2617, 106581.7
964.7438, 107550.5
965.2260, 108421.4
965.7081, 109231.1
966.1902, 110081.6
966.6723, 110967.7
967.1544, 112013.6
967.6365, 113400.4
968.1187, 114918.4
968.6008, 116447.4
969.0829, 118062.6
969.5650, 119229.0
970.0471, 120037.0
970.5292, 120179.2
971.0114, 119336.3
971.4935, 117714.0
971.9756, 115696.0
972.4577, 113394.2
972.9398, 111290.8
973.4219, 109637.6
973.9041, 108229.8
974.3862, 106950.6
974.8683, 105834.6
975.3504, 104986.1
975.8325, 104441.8
976.3146, 103978.5
976.7968, 103549.0
977.2789, 103162.0
977.7610, 102808.0
978.2431, 102505.3
978.7252, 102301.3
979.2073, 102253.2
979.6895, 102182.0
980.1716, 101974.5
980.6537, 101760.6
981.1358, 101649.2
981.6179, 101662.5
982.1000, 101616.0
982.5822, 101506.2
983.0643, 101387.5
983.5464, 101303.4
984.0285, 101238.6
984.5106, 101178.9
984.9927, 101123.5
985.4749, 101068.3
985.9570, 101022.5
986.4391, 100960.4
986.9212, 100851.4
987.4033, 100733.9
987.8854, 100754.2
988.3676, 100894.0
988.8497, 100981.7
989.3318, 100939.7
989.8139, 100867.2
990.2960, 100815.8
990.7781, 100803.0
991.2603, 100857.5
991.7424, 101058.8
992.2245, 101191.1
992.7066, 101243.6
993.1887, 101250.1
993.6708, 101203.6
994.1530, 101137.5
994.6351, 101196.4
995.1172, 101382.6
995.5993, 101550.6
996.0814, 101596.4
996.5635, 101606.2
997.0457, 101631.9
997.5278, 101669.4
998.0099, 101671.2
998.4920, 101626.9
998.9741, 101589.7
999.4562, 101580.7
999.9384, 101584.1
1000.420, 101570.0
1000.903, 101547.8
1001.385, 101540.0
1001.867, 101599.7
1002.349, 101600.9
1002.831, 101447.8
1003.313, 101276.8
1003.795, 101233.0
1004.277, 101323.1
1004.760, 101382.6
1005.242, 101404.6
1005.724, 101386.6
1006.206, 101281.9
1006.688, 101169.6
1007.170, 101135.5
1007.652, 101185.0
1008.134, 101227.1
1008.616, 101271.0
1009.099, 101269.0
1009.581, 101179.4
1010.063, 101053.7
1010.545, 101038.3
1011.027, 101112.8
1011.509, 101199.7
1011.991, 101301.5
1012.473, 101351.2
1012.956, 101234.0
1013.438, 101079.3
1013.920, 101070.1
1014.402, 101280.9
1014.884, 101380.4
1015.366, 101342.2
1015.848, 101274.5
1016.330, 101277.0
1016.812, 101320.5
1017.295, 101357.1
1017.777, 101385.4
1018.259, 101421.9
1018.741, 101503.3
1019.223, 101561.3
1019.705, 101570.4
1020.187, 101541.3
1020.669, 101491.5
1021.151, 101425.2
1021.634, 101414.3
1022.116, 101496.0
1022.598, 101609.9
1023.080, 101741.4
1023.562, 101850.4
1024.044, 101876.6
1024.526, 101719.8
1025.008, 101665.9
1025.490, 101748.0
1025.973, 101845.5
1026.455, 101841.9
1026.937, 101774.4
1027.419, 101751.2
1027.901, 101773.3
1028.383, 101802.6
1028.865, 101858.9
1029.347, 101879.5
1029.830, 101793.2
1030.312, 101661.3
1030.794, 101677.5
1031.276, 101862.1
1031.758, 101969.4
1032.240, 101922.2
1032.722, 101814.8
1033.204, 101690.7
1033.687, 101602.0
1034.169, 101626.9
1034.651, 101830.2
1035.133, 102007.4
1035.615, 102141.6
1036.097, 102241.4
1036.579, 102303.9
1037.061, 102333.6
1037.543, 102352.9
1038.026, 102364.7
1038.508, 102402.4
1038.990, 102516.6
1039.472, 102628.4
1039.954, 102702.3
1040.436, 102745.8
1040.918, 102779.6
1041.400, 102806.8
1041.882, 102825.3
1042.365, 102837.3
1042.847, 102845.7
1043.329, 102871.5
1043.811, 102889.7
1044.293, 102859.2
1044.775, 102766.3
1045.257, 102677.1
1045.739, 102620.5
1046.222, 102542.7
1046.704, 102397.7
1047.186, 102214.1
1047.668, 102120.0
1048.150, 102104.0
1048.632, 102110.3
1049.114, 102116.2
1049.596, 102130.8
1050.078, 102149.1
1050.561, 102185.6
1051.043, 102269.8
1051.525, 102430.7
1052.007, 102512.0
1052.489, 102491.1
1052.971, 102446.0
1053.453, 102443.4
1053.935, 102467.0
1054.417, 102495.5
1054.900, 102525.1
1055.382, 102559.9
1055.864, 102598.3
1056.346, 102641.3
1056.828, 102695.5
1057.310, 102748.6
1057.792, 102763.8
1058.274, 102749.3
1058.757, 102739.9
1059.239, 102751.8
1059.721, 102767.4
1060.203, 102829.3
1060.685, 102858.4
1061.167, 102768.6
1061.649, 102534.2
1062.131, 102316.7
1062.614, 102107.6
1063.096, 101973.4
1063.578, 102016.3
1064.060, 102122.6
1064.542, 102147.7
1065.024, 102108.5
1065.506, 102073.1
1065.988, 102052.2
1066.470, 102047.5
1066.953, 102066.1
1067.435, 102091.4
1067.917, 102083.8
1068.399, 102060.3
1068.881, 102088.6
1069.363, 102182.8
1069.845, 102271.6
1070.327, 102302.1
1070.809, 102319.9
1071.292, 102348.2
1071.774, 102384.6
1072.256, 102430.4
1072.738, 102484.0
1073.220, 102532.8
1073.702, 102589.5
1074.184, 102609.1
1074.666, 102498.2
1075.148, 102334.4
1075.631, 102242.9
1076.113, 102338.9
1076.595, 102334.9
1077.077, 102202.2
1077.559, 102058.5
1078.041, 102016.4
1078.523, 102040.2
1079.005, 102031.6
1079.488, 101999.7
1079.970, 102021.0
1080.452, 102218.9
1080.934, 102364.9
1081.416, 102367.6
1081.898, 102294.4
1082.380, 102263.3
1082.862, 102273.9
1083.344, 102358.2
1083.827, 102531.2
1084.309, 102697.3
1084.791, 102772.0
1085.273, 102805.9
1085.755, 102847.5
1086.237, 102900.9
1086.719, 102887.2
1087.201, 102788.5
1087.683, 102729.5
1088.166, 102797.9
1088.648, 102903.8
1089.130, 102911.3
1089.612, 102860.5
1090.094, 102825.5
1090.576, 102844.7
1091.058, 102853.5
1091.540, 102818.3
1092.023, 102824.8
1092.505, 102998.0
1092.987, 103273.6
1093.469, 103395.7
1093.951, 103371.5
1094.433, 103345.5
1094.915, 103410.1
1095.397, 103467.6
1095.880, 103485.1
1096.362, 103464.7
1096.844, 103380.1
1097.326, 103233.9
1097.808, 103194.4
1098.290, 103303.0
1098.772, 103448.0
1099.254, 103565.8
1099.736, 103652.4
1100.219, 103703.3
1100.701, 103717.9
1101.183, 103703.2
1101.665, 103646.2
1102.147, 103615.4
1102.629, 103635.6
1103.111, 103698.1
1103.593, 103855.5
1104.075, 104026.0
1104.558, 104056.6
1105.040, 103768.8
1105.522, 103610.3
1106.004, 103656.2
1106.486, 103758.0
1106.968, 103824.2
1107.450, 103854.2
1107.932, 103834.8
1108.415, 103775.4
1108.897, 103718.7
1109.379, 103678.5
1109.861, 103662.2
1110.343, 103701.8
1110.825, 103750.2
1111.307, 103726.6
1111.789, 103635.5
1112.271, 103563.3
1112.754, 103518.4
1113.236, 103521.1
1113.718, 103639.1
1114.200, 103765.1
1114.682, 103811.5
1115.164, 103782.4
1115.646, 103744.1
1116.128, 103687.9
1116.610, 103667.5
1117.093, 103707.6
1117.575, 103763.2
1118.057, 103791.4
1118.539, 103795.7
1119.021, 103782.4
1119.503, 103757.8
1119.985, 103687.6
1120.467, 103529.6
1120.950, 103440.1
1121.432, 103554.4
1121.914, 103764.1
1122.396, 103811.0
1122.878, 103745.5
1123.360, 103701.2
1123.842, 103735.3
1124.324, 103789.4
1124.807, 103853.0
1125.289, 103929.2
1125.771, 104024.4
1126.253, 104133.1
1126.735, 104225.1
1127.217, 104300.0
1127.699, 104389.7
1128.181, 104525.9
1128.663, 104659.4
1129.146, 104781.1
1129.628, 104873.3
1130.110, 104886.8
1130.592, 104821.3
1131.074, 104768.3
1131.556, 104739.3
1132.038, 104750.5
1132.520, 104870.7
1133.002, 104996.3
1133.485, 105044.4
1133.967, 105017.1
1134.449, 104967.7
1134.931, 104898.5
1135.413, 104812.8
1135.895, 104697.0
1136.377, 104608.4
1136.859, 104664.3
1137.342, 104766.4
1137.824, 104763.6
1138.306, 104555.2
1138.788, 104504.4
1139.270, 104651.0
1139.752, 104832.7
1140.234, 104970.8
1140.716, 105067.3
1141.198, 105126.2
1141.681, 105145.5
1142.163, 105122.7
1142.645, 105032.1
1143.127, 104933.2
1143.609, 104824.8
1144.091, 104728.0
1144.573, 104676.5
1145.055, 104655.8
1145.537, 104580.2
1146.020, 104470.1
1146.502, 104457.1
1146.984, 104760.0
1147.466, 104970.6
1147.948, 104915.8
1148.430, 104763.3
1148.912, 104779.4
1149.394, 104934.9
1149.876, 105020.6
1150.359, 105006.3
1150.841, 105020.0
1151.323, 105198.1
1151.805, 105365.0
1152.287, 105390.7
1152.769, 105328.1
1153.251, 105361.9
1153.733, 105489.6
1154.216, 105604.7
1154.698, 105686.1
1155.180, 105736.1
1155.662, 105743.0
1156.144, 105732.8
1156.626, 105738.6
1157.108, 105762.1
1157.590, 105719.4
1158.073, 105604.5
1158.555, 105510.9
1159.037, 105464.8
1159.519, 105478.5
1160.001, 105644.8
1160.483, 105841.4
1160.965, 105882.7
1161.447, 105687.6
1161.929, 105575.1
1162.411, 105559.2
1162.894, 105553.4
1163.376, 105515.6
1163.858, 105447.4
1164.340, 105304.2
1164.822, 105141.7
1165.304, 105087.0
1165.786, 105279.2
1166.268, 105358.6
1166.751, 105276.8
1167.233, 105190.2
1167.715, 105263.0
1168.197, 105420.6
1168.679, 105543.4
1169.161, 105626.3
1169.643, 105680.0
1170.125, 105660.5
1170.608, 105672.0
1171.090, 105725.6
1171.572, 105811.5
1172.054, 105926.9
1172.536, 106059.0
1173.018, 106195.2
1173.500, 106331.8
1173.982, 106417.9
1174.464, 106383.5
1174.947, 106358.3
1175.429, 106377.1
1175.911, 106426.9
1176.393, 106487.3
1176.875, 106556.7
1177.357, 106636.1
1177.839, 106734.9
1178.321, 106781.9
1178.803, 106669.1
1179.286, 106586.6
1179.768, 106634.3
1180.250, 106763.4
1180.732, 106818.3
1181.214, 106809.6
1181.696, 106770.9
1182.178, 106673.3
1182.660, 106652.7
1183.143, 106886.0
1183.625, 107105.9
1184.107, 107122.7
1184.589, 106968.6
1185.071, 106890.9
1185.553, 106882.2
1186.035, 106902.7
1186.517, 106988.6
1187.000, 107017.9
1187.482, 106859.9
1187.964, 106675.3
1188.446, 106626.5
1188.928, 106718.9
1189.410, 106743.1
1189.892, 106703.5
1190.374, 106637.6
1190.856, 106535.5
1191.339, 106449.8
1191.821, 106390.6
1192.303, 106376.3
1192.785, 106442.8
1193.267, 106593.1
1193.749, 106723.2
1194.231, 106825.8
1194.713, 106891.8
1195.195, 106932.0
1195.678, 106914.5
1196.160, 106732.2
1196.642, 106503.3
1197.124, 106515.7
1197.606, 106790.4
1198.088, 106874.4
1198.570, 106706.8
1199.052, 106554.1
1199.535, 106672.5
1200.017, 106852.5
1200.499, 106953.3
1200.981, 106986.3
1201.463, 107009.2
1201.945, 107022.7
1202.427, 106996.5
1202.909, 106912.3
1203.391, 106867.9
1203.874, 107019.8
1204.356, 107193.8
1204.838, 107221.7
1205.320, 107125.2
1205.802, 107074.2
1206.284, 107068.6
1206.766, 107108.1
1207.248, 107201.4
1207.730, 107307.8
1208.213, 107402.7
1208.695, 107482.9
1209.177, 107543.6
1209.659, 107585.9
1210.141, 107641.2
1210.623, 107713.7
1211.105, 107686.9
1211.587, 107448.5
1212.070, 107255.8
1212.552, 107457.5
1213.034, 107777.3
1213.516, 107898.5
1213.998, 107800.6
1214.480, 107727.0
1214.962, 107678.0
1215.444, 107649.7
1215.927, 107666.0
1216.409, 107666.2
1216.891, 107540.7
1217.373, 107399.9
1217.855, 107403.0
1218.337, 107588.2
1218.819, 107688.0
1219.301, 107702.2
1219.783, 107655.7
1220.266, 107484.1
1220.748, 107342.5
1221.230, 107380.0
1221.712, 107522.7
1222.194, 107666.9
1222.676, 107824.1
1223.158, 107872.1
1223.640, 107803.7
1224.122, 107735.2
1224.604, 107740.1
1225.087, 107781.6
1225.569, 107839.4
1226.051, 107912.5
1226.533, 108015.3
1227.015, 108167.2
1227.497, 108168.9
1227.979, 108006.4
1228.461, 107864.0
1228.944, 107899.9
1229.426, 107987.8
1229.908, 108040.4
1230.390, 108079.8
1230.872, 108164.0
1231.354, 108300.5
1231.836, 108395.6
1232.318, 108441.1
1232.801, 108461.4
1233.283, 108464.1
1233.765, 108457.3
1234.247, 108423.9
1234.729, 108390.4
1235.211, 108430.1
1235.693, 108542.4
1236.175, 108587.9
1236.657, 108545.6
1237.140, 108500.0
1237.622, 108521.5
1238.104, 108553.5
1238.586, 108567.2
1239.068, 108566.3
1239.550, 108556.0
1240.032, 108539.2
1240.514, 108513.5
1240.996, 108478.3
1241.479, 108479.7
1241.961, 108621.8
1242.443, 108733.9
1242.925, 108684.9
1243.407, 108552.8
1243.889, 108557.3
1244.371, 108678.8
1244.853, 108775.4
1245.336, 108813.2
1245.818, 108868.2
1246.300, 109015.7
1246.782, 109149.0
1247.264, 109210.4
1247.746, 109220.6
1248.228, 109266.5
1248.710, 109321.6
1249.193, 109238.8
1249.675, 108961.7
1250.157, 108740.1
1250.639, 108760.6
1251.121, 108799.2
1251.603, 108763.1
1252.085, 108684.0
1252.567, 108634.7
1253.049, 108615.5
1253.531, 108631.4
1254.014, 108692.2
1254.496, 108735.2
1254.978, 108708.1
1255.460, 108694.7
1255.942, 108733.7
1256.424, 108794.4
1256.906, 108794.2
1257.388, 108757.0
1257.871, 108748.2
1258.353, 108795.8
1258.835, 108810.2
1259.317, 108775.5
1259.799, 108709.4
1260.281, 108597.9
1260.763, 108493.3
1261.245, 108550.2
1261.728, 108679.0
1262.210, 108703.4
1262.692, 108551.6
1263.174, 108419.9
1263.656, 108321.4
1264.138, 108249.6
1264.620, 108188.9
1265.102, 108175.3
1265.584, 108336.1
1266.067, 108555.2
1266.549, 108609.6
1267.031, 108357.3
1267.513, 108389.2
1267.995, 108759.0
1268.477, 109115.4
1268.959, 109280.9
1269.441, 109346.4
1269.923, 109357.9
1270.406, 109362.0
1270.888, 109448.6
1271.370, 109646.5
1271.852, 109690.3
1272.334, 109568.7
1272.816, 109464.8
1273.298, 109493.4
1273.780, 109543.5
1274.263, 109507.6
1274.745, 109454.9
1275.227, 109483.8
1275.709, 109606.7
1276.191, 109594.3
1276.673, 109458.9
1277.155, 109350.4
1277.637, 109365.7
1278.120, 109397.6
1278.602, 109385.8
1279.084, 109367.2
1279.566, 109390.5
1280.048, 109445.1
1280.530, 109353.2
1281.012, 109150.7
1281.494, 109039.2
1281.976, 109182.5
1282.458, 109305.4
1282.941, 109292.1
1283.423, 109254.6
1283.905, 109261.4
1284.387, 109308.2
1284.869, 109401.7
1285.351, 109521.2
1285.833, 109605.2
1286.315, 109600.1
1286.798, 109611.7
1287.280, 109659.3
1287.762, 109706.0
1288.244, 109716.6
1288.726, 109716.2
1289.208, 109780.4
1289.690, 109874.0
1290.172, 109913.1
1290.655, 109811.2
1291.137, 109785.5
1291.619, 109839.9
1292.101, 109883.0
1292.583, 109841.2
1293.065, 109762.0
1293.547, 109709.7
1294.029, 109666.8
1294.511, 109602.5
##END=



