##NAMES=Wolsendorfite
##RRUFFID=R090051
##IDEAL CHEMISTRY=Pb^2+^_7_(U^6+^O_2_)_14_O_19_(OH)_4_&#183;12H_2_O
##LOCALITY=Shinkolobwe mine, Katanga, Congo
##OWNER=RRUFF
##SOURCE=William W. Pinch
##DESCRIPTION=A crust of orange blocky crystals.  Sample is from the specimen used in the Burns (1999) study. Associated with rutherfordine.
##STATUS=The identification of this mineral has been confirmed by single-crystal X-ray diffraction.
##URL=rruff.info/R090051
92.02539, 21801.45
92.50751, 21661.49
92.98962, 21753.21
93.47174, 21885.26
93.95386, 22090.51
94.43597, 22241.21
94.91809, 22317.59
95.40021, 22350.38
95.88232, 22352.56
96.36444, 22300.64
96.84656, 22252.13
97.32867, 22226.72
97.81078, 22228.78
98.29290, 22260.00
98.77502, 22307.94
99.25713, 22337.13
99.73925, 22388.44
100.2214, 22458.51
100.7035, 22555.76
101.1856, 22684.54
101.6677, 22842.16
102.1498, 23019.53
102.6320, 23206.07
103.1141, 23400.23
103.5962, 23613.53
104.0783, 23854.13
104.5604, 24108.57
105.0425, 24363.52
105.5247, 24617.39
106.0068, 24863.90
106.4889, 25082.91
106.9710, 25272.70
107.4531, 25453.49
107.9352, 25627.54
108.4173, 25796.70
108.8995, 25974.34
109.3816, 26158.46
109.8637, 26359.14
110.3458, 26583.46
110.8279, 26833.57
111.3100, 27105.23
111.7922, 27385.63
112.2743, 27657.64
112.7564, 27993.48
113.2385, 28414.71
113.7206, 28899.87
114.2027, 29438.29
114.6849, 30023.37
115.1670, 30655.88
115.6491, 31326.94
116.1312, 32054.44
116.6133, 32815.57
117.0954, 33619.40
117.5776, 34453.21
118.0597, 35305.07
118.5418, 36173.25
119.0239, 37060.13
119.5060, 37897.52
119.9881, 38722.18
120.4703, 39478.04
120.9524, 40169.44
121.4345, 40780.41
121.9166, 41268.73
122.3987, 41596.00
122.8808, 41730.34
123.3630, 41706.15
123.8451, 41502.69
124.3272, 41151.77
124.8093, 40673.66
125.2914, 40065.06
125.7735, 39359.55
126.2557, 38558.79
126.7378, 37682.98
127.2199, 36792.29
127.7020, 35903.98
128.1841, 35019.51
128.6662, 34156.70
129.1483, 33309.88
129.6305, 32496.45
130.1126, 31712.77
130.5947, 30958.78
131.0768, 30246.03
131.5589, 29587.51
132.0410, 28986.74
132.5232, 28414.51
133.0053, 27855.19
133.4874, 27329.72
133.9695, 26854.54
134.4516, 26431.38
134.9337, 26052.94
135.4159, 25707.72
135.8980, 25404.77
136.3801, 25119.89
136.8622, 24842.12
137.3443, 24582.24
137.8264, 24352.46
138.3086, 24156.63
138.7907, 23987.19
139.2728, 23828.35
139.7549, 23664.90
140.2370, 23530.17
140.7191, 23428.42
141.2013, 23356.31
141.6834, 23308.66
142.1655, 23282.82
142.6476, 23280.71
143.1297, 23310.91
143.6118, 23362.68
144.0939, 23448.13
144.5761, 23577.81
145.0582, 23747.96
145.5403, 23942.56
146.0224, 24155.38
146.5045, 24387.78
146.9866, 24635.59
147.4688, 24901.40
147.9509, 25179.66
148.4330, 25476.75
148.9151, 25799.91
149.3972, 26098.28
149.8793, 26359.39
150.3615, 26575.32
150.8436, 26727.19
151.3257, 26820.09
151.8078, 26838.22
152.2899, 26742.71
152.7720, 26516.03
153.2542, 26187.12
153.7363, 25762.76
154.2184, 25266.87
154.7005, 24726.67
155.1826, 24152.13
155.6647, 23547.02
156.1469, 22960.93
156.6290, 22391.35
157.1111, 21850.26
157.5932, 21339.32
158.0753, 20858.41
158.5574, 20411.60
159.0396, 20001.93
159.5217, 19630.41
160.0038, 19291.21
160.4859, 18990.70
160.9680, 18710.71
161.4501, 18445.62
161.9323, 18195.28
162.4144, 17962.68
162.8965, 17753.01
163.3786, 17568.81
163.8607, 17399.60
164.3428, 17244.54
164.8250, 17103.69
165.3071, 16980.21
165.7892, 16873.80
166.2713, 16778.79
166.7534, 16689.27
167.2355, 16605.45
167.7177, 16529.32
168.1998, 16457.56
168.6819, 16394.58
169.1640, 16345.05
169.6461, 16309.07
170.1282, 16290.15
170.6104, 16296.87
171.0925, 16325.72
171.5746, 16365.69
172.0567, 16414.95
172.5388, 16472.24
173.0209, 16534.65
173.5031, 16604.21
173.9852, 16675.33
174.4673, 16744.76
174.9494, 16812.28
175.4315, 16877.25
175.9136, 16938.71
176.3958, 16996.83
176.8779, 17052.65
177.3600, 17106.44
177.8421, 17157.53
178.3242, 17201.87
178.8063, 17240.88
179.2885, 17283.18
179.7706, 17335.91
180.2527, 17397.93
180.7348, 17477.11
181.2169, 17578.40
181.6990, 17693.24
182.1812, 17819.45
182.6633, 17956.28
183.1454, 18100.79
183.6275, 18249.36
184.1096, 18401.38
184.5917, 18559.53
185.0738, 18717.73
185.5560, 18884.37
186.0381, 19066.96
186.5202, 19266.54
187.0023, 19476.00
187.4844, 19681.52
187.9665, 19874.39
188.4487, 20079.27
188.9308, 20292.20
189.4129, 20516.75
189.8950, 20754.78
190.3771, 21005.92
190.8592, 21273.40
191.3414, 21565.12
191.8235, 21889.13
192.3056, 22220.81
192.7877, 22548.80
193.2698, 22884.04
193.7519, 23243.18
194.2341, 23633.21
194.7162, 24047.17
195.1983, 24473.73
195.6804, 24905.64
196.1625, 25362.14
196.6446, 25864.32
197.1268, 26396.58
197.6089, 26925.97
198.0910, 27440.81
198.5731, 27949.16
199.0552, 28460.47
199.5373, 28974.88
200.0195, 29501.70
200.5016, 30055.39
200.9837, 30632.16
201.4658, 31204.44
201.9479, 31761.70
202.4300, 32318.09
202.9122, 32882.87
203.3943, 33459.50
203.8764, 34036.13
204.3585, 34602.09
204.8406, 35158.61
205.3227, 35717.98
205.8048, 36286.10
206.2870, 36853.85
206.7691, 37416.21
207.2512, 37971.28
207.7333, 38511.62
208.2154, 39026.34
208.6975, 39514.58
209.1797, 39981.62
209.6618, 40420.21
210.1439, 40842.94
210.6260, 41257.93
211.1081, 41665.10
211.5902, 42051.05
212.0724, 42400.51
212.5545, 42711.32
213.0366, 42982.03
213.5187, 43235.81
214.0008, 43437.96
214.4829, 43567.52
214.9651, 43619.33
215.4472, 43602.54
215.9293, 43529.38
216.4114, 43399.79
216.8935, 43202.48
217.3756, 42944.56
217.8578, 42630.45
218.3399, 42259.41
218.8220, 41833.93
219.3041, 41355.20
219.7862, 40825.81
220.2683, 40221.59
220.7505, 39608.37
221.2326, 38985.26
221.7147, 38352.85
222.1968, 37708.12
222.6789, 37051.23
223.1610, 36387.53
223.6432, 35722.61
224.1253, 35039.67
224.6074, 34397.53
225.0895, 33805.98
225.5716, 33247.79
226.0537, 32708.59
226.5358, 32183.65
227.0180, 31684.57
227.5001, 31227.63
227.9822, 30819.28
228.4643, 30447.00
228.9464, 30107.26
229.4285, 29805.31
229.9107, 29553.53
230.3928, 29355.06
230.8749, 29198.29
231.3570, 29075.99
231.8391, 28988.61
232.3212, 28924.30
232.8034, 28884.53
233.2855, 28866.35
233.7676, 28867.79
234.2497, 28889.34
234.7318, 28925.71
235.2139, 28968.18
235.6961, 29016.84
236.1782, 29094.51
236.6603, 29213.98
237.1424, 29363.79
237.6245, 29534.55
238.1066, 29733.45
238.5888, 29928.13
239.0709, 30089.96
239.5530, 30224.55
240.0351, 30343.18
240.5172, 30434.21
240.9993, 30514.61
241.4815, 30616.24
241.9636, 30744.12
242.4457, 30886.57
242.9278, 31045.31
243.4099, 31212.08
243.8920, 31368.65
244.3742, 31502.41
244.8563, 31621.03
245.3384, 31743.98
245.8205, 31877.25
246.3026, 32000.45
246.7847, 32100.51
247.2668, 32184.18
247.7490, 32262.75
248.2311, 32351.96
248.7132, 32434.21
249.1953, 32465.18
249.6774, 32432.48
250.1595, 32369.60
250.6417, 32284.96
251.1238, 32185.06
251.6059, 32077.43
252.0880, 31965.18
252.5701, 31847.63
253.0522, 31721.79
253.5344, 31589.09
254.0165, 31445.38
254.4986, 31282.29
254.9807, 31112.52
255.4628, 30948.60
255.9449, 30796.89
256.4271, 30653.51
256.9092, 30508.97
257.3913, 30365.97
257.8734, 30217.13
258.3555, 30066.67
258.8376, 29908.67
259.3198, 29738.29
259.8019, 29554.24
260.2840, 29354.01
260.7661, 29130.72
261.2482, 28873.84
261.7303, 28611.77
262.2125, 28349.86
262.6946, 28082.01
263.1767, 27804.51
263.6588, 27514.66
264.1409, 27214.59
264.6230, 26901.78
265.1052, 26555.08
265.5873, 26238.26
266.0694, 25962.55
266.5515, 25707.13
267.0336, 25460.09
267.5157, 25218.29
267.9979, 24983.34
268.4800, 24757.32
268.9621, 24538.27
269.4442, 24336.50
269.9263, 24162.43
270.4084, 23994.59
270.8906, 23817.99
271.3727, 23631.86
271.8548, 23447.83
272.3369, 23279.64
272.8190, 23131.29
273.3011, 22991.03
273.7833, 22860.06
274.2654, 22734.77
274.7475, 22611.64
275.2296, 22491.70
275.7117, 22381.19
276.1938, 22287.16
276.6760, 22212.36
277.1581, 22137.55
277.6402, 22055.54
278.1223, 21979.78
278.6044, 21912.41
279.0865, 21855.68
279.5686, 21816.47
280.0508, 21803.38
280.5329, 21817.42
281.0150, 21806.78
281.4971, 21751.40
281.9792, 21696.72
282.4613, 21663.80
282.9435, 21645.26
283.4256, 21621.75
283.9077, 21580.85
284.3898, 21523.71
284.8719, 21463.44
285.3540, 21408.73
285.8362, 21341.48
286.3183, 21246.68
286.8004, 21136.94
287.2825, 21035.19
287.7646, 20953.56
288.2467, 20886.69
288.7289, 20814.59
289.2110, 20734.82
289.6931, 20653.83
290.1752, 20576.48
290.6573, 20497.93
291.1394, 20411.06
291.6216, 20312.92
292.1037, 20208.00
292.5858, 20102.71
293.0679, 19990.20
293.5500, 19891.99
294.0321, 19816.26
294.5143, 19753.40
294.9964, 19690.20
295.4785, 19622.95
295.9606, 19563.71
296.4427, 19531.13
296.9248, 19535.72
297.4070, 19537.94
297.8891, 19524.91
298.3712, 19515.89
298.8533, 19530.85
299.3354, 19571.76
299.8175, 19622.46
300.2997, 19666.43
300.7818, 19701.76
301.2639, 19745.98
301.7460, 19797.86
302.2281, 19858.77
302.7102, 19928.29
303.1924, 20007.08
303.6745, 20100.49
304.1566, 20215.50
304.6387, 20351.23
305.1208, 20483.71
305.6029, 20601.38
306.0851, 20727.53
306.5672, 20874.20
307.0493, 21039.25
307.5314, 21216.87
308.0135, 21406.53
308.4956, 21604.02
308.9778, 21787.49
309.4599, 21940.40
309.9420, 22102.35
310.4241, 22292.71
310.9062, 22500.21
311.3883, 22700.54
311.8705, 22882.36
312.3526, 23054.02
312.8347, 23231.72
313.3168, 23419.23
313.7989, 23604.43
314.2810, 23786.35
314.7632, 23964.01
315.2453, 24138.23
315.7274, 24308.85
316.2095, 24474.65
316.6916, 24639.21
317.1737, 24810.83
317.6559, 24940.93
318.1380, 24999.06
318.6201, 25029.77
319.1022, 25070.97
319.5843, 25128.34
320.0664, 25191.42
320.5485, 25250.31
321.0306, 25304.36
321.5128, 25366.10
321.9949, 25435.41
322.4770, 25512.36
322.9591, 25595.20
323.4412, 25684.81
323.9233, 25785.87
324.4055, 25899.27
324.8876, 26027.64
325.3697, 26178.63
325.8518, 26352.42
326.3339, 26544.46
326.8160, 26753.79
327.2982, 26980.22
327.7803, 27227.37
328.2624, 27498.92
328.7445, 27788.16
329.2266, 28078.62
329.7087, 28359.89
330.1909, 28660.13
330.6730, 28988.56
331.1551, 29336.62
331.6372, 29692.18
332.1193, 30051.61
332.6014, 30421.28
333.0836, 30812.95
333.5657, 31230.24
334.0478, 31663.18
334.5299, 32108.35
335.0120, 32568.25
335.4941, 33046.22
335.9763, 33540.17
336.4584, 34057.95
336.9405, 34610.37
337.4226, 35204.60
337.9047, 35751.11
338.3868, 36239.77
338.8690, 36702.02
339.3511, 37152.61
339.8332, 37592.29
340.3153, 38013.60
340.7974, 38412.01
341.2795, 38788.54
341.7617, 39142.67
342.2438, 39482.66
342.7259, 39794.15
343.2080, 40083.30
343.6901, 40340.26
344.1722, 40549.61
344.6544, 40704.49
345.1365, 40808.05
345.6186, 40866.24
346.1007, 40890.76
346.5828, 40839.69
347.0649, 40688.98
347.5471, 40476.58
348.0292, 40243.09
348.5113, 39994.21
348.9934, 39691.11
349.4755, 39287.66
349.9576, 38759.50
350.4398, 38212.58
350.9219, 37650.40
351.4040, 37069.71
351.8861, 36469.81
352.3682, 35854.41
352.8503, 35227.83
353.3325, 34596.41
353.8146, 33960.87
354.2967, 33311.25
354.7788, 32623.49
355.2609, 31950.72
355.7430, 31301.93
356.2252, 30676.70
356.7073, 30070.87
357.1894, 29483.92
357.6715, 28914.62
358.1536, 28353.27
358.6357, 27801.39
359.1179, 27257.01
359.5999, 26706.73
360.0821, 26170.89
360.5642, 25674.60
361.0463, 25217.60
361.5284, 24779.45
362.0105, 24332.80
362.4926, 23876.51
362.9748, 23415.43
363.4569, 22951.83
363.9390, 22483.04
364.4211, 22003.63
364.9032, 21515.35
365.3853, 21032.61
365.8675, 20564.33
366.3496, 20110.11
366.8317, 19666.21
367.3138, 19228.89
367.7959, 18808.98
368.2780, 18408.36
368.7602, 18026.94
369.2423, 17666.36
369.7244, 17329.48
370.2065, 17008.17
370.6886, 16685.14
371.1707, 16357.40
371.6529, 16037.11
372.1350, 15717.44
372.6171, 15410.31
373.0992, 15122.55
373.5813, 14856.08
374.0634, 14600.42
374.5456, 14343.42
375.0277, 14084.45
375.5098, 13847.96
375.9919, 13647.14
376.4740, 13456.49
376.9561, 13268.28
377.4383, 13080.12
377.9204, 12889.26
378.4025, 12688.11
378.8846, 12485.32
379.3667, 12306.83
379.8488, 12161.92
380.3310, 12017.57
380.8131, 11856.41
381.2952, 11690.64
381.7773, 11531.86
382.2594, 11382.84
382.7415, 11241.67
383.2237, 11107.74
383.7058, 10980.76
384.1879, 10859.19
384.6700, 10743.71
385.1521, 10633.03
385.6342, 10521.50
386.1164, 10410.59
386.5985, 10310.78
387.0806, 10232.63
387.5627, 10170.28
388.0448, 10108.64
388.5269, 10045.39
389.0091, 9987.526
389.4912, 9946.243
389.9733, 9914.090
390.4554, 9873.833
390.9375, 9810.453
391.4196, 9748.365
391.9018, 9709.556
392.3839, 9692.652
392.8660, 9686.607
393.3481, 9687.022
393.8302, 9695.865
394.3123, 9715.442
394.7945, 9745.358
395.2766, 9784.885
395.7587, 9842.213
396.2408, 9906.829
396.7229, 9957.582
397.2050, 9989.014
397.6872, 10017.66
398.1693, 10061.77
398.6514, 10122.78
399.1335, 10187.48
399.6156, 10250.89
400.0977, 10322.00
400.5798, 10410.21
401.0620, 10513.11
401.5441, 10619.52
402.0262, 10722.38
402.5083, 10823.38
402.9904, 10928.90
403.4725, 11031.37
403.9547, 11146.90
404.4368, 11281.44
404.9189, 11429.78
405.4010, 11588.02
405.8831, 11753.73
406.3652, 11920.76
406.8474, 12080.12
407.3295, 12229.46
407.8116, 12374.00
408.2937, 12510.69
408.7758, 12645.28
409.2579, 12777.48
409.7401, 12910.38
410.2222, 13052.11
410.7043, 13211.56
411.1864, 13385.43
411.6685, 13549.82
412.1506, 13700.91
412.6328, 13845.76
413.1149, 13981.52
413.5970, 14113.49
414.0791, 14249.86
414.5612, 14392.97
415.0433, 14534.06
415.5255, 14660.38
416.0076, 14772.61
416.4897, 14869.42
416.9718, 14942.20
417.4539, 15005.95
417.9360, 15065.47
418.4182, 15121.76
418.9003, 15173.67
419.3824, 15218.22
419.8645, 15258.13
420.3466, 15309.06
420.8287, 15380.03
421.3109, 15442.28
421.7930, 15483.70
422.2751, 15510.76
422.7572, 15528.82
423.2393, 15538.89
423.7214, 15542.29
424.2036, 15540.54
424.6857, 15533.58
425.1678, 15519.54
425.6499, 15495.25
426.1320, 15467.10
426.6141, 15443.62
427.0963, 15423.61
427.5784, 15395.84
428.0605, 15354.91
428.5426, 15303.71
429.0247, 15243.58
429.5068, 15173.53
429.9890, 15107.38
430.4711, 15056.76
430.9532, 15016.36
431.4353, 14968.58
431.9174, 14912.43
432.3995, 14850.16
432.8817, 14779.13
433.3638, 14703.35
433.8459, 14631.24
434.3280, 14566.02
434.8101, 14502.97
435.2922, 14434.50
435.7744, 14357.31
436.2565, 14289.52
436.7386, 14232.85
437.2207, 14184.64
437.7028, 14146.88
438.1849, 14117.00
438.6671, 14086.60
439.1492, 14049.47
439.6313, 14007.71
440.1134, 13974.36
440.5955, 13951.77
441.0776, 13935.11
441.5598, 13916.36
442.0418, 13907.35
442.5240, 13925.29
443.0061, 13972.40
443.4882, 14030.28
443.9703, 14072.82
444.4524, 14093.13
444.9345, 14131.73
445.4167, 14193.23
445.8988, 14268.94
446.3809, 14360.76
446.8630, 14463.83
447.3451, 14570.20
447.8272, 14673.20
448.3094, 14779.46
448.7915, 14906.75
449.2736, 15059.38
449.7557, 15220.24
450.2378, 15386.92
450.7199, 15560.06
451.2021, 15737.93
451.6842, 15921.21
452.1663, 16119.17
452.6484, 16342.89
453.1305, 16588.40
453.6126, 16831.82
454.0948, 17067.83
454.5769, 17308.39
455.0590, 17560.17
455.5411, 17822.30
456.0232, 18096.69
456.5053, 18387.63
456.9875, 18683.85
457.4696, 18971.93
457.9517, 19255.69
458.4338, 19559.62
458.9159, 19895.41
459.3980, 20248.73
459.8802, 20601.61
460.3623, 20953.92
460.8444, 21304.64
461.3265, 21640.34
461.8086, 21981.97
462.2907, 22357.08
462.7729, 22761.12
463.2550, 23159.15
463.7371, 23530.25
464.2192, 23875.83
464.7013, 24216.28
465.1834, 24558.60
465.6656, 24887.30
466.1477, 25198.51
466.6298, 25498.92
467.1119, 25794.09
467.5940, 26086.97
468.0761, 26376.86
468.5583, 26667.93
469.0404, 26971.27
469.5225, 27218.00
470.0046, 27385.79
470.4867, 27518.50
470.9688, 27620.93
471.4510, 27697.61
471.9331, 27755.44
472.4152, 27799.01
472.8973, 27817.03
473.3794, 27789.21
473.8615, 27715.05
474.3437, 27597.57
474.8258, 27434.21
475.3079, 27225.93
475.7900, 26965.41
476.2721, 26658.21
476.7542, 26323.15
477.2364, 25955.54
477.7185, 25573.41
478.2006, 25211.76
478.6827, 24872.57
479.1648, 24552.32
479.6469, 24252.29
480.1291, 23970.33
480.6112, 23703.07
481.0933, 23453.82
481.5754, 23211.32
482.0575, 22960.03
482.5396, 22714.12
483.0217, 22499.64
483.5038, 22322.04
483.9860, 22170.00
484.4681, 22033.99
484.9502, 21915.40
485.4323, 21807.52
485.9144, 21701.73
486.3965, 21614.92
486.8787, 21554.61
487.3608, 21517.82
487.8429, 21498.79
488.3250, 21495.04
488.8071, 21508.19
489.2892, 21542.26
489.7714, 21606.23
490.2535, 21670.42
490.7356, 21718.31
491.2177, 21781.31
491.6998, 21880.30
492.1819, 22007.68
492.6641, 22141.22
493.1462, 22265.14
493.6283, 22388.68
494.1104, 22539.43
494.5925, 22721.25
495.0746, 22918.80
495.5568, 23132.67
496.0389, 23357.04
496.5210, 23594.33
497.0031, 23841.91
497.4852, 24084.19
497.9673, 24301.30
498.4495, 24503.63
498.9316, 24718.99
499.4137, 24950.04
499.8958, 25186.43
500.3779, 25419.26
500.8600, 25657.91
501.3422, 25920.25
501.8243, 26217.36
502.3064, 26517.63
502.7885, 26808.16
503.2706, 27092.36
503.7527, 27387.42
504.2349, 27696.73
504.7170, 27990.01
505.1991, 28233.56
505.6812, 28425.84
506.1633, 28623.75
506.6454, 28830.15
507.1276, 29038.30
507.6097, 29249.15
508.0918, 29459.53
508.5739, 29668.24
509.0560, 29874.16
509.5381, 30065.13
510.0203, 30220.50
510.5024, 30336.63
510.9845, 30430.07
511.4666, 30502.84
511.9487, 30550.43
512.4308, 30570.26
512.9130, 30563.38
513.3951, 30529.58
513.8772, 30465.78
514.3593, 30383.47
514.8414, 30312.64
515.3235, 30260.65
515.8057, 30160.92
516.2878, 29988.15
516.7699, 29768.17
517.2520, 29529.84
517.7341, 29271.07
518.2162, 28975.96
518.6984, 28613.20
519.1805, 28222.96
519.6626, 27859.68
520.1447, 27521.62
520.6268, 27171.86
521.1089, 26792.87
521.5911, 26391.18
522.0732, 25988.60
522.5553, 25588.99
523.0374, 25174.47
523.5195, 24747.36
524.0016, 24302.34
524.4838, 23825.05
524.9659, 23324.91
525.4480, 22832.91
525.9301, 22374.31
526.4122, 21944.96
526.8943, 21511.54
527.3765, 21072.98
527.8586, 20636.76
528.3407, 20194.35
528.8228, 19758.71
529.3049, 19345.43
529.7870, 18953.57
530.2692, 18566.69
530.7513, 18166.78
531.2334, 17759.66
531.7155, 17375.79
532.1976, 17022.90
532.6797, 16678.02
533.1619, 16323.18
533.6440, 15976.48
534.1261, 15655.68
534.6082, 15365.68
535.0903, 15086.90
535.5724, 14811.81
536.0546, 14536.90
536.5367, 14245.74
537.0188, 13934.39
537.5009, 13633.84
537.9830, 13370.26
538.4651, 13137.80
538.9473, 12904.94
539.4294, 12663.61
539.9115, 12430.99
540.3936, 12212.45
540.8757, 12003.84
541.3578, 11801.33
541.8400, 11603.70
542.3221, 11406.78
542.8042, 11206.24
543.2863, 11001.82
543.7684, 10810.43
544.2505, 10639.50
544.7326, 10475.16
545.2147, 10318.18
545.6968, 10165.31
546.1790, 10014.33
546.6611, 9864.492
547.1432, 9715.616
547.6253, 9568.119
548.1074, 9421.858
548.5895, 9282.209
549.0717, 9151.310
549.5538, 9023.436
550.0359, 8893.221
550.5180, 8764.604
551.0001, 8642.523
551.4822, 8527.807
551.9644, 8420.770
552.4465, 8324.476
552.9286, 8235.038
553.4107, 8144.712
553.8928, 8052.006
554.3749, 7957.020
554.8571, 7858.796
555.3392, 7757.280
555.8213, 7662.936
556.3034, 7580.275
556.7855, 7498.126
557.2676, 7410.631
557.7498, 7322.956
558.2319, 7242.597
558.7140, 7170.702
559.1961, 7103.900
559.6782, 7038.996
560.1603, 6976.435
560.6425, 6909.373
561.1246, 6835.358
561.6067, 6761.069
562.0888, 6685.159
562.5709, 6611.664
563.0530, 6546.582
563.5352, 6491.870
564.0173, 6436.488
564.4994, 6367.223
564.9815, 6289.565
565.4636, 6222.122
565.9457, 6167.299
566.4279, 6118.216
566.9100, 6073.033
567.3921, 6029.590
567.8742, 5980.272
568.3563, 5919.938
568.8384, 5862.358
569.3206, 5815.013
569.8027, 5771.584
570.2848, 5723.217
570.7669, 5669.390
571.2490, 5615.649
571.7311, 5567.650
572.2133, 5524.565
572.6954, 5479.212
573.1775, 5422.447
573.6596, 5376.272
574.1417, 5353.087
574.6238, 5334.541
575.1060, 5303.665
575.5881, 5259.176
576.0702, 5213.109
576.5523, 5176.513
577.0344, 5146.223
577.5165, 5109.534
577.9987, 5064.769
578.4808, 5021.088
578.9629, 4981.934
579.4450, 4946.862
579.9271, 4915.169
580.4092, 4887.063
580.8914, 4860.760
581.3735, 4839.898
581.8556, 4817.821
582.3377, 4783.394
582.8198, 4738.783
583.3019, 4698.403
583.7841, 4670.714
584.2662, 4652.415
584.7483, 4634.466
585.2304, 4618.083
585.7125, 4599.798
586.1946, 4581.250
586.6768, 4559.408
587.1589, 4529.008
587.6410, 4493.641
588.1231, 4463.667
588.6052, 4446.737
589.0873, 4433.596
589.5695, 4401.394
590.0516, 4345.949
590.5337, 4301.869
591.0158, 4280.114
591.4979, 4266.673
591.9800, 4250.928
592.4622, 4233.499
592.9443, 4216.992
593.4264, 4205.197
593.9085, 4191.998
594.3906, 4171.038
594.8727, 4144.786
595.3549, 4119.218
595.8370, 4096.142
596.3191, 4076.161
596.8012, 4060.411
597.2833, 4049.689
597.7654, 4037.434
598.2476, 4027.369
598.7297, 4011.802
599.2118, 3982.860
599.6939, 3949.344
600.1760, 3921.690
600.6581, 3903.060
601.1403, 3890.818
601.6224, 3883.982
602.1045, 3882.150
602.5866, 3876.187
603.0687, 3864.155
603.5508, 3852.312
604.0330, 3847.888
604.5151, 3843.592
604.9972, 3827.968
605.4793, 3796.661
605.9614, 3769.253
606.4435, 3761.487
606.9257, 3760.405
607.4078, 3745.974
607.8899, 3717.922
608.3720, 3690.358
608.8541, 3671.925
609.3362, 3661.048
609.8184, 3652.712
610.3005, 3649.206
610.7826, 3644.995
611.2647, 3640.775
611.7468, 3635.311
612.2289, 3628.010
612.7111, 3618.785
613.1932, 3607.032
613.6753, 3591.657
614.1574, 3575.913
614.6395, 3567.281
615.1216, 3566.531
615.6038, 3561.432
616.0859, 3547.272
616.5680, 3531.708
617.0501, 3519.985
617.5322, 3511.841
618.0143, 3507.329
618.4965, 3512.794
618.9786, 3514.797
619.4607, 3498.791
619.9428, 3475.260
620.4249, 3465.164
620.9070, 3473.111
621.3892, 3486.690
621.8713, 3494.083
622.3534, 3495.343
622.8355, 3492.319
623.3176, 3483.647
623.7997, 3472.100
624.2819, 3451.517
624.7640, 3432.650
625.2461, 3429.045
625.7282, 3439.934
626.2103, 3447.965
626.6924, 3435.862
627.1745, 3412.890
627.6566, 3402.622
628.1387, 3405.792
628.6208, 3411.897
629.1030, 3418.726
629.5851, 3424.630
630.0672, 3427.669
630.5493, 3428.259
631.0314, 3423.959
631.5135, 3407.508
631.9957, 3392.602
632.4778, 3388.098
632.9599, 3391.673
633.4420, 3397.943
633.9241, 3404.789
634.4063, 3413.236
634.8884, 3426.420
635.3705, 3446.279
635.8526, 3454.327
636.3347, 3441.216
636.8168, 3429.118
637.2990, 3426.208
637.7811, 3428.171
638.2632, 3430.417
638.7453, 3432.085
639.2274, 3432.777
639.7095, 3430.139
640.1917, 3427.104
640.6738, 3429.313
641.1559, 3437.013
641.6380, 3447.279
642.1201, 3459.580
642.6022, 3471.684
643.0844, 3478.242
643.5665, 3474.875
644.0486, 3474.958
644.5307, 3479.307
645.0128, 3486.279
645.4949, 3495.448
645.9771, 3506.479
646.4592, 3520.442
646.9413, 3537.960
647.4234, 3553.376
647.9055, 3554.088
648.3876, 3540.645
648.8698, 3543.336
649.3519, 3571.236
649.8340, 3599.947
650.3161, 3612.834
650.7982, 3616.602
651.2803, 3624.502
651.7625, 3639.265
652.2446, 3653.345
652.7267, 3663.803
653.2088, 3672.057
653.6909, 3677.646
654.1730, 3681.975
654.6552, 3690.245
655.1373, 3705.831
655.6194, 3726.378
656.1015, 3746.394
656.5836, 3766.815
657.0657, 3784.165
657.5479, 3797.376
658.0300, 3808.182
658.5121, 3811.889
658.9942, 3814.618
659.4763, 3829.589
659.9584, 3864.401
660.4406, 3901.762
660.9227, 3927.197
661.4048, 3943.031
661.8869, 3952.612
662.3690, 3956.190
662.8511, 3965.192
663.3333, 3988.844
663.8154, 4023.667
664.2975, 4054.868
664.7796, 4084.400
665.2617, 4107.287
665.7438, 4117.418
666.2260, 4126.190
666.7081, 4139.146
667.1902, 4157.491
667.6723, 4182.481
668.1544, 4215.753
668.6365, 4252.221
669.1187, 4285.398
669.6008, 4315.236
670.0829, 4339.206
670.5650, 4354.188
671.0471, 4370.230
671.5292, 4394.278
672.0114, 4425.372
672.4935, 4458.862
672.9756, 4497.579
673.4577, 4533.471
673.9398, 4564.113
674.4219, 4590.491
674.9041, 4611.642
675.3862, 4629.172
675.8683, 4647.807
676.3504, 4670.458
676.8325, 4696.597
677.3146, 4723.913
677.7968, 4750.598
678.2789, 4788.263
678.7610, 4849.759
679.2431, 4907.795
679.7252, 4942.330
680.2073, 4962.722
680.6895, 4987.747
681.1716, 5022.563
681.6537, 5058.961
682.1358, 5090.831
682.6179, 5122.039
683.1000, 5160.198
683.5822, 5204.708
684.0643, 5246.593
684.5464, 5279.374
685.0285, 5307.690
685.5106, 5346.095
685.9927, 5402.525
686.4749, 5450.173
686.9570, 5476.464
687.4391, 5505.137
687.9212, 5548.724
688.4033, 5601.508
688.8854, 5652.979
689.3676, 5699.886
689.8497, 5744.096
690.3318, 5783.243
690.8139, 5821.642
691.2960, 5870.454
691.7781, 5930.675
692.2603, 5989.698
692.7424, 6039.983
693.2245, 6084.612
693.7066, 6132.294
694.1887, 6185.262
694.6708, 6236.835
695.1530, 6283.033
695.6351, 6331.636
696.1172, 6386.753
696.5993, 6446.996
697.0814, 6509.108
697.5635, 6571.917
698.0457, 6637.480
698.5278, 6706.012
699.0099, 6779.103
699.4920, 6866.794
699.9741, 6970.318
700.4562, 7069.874
700.9384, 7154.531
701.4205, 7229.495
701.9026, 7305.225
702.3847, 7384.582
702.8668, 7455.843
703.3489, 7504.317
703.8311, 7559.840
704.3132, 7640.468
704.7953, 7736.798
705.2774, 7833.552
705.7595, 7925.367
706.2416, 8019.755
706.7238, 8125.124
707.2059, 8238.903
707.6880, 8349.195
708.1701, 8454.115
708.6522, 8567.143
709.1343, 8695.838
709.6164, 8834.075
710.0985, 8974.059
710.5806, 9116.369
711.0627, 9256.301
711.5449, 9391.683
712.0270, 9527.630
712.5091, 9659.392
712.9912, 9795.859
713.4733, 9949.814
713.9554, 10124.26
714.4376, 10307.76
714.9197, 10491.07
715.4018, 10675.26
715.8839, 10868.05
716.3660, 11068.91
716.8481, 11274.36
717.3303, 11478.91
717.8124, 11690.88
718.2945, 11921.31
718.7766, 12168.79
719.2587, 12428.67
719.7408, 12703.99
720.2230, 12986.64
720.7051, 13271.22
721.1872, 13562.08
721.6693, 13863.42
722.1514, 14176.96
722.6335, 14507.35
723.1157, 14857.85
723.5978, 15228.71
724.0799, 15619.30
724.5620, 16033.15
725.0441, 16451.57
725.5262, 16859.88
726.0084, 17289.29
726.4905, 17765.90
726.9726, 18286.07
727.4547, 18817.14
727.9368, 19356.13
728.4189, 19912.23
728.9011, 20471.76
729.3832, 21062.44
729.8653, 21703.67
730.3474, 22395.48
730.8295, 23129.82
731.3116, 23902.98
731.7938, 24709.15
732.2759, 25550.53
732.7580, 26426.18
733.2401, 27293.02
733.7222, 28126.24
734.2043, 29006.74
734.6865, 29983.22
735.1686, 31039.54
735.6507, 32134.21
736.1328, 33257.70
736.6149, 34431.55
737.0970, 35659.88
737.5792, 36946.19
738.0613, 38312.32
738.5434, 39741.45
739.0255, 41202.23
739.5076, 42695.68
739.9897, 44221.61
740.4719, 45783.83
740.9540, 47380.15
741.4361, 49022.74
741.9182, 50705.99
742.4003, 52435.21
742.8824, 54219.17
743.3646, 56031.88
743.8467, 57834.29
744.3288, 59626.44
744.8109, 61454.60
745.2930, 63341.87
745.7751, 65243.09
746.2573, 67163.45
746.7394, 69074.74
747.2215, 70956.45
747.7036, 72793.36
748.1857, 74586.52
748.6678, 76329.86
749.1500, 78017.10
749.6321, 79651.26
750.1142, 81235.06
750.5963, 82643.39
751.0784, 83847.09
751.5605, 84884.13
752.0427, 85793.31
752.5248, 86564.92
753.0069, 87175.68
753.4890, 87632.16
753.9711, 87933.33
754.4532, 88062.59
754.9354, 88052.11
755.4175, 87912.30
755.8996, 87653.52
756.3817, 87290.66
756.8638, 86828.26
757.3459, 86260.84
757.8281, 85548.16
758.3102, 84722.94
758.7923, 83919.22
759.2744, 83144.11
759.7565, 82376.91
760.2386, 81601.79
760.7208, 80837.77
761.2029, 80118.31
761.6850, 79452.46
762.1671, 78789.88
762.6492, 78141.49
763.1313, 77486.73
763.6135, 76819.89
764.0956, 76144.58
764.5777, 75462.65
765.0598, 74775.13
765.5419, 74075.55
766.0240, 73350.66
766.5062, 72619.41
766.9883, 71937.59
767.4704, 71275.58
767.9525, 70530.17
768.4346, 69674.13
768.9167, 68735.05
769.3989, 67735.37
769.8810, 66677.17
770.3631, 65624.63
770.8452, 64592.31
771.3273, 63529.63
771.8094, 62433.71
772.2916, 61305.66
772.7737, 60151.23
773.2558, 58972.05
773.7379, 57772.49
774.2200, 56558.26
774.7021, 55311.88
775.1843, 54002.83
775.6664, 52672.89
776.1485, 51384.38
776.6306, 50131.35
777.1127, 48868.20
777.5948, 47568.46
778.0770, 46260.89
778.5591, 44990.50
779.0412, 43755.19
779.5233, 42554.45
780.0054, 41405.24
780.4875, 40252.76
780.9697, 39070.18
781.4518, 37887.82
781.9339, 36740.16
782.4160, 35620.04
782.8981, 34536.88
783.3802, 33491.26
783.8624, 32485.44
784.3445, 31516.88
784.8266, 30585.15
785.3087, 29694.69
785.7908, 28844.85
786.2729, 28031.31
786.7551, 27252.39
787.2372, 26507.37
787.7193, 25803.46
788.2014, 25142.95
788.6835, 24505.74
789.1656, 23888.59
789.6478, 23300.41
790.1299, 22750.76
790.6120, 22236.86
791.0941, 21763.21
791.5762, 21341.35
792.0583, 20918.43
792.5404, 20496.24
793.0225, 20067.47
793.5046, 19625.78
793.9868, 19175.47
794.4689, 18722.32
794.9510, 18266.87
795.4331, 17794.46
795.9152, 17288.96
796.3973, 16763.00
796.8795, 16240.42
797.3616, 15717.63
797.8437, 15190.31
798.3258, 14655.07
798.8079, 14129.24
799.2900, 13629.94
799.7722, 13150.78
800.2543, 12672.68
800.7364, 12183.94
801.2185, 11716.96
801.7006, 11291.50
802.1827, 10872.77
802.6649, 10435.24
803.1470, 9998.951
803.6291, 9605.329
804.1112, 9266.658
804.5933, 8953.317
805.0754, 8662.316
805.5576, 8384.354
806.0397, 8110.292
806.5218, 7842.415
807.0039, 7583.676
807.4860, 7336.630
807.9681, 7097.978
808.4503, 6863.174
808.9324, 6634.909
809.4145, 6432.142
809.8966, 6256.429
810.3787, 6092.302
810.8608, 5940.147
811.3430, 5792.097
811.8251, 5640.603
812.3072, 5486.993
812.7893, 5339.406
813.2714, 5194.013
813.7535, 5060.959
814.2357, 4948.417
814.7178, 4842.962
815.1999, 4734.979
815.6820, 4628.092
816.1641, 4531.581
816.6462, 4449.064
817.1284, 4372.977
817.6105, 4300.783
818.0926, 4229.550
818.5747, 4151.483
819.0568, 4068.032
819.5389, 3989.944
820.0211, 3921.190
820.5032, 3855.098
820.9853, 3782.872
821.4674, 3722.614
821.9495, 3642.007
822.4316, 3600.734
822.9138, 3553.786
823.3959, 3493.851
823.8780, 3429.460
824.3601, 3361.927
824.8422, 3294.938
825.3243, 3239.253
825.8065, 3202.306
826.2886, 3163.355
826.7707, 3109.572
827.2528, 3054.296
827.7349, 3009.051
828.2170, 2972.257
828.6992, 2939.465
829.1813, 2908.596
829.6634, 2877.029
830.1455, 2840.998
830.6276, 2802.146
831.1097, 2765.922
831.5919, 2732.482
832.0740, 2700.476
832.5561, 2670.067
833.0382, 2638.766
833.5203, 2602.804
834.0024, 2563.710
834.4846, 2531.816
834.9667, 2512.173
835.4488, 2491.863
835.9309, 2471.506
836.4130, 2449.257
836.8951, 2421.626
837.3773, 2392.053
837.8594, 2367.050
838.3415, 2348.621
838.8236, 2329.648
839.3057, 2306.154
839.7878, 2280.586
840.2700, 2252.655
840.7521, 2225.114
841.2342, 2204.373
841.7163, 2191.577
842.1984, 2180.982
842.6805, 2167.943
843.1627, 2152.667
843.6448, 2134.880
844.1269, 2114.549
844.6090, 2097.683
845.0911, 2087.396
845.5732, 2073.135
846.0554, 2044.763
846.5375, 2009.042
847.0196, 1986.014
847.5017, 1983.815
847.9838, 1975.996
848.4659, 1956.359
848.9481, 1938.440
849.4302, 1930.492
849.9123, 1925.212
850.3944, 1912.263
850.8765, 1891.137
851.3586, 1872.446
851.8408, 1863.927
852.3229, 1857.485
852.8050, 1845.047
853.2871, 1830.325
853.7692, 1821.041
854.2513, 1817.025
854.7335, 1810.228
855.2156, 1795.329
855.6977, 1777.336
856.1798, 1767.010
856.6619, 1763.934
857.1440, 1753.982
857.6262, 1734.503
858.1083, 1719.373
858.5904, 1716.796
859.0725, 1718.027
859.5546, 1710.139
860.0367, 1691.957
860.5189, 1678.747
861.0010, 1675.114
861.4831, 1670.029
861.9652, 1660.648
862.4473, 1650.165
862.9294, 1640.258
863.4116, 1631.343
863.8937, 1624.233
864.3758, 1619.747
864.8579, 1614.889
865.3400, 1607.507
865.8221, 1598.984
866.3043, 1589.553
866.7864, 1580.495
867.2685, 1576.435
867.7506, 1578.281
868.2327, 1578.333
868.7148, 1566.959
869.1970, 1548.575
869.6791, 1538.832
870.1612, 1537.754
870.6433, 1534.476
871.1254, 1525.901
871.6075, 1518.770
872.0897, 1518.554
872.5718, 1523.430
873.0539, 1527.777
873.5360, 1532.944
874.0181, 1534.478
874.5002, 1530.752
874.9823, 1525.175
875.4644, 1517.378
875.9465, 1509.185
876.4286, 1502.374
876.9108, 1497.163
877.3929, 1493.111
877.8750, 1490.128
878.3571, 1488.246
878.8392, 1486.910
879.3214, 1487.069
879.8035, 1490.674
880.2856, 1496.926
880.7677, 1502.933
881.2498, 1507.264
881.7319, 1510.747
882.2141, 1511.939
882.6962, 1513.500
883.1783, 1523.536
883.6604, 1542.063
884.1425, 1566.972
884.6246, 1597.953
885.1068, 1631.236
885.5889, 1664.953
886.0710, 1696.553
886.5531, 1705.177
887.0352, 1688.691
887.5173, 1654.086
887.9995, 1591.494
888.4816, 1525.912
888.9637, 1466.842
889.4458, 1416.830
889.9279, 1382.039
890.4100, 1366.117
890.8922, 1350.755
891.3743, 1328.288
891.8564, 1311.641
892.3385, 1311.530
892.8206, 1317.343
893.3027, 1316.633
893.7849, 1309.060
894.2670, 1302.605
894.7491, 1302.267
895.2312, 1302.196
895.7133, 1296.735
896.1954, 1288.140
896.6776, 1278.760
897.1597, 1269.739
897.6418, 1263.832
898.1239, 1262.222
898.6060, 1262.890
899.0881, 1264.237
899.5703, 1265.592
900.0524, 1262.496
900.5345, 1254.632
901.0166, 1248.635
901.4987, 1246.109
901.9808, 1245.590
902.4630, 1246.399
902.9451, 1247.932
903.4272, 1247.933
903.9093, 1245.032
904.3914, 1243.838
904.8735, 1247.948
905.3557, 1249.214
905.8378, 1240.582
906.3199, 1230.479
906.8020, 1229.977
907.2841, 1238.776
907.7662, 1243.186
908.2484, 1236.327
908.7305, 1229.114
909.2126, 1227.364
909.6947, 1226.058
910.1768, 1219.213
910.6589, 1208.910
911.1411, 1201.287
911.6232, 1198.696
912.1053, 1197.633
912.5874, 1195.067
913.0695, 1192.137
913.5516, 1190.593
914.0338, 1190.226
914.5159, 1191.150
914.9980, 1192.987
915.4801, 1192.033
915.9622, 1184.755
916.4443, 1174.792
916.9265, 1170.881
917.4086, 1173.008
917.8907, 1176.099
918.3728, 1179.593
918.8549, 1186.347
919.3370, 1200.115
919.8192, 1212.434
920.3013, 1210.543
920.7834, 1193.964
921.2655, 1182.167
921.7476, 1178.170
922.2297, 1173.737
922.7119, 1165.205
923.1940, 1158.499
923.6761, 1160.365
924.1582, 1165.669
924.6403, 1162.437
925.1224, 1146.470
925.6046, 1136.009
926.0867, 1139.344
926.5688, 1145.009
927.0509, 1149.404
927.5330, 1151.196
928.0151, 1147.043
928.4973, 1138.654
928.9794, 1134.217
929.4615, 1139.525
929.9436, 1144.903
930.4257, 1139.499
930.9078, 1130.333
931.3900, 1127.896
931.8721, 1131.338
932.3542, 1136.067
932.8363, 1140.208
933.3184, 1142.354
933.8005, 1140.368
934.2827, 1136.147
934.7648, 1136.064
935.2469, 1139.276
935.7290, 1135.816
936.2111, 1123.693
936.6932, 1115.340
937.1754, 1118.981
937.6575, 1127.448
938.1396, 1126.896
938.6217, 1116.210
939.1038, 1110.905
939.5859, 1113.112
940.0681, 1115.024
940.5502, 1114.989
941.0323, 1113.595
941.5144, 1110.235
941.9965, 1105.886
942.4786, 1104.961
942.9608, 1110.225
943.4429, 1113.023
943.9250, 1112.865
944.4071, 1110.370
944.8892, 1102.538
945.3713, 1094.602
945.8535, 1093.506
946.3356, 1098.835
946.8177, 1102.835
947.2998, 1102.642
947.7819, 1101.216
948.2640, 1100.315
948.7462, 1098.535
949.2283, 1092.652
949.7104, 1085.345
950.1925, 1082.525
950.6746, 1085.750
951.1567, 1090.502
951.6389, 1094.814
952.1210, 1097.397
952.6031, 1096.405
953.0852, 1092.482
953.5673, 1085.046
954.0494, 1075.517
954.5316, 1071.219
955.0137, 1076.277
955.4958, 1083.864
955.9779, 1083.528
956.4600, 1077.018
956.9421, 1072.727
957.4242, 1070.626
957.9063, 1070.333
958.3884, 1071.940
958.8705, 1073.131
959.3527, 1072.053
959.8348, 1069.152
960.3169, 1065.175
960.7990, 1059.194
961.2811, 1057.666
961.7632, 1062.936
962.2454, 1066.180
962.7275, 1062.720
963.2096, 1057.929
963.6917, 1058.050
964.1738, 1062.527
964.6559, 1065.182
965.1381, 1066.852
965.6202, 1065.290
966.1023, 1056.666
966.5844, 1049.215
967.0665, 1048.553
967.5486, 1049.996
968.0308, 1046.158
968.5129, 1036.689
968.9950, 1030.961
969.4771, 1033.494
969.9592, 1036.637
970.4413, 1038.161
970.9235, 1038.981
971.4056, 1039.968
971.8877, 1040.802
972.3698, 1040.799
972.8519, 1039.772
973.3340, 1037.698
973.8162, 1033.787
974.2983, 1029.612
974.7804, 1025.013
975.2625, 1021.807
975.7446, 1024.884
976.2267, 1032.027
976.7089, 1033.342
977.1910, 1023.788
977.6731, 1015.032
978.1552, 1022.900
978.6373, 1037.402
979.1194, 1040.330
979.6016, 1034.727
980.0837, 1031.036
980.5658, 1031.460
981.0479, 1033.270
981.5300, 1034.915
982.0121, 1034.994
982.4943, 1029.235
982.9764, 1019.318
983.4585, 1015.205
983.9406, 1017.076
984.4227, 1020.151
984.9048, 1023.089
985.3870, 1024.731
985.8691, 1023.730
986.3512, 1021.144
986.8333, 1020.840
987.3154, 1023.351
987.7975, 1023.107
988.2797, 1018.558
988.7618, 1016.922
989.2439, 1022.946
989.7260, 1028.950
990.2081, 1025.072
990.6902, 1012.750
991.1724, 1005.539
991.6545, 1004.686
992.1366, 1006.380
992.6187, 1014.092
993.1008, 1018.620
993.5829, 1011.835
994.0651, 1002.248
994.5472, 1003.347
995.0293, 1015.399
995.5114, 1021.116
995.9935, 1014.589
996.4756, 1010.015
996.9578, 1009.379
997.4399, 1010.941
997.9220, 1014.896
998.4041, 1019.867
998.8862, 1024.289
999.3683, 1027.986
999.8505, 1029.429
1000.333, 1025.903
1000.815, 1023.131
1001.297, 1024.648
1001.779, 1026.492
1002.261, 1024.777
1002.743, 1020.997
1003.225, 1018.713
1003.707, 1018.820
1004.190, 1019.059
1004.672, 1017.845
1005.154, 1016.913
1005.636, 1018.200
1006.118, 1019.866
1006.600, 1019.481
1007.082, 1017.454
1007.564, 1015.495
1008.046, 1014.209
1008.529, 1013.626
1009.011, 1013.690
1009.493, 1014.528
1009.975, 1016.960
1010.457, 1019.965
1010.939, 1021.868
1011.421, 1022.473
1011.903, 1022.229
1012.385, 1021.338
1012.868, 1020.151
1013.350, 1018.346
1013.832, 1016.914
1014.314, 1018.291
1014.796, 1021.565
1015.278, 1024.430
1015.760, 1026.253
1016.242, 1025.638
1016.725, 1021.494
1017.207, 1018.159
1017.689, 1026.006
1018.171, 1017.762
1018.653, 1033.915
1019.135, 1012.976
1019.617, 1002.741
1020.099, 1008.702
1020.581, 1016.443
1021.064, 1016.001
1021.546, 1021.638
1022.028, 1015.355
1022.510, 1024.424
1022.992, 1026.404
1023.474, 1021.110
1023.956, 1014.779
1024.438, 1008.605
1024.921, 1005.693
1025.403, 1008.835
1025.885, 1015.526
1026.367, 1020.344
1026.849, 1023.328
1027.331, 1022.533
1027.813, 1016.682
1028.295, 1014.941
1028.777, 1021.111
1029.260, 1026.944
1029.742, 1024.528
1030.224, 1018.523
1030.706, 1023.704
1031.188, 1044.450
1031.670, 1052.040
1032.152, 1042.009
1032.634, 1031.538
1033.116, 1023.930
1033.599, 1020.279
1034.081, 1022.718
1034.563, 1029.100
1035.045, 1032.733
1035.527, 1033.109
1036.009, 1032.290
1036.491, 1028.411
1036.973, 1027.070
1037.456, 1031.888
1037.938, 1037.158
1038.420, 1038.130
1038.902, 1035.760
1039.384, 1032.962
1039.866, 1028.398
1040.348, 1027.269
1040.830, 1032.067
1041.313, 1036.740
1041.795, 1039.926
1042.277, 1042.259
1042.759, 1043.920
1043.241, 1045.146
1043.723, 1046.813
1044.205, 1049.678
1044.687, 1050.881
1045.169, 1049.499
1045.651, 1047.481
1046.134, 1047.287
1046.616, 1044.971
1047.098, 1033.479
1047.580, 1017.582
1048.062, 1012.012
1048.544, 1021.997
1049.026, 1028.314
1049.508, 1026.267
1049.991, 1023.058
1050.473, 1020.618
1050.955, 1018.410
1051.437, 1015.234
1051.919, 1011.957
1052.401, 1011.137
1052.883, 1013.871
1053.365, 1015.774
1053.848, 1015.655
1054.330, 1014.915
1054.812, 1016.458
1055.294, 1015.548
1055.776, 1004.534
1056.258, 988.4681
1056.740, 980.4376
1057.222, 983.8125
1057.704, 988.0007
1058.187, 991.4756
1058.669, 993.3161
1059.151, 992.7769
1059.633, 990.7106
1060.115, 987.9833
1060.597, 984.3011
1061.079, 977.2638
1061.561, 965.5601
1062.043, 960.8117
1062.526, 975.8620
1063.008, 987.3483
1063.490, 979.9079
1063.972, 968.7410
1064.454, 967.7120
1064.936, 973.5086
1065.418, 978.1816
1065.900, 980.1365
1066.383, 977.0441
1066.865, 960.8217
1067.347, 948.6245
1067.829, 953.1286
1068.311, 960.7841
1068.793, 958.3112
1069.275, 950.6393
1069.757, 949.9598
1070.240, 958.1974
1070.722, 962.9940
1071.204, 955.6230
1071.686, 948.3922
1072.168, 947.2283
1072.650, 948.3676
1073.132, 949.6410
1073.614, 950.4958
1074.096, 950.2372
1074.578, 948.9250
1075.061, 948.1957
1075.543, 949.8678
1076.025, 950.4211
1076.507, 947.3239
1076.989, 943.2711
1077.471, 941.1390
1077.953, 939.0814
1078.435, 932.3241
1078.918, 921.6630
1079.400, 916.0207
1079.882, 920.5510
1080.364, 926.7762
1080.846, 931.5981
1081.328, 935.6655
1081.810, 942.0568
1082.292, 946.4385
1082.774, 940.0486
1083.257, 925.1790
1083.739, 915.9623
1084.221, 917.8756
1084.703, 923.6317
1085.185, 936.4365
1085.667, 944.7323
1086.149, 936.9515
1086.631, 923.2025
1087.114, 913.7831
1087.596, 909.8634
1088.078, 910.0454
1088.560, 914.6102
1089.042, 919.8509
1089.524, 924.5453
1090.006, 929.1582
1090.488, 935.4621
1090.970, 940.5803
1091.453, 941.4656
1091.935, 938.6937
1092.417, 933.8742
1092.899, 927.1105
1093.381, 921.1132
1093.863, 915.8304
1094.345, 912.8820
1094.827, 913.3988
1095.309, 916.2789
1095.792, 925.2449
1096.274, 934.1071
1096.756, 928.7197
1097.238, 906.8281
1097.720, 892.0189
1098.202, 894.3883
1098.684, 901.1248
1099.166, 912.2740
1099.649, 921.8350
1100.131, 926.8470
1100.613, 926.9801
1101.095, 919.7047
1101.577, 906.0018
1102.059, 897.5558
1102.541, 899.2830
1103.023, 903.0367
1103.505, 909.9504
1103.988, 914.9240
1104.470, 915.7773
1104.952, 912.7863
1105.434, 902.5089
1105.916, 888.0005
1106.398, 884.4655
1106.880, 900.3205
1107.362, 912.5292
1107.844, 913.0687
1108.327, 915.0822
1108.809, 928.2914
1109.291, 940.9637
1109.773, 942.2329
1110.255, 934.3693
1110.737, 923.9893
1111.219, 909.3161
1111.701, 900.7245
1112.184, 904.0856
1112.666, 906.4647
1113.148, 903.0482
1113.630, 899.8395
1114.112, 902.2655
1114.594, 906.9885
1115.076, 906.5054
1115.558, 910.5349
1116.041, 915.6612
1116.523, 914.9769
1117.005, 925.1665
1117.487, 925.6123
1117.969, 925.5524
1118.451, 931.5092
1118.933, 937.2003
1119.415, 933.4279
1119.897, 921.2911
1120.380, 913.0480
1120.862, 911.5304
1121.344, 906.3785
1121.826, 893.2583
1122.308, 885.1878
1122.790, 887.8893
1123.272, 895.6232
1123.754, 905.0751
1124.236, 913.7759
1124.719, 912.2220
1125.201, 897.3018
1125.683, 888.3750
1126.165, 885.8836
1126.647, 889.0285
1127.129, 900.4080
1127.611, 907.4217
1128.093, 900.2618
1128.576, 885.8823
1129.058, 876.3584
1129.540, 871.7848
1130.022, 875.6740
1130.504, 889.2839
1130.986, 895.4904
1131.468, 891.1134
1131.950, 885.4520
1132.432, 882.6768
1132.915, 882.7669
1133.397, 886.4339
1133.879, 891.9435
1134.361, 892.0949
1134.843, 887.5732
1135.325, 888.3895
1135.807, 894.6152
1136.289, 892.1559
1136.771, 876.7459
1137.254, 864.9750
1137.736, 871.0060
1138.218, 885.0618
1138.700, 889.7037
1139.182, 887.4987
1139.664, 886.0883
1140.146, 885.8231
1140.628, 888.3131
1141.111, 892.9318
1141.593, 893.1678
1142.075, 885.4772
1142.557, 877.8677
1143.039, 881.0653
1143.521, 888.8633
1144.003, 891.4445
1144.485, 890.3991
1144.968, 887.9094
1145.450, 885.0519
1145.932, 883.2453
1146.414, 883.1309
1146.896, 886.2435
1147.378, 896.4183
1147.860, 904.5072
1148.342, 898.1129
1148.824, 887.7524
1149.307, 883.8773
1149.789, 886.2550
1150.271, 897.4238
1150.753, 913.3413
1151.235, 917.0709
1151.717, 898.8387
1152.199, 881.7296
1152.681, 877.6038
1153.163, 880.4727
1153.646, 894.1179
1154.128, 906.4188
1154.610, 900.3737
1155.092, 884.0719
1155.574, 879.8215
1156.056, 892.2760
1156.538, 898.2368
1157.020, 886.6860
1157.503, 874.0087
1157.985, 860.0923
1158.467, 851.6345
1158.949, 856.8447
1159.431, 867.0009
1159.913, 870.4785
1160.395, 867.7150
1160.877, 866.7835
1161.359, 870.9491
1161.842, 871.1432
1162.324, 862.4796
1162.806, 857.2134
1163.288, 860.0095
1163.770, 865.5372
1164.252, 871.0830
1164.734, 875.6539
1165.216, 876.6893
1165.698, 873.8470
1166.181, 871.8220
1166.663, 870.0920
1167.145, 872.1161
1167.627, 880.5924
1168.109, 883.7808
1168.591, 874.2682
1169.073, 863.9334
1169.555, 868.1095
1170.037, 858.5911
1170.520, 852.4398
1171.002, 852.8237
1171.484, 842.4255
1171.966, 845.1764
1172.448, 852.5332
1172.930, 862.0793
1173.412, 867.3611
1173.894, 863.5980
1174.377, 857.6526
1174.859, 861.7010
1175.341, 858.3160
1175.823, 857.8008
1176.305, 860.4943
1176.787, 859.1835
1177.269, 865.2202
1177.751, 871.6177
1178.234, 875.8208
1178.716, 879.7894
1179.198, 885.6104
1179.680, 890.5933
1180.162, 891.4497
1180.644, 890.0248
1181.126, 888.0055
1181.608, 885.8033
1182.090, 884.8311
1182.573, 884.1935
1183.055, 879.5311
1183.537, 868.4948
1184.019, 858.8275
1184.501, 853.2452
1184.983, 851.8787
1185.465, 857.8807
1185.947, 865.2140
1186.429, 868.6169
1186.912, 869.6540
1187.394, 873.4069
1187.876, 879.8924
1188.358, 878.6115
1188.840, 855.6481
1189.322, 844.4037
1189.804, 857.9716
1190.286, 871.0577
1190.769, 874.6252
1191.251, 874.6442
1191.733, 876.5573
1192.215, 878.3197
1192.697, 872.9259
1193.179, 857.9063
1193.661, 859.5083
1194.143, 885.8859
1194.625, 896.3136
1195.108, 880.4301
1195.590, 867.5809
1196.072, 873.3627
1196.554, 880.9240
1197.036, 869.1788
1197.518, 847.3249
1198.000, 846.0240
1198.482, 862.6332
1198.964, 875.7948
1199.447, 883.7230
1199.929, 876.8851
1200.411, 855.3094
1200.893, 841.5995
1201.375, 849.0952
1201.857, 861.5018
1202.339, 857.3774
1202.821, 848.4869
1203.304, 858.5763
1203.786, 853.8338
1204.268, 853.6432
1204.750, 859.2291
1205.232, 854.5847
1205.714, 863.1260
1206.196, 869.1862
1206.678, 864.3879
1207.161, 856.8748
1207.643, 847.7026
1208.125, 842.1697
1208.607, 846.0697
1209.089, 853.7327
1209.571, 860.9498
1210.053, 866.3842
1210.535, 867.3838
1211.017, 863.1678
1211.500, 862.9323
1211.982, 874.7018
1212.464, 880.1584
1212.946, 870.0792
1213.428, 862.3953
1213.910, 866.3660
1214.392, 872.2586
1214.874, 870.1681
1215.356, 863.1940
1215.839, 861.1297
1216.321, 864.7343
1216.803, 865.1669
1217.285, 861.2834
1217.767, 863.1284
1218.249, 873.2933
1218.731, 879.6392
1219.213, 875.9626
1219.696, 870.6419
1220.178, 873.4878
1220.660, 870.0950
1221.142, 868.8697
1221.624, 869.5571
1222.106, 866.7114
1222.588, 867.9960
1223.070, 868.1963
1223.552, 866.6163
1224.035, 865.7794
1224.517, 866.8624
1224.999, 868.5882
1225.481, 868.8932
1225.963, 870.4698
1226.445, 876.2565
1226.927, 884.1151
1227.409, 896.4391
1227.891, 906.6139
1228.374, 901.4461
1228.856, 882.9564
1229.338, 869.6852
1229.820, 867.0695
1230.302, 867.4153
1230.784, 871.0079
1231.266, 874.5127
1231.748, 878.9601
1232.231, 880.5802
1232.713, 873.9135
1233.195, 865.8228
1233.677, 866.5238
1234.159, 875.0373
1234.641, 883.4881
1235.123, 893.7293
1235.605, 893.6589
1236.088, 880.5341
1236.570, 871.7466
1237.052, 871.8576
1237.534, 876.8531
1238.016, 884.8398
1238.498, 891.0236
1238.980, 886.7710
1239.462, 877.5651
1239.944, 879.3307
1240.427, 888.2909
1240.909, 894.6682
1241.391, 897.3877
1241.873, 895.9806
1242.355, 890.9535
1242.837, 884.5858
1243.319, 877.4841
1243.801, 873.5162
1244.283, 878.4675
1244.766, 884.2542
1245.248, 884.3470
1245.730, 882.5667
1246.212, 883.1344
1246.694, 884.5661
1247.176, 881.8896
1247.658, 875.7594
1248.140, 877.4811
1248.622, 897.3091
1249.105, 906.5915
1249.587, 895.6066
1250.069, 887.2492
1250.551, 887.7927
1251.033, 890.2423
1251.515, 890.6344
1251.997, 889.8187
1252.479, 888.9664
1252.962, 888.1089
1253.444, 887.0945
1253.926, 888.2932
1254.408, 887.5472
1254.890, 891.8088
1255.372, 896.0782
1255.854, 899.6129
1256.336, 902.4105
1256.818, 904.4393
1257.301, 905.9343
1257.783, 907.9968
1258.265, 908.6844
1258.747, 903.2745
1259.229, 896.3958
1259.711, 893.5038
1260.193, 894.6608
1260.675, 900.6901
1261.157, 909.9041
1261.640, 915.5560
1262.122, 914.7892
1262.604, 914.4254
1263.086, 915.9007
1263.568, 919.1057
1264.050, 928.0214
1264.532, 933.9944
1265.014, 931.1721
1265.497, 923.3323
1265.979, 912.2443
1266.461, 900.6009
1266.943, 901.7035
1267.425, 918.8107
1267.907, 922.7502
1268.389, 912.1013
1268.871, 902.8428
1269.354, 897.7248
1269.836, 899.5038
1270.318, 909.5513
1270.800, 919.7635
1271.282, 922.1368
1271.764, 920.4886
1272.246, 920.2795
1272.728, 920.8003
1273.210, 921.7296
1273.693, 921.9366
1274.175, 917.7845
1274.657, 911.2393
1275.139, 909.0875
1275.621, 913.0453
1276.103, 918.0065
1276.585, 924.2211
1277.067, 927.1468
1277.549, 923.5377
1278.032, 918.5314
1278.514, 912.1068
1278.996, 907.8130
1279.478, 909.3436
1279.960, 914.5360
1280.442, 919.8338
1280.924, 925.1180
1281.406, 925.9634
1281.889, 921.5974
1282.371, 918.7145
1282.853, 917.7796
1283.335, 919.6396
1283.817, 924.4995
1284.299, 926.4504
1284.781, 921.4146
1285.263, 916.1691
1285.745, 917.5632
1286.228, 925.6102
##END=



