##NAMES=Wulfenite
##RRUFFID=R050501
##IDEAL CHEMISTRY=Pb^2+^Mo^6+^O_4_
##LOCALITY=Los Lamentos, Chihuahua, Mexico
##OWNER=RRUFF
##SOURCE=California Institute of Technology
##DESCRIPTION=Orange tabular crystal
##STATUS=The identification of this mineral has been confirmed by X-ray diffraction and chemical analysis
##URL=rruff.info/R050501
##MEASURED CHEMISTRY=Pb_1.00_Mo_1.00_O_4_
91.72394, 0.0000000E+00
92.20605, 1781.598
92.68817, 1775.583
93.17029, 1785.004
93.65240, 1803.568
94.13452, 1820.952
94.61664, 1817.599
95.09875, 1786.567
95.58087, 1739.944
96.06299, 1705.384
96.54510, 1688.746
97.02721, 1675.484
97.50933, 1661.887
97.99145, 1650.415
98.47356, 1646.158
98.95568, 1653.087
99.43780, 1669.258
99.91991, 1666.772
100.4020, 1642.426
100.8841, 1608.921
101.3663, 1569.385
101.8484, 1524.646
102.3305, 1475.299
102.8126, 1421.348
103.2947, 1360.914
103.7768, 1301.574
104.2590, 1241.349
104.7411, 1182.547
105.2232, 1127.489
105.7053, 1076.054
106.1874, 1029.327
106.6695, 989.5629
107.1517, 955.8345
107.6338, 925.3137
108.1159, 896.4218
108.5980, 869.4291
109.0801, 845.7045
109.5622, 826.4183
110.0444, 810.1419
110.5265, 795.3992
111.0086, 781.9961
111.4907, 770.4610
111.9728, 761.6462
112.4549, 756.1823
112.9371, 751.4861
113.4192, 746.5378
113.9013, 742.3425
114.3834, 739.8549
114.8655, 739.4479
115.3476, 740.5003
115.8298, 741.3889
116.3119, 741.9648
116.7940, 742.5527
117.2761, 742.9470
117.7582, 743.4219
118.2403, 744.2311
118.7225, 745.4907
119.2046, 747.2520
119.6867, 750.2137
120.1688, 755.8165
120.6509, 760.9250
121.1330, 764.0168
121.6152, 765.4590
122.0973, 766.8290
122.5794, 769.2935
123.0615, 772.9161
123.5436, 776.5897
124.0257, 781.2178
124.5079, 785.3879
124.9900, 786.9425
125.4721, 785.2324
125.9542, 783.9944
126.4363, 787.3824
126.9184, 793.9440
127.4006, 800.8735
127.8827, 807.2858
128.3648, 813.2704
128.8469, 818.9516
129.3290, 824.1584
129.8111, 829.3333
130.2932, 834.4119
130.7754, 839.5987
131.2575, 845.5099
131.7396, 852.4344
132.2217, 860.2955
132.7038, 869.9023
133.1859, 881.9341
133.6681, 895.3962
134.1502, 910.0925
134.6323, 925.9586
135.1144, 942.7892
135.5965, 960.3049
136.0786, 978.0981
136.5608, 997.8891
137.0429, 1019.507
137.5250, 1042.816
138.0071, 1067.518
138.4892, 1093.554
138.9713, 1121.293
139.4535, 1151.069
139.9356, 1184.121
140.4177, 1217.888
140.8998, 1250.696
141.3819, 1284.566
141.8640, 1322.844
142.3462, 1367.220
142.8283, 1415.824
143.3104, 1462.771
143.7925, 1506.418
144.2746, 1551.290
144.7567, 1599.849
145.2388, 1651.380
145.7210, 1703.117
146.2031, 1753.152
146.6852, 1803.018
147.1673, 1855.792
147.6494, 1912.673
148.1315, 1970.625
148.6137, 2027.292
149.0958, 2082.838
149.5779, 2136.455
150.0600, 2186.375
150.5421, 2235.076
151.0242, 2285.375
151.5064, 2338.670
151.9885, 2393.076
152.4706, 2443.795
152.9527, 2489.467
153.4348, 2534.611
153.9169, 2580.512
154.3991, 2626.995
154.8812, 2674.522
155.3633, 2723.341
155.8454, 2773.064
156.3275, 2820.858
156.8096, 2866.388
157.2918, 2909.698
157.7739, 2949.483
158.2560, 2987.164
158.7381, 3024.999
159.2202, 3065.039
159.7023, 3107.458
160.1845, 3144.917
160.6666, 3176.915
161.1487, 3205.382
161.6308, 3231.233
162.1129, 3254.150
162.5950, 3273.169
163.0772, 3287.641
163.5593, 3297.305
164.0414, 3299.266
164.5235, 3293.319
165.0056, 3280.849
165.4877, 3263.782
165.9698, 3242.091
166.4520, 3212.652
166.9341, 3170.957
167.4162, 3116.700
167.8983, 3057.642
168.3804, 2995.046
168.8625, 2927.550
169.3447, 2852.915
169.8268, 2770.198
170.3089, 2683.274
170.7910, 2594.629
171.2731, 2505.005
171.7552, 2416.347
172.2374, 2328.743
172.7195, 2242.859
173.2016, 2160.214
173.6837, 2079.523
174.1658, 2005.194
174.6479, 1938.131
175.1301, 1878.053
175.6122, 1823.450
176.0943, 1773.770
176.5764, 1728.896
177.0585, 1688.839
177.5406, 1654.874
178.0228, 1625.277
178.5049, 1599.734
178.9870, 1577.896
179.4691, 1559.232
179.9512, 1543.348
180.4333, 1530.458
180.9155, 1519.432
181.3976, 1509.861
181.8797, 1502.416
182.3618, 1498.057
182.8439, 1496.557
183.3260, 1496.700
183.8082, 1497.075
184.2903, 1497.712
184.7724, 1498.557
185.2545, 1500.165
185.7366, 1501.554
186.2187, 1502.189
186.7009, 1501.934
187.1830, 1500.897
187.6651, 1499.275
188.1472, 1497.300
188.6293, 1493.924
189.1114, 1491.450
189.5936, 1486.475
190.0757, 1475.814
190.5578, 1458.695
191.0399, 1436.812
191.5220, 1412.471
192.0041, 1385.702
192.4863, 1356.408
192.9684, 1324.332
193.4505, 1289.918
193.9326, 1253.043
194.4147, 1213.294
194.8968, 1172.395
195.3790, 1132.814
195.8611, 1094.279
196.3432, 1057.122
196.8253, 1020.944
197.3074, 986.1295
197.7895, 953.3420
198.2717, 922.7637
198.7538, 894.4581
199.2359, 868.3402
199.7180, 844.1376
200.2001, 821.5949
200.6822, 800.4406
201.1644, 780.6730
201.6465, 762.5903
202.1286, 746.5573
202.6107, 732.0079
203.0928, 718.2382
203.5749, 705.1954
204.0571, 693.3201
204.5392, 682.7768
205.0213, 673.5477
205.5034, 666.1759
205.9855, 662.2464
206.4676, 659.1469
206.9497, 656.1052
207.4319, 652.8231
207.9140, 648.0201
208.3961, 639.6223
208.8782, 626.8054
209.3603, 615.6178
209.8424, 606.9587
210.3246, 599.8900
210.8067, 594.5040
211.2888, 590.6157
211.7709, 587.5137
212.2530, 584.3357
212.7351, 580.8994
213.2173, 578.0479
213.6994, 576.1197
214.1815, 574.4697
214.6636, 572.9297
215.1457, 571.3853
215.6278, 569.5969
216.1100, 567.1506
216.5921, 563.4575
217.0742, 560.6100
217.5563, 558.8233
218.0384, 557.5203
218.5205, 556.5753
219.0027, 555.8531
219.4848, 554.9660
219.9669, 553.3163
220.4490, 550.2162
220.9311, 548.1492
221.4132, 547.5604
221.8954, 547.5652
222.3775, 547.6291
222.8596, 547.6158
223.3417, 547.5672
223.8238, 547.5348
224.3059, 547.5232
224.7881, 547.5187
225.2702, 547.5872
225.7523, 547.6229
226.2344, 547.4989
226.7165, 547.1979
227.1986, 546.8644
227.6807, 546.6899
228.1629, 546.7248
228.6450, 546.6546
229.1271, 546.0366
229.6092, 545.5167
230.0913, 545.8688
230.5734, 547.2453
231.0556, 549.0170
231.5377, 550.6364
232.0198, 552.1057
232.5019, 553.1285
232.9840, 553.1217
233.4661, 552.8619
233.9483, 553.4524
234.4304, 555.1536
234.9125, 556.9700
235.3946, 557.6899
235.8767, 557.6000
236.3588, 557.9579
236.8410, 559.4129
237.3231, 561.3870
237.8052, 563.0176
238.2873, 564.1838
238.7694, 565.2396
239.2515, 566.6033
239.7337, 568.0961
240.2158, 569.2897
240.6979, 569.7401
241.1800, 569.8691
241.6621, 570.4681
242.1442, 571.6414
242.6264, 573.0505
243.1085, 574.5129
243.5906, 576.0498
244.0727, 577.7234
244.5548, 579.6488
245.0369, 581.6838
245.5191, 583.4922
246.0012, 584.9604
246.4833, 586.4649
246.9654, 588.2870
247.4475, 590.2242
247.9296, 592.0089
248.4117, 593.5251
248.8939, 594.8190
249.3760, 595.9328
249.8581, 596.6019
250.3402, 597.6769
250.8223, 599.7878
251.3044, 602.2862
251.7866, 604.4713
252.2687, 606.0449
252.7508, 607.1562
253.2329, 608.1298
253.7150, 608.8983
254.1971, 609.6495
254.6793, 610.1151
255.1614, 610.7235
255.6435, 611.9547
256.1256, 614.0148
256.6077, 616.5998
257.0898, 619.1076
257.5720, 621.4935
258.0541, 623.8719
258.5362, 626.6305
259.0183, 629.1996
259.5004, 630.8474
259.9825, 631.3541
260.4647, 631.5549
260.9468, 633.1077
261.4289, 636.8949
261.9110, 640.3541
262.3931, 643.4334
262.8752, 646.1182
263.3574, 648.0761
263.8395, 649.3450
264.3216, 650.6578
264.8037, 653.2353
265.2858, 657.6557
265.7679, 662.2985
266.2501, 667.4443
266.7322, 672.5438
267.2143, 677.0099
267.6964, 680.8312
268.1785, 684.6381
268.6606, 689.3173
269.1428, 695.3008
269.6249, 701.0266
270.1070, 706.0710
270.5891, 711.2299
271.0712, 716.7214
271.5533, 722.6993
272.0355, 729.4625
272.5176, 737.4346
272.9997, 746.8624
273.4818, 756.2752
273.9639, 765.7435
274.4460, 775.1203
274.9282, 783.9579
275.4103, 792.4930
275.8924, 801.4454
276.3745, 811.4249
276.8566, 822.4540
277.3387, 834.6318
277.8208, 848.2562
278.3029, 862.4737
278.7851, 876.6393
279.2672, 891.0930
279.7493, 906.7475
280.2314, 924.3447
280.7135, 943.8051
281.1956, 963.9537
281.6778, 984.0507
282.1599, 1005.495
282.6420, 1029.167
283.1241, 1054.580
283.6062, 1080.461
284.0883, 1105.846
284.5705, 1131.381
285.0526, 1159.982
285.5347, 1191.178
286.0168, 1225.494
286.4989, 1262.588
286.9810, 1302.965
287.4632, 1347.494
287.9453, 1396.703
288.4274, 1449.193
288.9095, 1507.385
289.3916, 1566.930
289.8737, 1631.889
290.3559, 1701.113
290.8380, 1776.284
291.3201, 1858.753
291.8022, 1948.947
292.2843, 2047.076
292.7664, 2155.246
293.2486, 2271.881
293.7307, 2401.552
294.2128, 2545.948
294.6949, 2703.111
295.1770, 2870.945
295.6591, 3049.673
296.1413, 3238.951
296.6234, 3439.726
297.1055, 3654.885
297.5876, 3873.468
298.0697, 4098.147
298.5518, 4324.273
299.0340, 4550.671
299.5161, 4775.617
299.9982, 4994.653
300.4803, 5202.989
300.9624, 5399.135
301.4445, 5591.155
301.9267, 5778.672
302.4088, 5961.002
302.8909, 6136.291
303.3730, 6305.462
303.8551, 6476.622
304.3372, 6655.682
304.8194, 6842.649
305.3015, 7035.982
305.7836, 7238.819
306.2657, 7445.000
306.7478, 7648.817
307.2299, 7853.183
307.7121, 8067.681
308.1942, 8298.168
308.6763, 8541.235
309.1584, 8781.990
309.6405, 9017.035
310.1227, 9255.452
310.6048, 9502.662
311.0869, 9754.688
311.5690, 10003.85
312.0511, 10248.04
312.5332, 10482.56
313.0154, 10696.52
313.4975, 10899.21
313.9796, 11064.28
314.4617, 11201.11
314.9438, 11291.76
315.4259, 11319.73
315.9081, 11281.57
316.3902, 11167.18
316.8723, 10958.22
317.3544, 10646.93
317.8365, 10263.70
318.3186, 9785.969
318.8007, 9252.240
319.2828, 8683.182
319.7650, 8082.390
320.2471, 7477.401
320.7292, 6882.683
321.2113, 6304.300
321.6934, 5770.481
322.1755, 5278.983
322.6577, 4829.303
323.1398, 4421.372
323.6219, 4055.742
324.1040, 3728.162
324.5861, 3440.292
325.0682, 3189.519
325.5504, 2968.561
326.0325, 2779.035
326.5146, 2610.884
326.9967, 2461.736
327.4788, 2331.039
327.9609, 2216.791
328.4431, 2118.592
328.9252, 2035.200
329.4073, 1965.198
329.8894, 1910.358
330.3715, 1862.155
330.8536, 1821.822
331.3358, 1786.488
331.8179, 1752.676
332.3000, 1719.469
332.7821, 1687.803
333.2642, 1658.806
333.7463, 1633.057
334.2285, 1608.759
334.7106, 1584.001
335.1927, 1562.084
335.6748, 1545.268
336.1569, 1533.972
336.6390, 1527.717
337.1212, 1526.474
337.6033, 1530.562
338.0854, 1537.082
338.5675, 1547.494
339.0496, 1558.682
339.5317, 1568.877
340.0139, 1578.559
340.4960, 1589.164
340.9781, 1601.531
341.4602, 1615.489
341.9423, 1630.230
342.4244, 1643.826
342.9066, 1660.283
343.3887, 1680.552
343.8708, 1704.170
344.3529, 1730.432
344.8350, 1758.963
345.3171, 1789.962
345.7993, 1824.073
346.2814, 1867.150
346.7635, 1902.803
347.2456, 1934.631
347.7277, 1956.496
348.2098, 1964.936
348.6920, 1958.594
349.1741, 1934.807
349.6562, 1889.850
350.1383, 1820.229
350.6204, 1742.710
351.1025, 1648.171
351.5847, 1555.469
352.0668, 1471.575
352.5489, 1398.127
353.0310, 1336.161
353.5131, 1287.369
353.9952, 1250.924
354.4774, 1217.779
354.9595, 1191.367
355.4416, 1164.325
355.9237, 1135.740
356.4058, 1105.615
356.8879, 1074.201
357.3701, 1041.656
357.8522, 1007.353
358.3343, 969.2205
358.8164, 923.0400
359.2985, 879.4949
359.7806, 838.6072
360.2627, 800.2372
360.7448, 764.5598
361.2270, 731.3948
361.7091, 700.6807
362.1912, 672.0990
362.6733, 645.5450
363.1554, 621.7455
363.6375, 601.4407
364.1197, 583.0076
364.6018, 565.9116
365.0839, 550.0921
365.5660, 536.0930
366.0481, 524.4271
366.5302, 514.8123
367.0124, 505.0196
367.4945, 493.9695
367.9766, 484.2499
368.4587, 476.8483
368.9408, 470.8228
369.4229, 465.1942
369.9051, 459.5956
370.3872, 453.9855
370.8693, 448.1339
371.3514, 441.6264
371.8335, 436.0177
372.3156, 431.9940
372.7978, 428.4704
373.2799, 424.8838
373.7620, 421.1265
374.2441, 417.1735
374.7262, 412.8979
375.2083, 408.2787
375.6905, 403.9568
376.1726, 399.5741
376.6547, 395.9758
377.1368, 393.9286
377.6189, 392.8640
378.1010, 391.6418
378.5832, 389.5955
379.0653, 386.9823
379.5474, 384.4694
380.0295, 382.0997
380.5116, 379.7159
380.9937, 377.0790
381.4759, 374.4808
381.9580, 372.2803
382.4401, 370.6126
382.9222, 369.0380
383.4043, 366.9200
383.8864, 364.2629
384.3686, 362.1905
384.8507, 361.2224
385.3328, 360.6520
385.8149, 360.1407
386.2970, 359.6031
386.7791, 358.3494
387.2613, 355.5125
387.7434, 351.7518
388.2255, 348.5320
388.7076, 345.9355
389.1897, 343.9599
389.6718, 343.3025
390.1540, 343.2240
390.6361, 342.1133
391.1182, 338.6747
391.6003, 335.1221
392.0824, 333.7952
392.5645, 334.4336
393.0467, 334.7756
393.5288, 333.8795
394.0109, 332.1650
394.4930, 330.3643
394.9751, 328.3877
395.4572, 326.6571
395.9394, 325.5340
396.4215, 324.7152
396.9036, 323.6815
397.3857, 322.2999
397.8678, 320.8610
398.3499, 319.6837
398.8321, 318.7882
399.3142, 317.7505
399.7963, 316.1500
400.2784, 314.7148
400.7605, 314.1721
401.2426, 314.3259
401.7247, 314.2913
402.2068, 313.5271
402.6890, 312.1803
403.1711, 310.9110
403.6532, 309.4507
404.1353, 308.3800
404.6174, 307.9641
405.0995, 307.9282
405.5817, 308.1703
406.0638, 308.6118
406.5459, 308.6886
407.0280, 307.4800
407.5101, 304.2739
407.9922, 302.0844
408.4744, 301.3367
408.9565, 301.0928
409.4386, 301.1608
409.9207, 301.3118
410.4028, 301.0905
410.8849, 300.1049
411.3671, 298.5055
411.8492, 297.4297
412.3313, 297.3965
412.8134, 297.2737
413.2955, 296.9903
413.7776, 296.5058
414.2598, 295.7507
414.7419, 294.7116
415.2240, 293.5079
415.7061, 292.2815
416.1882, 290.9681
416.6703, 289.8371
417.1525, 289.1156
417.6346, 288.4000
418.1167, 287.3876
418.5988, 286.1938
419.0809, 285.2407
419.5630, 284.9219
420.0452, 285.0560
420.5273, 284.9026
421.0094, 284.5400
421.4915, 283.7078
421.9736, 281.7411
422.4557, 279.5370
422.9379, 278.2044
423.4200, 278.1476
423.9021, 278.3720
424.3842, 277.7099
424.8663, 276.2074
425.3484, 275.0174
425.8306, 274.4159
426.3127, 274.1647
426.7948, 274.1118
427.2769, 274.2207
427.7590, 274.2540
428.2411, 274.3374
428.7233, 274.1904
429.2054, 273.0280
429.6875, 270.7146
430.1696, 269.0411
430.6517, 269.5002
431.1339, 271.3211
431.6160, 272.0406
432.0981, 271.1288
432.5802, 269.9450
433.0623, 269.0453
433.5444, 268.3766
434.0266, 267.8027
434.5087, 267.2759
434.9908, 266.9203
435.4729, 267.0188
435.9550, 267.7963
436.4371, 267.9333
436.9193, 266.7753
437.4014, 265.4586
437.8835, 264.7780
438.3656, 264.6794
438.8477, 264.7211
439.3298, 264.6362
439.8120, 264.4267
440.2941, 264.1031
440.7762, 263.4239
441.2583, 262.9300
441.7404, 263.0103
442.2225, 263.1303
442.7046, 262.5913
443.1867, 261.2939
443.6689, 259.9016
444.1510, 259.3274
444.6331, 259.7985
445.1152, 259.9391
445.5973, 259.0656
446.0794, 258.5417
446.5616, 259.4318
447.0437, 260.9574
447.5258, 261.5377
448.0079, 260.1311
448.4900, 257.6653
448.9721, 256.5232
449.4543, 257.2104
449.9364, 257.7728
450.4185, 257.7764
450.9006, 257.4754
451.3827, 256.8980
451.8648, 256.0901
452.3470, 255.3880
452.8291, 255.1631
453.3112, 255.2895
453.7933, 255.2048
454.2754, 254.8144
454.7575, 254.3653
455.2397, 253.9487
455.7218, 253.5935
456.2039, 253.3842
456.6860, 253.4416
457.1681, 253.5034
457.6502, 253.3160
458.1324, 252.9308
458.6145, 252.5677
459.0966, 252.2793
459.5787, 252.0807
460.0608, 252.0743
460.5429, 252.3010
461.0251, 252.2943
461.5072, 252.0347
461.9893, 251.4652
462.4714, 250.2517
462.9535, 248.5485
463.4356, 247.1930
463.9178, 246.7574
464.3999, 247.1151
464.8820, 247.5737
465.3641, 248.6867
465.8462, 249.1905
466.3283, 248.2358
466.8105, 246.9275
467.2926, 246.6469
467.7747, 247.6132
468.2568, 248.7595
468.7389, 248.7708
469.2210, 247.4243
469.7032, 246.4102
470.1853, 246.2401
470.6674, 245.8708
471.1495, 244.4904
471.6316, 242.8140
472.1137, 242.1655
472.5959, 243.2563
473.0780, 245.0484
473.5601, 245.4583
474.0422, 244.0940
474.5243, 243.0351
475.0064, 243.0129
475.4886, 243.1084
475.9707, 242.7389
476.4528, 241.9465
476.9349, 241.1324
477.4170, 240.3679
477.8991, 239.7913
478.3813, 239.8685
478.8634, 240.7367
479.3455, 241.4301
479.8276, 241.3884
480.3097, 240.8796
480.7918, 240.3909
481.2740, 239.9255
481.7561, 239.5314
482.2382, 239.3872
482.7203, 239.2967
483.2024, 238.7429
483.6845, 237.5950
484.1666, 236.5929
484.6487, 236.4928
485.1309, 237.3404
485.6130, 238.0129
486.0951, 238.6268
486.5772, 238.9549
487.0593, 238.7500
487.5414, 238.2183
488.0236, 237.6803
488.5057, 237.2624
488.9878, 237.0030
489.4699, 237.0078
489.9520, 237.5101
490.4341, 237.6900
490.9163, 237.2419
491.3984, 236.8101
491.8805, 236.9130
492.3626, 237.3098
492.8447, 237.3484
493.3268, 236.5697
493.8090, 235.2678
494.2911, 234.2634
494.7732, 233.5531
495.2553, 233.1618
495.7374, 233.2915
496.2195, 233.6161
496.7017, 234.1049
497.1838, 234.6808
497.6659, 234.8657
498.1480, 233.8223
498.6301, 232.1639
499.1122, 231.7885
499.5944, 233.0308
500.0765, 234.2927
500.5586, 234.8245
501.0407, 234.6858
501.5228, 233.9615
502.0049, 232.2107
502.4871, 230.8435
502.9692, 230.9308
503.4513, 231.7771
503.9334, 232.1587
504.4155, 231.8101
504.8976, 231.0375
505.3798, 230.0325
505.8619, 228.7595
506.3440, 228.0417
506.8261, 228.0437
507.3082, 228.3497
507.7903, 229.2020
508.2725, 230.1497
508.7546, 230.4508
509.2367, 229.8455
509.7188, 228.7950
510.2009, 227.9902
510.6830, 227.4122
511.1652, 227.1461
511.6473, 227.7230
512.1294, 228.0870
512.6115, 227.7242
513.0936, 226.8484
513.5757, 225.8753
514.0579, 224.9577
514.5400, 224.2132
515.0221, 223.8979
515.5042, 224.0555
515.9863, 224.3105
516.4684, 224.6786
516.9506, 225.0170
517.4327, 225.3485
517.9148, 225.6155
518.3969, 225.4245
518.8790, 224.1380
519.3611, 222.5694
519.8433, 221.7375
520.3254, 221.6365
520.8075, 221.9574
521.2896, 222.7331
521.7717, 223.6333
522.2538, 223.8159
522.7360, 223.0930
523.2181, 222.3611
523.7002, 221.4429
524.1823, 220.8024
524.6644, 221.2595
525.1465, 222.5603
525.6287, 223.3253
526.1108, 222.4467
526.5929, 220.3339
527.0750, 219.1400
527.5571, 219.6025
528.0392, 219.9952
528.5214, 220.0839
529.0035, 220.0992
529.4856, 220.3097
529.9677, 220.6943
530.4498, 220.9256
530.9319, 220.6170
531.4141, 219.8880
531.8962, 219.5008
532.3783, 219.5966
532.8604, 219.7081
533.3425, 219.7060
533.8246, 219.5806
534.3068, 219.2787
534.7889, 218.7718
535.2710, 218.2374
535.7531, 217.7290
536.2352, 217.2863
536.7173, 217.0330
537.1995, 216.9990
537.6816, 216.9383
538.1637, 216.5473
538.6458, 215.9738
539.1279, 216.0480
539.6100, 217.9179
540.0922, 218.9775
540.5743, 217.6101
541.0564, 215.4449
541.5385, 214.6411
542.0206, 215.5606
542.5027, 216.8980
542.9849, 217.2629
543.4670, 216.6230
543.9491, 216.4352
544.4312, 217.1583
544.9133, 217.8026
545.3954, 218.2229
545.8775, 218.4409
546.3596, 218.4892
546.8417, 218.3778
547.3239, 218.0948
547.8060, 217.4254
548.2881, 216.4455
548.7702, 216.2049
549.2523, 217.1569
549.7344, 217.9792
550.2166, 217.7023
550.6987, 216.8083
551.1808, 215.9711
551.6629, 215.2760
552.1450, 214.7115
552.6271, 214.1533
553.1093, 213.7415
553.5914, 213.9487
554.0735, 214.8879
554.5556, 215.7020
555.0377, 215.5533
555.5198, 214.4569
556.0020, 213.6055
556.4841, 213.0399
556.9662, 212.6273
557.4483, 212.2432
557.9304, 212.0302
558.4125, 212.3304
558.8947, 213.1452
559.3768, 213.8884
559.8589, 213.8091
560.3410, 212.8791
560.8231, 212.4299
561.3052, 212.8535
561.7874, 213.2012
562.2695, 213.2104
562.7516, 212.9723
563.2337, 212.4835
563.7158, 211.7194
564.1979, 211.1356
564.6801, 211.2955
565.1622, 211.9609
565.6443, 212.3511
566.1264, 212.3754
566.6085, 212.1828
567.0906, 211.8203
567.5728, 211.3186
568.0549, 210.8065
568.5370, 210.1159
569.0191, 209.6765
569.5012, 209.6610
569.9833, 209.9629
570.4655, 210.7512
570.9476, 211.8933
571.4297, 212.4640
571.9118, 211.4676
572.3939, 209.1007
572.8760, 207.9727
573.3582, 209.3835
573.8403, 210.2838
574.3224, 209.8083
574.8045, 208.9658
575.2866, 208.6320
575.7687, 208.9253
576.2509, 209.4388
576.7330, 209.9816
577.2151, 210.4656
577.6972, 210.5049
578.1793, 210.0268
578.6614, 209.4101
579.1436, 208.6900
579.6257, 208.0145
580.1078, 207.6077
580.5899, 207.5105
581.0720, 207.4606
581.5541, 207.4025
582.0363, 207.3158
582.5184, 207.0177
583.0005, 206.6000
583.4826, 206.6993
583.9647, 207.8349
584.4468, 209.4158
584.9290, 209.6831
585.4111, 207.2506
585.8932, 205.6501
586.3753, 205.0297
586.8574, 205.0451
587.3395, 205.8337
587.8217, 207.0764
588.3038, 208.0657
588.7859, 208.3581
589.2680, 208.2128
589.7501, 208.1822
590.2322, 208.2978
590.7144, 208.2681
591.1965, 207.7924
591.6786, 207.4387
592.1607, 207.8945
592.6428, 208.9443
593.1249, 209.5813
593.6071, 209.4164
594.0892, 208.7954
594.5713, 207.7891
595.0534, 206.5520
595.5355, 205.3829
596.0176, 204.3502
596.4998, 203.8473
596.9819, 204.5279
597.4640, 206.7360
597.9461, 207.9978
598.4282, 207.8691
598.9103, 207.4554
599.3925, 206.9425
599.8746, 206.4243
600.3567, 205.8900
600.8388, 205.3646
601.3209, 205.1204
601.8030, 205.7642
602.2852, 207.2276
602.7673, 207.6260
603.2494, 206.3328
603.7315, 205.2919
604.2136, 205.9737
604.6957, 207.3197
605.1779, 207.8771
605.6600, 207.3162
606.1421, 206.7105
606.6242, 206.7616
607.1063, 207.0135
607.5884, 206.7343
608.0706, 205.9129
608.5527, 205.1014
609.0348, 204.6418
609.5169, 204.4982
609.9990, 204.5523
610.4811, 205.1690
610.9633, 205.4447
611.4454, 205.2214
611.9275, 204.8025
612.4096, 204.1605
612.8917, 203.4909
613.3738, 203.2702
613.8560, 203.8680
614.3381, 204.8232
614.8202, 205.2444
615.3023, 205.0984
615.7844, 204.7925
616.2665, 204.1241
616.7487, 203.7136
617.2308, 204.4635
617.7129, 206.0155
618.1950, 206.9397
618.6771, 206.3614
619.1592, 205.6740
619.6414, 205.6928
620.1235, 206.2004
620.6056, 206.9266
621.0877, 207.7699
621.5698, 208.3568
622.0519, 208.2168
622.5341, 207.3423
623.0162, 206.9617
623.4983, 207.3955
623.9804, 207.9483
624.4625, 208.7861
624.9446, 209.5146
625.4268, 209.7572
625.9089, 209.4718
626.3910, 208.8828
626.8730, 207.7678
627.3552, 206.5759
627.8373, 206.7082
628.3194, 208.2796
628.8015, 209.6387
629.2836, 210.0904
629.7657, 210.0640
630.2479, 210.1262
630.7300, 210.2312
631.2121, 210.7054
631.6942, 212.1078
632.1763, 213.4159
632.6584, 213.8483
633.1406, 213.6952
633.6227, 213.6263
634.1048, 213.9094
634.5869, 214.3383
635.0690, 214.4119
635.5511, 213.8736
636.0333, 214.9621
636.5154, 219.7570
636.9975, 223.2623
637.4796, 223.1599
637.9617, 221.0871
638.4438, 218.8099
638.9260, 216.6255
639.4081, 215.1321
639.8902, 215.1931
640.3723, 216.0750
640.8544, 216.4550
641.3365, 216.2400
641.8187, 215.9074
642.3008, 215.6871
642.7829, 215.5858
643.2650, 215.6174
643.7471, 215.7730
644.2292, 216.1062
644.7114, 217.0349
645.1935, 217.7473
645.6756, 217.6671
646.1577, 217.0260
646.6398, 216.2657
647.1219, 215.5665
647.6041, 215.1606
648.0862, 215.5538
648.5683, 216.7277
649.0504, 217.6265
649.5325, 218.0751
650.0146, 218.3965
650.4968, 218.7301
650.9789, 219.0961
651.4610, 219.5436
651.9431, 220.1253
652.4252, 220.6750
652.9073, 221.1809
653.3895, 221.5881
653.8716, 221.6445
654.3537, 221.4751
654.8358, 221.7395
655.3179, 222.9189
655.8000, 224.5800
656.2822, 225.4722
656.7643, 225.2610
657.2464, 225.1319
657.7285, 224.9621
658.2106, 225.0959
658.6927, 225.9380
659.1749, 227.1824
659.6570, 228.1812
660.1391, 228.7236
660.6212, 228.9397
661.1033, 228.6690
661.5854, 228.1864
662.0676, 228.3459
662.5497, 229.2974
663.0318, 230.2361
663.5139, 230.5577
663.9960, 230.3826
664.4781, 230.3032
664.9603, 230.0235
665.4424, 230.2654
665.9245, 231.4647
666.4066, 232.8507
666.8887, 234.0395
667.3708, 234.9392
667.8530, 235.4349
668.3351, 235.3816
668.8172, 235.2055
669.2993, 235.8655
669.7814, 237.2956
670.2635, 237.6119
670.7457, 235.9947
671.2278, 234.5992
671.7099, 235.4661
672.1920, 237.9794
672.6741, 239.4026
673.1563, 238.9321
673.6384, 238.5632
674.1205, 238.9615
674.6026, 239.6738
675.0847, 240.1826
675.5668, 240.5332
676.0490, 241.2642
676.5311, 242.8130
677.0132, 244.6382
677.4953, 245.2250
677.9774, 244.2382
678.4595, 243.6291
678.9417, 243.8578
679.4238, 244.2256
679.9059, 244.2164
680.3880, 244.0170
680.8701, 244.0931
681.3522, 244.7697
681.8344, 245.2566
682.3165, 244.8549
682.7986, 244.0924
683.2807, 243.6659
683.7628, 243.6830
684.2449, 244.1011
684.7271, 244.9497
685.2092, 246.0285
685.6913, 246.6808
686.1734, 246.6664
686.6555, 246.7760
687.1376, 246.9956
687.6198, 247.4038
688.1019, 248.3160
688.5840, 249.3970
689.0661, 249.9188
689.5482, 249.4795
690.0303, 248.9943
690.5125, 249.2995
690.9946, 250.1171
691.4767, 250.8647
691.9588, 251.4749
692.4409, 252.0720
692.9230, 252.7329
693.4052, 253.4524
693.8873, 254.2445
694.3694, 255.4389
694.8515, 256.0853
695.3336, 255.6872
695.8157, 255.2847
696.2979, 255.2592
696.7800, 255.6460
697.2621, 256.5175
697.7442, 257.9418
698.2263, 259.4190
698.7084, 260.4057
699.1906, 261.0290
699.6727, 261.7305
700.1548, 262.5505
700.6369, 263.2849
701.1190, 263.7239
701.6011, 264.1100
702.0833, 265.0280
702.5654, 266.7015
703.0475, 268.3955
703.5296, 270.3697
704.0117, 272.0883
704.4938, 273.0201
704.9760, 273.5802
705.4581, 274.4243
705.9402, 275.7745
706.4223, 277.5181
706.9044, 279.8898
707.3865, 282.5913
707.8687, 283.9066
708.3508, 283.4860
708.8329, 284.0506
709.3149, 287.2864
709.7971, 291.6758
710.2792, 294.4275
710.7613, 295.0382
711.2434, 296.8547
711.7255, 300.7367
712.2076, 305.2134
712.6898, 309.8092
713.1719, 314.4164
713.6540, 318.9521
714.1361, 323.4146
714.6182, 327.7384
715.1003, 331.4841
715.5825, 335.0954
716.0646, 340.9236
716.5467, 349.2843
717.0288, 357.2301
717.5109, 362.9741
717.9930, 368.8241
718.4752, 377.9461
718.9573, 390.2108
719.4394, 402.5878
719.9215, 413.3800
720.4036, 425.8722
720.8857, 442.1637
721.3679, 460.4819
721.8500, 478.1190
722.3321, 495.0853
722.8142, 514.1564
723.2963, 537.2176
723.7784, 564.4825
724.2606, 596.8623
724.7427, 634.9124
725.2248, 674.2049
725.7069, 712.5588
726.1890, 753.8395
726.6711, 802.1434
727.1533, 856.6375
727.6354, 910.9837
728.1175, 964.2117
728.5996, 1018.520
729.0817, 1075.654
729.5638, 1133.497
730.0460, 1189.882
730.5281, 1244.422
731.0102, 1296.766
731.4923, 1346.463
731.9744, 1395.233
732.4565, 1446.291
732.9387, 1499.555
733.4208, 1554.751
733.9029, 1611.539
734.3850, 1671.066
734.8671, 1734.095
735.3492, 1800.465
735.8314, 1869.630
736.3135, 1941.653
736.7956, 2015.142
737.2777, 2089.560
737.7598, 2165.935
738.2419, 2247.916
738.7241, 2332.323
739.2062, 2414.266
739.6883, 2492.327
740.1704, 2563.287
740.6525, 2626.761
741.1346, 2681.171
741.6168, 2715.013
742.0989, 2728.830
742.5810, 2718.644
743.0631, 2682.927
743.5452, 2622.231
744.0273, 2533.172
744.5095, 2415.127
744.9916, 2287.836
745.4737, 2144.951
745.9558, 2002.137
746.4379, 1860.159
746.9200, 1725.165
747.4022, 1603.460
747.8843, 1496.810
748.3664, 1402.989
748.8485, 1321.201
749.3306, 1251.045
749.8127, 1192.709
750.2949, 1146.131
750.7770, 1108.225
751.2591, 1078.858
751.7412, 1056.640
752.2233, 1041.403
752.7054, 1032.541
753.1876, 1024.673
753.6697, 1015.754
754.1518, 1010.607
754.6339, 1011.450
755.1160, 1014.892
755.5981, 1018.412
756.0803, 1022.361
756.5624, 1028.249
757.0445, 1036.775
757.5266, 1047.529
758.0087, 1059.822
758.4908, 1073.903
758.9730, 1091.036
759.4551, 1111.485
759.9372, 1132.142
760.4193, 1151.016
760.9014, 1169.912
761.3835, 1192.689
761.8657, 1221.446
762.3478, 1247.219
762.8299, 1270.330
763.3120, 1290.222
763.7941, 1307.771
764.2762, 1321.382
764.7584, 1330.771
765.2405, 1335.141
765.7226, 1330.245
766.2047, 1312.604
766.6868, 1284.425
767.1689, 1247.851
767.6511, 1203.219
768.1332, 1151.802
768.6153, 1093.567
769.0974, 1033.464
769.5795, 976.1135
770.0616, 921.2054
770.5438, 869.7380
771.0259, 820.9057
771.5080, 776.7054
771.9901, 737.3475
772.4722, 702.3576
772.9543, 672.5369
773.4365, 647.1192
773.9186, 624.5567
774.4007, 604.6737
774.8828, 586.7808
775.3649, 570.4650
775.8470, 555.9612
776.3292, 543.9003
776.8113, 534.0500
777.2934, 525.3729
777.7755, 517.3386
778.2576, 510.1290
778.7397, 504.1278
779.2219, 499.3857
779.7040, 495.0321
780.1861, 490.9374
780.6682, 487.5034
781.1503, 485.3196
781.6324, 483.5741
782.1146, 481.3091
782.5967, 478.5312
783.0788, 476.2715
783.5609, 474.7952
784.0430, 473.8774
784.5251, 473.1281
785.0073, 473.0019
785.4894, 475.2141
785.9715, 479.1220
786.4536, 480.6970
786.9357, 476.5855
787.4178, 469.8496
787.9000, 467.6043
788.3821, 469.8174
788.8642, 470.5948
789.3463, 468.7458
789.8284, 466.8333
790.3105, 466.6161
790.7927, 467.4890
791.2747, 467.7513
791.7568, 467.0272
792.2390, 466.6590
792.7211, 467.1457
793.2032, 467.5474
793.6853, 467.1266
794.1674, 466.4423
794.6495, 466.4265
795.1317, 467.2529
795.6138, 468.1006
796.0959, 468.1046
796.5780, 467.8389
797.0601, 468.2634
797.5422, 469.3143
798.0244, 470.6738
798.5065, 472.2650
798.9886, 474.0265
799.4707, 475.9324
799.9528, 477.9489
800.4349, 479.7336
800.9171, 481.0190
801.3992, 482.6107
801.8813, 485.0198
802.3634, 487.3297
802.8455, 488.6618
803.3276, 489.6222
803.8098, 491.6294
804.2919, 495.3557
804.7740, 498.6501
805.2561, 499.4814
805.7382, 500.0569
806.2203, 502.7516
806.7025, 507.1334
807.1846, 511.9571
807.6667, 516.6840
808.1488, 521.0070
808.6309, 524.2727
809.1130, 526.7947
809.5952, 530.7061
810.0773, 536.2982
810.5594, 541.3972
811.0415, 544.4382
811.5236, 548.5383
812.0057, 558.0681
812.4879, 572.1479
812.9700, 581.4706
813.4521, 582.6517
813.9342, 583.8879
814.4163, 585.1747
814.8984, 588.0439
815.3806, 594.5541
815.8627, 603.3693
816.3448, 611.3717
816.8269, 617.2982
817.3090, 623.2328
817.7911, 631.0667
818.2733, 640.2098
818.7554, 649.8581
819.2375, 659.8080
819.7196, 669.0469
820.2017, 677.1379
820.6838, 684.9991
821.1660, 693.7538
821.6481, 703.4008
822.1302, 713.4059
822.6123, 724.4315
823.0944, 734.5237
823.5765, 741.9538
824.0587, 749.5619
824.5408, 759.4141
825.0229, 771.0471
825.5050, 782.9586
825.9871, 795.0496
826.4692, 806.9812
826.9514, 818.9890
827.4335, 830.5613
827.9156, 840.2001
828.3977, 849.1166
828.8798, 860.5383
829.3619, 875.6617
829.8441, 891.3736
830.3262, 903.7906
830.8083, 913.9141
831.2904, 925.5054
831.7725, 938.4915
832.2546, 951.4667
832.7368, 963.8745
833.2189, 976.4311
833.7010, 989.8624
834.1831, 1004.111
834.6652, 1019.566
835.1473, 1036.845
835.6295, 1054.182
836.1116, 1071.046
836.5937, 1088.174
837.0758, 1105.948
837.5579, 1124.418
838.0400, 1143.400
838.5222, 1162.471
839.0043, 1184.114
839.4864, 1210.597
839.9685, 1239.605
840.4506, 1269.418
840.9327, 1299.807
841.4149, 1329.703
841.8970, 1359.167
842.3791, 1391.801
842.8612, 1430.754
843.3433, 1475.409
843.8254, 1523.727
844.3076, 1575.443
844.7897, 1630.829
845.2718, 1689.215
845.7539, 1752.186
846.2360, 1819.281
846.7181, 1892.208
847.2003, 1976.577
847.6824, 2072.668
848.1645, 2179.747
848.6466, 2295.513
849.1287, 2424.716
849.6108, 2565.482
850.0930, 2723.478
850.5751, 2904.571
851.0572, 3110.042
851.5393, 3341.302
852.0214, 3596.539
852.5035, 3881.790
852.9857, 4204.458
853.4678, 4561.830
853.9499, 4955.185
854.4320, 5378.655
854.9141, 5821.503
855.3962, 6273.688
855.8784, 6731.572
856.3605, 7187.211
856.8426, 7640.979
857.3247, 8074.498
857.8068, 8482.729
858.2889, 8880.636
858.7711, 9269.027
859.2532, 9656.019
859.7353, 10054.28
860.2174, 10461.34
860.6995, 10892.53
861.1816, 11351.89
861.6638, 11828.82
862.1459, 12322.36
862.6280, 12834.34
863.1101, 13368.58
863.5922, 13924.20
864.0743, 14494.52
864.5565, 15088.58
865.0386, 15680.60
865.5207, 16276.14
866.0028, 16844.11
866.4849, 17386.06
866.9670, 17863.97
867.4492, 18196.60
867.9313, 18349.47
868.4134, 18289.76
868.8955, 17980.75
869.3776, 17429.38
869.8597, 16623.65
870.3419, 15563.56
870.8240, 14393.53
871.3061, 13121.46
871.7882, 11838.74
872.2703, 10616.06
872.7524, 9458.823
873.2346, 8395.969
873.7166, 7419.385
874.1987, 6554.071
874.6808, 5825.895
875.1630, 5190.961
875.6451, 4650.514
876.1272, 4188.650
876.6093, 3784.588
877.0914, 3438.369
877.5735, 3134.421
878.0557, 2878.473
878.5378, 2653.400
879.0199, 2454.792
879.5020, 2278.323
879.9841, 2120.357
880.4662, 1979.299
880.9484, 1852.781
881.4305, 1739.899
881.9126, 1638.353
882.3947, 1546.526
882.8768, 1463.025
883.3589, 1384.417
883.8411, 1310.506
884.3232, 1241.812
884.8053, 1178.788
885.2874, 1121.040
885.7695, 1068.658
886.2516, 1021.346
886.7338, 976.8102
887.2159, 934.6871
887.6980, 896.3563
888.1801, 862.7646
888.6622, 831.8442
889.1443, 801.8791
889.6265, 773.4181
890.1086, 747.6622
890.5907, 725.1796
891.0728, 703.6667
891.5549, 682.5559
892.0370, 662.4811
892.5192, 643.5394
893.0013, 625.9786
893.4834, 610.6544
893.9655, 597.2104
894.4476, 583.8878
894.9297, 569.4168
895.4119, 555.2678
895.8940, 542.9267
896.3761, 531.8433
896.8582, 521.3980
897.3403, 511.4685
897.8224, 501.7990
898.3046, 492.3214
898.7867, 483.1856
899.2688, 474.4181
899.7509, 466.1833
900.2330, 459.6646
900.7151, 455.0061
901.1973, 449.6383
901.6794, 442.6722
902.1615, 435.5264
902.6436, 429.3214
903.1257, 423.9919
903.6078, 419.3322
904.0900, 415.9428
904.5721, 411.9229
905.0542, 407.5280
905.5363, 402.1304
906.0184, 394.6849
906.5005, 386.6333
906.9827, 379.6788
907.4648, 373.9531
907.9469, 368.7093
908.4290, 363.9456
908.9111, 359.4438
909.3932, 355.1277
909.8754, 351.0724
910.3575, 347.5988
910.8396, 344.4210
911.3217, 340.5538
911.8038, 335.5190
912.2859, 330.9408
912.7681, 328.8059
913.2502, 327.6850
913.7323, 325.4364
914.2144, 322.2057
914.6965, 318.5154
915.1786, 314.5880
915.6608, 311.0186
916.1429, 308.3545
916.6250, 306.2310
917.1071, 303.5147
917.5892, 300.2010
918.0714, 297.7611
918.5535, 296.5708
919.0356, 294.6374
919.5177, 290.6027
919.9998, 286.0581
920.4819, 283.5409
920.9641, 283.2173
921.4462, 282.2560
921.9283, 280.6587
922.4104, 278.4098
922.8925, 274.3312
923.3746, 270.7176
923.8568, 269.7047
924.3389, 270.1370
924.8210, 269.1216
925.3031, 265.8445
925.7852, 262.9250
926.2673, 261.0421
926.7495, 259.6536
927.2316, 258.7076
927.7137, 257.9406
928.1958, 257.0116
928.6779, 255.9346
929.1600, 255.0670
929.6422, 254.7391
930.1243, 254.3685
930.6064, 253.3583
931.0885, 252.0136
931.5706, 250.6218
932.0527, 249.3266
932.5349, 248.6310
933.0170, 248.6612
933.4991, 248.4358
933.9812, 246.5869
934.4633, 243.9377
934.9454, 243.1362
935.4276, 243.9760
935.9097, 244.3229
936.3918, 243.7781
936.8739, 242.9456
937.3560, 242.1569
937.8381, 241.4817
938.3203, 241.1515
938.8024, 241.2800
939.2845, 240.6685
939.7666, 238.8054
940.2487, 237.5774
940.7308, 237.9488
941.2130, 238.5578
941.6951, 238.1033
942.1772, 236.7862
942.6593, 235.7298
943.1414, 235.2227
943.6235, 234.4474
944.1057, 232.9286
944.5878, 231.6434
945.0699, 231.1842
945.5520, 231.0993
946.0341, 230.9023
946.5162, 230.5258
946.9984, 229.9888
947.4805, 229.4827
947.9626, 228.5755
948.4447, 226.7226
948.9268, 224.6544
949.4089, 223.1743
949.8911, 222.0603
950.3732, 220.4822
950.8553, 218.2042
951.3374, 216.3129
951.8195, 216.2949
952.3016, 216.6650
952.7838, 215.1817
953.2659, 212.6223
953.7480, 210.6958
954.2301, 209.6570
954.7122, 209.0524
955.1943, 208.6388
955.6764, 208.2337
956.1585, 207.6092
956.6406, 206.7514
957.1227, 205.5889
957.6049, 204.1143
958.0870, 202.1921
958.5691, 199.6930
959.0512, 197.6739
959.5333, 197.1641
960.0154, 197.6899
960.4976, 197.7159
960.9797, 197.2261
961.4618, 196.2768
961.9439, 194.7323
962.4260, 193.0803
962.9081, 191.3363
963.3903, 189.8404
963.8724, 189.0647
964.3545, 188.9779
964.8366, 188.8654
965.3187, 188.8639
965.8008, 188.6142
966.2830, 187.8603
966.7651, 187.1235
967.2472, 186.7023
967.7293, 186.4202
968.2114, 186.0801
968.6935, 185.6709
969.1757, 184.9485
969.6578, 183.2844
970.1399, 182.0496
970.6220, 182.2804
971.1041, 182.6774
971.5862, 181.7433
972.0684, 180.1617
972.5505, 179.7230
973.0326, 180.9884
973.5147, 182.3879
973.9968, 183.3155
974.4789, 183.7092
974.9611, 183.2015
975.4432, 182.2881
975.9253, 181.5488
976.4074, 181.1373
976.8895, 181.2382
977.3716, 182.0116
977.8538, 182.6647
978.3359, 182.1713
978.8180, 181.0885
979.3001, 180.1028
979.7822, 179.4192
980.2643, 179.9475
980.7465, 181.6909
981.2286, 182.8396
981.7107, 181.9800
982.1928, 180.2124
982.6749, 179.7008
983.1570, 180.1865
983.6392, 180.0766
984.1213, 179.3161
984.6034, 178.7752
985.0855, 178.7819
985.5676, 178.7177
986.0497, 177.8786
986.5319, 176.6209
987.0140, 176.3912
987.4961, 177.3538
987.9782, 178.1570
988.4603, 178.8838
988.9424, 178.6302
989.4246, 176.5659
989.9067, 174.2381
990.3888, 173.6765
990.8709, 174.7486
991.3530, 175.3306
991.8351, 175.3179
992.3173, 175.0175
992.7994, 174.0249
993.2815, 173.3945
993.7636, 174.0503
994.2457, 175.1284
994.7278, 175.2748
995.2100, 174.4305
995.6921, 173.6012
996.1742, 172.4167
996.6563, 171.7937
997.1384, 172.2449
997.6205, 172.9150
998.1027, 173.4722
998.5848, 173.8264
999.0669, 173.7608
999.5490, 173.2103
1000.031, 172.9233
1000.513, 173.4386
1000.995, 173.7952
1001.477, 173.6008
1001.960, 173.1038
1002.442, 172.2987
1002.924, 171.4289
1003.406, 170.9910
1003.888, 171.1359
1004.370, 171.3407
1004.852, 171.4271
1005.334, 171.3887
1005.817, 171.1860
1006.299, 170.8782
1006.781, 170.4445
1007.263, 169.9782
1007.745, 169.7248
1008.227, 169.7870
1008.709, 169.9310
1009.191, 170.0172
1009.673, 170.0458
1010.156, 170.0458
1010.638, 169.9760
1011.120, 169.5703
1011.602, 168.9753
1012.084, 168.9846
1012.566, 170.0582
1013.048, 171.1803
1013.530, 171.1204
1014.013, 170.3589
1014.495, 169.5567
1014.977, 168.8806
1015.459, 168.9562
1015.941, 169.7680
1016.423, 170.3149
1016.905, 169.9388
1017.387, 169.2232
1017.869, 169.0226
1018.352, 169.2310
1018.834, 169.5138
1019.316, 169.8502
1019.798, 170.2916
1020.280, 170.8278
1020.762, 170.7928
1021.244, 169.6060
1021.726, 168.0019
1022.208, 167.5822
1022.691, 168.2243
1023.173, 168.2645
1023.655, 167.6564
1024.137, 167.4038
1024.619, 167.8262
1025.101, 168.2524
1025.583, 168.1056
1026.065, 167.6742
1026.547, 167.7635
1027.030, 168.4317
1027.512, 168.8971
1027.994, 169.1896
1028.476, 168.9774
1028.958, 167.9660
1029.440, 167.1248
1029.922, 167.4461
1030.404, 166.6840
1030.887, 166.2563
1031.369, 166.4388
1031.851, 165.6260
1032.333, 166.0674
1032.815, 166.7800
1033.297, 167.7390
1033.779, 168.3279
1034.261, 167.7253
1034.744, 166.4332
1035.226, 166.4147
1035.708, 168.5115
1036.190, 169.3069
1036.672, 168.0578
1037.154, 166.8765
1037.636, 166.1780
1038.118, 166.0736
1038.600, 167.1575
1039.083, 168.8927
1039.565, 168.9834
1040.047, 166.2434
1040.529, 164.7617
1041.011, 165.3527
1041.493, 166.0681
1041.975, 166.7431
1042.457, 166.9985
1042.939, 166.1201
1043.422, 164.5244
1043.904, 163.7788
1044.386, 164.1086
1044.868, 164.7890
1045.350, 166.7785
1045.832, 167.8425
1046.314, 166.4740
1046.796, 164.5947
1047.279, 163.9300
1047.761, 164.1794
1048.243, 164.0862
1048.725, 163.3318
1049.207, 162.8477
1049.689, 163.2035
1050.171, 163.2784
1050.653, 162.0865
1051.135, 160.9394
1051.618, 161.0425
1052.100, 162.1695
1052.582, 163.6173
1053.064, 165.7022
1053.546, 166.5397
1054.028, 164.5334
1054.510, 162.7102
1054.992, 162.5982
1055.474, 162.9627
1055.957, 162.6691
1056.439, 161.8740
1056.921, 161.1814
1057.403, 160.6309
1057.885, 160.5557
1058.367, 161.6574
1058.849, 162.4924
1059.331, 162.2202
1059.814, 161.5593
1060.296, 161.0522
1060.778, 160.7462
1061.260, 160.6641
1061.742, 160.8735
1062.224, 160.7912
1062.706, 159.7466
1063.188, 158.9563
1063.671, 159.0962
1064.153, 159.6547
1064.635, 158.0082
1065.117, 156.9590
1065.599, 165.0951
1066.081, 185.1077
1066.563, 196.9832
1067.045, 187.1631
1067.527, 174.6840
1068.010, 166.9362
1068.492, 162.2305
1068.974, 159.6299
1069.456, 158.5335
1069.938, 158.3798
1070.420, 159.0236
1070.902, 159.6014
1071.384, 159.8329
1071.866, 159.8107
1072.349, 159.4191
1072.831, 158.9423
1073.313, 158.4623
1073.795, 158.1419
1074.277, 158.4121
1074.759, 159.2645
1075.241, 159.6339
1075.723, 158.6627
1076.206, 157.6863
1076.688, 157.4263
1077.170, 157.3468
1077.652, 156.6895
1078.134, 156.0599
1078.616, 156.7383
1079.098, 158.6970
1079.580, 160.2166
1080.062, 160.5937
1080.545, 160.4762
1081.027, 159.7563
1081.509, 159.0928
1081.991, 159.2635
1082.473, 159.6469
1082.955, 159.0465
1083.437, 157.6294
1083.919, 157.0543
1084.401, 158.1653
1084.884, 159.4857
1085.366, 160.6867
1085.848, 161.4833
1086.330, 161.7429
1086.812, 161.4450
1087.294, 160.0928
1087.776, 158.1469
1088.258, 157.2522
1088.740, 158.0951
1089.223, 159.2233
1089.705, 160.6180
1090.187, 161.4433
1090.669, 160.7718
1091.151, 159.6147
1091.633, 158.8738
1092.115, 158.6169
1092.597, 158.7921
1093.080, 159.4654
1093.562, 159.9233
1094.044, 159.7909
1094.526, 159.5205
1095.008, 158.8868
1095.490, 158.6011
1095.972, 159.7603
1096.454, 161.5916
1096.937, 162.4205
1097.419, 161.9152
1097.901, 161.3898
1098.383, 161.2039
1098.865, 161.1357
1099.347, 161.1137
1099.829, 161.1730
1100.311, 161.6146
1100.793, 162.0169
1101.276, 161.5246
1101.758, 160.1363
1102.240, 159.2637
1102.722, 159.4265
1103.204, 159.8777
1103.686, 160.9307
1104.168, 161.6762
1104.650, 161.1848
1105.132, 160.3784
1105.615, 160.5854
1106.097, 161.6383
1106.579, 162.0304
1107.061, 161.0858
1107.543, 160.4346
1108.025, 160.5454
1108.507, 160.7207
1108.989, 160.7918
1109.472, 160.7213
1109.954, 160.3047
1110.436, 159.7334
1110.918, 159.6548
1111.400, 160.2999
1111.882, 160.8078
1112.364, 161.5012
1112.846, 161.5238
1113.328, 160.0647
1113.811, 158.4744
1114.293, 157.5022
1114.775, 157.1166
1115.257, 157.3839
1115.739, 158.4547
1116.221, 159.0230
1116.703, 159.1217
1117.185, 158.6161
1117.667, 156.6752
1118.150, 155.2809
1118.632, 155.9019
1119.114, 157.1920
1119.596, 157.2865
1120.078, 156.2678
1120.560, 155.4930
1121.042, 155.2600
1121.524, 154.4572
1122.007, 152.4272
1122.489, 151.1459
1122.971, 151.5745
1123.453, 152.6452
1123.935, 153.4146
1124.417, 153.8999
1124.899, 154.1775
1125.381, 154.2857
1125.864, 153.9355
1126.346, 152.9301
1126.828, 152.2132
1127.310, 152.0452
1127.792, 152.1890
1128.274, 152.5754
1128.756, 152.9368
1129.238, 152.6198
1129.720, 151.6616
1130.203, 151.7961
1130.685, 151.2129
1131.167, 153.1508
1131.649, 150.9271
1132.131, 149.3754
1132.613, 149.9961
1133.095, 151.4624
1133.577, 152.2006
1134.059, 152.2514
1134.542, 151.5273
1135.024, 150.1296
1135.506, 149.4365
1135.988, 149.5275
1136.470, 149.6101
1136.952, 149.4221
1137.434, 149.6336
1137.916, 150.9346
1138.399, 152.4524
1138.881, 152.2940
1139.363, 151.0230
1139.845, 150.3911
1140.327, 150.4413
1140.809, 151.4515
1141.291, 153.1970
1141.773, 153.8677
1142.255, 152.4424
1142.738, 150.5603
1143.220, 150.2954
1143.702, 149.2364
1144.184, 150.0034
1144.666, 148.8646
1145.148, 149.0760
1145.630, 150.3328
1146.112, 150.9151
1146.594, 150.3177
1147.077, 149.6692
1147.559, 149.6838
1148.041, 150.1739
1148.523, 151.6012
1149.005, 152.8712
1149.487, 152.1426
1149.969, 150.4995
1150.451, 150.0793
1150.934, 151.0335
1151.416, 152.1289
1151.898, 152.9880
1152.380, 153.3220
1152.862, 152.4822
1153.344, 151.6206
1153.826, 151.4558
1154.308, 151.7238
1154.791, 152.4926
1155.273, 153.3264
1155.755, 153.0866
1156.237, 151.4710
1156.719, 150.6332
1157.201, 151.8275
1157.683, 152.9828
1158.165, 153.5494
1158.647, 153.8297
1159.130, 153.7467
1159.612, 153.6652
1160.094, 154.2410
1160.576, 155.3767
1161.058, 155.9109
1161.540, 155.4863
1162.022, 155.0067
1162.504, 154.3719
1162.986, 153.8408
1163.469, 153.3801
1163.951, 153.1831
1164.433, 153.4254
1164.915, 154.0281
1165.397, 154.9207
1165.879, 156.2076
1166.361, 156.5076
1166.843, 155.3952
1167.325, 154.9814
1167.808, 155.8873
1168.290, 156.2639
1168.772, 155.0164
1169.254, 153.4956
1169.736, 153.3501
1170.218, 154.2212
1170.700, 154.7048
1171.182, 154.8120
1171.665, 155.1109
1172.147, 155.6157
1172.629, 155.6801
1173.111, 155.1321
1173.593, 154.4953
1174.075, 154.1246
1174.557, 153.9018
1175.039, 153.6222
1175.521, 153.3532
1176.004, 153.2291
1176.486, 153.2879
1176.968, 153.8170
1177.450, 154.6797
1177.932, 155.1462
1178.414, 154.9782
1178.896, 154.7059
1179.378, 154.7129
1179.860, 154.8742
1180.343, 155.2870
1180.825, 155.5818
1181.307, 154.9457
1181.789, 154.0005
1182.271, 154.0861
1182.753, 155.0933
1183.235, 155.6826
1183.717, 155.3016
1184.200, 154.7796
1184.682, 154.4430
1185.164, 154.2251
1185.646, 154.2110
1186.128, 154.1869
1186.610, 153.7744
1187.092, 153.2997
1187.574, 153.5231
1188.057, 154.4823
1188.539, 154.9590
1189.021, 154.3807
1189.503, 153.9103
1189.985, 153.6772
1190.467, 153.5649
1190.949, 153.7153
1191.431, 153.7576
1191.913, 153.1441
1192.396, 153.4655
1192.878, 152.3961
1193.360, 153.6473
1193.842, 154.3896
1194.324, 154.5917
1194.806, 154.3159
1195.288, 153.4325
1195.770, 152.6595
1196.252, 152.3562
1196.735, 152.3013
1197.217, 152.2607
1197.699, 152.2253
1198.181, 152.1567
1198.663, 152.0617
1199.145, 152.0240
1199.627, 152.0275
1200.109, 151.8141
1200.592, 151.3717
1201.074, 151.2398
1201.556, 151.7469
1202.038, 152.3624
1202.520, 152.3937
1203.002, 152.7525
1203.484, 152.4517
1203.966, 152.8589
1204.448, 152.7998
1204.931, 152.4370
1205.413, 152.3828
1205.895, 152.7221
1206.377, 152.8972
1206.859, 152.5215
1207.341, 152.2292
1207.823, 152.6169
1208.305, 152.9958
1208.787, 152.7199
1209.270, 152.3188
1209.752, 152.4419
1210.234, 152.8993
1210.716, 153.1777
1211.198, 153.2091
1211.680, 152.9611
1212.162, 152.1203
1212.644, 151.4766
1213.127, 150.8887
1213.609, 150.8760
1214.091, 152.1362
1214.573, 153.4701
1215.055, 153.7764
1215.537, 153.2061
1216.019, 152.0782
1216.501, 150.2187
1216.984, 149.5015
1217.466, 150.1240
1217.948, 150.5991
1218.430, 150.6761
1218.912, 150.5106
1219.394, 150.1327
1219.876, 150.0415
1220.358, 150.9244
1220.840, 150.7455
1221.323, 151.0775
1221.805, 151.3535
1222.287, 151.2785
1222.769, 151.7162
1223.251, 151.4362
1223.733, 150.4001
1224.215, 149.7624
1224.697, 150.0681
1225.179, 150.5430
1225.662, 150.4213
1226.144, 150.3005
1226.626, 150.8763
1227.108, 151.6003
1227.590, 151.7503
1228.072, 151.6924
1228.554, 152.4014
1229.036, 153.6737
1229.519, 153.8306
1230.001, 152.0023
1230.483, 150.5052
1230.965, 149.9274
1231.447, 149.6729
1231.929, 149.6440
1232.411, 149.7963
1232.893, 150.2284
1233.375, 150.7354
1233.858, 151.2055
1234.340, 151.5199
1234.822, 150.3411
1235.304, 146.9378
1235.786, 145.6895
1236.268, 147.1001
1236.750, 148.4476
1237.232, 149.0563
1237.714, 149.2137
1238.197, 149.0537
1238.679, 148.9384
1239.161, 149.5675
1239.643, 150.4290
1240.125, 149.7909
1240.607, 148.3194
1241.089, 148.1377
1241.571, 148.9880
1242.054, 149.3651
1242.536, 149.0130
1243.018, 148.8853
1243.500, 149.5394
1243.982, 150.0780
1244.464, 149.3958
1244.946, 148.8471
1245.428, 149.8148
1245.910, 151.1016
1246.393, 151.6836
1246.875, 151.6172
1247.357, 150.9437
1247.839, 149.7936
1248.321, 149.1167
1248.803, 149.3105
1249.285, 149.4173
1249.767, 149.2195
1250.250, 149.1935
1250.732, 149.4525
1251.214, 149.9466
1251.696, 150.8762
1252.178, 151.5884
1252.660, 150.9198
1253.142, 149.2889
1253.624, 148.3746
1254.106, 148.2450
1254.589, 154.7053
1255.071, 167.1600
1255.553, 171.6348
1256.035, 165.3347
1256.517, 157.3473
1256.999, 152.8321
1257.481, 150.3885
1257.963, 148.9566
1258.445, 148.2219
1258.928, 147.7805
1259.410, 147.7801
1259.892, 148.8688
1260.374, 150.3430
1260.856, 150.7988
1261.338, 150.2677
1261.820, 149.9860
1262.302, 150.4154
1262.785, 150.6304
1263.267, 150.2169
1263.749, 149.7231
1264.231, 149.0943
1264.713, 148.7038
1265.195, 148.9996
1265.677, 149.4029
1266.159, 149.1025
1266.641, 148.4200
1267.124, 148.8145
1267.606, 148.4858
1268.088, 148.2977
1268.570, 148.9821
1269.052, 148.4944
1269.534, 149.8195
1270.016, 151.1952
1270.498, 151.8396
1270.980, 151.9340
1271.463, 151.5507
1271.945, 151.0598
1272.427, 151.0737
1272.909, 151.3691
1273.391, 151.4808
1273.873, 151.6119
1274.355, 152.5394
1274.837, 153.8176
1275.320, 153.7108
1275.802, 151.8742
1276.284, 150.8442
1276.766, 152.4385
1277.248, 153.6564
1277.730, 153.2148
1278.212, 152.5587
1278.694, 152.0484
1279.177, 151.9296
1279.659, 152.3135
1280.141, 153.2761
1280.623, 155.2782
1281.105, 155.4834
1281.587, 155.8773
1282.069, 156.7461
1282.551, 155.6868
1283.033, 155.9321
1283.516, 156.0089
1283.998, 155.5188
1284.480, 155.1707
1284.962, 155.4016
1285.444, 156.0205
1285.926, 156.8516
##END=



