##NAMES=Wulfenite
##RRUFFID=R050149
##IDEAL CHEMISTRY=Pb^2+^Mo^6+^O_4_
##LOCALITY=Chapacase mine, Sierra Cerrillias District, Tocopilla, Chile
##OWNER=RRUFF
##SOURCE=Jim McGlasson
##DESCRIPTION=Orange thin tabular crystals
##STATUS=The identification of this mineral has been confirmed by X-ray diffraction.
##URL=rruff.info/R050149
92.96582, 646.1880
93.44794, 641.1188
93.93005, 642.3231
94.41217, 649.1125
94.89429, 651.7166
95.37640, 651.1437
95.85852, 648.8771
96.34064, 646.1678
96.82275, 643.8260
97.30487, 641.4734
97.78699, 638.7731
98.26910, 636.7638
98.75122, 634.0292
99.23334, 629.7171
99.71545, 623.5763
100.1976, 615.5394
100.6797, 607.5926
101.1618, 599.5477
101.6439, 590.5826
102.1260, 580.4528
102.6081, 569.0878
103.0903, 556.4239
103.5724, 541.8748
104.0545, 526.5733
104.5366, 510.4394
105.0187, 493.9274
105.5008, 477.8979
105.9830, 462.6996
106.4651, 448.2194
106.9472, 435.1672
107.4293, 423.5203
107.9114, 413.1366
108.3935, 404.2440
108.8757, 396.7090
109.3578, 390.2354
109.8399, 384.4796
110.3220, 379.6635
110.8041, 375.1562
111.2862, 370.9108
111.7684, 366.9148
112.2505, 363.0462
112.7326, 359.2588
113.2147, 355.8979
113.6968, 353.8974
114.1789, 354.3582
114.6611, 354.0541
115.1432, 351.7745
115.6253, 348.3228
116.1074, 345.2935
116.5895, 343.4223
117.0716, 342.4288
117.5538, 341.4962
118.0359, 340.5252
118.5180, 339.7547
119.0001, 339.4618
119.4822, 339.6597
119.9643, 339.8454
120.4465, 339.6069
120.9286, 339.2682
121.4107, 339.2106
121.8928, 339.6408
122.3749, 340.3006
122.8570, 340.6596
123.3392, 340.4737
123.8213, 340.4402
124.3034, 340.8650
124.7855, 341.5473
125.2676, 342.2149
125.7497, 342.6646
126.2319, 342.9289
126.7140, 343.4631
127.1961, 344.4498
127.6782, 345.5739
128.1603, 346.8755
128.6424, 348.2768
129.1246, 349.6173
129.6067, 350.7469
130.0888, 351.6042
130.5709, 352.5477
131.0530, 353.3722
131.5351, 354.4203
132.0173, 355.9466
132.4994, 357.9677
132.9815, 360.2569
133.4636, 362.5878
133.9457, 365.0640
134.4278, 367.2039
134.9100, 368.4499
135.3921, 369.5345
135.8742, 371.4634
136.3563, 374.6205
136.8384, 378.2237
137.3205, 380.9687
137.8027, 382.8190
138.2848, 384.8280
138.7669, 387.4312
139.2490, 390.5583
139.7311, 393.9915
140.2132, 397.9666
140.6954, 401.9420
141.1775, 405.2360
141.6596, 407.7562
142.1417, 410.2732
142.6238, 413.5318
143.1059, 417.6453
143.5881, 421.8521
144.0702, 425.5910
144.5523, 429.5641
145.0344, 434.5425
145.5165, 440.7804
145.9986, 447.3513
146.4807, 452.3862
146.9629, 454.6100
147.4450, 457.6751
147.9271, 462.8700
148.4092, 468.7461
148.8913, 473.7822
149.3734, 477.2445
149.8556, 479.5956
150.3377, 482.6822
150.8198, 487.2585
151.3019, 491.8768
151.7840, 496.4258
152.2661, 500.9237
152.7483, 505.3714
153.2304, 509.7642
153.7125, 514.1459
154.1946, 518.7821
154.6767, 524.1480
155.1588, 529.2483
155.6410, 533.4924
156.1231, 537.0545
156.6052, 540.5763
157.0873, 544.4729
157.5694, 548.7686
158.0515, 553.2709
158.5337, 557.9858
159.0158, 562.8802
159.4979, 568.0529
159.9800, 573.5245
160.4621, 578.8110
160.9442, 583.4162
161.4264, 587.5107
161.9085, 591.4775
162.3906, 595.3498
162.8727, 599.1549
163.3548, 603.0582
163.8369, 607.2304
164.3191, 611.0780
164.8012, 614.4490
165.2833, 617.2628
165.7654, 619.1569
166.2475, 619.8663
166.7296, 619.4694
167.2118, 618.4205
167.6939, 616.8332
168.1760, 614.3102
168.6581, 610.2582
169.1402, 605.1553
169.6223, 600.1379
170.1045, 596.5681
170.5866, 594.7208
171.0687, 591.1821
171.5508, 584.6149
172.0329, 577.3895
172.5150, 569.7596
172.9972, 562.0682
173.4793, 554.8715
173.9614, 548.7695
174.4435, 543.9025
174.9256, 539.7833
175.4077, 537.0563
175.8899, 534.3870
176.3720, 530.6234
176.8541, 525.8173
177.3362, 521.2462
177.8183, 518.6941
178.3004, 519.3734
178.7826, 519.3365
179.2647, 517.8568
179.7468, 516.1376
180.2289, 515.0739
180.7110, 514.9046
181.1931, 515.4360
181.6752, 516.4357
182.1574, 517.9269
182.6395, 519.8526
183.1216, 522.8121
183.6037, 526.0346
184.0858, 528.4174
184.5679, 529.5895
185.0501, 530.0544
185.5322, 530.5401
186.0143, 531.0705
186.4964, 531.4924
186.9785, 531.6551
187.4606, 531.6616
187.9428, 531.9212
188.4249, 532.9330
188.9070, 533.6091
189.3891, 532.8170
189.8712, 530.5953
190.3533, 527.2596
190.8355, 522.7230
191.3176, 517.0693
191.7997, 511.2409
192.2818, 505.7640
192.7639, 499.7520
193.2460, 492.4177
193.7282, 483.6721
194.2103, 474.3849
194.6924, 465.4432
195.1745, 456.8639
195.6566, 447.7443
196.1387, 437.3348
196.6209, 426.6608
197.1030, 416.0484
197.5851, 405.5681
198.0672, 395.6414
198.5493, 386.8842
199.0314, 379.6177
199.5136, 372.5391
199.9957, 365.6263
200.4778, 358.7540
200.9599, 351.7180
201.4420, 344.4995
201.9241, 337.4494
202.4063, 331.1352
202.8884, 325.9875
203.3705, 320.7072
203.8526, 314.2737
204.3347, 308.2594
204.8168, 304.1354
205.2990, 302.2516
205.7811, 301.4390
206.2632, 299.5410
206.7453, 295.7397
207.2274, 291.9030
207.7095, 287.2489
208.1917, 282.9180
208.6738, 280.2977
209.1559, 279.8101
209.6380, 280.3351
210.1201, 279.6065
210.6022, 276.3041
211.0844, 273.6425
211.5665, 272.1187
212.0486, 271.1713
212.5307, 270.1729
213.0128, 268.8972
213.4949, 267.5074
213.9771, 266.3639
214.4592, 265.7082
214.9413, 264.7780
215.4234, 263.1389
215.9055, 261.2084
216.3876, 259.6191
216.8698, 258.6020
217.3519, 257.9768
217.8340, 257.5020
218.3161, 257.2802
218.7982, 256.8279
219.2803, 255.6015
219.7625, 254.0318
220.2446, 253.2133
220.7267, 253.7405
221.2088, 254.6960
221.6909, 254.6834
222.1730, 253.6424
222.6552, 252.4683
223.1373, 251.3107
223.6194, 250.3087
224.1015, 250.0755
224.5836, 251.2345
225.0657, 252.6252
225.5479, 252.7868
226.0300, 251.6836
226.5121, 250.7049
226.9942, 251.1270
227.4763, 252.6660
227.9584, 253.2344
228.4406, 251.5530
228.9227, 249.6502
229.4048, 249.3190
229.8869, 250.5044
230.3690, 251.8143
230.8511, 251.8504
231.3333, 250.6653
231.8154, 250.5444
232.2975, 253.0095
232.7796, 255.4937
233.2617, 256.5051
233.7438, 256.0590
234.2260, 254.9756
234.7081, 253.6302
235.1902, 251.9460
235.6723, 251.1659
236.1544, 252.2746
236.6365, 253.6048
237.1187, 254.5301
237.6008, 255.0051
238.0829, 255.1875
238.5650, 255.0379
239.0471, 254.4206
239.5292, 254.4781
240.0114, 256.2714
240.4935, 257.8652
240.9756, 258.3017
241.4577, 257.7771
241.9398, 257.1968
242.4219, 257.4595
242.9041, 258.7115
243.3862, 259.7072
243.8683, 260.0898
244.3504, 260.5441
244.8325, 261.4323
245.3146, 262.6481
245.7968, 263.8290
246.2789, 264.6288
246.7610, 265.0052
247.2431, 265.4226
247.7252, 266.1393
248.2073, 266.6563
248.6895, 266.4360
249.1716, 265.7894
249.6537, 265.5594
250.1358, 266.5271
250.6179, 268.8026
251.1000, 270.5497
251.5822, 271.7135
252.0643, 272.4982
252.5464, 272.6263
253.0285, 272.3836
253.5106, 272.4301
253.9927, 273.2915
254.4748, 274.9576
254.9570, 276.5244
255.4391, 278.3009
255.9212, 279.6967
256.4033, 280.2177
256.8854, 280.1608
257.3676, 280.2030
257.8497, 280.7736
258.3318, 281.8546
258.8139, 283.2756
259.2960, 285.5366
259.7781, 287.5307
260.2603, 288.7706
260.7424, 289.4557
261.2245, 290.0336
261.7066, 290.7080
262.1887, 291.5221
262.6708, 292.7309
263.1530, 294.7166
263.6351, 296.5826
264.1172, 297.8901
264.5993, 298.8735
265.0814, 300.1132
265.5635, 301.9588
266.0457, 304.1375
266.5278, 305.6635
267.0099, 305.6918
267.4920, 306.5075
267.9741, 309.4850
268.4562, 313.7166
268.9384, 317.3060
269.4204, 319.3919
269.9026, 320.6456
270.3847, 322.5331
270.8668, 325.1729
271.3489, 327.8648
271.8310, 330.2855
272.3131, 332.6015
272.7953, 335.0892
273.2774, 337.7729
273.7595, 340.8104
274.2416, 344.6445
274.7237, 349.2969
275.2058, 354.0227
275.6880, 358.6638
276.1701, 363.2442
276.6522, 367.6834
277.1343, 371.9280
277.6164, 376.2871
278.0985, 381.2479
278.5807, 386.7115
279.0628, 392.5023
279.5449, 398.5724
280.0270, 404.9288
280.5091, 411.6094
280.9912, 418.5780
281.4734, 425.9685
281.9555, 433.9780
282.4376, 442.5536
282.9197, 451.5375
283.4018, 461.0272
283.8839, 470.8513
284.3661, 480.4219
284.8482, 489.4611
285.3303, 499.6817
285.8124, 512.9354
286.2945, 528.3950
286.7766, 544.2053
287.2588, 559.2556
287.7409, 574.8306
288.2230, 592.3259
288.7051, 611.7327
289.1872, 632.3869
289.6693, 653.4268
290.1515, 675.6878
290.6336, 700.1416
291.1157, 726.9920
291.5978, 756.2268
292.0799, 787.5204
292.5620, 820.9153
293.0442, 857.6135
293.5263, 898.1219
294.0084, 942.5617
294.4905, 990.5285
294.9726, 1042.301
295.4547, 1097.238
295.9369, 1154.616
296.4190, 1214.470
296.9011, 1277.462
297.3832, 1344.056
297.8653, 1413.487
298.3474, 1485.167
298.8296, 1559.178
299.3117, 1633.170
299.7938, 1705.380
300.2759, 1776.047
300.7580, 1845.628
301.2401, 1913.999
301.7223, 1981.583
302.2044, 2048.370
302.6865, 2114.666
303.1686, 2180.872
303.6507, 2247.533
304.1328, 2314.640
304.6150, 2381.412
305.0971, 2447.069
305.5792, 2513.690
306.0613, 2582.634
306.5434, 2653.585
307.0255, 2725.134
307.5077, 2795.928
307.9898, 2867.111
308.4719, 2941.366
308.9540, 3019.271
309.4361, 3098.218
309.9182, 3177.179
310.4004, 3255.620
310.8825, 3333.363
311.3646, 3410.596
311.8467, 3486.961
312.3288, 3561.911
312.8109, 3636.199
313.2931, 3705.529
313.7752, 3769.146
314.2573, 3825.322
314.7394, 3872.126
315.2215, 3909.790
315.7036, 3935.743
316.1858, 3948.770
316.6679, 3948.870
317.1500, 3931.557
317.6321, 3895.353
318.1142, 3838.392
318.5963, 3760.389
319.0785, 3660.781
319.5606, 3546.220
320.0427, 3419.388
320.5248, 3280.541
321.0069, 3133.249
321.4890, 2973.669
321.9712, 2811.654
322.4533, 2654.281
322.9354, 2500.731
323.4175, 2352.957
323.8996, 2209.651
324.3817, 2071.992
324.8639, 1944.382
325.3460, 1827.429
325.8281, 1719.356
326.3102, 1620.359
326.7923, 1529.579
327.2744, 1446.102
327.7566, 1371.314
328.2387, 1303.250
328.7208, 1239.217
329.2029, 1179.260
329.6850, 1124.088
330.1671, 1075.075
330.6493, 1030.967
331.1314, 989.8810
331.6135, 951.7864
332.0956, 916.4918
332.5777, 884.0336
333.0598, 854.4368
333.5420, 826.8611
334.0241, 801.1026
334.5062, 777.5911
334.9883, 756.2523
335.4704, 737.1935
335.9525, 719.8768
336.4347, 704.3087
336.9168, 690.3443
337.3989, 677.8124
337.8810, 666.8563
338.3631, 656.9932
338.8452, 647.3141
339.3274, 637.8992
339.8094, 629.7312
340.2916, 624.0293
340.7737, 619.6522
341.2558, 614.3630
341.7379, 607.6543
342.2200, 601.2630
342.7021, 596.7322
343.1843, 593.6883
343.6664, 591.1715
344.1485, 588.9397
344.6306, 587.1878
345.1127, 585.9218
345.5948, 585.1572
346.0770, 585.5862
346.5591, 588.2983
347.0412, 592.2354
347.5233, 594.4728
348.0054, 594.2010
348.4875, 593.5009
348.9697, 593.9641
349.4518, 595.0718
349.9339, 595.2050
350.4160, 593.9746
350.8981, 591.1455
351.3802, 586.0068
351.8624, 578.4670
352.3445, 570.2861
352.8266, 561.7968
353.3087, 553.0668
353.7908, 543.9552
354.2729, 534.3590
354.7551, 525.1345
355.2372, 517.4313
355.7193, 511.2805
356.2014, 504.5722
356.6835, 497.0270
357.1656, 488.9413
357.6478, 480.5785
358.1299, 471.9196
358.6120, 462.5177
359.0941, 451.9276
359.5762, 440.3124
360.0583, 428.7217
360.5405, 416.7620
361.0226, 405.1682
361.5047, 394.0355
361.9868, 383.4688
362.4689, 373.6026
362.9510, 364.5997
363.4332, 356.2071
363.9153, 348.0400
364.3974, 339.6485
364.8795, 332.2228
365.3616, 326.3033
365.8438, 321.2319
366.3259, 316.4344
366.8080, 311.7395
367.2901, 307.1746
367.7722, 302.7310
368.2543, 298.3632
368.7365, 294.4808
369.2186, 291.2563
369.7007, 288.3428
370.1828, 285.6081
370.6649, 283.0037
371.1470, 280.4616
371.6292, 277.9308
372.1113, 275.4179
372.5934, 272.9963
373.0755, 270.3282
373.5576, 268.1416
374.0397, 267.0421
374.5219, 266.4100
375.0040, 265.3108
375.4861, 263.3383
375.9682, 260.9860
376.4503, 259.3270
376.9324, 258.9204
377.4146, 258.3590
377.8967, 257.5345
378.3788, 256.6358
378.8609, 255.8707
379.3430, 255.2228
379.8251, 254.4260
380.3073, 253.1359
380.7894, 251.2423
381.2715, 249.6357
381.7536, 248.4784
382.2357, 247.4343
382.7178, 246.3374
383.2000, 245.2760
383.6821, 244.5011
384.1642, 244.2411
384.6463, 244.2481
385.1284, 243.4629
385.6105, 241.1110
386.0927, 239.2510
386.5748, 238.7240
387.0569, 238.5444
387.5390, 237.7791
388.0211, 236.1547
388.5032, 234.1045
388.9854, 232.0752
389.4675, 229.9846
389.9496, 228.4022
390.4317, 227.8257
390.9138, 227.4539
391.3959, 226.9652
391.8781, 226.3397
392.3602, 225.6346
392.8423, 224.8432
393.3244, 224.0000
393.8065, 223.2945
394.2886, 222.8219
394.7708, 222.3051
395.2529, 221.4609
395.7350, 220.5331
396.2171, 219.9452
396.6992, 220.0083
397.1813, 220.0723
397.6635, 219.0679
398.1456, 216.9272
398.6277, 215.3699
399.1098, 215.4123
399.5919, 215.8789
400.0740, 215.3734
400.5562, 213.8061
401.0383, 212.4296
401.5204, 212.1954
402.0025, 212.6628
402.4846, 212.6514
402.9667, 211.8886
403.4489, 211.0474
403.9310, 210.8981
404.4131, 211.2014
404.8952, 211.0754
405.3773, 209.9504
405.8594, 208.6404
406.3416, 207.7939
406.8237, 207.3964
407.3058, 207.3671
407.7879, 207.8483
408.2700, 208.5013
408.7521, 208.3820
409.2343, 207.0574
409.7164, 206.0254
410.1985, 205.9885
410.6806, 206.4446
411.1627, 206.7495
411.6448, 206.7486
412.1269, 206.4077
412.6090, 205.5249
413.0912, 203.8334
413.5733, 203.2693
414.0554, 205.0396
414.5375, 206.8059
415.0196, 206.9879
415.5017, 205.9323
415.9839, 205.0312
416.4660, 205.2025
416.9481, 206.1397
417.4302, 206.3756
417.9123, 205.2598
418.3944, 204.2131
418.8766, 203.2810
419.3587, 202.5109
419.8408, 201.9929
420.3229, 201.7325
420.8050, 201.5736
421.2871, 201.2681
421.7693, 200.6669
422.2514, 200.4891
422.7335, 201.3147
423.2156, 201.9806
423.6977, 201.8610
424.1798, 201.1888
424.6620, 200.5863
425.1441, 200.4779
425.6262, 200.7116
426.1083, 200.6624
426.5904, 200.0152
427.0725, 199.7031
427.5547, 200.3868
428.0368, 201.2021
428.5189, 201.2805
429.0010, 200.4436
429.4831, 199.3875
429.9652, 198.8330
430.4474, 198.7801
430.9295, 198.9087
431.4116, 199.4721
431.8937, 199.8283
432.3758, 199.5053
432.8579, 198.6783
433.3401, 197.8262
433.8222, 196.9471
434.3043, 196.2952
434.7864, 196.4876
435.2685, 197.6252
435.7506, 198.4879
436.2328, 198.5009
436.7149, 197.9041
437.1970, 197.0695
437.6791, 195.8746
438.1612, 194.8957
438.6433, 194.3784
439.1255, 194.3009
439.6076, 194.7973
440.0897, 195.9938
440.5718, 197.1238
441.0539, 197.3269
441.5360, 196.5867
442.0182, 195.9767
442.5003, 195.7012
442.9824, 195.4332
443.4645, 194.7516
443.9466, 193.8694
444.4287, 193.5533
444.9109, 194.2777
445.3930, 195.5690
445.8751, 196.1451
446.3572, 195.3349
446.8393, 194.8107
447.3214, 194.9673
447.8036, 195.2397
448.2857, 195.2092
448.7678, 194.7830
449.2499, 193.9337
449.7320, 192.4610
450.2141, 190.2629
450.6963, 189.5470
451.1784, 192.1336
451.6605, 194.2477
452.1426, 194.9361
452.6247, 194.6237
453.1068, 193.8390
453.5890, 192.8010
454.0711, 191.7046
454.5532, 190.8655
455.0353, 190.2246
455.5174, 190.0400
455.9995, 190.9304
456.4817, 191.8232
456.9638, 192.1767
457.4459, 192.0200
457.9280, 191.6562
458.4101, 191.2032
458.8922, 190.7087
459.3744, 190.2922
459.8565, 189.9078
460.3386, 189.7537
460.8207, 190.2460
461.3028, 190.8862
461.7849, 191.0615
462.2671, 190.6165
462.7492, 189.9604
463.2313, 189.2176
463.7134, 188.4877
464.1955, 188.1142
464.6776, 188.2333
465.1598, 188.5111
465.6419, 188.6931
466.1240, 188.7688
466.6061, 188.6004
467.0882, 188.0352
467.5703, 187.3371
468.0525, 186.4570
468.5346, 185.5628
469.0167, 185.2451
469.4988, 185.8746
469.9809, 186.9948
470.4630, 187.5530
470.9452, 187.4087
471.4273, 186.9047
471.9094, 185.4438
472.3915, 184.0523
472.8736, 183.6972
473.3557, 184.3293
473.8379, 185.1819
474.3200, 185.6507
474.8021, 185.7411
475.2842, 185.5040
475.7663, 184.3544
476.2484, 183.6084
476.7306, 183.8214
477.2127, 184.3637
477.6948, 184.5547
478.1769, 184.1989
478.6590, 183.6184
479.1411, 183.1987
479.6233, 182.9497
480.1054, 182.7403
480.5875, 182.5624
481.0696, 182.4312
481.5517, 182.5714
482.0338, 182.7454
482.5159, 182.3877
482.9980, 180.9623
483.4802, 179.3129
483.9623, 178.7461
484.4444, 179.2653
484.9265, 179.7049
485.4086, 179.5674
485.8907, 179.3269
486.3729, 179.7079
486.8550, 180.7427
487.3371, 181.4865
487.8192, 181.5170
488.3013, 181.1460
488.7834, 180.6317
489.2656, 180.0238
489.7477, 179.5502
490.2298, 179.3696
490.7119, 179.4327
491.1940, 179.5139
491.6761, 180.0049
492.1583, 180.0013
492.6404, 178.7121
493.1225, 177.1584
493.6046, 176.6328
494.0867, 177.3068
494.5688, 178.2245
495.0510, 178.3162
495.5331, 177.4863
496.0152, 177.1268
496.4973, 177.7173
496.9794, 178.2644
497.4615, 178.5907
497.9437, 178.7158
498.4258, 178.6139
498.9079, 178.2773
499.3900, 177.9369
499.8721, 178.0585
500.3542, 178.7609
500.8364, 178.9776
501.3185, 178.2000
501.8006, 177.3510
502.2827, 177.0505
502.7648, 177.1002
503.2469, 176.9216
503.7291, 176.0276
504.2112, 175.0269
504.6933, 174.8615
505.1754, 175.5044
505.6575, 176.1546
506.1396, 176.6259
506.6218, 176.8554
507.1039, 176.6811
507.5860, 176.0782
508.0681, 175.5400
508.5502, 175.1589
509.0323, 174.9278
509.5145, 175.0632
509.9966, 175.4451
510.4787, 175.2853
510.9608, 173.9212
511.4429, 171.8434
511.9250, 171.0745
512.4072, 173.2045
512.8893, 174.5314
513.3714, 174.1821
513.8535, 173.3648
514.3356, 173.1462
514.8177, 173.6177
515.2999, 174.1885
515.7820, 174.3298
516.2641, 174.0681
516.7462, 173.7290
517.2283, 173.1078
517.7104, 172.7350
518.1926, 172.9229
518.6747, 173.2895
519.1568, 173.4978
519.6389, 173.4613
520.1210, 173.1988
520.6031, 172.5419
521.0853, 171.5995
521.5674, 171.1062
522.0495, 171.2029
522.5316, 171.5526
523.0137, 172.2437
523.4958, 172.9891
523.9780, 173.1240
524.4601, 172.0857
524.9422, 171.1632
525.4243, 171.4577
525.9064, 172.4807
526.3885, 173.1113
526.8707, 173.0603
527.3528, 172.5759
527.8349, 171.8046
528.3170, 170.6544
528.7991, 170.2294
529.2813, 171.0535
529.7634, 171.9783
530.2455, 172.7652
530.7276, 173.2702
531.2097, 173.1606
531.6918, 172.3295
532.1740, 171.3367
532.6561, 171.1386
533.1382, 172.0054
533.6203, 172.7466
534.1024, 173.5461
534.5845, 174.0240
535.0667, 173.9399
535.5488, 173.4374
536.0309, 172.7529
536.5130, 171.9295
536.9951, 171.1584
537.4772, 170.6701
537.9594, 170.4626
538.4415, 170.7151
538.9236, 171.8590
539.4057, 172.9401
539.8878, 172.9287
540.3699, 172.0150
540.8521, 171.2202
541.3342, 171.0372
541.8163, 170.9210
542.2984, 170.1867
542.7805, 169.0584
543.2626, 168.4363
543.7448, 168.7246
544.2269, 169.5545
544.7090, 170.3477
545.1911, 171.2472
545.6732, 171.6725
546.1553, 171.0736
546.6375, 170.5196
547.1196, 170.9416
547.6017, 171.8885
548.0838, 172.0968
548.5659, 170.8289
549.0480, 168.9446
549.5302, 168.5570
550.0123, 170.3857
550.4944, 171.5646
550.9765, 171.2693
551.4586, 170.6827
551.9407, 170.3056
552.4229, 170.1240
552.9050, 169.9435
553.3871, 169.5421
553.8692, 169.2246
554.3513, 169.5982
554.8334, 170.6464
555.3156, 171.5948
555.7977, 172.3533
556.2798, 172.6991
556.7619, 172.0453
557.2440, 170.4040
557.7261, 169.2399
558.2083, 169.1885
558.6904, 169.4123
559.1725, 169.2571
559.6546, 168.8169
560.1367, 168.4814
560.6188, 168.4396
561.1010, 168.5751
561.5831, 168.6581
562.0652, 168.6912
562.5473, 168.6610
563.0294, 168.5108
563.5115, 168.3622
563.9937, 168.3567
564.4758, 168.3932
564.9579, 168.2188
565.4400, 167.6691
565.9221, 166.9865
566.4042, 166.6282
566.8864, 166.6303
567.3685, 166.6623
567.8506, 166.6327
568.3327, 166.6626
568.8148, 166.9332
569.2969, 167.3549
569.7791, 167.5914
570.2612, 167.5038
570.7433, 167.2117
571.2254, 166.6727
571.7075, 165.9931
572.1896, 165.6062
572.6718, 165.6917
573.1539, 165.9194
573.6360, 165.8551
574.1181, 165.4338
574.6002, 164.9995
575.0823, 164.1565
575.5645, 163.7181
576.0466, 164.4812
576.5287, 165.7657
577.0108, 166.3731
577.4929, 165.8596
577.9750, 164.9307
578.4572, 164.7090
578.9393, 165.3564
579.4214, 165.6012
579.9035, 165.1014
580.3856, 164.6070
580.8677, 164.5733
581.3499, 164.7297
581.8320, 164.5934
582.3141, 163.9317
582.7962, 163.2765
583.2783, 163.2478
583.7604, 163.6172
584.2426, 163.5820
584.7247, 162.9440
585.2068, 162.3303
585.6889, 162.3900
586.1710, 162.9885
586.6531, 162.9327
587.1352, 161.4139
587.6173, 160.2735
588.0994, 160.2314
588.5815, 160.7344
589.0637, 161.1939
589.5458, 161.4782
590.0279, 161.7633
590.5100, 162.2840
590.9921, 162.9714
591.4742, 162.9275
591.9564, 161.4292
592.4385, 160.4267
592.9206, 160.7245
593.4027, 161.4175
593.8848, 161.8368
594.3669, 161.8697
594.8491, 161.5406
595.3312, 160.4570
595.8133, 159.1469
596.2954, 158.9289
596.7775, 159.8636
597.2596, 160.4611
597.7418, 159.8172
598.2239, 158.6484
598.7060, 158.5376
599.1881, 159.8381
599.6702, 160.5849
600.1523, 159.9469
600.6345, 159.1106
601.1166, 158.9783
601.5987, 159.4111
602.0808, 159.8317
602.5629, 159.9380
603.0450, 159.8689
603.5272, 159.9759
604.0093, 160.4538
604.4914, 160.5092
604.9735, 159.6633
605.4556, 158.8031
605.9377, 158.2606
606.4199, 157.9951
606.9020, 157.9177
607.3841, 158.0701
607.8662, 158.2007
608.3483, 157.9802
608.8304, 157.4881
609.3126, 157.0234
609.7947, 156.5925
610.2768, 156.4683
610.7589, 157.1369
611.2410, 158.4445
611.7231, 158.7816
612.2053, 156.9301
612.6874, 155.6541
613.1695, 156.3195
613.6516, 157.6894
614.1337, 158.3472
614.6158, 158.0723
615.0980, 157.5059
615.5801, 157.1895
616.0622, 157.0978
616.5443, 157.0834
617.0264, 157.3719
617.5085, 157.2602
617.9907, 155.7372
618.4728, 154.3571
618.9549, 154.6645
619.4370, 156.5481
619.9191, 158.0777
620.4012, 157.7807
620.8834, 156.8135
621.3655, 156.8788
621.8476, 157.8425
622.3297, 158.5928
622.8118, 158.6882
623.2939, 158.4368
623.7761, 158.3087
624.2582, 158.3876
624.7403, 158.2094
625.2224, 157.3924
625.7045, 156.7322
626.1866, 156.5983
626.6688, 156.8548
627.1509, 157.3617
627.6330, 158.0445
628.1151, 158.6680
628.5972, 158.8623
629.0793, 158.6252
629.5615, 158.5941
630.0436, 158.9999
630.5257, 159.1510
631.0078, 158.2020
631.4899, 157.0214
631.9720, 156.7970
632.4542, 157.8424
632.9363, 158.7885
633.4184, 158.8575
633.9005, 158.5097
634.3826, 158.1480
634.8647, 157.8860
635.3469, 158.1678
635.8290, 159.3575
636.3111, 160.9043
636.7932, 161.3851
637.2753, 160.0464
637.7574, 159.1792
638.2396, 159.0081
638.7217, 159.0227
639.2038, 159.0697
639.6859, 159.0957
640.1680, 159.0543
640.6501, 158.9270
641.1323, 158.7203
641.6144, 158.3582
642.0965, 157.8854
642.5786, 157.6973
643.0607, 157.9349
643.5428, 158.1434
644.0250, 157.9458
644.5071, 157.4688
644.9892, 157.1752
645.4713, 157.0054
645.9534, 157.1203
646.4355, 157.9428
646.9177, 158.8227
647.3998, 158.9891
647.8819, 158.5262
648.3640, 158.1571
648.8461, 158.3923
649.3282, 158.9470
649.8104, 158.9057
650.2925, 157.9318
650.7746, 157.4450
651.2567, 158.0016
651.7388, 158.7014
652.2209, 159.0896
652.7031, 159.2256
653.1852, 159.2826
653.6673, 159.2405
654.1494, 159.2788
654.6315, 159.6481
655.1136, 160.1977
655.5958, 160.5720
656.0779, 160.7034
656.5600, 160.7044
657.0421, 160.6399
657.5242, 160.5294
658.0063, 160.5185
658.4885, 160.9715
658.9706, 161.0234
659.4527, 160.1354
659.9348, 159.2250
660.4169, 159.0232
660.8990, 159.4379
661.3812, 159.9394
661.8633, 160.2657
662.3454, 160.4014
662.8275, 159.9998
663.3096, 159.1147
663.7917, 159.5846
664.2739, 162.5443
664.7560, 165.0804
665.2381, 163.8727
665.7202, 159.6371
666.2023, 157.7203
666.6844, 160.6607
667.1666, 162.9723
667.6487, 162.2532
668.1308, 160.4165
668.6129, 159.5975
669.0950, 159.9635
669.5771, 160.3407
670.0593, 159.7779
670.5414, 158.6917
671.0235, 158.5494
671.5056, 159.6776
671.9877, 160.5539
672.4698, 160.9223
672.9520, 160.9425
673.4341, 160.5322
673.9162, 159.8711
674.3983, 159.5692
674.8804, 160.0262
675.3625, 160.5485
675.8447, 160.5244
676.3268, 160.2915
676.8089, 160.5467
677.2910, 161.3756
677.7731, 162.2167
678.2552, 162.6276
678.7374, 162.6381
679.2195, 162.3709
679.7016, 161.4413
680.1837, 160.9400
680.6658, 161.2839
681.1479, 161.7719
681.6301, 161.9782
682.1122, 161.9587
682.5943, 161.9762
683.0764, 162.1478
683.5585, 162.3942
684.0406, 162.7036
684.5228, 163.0214
685.0049, 163.0920
685.4870, 162.8504
685.9691, 162.6788
686.4512, 162.9554
686.9333, 163.5528
687.4155, 163.7004
687.8976, 162.7079
688.3797, 162.2220
688.8618, 162.7141
689.3439, 163.4008
689.8260, 163.7742
690.3082, 163.8599
690.7903, 163.8705
691.2724, 163.8805
691.7545, 163.9913
692.2366, 164.4856
692.7188, 165.2847
693.2009, 165.6414
693.6830, 165.3210
694.1651, 165.0708
694.6472, 165.4750
695.1293, 166.3736
695.6115, 167.0999
696.0936, 167.6913
696.5757, 168.0732
697.0578, 167.8993
697.5399, 167.7907
698.0220, 168.4332
698.5042, 169.5606
698.9863, 170.3567
699.4684, 170.3924
699.9505, 170.0782
700.4326, 170.0734
700.9147, 170.3757
701.3969, 170.5180
701.8790, 170.2154
702.3611, 170.3909
702.8432, 171.8687
703.3253, 174.1231
703.8074, 176.0036
704.2896, 177.5674
704.7717, 178.5502
705.2538, 178.0914
705.7359, 177.6779
706.2180, 178.8212
706.7001, 181.0393
707.1823, 182.8555
707.6644, 183.6200
708.1465, 183.9714
708.6286, 184.8962
709.1107, 186.4260
709.5928, 187.8242
710.0750, 188.9310
710.5571, 190.2424
711.0392, 192.1343
711.5213, 194.2768
712.0034, 196.2255
712.4855, 197.9079
712.9677, 199.7593
713.4498, 202.0332
713.9319, 204.4294
714.4140, 206.5720
714.8961, 208.6622
715.3782, 211.1840
715.8604, 214.2909
716.3425, 217.7860
716.8246, 221.4380
717.3067, 225.2713
717.7888, 229.0052
718.2709, 232.3370
718.7531, 236.2726
719.2352, 241.2249
719.7173, 246.8704
720.1994, 252.9833
720.6815, 259.5360
721.1636, 266.4528
721.6458, 273.8998
722.1279, 281.5143
722.6100, 288.7334
723.0921, 295.9726
723.5742, 303.8339
724.0563, 312.5033
724.5385, 322.3687
725.0206, 333.9360
725.5027, 346.9854
725.9848, 360.0985
726.4669, 373.1200
726.9490, 386.6982
727.4312, 401.0300
727.9132, 416.0503
728.3953, 432.2631
728.8774, 449.1764
729.3596, 465.4147
729.8417, 480.3658
730.3238, 495.0206
730.8059, 509.5600
731.2880, 524.4165
731.7701, 540.4456
732.2523, 557.4789
732.7344, 574.2623
733.2165, 589.8754
733.6986, 604.7510
734.1807, 619.8423
734.6628, 634.7629
735.1450, 651.1230
735.6271, 669.7200
736.1092, 688.8512
736.5913, 707.6010
737.0734, 726.2211
737.5555, 745.4138
738.0377, 765.4335
738.5198, 784.7112
739.0019, 802.7532
739.4840, 819.3851
739.9661, 834.6282
740.4482, 848.2354
740.9304, 859.9446
741.4125, 869.5892
741.8946, 876.6754
742.3767, 880.8109
742.8588, 882.0636
743.3409, 878.3145
743.8231, 868.9797
744.3052, 855.8285
744.7873, 838.6810
745.2694, 818.2982
745.7515, 794.6139
746.2336, 767.7383
746.7158, 740.6654
747.1979, 713.5074
747.6800, 686.9158
748.1621, 660.9328
748.6442, 636.0438
749.1263, 613.1643
749.6085, 592.5157
750.0906, 573.3458
750.5727, 554.9404
751.0548, 537.6264
751.5369, 522.5533
752.0190, 509.7545
752.5012, 498.9236
752.9833, 490.4556
753.4654, 483.4370
753.9475, 477.7548
754.4296, 472.9557
754.9117, 467.7300
755.3939, 461.0297
755.8760, 455.6558
756.3581, 453.2383
756.8402, 452.1620
757.3223, 450.8219
757.8044, 449.3760
758.2866, 448.8111
758.7687, 449.6194
759.2508, 451.3879
759.7329, 453.4003
760.2150, 455.6754
760.6971, 459.2610
761.1793, 464.5045
761.6614, 469.9294
762.1435, 474.7061
762.6256, 479.3963
763.1077, 484.9557
763.5898, 491.4774
764.0720, 497.9530
764.5541, 504.5165
765.0362, 510.7303
765.5183, 516.8087
766.0004, 522.1722
766.4825, 526.3974
766.9647, 529.2119
767.4468, 530.0186
767.9289, 528.2875
768.4110, 524.2458
768.8931, 518.2584
769.3752, 510.3609
769.8574, 500.8842
770.3395, 489.6315
770.8216, 477.4581
771.3037, 464.5768
771.7858, 451.3046
772.2679, 439.4807
772.7501, 429.4720
773.2322, 420.1295
773.7143, 411.5853
774.1964, 403.4956
774.6785, 395.5045
775.1606, 387.8573
775.6428, 381.3054
776.1249, 376.1830
776.6070, 371.2996
777.0891, 364.9205
777.5712, 358.1324
778.0533, 353.6462
778.5355, 351.4518
779.0176, 349.3168
779.4997, 346.2470
779.9818, 343.0692
780.4639, 341.0581
780.9460, 340.3785
781.4282, 339.2226
781.9103, 336.7630
782.3924, 334.9828
782.8745, 334.9133
783.3566, 335.1613
783.8387, 334.3822
784.3209, 332.7302
784.8030, 331.4560
785.2851, 331.1467
785.7672, 331.2939
786.2493, 331.3919
786.7314, 331.7015
787.2136, 332.7679
787.6957, 334.5977
788.1778, 336.7707
788.6599, 339.0688
789.1420, 341.2533
789.6241, 342.5463
790.1063, 342.5871
790.5884, 343.7729
791.0705, 346.5422
791.5526, 349.8735
792.0347, 353.8647
792.5168, 357.8474
792.9990, 360.5932
793.4811, 361.7946
793.9632, 363.9100
794.4453, 367.7980
794.9274, 372.4915
795.4095, 377.6085
795.8917, 383.0645
796.3738, 388.8031
796.8559, 394.8002
797.3380, 401.0721
797.8201, 407.5479
798.3022, 414.3611
798.7844, 421.8287
799.2665, 429.9453
799.7486, 438.5463
800.2307, 447.6202
800.7128, 457.3278
801.1949, 468.0457
801.6771, 479.4796
802.1592, 490.3438
802.6413, 499.7973
803.1234, 510.2959
803.6055, 522.4386
804.0876, 535.0451
804.5698, 547.8343
805.0519, 560.6476
805.5340, 573.0137
806.0161, 584.9031
806.4982, 597.4303
806.9803, 611.4395
807.4625, 626.5455
807.9446, 642.7507
808.4267, 659.5482
808.9088, 675.0497
809.3909, 688.7327
809.8730, 701.9107
810.3552, 715.9767
810.8373, 730.7106
811.3194, 744.5847
811.8015, 757.1334
812.2836, 770.3190
812.7657, 785.3690
813.2479, 799.9870
813.7300, 813.3018
814.2121, 825.0335
814.6942, 834.2745
815.1763, 840.6575
815.6584, 845.6157
816.1406, 850.1035
816.6227, 852.9321
817.1048, 853.1989
817.5869, 851.0532
818.0690, 846.8679
818.5511, 840.7820
819.0333, 832.7877
819.5154, 822.4868
819.9975, 810.4285
820.4796, 798.3947
820.9617, 786.3705
821.4438, 773.7238
821.9260, 760.2663
822.4081, 746.1916
822.8902, 731.4693
823.3723, 716.2673
823.8544, 701.8651
824.3365, 688.4843
824.8187, 675.5156
825.3008, 663.4655
825.7829, 651.2559
826.2650, 637.7711
826.7471, 623.9406
827.2292, 611.4046
827.7114, 600.6263
828.1935, 590.4395
828.6756, 580.0018
829.1577, 569.9632
829.6398, 561.1044
830.1219, 553.2346
830.6041, 545.6845
831.0862, 538.3314
831.5683, 531.6675
832.0504, 526.2375
832.5325, 521.7866
833.0146, 517.5502
833.4968, 513.6095
833.9789, 509.1894
834.4610, 503.6216
834.9431, 498.7608
835.4252, 495.8714
835.9073, 494.6575
836.3895, 494.3754
836.8716, 495.5345
837.3537, 496.1973
837.8358, 495.4776
838.3179, 495.0248
838.8000, 495.2816
839.2822, 496.4739
839.7643, 499.0824
840.2464, 503.0527
840.7285, 507.2791
841.2106, 510.6688
841.6927, 514.2946
842.1749, 519.6804
842.6570, 526.3751
843.1391, 532.9193
843.6212, 539.1713
844.1033, 546.3757
844.5854, 555.2888
845.0676, 566.0113
845.5497, 578.8420
846.0318, 594.1906
846.5139, 609.1747
846.9960, 622.2779
847.4781, 638.1447
847.9603, 658.9406
848.4424, 683.6115
848.9245, 710.3797
849.4066, 739.0869
849.8887, 770.8082
850.3708, 804.1104
850.8530, 842.2432
851.3351, 885.7332
851.8172, 934.9823
852.2993, 991.2744
852.7814, 1053.899
853.2635, 1120.668
853.7457, 1190.579
854.2278, 1264.277
854.7099, 1344.636
855.1920, 1429.533
855.6741, 1514.658
856.1563, 1599.824
856.6384, 1684.428
857.1205, 1768.511
857.6026, 1851.690
858.0847, 1933.172
858.5668, 2012.953
859.0490, 2094.966
859.5311, 2178.989
860.0132, 2266.634
860.4953, 2358.175
860.9774, 2453.204
861.4595, 2552.579
861.9417, 2655.514
862.4238, 2757.169
862.9059, 2855.078
863.3880, 2956.219
863.8701, 3064.492
864.3522, 3174.125
864.8344, 3284.168
865.3165, 3391.326
865.7986, 3493.197
866.2807, 3588.679
866.7628, 3674.414
867.2449, 3754.383
867.7271, 3818.456
868.2092, 3858.004
868.6913, 3870.379
869.1733, 3849.141
869.6555, 3792.988
870.1376, 3701.849
870.6197, 3574.894
871.1018, 3417.061
871.5839, 3236.559
872.0660, 3030.208
872.5482, 2823.261
873.0303, 2613.995
873.5124, 2411.679
873.9945, 2218.913
874.4766, 2036.337
874.9587, 1867.127
875.4409, 1711.298
875.9230, 1567.802
876.4051, 1437.476
876.8872, 1319.170
877.3693, 1215.293
877.8514, 1122.220
878.3336, 1038.807
878.8157, 964.0799
879.2978, 897.1550
879.7799, 838.4945
880.2620, 785.2364
880.7441, 735.8326
881.2263, 690.8682
881.7084, 651.5624
882.1905, 617.0775
882.6726, 585.1135
883.1547, 554.9297
883.6368, 527.0114
884.1190, 501.9760
884.6011, 479.3517
885.0832, 458.0251
885.5653, 438.0727
886.0474, 419.8563
886.5295, 403.5363
887.0117, 388.4454
887.4938, 374.1214
887.9759, 360.8121
888.4580, 349.0154
888.9401, 339.1854
889.4222, 329.3269
889.9044, 318.8060
890.3865, 309.2242
890.8686, 301.2260
891.3507, 294.0887
891.8328, 287.1178
892.3149, 280.3659
892.7971, 274.2686
893.2792, 269.2986
893.7613, 264.3890
894.2434, 258.7996
894.7255, 253.2850
895.2076, 248.6578
895.6898, 244.6339
896.1719, 240.3912
896.6540, 235.6702
897.1361, 231.3062
897.6182, 228.2456
898.1003, 225.9535
898.5825, 223.5429
899.0646, 221.0440
899.5467, 218.6805
900.0288, 216.4939
900.5109, 214.3148
900.9930, 212.0453
901.4752, 209.6672
901.9573, 207.0183
902.4394, 203.9777
902.9215, 201.6889
903.4036, 200.3671
903.8857, 199.2761
904.3679, 198.2518
904.8500, 197.1846
905.3321, 195.9086
905.8142, 194.4317
906.2963, 193.0314
906.7784, 191.7196
907.2606, 190.4736
907.7427, 189.3314
908.2248, 188.2121
908.7069, 187.0616
909.1890, 185.8974
909.6711, 184.7807
910.1533, 183.7270
910.6354, 182.6238
911.1175, 181.3599
911.5996, 180.0710
912.0817, 178.3422
912.5638, 176.9131
913.0460, 177.6861
913.5281, 180.2471
914.0102, 181.4314
914.4923, 179.1204
914.9744, 175.3264
915.4565, 172.5165
915.9387, 170.6395
916.4208, 169.6539
916.9029, 169.5087
917.3850, 169.8349
917.8671, 170.5456
918.3492, 170.9474
918.8314, 170.1662
919.3135, 168.3793
919.7956, 166.7434
920.2777, 165.1441
920.7598, 164.3109
921.2419, 164.7876
921.7241, 165.1390
922.2062, 164.3593
922.6883, 162.9505
923.1704, 161.9376
923.6525, 161.3557
924.1346, 161.0544
924.6168, 161.3940
925.0989, 161.5469
925.5810, 161.3130
926.0631, 160.7888
926.5452, 159.8364
927.0273, 158.6693
927.5095, 157.9403
927.9916, 157.9584
928.4737, 158.0518
928.9558, 157.7970
929.4379, 157.5693
929.9200, 157.9606
930.4022, 158.5249
930.8843, 158.3589
931.3664, 157.3390
931.8485, 156.1935
932.3306, 155.3826
932.8127, 154.8410
933.2949, 154.5341
933.7770, 154.4106
934.2591, 154.3714
934.7412, 154.3907
935.2233, 154.4118
935.7054, 154.4083
936.1876, 154.3851
936.6697, 154.4298
937.1518, 154.4613
937.6339, 153.7538
938.1160, 152.1970
938.5981, 150.9909
939.0803, 150.4057
939.5624, 150.1250
940.0445, 149.9502
940.5266, 149.8850
941.0087, 149.9500
941.4908, 150.1911
941.9730, 150.4086
942.4551, 150.7211
942.9372, 150.8307
943.4193, 150.4555
943.9014, 149.9950
944.3835, 149.8692
944.8657, 149.9756
945.3478, 149.7980
945.8299, 149.0323
946.3120, 148.4353
946.7941, 148.3257
947.2762, 148.2584
947.7584, 147.9764
948.2405, 147.5615
948.7226, 147.0373
949.2047, 146.4720
949.6868, 146.2878
950.1689, 147.1422
950.6511, 147.8305
951.1332, 147.0031
951.6153, 145.7606
952.0974, 145.6823
952.5795, 146.4946
953.0616, 146.9691
953.5438, 146.6412
954.0259, 145.9920
954.5080, 145.4517
954.9901, 144.9511
955.4722, 144.2256
955.9543, 143.4089
956.4365, 143.1310
956.9186, 143.4430
957.4007, 143.5962
957.8828, 143.1186
958.3649, 142.3619
958.8470, 141.9336
959.3292, 141.8214
959.8113, 141.7093
960.2934, 141.5809
960.7755, 141.6407
961.2576, 142.0335
961.7397, 142.3134
962.2219, 142.1117
962.7040, 141.4932
963.1861, 140.5930
963.6682, 138.9571
964.1503, 138.4809
964.6324, 140.0910
965.1146, 141.2644
965.5967, 140.6759
966.0788, 139.6328
966.5609, 139.6794
967.0430, 140.6073
967.5251, 140.9731
968.0073, 140.2716
968.4894, 139.7077
968.9715, 139.4245
969.4536, 139.2814
969.9357, 139.3864
970.4178, 139.4890
970.9000, 139.1542
971.3821, 138.3923
971.8642, 137.8875
972.3463, 137.9959
972.8284, 138.2571
973.3105, 138.6283
973.7927, 138.9021
974.2748, 138.7139
974.7569, 138.3158
975.2390, 138.2758
975.7211, 138.7416
976.2032, 139.3138
976.6854, 139.8842
977.1675, 140.2553
977.6496, 140.2545
978.1317, 139.8855
978.6138, 138.7150
979.0959, 137.1236
979.5781, 136.7290
980.0602, 138.2621
980.5423, 140.1987
981.0244, 140.7557
981.5065, 140.4214
981.9886, 140.3871
982.4708, 140.5635
982.9529, 140.5051
983.4350, 140.1394
983.9171, 139.7143
984.3992, 139.3804
984.8813, 139.0967
985.3635, 138.7646
985.8456, 138.3985
986.3277, 138.2342
986.8098, 138.2944
987.2919, 138.2016
987.7740, 137.8113
988.2562, 137.5054
988.7383, 137.6011
989.2204, 137.9711
989.7025, 138.2929
990.1846, 138.6053
990.6667, 138.6522
991.1489, 138.3665
991.6310, 137.9584
992.1131, 137.3442
992.5952, 136.8490
993.0773, 136.7551
993.5594, 137.0361
994.0416, 137.6209
994.5237, 138.9779
995.0058, 139.6467
995.4879, 139.4418
995.9700, 138.7786
996.4521, 137.1661
996.9343, 135.6262
997.4164, 135.2895
997.8985, 135.9723
998.3806, 136.4996
998.8627, 136.6555
999.3448, 136.8370
999.8270, 137.2439
1000.309, 137.5438
1000.791, 137.5144
1001.273, 137.3131
1001.755, 136.9357
1002.238, 136.5153
1002.720, 136.7778
1003.202, 138.7152
1003.684, 139.9389
1004.166, 138.6992
1004.648, 137.0194
1005.130, 136.3578
1005.612, 136.4368
1006.094, 136.6690
1006.577, 136.9337
1007.059, 137.4260
1007.541, 138.6341
1008.023, 139.3879
1008.505, 138.2095
1008.987, 136.5206
1009.469, 136.1360
1009.951, 136.6358
1010.433, 136.7037
1010.916, 136.0579
1011.398, 135.5731
1011.880, 135.8623
1012.362, 136.6424
1012.844, 138.0380
1013.326, 139.4602
1013.808, 139.6470
1014.290, 138.7967
1014.773, 137.8098
1015.255, 137.0500
1015.737, 136.6940
1016.219, 136.9919
1016.701, 137.6467
1017.183, 138.2274
1017.665, 138.6808
1018.147, 138.7586
1018.629, 138.4932
1019.112, 138.2301
1019.594, 138.1112
1020.076, 138.1349
1020.558, 138.3348
1021.040, 138.6273
1021.522, 138.7685
1022.004, 138.7713
1022.486, 138.7771
1022.969, 138.7990
1023.451, 138.6579
1023.933, 138.2599
1024.415, 137.8146
1024.897, 137.5576
1025.379, 137.4727
1025.861, 137.5019
1026.343, 137.6501
1026.825, 137.7568
1027.308, 137.7505
1027.790, 138.1861
1028.272, 139.4741
1028.754, 140.7646
1029.236, 140.9143
1029.718, 140.0868
1030.200, 139.5518
1030.682, 139.3698
1031.165, 139.2169
1031.647, 139.0931
1032.129, 138.8863
1032.611, 138.4971
1033.093, 138.0686
1033.575, 137.7213
1034.057, 137.4852
1034.539, 137.8311
1035.021, 139.1144
1035.504, 140.0186
1035.986, 140.3857
1036.468, 140.4490
1036.950, 140.1610
1037.432, 139.7912
1037.914, 139.6772
1038.396, 139.8112
1038.878, 140.0551
1039.360, 140.5595
1039.843, 140.8705
1040.325, 140.7632
1040.807, 140.7370
1041.289, 141.0231
1041.771, 141.4889
1042.253, 142.0559
1042.735, 142.7063
1043.217, 143.1141
1043.700, 143.2277
1044.182, 143.1871
1044.664, 142.8396
1045.146, 142.5266
1045.628, 142.4043
1046.110, 142.3793
1046.592, 142.4258
1047.074, 142.5075
1047.557, 142.3161
1048.039, 141.2765
1048.521, 140.8739
1049.003, 142.0949
1049.485, 142.9895
1049.967, 142.1410
1050.449, 140.9004
1050.931, 141.0187
1051.413, 142.2688
1051.896, 142.7373
1052.378, 141.3175
1052.860, 140.7576
1053.342, 142.5931
1053.824, 144.1849
1054.306, 144.0629
1054.788, 143.2006
1055.270, 142.4324
1055.752, 141.9257
1056.235, 141.9736
1056.717, 142.9110
1057.199, 143.6855
1057.681, 143.9465
1058.163, 144.0669
1058.645, 144.4115
1059.127, 144.5767
1059.609, 143.7321
1060.092, 142.3105
1060.574, 141.9663
1061.056, 143.4333
1061.538, 144.6509
1062.020, 144.9173
1062.502, 144.7983
1062.984, 144.2310
1063.466, 143.7050
1063.948, 143.8598
1064.431, 144.4587
1064.913, 144.7000
1065.395, 144.3382
1065.877, 143.9543
1066.359, 143.4976
1066.841, 143.4068
1067.323, 144.1889
1067.805, 145.2168
1068.287, 146.0027
1068.770, 146.4927
1069.252, 146.6834
1069.734, 146.5577
1070.216, 146.4269
1070.698, 146.2183
1071.180, 146.2869
1071.662, 147.1422
1072.144, 148.0731
1072.627, 148.3629
1073.109, 148.2321
1073.591, 148.2750
1074.073, 148.6135
1074.555, 148.7610
1075.037, 148.0893
1075.519, 147.7231
1076.001, 148.5931
1076.484, 149.6640
1076.966, 150.0963
1077.448, 150.0517
1077.930, 149.8006
1078.412, 149.4555
1078.894, 149.4458
1079.376, 150.3616
1079.858, 150.9833
1080.340, 150.4483
1080.823, 149.6656
1081.305, 149.2565
1081.787, 149.1297
1082.269, 148.9417
1082.751, 148.7545
1083.233, 149.2734
1083.715, 151.4076
1084.197, 152.7383
1084.679, 151.0117
1085.161, 149.2924
1085.644, 150.2262
1086.126, 152.1143
1086.608, 152.6535
1087.090, 151.9104
1087.572, 151.3847
1088.054, 151.5876
1088.536, 151.8599
1089.018, 151.9964
1089.501, 152.0252
1089.983, 151.8768
1090.465, 151.6943
1090.947, 151.4614
1091.429, 151.3514
1091.911, 151.8985
1092.393, 153.3510
1092.875, 154.4163
1093.358, 154.3135
1093.840, 154.0727
1094.322, 154.2882
1094.804, 154.4987
1095.286, 154.2131
1095.768, 153.6203
1096.250, 153.0784
1096.732, 152.6527
1097.214, 152.5578
1097.697, 152.9993
1098.179, 153.5984
1098.661, 154.3873
1099.143, 155.1144
1099.625, 155.6723
1100.107, 156.0119
1100.589, 155.9659
1101.071, 155.5831
1101.553, 155.4145
1102.036, 155.9176
1102.518, 156.0912
1103.000, 155.1634
1103.482, 154.4247
1103.964, 154.7205
1104.446, 155.4639
1104.928, 156.0508
1105.410, 156.4444
1105.893, 156.7520
1106.375, 156.9507
1106.857, 157.1821
1107.339, 157.8193
1107.821, 158.0471
1108.303, 156.9447
1108.785, 155.8588
1109.267, 156.3329
1109.750, 157.6506
1110.232, 157.6852
1110.714, 155.8011
1111.196, 155.1977
1111.678, 157.4920
1112.160, 159.2531
1112.642, 159.6393
1113.124, 159.4211
1113.606, 158.9537
1114.089, 158.2358
1114.571, 157.0561
1115.053, 155.3732
1115.535, 154.4297
1116.017, 154.6714
1116.499, 154.9283
1116.981, 155.1262
1117.463, 155.3524
1117.945, 155.7507
1118.428, 156.0902
1118.910, 156.0544
1119.392, 155.7244
1119.874, 155.5591
1120.356, 155.5410
1120.838, 155.7708
1121.320, 156.5969
1121.802, 156.9627
1122.285, 156.4145
1122.767, 155.5409
1123.249, 154.5501
1123.731, 153.7874
1124.213, 154.3186
1124.695, 153.8985
1125.177, 153.4272
1125.659, 154.3503
1126.141, 152.8976
1126.624, 153.1906
1127.106, 154.0823
1127.588, 155.1114
1128.070, 156.0238
1128.552, 156.4395
1129.034, 156.3994
1129.516, 156.2212
1129.998, 155.8707
1130.480, 155.6240
1130.963, 155.4800
1131.445, 155.6846
1131.927, 156.3959
1132.409, 157.0907
1132.891, 157.2412
1133.373, 157.0663
1133.855, 157.1125
1134.337, 157.3780
1134.820, 158.0411
1135.302, 159.0767
1135.784, 159.2991
1136.266, 158.4386
1136.748, 157.5737
1137.230, 157.3771
1137.712, 157.5313
1138.194, 157.6538
1138.677, 157.6918
1139.159, 157.1445
1139.641, 156.3169
1140.123, 156.9365
1140.605, 158.9335
1141.087, 160.4242
1141.569, 160.6639
1142.051, 160.0982
1142.533, 158.8076
1143.016, 157.7095
1143.498, 158.8543
1143.980, 161.0361
1144.462, 161.5397
1144.944, 160.7699
1145.426, 160.4032
1145.908, 160.7402
1146.390, 160.9570
1146.872, 160.5638
1147.355, 160.1320
1147.837, 160.1264
1148.319, 160.4667
1148.801, 161.2065
1149.283, 162.1380
1149.765, 163.1684
1150.247, 164.0659
1150.729, 164.1634
1151.212, 163.3143
1151.694, 162.7174
1152.176, 163.3404
1152.658, 164.0868
1153.140, 164.3083
1153.622, 164.2891
1154.104, 163.9562
1154.586, 163.7438
1155.068, 164.5301
1155.551, 166.1355
1156.033, 167.0987
1156.515, 166.6953
1156.997, 166.4722
1157.479, 167.0792
1157.961, 167.7992
1158.443, 168.6788
1158.925, 169.1864
1159.407, 168.4723
1159.890, 167.1454
1160.372, 166.6932
1160.854, 167.3547
1161.336, 167.7574
1161.818, 167.2083
1162.300, 167.2832
1162.782, 169.0052
1163.264, 170.3134
1163.747, 169.8023
1164.229, 168.9235
1164.711, 169.4857
1165.193, 171.1454
1165.675, 171.9627
1166.157, 171.6033
1166.639, 171.4585
1167.121, 171.4960
1167.604, 171.8785
1168.086, 172.7496
1168.568, 173.7030
1169.050, 174.5204
1169.532, 175.0983
1170.014, 175.1889
1170.496, 174.8594
1170.978, 174.8148
1171.460, 175.0578
1171.943, 175.4508
1172.425, 175.9772
1172.907, 176.8297
1173.389, 178.0979
1173.871, 179.1650
1174.353, 179.4691
1174.835, 179.2162
1175.317, 178.5617
1175.799, 177.7458
1176.282, 177.5081
1176.764, 177.8720
1177.246, 179.1880
1177.728, 181.2097
1178.210, 182.3479
1178.692, 181.8533
1179.174, 181.0612
1179.656, 181.0737
1180.139, 181.7353
1180.621, 183.4318
1181.103, 185.2450
1181.585, 185.5373
1182.067, 184.9249
1182.549, 185.1057
1183.031, 186.2577
1183.513, 187.1031
1183.995, 186.9831
1184.478, 186.7381
1184.960, 187.1136
1185.442, 187.2297
1185.924, 185.8613
1186.406, 184.4759
1186.888, 184.6325
1187.370, 185.9898
1187.852, 187.8079
1188.334, 190.0038
1188.817, 191.1221
1189.299, 189.8464
1189.781, 189.0241
1190.263, 189.2976
1190.745, 189.9314
1191.227, 191.0175
1191.709, 191.9466
1192.191, 192.0469
1192.674, 191.5296
1193.156, 191.0678
1193.638, 190.5401
1194.120, 190.7451
1194.602, 192.0306
1195.084, 192.9022
1195.566, 192.9876
1196.048, 192.9937
1196.531, 193.2643
1197.013, 193.7350
1197.495, 194.3611
1197.977, 195.0714
1198.459, 195.6281
1198.941, 196.0244
1199.423, 196.1278
1199.905, 195.9649
1200.387, 195.8609
1200.870, 195.9131
1201.352, 196.2586
1201.834, 196.9911
1202.316, 197.8010
1202.798, 198.2202
1203.280, 199.0424
1203.762, 199.3375
1204.244, 200.3616
1204.726, 201.1288
1205.209, 201.5987
1205.691, 201.4618
1206.173, 200.9442
1206.655, 201.8424
1207.137, 205.7171
1207.619, 209.0078
1208.101, 208.2431
1208.583, 207.1961
1209.066, 209.6827
1209.548, 212.5133
1210.030, 211.3653
1210.512, 207.9541
1210.994, 206.8808
1211.476, 208.8411
1211.958, 210.0537
1212.440, 208.5790
1212.922, 208.2054
1213.405, 210.6897
1213.887, 212.7421
1214.369, 212.8965
1214.851, 212.4198
1215.333, 212.3060
1215.815, 212.4099
1216.297, 212.3023
1216.779, 212.6802
1217.261, 213.2890
1217.744, 213.6459
1218.226, 214.8218
1218.708, 215.6944
1219.190, 216.2851
1219.672, 216.5582
1220.154, 216.9691
1220.636, 218.0695
1221.118, 219.1999
1221.600, 218.4916
1222.083, 216.6651
1222.565, 216.6209
1223.047, 217.9300
1223.529, 218.6914
1224.011, 218.7966
1224.493, 219.5145
1224.975, 221.2831
1225.457, 222.7452
1225.940, 222.5935
1226.422, 222.2154
1226.904, 223.2111
1227.386, 224.4127
1227.868, 224.4957
1228.350, 224.0343
1228.832, 223.7727
1229.314, 223.8757
1229.797, 224.5234
1230.279, 225.8440
1230.761, 226.7929
1231.243, 226.5912
1231.725, 226.6917
1232.207, 227.7877
1232.689, 228.8925
1233.171, 229.5189
1233.653, 229.8771
1234.135, 230.1303
1234.618, 230.3039
1235.100, 230.4858
1235.582, 230.6779
1236.064, 230.7795
1236.546, 230.6461
1237.028, 231.3363
1237.510, 233.1858
1237.992, 234.6681
1238.475, 235.0812
1238.957, 234.8661
1239.439, 234.3238
1239.921, 233.9372
1240.403, 235.0576
1240.885, 237.1010
1241.367, 238.4085
1241.849, 239.0072
1242.332, 239.0589
1242.814, 238.6914
1243.296, 238.0333
1243.778, 237.1940
1244.260, 236.9376
1244.742, 238.0889
1245.224, 239.4680
1245.706, 240.1966
1246.188, 240.7694
1246.671, 241.7324
1247.153, 242.6957
1247.635, 242.8473
1248.117, 242.6033
1248.599, 243.4382
1249.081, 245.7750
1249.563, 247.2122
1250.045, 247.2775
1250.527, 246.6778
1251.010, 244.6178
1251.492, 243.4262
1251.974, 244.2484
1252.456, 245.8117
1252.938, 247.2055
1253.420, 248.2132
1253.902, 248.1544
1254.384, 247.1577
1254.867, 247.3608
1255.349, 248.6859
1255.831, 249.5874
1256.313, 249.9088
1256.795, 249.9215
1257.277, 249.7566
1257.759, 249.7558
1258.241, 250.1745
1258.724, 250.7906
1259.206, 251.3840
1259.688, 251.9759
1260.170, 252.9015
1260.652, 253.6155
1261.134, 252.7859
1261.616, 251.3035
1262.098, 251.4810
1262.580, 253.4340
1263.063, 254.5725
1263.545, 253.5576
1264.027, 253.0506
1264.509, 254.2437
1264.991, 255.3606
1265.473, 255.6496
1265.955, 255.8674
1266.437, 256.6674
1266.919, 257.4707
1267.402, 257.3635
1267.884, 256.5479
1268.366, 256.3059
1268.848, 256.7182
1269.330, 256.8355
1269.812, 256.6029
1270.294, 257.0803
1270.776, 258.4749
1271.259, 260.0209
1271.741, 261.3304
1272.223, 262.2114
1272.705, 262.3273
1273.187, 262.2015
1273.669, 262.5885
1274.151, 263.2850
1274.633, 264.3472
1275.115, 265.2737
1275.598, 264.9117
1276.080, 263.6534
1276.562, 262.9808
1277.044, 263.2874
1277.526, 263.8447
1278.008, 264.5734
1278.490, 265.2264
1278.972, 265.6005
1279.454, 266.0752
1279.937, 267.0201
1280.419, 267.9134
1280.901, 268.1985
1281.383, 268.3321
1281.865, 269.2851
1282.347, 270.9649
1282.829, 271.9603
1283.311, 272.2609
1283.794, 271.9330
1284.276, 270.9926
1284.758, 270.3446
1285.240, 270.2402
1285.722, 270.6842
1286.204, 271.6944
##END=



