##NAMES=Wyartite II
##RRUFFID=R090061
##IDEAL CHEMISTRY=CaU^5+^(U^6+^O_2_)_2_O_4_(OH)&#183;3H_2_O
##LOCALITY=Shinkolobwe mine, Katanga, Congo
##OWNER=RRUFF
##SOURCE=William W. Pinch
##DESCRIPTION=Elongated and striated platy translucent black crystals. This is the material known as the dehydrated phase of wyartite, sometimes known as wyartite II (Hawthorne et al, 2006)
##STATUS=The identification of this mineral has been confirmed by single-crystal X-ray diffraction.
##URL=rruff.info/R090061
91.82715, 417.9366
92.30927, 416.8995
92.79138, 415.4398
93.27350, 407.5643
93.75562, 405.4114
94.23773, 422.8802
94.71985, 456.1392
95.20197, 476.1619
95.68408, 466.0242
96.16620, 445.1514
96.64832, 430.1111
97.13043, 422.7654
97.61255, 421.7769
98.09467, 426.1498
98.57678, 436.9991
99.05890, 448.9003
99.54102, 466.2744
100.0231, 483.3305
100.5052, 493.9961
100.9874, 495.0769
101.4695, 488.1236
101.9516, 480.8747
102.4337, 466.4713
102.9158, 458.7584
103.3979, 465.6687
103.8801, 481.0103
104.3622, 492.5821
104.8443, 489.7423
105.3264, 470.1898
105.8085, 463.7061
106.2906, 475.3586
106.7728, 492.6212
107.2549, 511.3330
107.7370, 530.2070
108.2191, 545.7472
108.7012, 552.0109
109.1833, 548.1577
109.6655, 548.6711
110.1476, 558.9712
110.6297, 573.7952
111.1118, 585.1993
111.5939, 590.8074
112.0760, 594.0314
112.5582, 597.4160
113.0403, 600.9622
113.5224, 607.1783
114.0045, 618.1679
114.4866, 633.7991
114.9688, 650.6469
115.4509, 671.6306
115.9330, 690.8365
116.4151, 703.8531
116.8972, 710.1183
117.3793, 713.9823
117.8615, 722.5367
118.3436, 741.0460
118.8257, 750.6597
119.3078, 744.3010
119.7899, 732.6282
120.2720, 724.2131
120.7542, 722.4408
121.2363, 724.1133
121.7184, 720.0104
122.2005, 699.3586
122.6826, 684.4005
123.1647, 680.8801
123.6468, 683.2499
124.1290, 682.8724
124.6111, 674.1857
125.0932, 658.9674
125.5753, 652.4342
126.0574, 658.3480
126.5395, 666.7106
127.0217, 675.1226
127.5038, 683.0748
127.9859, 688.6445
128.4680, 688.9312
128.9501, 685.4276
129.4323, 686.5995
129.9144, 695.9464
130.3965, 708.4445
130.8786, 718.3726
131.3607, 724.7379
131.8428, 732.3856
132.3250, 745.1338
132.8071, 761.7182
133.2892, 780.5321
133.7713, 802.5585
134.2534, 826.5130
134.7355, 847.8129
135.2177, 863.2539
135.6998, 880.4904
136.1819, 904.6611
136.6640, 933.6321
137.1461, 961.9147
137.6282, 985.6871
138.1104, 1004.805
138.5925, 1020.890
139.0746, 1031.918
139.5567, 1041.464
140.0388, 1052.118
140.5209, 1063.132
141.0031, 1071.392
141.4852, 1073.275
141.9673, 1067.941
142.4494, 1057.025
142.9315, 1032.928
143.4136, 1009.501
143.8958, 996.9079
144.3779, 997.3008
144.8600, 1003.962
145.3421, 1006.128
145.8242, 1000.093
146.3063, 996.3109
146.7885, 994.2098
147.2706, 994.8534
147.7527, 1000.505
148.2348, 1012.585
148.7169, 1027.670
149.1990, 1038.241
149.6812, 1042.697
150.1633, 1049.256
150.6454, 1058.824
151.1275, 1072.449
151.6096, 1094.741
152.0917, 1132.779
152.5739, 1175.319
153.0560, 1206.385
153.5381, 1224.803
154.0202, 1235.060
154.5023, 1241.619
154.9844, 1244.792
155.4665, 1238.066
155.9487, 1220.764
156.4308, 1190.274
156.9129, 1138.096
157.3950, 1058.712
157.8771, 973.0536
158.3592, 913.3795
158.8414, 889.8992
159.3235, 868.2606
159.8056, 838.1917
160.2877, 806.6630
160.7698, 778.8138
161.2519, 756.8163
161.7341, 740.8613
162.2162, 732.1016
162.6983, 737.1169
163.1804, 741.0433
163.6625, 741.6907
164.1446, 740.1061
164.6268, 737.7581
165.1089, 735.4928
165.5910, 733.0743
166.0731, 728.8130
166.5552, 725.0667
167.0373, 716.9764
167.5195, 702.0399
168.0016, 681.9596
168.4837, 659.9816
168.9658, 638.3239
169.4479, 616.6069
169.9300, 592.1490
170.4122, 559.9042
170.8943, 530.2467
171.3764, 508.5137
171.8585, 493.9080
172.3406, 481.9905
172.8227, 470.2206
173.3049, 458.6323
173.7870, 446.9918
174.2691, 433.1430
174.7512, 420.6373
175.2333, 412.7487
175.7154, 409.6420
176.1976, 408.6082
176.6797, 409.7236
177.1618, 411.4207
177.6439, 409.7001
178.1260, 399.1872
178.6081, 386.4409
179.0903, 381.8286
179.5724, 387.5093
180.0545, 395.1743
180.5366, 402.0576
181.0187, 407.1819
181.5008, 408.0927
181.9830, 400.8380
182.4651, 388.9149
182.9472, 384.1631
183.4293, 393.0642
183.9114, 399.0917
184.3935, 391.5899
184.8757, 377.0196
185.3578, 366.8333
185.8399, 370.3621
186.3220, 385.7903
186.8041, 393.3300
187.2862, 383.7675
187.7684, 375.5302
188.2505, 374.0675
188.7326, 378.0142
189.2147, 384.1421
189.6968, 390.3428
190.1789, 396.7285
190.6611, 400.5794
191.1432, 399.2466
191.6253, 397.9744
192.1074, 399.0665
192.5895, 401.7788
193.0716, 403.8134
193.5538, 403.0648
194.0359, 399.1400
194.5180, 395.5559
195.0001, 392.5620
195.4822, 389.5922
195.9643, 385.5466
196.4465, 380.9480
196.9286, 377.9272
197.4107, 378.8474
197.8928, 384.4660
198.3749, 387.7987
198.8570, 387.5695
199.3392, 386.2828
199.8213, 384.3673
200.3034, 382.2380
200.7855, 382.5679
201.2676, 389.3326
201.7497, 402.8268
202.2319, 410.2370
202.7140, 406.5182
203.1961, 399.1771
203.6782, 395.7988
204.1603, 397.3554
204.6424, 398.3993
205.1246, 391.9347
205.6067, 380.0142
206.0888, 372.6186
206.5709, 374.8229
207.0530, 381.4317
207.5351, 385.2463
208.0173, 385.2145
208.4994, 384.6700
208.9815, 386.5846
209.4636, 389.9778
209.9457, 392.8772
210.4278, 393.0297
210.9100, 392.3839
211.3921, 397.0742
211.8742, 411.9994
212.3563, 421.5633
212.8384, 409.6279
213.3205, 386.7011
213.8027, 372.4533
214.2848, 382.2215
214.7669, 408.1703
215.2490, 421.0857
215.7311, 413.0838
216.2132, 403.5889
216.6954, 400.5245
217.1775, 401.9498
217.6596, 404.7616
218.1417, 408.0886
218.6238, 411.2465
219.1059, 409.5941
219.5881, 396.8650
220.0702, 387.0411
220.5523, 384.9788
221.0344, 388.3445
221.5165, 393.5944
221.9986, 398.9438
222.4808, 404.0792
222.9629, 405.9766
223.4450, 401.0519
223.9271, 396.3867
224.4092, 393.3030
224.8913, 391.4962
225.3735, 389.8775
225.8556, 387.4262
226.3377, 384.5810
226.8198, 386.5287
227.3019, 401.3283
227.7840, 412.5613
228.2662, 415.4230
228.7483, 412.3053
229.2304, 407.7481
229.7125, 404.7014
230.1946, 402.8164
230.6767, 398.2764
231.1589, 388.3127
231.6410, 378.9578
232.1231, 370.1431
232.6052, 363.0417
233.0873, 359.6996
233.5694, 361.5139
234.0516, 367.9854
234.5337, 375.8236
235.0158, 390.2431
235.4979, 400.2422
235.9800, 400.8678
236.4621, 394.5893
236.9443, 386.2433
237.4264, 377.8320
237.9085, 370.0685
238.3906, 366.3169
238.8727, 368.5202
239.3548, 371.6208
239.8370, 375.2762
240.3191, 378.6774
240.8012, 379.2971
241.2833, 375.0415
241.7654, 368.1380
242.2475, 365.2825
242.7297, 368.5573
243.2118, 371.7463
243.6939, 372.9289
244.1760, 372.0532
244.6581, 368.1990
245.1402, 359.3037
245.6224, 349.3206
246.1045, 346.7134
246.5866, 354.3749
247.0687, 360.6347
247.5508, 358.2393
248.0329, 349.2984
248.5151, 341.0798
248.9972, 335.3528
249.4793, 332.3248
249.9614, 332.2139
250.4435, 335.3427
250.9256, 338.8723
251.4078, 340.8569
251.8899, 341.7926
252.3720, 344.6362
252.8541, 352.8867
253.3362, 359.5064
253.8183, 355.3870
254.3005, 340.6305
254.7826, 327.7707
255.2647, 326.3036
255.7468, 334.0099
256.2289, 339.3478
256.7110, 338.6368
257.1931, 337.4286
257.6753, 341.6759
258.1574, 350.3289
258.6395, 356.6687
259.1216, 354.9520
259.6037, 346.6908
260.0858, 340.1436
260.5680, 335.9426
261.0501, 333.9100
261.5322, 335.1517
262.0143, 338.4222
262.4964, 339.9791
262.9785, 335.3860
263.4607, 326.2459
263.9428, 322.1151
264.4249, 325.0681
264.9070, 330.5588
265.3891, 338.0790
265.8712, 346.1258
266.3534, 351.6781
266.8355, 352.5533
267.3176, 349.5817
267.7997, 345.7230
268.2818, 337.9854
268.7639, 334.3327
269.2461, 341.5463
269.7282, 353.2312
270.2103, 359.2978
270.6924, 352.9408
271.1745, 339.0643
271.6566, 334.4670
272.1388, 345.6841
272.6209, 355.4600
273.1030, 359.9966
273.5851, 360.5629
274.0672, 357.2617
274.5493, 349.5157
275.0315, 340.8541
275.5136, 340.9207
275.9957, 356.2032
276.4778, 368.1302
276.9599, 371.8169
277.4420, 372.0539
277.9242, 373.5061
278.4063, 377.8177
278.8884, 382.6491
279.3705, 383.3977
279.8526, 377.9503
280.3347, 372.7469
280.8169, 364.6556
281.2990, 359.3308
281.7811, 362.7165
282.2632, 375.5817
282.7453, 391.8777
283.2274, 402.2446
283.7096, 402.9212
284.1917, 407.0686
284.6738, 422.4980
285.1559, 435.3322
285.6380, 435.3948
286.1201, 422.7703
286.6023, 406.0811
287.0844, 393.9565
287.5665, 385.4581
288.0486, 386.3464
288.5307, 405.9789
289.0128, 425.8036
289.4950, 438.3691
289.9771, 443.4052
290.4592, 443.5246
290.9413, 439.9496
291.4234, 431.8372
291.9055, 431.3768
292.3877, 446.5614
292.8698, 461.2948
293.3519, 471.3751
293.8340, 476.9076
294.3161, 478.6778
294.7982, 476.5820
295.2804, 471.3000
295.7625, 471.7908
296.2446, 486.0437
296.7267, 497.7309
297.2088, 503.0146
297.6909, 503.9346
298.1731, 503.8050
298.6552, 504.4827
299.1373, 505.1848
299.6194, 502.7061
300.1015, 486.0619
300.5836, 480.1561
301.0658, 497.0212
301.5479, 521.3959
302.0300, 535.7164
302.5121, 533.2339
302.9942, 522.1989
303.4763, 519.9539
303.9585, 535.7212
304.4406, 546.7731
304.9227, 550.6829
305.4048, 551.5319
305.8869, 550.6980
306.3690, 549.3129
306.8512, 550.7067
307.3333, 560.5608
307.8154, 585.6825
308.2975, 600.8138
308.7796, 602.7309
309.2617, 599.2531
309.7439, 592.5452
310.2260, 584.3035
310.7081, 577.9173
311.1902, 577.4203
311.6723, 584.3622
312.1544, 585.5637
312.6366, 574.3483
313.1187, 564.8037
313.6008, 564.7789
314.0829, 571.2376
314.5650, 575.7073
315.0471, 571.6640
315.5293, 559.9872
316.0114, 552.3312
316.4935, 553.3226
316.9756, 553.1302
317.4577, 547.5219
317.9398, 539.9324
318.4220, 536.0036
318.9041, 538.7254
319.3862, 545.8571
319.8683, 550.2777
320.3504, 547.0190
320.8326, 547.2974
321.3147, 554.7432
321.7968, 564.3983
322.2789, 571.8220
322.7610, 575.4240
323.2431, 576.0809
323.7253, 574.6780
324.2074, 566.8876
324.6895, 566.0519
325.1716, 578.0817
325.6537, 591.6815
326.1358, 598.5844
326.6180, 598.2789
327.1001, 596.2717
327.5822, 598.3860
328.0643, 605.1400
328.5464, 613.6964
329.0285, 629.2587
329.5107, 641.4882
329.9928, 644.6786
330.4749, 640.6702
330.9570, 634.4521
331.4391, 629.3371
331.9212, 625.4608
332.4034, 624.9210
332.8855, 632.4173
333.3676, 638.2832
333.8497, 640.3617
334.3318, 639.7654
334.8139, 638.3652
335.2961, 637.1361
335.7782, 635.2890
336.2603, 630.3591
336.7424, 618.8204
337.2245, 609.3875
337.7066, 604.1223
338.1888, 600.2018
338.6709, 595.3276
339.1530, 588.7946
339.6351, 581.2510
340.1172, 573.7133
340.5993, 566.6579
341.0815, 558.3724
341.5636, 548.1599
342.0457, 537.5229
342.5278, 525.3859
343.0099, 513.0199
343.4920, 504.5984
343.9742, 505.5732
344.4563, 516.8907
344.9384, 519.9207
345.4205, 507.8281
345.9026, 493.4235
346.3847, 477.2137
346.8669, 461.3156
347.3490, 448.7683
347.8311, 441.6346
348.3132, 438.9231
348.7953, 436.9687
349.2774, 436.4743
349.7596, 435.6232
350.2417, 436.6669
350.7238, 436.0361
351.2059, 427.9193
351.6880, 410.5338
352.1701, 391.9202
352.6523, 387.1575
353.1344, 402.6074
353.6165, 412.3902
354.0986, 413.1699
354.5807, 408.2596
355.0628, 395.1219
355.5450, 375.9072
356.0271, 360.0497
356.5092, 359.8503
356.9913, 376.1634
357.4734, 382.9166
357.9555, 372.9436
358.4377, 360.6528
358.9198, 348.2830
359.4019, 338.2983
359.8840, 336.0019
360.3661, 347.7976
360.8482, 366.9925
361.3304, 371.8472
361.8125, 355.1304
362.2946, 339.8710
362.7767, 336.6164
363.2588, 337.6104
363.7409, 333.9245
364.2231, 322.1270
364.7052, 309.8154
365.1873, 308.2398
365.6694, 318.8251
366.1515, 326.8407
366.6336, 327.0782
367.1158, 325.0358
367.5979, 324.5797
368.0800, 325.8503
368.5621, 327.1939
369.0442, 326.9888
369.5263, 325.7127
370.0085, 325.8776
370.4906, 328.4984
370.9727, 331.0683
371.4548, 333.7674
371.9369, 335.2599
372.4190, 331.8538
372.9012, 318.2404
373.3833, 301.5164
373.8654, 292.4065
374.3475, 291.5453
374.8296, 293.2294
375.3117, 295.4131
375.7939, 298.3307
376.2760, 302.4906
376.7581, 308.4655
377.2402, 314.3304
377.7223, 320.5137
378.2044, 325.9533
378.6866, 324.8423
379.1687, 312.6637
379.6508, 298.2465
380.1329, 293.4718
380.6150, 297.9094
381.0971, 302.3504
381.5793, 303.8061
382.0614, 303.6016
382.5435, 303.7965
383.0256, 304.6794
383.5077, 304.5494
383.9898, 300.8222
384.4720, 294.5467
384.9541, 292.6008
385.4362, 300.1569
385.9183, 307.5901
386.4004, 307.3269
386.8825, 301.6497
387.3647, 298.9829
387.8468, 304.0108
388.3289, 313.2902
388.8110, 317.6537
389.2931, 314.6200
389.7752, 313.1262
390.2574, 316.6370
390.7395, 321.9297
391.2216, 325.5556
391.7037, 326.6868
392.1858, 325.3134
392.6679, 320.2619
393.1501, 309.3900
393.6322, 307.9012
394.1143, 327.7086
394.5964, 345.3119
395.0785, 343.6265
395.5606, 327.7785
396.0428, 315.2282
396.5249, 317.6048
397.0070, 331.7590
397.4891, 340.8545
397.9712, 338.4112
398.4533, 338.5630
398.9355, 347.6812
399.4176, 357.9199
399.8997, 359.6230
400.3818, 350.1956
400.8639, 336.1014
401.3460, 326.5591
401.8282, 321.3566
402.3103, 321.8105
402.7924, 333.1494
403.2745, 344.6486
403.7566, 350.0432
404.2387, 350.6284
404.7209, 351.7957
405.2030, 357.7978
405.6851, 367.9147
406.1672, 376.4223
406.6493, 382.6236
407.1314, 387.9975
407.6136, 393.6540
408.0957, 398.4363
408.5778, 400.5381
409.0599, 399.2756
409.5420, 396.9850
410.0241, 396.7442
410.5063, 398.5224
410.9884, 402.5734
411.4705, 411.4073
411.9526, 420.5294
412.4347, 427.5036
412.9168, 432.3876
413.3990, 436.4086
413.8811, 439.7612
414.3632, 442.8432
414.8453, 447.2123
415.3274, 453.1414
415.8095, 459.6977
416.2917, 465.2371
416.7738, 471.4161
417.2559, 481.1884
417.7380, 496.7423
418.2201, 512.9335
418.7022, 524.6614
419.1844, 532.3146
419.6665, 539.6886
420.1486, 548.1582
420.6307, 556.3355
421.1128, 560.7729
421.5949, 561.3767
422.0771, 566.8424
422.5592, 583.3884
423.0413, 605.1917
423.5234, 625.1244
424.0055, 642.3771
424.4876, 657.3499
424.9698, 669.1072
425.4519, 678.5665
425.9340, 691.4852
426.4161, 710.9150
426.8982, 730.4380
427.3803, 746.8001
427.8625, 761.1830
428.3446, 775.5883
428.8267, 790.6923
429.3088, 807.0565
429.7909, 825.8035
430.2730, 848.4388
430.7552, 870.2753
431.2373, 893.7693
431.7194, 914.4911
432.2015, 927.7337
432.6836, 934.4155
433.1657, 939.5632
433.6479, 946.5961
434.1300, 955.7098
434.6121, 970.0356
435.0942, 998.2996
435.5763, 1021.761
436.0584, 1033.997
436.5406, 1041.328
437.0227, 1050.655
437.5048, 1064.437
437.9869, 1081.390
438.4690, 1099.573
438.9511, 1118.785
439.4333, 1139.881
439.9154, 1169.990
440.3975, 1195.707
440.8796, 1208.534
441.3617, 1211.490
441.8438, 1213.368
442.3260, 1219.681
442.8081, 1229.294
443.2902, 1239.382
443.7723, 1252.681
444.2544, 1259.534
444.7365, 1256.685
445.2187, 1245.900
445.7008, 1227.107
446.1829, 1200.114
446.6650, 1168.701
447.1471, 1135.730
447.6292, 1101.205
448.1114, 1063.575
448.5935, 1019.933
449.0756, 978.7563
449.5577, 951.3663
450.0398, 932.9252
450.5219, 908.4658
451.0041, 867.7357
451.4862, 823.9154
451.9683, 789.3899
452.4504, 763.3954
452.9325, 741.5031
453.4146, 722.9068
453.8968, 705.8522
454.3789, 685.6098
454.8610, 659.9523
455.3431, 638.7674
455.8252, 626.8356
456.3073, 619.1252
456.7895, 609.9484
457.2716, 598.6719
457.7537, 588.3630
458.2358, 581.9305
458.7179, 579.3693
459.2000, 575.1888
459.6822, 568.3751
460.1643, 561.3962
460.6464, 552.8009
461.1285, 545.1343
461.6106, 543.3718
462.0927, 549.0784
462.5748, 556.7000
463.0569, 556.6171
463.5391, 545.6771
464.0212, 535.4688
464.5033, 525.4212
464.9854, 516.5939
465.4675, 509.4929
465.9496, 504.0176
466.4318, 500.0533
466.9139, 497.9810
467.3960, 496.7880
467.8781, 494.0622
468.3602, 491.5379
468.8423, 482.8004
469.3245, 454.9438
469.8066, 426.9513
470.2887, 417.0170
470.7708, 427.3193
471.2529, 438.7777
471.7350, 434.5746
472.2172, 419.1198
472.6993, 409.8387
473.1814, 409.9782
473.6635, 411.0893
474.1456, 406.4513
474.6277, 398.3961
475.1099, 392.2267
475.5920, 390.9158
476.0741, 388.9374
476.5562, 383.1425
477.0383, 373.6889
477.5204, 358.8444
478.0026, 336.4536
478.4847, 315.1171
478.9668, 308.2019
479.4489, 319.1236
479.9310, 328.3303
480.4131, 336.5905
480.8953, 341.3622
481.3774, 338.6626
481.8595, 330.5934
482.3416, 323.8688
482.8237, 322.6599
483.3058, 324.8965
483.7880, 323.5077
484.2701, 317.5767
484.7522, 308.8963
485.2343, 291.5951
485.7164, 275.8672
486.1985, 271.1567
486.6807, 277.1369
487.1628, 285.4064
487.6449, 288.5807
488.1270, 287.0213
488.6091, 286.2540
489.0912, 288.3315
489.5734, 287.7750
490.0555, 278.8548
490.5376, 268.6711
491.0197, 266.8034
491.5018, 276.3139
491.9839, 286.8616
492.4661, 287.9256
492.9482, 280.2402
493.4303, 269.0126
493.9124, 251.4154
494.3945, 237.1360
494.8766, 236.1329
495.3588, 244.6614
495.8409, 253.7754
496.3230, 262.7486
496.8051, 270.2467
497.2872, 277.3853
497.7693, 282.6099
498.2515, 278.0547
498.7336, 258.5603
499.2157, 234.4937
499.6978, 222.4559
500.1799, 225.4795
500.6620, 229.3055
501.1442, 235.5487
501.6263, 240.3186
502.1084, 239.9729
502.5905, 235.5946
503.0726, 230.4286
503.5547, 226.0856
504.0369, 223.6198
504.5190, 227.1788
505.0011, 245.7899
505.4832, 255.9169
505.9653, 250.3047
506.4474, 241.1858
506.9296, 236.5329
507.4117, 237.2849
507.8938, 240.9083
508.3759, 246.2797
508.8580, 252.7218
509.3401, 256.0190
509.8223, 255.5509
510.3044, 253.2606
510.7865, 248.3141
511.2686, 242.7409
511.7507, 238.2860
512.2328, 235.2282
512.7150, 233.6069
513.1971, 232.7029
513.6792, 233.2469
514.1613, 239.2706
514.6434, 253.0570
515.1255, 263.3999
515.6077, 259.1783
516.0898, 244.2066
516.5719, 236.1314
517.0540, 240.8021
517.5361, 246.0713
518.0182, 245.8227
518.5004, 242.7238
518.9825, 241.5651
519.4646, 243.6234
519.9467, 246.1727
520.4288, 245.6313
520.9109, 241.0564
521.3931, 239.8388
521.8752, 247.8850
522.3573, 252.2883
522.8394, 244.3802
523.3215, 231.1720
523.8036, 223.9037
524.2858, 227.0161
524.7679, 234.5971
525.2500, 235.8699
525.7321, 228.1242
526.2142, 228.1535
526.6964, 248.4020
527.1785, 264.1452
527.6606, 260.9017
528.1427, 244.7509
528.6248, 229.0677
529.1069, 217.9528
529.5891, 212.4171
530.0712, 216.6833
530.5533, 230.0294
531.0354, 240.2751
531.5175, 244.4283
531.9996, 243.7116
532.4818, 235.5829
532.9639, 220.8421
533.4460, 215.0478
533.9281, 229.1806
534.4102, 246.8336
534.8923, 256.8854
535.3745, 259.5807
535.8566, 257.2305
536.3387, 250.4502
536.8208, 241.6104
537.3029, 235.7284
537.7850, 234.9503
538.2672, 232.6476
538.7493, 227.5408
539.2314, 222.2074
539.7135, 216.2423
540.1956, 211.2799
540.6777, 211.4199
541.1599, 219.8148
541.6420, 232.2148
542.1241, 237.3970
542.6062, 233.1726
543.0883, 228.7823
543.5704, 223.6766
544.0526, 220.8053
544.5347, 224.4615
545.0168, 232.9340
545.4989, 238.0164
545.9810, 232.7479
546.4631, 223.0591
546.9453, 217.4092
547.4274, 215.7650
547.9095, 218.6027
548.3916, 228.7816
548.8737, 240.2985
549.3558, 240.9596
549.8380, 229.2459
550.3201, 220.0485
550.8022, 217.0916
551.2843, 216.9823
551.7664, 218.4104
552.2485, 220.3771
552.7307, 220.1219
553.2128, 215.7526
553.6949, 209.5036
554.1770, 207.7178
554.6591, 212.8471
555.1412, 218.2639
555.6234, 224.1344
556.1055, 229.9503
556.5876, 236.7816
557.0697, 243.4408
557.5518, 246.6653
558.0339, 243.9534
558.5161, 237.3978
558.9982, 231.3071
559.4803, 225.5374
559.9624, 221.3206
560.4445, 219.8466
560.9266, 219.3130
561.4088, 216.6807
561.8909, 212.4551
562.3730, 212.3703
562.8551, 223.3381
563.3372, 236.1084
563.8193, 240.4646
564.3015, 237.3647
564.7836, 233.1598
565.2657, 230.7594
565.7478, 228.2472
566.2299, 221.4792
566.7120, 206.1962
567.1942, 197.5818
567.6763, 201.1666
568.1584, 206.2788
568.6405, 206.2735
569.1226, 202.8689
569.6047, 201.0288
570.0869, 203.3500
570.5690, 208.5371
571.0511, 214.4441
571.5332, 221.8855
572.0153, 227.1128
572.4974, 230.1641
572.9796, 230.2984
573.4617, 224.9110
573.9438, 216.3437
574.4259, 210.6153
574.9080, 210.9767
575.3901, 213.9611
575.8723, 217.5820
576.3544, 221.0189
576.8365, 217.6933
577.3186, 203.1457
577.8007, 189.5987
578.2828, 193.8140
578.7650, 217.0893
579.2471, 228.3595
579.7292, 215.1419
580.2113, 202.0239
580.6934, 202.7246
581.1755, 210.7521
581.6577, 213.8916
582.1398, 208.3281
582.6219, 201.5090
583.1040, 204.8488
583.5861, 220.8441
584.0682, 226.9438
584.5504, 211.3604
585.0325, 199.9879
585.5146, 203.3124
585.9967, 214.0289
586.4788, 223.5653
586.9609, 229.6930
587.4431, 232.2763
587.9252, 229.0686
588.4073, 221.9400
588.8894, 218.7413
589.3715, 221.0226
589.8536, 223.2898
590.3358, 220.6687
590.8179, 215.5049
591.3000, 216.2386
591.7821, 229.2921
592.2642, 236.6804
592.7463, 227.8881
593.2285, 213.3351
593.7106, 204.1104
594.1927, 201.5303
594.6748, 201.8695
595.1569, 202.6333
595.6390, 203.4495
596.1212, 201.8271
596.6033, 192.6391
597.0854, 190.2003
597.5675, 203.4259
598.0496, 217.4307
598.5317, 219.8040
599.0139, 212.0026
599.4960, 205.5920
599.9781, 208.9074
600.4602, 217.4119
600.9423, 223.0929
601.4244, 225.9410
601.9066, 226.6689
602.3887, 224.8218
602.8708, 221.9231
603.3529, 220.6684
603.8350, 221.1867
604.3171, 218.8385
604.7993, 206.4745
605.2814, 197.2039
605.7635, 201.8932
606.2456, 215.6573
606.7277, 228.8635
607.2098, 237.6644
607.6920, 241.4994
608.1741, 238.4362
608.6562, 226.5950
609.1383, 218.0933
609.6204, 213.1245
610.1025, 211.5896
610.5847, 215.5119
611.0668, 221.9926
611.5489, 227.7447
612.0310, 231.9541
612.5131, 233.8726
612.9952, 232.1736
613.4774, 227.6062
613.9595, 221.8326
614.4416, 214.6055
614.9237, 209.1983
615.4058, 207.9608
615.8879, 209.9262
616.3701, 211.9530
616.8522, 214.3425
617.3343, 216.2014
617.8164, 218.6555
618.2985, 219.5728
618.7806, 214.7400
619.2628, 206.0739
619.7449, 201.0721
620.2270, 204.8625
620.7091, 214.2237
621.1912, 219.4583
621.6733, 217.8539
622.1555, 220.3490
622.6376, 235.2866
623.1197, 248.0064
623.6018, 249.1789
624.0839, 241.5396
624.5660, 232.7758
625.0482, 223.8393
625.5303, 218.0828
626.0124, 221.7881
626.4945, 231.8689
626.9766, 237.4243
627.4587, 235.7213
627.9409, 230.9687
628.4230, 225.9977
628.9051, 220.9363
629.3872, 221.8305
629.8693, 235.8922
630.3514, 245.8071
630.8336, 248.0164
631.3157, 244.3262
631.7978, 232.3019
632.2799, 214.6562
632.7620, 203.8302
633.2441, 213.3499
633.7263, 236.3136
634.2084, 243.5539
634.6905, 230.2774
635.1726, 220.4272
635.6547, 223.7331
636.1368, 230.9687
636.6190, 231.0170
637.1011, 224.6986
637.5832, 224.1955
638.0653, 239.5981
638.5474, 256.7771
639.0295, 264.8661
639.5117, 265.2969
639.9938, 260.1279
640.4759, 250.0432
640.9580, 242.6459
641.4401, 249.5169
641.9222, 273.4474
642.4044, 285.4427
642.8865, 272.7033
643.3686, 262.6852
643.8507, 262.5667
644.3328, 267.1921
644.8149, 271.4824
645.2971, 274.2611
645.7792, 276.1381
646.2613, 277.5747
646.7434, 278.4545
647.2255, 277.4433
647.7076, 274.3504
648.1898, 275.1234
648.6719, 284.8573
649.1540, 296.3492
649.6361, 295.1557
650.1182, 277.0960
650.6003, 268.6674
651.0825, 279.8876
651.5646, 293.3209
652.0467, 299.4624
652.5288, 300.5744
653.0109, 301.1042
653.4930, 302.8501
653.9752, 306.5336
654.4573, 314.5566
654.9394, 327.1542
655.4215, 333.7563
655.9036, 331.9428
656.3857, 328.9062
656.8679, 327.1633
657.3500, 326.2773
657.8321, 326.0405
658.3142, 326.5450
658.7963, 326.6525
659.2784, 323.6796
659.7606, 321.5081
660.2427, 326.1279
660.7248, 336.0214
661.2069, 344.1999
661.6890, 347.3735
662.1711, 347.0111
662.6533, 344.9603
663.1354, 338.6781
663.6175, 339.7300
664.0996, 357.1008
664.5817, 372.0474
665.0638, 375.8468
665.5460, 374.8426
666.0281, 378.0976
666.5102, 388.0827
666.9923, 399.6581
667.4744, 409.5985
667.9565, 417.6382
668.4387, 424.0964
668.9208, 429.0150
669.4029, 426.9129
669.8850, 410.8878
670.3671, 392.0733
670.8492, 394.9931
671.3314, 431.6862
671.8135, 458.5433
672.2956, 469.6944
672.7777, 475.9305
673.2598, 480.5192
673.7419, 484.7757
674.2241, 490.0724
674.7062, 496.8722
675.1883, 504.3485
675.6704, 510.1099
676.1525, 514.8610
676.6346, 526.8856
677.1168, 548.9381
677.5989, 569.8582
678.0810, 585.3275
678.5631, 595.5778
679.0452, 599.7640
679.5273, 595.6395
680.0095, 597.3531
680.4916, 611.8621
680.9737, 630.2899
681.4558, 648.2599
681.9379, 664.4373
682.4200, 675.4625
682.9022, 680.1624
683.3843, 685.4252
683.8664, 701.8676
684.3485, 730.1927
684.8306, 758.7068
685.3127, 788.5819
685.7949, 816.3356
686.2770, 838.6855
686.7591, 859.0419
687.2412, 879.9869
687.7233, 901.5270
688.2054, 927.8398
688.6876, 964.9121
689.1697, 1004.643
689.6518, 1036.469
690.1339, 1062.994
690.6160, 1094.137
691.0981, 1133.993
691.5803, 1177.359
692.0624, 1216.725
692.5445, 1250.448
693.0266, 1292.270
693.5087, 1346.749
693.9908, 1403.126
694.4730, 1461.705
694.9551, 1518.677
695.4372, 1569.847
695.9193, 1614.814
696.4014, 1658.624
696.8835, 1701.916
697.3657, 1747.319
697.8478, 1801.306
698.3299, 1861.670
698.8120, 1916.408
699.2941, 1960.203
699.7762, 2004.702
700.2584, 2066.192
700.7405, 2147.176
701.2226, 2213.635
701.7047, 2255.075
702.1868, 2294.160
702.6689, 2335.143
703.1511, 2375.014
703.6332, 2409.513
704.1153, 2439.119
704.5974, 2470.762
705.0795, 2510.918
705.5616, 2553.556
706.0438, 2591.596
706.5259, 2624.145
707.0080, 2645.092
707.4901, 2652.039
707.9722, 2650.860
708.4543, 2649.359
708.9365, 2647.154
709.4186, 2624.485
709.9007, 2573.427
710.3828, 2513.396
710.8649, 2445.006
711.3470, 2370.281
711.8292, 2289.975
712.3113, 2204.781
712.7934, 2117.397
713.2755, 2028.859
713.7576, 1939.694
714.2397, 1847.911
714.7219, 1755.095
715.2040, 1669.845
715.6861, 1595.911
716.1682, 1521.825
716.6503, 1436.629
717.1324, 1344.109
717.6146, 1263.850
718.0967, 1198.792
718.5788, 1141.336
719.0609, 1095.163
719.5430, 1052.752
720.0251, 1007.282
720.5073, 961.0078
720.9894, 921.9915
721.4715, 895.0965
721.9536, 869.5726
722.4357, 827.2831
722.9178, 772.1901
723.4000, 729.6351
723.8821, 702.8105
724.3642, 683.6313
724.8463, 669.6578
725.3284, 658.4307
725.8105, 644.2936
726.2927, 627.5680
726.7748, 607.0438
727.2569, 577.4946
727.7390, 549.2106
728.2211, 526.0083
728.7032, 508.6584
729.1854, 499.1689
729.6675, 497.8490
730.1496, 498.8454
730.6317, 498.5851
731.1138, 495.6651
731.5959, 481.7832
732.0781, 455.6786
732.5602, 436.2460
733.0423, 433.2932
733.5244, 436.7131
734.0065, 431.5604
734.4886, 415.7379
734.9708, 403.8729
735.4529, 399.7039
735.9350, 394.9944
736.4171, 384.2782
736.8992, 373.1043
737.3813, 368.8450
737.8635, 371.6915
738.3456, 374.5366
738.8277, 372.0581
739.3098, 366.2369
739.7919, 359.9536
740.2740, 353.4171
740.7562, 350.7848
741.2383, 354.0540
741.7204, 357.8499
742.2025, 357.3749
742.6846, 352.9385
743.1667, 347.7950
743.6489, 339.4100
744.1310, 333.9351
744.6131, 333.8012
745.0952, 335.3190
745.5773, 336.6768
746.0594, 337.2667
746.5416, 336.1169
747.0237, 332.3659
747.5058, 328.7570
747.9879, 329.7410
748.4700, 333.7606
748.9521, 334.0536
749.4343, 329.6690
749.9164, 327.9858
750.3985, 334.9955
750.8806, 344.6668
751.3627, 342.3389
751.8448, 319.0387
752.3270, 307.1385
752.8091, 312.0967
753.2912, 321.3151
753.7733, 334.4268
754.2554, 346.6603
754.7375, 349.6826
755.2197, 342.4823
755.7018, 338.6948
756.1839, 354.9349
756.6660, 377.6298
757.1481, 380.4320
757.6302, 367.2051
758.1124, 361.3617
758.5945, 370.7710
759.0766, 387.0977
759.5587, 401.1047
760.0408, 412.8843
760.5229, 429.2565
761.0051, 452.7099
761.4872, 477.2321
761.9693, 500.6236
762.4514, 525.8369
762.9335, 557.3704
763.4156, 592.8568
763.8978, 623.9365
764.3799, 644.3528
764.8620, 665.5777
765.3441, 698.7441
765.8262, 738.7126
766.3083, 776.4093
766.7905, 810.8917
767.2726, 845.3441
767.7547, 881.9926
768.2368, 919.0696
768.7189, 950.7814
769.2010, 973.9552
769.6832, 1004.411
770.1653, 1048.113
770.6474, 1091.026
771.1295, 1123.536
771.6116, 1153.673
772.0938, 1190.509
772.5759, 1234.905
773.0580, 1286.350
773.5401, 1348.950
774.0222, 1414.365
774.5043, 1479.427
774.9865, 1541.216
775.4686, 1594.994
775.9507, 1639.507
776.4328, 1678.331
776.9149, 1716.395
777.3970, 1750.724
777.8792, 1767.949
778.3613, 1768.074
778.8434, 1751.584
779.3255, 1717.884
779.8076, 1668.624
780.2897, 1601.221
780.7719, 1518.412
781.2540, 1434.844
781.7361, 1351.115
782.2182, 1265.973
782.7003, 1173.732
783.1824, 1084.534
783.6646, 1005.953
784.1467, 937.6471
784.6288, 875.8986
785.1109, 818.7975
785.5930, 769.2063
786.0751, 732.9269
786.5573, 707.1694
787.0394, 680.6568
787.5215, 653.0054
788.0036, 625.9817
788.4857, 599.8616
788.9678, 576.1979
789.4500, 557.9244
789.9321, 545.8927
790.4142, 532.1696
790.8963, 513.7063
791.3784, 497.5365
791.8605, 483.9513
792.3427, 474.0583
792.8248, 471.4735
793.3069, 474.0136
793.7890, 472.1723
794.2711, 459.2370
794.7532, 444.1747
795.2354, 435.3205
795.7175, 430.7973
796.1996, 427.3629
796.6817, 424.2833
797.1638, 419.9120
797.6459, 412.8497
798.1281, 405.6007
798.6102, 404.7141
799.0923, 412.5890
799.5744, 416.7326
800.0565, 416.2009
800.5386, 413.4306
801.0208, 407.5422
801.5029, 401.0223
801.9850, 395.9500
802.4671, 392.3465
802.9492, 392.9628
803.4313, 401.0706
803.9135, 410.9713
804.3956, 421.6849
804.8777, 430.7711
805.3598, 432.9337
805.8419, 428.8956
806.3240, 426.8613
806.8062, 433.0218
807.2883, 445.0374
807.7704, 460.1510
808.2525, 478.0139
808.7346, 486.8615
809.2167, 482.3259
809.6989, 481.0968
810.1810, 495.6630
810.6631, 520.1609
811.1452, 538.2074
811.6273, 545.9330
812.1094, 555.7784
812.5916, 568.3125
813.0737, 582.2218
813.5558, 597.4366
814.0379, 613.3894
814.5200, 628.3929
815.0021, 642.5310
815.4843, 659.9464
815.9664, 687.2682
816.4485, 715.8294
816.9306, 733.0513
817.4127, 743.6761
817.8948, 761.6400
818.3770, 789.2160
818.8591, 814.3470
819.3412, 826.6541
819.8233, 830.6452
820.3054, 840.8777
820.7875, 858.9162
821.2697, 876.5632
821.7518, 893.6202
822.2339, 909.5737
822.7160, 926.2269
823.1981, 940.6351
823.6802, 945.9699
824.1624, 939.4437
824.6445, 936.6151
825.1266, 950.5203
825.6087, 958.1906
826.0908, 944.5558
826.5729, 917.9498
827.0551, 889.9749
827.5372, 863.0372
828.0193, 833.1991
828.5014, 797.6125
828.9835, 757.6550
829.4656, 713.0780
829.9478, 665.6449
830.4299, 624.8358
830.9120, 592.4628
831.3941, 560.2155
831.8762, 520.9554
832.3583, 480.4754
832.8404, 455.0294
833.3225, 451.4909
833.8046, 443.2551
834.2867, 426.7031
834.7689, 410.1793
835.2510, 393.3594
835.7331, 380.1100
836.2152, 376.8447
836.6973, 383.8409
837.1794, 388.5739
837.6616, 385.3317
838.1437, 380.4820
838.6258, 378.1715
839.1079, 376.4878
839.5900, 372.8168
840.0721, 366.8855
840.5543, 359.7094
841.0364, 351.7827
841.5185, 343.5767
842.0006, 335.7008
842.4827, 328.2345
842.9648, 322.4817
843.4470, 318.9173
843.9291, 312.4715
844.4112, 299.7522
844.8933, 284.7474
845.3754, 274.0634
845.8575, 268.1220
846.3397, 263.8406
846.8218, 263.7017
847.3039, 261.8413
847.7860, 255.6304
848.2681, 248.4815
848.7502, 243.2989
849.2324, 239.7859
849.7145, 235.8220
850.1966, 230.1561
850.6787, 224.9988
851.1608, 220.3920
851.6429, 217.8017
852.1251, 220.1463
852.6072, 226.0023
853.0893, 232.5448
853.5714, 238.3593
854.0535, 238.6162
854.5356, 222.2087
855.0178, 194.7291
855.4999, 183.5325
855.9820, 188.9870
856.4641, 195.8491
856.9462, 199.9646
857.4283, 202.9198
857.9105, 206.8660
858.3926, 211.1002
858.8747, 209.7294
859.3568, 196.4528
859.8389, 188.6299
860.3210, 192.9155
860.8032, 196.6272
861.2853, 191.9120
861.7674, 183.1226
862.2495, 177.6390
862.7316, 176.8062
863.2137, 177.9232
863.6959, 181.3431
864.1780, 184.8224
864.6601, 186.4260
865.1422, 186.9639
865.6243, 188.6805
866.1064, 191.3592
866.5886, 191.1945
867.0707, 184.7301
867.5528, 175.5795
868.0349, 169.4563
868.5170, 166.4357
868.9991, 168.0678
869.4813, 174.7731
869.9634, 180.3764
870.4455, 181.8473
870.9276, 179.2610
871.4097, 171.6066
871.8918, 156.8092
872.3740, 151.6273
872.8561, 163.8373
873.3382, 173.0209
873.8203, 173.3634
874.3024, 168.9730
874.7845, 159.5664
875.2667, 147.4254
875.7488, 142.3055
876.2309, 148.7701
876.7130, 157.7664
877.1951, 172.3222
877.6772, 182.7585
878.1594, 175.3203
878.6415, 158.3906
879.1236, 150.8615
879.6057, 158.5661
880.0878, 169.7176
880.5699, 175.1049
881.0521, 176.0260
881.5342, 174.0977
882.0163, 169.7239
882.4984, 163.2910
882.9805, 155.1038
883.4626, 150.2356
883.9448, 153.1630
884.4269, 161.1014
884.9090, 166.2973
885.3911, 168.7402
885.8732, 167.6679
886.3553, 159.8773
886.8375, 156.4821
887.3196, 168.1739
887.8017, 182.3931
888.2838, 177.3122
888.7659, 150.4762
889.2480, 135.6944
889.7302, 141.4970
890.2123, 149.2050
890.6944, 155.3711
891.1765, 160.7503
891.6586, 167.5582
892.1407, 174.0673
892.6229, 174.5182
893.1050, 165.3577
893.5871, 158.1027
894.0692, 162.7468
894.5513, 171.5829
895.0334, 178.2515
895.5156, 181.1941
895.9977, 176.0988
896.4798, 162.9234
896.9619, 150.7309
897.4440, 148.0060
897.9261, 151.1937
898.4083, 152.5212
898.8904, 151.9165
899.3725, 146.7865
899.8546, 135.8899
900.3367, 130.3491
900.8188, 138.1141
901.3010, 151.7328
901.7831, 156.1186
902.2652, 148.8625
902.7473, 148.0648
903.2294, 158.3863
903.7115, 167.0449
904.1937, 173.4286
904.6758, 174.3793
905.1579, 161.1470
905.6400, 139.2335
906.1221, 132.3974
906.6042, 155.5013
907.0864, 171.4387
907.5685, 165.5101
908.0506, 154.9965
908.5327, 150.5263
909.0148, 149.9863
909.4969, 149.1803
909.9791, 146.9101
910.4612, 142.6810
910.9433, 130.8652
911.4254, 122.1095
911.9075, 132.4871
912.3896, 152.7266
912.8718, 165.3665
913.3539, 168.0447
913.8360, 164.6785
914.3181, 157.1215
914.8002, 149.6475
915.2823, 149.8475
915.7645, 156.6530
916.2466, 163.4717
916.7287, 170.4805
917.2108, 170.1595
917.6929, 158.6916
918.1750, 145.0829
918.6572, 137.8653
919.1393, 136.3173
919.6214, 136.2374
920.1035, 138.0937
920.5856, 140.2763
921.0677, 142.4647
921.5499, 145.2799
922.0320, 151.2654
922.5141, 156.8873
922.9962, 156.4147
923.4783, 149.2727
923.9604, 144.2642
924.4426, 143.4884
924.9247, 143.8291
925.4068, 144.6956
925.8889, 145.8861
926.3710, 147.6723
926.8531, 149.6041
927.3353, 150.8775
927.8174, 151.3881
928.2995, 150.0089
928.7816, 142.3519
929.2637, 135.4077
929.7458, 137.6527
930.2280, 146.3282
930.7101, 158.3625
931.1922, 171.0066
931.6743, 173.8880
932.1564, 157.2913
932.6385, 133.8447
933.1207, 124.2807
933.6028, 126.9477
934.0849, 137.7240
934.5670, 155.5945
935.0491, 168.8479
935.5313, 172.4816
936.0134, 168.8884
936.4955, 159.7838
936.9776, 146.1523
937.4597, 137.5431
937.9418, 133.9491
938.4240, 136.4429
938.9061, 150.0176
939.3882, 159.2949
939.8703, 151.8995
940.3524, 135.3782
940.8345, 125.6917
941.3167, 123.0985
941.7988, 126.3733
942.2809, 143.3336
942.7630, 155.5881
943.2451, 154.8519
943.7272, 151.1113
944.2094, 152.5263
944.6915, 158.0735
945.1736, 163.2829
945.6557, 169.1480
946.1378, 169.3893
946.6199, 155.2294
947.1021, 141.2273
947.5842, 140.6017
948.0663, 145.5007
948.5484, 141.5928
949.0305, 128.2989
949.5126, 120.0598
949.9948, 127.6087
950.4769, 138.7393
950.9590, 143.2522
951.4411, 142.4962
951.9232, 135.1767
952.4053, 124.6006
952.8875, 122.5511
953.3696, 132.9538
953.8517, 143.7730
954.3338, 140.1537
954.8159, 147.3676
955.2980, 150.0288
955.7802, 146.8358
956.2623, 151.9884
956.7444, 144.2338
957.2265, 137.1730
957.7086, 139.1432
958.1907, 145.2963
958.6729, 147.1734
959.1550, 144.7107
959.6371, 139.6524
960.1192, 130.6967
960.6013, 124.6308
961.0834, 123.8334
961.5656, 124.7565
962.0477, 124.0713
962.5298, 127.5294
963.0119, 126.0919
963.4940, 135.8712
963.9761, 143.4168
964.4583, 149.6787
964.9404, 152.3871
965.4225, 149.5186
965.9046, 143.9466
966.3867, 136.4087
966.8688, 128.0052
967.3510, 124.9529
967.8331, 134.7280
968.3152, 138.2923
968.7973, 120.5884
969.2794, 107.0153
969.7615, 118.9093
970.2437, 141.5259
970.7258, 154.0133
971.2079, 153.3177
971.6900, 148.3352
972.1721, 138.0116
972.6542, 131.5271
973.1364, 140.0219
973.6185, 151.3534
974.1006, 150.2567
974.5827, 140.6039
975.0648, 134.8318
975.5469, 136.8383
976.0291, 140.4552
976.5112, 140.2978
976.9933, 139.1369
977.4754, 141.1705
977.9575, 145.0083
978.4396, 147.5237
978.9218, 148.4986
979.4039, 149.9904
979.8860, 153.0742
980.3681, 154.6729
980.8502, 149.5663
981.3323, 139.8626
981.8145, 133.3201
982.2966, 129.5655
982.7787, 123.7785
983.2608, 114.9272
983.7429, 112.7007
984.2250, 124.7971
984.7072, 142.8464
985.1893, 149.3558
985.6714, 143.9058
986.1535, 139.7988
986.6356, 137.1339
987.1177, 135.1065
987.5999, 133.2420
988.0820, 132.9315
988.5641, 136.2400
989.0462, 141.3006
989.5283, 141.1665
990.0104, 132.8343
990.4926, 129.1129
990.9747, 132.4941
991.4568, 135.8050
991.9389, 137.0786
992.4210, 136.8634
992.9031, 134.4153
993.3853, 130.5491
993.8674, 130.9671
994.3495, 141.0344
994.8316, 146.2638
995.3137, 144.2767
995.7958, 139.9256
996.2780, 130.2430
996.7601, 122.5007
997.2422, 128.6342
997.7243, 146.4210
998.2064, 154.0588
998.6885, 140.4734
999.1707, 127.4459
999.6528, 117.9614
1000.135, 113.2083
1000.617, 116.5857
1001.099, 123.8459
1001.581, 128.6017
1002.063, 130.3439
1002.545, 134.0651
1003.028, 145.0284
1003.510, 153.8004
1003.992, 155.3863
1004.474, 152.3088
1004.956, 144.3583
1005.438, 134.4820
1005.920, 126.7565
1006.402, 122.5177
1006.885, 122.8064
1007.367, 132.1082
1007.849, 141.2787
1008.331, 139.5316
1008.813, 144.2732
1009.295, 134.7485
1009.777, 140.5144
1010.259, 139.8963
1010.741, 129.4908
1011.224, 118.1474
1011.706, 112.3081
1012.188, 111.5182
1012.670, 117.1768
1013.152, 126.6875
1013.634, 135.1002
1014.116, 141.2796
1014.598, 142.7935
1015.081, 138.7554
1015.563, 135.8596
1016.045, 143.6248
1016.527, 156.3422
1017.009, 159.6802
1017.491, 155.0232
1017.973, 146.6010
1018.455, 135.9873
1018.937, 133.0065
1019.420, 143.1485
1019.902, 154.7828
1020.384, 150.6266
1020.866, 134.9335
1021.348, 127.6067
1021.830, 128.4788
1022.312, 134.8441
1022.794, 146.8250
1023.276, 151.9842
1023.759, 142.1892
1024.241, 127.3526
1024.723, 123.6191
1025.205, 130.0642
1025.687, 134.0012
1026.169, 135.4737
1026.651, 133.1520
1027.133, 125.4928
1027.616, 119.9051
1028.098, 120.8389
1028.580, 126.7844
1029.062, 136.2533
1029.544, 149.6013
1030.026, 153.1764
1030.508, 143.5487
1030.990, 136.6743
1031.473, 136.7749
1031.955, 136.8579
1032.437, 132.3883
1032.919, 125.1746
1033.401, 117.6643
1033.883, 109.0425
1034.365, 109.1820
1034.847, 123.4382
1035.329, 134.8462
1035.812, 142.4137
1036.294, 143.1935
1036.776, 129.4269
1037.258, 111.5281
1037.740, 111.8595
1038.222, 134.6291
1038.704, 147.6644
1039.186, 145.0433
1039.668, 142.2719
1040.151, 143.1526
1040.633, 142.9095
1041.115, 138.0332
1041.597, 130.2633
1042.079, 121.2940
1042.561, 109.4101
1043.043, 107.5921
1043.525, 126.2682
1044.008, 140.6219
1044.490, 146.6286
1044.972, 147.1244
1045.454, 139.3980
1045.936, 129.0438
1046.418, 126.6250
1046.900, 133.6867
1047.382, 139.3628
1047.865, 142.9460
1048.347, 144.4497
1048.829, 144.2848
1049.311, 141.6300
1049.793, 133.1513
1050.275, 123.0014
1050.757, 118.6527
1051.239, 121.1270
1051.721, 123.2981
1052.203, 122.5421
1052.686, 123.0779
1053.168, 126.7958
1053.650, 131.4646
1054.132, 135.7892
1054.614, 139.8995
1055.096, 146.0272
1055.578, 154.2274
1056.060, 154.4904
1056.543, 134.4934
1057.025, 119.6581
1057.507, 121.3360
1057.989, 127.5741
1058.471, 130.4525
1058.953, 131.8142
1059.435, 137.1705
1059.917, 146.6338
1060.400, 150.2704
1060.882, 139.4438
1061.364, 129.8566
1061.846, 128.4043
1062.328, 128.7876
1062.810, 126.2175
1063.292, 122.5933
1063.774, 121.4581
1064.256, 123.0407
1064.739, 124.5621
1065.221, 125.9936
1065.703, 125.6133
1066.185, 119.9530
1066.667, 115.0800
1067.149, 115.1747
1067.631, 118.9421
1068.113, 126.0191
1068.595, 135.0012
1069.078, 139.8658
1069.560, 137.3617
1070.042, 133.0038
1070.524, 124.2504
1071.006, 119.7999
1071.488, 132.3522
1071.970, 148.8644
1072.452, 150.2246
1072.935, 137.4473
1073.417, 126.9881
1073.899, 124.3036
1074.381, 124.7547
1074.863, 128.6852
1075.345, 132.2934
1075.827, 133.9165
1076.309, 133.1095
1076.792, 128.1100
1077.274, 120.2846
1077.756, 113.7943
1078.238, 109.2257
1078.720, 109.3518
1079.202, 120.4968
1079.684, 131.0173
1080.166, 134.8688
1080.648, 133.2718
1081.130, 124.1556
1081.613, 111.6428
1082.095, 106.1698
1082.577, 111.2624
1083.059, 117.6730
1083.541, 121.5422
1084.023, 125.3744
1084.505, 132.3869
1084.987, 138.5621
1085.469, 138.1945
1085.952, 134.2041
1086.434, 134.3043
1086.916, 140.3721
1087.398, 144.6987
1087.880, 142.9624
1088.362, 140.1979
1088.844, 137.1266
1089.326, 135.6114
1089.809, 138.1975
1090.291, 143.0771
1090.773, 148.7917
1091.255, 154.4904
1091.737, 153.0072
1092.219, 130.9181
1092.701, 116.3999
1093.183, 128.1654
1093.666, 143.2442
1094.148, 142.9060
1094.630, 136.2992
1095.112, 139.1279
1095.594, 151.6924
1096.076, 160.9656
1096.558, 162.7565
1097.040, 161.7359
1097.522, 158.9688
1098.005, 154.3270
1098.487, 143.7171
1098.969, 134.0230
1099.451, 135.9629
1099.933, 146.6103
1100.415, 150.5663
1100.897, 141.7668
1101.379, 134.5394
1101.861, 132.8695
1102.344, 133.0906
1102.826, 136.6757
1103.308, 138.8537
1103.790, 132.8618
1104.272, 122.3130
1104.754, 117.3176
1105.236, 119.7763
1105.718, 124.4281
1106.201, 135.0789
1106.683, 141.3291
1107.165, 135.2644
1107.647, 128.7440
1108.129, 132.1996
1108.611, 140.1922
1109.093, 142.4239
1109.575, 138.0086
1110.057, 131.5481
1110.540, 117.0093
1111.022, 110.0996
1111.504, 119.1870
1111.986, 129.4422
1112.468, 135.9291
1112.950, 137.9809
1113.432, 132.7336
1113.914, 120.9043
1114.396, 114.0472
1114.879, 112.4618
1115.361, 115.5448
1115.843, 129.6385
1116.325, 139.1667
1116.807, 136.2426
1117.289, 129.2536
1117.771, 125.7388
1118.253, 124.7313
1118.736, 122.2551
1119.218, 116.8486
1119.700, 114.7767
1120.182, 116.4359
1120.664, 121.0753
1121.146, 131.5874
1121.628, 139.4701
1122.110, 137.4841
1122.593, 129.9380
1123.075, 125.6172
1123.557, 124.6518
1124.039, 125.0301
1124.521, 127.3461
1125.003, 128.8151
1125.485, 128.8423
1125.967, 128.8799
1126.449, 130.4899
1126.932, 130.1064
1127.414, 121.4533
1127.896, 122.3716
1128.378, 121.2302
1128.860, 116.2536
1129.342, 121.2458
1129.824, 117.0433
1130.306, 114.1321
1130.788, 116.0240
1131.271, 123.2147
1131.753, 137.7724
1132.235, 153.6407
1132.717, 152.6608
1133.199, 136.4017
1133.681, 126.4768
1134.163, 123.3013
1134.645, 126.9921
1135.128, 137.3346
1135.610, 142.3643
1136.092, 134.0110
1136.574, 121.8275
1137.056, 121.4589
1137.538, 115.6770
1138.020, 111.5656
1138.502, 113.6330
1138.984, 108.8258
1139.467, 111.2150
1139.949, 115.7523
1140.431, 120.1470
1140.913, 121.8042
1141.395, 116.3926
1141.877, 110.3996
1142.359, 115.7168
1142.841, 127.6076
1143.323, 139.0922
1143.806, 147.7434
1144.288, 147.1262
1144.770, 137.6549
1145.252, 130.4249
1145.734, 132.7154
1146.216, 135.9440
1146.698, 129.6639
1147.180, 121.7491
1147.663, 121.4469
1148.145, 125.8059
1148.627, 132.3785
1149.109, 138.2526
1149.591, 135.5642
1150.073, 121.4557
1150.555, 111.1154
1151.037, 117.6993
1151.520, 125.9041
1152.002, 124.6611
1152.484, 121.5852
1152.966, 125.3075
1153.448, 131.8648
1153.930, 132.8063
1154.412, 127.5976
1154.894, 123.7855
1155.376, 123.6122
1155.859, 125.2249
1156.341, 129.7848
1156.823, 133.9310
1157.305, 138.4874
1157.787, 139.7697
1158.269, 129.6045
1158.751, 113.3048
1159.233, 109.5671
1159.715, 124.5701
1160.198, 133.6864
1160.680, 130.3560
1161.162, 128.5126
1161.644, 133.6421
1162.126, 136.7593
1162.608, 129.2987
1163.090, 120.0092
1163.572, 123.7329
1164.055, 121.8344
1164.537, 121.8110
1165.019, 131.1909
1165.501, 127.3267
1165.983, 137.5525
1166.465, 145.2994
1166.947, 144.7985
1167.429, 139.5159
1167.911, 131.5705
1168.394, 122.8066
1168.876, 117.9325
1169.358, 116.9855
1169.840, 116.5311
1170.322, 116.5565
1170.804, 117.7656
1171.286, 120.2869
1171.768, 127.2075
1172.250, 140.6645
1172.733, 150.6478
1173.215, 143.0573
1173.697, 125.9008
1174.179, 118.3978
1174.661, 119.1348
1175.143, 125.9686
1175.625, 136.5166
1176.107, 142.7437
1176.590, 142.7200
1177.072, 140.9753
1177.554, 140.6196
1178.036, 138.6952
1178.518, 130.1932
1179.000, 119.6556
1179.482, 110.8022
1179.964, 105.4887
1180.447, 108.8653
1180.929, 117.9711
1181.411, 122.2327
1181.893, 118.6742
1182.375, 118.6024
1182.857, 138.5982
1183.339, 150.2919
1183.821, 125.2399
1184.303, 98.23058
1184.786, 99.63985
1185.268, 115.1185
1185.750, 125.8449
1186.232, 129.1323
1186.714, 124.0089
1187.196, 103.0933
1187.678, 95.14263
1188.160, 120.9611
1188.642, 138.7087
1189.125, 125.5218
1189.607, 111.0151
1190.089, 116.8187
1190.571, 133.2870
1191.053, 146.0157
1191.535, 154.9504
1192.017, 152.2358
1192.499, 130.8406
1192.982, 120.2083
1193.464, 127.0860
1193.946, 128.1657
1194.428, 112.4291
1194.910, 98.20149
1195.392, 102.5396
1195.874, 117.4601
1196.356, 123.7052
1196.839, 122.1607
1197.321, 127.4161
1197.803, 138.4347
1198.285, 138.6085
1198.767, 126.1686
1199.249, 113.8563
1199.731, 107.4905
1200.213, 107.2636
1200.695, 115.5769
1201.177, 125.3810
1201.660, 124.4290
1202.142, 116.7450
1202.624, 105.7552
1203.106, 96.29610
1203.588, 102.0228
1204.070, 120.8940
1204.552, 133.2246
1205.034, 129.7926
1205.517, 124.2107
1205.999, 128.7891
1206.481, 131.2843
1206.963, 115.5443
1207.445, 100.2343
1207.927, 108.6427
1208.409, 128.2416
1208.891, 134.8543
1209.374, 126.6894
1209.856, 119.5220
1210.338, 113.0969
1210.820, 115.3149
1211.302, 140.4571
1211.784, 157.1166
1212.266, 147.5952
1212.748, 133.2433
1213.230, 128.7921
1213.713, 129.5615
1214.195, 125.9815
1214.677, 117.9755
1215.159, 114.6009
1215.641, 116.4375
1216.123, 121.4282
1216.605, 130.8660
1217.087, 134.6407
1217.569, 128.2879
1218.052, 120.4790
1218.534, 118.4949
1219.016, 120.8497
1219.498, 126.7451
1219.980, 134.1954
1220.462, 133.2390
1220.944, 125.7862
1221.426, 119.6219
1221.909, 115.8480
1222.391, 113.9984
1222.873, 113.5048
1223.355, 109.5633
1223.837, 94.84145
1224.319, 83.87467
1224.801, 97.47570
1225.283, 117.5050
1225.766, 123.5412
1226.248, 121.9212
1226.730, 123.8222
1227.212, 128.7077
1227.694, 129.1705
1228.176, 122.8744
1228.658, 118.3023
1229.140, 120.0628
1229.622, 121.3069
1230.104, 118.2980
1230.587, 116.2141
1231.069, 120.3605
1231.551, 124.9780
1232.033, 122.1225
1232.515, 125.1600
1232.997, 124.4693
1233.479, 121.5354
1233.961, 121.8831
1234.444, 111.3372
1234.926, 106.7912
1235.408, 112.6880
1235.890, 116.4604
1236.372, 111.3445
1236.854, 105.3909
1237.336, 107.9662
1237.818, 115.6228
1238.301, 119.6647
1238.783, 121.1754
1239.265, 125.3511
1239.747, 130.9774
1240.229, 131.6079
1240.711, 127.4098
1241.193, 126.0286
1241.675, 130.7263
1242.157, 133.5291
1242.640, 124.8359
1243.122, 115.9666
1243.604, 119.0262
1244.086, 124.3955
1244.568, 121.5980
1245.050, 115.3364
1245.532, 113.6499
1246.014, 116.0899
1246.496, 116.4504
1246.979, 112.1294
1247.461, 112.3823
1247.943, 125.7707
1248.425, 133.1028
1248.907, 124.4281
1249.389, 118.4244
1249.871, 127.8419
1250.353, 137.8604
1250.836, 130.4571
1251.318, 111.6874
1251.800, 104.3798
1252.282, 109.6133
1252.764, 108.9020
1253.246, 102.1029
1253.728, 97.52448
1254.210, 96.66588
1254.693, 99.43005
1255.175, 105.7371
1255.657, 113.8671
1256.139, 123.5509
1256.621, 130.3056
1257.103, 121.1907
1257.585, 131.9390
1258.067, 118.7982
1258.549, 139.4295
1259.031, 151.6762
1259.514, 153.2580
1259.996, 146.8844
1260.478, 133.4657
1260.960, 122.3421
1261.442, 115.9785
1261.924, 114.9419
1262.406, 125.2865
1262.888, 134.0035
1263.371, 134.6570
1263.853, 129.7548
1264.335, 116.1932
1264.817, 101.7769
1265.299, 108.6232
1265.781, 139.2264
1266.263, 146.1585
1266.745, 122.6892
1267.228, 111.1591
1267.710, 117.4505
1268.192, 121.4699
1268.674, 115.9030
1269.156, 111.5033
1269.638, 117.1872
1270.120, 126.0875
1270.602, 127.0862
1271.084, 123.2310
1271.567, 121.4794
1272.049, 120.0977
1272.531, 112.6405
1273.013, 102.7529
1273.495, 102.3930
1273.977, 112.6717
1274.459, 121.6326
1274.941, 124.6744
1275.423, 123.3298
1275.906, 111.4130
1276.388, 104.3825
1276.870, 112.8674
1277.352, 125.8353
1277.834, 139.4092
1278.316, 148.9306
1278.798, 146.3490
1279.280, 133.6207
1279.763, 123.3556
1280.245, 113.9914
1280.727, 115.4139
1281.209, 130.5799
1281.691, 137.7033
1282.173, 131.6677
1282.655, 127.4827
1283.137, 133.0483
1283.620, 136.1352
1284.102, 121.7617
1284.584, 101.9055
1285.066, 94.38547
##END=



