##NAMES=Xanthoconite
##RRUFFID=R070746
##IDEAL CHEMISTRY=Ag^1+^_3_As^3+^S^2-^_3_
##LOCALITY=Freiberg District, Erzgebirge, Saxony, Germany
##OWNER=RRUFF
##SOURCE=Michael Scott
##DESCRIPTION=Light brown to yellow bladed crystals, associated with red prismatic proustite
##STATUS=The identification of this mineral is confirmed by single-crystal X-ray diffraction and chemical analysis.
##URL=rruff.info/R070746
##MEASURED CHEMISTRY=Ag_3.00_As_1.00_S_3.00_
127.8412, 2806.181
128.3233, 2887.122
128.8054, 2962.921
129.2875, 3026.835
129.7696, 3079.408
130.2518, 3117.139
130.7339, 3142.320
131.2160, 3173.664
131.6981, 3224.133
132.1802, 3291.236
132.6623, 3359.677
133.1445, 3423.276
133.6266, 3483.380
134.1087, 3547.907
134.5908, 3618.661
135.0729, 3690.120
135.5550, 3758.102
136.0372, 3824.085
136.5193, 3872.715
137.0014, 3893.783
137.4835, 3885.685
137.9656, 3870.255
138.4477, 3849.532
138.9299, 3822.747
139.4120, 3785.465
139.8941, 3735.688
140.3762, 3679.725
140.8583, 3618.982
141.3404, 3550.424
141.8226, 3489.078
142.3047, 3440.595
142.7868, 3406.079
143.2689, 3360.549
143.7510, 3296.877
144.2331, 3228.850
144.7152, 3175.184
145.1974, 3144.678
145.6795, 3113.841
146.1616, 3072.997
146.6437, 3010.672
147.1258, 2968.419
147.6079, 2957.951
148.0901, 2967.084
148.5722, 2963.595
149.0543, 2937.554
149.5364, 2907.698
150.0185, 2882.235
150.5006, 2856.427
150.9828, 2840.427
151.4649, 2840.031
151.9470, 2853.443
152.4291, 2860.387
152.9112, 2850.698
153.3933, 2839.292
153.8755, 2836.598
154.3576, 2852.715
154.8397, 2868.666
155.3218, 2882.938
155.8039, 2896.843
156.2860, 2900.096
156.7682, 2880.546
157.2503, 2852.084
157.7324, 2831.876
158.2145, 2830.713
158.6966, 2833.401
159.1787, 2833.397
159.6609, 2827.809
160.1430, 2824.240
160.6251, 2826.853
161.1072, 2833.381
161.5893, 2838.571
162.0714, 2837.443
162.5536, 2836.145
163.0357, 2838.953
163.5178, 2849.635
163.9999, 2861.674
164.4820, 2872.031
164.9641, 2881.054
165.4463, 2890.563
165.9284, 2901.914
166.4105, 2914.051
166.8926, 2925.825
167.3747, 2936.601
167.8568, 2946.954
168.3390, 2956.668
168.8211, 2965.397
169.3032, 2975.612
169.7853, 2988.191
170.2674, 3003.296
170.7495, 3021.249
171.2317, 3047.614
171.7138, 3074.428
172.1959, 3092.374
172.6780, 3098.566
173.1601, 3102.632
173.6422, 3111.653
174.1244, 3125.185
174.6065, 3141.400
175.0886, 3163.289
175.5707, 3186.408
176.0528, 3202.786
176.5349, 3205.586
177.0171, 3208.361
177.4992, 3234.766
177.9813, 3281.157
178.4634, 3318.494
178.9455, 3308.889
179.4276, 3272.677
179.9098, 3257.458
180.3919, 3292.987
180.8740, 3350.081
181.3561, 3379.442
181.8382, 3379.861
182.3203, 3371.443
182.8025, 3371.685
183.2846, 3379.376
183.7667, 3389.597
184.2488, 3405.261
184.7309, 3422.275
185.2130, 3425.268
185.6951, 3411.375
186.1773, 3394.772
186.6594, 3396.170
187.1415, 3414.146
187.6236, 3432.494
188.1057, 3443.196
188.5878, 3447.103
189.0700, 3448.817
189.5521, 3448.895
190.0342, 3446.437
190.5163, 3440.673
190.9984, 3431.651
191.4805, 3416.549
191.9627, 3386.442
192.4448, 3343.453
192.9269, 3316.517
193.4090, 3315.796
193.8911, 3331.079
194.3732, 3331.410
194.8554, 3315.114
195.3375, 3293.572
195.8196, 3277.998
196.3017, 3268.677
196.7838, 3255.527
197.2659, 3234.342
197.7481, 3206.865
198.2302, 3184.933
198.7123, 3169.854
199.1944, 3156.880
199.6765, 3139.735
200.1586, 3117.564
200.6408, 3096.855
201.1229, 3079.018
201.6050, 3064.148
202.0871, 3055.342
202.5692, 3055.129
203.0513, 3056.956
203.5335, 3046.349
204.0156, 3018.470
204.4977, 2998.097
204.9798, 3002.563
205.4619, 3037.764
205.9440, 3052.800
206.4262, 3040.854
206.9083, 3011.611
207.3904, 2989.320
207.8725, 2975.703
208.3546, 2964.127
208.8367, 2949.437
209.3189, 2929.065
209.8010, 2917.009
210.2831, 2917.926
210.7652, 2927.574
211.2473, 2925.252
211.7294, 2905.185
212.2116, 2884.637
212.6937, 2879.956
213.1758, 2899.583
213.6579, 2906.824
214.1400, 2891.010
214.6221, 2854.588
215.1043, 2834.545
215.5864, 2835.230
216.0685, 2845.821
216.5506, 2856.872
217.0327, 2870.263
217.5148, 2879.630
217.9970, 2882.946
218.4791, 2879.823
218.9612, 2876.189
219.4433, 2871.961
219.9254, 2867.172
220.4075, 2860.653
220.8897, 2848.336
221.3718, 2842.726
221.8539, 2850.187
222.3360, 2875.471
222.8181, 2890.110
223.3002, 2888.787
223.7824, 2879.980
224.2645, 2879.500
224.7466, 2892.073
225.2287, 2904.890
225.7108, 2912.825
226.1929, 2913.603
226.6750, 2915.944
227.1572, 2920.183
227.6393, 2925.930
228.1214, 2932.532
228.6035, 2941.179
229.0856, 2948.872
229.5677, 2952.844
230.0499, 2947.264
230.5320, 2951.962
231.0141, 2973.945
231.4962, 3007.009
231.9783, 3025.185
232.4604, 3020.499
232.9426, 3010.916
233.4247, 3006.827
233.9068, 3010.135
234.3889, 3015.348
234.8710, 3023.096
235.3531, 3032.923
235.8353, 3039.145
236.3174, 3036.867
236.7995, 3036.610
237.2816, 3047.953
237.7637, 3081.637
238.2458, 3106.149
238.7280, 3114.981
239.2101, 3099.607
239.6922, 3108.576
240.1743, 3112.908
240.6564, 3112.853
241.1385, 3095.268
241.6207, 3100.318
242.1028, 3096.297
242.5849, 3091.905
243.0670, 3100.142
243.5491, 3085.106
244.0313, 3093.142
244.5134, 3091.969
244.9955, 3095.010
245.4776, 3088.924
245.9597, 3085.657
246.4418, 3091.521
246.9240, 3092.329
247.4061, 3085.192
247.8882, 3088.502
248.3703, 3073.147
248.8524, 3074.170
249.3345, 3082.260
249.8167, 3039.554
250.2988, 3032.745
250.7809, 3063.989
251.2630, 3083.396
251.7451, 3087.483
252.2272, 3081.594
252.7094, 3074.829
253.1915, 3066.975
253.6736, 3058.462
254.1557, 3049.904
254.6378, 3042.480
255.1199, 3030.427
255.6021, 3010.268
256.0842, 2987.262
256.5663, 2973.269
257.0484, 2970.737
257.5305, 2973.005
258.0126, 2978.438
258.4948, 2990.247
258.9769, 2996.119
259.4590, 2993.960
259.9411, 2986.621
260.4232, 2981.835
260.9053, 2980.707
261.3875, 2980.189
261.8696, 2979.337
262.3517, 2979.340
262.8338, 2974.847
263.3159, 2963.395
263.7980, 2947.761
264.2802, 2938.430
264.7623, 2937.936
265.2444, 2938.407
265.7265, 2933.440
266.2086, 2919.276
266.6907, 2913.967
267.1729, 2921.188
267.6550, 2937.873
268.1371, 2954.297
268.6192, 2972.633
269.1013, 2985.350
269.5834, 2985.937
270.0656, 2972.207
270.5477, 2955.213
271.0298, 2931.255
271.5119, 2905.826
271.9940, 2907.846
272.4761, 2948.236
272.9583, 2988.328
273.4404, 2993.632
273.9225, 2955.236
274.4046, 2932.537
274.8867, 2938.136
275.3688, 2965.549
275.8510, 2987.843
276.3331, 3006.079
276.8152, 3015.633
277.2973, 3007.178
277.7794, 2977.640
278.2615, 2959.923
278.7437, 2962.706
279.2258, 2981.755
279.7079, 2998.414
280.1900, 3012.283
280.6721, 3025.391
281.1542, 3042.570
281.6364, 3064.497
282.1185, 3074.806
282.6006, 3065.560
283.0827, 3042.986
283.5648, 3032.139
284.0469, 3033.984
284.5291, 3042.593
285.0112, 3054.300
285.4933, 3068.967
285.9754, 3082.161
286.4575, 3091.748
286.9396, 3099.121
287.4217, 3108.531
287.9038, 3119.840
288.3860, 3133.700
288.8681, 3153.858
289.3502, 3178.898
289.8323, 3197.766
290.3144, 3204.471
290.7965, 3203.509
291.2787, 3207.615
291.7608, 3217.182
292.2429, 3227.625
292.7250, 3232.187
293.2071, 3232.881
293.6892, 3239.917
294.1714, 3259.251
294.6535, 3285.887
295.1356, 3311.316
295.6177, 3335.894
296.0998, 3355.147
296.5819, 3357.015
297.0641, 3348.639
297.5462, 3354.359
298.0283, 3394.665
298.5104, 3447.312
298.9925, 3471.310
299.4746, 3466.494
299.9568, 3459.378
300.4389, 3474.638
300.9210, 3505.344
301.4031, 3535.956
301.8852, 3559.710
302.3673, 3580.628
302.8495, 3602.976
303.3316, 3626.547
303.8137, 3653.620
304.2958, 3688.874
304.7779, 3728.486
305.2600, 3765.010
305.7422, 3794.274
306.2243, 3820.110
306.7064, 3847.883
307.1885, 3877.473
307.6706, 3901.545
308.1527, 3904.024
308.6349, 3900.357
309.1170, 3911.833
309.5991, 3959.281
310.0812, 4015.512
310.5633, 4060.620
311.0454, 4095.618
311.5276, 4131.038
312.0097, 4174.156
312.4918, 4220.759
312.9739, 4266.720
313.4560, 4299.353
313.9381, 4340.035
314.4203, 4403.322
314.9024, 4488.463
315.3845, 4576.160
315.8666, 4656.894
316.3487, 4736.155
316.8308, 4819.121
317.3130, 4900.501
317.7951, 4992.516
318.2772, 5096.307
318.7593, 5212.597
319.2414, 5345.381
319.7235, 5514.600
320.2057, 5691.346
320.6878, 5852.731
321.1699, 5972.581
321.6520, 6098.586
322.1341, 6242.439
322.6162, 6403.616
323.0984, 6569.324
323.5805, 6742.895
324.0626, 6917.055
324.5447, 7086.930
325.0268, 7232.023
325.5089, 7394.795
325.9911, 7586.106
326.4732, 7802.511
326.9553, 8023.823
327.4374, 8252.924
327.9195, 8483.359
328.4016, 8713.599
328.8838, 8938.936
329.3659, 9169.106
329.8480, 9404.953
330.3301, 9645.521
330.8122, 9892.052
331.2943, 10160.65
331.7765, 10420.92
332.2586, 10657.45
332.7407, 10876.43
333.2228, 11061.92
333.7049, 11221.85
334.1870, 11348.98
334.6692, 11414.55
335.1513, 11408.84
335.6334, 11359.01
336.1155, 11278.89
336.5976, 11167.12
337.0797, 11030.58
337.5619, 10878.96
338.0440, 10699.03
338.5261, 10449.17
339.0082, 10114.64
339.4903, 9756.816
339.9724, 9415.356
340.4546, 9091.276
340.9367, 8744.842
341.4188, 8360.775
341.9009, 7964.241
342.3830, 7600.805
342.8651, 7272.148
343.3473, 6972.468
343.8294, 6706.407
344.3115, 6470.717
344.7936, 6250.675
345.2757, 6040.258
345.7578, 5853.327
346.2400, 5711.907
346.7221, 5616.314
347.2042, 5539.884
347.6863, 5468.021
348.1684, 5404.316
348.6505, 5360.159
349.1327, 5336.237
349.6148, 5328.214
350.0969, 5333.738
350.5790, 5351.278
351.0611, 5375.341
351.5432, 5399.202
352.0254, 5428.854
352.5075, 5475.222
352.9896, 5539.005
353.4717, 5614.132
353.9538, 5687.450
354.4359, 5768.017
354.9181, 5871.805
355.4002, 6015.289
355.8823, 6179.402
356.3644, 6342.781
356.8465, 6505.023
357.3286, 6687.261
357.8108, 6904.182
358.2929, 7150.291
358.7750, 7422.442
359.2571, 7714.478
359.7392, 8036.209
360.2213, 8392.622
360.7035, 8783.656
361.1856, 9207.359
361.6677, 9680.637
362.1498, 10176.67
362.6319, 10677.48
363.1140, 11166.23
363.5962, 11670.58
364.0783, 12204.04
364.5604, 12763.09
365.0425, 13323.55
365.5246, 13931.18
366.0067, 14507.02
366.4889, 15002.15
366.9710, 15253.09
367.4531, 15612.25
367.9352, 16136.57
368.4173, 16801.30
368.8994, 17500.69
369.3815, 18231.87
369.8636, 18993.22
370.3458, 19770.69
370.8279, 20520.23
371.3100, 21375.58
371.7921, 22377.94
372.2742, 23481.16
372.7563, 24576.42
373.2385, 25640.40
373.7206, 26720.19
374.2027, 27856.95
374.6848, 29106.36
375.1669, 30185.17
375.6490, 31146.96
376.1312, 31881.21
376.6133, 32227.49
377.0954, 32177.22
377.5775, 31767.80
378.0596, 30974.07
378.5417, 29815.04
379.0239, 28397.57
379.5060, 26700.05
379.9881, 24844.45
380.4702, 22938.17
380.9523, 20972.24
381.4344, 19166.77
381.9166, 17606.62
382.3987, 16255.25
382.8808, 14888.30
383.3629, 13510.94
383.8450, 12214.03
384.3271, 11104.14
384.8093, 10154.45
385.2914, 9315.590
385.7735, 8597.162
386.2556, 7968.359
386.7377, 7411.492
387.2198, 6927.104
387.7020, 6499.818
388.1841, 6140.213
388.6662, 5831.399
389.1483, 5547.059
389.6304, 5283.373
390.1125, 5042.961
390.5947, 4829.430
391.0768, 4638.138
391.5589, 4461.116
392.0410, 4290.302
392.5231, 4134.865
393.0052, 4002.667
393.4874, 3904.048
393.9695, 3808.024
394.4516, 3690.226
394.9337, 3567.090
395.4158, 3468.773
395.8979, 3424.952
396.3801, 3389.157
396.8622, 3344.347
397.3443, 3287.674
397.8264, 3226.307
398.3085, 3151.546
398.7906, 3076.197
399.2728, 3016.407
399.7549, 2989.895
400.2370, 2959.297
400.7191, 2913.696
401.2012, 2851.131
401.6833, 2804.324
402.1655, 2782.782
402.6476, 2768.236
403.1297, 2745.043
403.6118, 2709.649
404.0939, 2673.933
404.5760, 2638.567
405.0582, 2604.310
405.5403, 2576.856
406.0224, 2557.967
406.5045, 2541.445
406.9866, 2522.809
407.4688, 2501.732
407.9509, 2482.961
408.4330, 2467.513
408.9151, 2453.588
409.3972, 2439.438
409.8793, 2425.087
410.3615, 2404.516
410.8436, 2365.183
411.3257, 2315.613
411.8078, 2287.942
412.2899, 2286.728
412.7720, 2295.159
413.2542, 2293.124
413.7363, 2284.315
414.2184, 2279.644
414.7005, 2295.620
415.1826, 2312.740
415.6647, 2302.819
416.1469, 2264.803
416.6290, 2227.470
417.1111, 2214.551
417.5932, 2214.021
418.0753, 2210.542
418.5574, 2193.429
419.0396, 2176.656
419.5217, 2167.963
420.0038, 2166.405
420.4859, 2165.094
420.9680, 2167.764
421.4501, 2165.904
421.9323, 2153.438
422.4144, 2121.680
422.8965, 2089.806
423.3786, 2053.546
423.8607, 2018.736
424.3428, 2001.486
424.8250, 2023.864
425.3071, 2045.473
425.7892, 2051.645
426.2713, 2035.664
426.7534, 2022.208
427.2355, 2009.436
427.7177, 2000.254
428.1998, 2000.439
428.6819, 2015.331
429.1640, 2027.553
429.6461, 2033.106
430.1282, 2031.842
430.6104, 2022.624
431.0925, 2003.086
431.5746, 1981.496
432.0567, 1965.040
432.5388, 1953.674
433.0209, 1948.758
433.5031, 1952.318
433.9852, 1961.118
434.4673, 1968.664
434.9494, 1974.928
435.4315, 1977.823
435.9136, 1974.078
436.3958, 1965.852
436.8779, 1958.739
437.3600, 1954.074
437.8421, 1949.513
438.3242, 1939.200
438.8063, 1926.396
439.2885, 1920.210
439.7706, 1938.118
440.2527, 1948.326
440.7348, 1953.750
441.2169, 1954.536
441.6990, 1950.935
442.1812, 1929.802
442.6633, 1931.308
443.1454, 1923.741
443.6275, 1915.803
444.1096, 1920.494
444.5917, 1901.912
445.0739, 1906.402
445.5560, 1901.683
446.0381, 1901.179
446.5202, 1891.547
447.0023, 1884.735
447.4844, 1887.053
447.9666, 1884.314
448.4487, 1873.632
448.9308, 1873.396
449.4129, 1854.495
449.8950, 1851.973
450.3771, 1856.517
450.8593, 1846.292
451.3413, 1846.224
451.8235, 1842.287
452.3056, 1820.728
452.7877, 1806.928
453.2698, 1807.313
453.7519, 1823.171
454.2340, 1839.205
454.7162, 1855.245
455.1983, 1867.149
455.6804, 1853.859
456.1625, 1813.705
456.6446, 1776.308
457.1267, 1772.544
457.6089, 1791.485
458.0910, 1802.006
458.5731, 1794.981
459.0552, 1781.942
459.5373, 1776.166
460.0194, 1775.870
460.5016, 1775.025
460.9837, 1766.893
461.4658, 1758.647
461.9479, 1758.733
462.4300, 1770.237
462.9121, 1778.053
463.3943, 1769.112
463.8764, 1753.431
464.3585, 1744.078
464.8406, 1749.153
465.3227, 1756.998
465.8048, 1767.234
466.2870, 1779.639
466.7691, 1782.685
467.2512, 1767.815
467.7333, 1748.165
468.2154, 1731.265
468.6975, 1713.102
469.1797, 1704.751
469.6618, 1711.712
470.1439, 1727.513
470.6260, 1734.960
471.1081, 1731.750
471.5902, 1725.650
472.0724, 1718.990
472.5545, 1711.530
473.0366, 1706.444
473.5187, 1703.841
474.0008, 1703.421
474.4829, 1706.523
474.9651, 1712.657
475.4472, 1715.519
475.9293, 1711.327
476.4114, 1704.017
476.8935, 1702.235
477.3756, 1705.624
477.8578, 1709.207
478.3399, 1710.134
478.8220, 1708.757
479.3041, 1705.485
479.7862, 1700.238
480.2683, 1693.565
480.7505, 1679.235
481.2326, 1663.905
481.7147, 1661.384
482.1968, 1696.333
482.6789, 1729.878
483.1610, 1739.690
483.6432, 1721.537
484.1253, 1702.691
484.6074, 1682.751
485.0895, 1668.677
485.5716, 1666.364
486.0537, 1696.933
486.5359, 1714.392
487.0180, 1709.104
487.5001, 1686.592
487.9822, 1672.534
488.4643, 1670.076
488.9464, 1671.152
489.4286, 1672.177
489.9107, 1673.044
490.3928, 1674.698
490.8749, 1677.567
491.3570, 1680.577
491.8391, 1683.409
492.3213, 1686.059
492.8034, 1683.827
493.2855, 1671.499
493.7676, 1654.621
494.2497, 1648.274
494.7318, 1652.337
495.2140, 1658.027
495.6961, 1657.143
496.1782, 1653.265
496.6603, 1653.554
497.1424, 1662.392
497.6245, 1669.271
498.1067, 1663.976
498.5888, 1650.301
499.0709, 1637.161
499.5530, 1623.967
500.0351, 1615.729
500.5172, 1617.687
500.9994, 1632.060
501.4815, 1641.636
501.9636, 1638.460
502.4457, 1630.802
502.9278, 1626.130
503.4099, 1627.558
503.8921, 1628.814
504.3742, 1630.867
504.8563, 1632.613
505.3384, 1627.913
505.8205, 1611.128
506.3026, 1598.818
506.7848, 1603.343
507.2669, 1629.525
507.7490, 1634.249
508.2311, 1610.773
508.7132, 1581.482
509.1953, 1577.670
509.6775, 1597.317
510.1596, 1618.632
510.6417, 1637.980
511.1238, 1652.028
511.6059, 1651.647
512.0880, 1637.730
512.5701, 1621.171
513.0522, 1605.371
513.5344, 1592.953
514.0165, 1587.915
514.4986, 1592.406
514.9807, 1599.936
515.4628, 1609.288
515.9449, 1618.596
516.4271, 1624.573
516.9092, 1628.250
517.3913, 1626.612
517.8734, 1613.779
518.3555, 1588.912
518.8376, 1576.013
519.3198, 1589.397
519.8019, 1607.354
520.2840, 1616.897
520.7661, 1613.701
521.2482, 1610.687
521.7303, 1609.776
522.2125, 1608.536
522.6946, 1598.751
523.1767, 1576.297
523.6588, 1562.627
524.1409, 1572.459
524.6230, 1600.915
525.1052, 1609.426
525.5873, 1595.873
526.0694, 1579.181
526.5515, 1580.659
527.0336, 1594.120
527.5157, 1601.455
527.9979, 1596.488
528.4800, 1586.934
528.9621, 1577.802
529.4442, 1570.318
529.9263, 1567.819
530.4084, 1578.349
530.8906, 1590.008
531.3727, 1593.319
531.8548, 1586.371
532.3369, 1580.805
532.8190, 1583.081
533.3011, 1587.176
533.7833, 1587.578
534.2654, 1573.448
534.7475, 1568.026
535.2296, 1578.787
535.7117, 1600.057
536.1938, 1611.321
536.6760, 1607.981
537.1581, 1603.746
537.6402, 1605.956
538.1223, 1615.763
538.6044, 1615.177
539.0865, 1601.298
539.5687, 1585.566
540.0508, 1583.053
540.5329, 1591.857
541.0150, 1598.305
541.4971, 1598.730
541.9792, 1595.372
542.4614, 1589.117
542.9435, 1581.185
543.4256, 1577.249
543.9077, 1587.098
544.3898, 1598.908
544.8719, 1599.020
545.3541, 1584.159
545.8362, 1572.115
546.3183, 1574.230
546.8004, 1582.424
547.2825, 1587.906
547.7646, 1589.146
548.2468, 1586.824
548.7289, 1575.261
549.2110, 1558.712
549.6931, 1556.013
550.1752, 1577.000
550.6573, 1598.406
551.1395, 1610.726
551.6216, 1612.342
552.1037, 1614.590
552.5858, 1618.588
553.0679, 1620.890
553.5500, 1614.691
554.0322, 1600.622
554.5143, 1593.375
554.9964, 1598.566
555.4785, 1609.758
555.9606, 1615.775
556.4427, 1617.279
556.9249, 1617.625
557.4070, 1616.275
557.8891, 1616.163
558.3712, 1622.889
558.8533, 1638.013
559.3354, 1648.644
559.8176, 1642.740
560.2997, 1630.878
560.7818, 1623.891
561.2639, 1631.394
561.7460, 1636.341
562.2281, 1634.354
562.7103, 1626.866
563.1924, 1619.164
563.6745, 1605.679
564.1566, 1599.716
564.6387, 1609.708
565.1208, 1638.864
565.6030, 1651.948
566.0851, 1645.519
566.5672, 1630.892
567.0493, 1616.765
567.5314, 1603.555
568.0135, 1595.128
568.4957, 1592.401
568.9778, 1594.654
569.4599, 1604.396
569.9420, 1619.426
570.4241, 1629.943
570.9063, 1627.840
571.3884, 1620.510
571.8705, 1614.477
572.3526, 1610.118
572.8347, 1607.458
573.3168, 1605.520
573.7990, 1605.852
574.2811, 1609.946
574.7632, 1621.708
575.2453, 1632.172
575.7274, 1641.879
576.2095, 1649.167
576.6917, 1650.263
577.1738, 1641.720
577.6559, 1632.477
578.1380, 1623.833
578.6201, 1616.040
579.1022, 1615.170
579.5844, 1623.574
580.0665, 1630.136
580.5486, 1622.340
581.0307, 1603.084
581.5128, 1594.829
581.9949, 1602.035
582.4771, 1613.653
582.9592, 1617.850
583.4413, 1615.857
583.9234, 1610.704
584.4055, 1598.629
584.8876, 1587.942
585.3698, 1587.611
585.8519, 1595.480
586.3340, 1599.655
586.8161, 1575.624
587.2982, 1586.261
587.7803, 1592.261
588.2625, 1593.873
588.7446, 1577.955
589.2267, 1584.673
589.7088, 1582.320
590.1909, 1579.595
590.6730, 1589.499
591.1552, 1576.131
591.6373, 1585.835
592.1194, 1586.329
592.6015, 1591.038
593.0836, 1586.620
593.5657, 1585.021
594.0479, 1592.552
594.5300, 1595.028
595.0121, 1589.559
595.4942, 1594.536
595.9763, 1580.849
596.4584, 1575.125
596.9406, 1586.143
597.4227, 1592.522
597.9048, 1594.515
598.3869, 1578.977
598.8690, 1586.075
599.3511, 1584.102
599.8333, 1581.757
600.3154, 1592.042
600.7975, 1579.053
601.2796, 1589.137
601.7617, 1590.012
602.2438, 1595.101
602.7260, 1591.063
603.2081, 1589.844
603.6902, 1597.755
604.1723, 1600.611
604.6544, 1595.522
605.1365, 1600.879
605.6187, 1587.572
606.1008, 1590.643
606.5829, 1600.781
607.0650, 1596.151
607.5471, 1601.675
608.0292, 1603.332
608.5114, 1587.413
608.9935, 1602.060
609.4756, 1603.488
609.9577, 1591.344
610.4398, 1604.944
610.9219, 1594.671
611.4041, 1592.919
611.8862, 1597.579
612.3683, 1595.555
612.8504, 1604.070
613.3325, 1602.432
613.8146, 1599.886
614.2968, 1601.300
614.7789, 1591.495
615.2610, 1602.503
615.7431, 1599.293
616.2252, 1603.151
616.7073, 1608.610
617.1895, 1601.805
617.6716, 1607.984
618.1537, 1594.027
618.6358, 1596.919
619.1179, 1597.996
619.6000, 1609.843
620.0822, 1595.984
620.5643, 1598.408
621.0464, 1607.764
621.5285, 1607.420
622.0106, 1611.132
622.4927, 1602.836
622.9749, 1605.821
623.4570, 1605.696
623.9391, 1616.315
624.4212, 1618.452
624.9033, 1599.177
625.3854, 1589.930
625.8676, 1601.395
626.3497, 1608.223
626.8318, 1610.662
627.3139, 1595.572
627.7960, 1603.119
628.2781, 1601.593
628.7603, 1599.696
629.2424, 1610.428
629.7245, 1597.887
630.2066, 1608.419
630.6887, 1609.741
631.1708, 1615.278
631.6530, 1611.688
632.1351, 1610.916
632.6172, 1619.275
633.0993, 1622.579
633.5814, 1617.937
634.0635, 1623.742
634.5457, 1610.883
635.0278, 1614.402
635.5099, 1646.493
635.9920, 1672.148
636.4741, 1679.304
636.9562, 1666.660
637.4384, 1658.473
637.9205, 1655.020
638.4026, 1654.855
638.8847, 1658.109
639.3668, 1664.281
639.8489, 1669.081
640.3311, 1672.369
640.8132, 1672.743
641.2953, 1663.743
641.7774, 1650.792
642.2595, 1645.763
642.7416, 1660.216
643.2238, 1676.913
643.7059, 1684.357
644.1880, 1684.880
644.6701, 1686.688
645.1522, 1693.462
645.6343, 1700.912
646.1165, 1706.518
646.5986, 1709.714
647.0807, 1717.932
647.5628, 1736.896
648.0449, 1752.691
648.5270, 1751.177
649.0092, 1730.097
649.4913, 1722.497
649.9734, 1732.685
650.4555, 1750.862
650.9376, 1766.203
651.4197, 1778.729
651.9019, 1788.089
652.3840, 1794.867
652.8661, 1797.574
653.3482, 1790.244
653.8303, 1776.925
654.3124, 1770.009
654.7946, 1782.242
655.2767, 1787.135
655.7588, 1797.305
656.2409, 1802.838
656.7230, 1803.984
657.2051, 1787.599
657.6872, 1793.851
658.1693, 1791.031
658.6514, 1787.839
659.1335, 1797.277
659.6157, 1783.442
660.0978, 1792.680
660.5799, 1792.707
661.0620, 1796.950
661.5441, 1792.064
662.0262, 1789.999
662.5084, 1797.063
662.9905, 1799.073
663.4726, 1793.137
663.9547, 1797.647
664.4368, 1783.494
664.9189, 1785.718
665.4011, 1795.009
665.8832, 1789.532
666.3653, 1794.209
666.8474, 1795.020
667.3295, 1778.255
667.8116, 1792.055
668.2938, 1792.636
668.7759, 1786.786
669.2580, 1799.777
669.7401, 1812.209
670.2222, 1810.142
670.7043, 1795.237
671.1865, 1784.810
671.6686, 1783.716
672.1507, 1784.221
672.6328, 1772.771
673.1149, 1755.247
673.5970, 1745.739
674.0792, 1756.755
674.5613, 1771.554
675.0434, 1783.946
675.5255, 1792.933
676.0076, 1794.539
676.4897, 1779.020
676.9719, 1764.523
677.4540, 1759.556
677.9361, 1766.066
678.4182, 1760.337
678.9003, 1736.181
679.3824, 1712.921
679.8646, 1708.821
680.3467, 1722.014
680.8288, 1730.235
681.3109, 1730.760
681.7930, 1728.949
682.2751, 1732.499
682.7573, 1738.141
683.2394, 1739.263
683.7215, 1732.195
684.2036, 1722.091
684.6857, 1708.516
685.1678, 1694.210
685.6500, 1685.108
686.1321, 1682.617
686.6142, 1686.167
687.0963, 1700.180
687.5784, 1722.255
688.0605, 1728.444
688.5427, 1713.016
689.0248, 1696.364
689.5069, 1689.165
689.9890, 1690.877
690.4711, 1697.215
690.9532, 1708.801
691.4354, 1717.001
691.9175, 1710.874
692.3996, 1696.911
692.8817, 1684.954
693.3638, 1676.190
693.8459, 1671.659
694.3281, 1677.492
694.8102, 1686.072
695.2923, 1687.247
695.7744, 1666.634
696.2565, 1654.045
696.7386, 1656.535
697.2208, 1668.624
697.7029, 1676.941
698.1850, 1682.021
698.6671, 1681.056
699.1492, 1670.488
699.6313, 1653.877
700.1135, 1642.018
700.5956, 1635.052
701.0777, 1635.667
701.5598, 1655.248
702.0419, 1678.554
702.5240, 1683.791
703.0062, 1668.338
703.4883, 1655.193
703.9704, 1661.123
704.4525, 1670.347
704.9346, 1670.278
705.4167, 1650.156
705.8989, 1636.598
706.3810, 1631.068
706.8631, 1631.063
707.3452, 1634.557
707.8273, 1642.355
708.3094, 1639.274
708.7916, 1648.971
709.2737, 1654.032
709.7558, 1654.706
710.2379, 1637.849
710.7200, 1643.628
711.2021, 1640.336
711.6843, 1636.672
712.1664, 1645.637
712.6485, 1631.330
713.1306, 1640.095
713.6127, 1639.651
714.0948, 1643.421
714.5770, 1638.063
715.0591, 1635.526
715.5412, 1642.118
716.0233, 1643.655
716.5054, 1637.247
716.9875, 1641.285
717.4697, 1626.659
717.9518, 1628.411
718.4339, 1637.229
718.9160, 1631.280
719.3981, 1635.486
719.8802, 1635.823
720.3624, 1618.586
720.8445, 1631.913
721.3266, 1632.023
721.8087, 1618.559
722.2908, 1630.840
722.7729, 1619.248
723.2551, 1616.177
723.7372, 1619.412
724.2193, 1621.005
724.7014, 1624.875
725.1835, 1628.136
725.6656, 1630.194
726.1478, 1634.320
726.6299, 1644.404
727.1120, 1656.153
727.5941, 1653.812
728.0762, 1638.809
728.5583, 1625.331
729.0405, 1622.258
729.5226, 1625.475
730.0047, 1633.436
730.4868, 1645.973
730.9689, 1653.968
731.4510, 1652.034
731.9332, 1645.891
732.4153, 1638.274
732.8974, 1626.656
733.3795, 1621.753
733.8616, 1625.231
734.3438, 1632.958
734.8259, 1642.914
735.3080, 1654.948
735.7901, 1660.347
736.2722, 1656.662
736.7543, 1650.313
737.2365, 1650.146
737.7186, 1653.259
738.2007, 1653.751
738.6828, 1648.616
739.1649, 1641.508
739.6470, 1630.188
740.1292, 1618.428
740.6113, 1614.978
741.0934, 1630.413
741.5755, 1643.155
742.0576, 1647.840
742.5397, 1646.706
743.0219, 1649.471
743.5040, 1656.523
743.9861, 1665.223
744.4682, 1678.569
744.9503, 1691.708
745.4324, 1688.728
745.9146, 1670.974
746.3967, 1651.869
746.8788, 1637.761
747.3609, 1628.289
747.8430, 1625.141
748.3251, 1629.654
748.8073, 1630.341
749.2894, 1620.632
749.7715, 1609.127
750.2536, 1600.893
750.7357, 1595.815
751.2178, 1594.974
751.7000, 1599.922
752.1821, 1605.497
752.6642, 1605.984
753.1463, 1601.869
753.6284, 1594.818
754.1105, 1583.954
754.5927, 1573.951
755.0748, 1571.361
755.5569, 1572.182
756.0390, 1569.997
756.5211, 1564.399
757.0032, 1553.527
757.4854, 1527.937
757.9675, 1497.901
758.4496, 1487.866
758.9317, 1507.651
759.4138, 1526.162
759.8959, 1536.935
760.3781, 1541.088
760.8602, 1541.268
761.3423, 1537.613
761.8244, 1531.778
762.3065, 1523.406
762.7886, 1514.139
763.2708, 1506.562
763.7529, 1500.209
764.2350, 1492.171
764.7171, 1477.255
765.1992, 1463.419
765.6813, 1453.089
766.1635, 1445.837
766.6456, 1452.165
767.1277, 1481.876
767.6098, 1509.204
768.0919, 1515.553
768.5740, 1501.253
769.0562, 1491.886
769.5383, 1488.194
770.0204, 1486.150
770.5025, 1480.086
770.9846, 1473.807
771.4667, 1475.156
771.9489, 1487.726
772.4310, 1496.988
772.9131, 1492.237
773.3952, 1482.193
773.8773, 1475.825
774.3594, 1482.427
774.8416, 1478.291
775.3237, 1454.723
775.8058, 1429.081
776.2879, 1427.683
776.7700, 1450.705
777.2521, 1471.586
777.7343, 1485.993
778.2164, 1493.298
778.6985, 1489.080
779.1806, 1477.215
779.6627, 1466.390
780.1448, 1461.647
780.6270, 1457.396
781.1091, 1446.700
781.5912, 1434.271
782.0733, 1435.318
782.5554, 1461.960
783.0375, 1483.604
783.5197, 1494.193
784.0018, 1494.325
784.4839, 1481.806
784.9660, 1456.020
785.4481, 1436.644
785.9302, 1438.740
786.4124, 1450.760
786.8945, 1454.402
787.3766, 1450.724
787.8587, 1444.629
788.3408, 1435.079
788.8229, 1427.039
789.3051, 1423.854
789.7872, 1426.052
790.2693, 1428.583
790.7514, 1431.538
791.2335, 1434.512
791.7156, 1438.538
792.1978, 1443.524
792.6799, 1439.811
793.1620, 1426.736
793.6441, 1414.942
794.1262, 1414.303
794.6083, 1420.350
795.0905, 1427.107
795.5726, 1434.033
796.0547, 1440.429
796.5368, 1445.333
797.0189, 1449.944
797.5010, 1455.644
797.9832, 1465.193
798.4653, 1468.371
798.9474, 1462.331
799.4295, 1454.421
799.9116, 1453.826
800.3937, 1459.693
800.8759, 1458.220
801.3580, 1446.364
801.8401, 1433.355
802.3222, 1427.749
802.8043, 1427.849
803.2864, 1431.369
803.7686, 1439.212
804.2507, 1447.609
804.7328, 1459.693
805.2149, 1469.784
805.6970, 1469.563
806.1791, 1452.830
806.6613, 1441.480
807.1434, 1439.332
807.6255, 1441.622
808.1076, 1439.067
808.5897, 1432.896
809.0718, 1430.750
809.5540, 1436.254
810.0361, 1444.593
810.5182, 1453.848
811.0003, 1462.186
811.4824, 1466.056
811.9645, 1461.557
812.4467, 1455.598
812.9288, 1449.368
813.4109, 1442.987
813.8930, 1435.334
814.3751, 1424.023
814.8572, 1422.363
815.3394, 1439.609
815.8215, 1463.620
816.3036, 1464.615
816.7857, 1446.629
817.2678, 1428.742
817.7499, 1415.142
818.2321, 1409.560
818.7142, 1419.922
819.1963, 1442.158
819.6784, 1457.665
820.1605, 1458.628
820.6426, 1456.888
821.1248, 1454.170
821.6068, 1451.012
822.0889, 1452.275
822.5710, 1458.545
823.0532, 1461.993
823.5353, 1454.762
824.0174, 1443.383
824.4995, 1439.461
824.9816, 1442.434
825.4637, 1448.470
825.9459, 1462.958
826.4280, 1473.391
826.9101, 1470.855
827.3922, 1454.369
827.8743, 1440.058
828.3564, 1424.677
828.8386, 1418.113
829.3207, 1430.154
829.8028, 1456.670
830.2849, 1463.562
830.7670, 1451.068
831.2491, 1438.474
831.7313, 1440.616
832.2134, 1449.666
832.6955, 1460.110
833.1776, 1471.319
833.6597, 1473.820
834.1418, 1454.748
834.6240, 1434.701
835.1061, 1424.314
835.5882, 1424.390
836.0703, 1425.555
836.5524, 1427.798
837.0345, 1431.193
837.5167, 1436.815
837.9988, 1443.600
838.4809, 1447.919
838.9630, 1449.632
839.4451, 1451.789
839.9272, 1461.311
840.4094, 1468.786
840.8915, 1464.066
841.3736, 1441.127
841.8557, 1429.799
842.3378, 1438.633
842.8199, 1450.094
843.3021, 1452.058
843.7842, 1444.099
844.2663, 1441.052
844.7484, 1443.394
845.2305, 1446.896
845.7126, 1446.517
846.1948, 1445.566
846.6769, 1451.117
847.1590, 1465.666
847.6411, 1472.452
848.1232, 1455.711
848.6053, 1435.698
849.0875, 1426.732
849.5696, 1431.367
850.0517, 1438.584
850.5338, 1450.336
851.0159, 1459.404
851.4980, 1455.436
851.9802, 1443.280
852.4623, 1441.000
852.9444, 1451.040
853.4265, 1459.459
853.9086, 1449.528
854.3907, 1436.830
854.8729, 1436.731
855.3550, 1457.824
855.8371, 1472.330
856.3192, 1477.922
856.8013, 1477.647
857.2834, 1472.357
857.7656, 1461.899
858.2477, 1452.935
858.7298, 1445.586
859.2119, 1441.536
859.6940, 1443.950
860.1761, 1449.942
860.6583, 1457.177
861.1404, 1466.574
861.6225, 1469.589
862.1046, 1452.124
862.5867, 1435.209
863.0688, 1436.157
863.5510, 1463.205
864.0331, 1474.756
864.5152, 1467.134
864.9973, 1456.514
865.4794, 1459.811
865.9615, 1471.843
866.4437, 1479.102
866.9258, 1480.160
867.4079, 1476.170
867.8900, 1461.495
868.3721, 1446.234
868.8542, 1439.708
869.3364, 1447.609
869.8185, 1450.916
870.3006, 1448.156
870.7827, 1443.130
871.2648, 1436.618
871.7469, 1429.417
872.2291, 1432.730
872.7112, 1447.892
873.1933, 1461.258
873.6754, 1458.368
874.1575, 1448.950
874.6396, 1442.187
875.1218, 1439.011
875.6039, 1440.917
876.0860, 1454.664
876.5681, 1467.846
877.0502, 1473.145
877.5323, 1469.594
878.0145, 1466.636
878.4966, 1464.306
878.9787, 1462.190
879.4608, 1460.643
879.9429, 1458.799
880.4250, 1454.531
880.9072, 1447.579
881.3893, 1441.833
881.8714, 1437.093
882.3535, 1436.006
882.8356, 1441.918
883.3177, 1456.152
883.7999, 1464.054
884.2820, 1463.750
884.7641, 1462.910
885.2462, 1468.230
885.7283, 1477.086
886.2104, 1483.084
886.6926, 1485.825
887.1747, 1482.184
887.6568, 1461.026
888.1389, 1439.971
888.6210, 1432.439
889.1031, 1440.890
889.5853, 1446.279
890.0674, 1444.848
890.5495, 1446.556
891.0316, 1459.088
891.5137, 1479.593
891.9958, 1489.173
892.4780, 1488.321
892.9601, 1483.478
893.4422, 1475.042
893.9243, 1467.486
894.4064, 1466.117
894.8885, 1470.373
895.3707, 1472.248
895.8528, 1465.720
896.3349, 1462.054
896.8170, 1466.908
897.2991, 1477.697
897.7813, 1477.574
898.2634, 1466.507
898.7455, 1458.668
899.2276, 1464.136
899.7097, 1475.628
900.1918, 1488.089
900.6740, 1499.593
901.1561, 1502.954
901.6382, 1489.450
902.1203, 1474.068
902.6024, 1458.992
903.0845, 1445.822
903.5667, 1440.938
904.0488, 1444.699
904.5309, 1454.666
905.0130, 1475.143
905.4951, 1494.807
905.9772, 1493.010
906.4594, 1475.766
906.9415, 1459.040
907.4236, 1445.919
907.9057, 1438.156
908.3878, 1436.983
908.8699, 1441.403
909.3521, 1450.231
909.8342, 1464.544
910.3163, 1480.144
910.7984, 1498.121
911.2805, 1513.255
911.7626, 1515.155
912.2448, 1507.357
912.7269, 1497.866
913.2090, 1487.686
913.6911, 1479.332
914.1732, 1474.120
914.6553, 1471.482
915.1375, 1471.293
915.6196, 1477.171
916.1017, 1473.313
916.5838, 1453.653
917.0659, 1435.118
917.5480, 1447.144
918.0302, 1478.550
918.5123, 1495.225
918.9944, 1487.661
919.4765, 1476.021
919.9586, 1469.850
920.4407, 1467.651
920.9229, 1468.117
921.4050, 1471.293
921.8871, 1477.113
922.3692, 1487.522
922.8513, 1496.453
923.3334, 1497.626
923.8156, 1492.527
924.2977, 1485.365
924.7798, 1476.361
925.2619, 1469.924
925.7440, 1469.219
926.2261, 1472.443
926.7083, 1480.164
927.1904, 1494.185
927.6725, 1499.306
928.1546, 1490.963
928.6367, 1482.819
929.1188, 1485.149
929.6010, 1494.725
930.0831, 1492.400
930.5652, 1479.437
931.0473, 1468.840
931.5294, 1469.367
932.0115, 1475.166
932.4937, 1484.546
932.9758, 1496.601
933.4579, 1503.524
933.9400, 1502.686
934.4221, 1500.984
934.9042, 1500.245
935.3864, 1500.310
935.8685, 1501.946
936.3506, 1504.458
936.8327, 1503.815
937.3148, 1496.058
937.7969, 1486.407
938.2791, 1475.184
938.7612, 1465.184
939.2433, 1463.427
939.7254, 1476.318
940.2075, 1488.021
940.6896, 1497.440
941.1718, 1503.576
941.6539, 1504.599
942.1360, 1500.746
942.6181, 1491.598
943.1002, 1473.338
943.5823, 1460.060
944.0645, 1470.215
944.5466, 1488.579
945.0287, 1496.055
945.5108, 1475.707
945.9929, 1467.892
946.4750, 1475.635
946.9572, 1490.801
947.4393, 1511.486
947.9214, 1533.785
948.4035, 1531.508
948.8856, 1500.234
949.3677, 1472.214
949.8499, 1475.857
950.3320, 1490.358
950.8141, 1498.813
951.2962, 1498.075
951.7783, 1497.194
952.2604, 1496.900
952.7426, 1495.331
953.2247, 1490.594
953.7068, 1483.634
954.1889, 1477.457
954.6710, 1472.485
955.1531, 1472.541
955.6353, 1482.480
956.1174, 1496.084
956.5995, 1512.984
957.0816, 1530.954
957.5637, 1537.619
958.0458, 1528.559
958.5280, 1517.824
959.0101, 1508.282
959.4922, 1500.801
959.9743, 1499.165
960.4564, 1501.801
960.9385, 1502.876
961.4207, 1498.397
961.9028, 1493.962
962.3849, 1491.890
962.8670, 1492.131
963.3491, 1494.954
963.8312, 1502.695
964.3134, 1506.150
964.7955, 1503.008
965.2776, 1498.832
965.7597, 1501.092
966.2418, 1508.135
966.7239, 1516.811
967.2061, 1527.337
967.6882, 1534.752
968.1703, 1534.559
968.6524, 1531.355
969.1345, 1529.483
969.6166, 1530.480
970.0988, 1523.117
970.5809, 1504.570
971.0630, 1489.337
971.5451, 1490.993
972.0272, 1502.472
972.5093, 1512.430
972.9915, 1519.936
973.4736, 1521.745
973.9557, 1506.764
974.4378, 1495.819
974.9199, 1502.991
975.4020, 1522.491
975.8842, 1524.200
976.3663, 1505.719
976.8484, 1493.161
977.3305, 1500.305
977.8126, 1513.845
978.2947, 1513.137
978.7769, 1503.818
979.2590, 1498.444
979.7411, 1510.503
980.2232, 1514.651
980.7053, 1498.128
981.1874, 1477.691
981.6696, 1479.520
982.1517, 1504.289
982.6338, 1520.058
983.1159, 1522.296
983.5980, 1514.808
984.0801, 1486.841
984.5623, 1458.976
985.0444, 1459.008
985.5265, 1502.673
986.0085, 1530.060
986.4907, 1526.771
986.9728, 1517.184
987.4549, 1515.450
987.9370, 1520.745
988.4191, 1526.961
988.9012, 1533.566
989.3834, 1532.311
989.8655, 1503.449
990.3476, 1476.978
990.8297, 1482.626
991.3118, 1514.095
991.7939, 1526.045
992.2761, 1505.813
992.7582, 1488.273
993.2403, 1481.208
993.7224, 1483.727
994.2045, 1498.803
994.6866, 1522.363
995.1688, 1541.680
995.6509, 1555.115
996.1330, 1557.960
996.6151, 1535.947
997.0972, 1507.664
997.5793, 1497.208
998.0615, 1510.603
998.5436, 1522.247
999.0257, 1531.520
999.5078, 1537.256
999.9899, 1533.023
1000.472, 1526.296
1000.954, 1533.933
1001.436, 1557.963
1001.918, 1573.944
1002.401, 1563.124
1002.883, 1550.690
1003.365, 1551.002
1003.847, 1561.453
1004.329, 1552.597
1004.811, 1523.762
1005.293, 1503.242
1005.775, 1513.613
1006.257, 1531.216
1006.740, 1529.346
1007.222, 1514.574
1007.704, 1502.908
1008.186, 1499.662
1008.668, 1498.821
1009.150, 1500.123
1009.632, 1503.079
1010.114, 1508.121
1010.596, 1514.498
1011.079, 1517.938
1011.561, 1517.543
1012.043, 1514.656
1012.525, 1502.641
1013.007, 1493.571
1013.489, 1501.830
1013.971, 1534.240
1014.453, 1551.584
1014.936, 1550.694
1015.418, 1544.920
1015.900, 1545.227
1016.382, 1546.372
1016.864, 1528.668
1017.346, 1497.746
1017.828, 1482.779
1018.310, 1518.710
1018.792, 1549.552
1019.275, 1549.694
1019.757, 1531.529
1020.239, 1524.269
1020.721, 1528.263
1021.203, 1535.648
1021.685, 1546.760
1022.167, 1554.134
1022.649, 1543.216
1023.132, 1525.618
1023.614, 1518.260
1024.096, 1531.731
1024.578, 1538.973
1025.060, 1534.781
1025.542, 1529.417
1026.024, 1531.959
1026.506, 1540.744
1026.989, 1544.414
1027.471, 1543.051
1027.953, 1541.832
1028.435, 1546.110
1028.917, 1549.716
1029.399, 1547.816
1029.881, 1541.339
1030.363, 1535.729
1030.845, 1529.809
1031.328, 1530.291
1031.810, 1542.190
1032.292, 1555.449
1032.774, 1548.552
1033.256, 1531.844
1033.738, 1527.047
1034.220, 1551.887
1034.702, 1567.834
1035.184, 1561.747
1035.667, 1547.531
1036.149, 1533.425
1036.631, 1519.372
1037.113, 1517.116
1037.595, 1527.286
1038.077, 1536.996
1038.559, 1535.848
1039.041, 1530.192
1039.524, 1522.092
1040.006, 1512.875
1040.488, 1514.391
1040.970, 1533.186
1041.452, 1547.534
1041.934, 1550.160
1042.416, 1545.240
1042.898, 1537.298
1043.380, 1528.919
1043.863, 1527.721
1044.345, 1542.213
1044.827, 1553.416
1045.309, 1548.721
1045.791, 1541.088
1046.273, 1544.877
1046.755, 1562.514
1047.237, 1563.878
1047.719, 1546.819
1048.202, 1529.602
1048.684, 1529.356
1049.166, 1535.165
1049.648, 1534.844
1050.130, 1528.467
1050.612, 1527.672
1051.094, 1535.698
1051.576, 1545.577
1052.059, 1557.570
1052.541, 1567.947
1053.023, 1563.532
1053.505, 1549.840
1053.987, 1545.734
1054.469, 1565.335
1054.951, 1579.419
1055.433, 1570.273
1055.916, 1551.410
1056.398, 1534.793
1056.880, 1519.170
1057.362, 1514.341
1057.844, 1520.962
1058.326, 1531.808
1058.808, 1544.908
1059.290, 1556.457
1059.772, 1561.796
1060.255, 1561.192
1060.737, 1558.755
1061.219, 1553.739
1061.701, 1549.691
1062.183, 1547.689
1062.665, 1546.852
1063.147, 1545.000
1063.629, 1542.693
1064.111, 1542.113
1064.594, 1545.092
1065.076, 1546.661
1065.558, 1532.690
1066.040, 1525.396
1066.522, 1548.970
1067.004, 1612.478
1067.486, 1639.559
1067.968, 1628.924
1068.450, 1602.898
1068.933, 1566.397
1069.415, 1531.468
1069.897, 1511.103
1070.379, 1504.048
1070.861, 1503.934
1071.343, 1511.255
1071.825, 1523.197
1072.307, 1542.436
1072.790, 1560.745
1073.272, 1558.473
1073.754, 1543.916
1074.236, 1540.527
1074.718, 1555.668
1075.200, 1572.617
1075.682, 1593.594
1076.164, 1603.882
1076.646, 1589.697
1077.129, 1551.057
1077.611, 1533.343
1078.093, 1536.438
1078.575, 1547.044
1079.057, 1563.780
1079.539, 1578.303
1080.021, 1581.081
1080.503, 1575.854
1080.985, 1572.800
1081.468, 1574.972
1081.950, 1573.643
1082.432, 1566.044
1082.914, 1559.531
1083.396, 1569.180
1083.878, 1584.909
1084.360, 1583.612
1084.842, 1560.714
1085.325, 1543.952
1085.807, 1550.817
1086.289, 1558.872
1086.771, 1557.948
1087.253, 1550.474
1087.735, 1551.197
1088.217, 1558.333
1088.699, 1556.542
1089.182, 1527.240
1089.664, 1503.909
1090.146, 1518.420
1090.628, 1548.917
1091.110, 1563.451
1091.592, 1555.725
1092.074, 1552.317
1092.556, 1554.571
1093.038, 1558.762
1093.521, 1565.014
1094.003, 1569.069
1094.485, 1560.873
1094.967, 1542.100
1095.449, 1534.910
1095.931, 1556.603
1096.413, 1569.234
1096.895, 1559.235
1097.377, 1540.143
1097.860, 1545.457
1098.342, 1566.670
1098.824, 1574.924
1099.306, 1557.249
1099.788, 1543.068
1100.270, 1551.788
1100.752, 1564.773
1101.234, 1566.421
1101.717, 1556.273
1102.199, 1562.399
1102.681, 1584.495
1103.163, 1599.380
1103.645, 1583.900
1104.127, 1562.648
1104.609, 1552.831
1105.091, 1553.400
1105.573, 1561.986
1106.056, 1584.511
1106.538, 1594.263
1107.020, 1585.588
1107.502, 1571.962
1107.984, 1569.229
1108.466, 1572.349
1108.948, 1573.530
1109.430, 1571.694
1109.912, 1570.999
1110.395, 1575.549
1110.877, 1575.949
1111.359, 1564.496
1111.841, 1549.446
1112.323, 1562.247
1112.805, 1594.452
1113.287, 1616.290
1113.769, 1614.053
1114.252, 1604.386
1114.734, 1586.283
1115.216, 1570.173
1115.698, 1567.646
1116.180, 1580.361
1116.662, 1582.183
1117.144, 1572.797
1117.626, 1564.162
1118.109, 1566.248
1118.591, 1571.231
1119.073, 1571.238
1119.555, 1568.849
1120.037, 1576.414
1120.519, 1601.511
1121.001, 1605.878
1121.483, 1577.101
1121.965, 1546.115
1122.448, 1559.671
1122.930, 1592.758
1123.412, 1608.202
1123.894, 1598.111
1124.376, 1591.832
1124.858, 1595.557
1125.340, 1599.083
1125.822, 1598.282
1126.304, 1594.046
1126.787, 1586.889
1127.269, 1578.385
1127.751, 1573.409
1128.233, 1576.369
1128.715, 1579.168
1129.197, 1574.937
1129.679, 1573.703
1130.161, 1589.187
1130.644, 1619.534
1131.126, 1628.542
1131.608, 1616.104
1132.090, 1602.560
1132.572, 1600.618
1133.054, 1602.396
1133.536, 1606.626
1134.018, 1610.194
1134.500, 1604.083
1134.983, 1586.692
1135.465, 1572.732
1135.947, 1563.846
1136.429, 1563.225
1136.911, 1583.083
1137.393, 1607.303
1137.875, 1618.079
1138.357, 1611.358
1138.839, 1606.724
1139.322, 1605.389
1139.804, 1602.144
1140.286, 1592.482
1140.768, 1582.633
1141.250, 1584.279
1141.732, 1593.405
1142.214, 1602.638
1142.696, 1613.542
1143.179, 1616.761
1143.661, 1608.759
1144.143, 1598.840
1144.625, 1594.304
1145.107, 1593.865
1145.589, 1592.090
1146.071, 1589.823
1146.553, 1592.579
1147.036, 1613.865
1147.518, 1626.311
1148.000, 1618.978
1148.482, 1602.163
1148.964, 1590.241
1149.446, 1583.714
1149.928, 1590.043
1150.410, 1611.612
1150.892, 1626.898
1151.375, 1610.808
1151.857, 1594.090
1152.339, 1600.314
1152.821, 1623.547
1153.303, 1630.591
1153.785, 1621.659
1154.267, 1613.916
1154.749, 1612.958
1155.231, 1615.352
1155.714, 1624.995
1156.196, 1632.341
1156.678, 1621.208
1157.160, 1583.225
1157.642, 1580.597
1158.124, 1619.066
1158.606, 1649.671
1159.088, 1627.405
1159.571, 1591.381
1160.053, 1588.960
1160.535, 1607.990
1161.017, 1618.012
1161.499, 1608.342
1161.981, 1604.918
1162.463, 1611.459
1162.945, 1618.249
1163.427, 1613.150
1163.910, 1602.495
1164.392, 1595.015
1164.874, 1591.397
1165.356, 1591.270
1165.838, 1596.017
1166.320, 1602.402
1166.802, 1611.516
1167.284, 1619.118
1167.766, 1614.163
1168.249, 1602.769
1168.731, 1600.358
1169.213, 1612.089
1169.695, 1619.661
1170.177, 1613.530
1170.659, 1606.026
1171.141, 1601.781
1171.623, 1600.435
1172.106, 1602.388
1172.588, 1606.521
1173.070, 1608.431
1173.552, 1604.595
1174.034, 1601.429
1174.516, 1602.792
1174.998, 1604.760
1175.480, 1604.849
1175.963, 1603.024
1176.445, 1596.570
1176.927, 1586.245
1177.409, 1579.619
1177.891, 1581.646
1178.373, 1588.298
1178.855, 1601.303
1179.337, 1615.908
1179.819, 1626.184
1180.302, 1632.124
1180.784, 1629.927
1181.266, 1618.666
1181.748, 1609.257
1182.230, 1609.113
1182.712, 1614.860
1183.194, 1629.392
1183.676, 1648.082
1184.158, 1648.008
1184.641, 1629.578
1185.123, 1640.803
1185.605, 1647.390
1186.087, 1649.589
1186.569, 1634.258
1187.051, 1641.563
1187.533, 1639.797
1188.015, 1637.659
1188.498, 1648.152
1188.980, 1635.371
1189.462, 1645.662
1189.944, 1646.744
1190.426, 1652.040
1190.908, 1648.209
1191.390, 1647.197
1191.872, 1655.316
1192.354, 1658.379
1192.837, 1653.498
1193.319, 1659.063
1193.801, 1645.963
1194.283, 1641.870
1194.765, 1648.545
1195.247, 1635.796
1195.729, 1612.849
1196.211, 1605.609
1196.693, 1630.854
1197.176, 1640.977
1197.658, 1629.432
1198.140, 1614.468
1198.622, 1616.155
1199.104, 1624.976
1199.586, 1625.662
1200.068, 1618.948
1200.550, 1617.553
1201.033, 1626.833
1201.515, 1635.430
1201.997, 1642.865
1202.479, 1645.322
1202.961, 1629.120
1203.443, 1607.759
1203.925, 1606.385
1204.407, 1629.668
1204.890, 1647.718
1205.372, 1655.636
1205.854, 1658.026
1206.336, 1655.068
1206.818, 1649.356
1207.300, 1646.098
1207.782, 1644.064
1208.264, 1640.349
1208.746, 1632.544
1209.229, 1629.648
1209.711, 1635.923
1210.193, 1640.741
1210.675, 1636.121
1211.157, 1627.770
1211.639, 1632.817
1212.121, 1645.930
1212.603, 1652.969
1213.085, 1642.263
1213.568, 1636.853
1214.050, 1640.117
1214.532, 1647.509
1215.014, 1660.508
1215.496, 1673.761
1215.978, 1665.178
1216.460, 1640.645
1216.942, 1624.388
1217.425, 1631.628
1217.907, 1642.094
1218.389, 1655.177
1218.871, 1665.031
1219.353, 1660.634
1219.835, 1648.215
1220.317, 1647.306
1220.799, 1657.660
1221.281, 1664.320
1221.764, 1656.809
1222.246, 1650.440
1222.728, 1648.373
1223.210, 1649.615
1223.692, 1656.748
1224.174, 1665.245
1224.656, 1660.048
1225.138, 1638.453
1225.620, 1621.617
1226.103, 1622.937
1226.585, 1623.090
1227.067, 1613.703
1227.549, 1602.862
1228.031, 1613.932
1228.513, 1637.894
1228.995, 1649.127
1229.477, 1639.222
1229.960, 1630.101
1230.442, 1626.646
1230.924, 1628.032
1231.406, 1636.345
1231.888, 1647.623
1232.370, 1647.864
1232.852, 1641.671
1233.334, 1642.843
1233.816, 1663.316
1234.299, 1672.759
1234.781, 1657.147
1235.263, 1642.452
1235.745, 1647.525
1236.227, 1665.736
1236.709, 1680.539
1237.191, 1690.521
1237.673, 1691.117
1238.156, 1667.948
1238.638, 1654.163
1239.120, 1656.517
1239.602, 1663.574
1240.084, 1664.817
1240.566, 1662.897
1241.048, 1667.846
1241.530, 1677.021
1242.012, 1678.318
1242.495, 1654.345
1242.977, 1641.263
1243.459, 1647.217
1243.941, 1659.076
1244.423, 1660.217
1244.905, 1656.673
1245.387, 1665.698
1245.869, 1685.488
1246.351, 1694.605
1246.834, 1675.279
1247.316, 1660.641
1247.798, 1656.257
1248.280, 1657.840
1248.762, 1659.969
1249.244, 1663.630
1249.726, 1672.084
1250.208, 1685.568
1250.691, 1695.599
1251.173, 1702.876
1251.655, 1701.062
1252.137, 1684.776
1252.619, 1666.683
1253.101, 1670.231
1253.583, 1683.816
1254.065, 1687.520
1254.547, 1677.091
1255.030, 1673.194
1255.512, 1680.131
1255.994, 1685.965
1256.476, 1686.030
1256.958, 1683.835
1257.440, 1683.723
1257.922, 1685.405
1258.404, 1689.706
1258.886, 1698.940
1259.369, 1698.043
1259.851, 1684.144
1260.333, 1671.322
1260.815, 1666.941
1261.297, 1665.485
1261.779, 1656.954
1262.261, 1647.518
1262.743, 1647.065
1263.226, 1658.587
1263.708, 1673.676
1264.190, 1694.092
1264.672, 1706.059
1265.154, 1692.771
1265.636, 1676.768
1266.118, 1686.964
1266.600, 1708.031
1267.083, 1713.596
1267.565, 1697.434
1268.047, 1687.603
1268.529, 1684.407
1269.011, 1683.151
1269.493, 1680.105
1269.975, 1678.212
1270.457, 1683.441
1270.939, 1689.711
1271.422, 1684.787
1271.904, 1665.986
1272.386, 1661.333
1272.868, 1671.735
1273.350, 1682.403
1273.832, 1682.286
1274.314, 1679.770
1274.796, 1678.171
1275.278, 1678.482
1275.761, 1682.366
1276.243, 1689.745
1276.725, 1701.227
1277.207, 1716.586
1277.689, 1724.090
1278.171, 1705.961
1278.653, 1690.285
1279.135, 1690.510
1279.618, 1700.247
1280.100, 1713.852
1280.582, 1728.607
1281.064, 1725.771
1281.546, 1703.614
1282.028, 1686.011
1282.510, 1688.463
1282.992, 1694.262
1283.474, 1698.690
1283.957, 1702.159
##END=



