##NAMES=Xenotime-(Y)
##RRUFFID=R060428
##IDEAL CHEMISTRY=Y^3+^PO_4_
##LOCALITY=Zagi Mountain, near Hammedabad, Khaffor Dehri, North-West Frontier Province, Pakistan
##OWNER=RRUFF
##SOURCE=Herb Obodda
##DESCRIPTION=Brown prismatic crystals
##STATUS=The identification of this mineral is confirmed by single-crystal X-ray diffraction and chemical analysis.
##URL=rruff.info/R060428
##MEASURED CHEMISTRY=(Y_0.85_Dy_0.11_Yb_0.04_)_Î£=1_P_1.00_O_4_
37.633, 0.000
38.116, 0.000
38.598, 0.000
39.080, 0.000
39.562, 0.000
40.044, 0.000
40.526, 0.000
41.008, 0.000
41.490, 0.000
41.972, 0.000
42.455, 0.000
42.937, 0.000
43.419, 0.000
43.901, 0.000
44.383, 0.000
44.865, 0.000
45.347, 0.000
45.829, 0.000
46.311, 0.000
46.794, 0.000
47.276, 0.000
47.758, 0.000
48.240, 0.000
48.722, 0.000
49.204, 0.000
49.686, 0.000
50.168, 0.000
50.651, 0.000
51.133, 0.000
51.615, 0.000
52.097, 0.000
52.579, 0.000
53.061, 0.000
53.543, 0.000
54.025, 0.000
54.507, 0.000
54.990, 0.000
55.472, 0.000
55.954, 0.000
56.436, 0.000
56.918, 0.000
57.400, 0.000
57.882, 0.000
58.364, 0.000
58.847, 0.000
59.329, 0.000
59.811, 0.000
60.293, 0.000
60.775, 0.000
61.257, 0.000
61.739, 0.000
62.221, 0.000
62.703, 0.000
63.186, 0.000
63.668, 0.000
64.150, 0.000
64.632, 0.000
65.114, 0.000
65.596, 0.000
66.078, 0.000
66.560, 0.000
67.043, 0.000
67.525, 0.000
68.007, 0.000
68.489, 0.000
68.971, 0.000
69.453, 0.000
69.935, 0.000
70.417, 0.000
70.899, 0.000
71.382, 0.000
71.864, 0.000
72.346, 0.000
72.828, 0.000
73.310, 0.000
73.792, 0.000
74.274, 0.000
74.756, 0.000
75.239, 0.000
75.721, 0.000
76.203, 0.000
76.685, 0.000
77.167, 0.000
77.649, 0.000
78.131, 0.000
78.613, 0.000
79.095, 0.000
79.578, 0.000
80.060, 0.000
80.542, 0.000
81.024, 0.000
81.506, 0.000
81.988, 0.000
82.470, 0.000
82.952, 0.000
83.435, 0.000
83.917, 0.000
84.399, 0.000
84.881, 150.225
85.363, 159.470
85.845, 159.826
86.327, 151.255
86.809, 143.790
87.291, 144.577
87.774, 149.841
88.256, 153.913
88.738, 153.982
89.220, 151.769
89.702, 148.257
90.184, 142.721
90.666, 138.204
91.148, 138.015
91.631, 141.656
92.113, 147.124
92.595, 156.013
93.077, 165.918
93.559, 170.440
94.041, 165.123
94.523, 155.162
95.005, 151.425
95.487, 154.293
95.970, 160.266
96.452, 167.032
96.934, 174.400
97.416, 180.071
97.898, 181.804
98.380, 179.910
98.862, 180.136
99.344, 181.725
99.826, 186.583
100.309, 201.107
100.791, 228.738
101.273, 254.283
101.755, 265.638
102.237, 256.118
102.719, 259.472
103.201, 282.741
103.683, 323.474
104.165, 359.159
104.648, 385.488
105.130, 411.874
105.612, 448.245
106.094, 500.548
106.576, 553.240
107.058, 602.703
107.540, 648.923
108.022, 693.771
108.505, 733.431
108.987, 772.794
109.469, 820.778
109.951, 889.907
110.433, 957.830
110.915, 1016.517
111.397, 1053.005
111.879, 1098.582
112.362, 1160.066
112.844, 1234.544
113.326, 1307.505
113.808, 1375.277
114.290, 1441.570
114.772, 1508.187
115.254, 1576.586
115.736, 1644.610
116.218, 1714.253
116.701, 1785.920
117.183, 1849.494
117.665, 1897.516
118.147, 1936.051
118.629, 1972.699
119.111, 2016.428
119.593, 2055.910
120.075, 2080.855
120.558, 2085.902
121.040, 2090.408
121.522, 2109.738
122.004, 2138.830
122.486, 2164.322
122.968, 2175.229
123.450, 2179.428
123.932, 2186.052
124.414, 2196.862
124.897, 2211.190
125.379, 2226.540
125.861, 2243.435
126.343, 2267.329
126.825, 2305.442
127.307, 2354.204
127.789, 2405.216
128.271, 2455.608
128.753, 2505.872
129.236, 2557.313
129.718, 2610.375
130.200, 2662.297
130.682, 2706.785
131.164, 2745.154
131.646, 2786.084
132.128, 2835.617
132.611, 2892.453
133.093, 2947.975
133.575, 3002.028
134.057, 3053.422
134.539, 3096.526
135.021, 3130.104
135.503, 3166.182
135.985, 3216.417
136.467, 3282.118
136.949, 3341.982
137.432, 3391.786
137.914, 3433.283
138.396, 3474.293
138.878, 3514.993
139.360, 3554.115
139.842, 3587.622
140.324, 3612.225
140.806, 3644.073
141.289, 3687.487
141.771, 3743.525
142.253, 3805.099
142.735, 3876.609
143.217, 3950.950
143.699, 4014.180
144.181, 4056.922
144.663, 4105.144
145.145, 4169.425
145.628, 4259.491
146.110, 4342.612
146.592, 4414.304
147.074, 4478.593
147.556, 4546.991
148.038, 4624.811
148.520, 4701.732
149.002, 4770.734
149.484, 4825.964
149.967, 4882.059
150.449, 4942.986
150.931, 5008.437
151.413, 5063.294
151.895, 5102.892
152.377, 5134.808
152.859, 5164.125
153.342, 5193.420
153.824, 5218.159
154.306, 5238.120
154.788, 5253.824
155.270, 5263.260
155.752, 5253.621
156.234, 5241.818
156.716, 5247.662
157.198, 5299.467
157.680, 5349.212
158.163, 5377.960
158.645, 5374.305
159.127, 5374.075
159.609, 5377.568
160.091, 5390.665
160.573, 5425.243
161.055, 5449.699
161.538, 5519.229
162.020, 5682.895
162.502, 6070.369
162.984, 6375.144
163.466, 6418.698
163.948, 6254.405
164.430, 6098.893
164.912, 6045.651
165.394, 6049.771
165.876, 6070.924
166.359, 6112.297
166.841, 6154.583
167.323, 6185.872
167.805, 6206.644
168.287, 6226.968
168.769, 6254.866
169.251, 6285.665
169.734, 6313.489
170.216, 6343.300
170.698, 6365.135
171.180, 6366.201
171.662, 6344.348
172.144, 6321.589
172.626, 6323.441
173.108, 6337.370
173.590, 6336.556
174.072, 6305.225
174.555, 6253.199
175.037, 6188.223
175.519, 6107.106
176.001, 6025.404
176.483, 5959.271
176.965, 5905.218
177.447, 5851.652
177.930, 5785.293
178.412, 5715.496
178.894, 5660.206
179.376, 5627.255
179.858, 5603.088
180.340, 5571.894
180.822, 5533.974
181.304, 5492.577
181.786, 5443.719
182.268, 5392.837
182.751, 5357.066
183.233, 5343.427
183.715, 5344.887
184.197, 5349.193
184.679, 5356.265
185.161, 5366.815
185.643, 5384.368
186.125, 5407.049
186.608, 5425.804
187.090, 5434.677
187.572, 5437.693
188.054, 5445.423
188.536, 5457.131
189.018, 5477.108
189.500, 5513.631
189.982, 5565.622
190.464, 5619.183
190.947, 5669.565
191.429, 5716.713
191.911, 5760.386
192.393, 5798.890
192.875, 5837.577
193.357, 5890.122
193.839, 5957.443
194.321, 6015.996
194.804, 6044.639
195.286, 6046.388
195.768, 6072.512
196.250, 6129.647
196.732, 6207.188
197.214, 6288.332
197.696, 6375.827
198.178, 6454.125
198.661, 6506.331
199.143, 6531.648
199.625, 6570.595
200.107, 6630.453
200.589, 6705.168
201.071, 6773.405
201.553, 6833.363
202.035, 6893.905
202.517, 6958.844
202.999, 7027.600
203.482, 7107.957
203.964, 7204.178
204.446, 7313.041
204.928, 7416.210
205.410, 7511.502
205.892, 7605.859
206.374, 7700.659
206.857, 7792.514
207.339, 7902.518
207.821, 8038.224
208.303, 8198.321
208.785, 8361.738
209.267, 8527.925
209.749, 8695.244
210.231, 8854.393
210.713, 8991.685
211.195, 9163.453
211.678, 9391.423
212.160, 9680.852
212.642, 9969.093
213.124, 10254.450
213.606, 10544.270
214.088, 10850.880
214.570, 11168.880
215.053, 11502.160
215.535, 11847.160
216.017, 12200.260
216.499, 12591.530
216.981, 13022.910
217.463, 13495.340
217.945, 14005.320
218.427, 14564.790
218.909, 15147.080
219.391, 15737.420
219.874, 16330.150
220.356, 16961.820
220.838, 17635.439
221.320, 18343.840
221.802, 19050.070
222.284, 19759.609
222.766, 20470.180
223.249, 21196.850
223.731, 21939.109
224.213, 22682.760
224.695, 23440.359
225.177, 24198.711
225.659, 24919.680
226.141, 25604.039
226.623, 26263.740
227.105, 26912.141
227.587, 27568.350
228.070, 28166.020
228.552, 28698.619
229.034, 29164.199
229.516, 29566.619
229.998, 29900.961
230.480, 30172.961
230.962, 30381.949
231.445, 30535.779
231.927, 30608.430
232.409, 30574.160
232.891, 30445.221
233.373, 30329.670
233.855, 30233.221
234.337, 30141.840
234.819, 30039.670
235.301, 29896.020
235.783, 29804.801
236.266, 29788.160
236.748, 29843.900
237.230, 29908.170
237.712, 29953.949
238.194, 30037.529
238.676, 30210.029
239.158, 30489.961
239.640, 30819.961
240.123, 31192.461
240.605, 31607.721
241.087, 32069.561
241.569, 32595.670
242.051, 33149.500
242.533, 33708.379
243.015, 34276.430
243.497, 34824.449
243.980, 35346.570
244.462, 35842.199
244.944, 36317.910
245.426, 36790.469
245.908, 37227.629
246.390, 37588.949
246.872, 37873.750
247.354, 38086.172
247.836, 38234.750
248.319, 38323.789
248.801, 38299.391
249.283, 38149.121
249.765, 37894.828
250.247, 37562.828
250.729, 37149.289
251.211, 36662.852
251.693, 36095.070
252.176, 35440.840
252.658, 34751.398
253.140, 34025.988
253.622, 33270.320
254.104, 32480.369
254.586, 31658.391
255.068, 30793.131
255.550, 29889.539
256.032, 28928.971
256.515, 27983.850
256.997, 27057.211
257.479, 26153.221
257.961, 25282.641
258.443, 24460.020
258.925, 23652.830
259.407, 22854.500
259.889, 22064.551
260.371, 21290.721
260.854, 20523.109
261.336, 19787.471
261.818, 19136.051
262.300, 18599.529
262.782, 18088.000
263.264, 17570.029
263.746, 17036.230
264.228, 16549.631
264.711, 16110.300
265.193, 15714.040
265.675, 15347.500
266.157, 15018.040
266.639, 14706.540
267.121, 14398.250
267.603, 14093.850
268.085, 13824.300
268.568, 13597.900
269.050, 13400.690
269.532, 13212.330
270.014, 13031.320
270.496, 12866.490
270.978, 12723.910
271.460, 12607.080
271.942, 12500.070
272.424, 12403.780
272.906, 12317.790
273.389, 12238.820
273.871, 12163.030
274.353, 12107.480
274.835, 12079.280
275.317, 12078.980
275.799, 12101.140
276.281, 12147.270
276.763, 12213.430
277.246, 12291.720
277.728, 12380.800
278.210, 12489.230
278.692, 12623.130
279.174, 12784.860
279.656, 12949.620
280.138, 13111.290
280.620, 13288.050
281.103, 13509.000
281.585, 13774.800
282.067, 14075.810
282.549, 14415.120
283.031, 14791.180
283.513, 15167.390
283.995, 15529.360
284.477, 15913.790
284.959, 16385.980
285.442, 16946.971
285.924, 17528.119
286.406, 18102.670
286.888, 18671.320
287.370, 19230.820
287.852, 19765.859
288.334, 20323.170
288.816, 20961.721
289.298, 21681.141
289.781, 22440.230
290.263, 23209.020
290.745, 23998.711
291.227, 24873.350
291.709, 25843.221
292.191, 26842.641
292.673, 27810.080
293.155, 28745.480
293.638, 29653.520
294.120, 30575.840
294.602, 31466.930
295.084, 32204.039
295.566, 32780.961
296.048, 33194.762
296.530, 33411.469
297.012, 33454.461
297.495, 33420.488
297.977, 33300.691
298.459, 33146.719
298.941, 33035.129
299.423, 32965.148
299.905, 32978.391
300.387, 33114.059
300.869, 33365.281
301.351, 33717.980
301.834, 34201.961
302.316, 34767.621
302.798, 35345.051
303.280, 35939.301
303.762, 36533.941
304.244, 37123.469
304.726, 37710.191
305.208, 38314.699
305.690, 39000.371
306.173, 39670.012
306.655, 40210.230
307.137, 40623.250
307.619, 40961.340
308.101, 41278.879
308.583, 41550.699
309.065, 41733.922
309.547, 41803.129
310.030, 41786.879
310.512, 41695.930
310.994, 41533.238
311.476, 41321.340
311.958, 41100.762
312.440, 40834.109
312.922, 40480.359
313.404, 39993.961
313.887, 39438.738
314.369, 38840.711
314.851, 38203.590
315.333, 37524.891
315.815, 36810.289
316.297, 36063.328
316.779, 35289.672
317.261, 34476.109
317.743, 33650.551
318.225, 32826.602
318.708, 31996.631
319.190, 31157.449
319.672, 30293.680
320.154, 29429.350
320.636, 28572.770
321.118, 27685.109
321.600, 26849.289
322.082, 26094.381
322.565, 25410.801
323.047, 24749.400
323.529, 24092.260
324.011, 23460.160
324.493, 22858.631
324.975, 22307.230
325.457, 21763.590
325.939, 21205.369
326.422, 20646.881
326.904, 20140.980
327.386, 19717.699
327.868, 19331.010
328.350, 18966.600
328.832, 18635.381
329.314, 18306.650
329.796, 17981.369
330.278, 17657.330
330.761, 17333.301
331.243, 16988.109
331.725, 16663.859
332.207, 16380.370
332.689, 16149.950
333.171, 15932.260
333.653, 15728.470
334.135, 15536.360
334.617, 15357.940
335.100, 15205.230
335.582, 15039.690
336.064, 14843.240
336.546, 14602.170
337.028, 14399.260
337.510, 14246.440
337.992, 14119.840
338.474, 13986.520
338.957, 13841.620
339.439, 13703.470
339.921, 13573.820
340.403, 13452.910
340.885, 13368.160
341.367, 13326.070
341.849, 13301.510
342.331, 13261.710
342.814, 13205.790
343.296, 13160.200
343.778, 13134.010
344.260, 13125.150
344.742, 13120.770
345.224, 13119.350
345.706, 13135.440
346.188, 13189.320
346.670, 13277.350
347.153, 13368.440
347.635, 13450.190
348.117, 13535.300
348.599, 13653.070
349.081, 13804.030
349.563, 13966.180
350.045, 14111.510
350.527, 14253.540
351.009, 14431.850
351.492, 14665.610
351.974, 14918.990
352.456, 15152.860
352.938, 15370.220
353.420, 15592.860
353.902, 15829.920
354.384, 16080.920
354.866, 16347.360
355.349, 16625.211
355.831, 16926.551
356.313, 17258.279
356.795, 17619.770
357.277, 18006.109
357.759, 18426.711
358.241, 18862.949
358.723, 19296.221
359.206, 19711.449
359.688, 20173.000
360.170, 20728.830
360.652, 21347.539
361.134, 21977.619
361.616, 22594.859
362.098, 23223.381
362.580, 23866.529
363.062, 24521.039
363.544, 25223.170
364.027, 26012.760
364.509, 26840.590
364.991, 27642.660
365.473, 28344.580
365.955, 29089.650
366.437, 29916.010
366.919, 30825.439
367.401, 31769.461
367.884, 32747.180
368.366, 33759.340
368.848, 34807.051
369.330, 35943.781
369.812, 37059.398
370.294, 38185.809
370.776, 39304.480
371.258, 40274.328
371.741, 41135.051
372.223, 41813.590
372.705, 42279.500
373.187, 42558.410
373.669, 42572.559
374.151, 42319.859
374.633, 41798.059
375.115, 40960.961
375.598, 39726.719
376.080, 38367.180
376.562, 36986.262
377.044, 35588.270
377.526, 34165.340
378.008, 32682.789
378.490, 31233.939
378.972, 29921.250
379.454, 28757.359
379.936, 27706.631
380.419, 26781.439
380.901, 25968.920
381.383, 25276.859
381.865, 24703.221
382.347, 24228.881
382.829, 23832.689
383.311, 23516.221
383.793, 23267.600
384.276, 23086.699
384.758, 22973.461
385.240, 22925.141
385.722, 22941.480
386.204, 23015.689
386.686, 23135.240
387.168, 23308.990
387.650, 23555.990
388.133, 23877.910
388.615, 24270.010
389.097, 24720.430
389.579, 25236.561
390.061, 25829.760
390.543, 26500.779
391.025, 27255.570
391.507, 28090.381
391.989, 29006.311
392.472, 30006.961
392.954, 31102.170
393.436, 32293.420
393.918, 33563.949
394.400, 34914.039
394.882, 36340.391
395.364, 37833.422
395.846, 39394.352
396.328, 41054.359
396.811, 42875.859
397.293, 44801.750
397.775, 46783.590
398.257, 48772.328
398.739, 50863.051
399.221, 53085.609
399.703, 55447.750
400.185, 57851.129
400.668, 60318.852
401.150, 62823.340
401.632, 65360.461
402.114, 68009.227
402.596, 70542.969
403.078, 72987.297
403.560, 75309.180
404.042, 77412.609
404.525, 79384.453
405.007, 80918.773
405.489, 81869.562
405.971, 82223.758
406.453, 82077.977
406.935, 81396.156
407.417, 80275.477
407.899, 78737.711
408.381, 76782.781
408.864, 74785.219
409.346, 72804.148
409.828, 70899.141
410.310, 69171.562
410.792, 67605.297
411.274, 66392.352
411.756, 65693.359
412.238, 65501.891
412.720, 65832.047
413.203, 66744.391
413.685, 68104.367
414.167, 69745.344
414.649, 71664.609
415.131, 73937.344
415.613, 76602.797
416.095, 79619.508
416.577, 82975.523
417.060, 86628.133
417.542, 90643.617
418.024, 94919.352
418.506, 99579.461
418.988, 104762.000
419.470, 110741.398
419.952, 117157.000
420.434, 123886.203
420.917, 130912.500
421.399, 138070.000
421.881, 145883.703
422.363, 153521.797
422.845, 160061.094
423.327, 166118.094
423.809, 170270.594
424.291, 172316.500
424.773, 172247.703
425.255, 169697.594
425.738, 164027.703
426.220, 156483.594
426.702, 147629.703
427.184, 136635.797
427.666, 125925.398
428.148, 115419.703
428.630, 105297.500
429.112, 95961.680
429.595, 87257.000
430.077, 79508.523
430.559, 72911.008
431.041, 67486.180
431.523, 62674.641
432.005, 58435.020
432.487, 54771.379
432.969, 51692.488
433.452, 49184.219
433.934, 46928.270
434.416, 44830.969
434.898, 42927.449
435.380, 41337.301
435.862, 40038.480
436.344, 38918.148
436.826, 37914.512
437.308, 37006.141
437.791, 36146.961
438.273, 35321.059
438.755, 34560.078
439.237, 33905.590
439.719, 33339.781
440.201, 32826.969
440.683, 32338.850
441.165, 31894.381
441.647, 31512.539
442.130, 31192.801
442.612, 30928.510
443.094, 30704.430
443.576, 30537.770
444.058, 30449.529
444.540, 30515.189
445.022, 30585.391
445.504, 30593.980
445.987, 30554.180
446.469, 30593.311
446.951, 30783.590
447.433, 31013.840
447.915, 31227.439
448.397, 31406.520
448.879, 31597.580
449.361, 31786.910
449.844, 31994.211
450.326, 32260.930
450.808, 32591.330
451.290, 32975.012
451.772, 33422.641
452.254, 33932.629
452.736, 34422.020
453.218, 34863.512
453.700, 35370.461
454.183, 36121.648
454.665, 37112.148
455.147, 37974.141
455.629, 38613.570
456.111, 39103.391
456.593, 39617.102
457.075, 40143.172
457.557, 40584.102
458.039, 40811.070
458.522, 40919.871
459.004, 41058.262
459.486, 41235.801
459.968, 41491.660
460.450, 41829.051
460.932, 42274.480
461.414, 42884.871
461.896, 43706.730
462.379, 44675.430
462.861, 45750.410
463.343, 46935.789
463.825, 48279.301
464.307, 49894.309
464.789, 51643.840
465.271, 53423.121
465.753, 55162.641
466.236, 57026.250
466.718, 59095.148
467.200, 61298.359
467.682, 63500.871
468.164, 65573.453
468.646, 67738.219
469.128, 70069.227
469.610, 72622.320
470.092, 75160.219
470.574, 77705.391
471.057, 80203.758
471.539, 82593.953
472.021, 84834.500
472.503, 87068.906
472.985, 89405.141
473.467, 91727.750
473.949, 93733.297
474.431, 95423.656
474.914, 96758.148
475.396, 97761.383
475.878, 98397.453
476.360, 98516.062
476.842, 98102.883
477.324, 97217.727
477.806, 95842.797
478.288, 94047.320
478.771, 91996.188
479.253, 89652.469
479.735, 87164.781
480.217, 84566.859
480.699, 81896.922
481.181, 79289.461
481.663, 76778.453
482.145, 74384.102
482.627, 72115.547
483.110, 69933.273
483.592, 67925.898
484.074, 66155.188
484.556, 64591.770
485.038, 63215.621
485.520, 62129.441
486.002, 61120.422
486.484, 60116.750
486.966, 59094.801
487.449, 58235.988
487.931, 57575.730
488.413, 57060.680
488.895, 56648.078
489.377, 56321.711
489.859, 56170.961
490.341, 56245.789
490.823, 56473.559
491.306, 56637.840
491.788, 56722.781
492.270, 56929.922
492.752, 57390.801
493.234, 58065.500
493.716, 58795.820
494.198, 59577.871
494.680, 60449.801
495.163, 61473.961
495.645, 62616.711
496.127, 63853.191
496.609, 65153.859
497.091, 66550.531
497.573, 68050.773
498.055, 69649.000
498.537, 71365.133
499.019, 73170.781
499.502, 75107.023
499.984, 77200.391
500.466, 79487.133
500.948, 81886.641
501.430, 84366.523
501.912, 86961.023
502.394, 89676.188
502.876, 92484.797
503.358, 95465.961
503.841, 98608.992
504.323, 101912.797
504.805, 105264.102
505.287, 108687.398
505.769, 112174.797
506.251, 115726.703
506.733, 119339.000
507.215, 123028.898
507.698, 126807.297
508.180, 130635.102
508.662, 134442.297
509.144, 138230.797
509.626, 142097.406
510.108, 146096.406
510.590, 150186.906
511.072, 154226.203
511.555, 158181.500
512.037, 162054.000
512.519, 165900.297
513.001, 169637.500
513.483, 173155.094
513.965, 176441.500
514.447, 179495.500
514.929, 182452.906
515.411, 185139.500
515.894, 187337.297
516.376, 189001.906
516.858, 190120.094
517.340, 190652.500
517.822, 190604.906
518.304, 190099.203
518.786, 189289.594
519.268, 187892.594
519.750, 185781.500
520.233, 182786.797
520.715, 179397.500
521.197, 175609.500
521.679, 171411.594
522.161, 166809.406
522.643, 161717.094
523.125, 156428.797
523.607, 151032.703
524.089, 145516.500
524.572, 140029.297
525.054, 134539.703
525.536, 129153.703
526.018, 123951.398
526.500, 118947.203
526.982, 114234.000
527.464, 109921.797
527.946, 105864.102
528.429, 101912.797
528.911, 98151.273
529.393, 94666.211
529.875, 91529.867
530.357, 88664.203
530.839, 85994.469
531.321, 83556.094
531.803, 81261.992
532.286, 79161.469
532.768, 77164.133
533.250, 75250.430
533.732, 73418.719
534.214, 71634.547
534.696, 69880.898
535.178, 68175.703
535.660, 66484.758
536.143, 64824.980
536.625, 63175.590
537.107, 61539.230
537.589, 59925.879
538.071, 58340.309
538.553, 56797.121
539.035, 55268.750
539.517, 53755.930
539.999, 52265.000
540.482, 50832.539
540.964, 49464.441
541.446, 48171.480
541.928, 46975.391
542.410, 45854.129
542.892, 44803.512
543.374, 43814.219
543.856, 42888.551
544.338, 42031.461
544.821, 41236.691
545.303, 40466.672
545.785, 39672.980
546.267, 38923.320
546.749, 38248.352
547.231, 37666.301
547.713, 37144.641
548.195, 36695.770
548.677, 36297.070
549.160, 35925.512
549.642, 35573.219
550.124, 35261.059
550.606, 34996.738
551.088, 34773.879
551.570, 34566.551
552.052, 34374.660
552.534, 34198.422
553.016, 34028.270
553.499, 33868.551
553.981, 33769.289
554.463, 33732.262
554.945, 33741.730
555.427, 33789.340
555.909, 33871.191
556.391, 33979.961
556.873, 34121.070
557.356, 34272.680
557.838, 34401.129
558.320, 34523.000
558.802, 34677.262
559.284, 34890.148
559.766, 35135.012
560.248, 35396.449
560.730, 35672.441
561.213, 35981.039
561.695, 36339.770
562.177, 36726.480
562.659, 37120.660
563.141, 37530.051
563.623, 37939.859
564.105, 38353.891
564.587, 38764.109
565.070, 39168.770
565.552, 39574.609
566.034, 39952.070
566.516, 40298.789
566.998, 40610.340
567.480, 40896.031
567.962, 41156.930
568.444, 41383.699
568.926, 41596.531
569.409, 41768.988
569.891, 41833.121
570.373, 41777.289
570.855, 41670.070
571.337, 41561.602
571.819, 41440.629
572.301, 41293.129
572.783, 41101.949
573.265, 40897.641
573.748, 40660.090
574.230, 40414.949
574.712, 40235.820
575.194, 40143.641
575.676, 40110.590
576.158, 40113.898
576.640, 40145.898
577.122, 40309.180
577.604, 40693.789
578.087, 41093.422
578.569, 41377.480
579.051, 41561.910
579.533, 41528.719
580.015, 41215.852
580.497, 40794.840
580.979, 40472.430
581.461, 40259.949
581.944, 40231.910
582.426, 40435.852
582.908, 40822.961
583.390, 41356.539
583.872, 42025.219
584.354, 42773.879
584.836, 43552.859
585.318, 44406.531
585.800, 45380.352
586.283, 46479.250
586.765, 47646.129
587.247, 48849.840
587.729, 50127.512
588.211, 51519.328
588.693, 53084.371
589.175, 54696.621
589.657, 56336.289
590.140, 58017.172
590.622, 59819.520
591.104, 61762.801
591.586, 63771.672
592.068, 65839.211
592.550, 67943.109
593.032, 70042.258
593.514, 72132.312
593.997, 74290.719
594.479, 76586.648
594.961, 78980.344
595.443, 81381.406
595.925, 83803.922
596.407, 86143.812
596.889, 88333.133
597.371, 90412.992
597.854, 92415.227
598.336, 94428.312
598.818, 96312.789
599.300, 98003.062
599.782, 99529.297
600.264, 101010.398
600.746, 102605.297
601.228, 103992.602
601.710, 105038.398
602.193, 105697.398
602.675, 106355.102
603.157, 107085.203
603.639, 107675.703
604.121, 107953.898
604.603, 107915.500
605.085, 107702.102
605.567, 107315.602
606.049, 106784.398
606.532, 106132.297
607.014, 105360.703
607.496, 104450.297
607.978, 103383.500
608.460, 102192.500
608.942, 100908.203
609.424, 99521.570
609.906, 98084.727
610.388, 96588.750
610.871, 95045.570
611.353, 93427.156
611.835, 91724.148
612.317, 90047.797
612.799, 88385.188
613.281, 86754.203
613.763, 85164.844
614.245, 83627.797
614.727, 82112.891
615.210, 80598.078
615.692, 79111.352
616.174, 77704.172
616.656, 76383.633
617.138, 75048.227
617.620, 73647.258
618.102, 72244.094
618.584, 70930.500
619.067, 69693.102
619.549, 68522.977
620.031, 67461.859
620.513, 66431.203
620.995, 65332.480
621.477, 64151.070
621.959, 63034.789
622.441, 62087.910
622.924, 61206.328
623.406, 60308.391
623.888, 59344.051
624.370, 58419.512
624.852, 57532.461
625.334, 56690.629
625.816, 55898.371
626.298, 55170.699
626.781, 54440.191
627.263, 53679.602
627.745, 52913.250
628.227, 52213.930
628.709, 51581.590
629.191, 50996.191
629.673, 50449.340
630.155, 49946.559
630.637, 49517.090
631.120, 49160.770
631.602, 48814.281
632.084, 48426.270
632.566, 48030.961
633.048, 47656.039
633.530, 47291.629
634.012, 46978.500
634.494, 46731.359
634.976, 46542.121
635.459, 46396.621
635.941, 46318.281
636.423, 46238.660
636.905, 46123.879
637.387, 46010.840
637.869, 46007.449
638.351, 46122.441
638.833, 46290.949
639.315, 46473.871
639.798, 46690.590
640.280, 47021.270
640.762, 47460.410
641.244, 47934.090
641.726, 48346.770
642.208, 48776.629
642.690, 49314.859
643.172, 49985.898
643.654, 50725.840
644.137, 51528.059
644.619, 52386.219
645.101, 53273.301
645.583, 54205.961
646.065, 55168.000
646.547, 56160.770
647.029, 57182.879
647.511, 58196.750
647.994, 59181.621
648.476, 60250.738
648.958, 61461.648
649.440, 62769.270
649.922, 64005.539
650.404, 65179.031
650.886, 66330.680
651.368, 67503.383
651.851, 68681.570
652.333, 69822.703
652.815, 70924.977
653.297, 72035.797
653.779, 73201.570
654.261, 74365.227
654.743, 75487.570
655.225, 76541.172
655.708, 77582.523
656.190, 78647.133
656.672, 79691.117
657.154, 80695.102
657.636, 81687.133
658.118, 82562.797
658.600, 83272.969
659.082, 83882.602
659.565, 84583.969
660.047, 85385.000
660.529, 86082.938
661.011, 86570.383
661.493, 86905.453
661.975, 87227.906
662.457, 87526.898
662.939, 87714.250
663.421, 87805.961
663.904, 87715.969
664.386, 87346.148
664.868, 86674.297
665.350, 85870.578
665.832, 85008.180
666.314, 84028.609
666.796, 82880.938
667.278, 81568.727
667.760, 80065.938
668.243, 78315.062
668.725, 76434.133
669.207, 74594.703
669.689, 72800.391
670.171, 70961.297
670.653, 69021.273
671.135, 67068.594
671.617, 65224.109
672.099, 63488.449
672.582, 61795.172
673.064, 60082.738
673.546, 58428.309
674.028, 56894.789
674.510, 55467.949
674.992, 54090.109
675.474, 52689.379
675.956, 51357.922
676.438, 50161.719
676.921, 49122.781
677.403, 48082.980
677.885, 47023.590
678.367, 46005.211
678.849, 45074.070
679.331, 44241.551
679.813, 43456.148
680.295, 42732.379
680.778, 42037.328
681.260, 41326.801
681.742, 40616.039
682.224, 39982.129
682.706, 39450.090
683.188, 38976.238
683.670, 38543.090
684.152, 38136.609
684.635, 37722.750
685.117, 37266.840
685.599, 36829.422
686.081, 36439.031
686.563, 36093.621
687.045, 35753.250
687.527, 35408.672
688.009, 35099.172
688.492, 34848.391
688.974, 34654.121
689.456, 34438.180
689.938, 34197.102
690.420, 33951.051
690.902, 33727.578
691.384, 33508.340
691.866, 33243.762
692.348, 32926.102
692.831, 32595.680
693.313, 32299.119
693.795, 31997.141
694.277, 31652.039
694.759, 31251.641
695.241, 30810.250
695.723, 30299.340
696.205, 29757.760
696.687, 29242.750
697.170, 28769.500
697.652, 28278.520
698.134, 27755.150
698.616, 27214.490
699.098, 26686.641
699.580, 26176.449
700.062, 25683.850
700.544, 25208.391
701.026, 24752.900
701.509, 24321.830
701.991, 23914.859
702.473, 23528.439
702.955, 23174.449
703.437, 22834.100
703.919, 22492.859
704.401, 22147.760
704.883, 21824.490
705.365, 21532.811
705.848, 21256.320
706.330, 20985.641
706.812, 20714.619
707.294, 20475.020
707.776, 20274.420
708.258, 20086.689
708.740, 19892.490
709.222, 19690.900
709.705, 19468.971
710.187, 19219.340
710.669, 18980.420
711.151, 18794.430
711.633, 18643.830
712.115, 18497.939
712.597, 18353.590
713.079, 18203.141
713.562, 18035.471
714.044, 17860.170
714.526, 17705.090
715.008, 17578.971
715.490, 17455.850
715.972, 17331.490
716.454, 17206.619
716.936, 17089.600
717.419, 16979.840
717.901, 16871.770
718.383, 16753.529
718.865, 16638.500
719.347, 16561.289
719.829, 16516.711
720.311, 16463.330
720.793, 16364.830
721.275, 16254.640
721.758, 16163.480
722.240, 16095.470
722.722, 16017.930
723.204, 15907.160
723.686, 15797.310
724.168, 15708.760
724.650, 15645.190
725.132, 15588.750
725.614, 15543.830
726.097, 15495.980
726.579, 15424.420
727.061, 15333.890
727.543, 15257.150
728.025, 15198.040
728.507, 15153.170
728.989, 15132.300
729.471, 15119.610
729.953, 15088.850
730.436, 15015.390
730.918, 14947.330
731.400, 14902.470
731.882, 14875.600
732.364, 14857.840
732.846, 14854.420
733.328, 14850.380
733.810, 14846.030
734.293, 14838.180
734.775, 14810.130
735.257, 14759.800
735.739, 14729.990
736.221, 14747.130
736.703, 14788.430
737.185, 14814.250
737.667, 14826.640
738.149, 14836.330
738.632, 14849.810
739.114, 14862.310
739.596, 14875.940
740.078, 14890.130
740.560, 14885.100
741.042, 14844.820
741.524, 14798.000
742.006, 14761.020
742.489, 14736.810
742.971, 14679.020
743.453, 14583.520
743.935, 14469.860
744.417, 14353.930
744.899, 14232.330
745.381, 14097.570
745.863, 13946.980
746.346, 13788.600
746.828, 13615.470
747.310, 13442.210
747.792, 13284.890
748.274, 13153.440
748.756, 13024.080
749.238, 12888.540
749.720, 12756.140
750.203, 12637.180
750.685, 12541.810
751.167, 12429.660
751.649, 12289.100
752.131, 12145.450
752.613, 12035.790
753.095, 11956.490
753.577, 11888.380
754.059, 11827.310
754.542, 11770.570
755.024, 11715.850
755.506, 11662.400
755.988, 11607.570
756.470, 11543.720
756.952, 11485.350
757.434, 11438.290
757.916, 11399.550
758.398, 11363.480
758.881, 11336.310
759.363, 11296.590
759.845, 11234.300
760.327, 11157.470
760.809, 11095.930
761.291, 11050.080
761.773, 11009.760
762.255, 10979.320
762.737, 10947.070
763.220, 10890.540
763.702, 10815.360
764.184, 10752.750
764.666, 10727.490
765.148, 10710.720
765.630, 10690.390
766.112, 10665.690
766.594, 10634.320
767.076, 10590.540
767.559, 10549.440
768.041, 10520.180
768.523, 10501.790
769.005, 10477.100
769.487, 10445.530
769.969, 10409.880
770.451, 10369.380
770.933, 10327.180
771.416, 10287.550
771.898, 10250.700
772.380, 10216.960
772.862, 10192.990
773.344, 10167.550
773.826, 10132.660
774.308, 10088.080
774.790, 10031.900
775.273, 9955.121
775.755, 9880.508
776.237, 9831.781
776.719, 9808.169
777.201, 9787.410
777.683, 9768.400
778.165, 9748.120
778.647, 9728.171
779.130, 9703.290
779.612, 9662.731
780.094, 9597.354
780.576, 9533.739
781.058, 9479.586
781.540, 9434.955
782.022, 9402.410
782.504, 9399.193
782.986, 9372.786
783.469, 9311.065
783.951, 9235.181
784.433, 9171.902
784.915, 9121.014
785.397, 9085.639
785.879, 9071.768
786.361, 9059.934
786.843, 9022.969
787.325, 8970.661
787.808, 8922.483
788.290, 8899.141
788.772, 8866.674
789.254, 8798.853
789.736, 8716.246
790.218, 8666.210
790.700, 8673.868
791.182, 8660.179
791.664, 8602.185
792.147, 8521.919
792.629, 8468.699
793.111, 8441.305
793.593, 8424.245
794.075, 8419.296
794.557, 8412.742
795.039, 8387.545
795.521, 8347.903
796.003, 8303.890
796.486, 8249.019
796.968, 8202.022
797.450, 8176.365
797.932, 8165.395
798.414, 8143.545
798.896, 8104.785
799.378, 8072.711
799.860, 8059.575
800.343, 8055.850
800.825, 8027.492
801.307, 7977.940
801.789, 7932.834
802.271, 7908.056
802.753, 7892.335
803.235, 7878.244
803.717, 7864.597
804.200, 7847.398
804.682, 7818.111
805.164, 7792.879
805.646, 7782.255
806.128, 7782.900
806.610, 7762.542
807.092, 7717.101
807.574, 7669.225
808.057, 7628.897
808.539, 7594.988
809.021, 7565.283
809.503, 7539.481
809.985, 7515.146
810.467, 7489.570
810.949, 7466.230
811.431, 7449.086
811.914, 7437.918
812.396, 7424.906
812.878, 7409.373
813.360, 7391.170
813.842, 7371.922
814.324, 7350.958
814.806, 7313.684
815.288, 7258.442
815.770, 7204.053
816.253, 7155.959
816.735, 7119.495
817.217, 7115.657
817.699, 7140.383
818.181, 7150.753
818.663, 7113.579
819.145, 7063.647
819.627, 7018.572
820.109, 6979.713
820.592, 6947.801
821.074, 6924.818
821.556, 6905.109
822.038, 6887.777
822.520, 6872.164
823.002, 6845.778
823.484, 6809.020
823.966, 6777.053
824.448, 6766.530
824.931, 6763.429
825.413, 6754.309
825.895, 6738.102
826.377, 6712.484
826.859, 6660.056
827.341, 6613.359
827.823, 6592.331
828.305, 6598.982
828.787, 6588.506
829.270, 6556.851
829.752, 6522.345
830.234, 6498.308
830.716, 6480.925
831.198, 6458.429
831.680, 6430.776
832.162, 6403.565
832.644, 6379.574
833.127, 6357.858
833.609, 6338.092
834.091, 6320.047
834.573, 6303.891
835.055, 6290.766
835.537, 6277.998
836.019, 6265.187
836.501, 6252.201
836.984, 6231.182
837.466, 6201.894
837.948, 6176.521
838.430, 6172.374
838.912, 6173.479
839.394, 6153.440
839.876, 6112.939
840.358, 6078.960
840.841, 6067.717
841.323, 6063.104
841.805, 6059.657
842.287, 6057.400
842.769, 6040.334
843.251, 6002.045
843.733, 5968.428
844.215, 5955.874
844.697, 5960.119
845.180, 5970.229
845.662, 5984.859
846.144, 5990.659
846.626, 5967.843
847.108, 5941.413
847.590, 5932.764
848.072, 5942.518
848.554, 5944.866
849.036, 5934.262
849.519, 5918.661
850.001, 5899.016
850.483, 5876.523
850.965, 5860.043
851.447, 5849.707
851.929, 5842.324
852.411, 5836.722
852.893, 5832.728
853.375, 5832.451
853.858, 5834.638
854.340, 5832.112
854.822, 5814.797
855.304, 5799.256
855.786, 5795.558
856.268, 5801.204
856.750, 5798.315
857.232, 5786.253
857.714, 5767.256
858.197, 5735.737
858.679, 5701.701
859.161, 5696.589
859.643, 5714.943
860.125, 5729.854
860.607, 5718.526
861.089, 5706.714
861.571, 5715.575
862.054, 5739.096
862.536, 5745.655
863.018, 5715.668
863.500, 5699.576
863.982, 5714.608
864.464, 5750.278
864.946, 5774.757
865.428, 5788.981
865.911, 5801.336
866.393, 5816.289
866.875, 5830.210
867.357, 5830.946
867.839, 5827.832
868.321, 5843.172
868.803, 5915.496
869.285, 5968.035
869.768, 5975.271
870.250, 5957.782
870.732, 5959.080
871.214, 5980.355
871.696, 6013.917
872.178, 6062.437
872.660, 6113.262
873.142, 6141.784
873.624, 6157.890
874.107, 6183.251
874.589, 6233.097
875.071, 6283.408
875.553, 6324.589
876.035, 6359.828
876.517, 6395.735
876.999, 6438.348
877.481, 6462.815
877.963, 6464.850
878.446, 6450.962
878.928, 6424.091
879.410, 6388.857
879.892, 6358.646
880.374, 6336.769
880.856, 6320.004
881.338, 6311.273
881.820, 6304.090
882.302, 6291.626
882.785, 6275.796
883.267, 6246.038
883.749, 6190.395
884.231, 6139.859
884.713, 6133.747
885.195, 6165.145
885.677, 6178.637
886.159, 6167.250
886.642, 6155.768
887.124, 6158.184
887.606, 6175.749
888.088, 6207.485
888.570, 6250.328
889.052, 6325.086
889.534, 6475.931
890.016, 6610.655
890.498, 6671.436
890.981, 6656.782
891.463, 6638.868
891.945, 6616.820
892.427, 6609.065
892.909, 6638.911
893.391, 6685.695
893.873, 6725.396
894.356, 6756.197
894.838, 6787.610
895.320, 6823.429
895.802, 6859.623
896.284, 6898.686
896.766, 6938.187
897.248, 6955.912
897.730, 6949.742
898.212, 6939.026
898.695, 6942.205
899.177, 6941.246
899.659, 6901.402
900.141, 6830.137
900.623, 6753.931
901.105, 6672.980
901.587, 6601.088
902.069, 6548.611
902.552, 6508.939
903.034, 6466.336
903.516, 6419.982
903.998, 6372.571
904.480, 6322.982
904.962, 6274.374
905.444, 6227.611
905.926, 6186.319
906.408, 6162.319
906.891, 6168.138
907.373, 6178.824
907.855, 6177.563
908.337, 6176.865
908.819, 6195.494
909.301, 6241.124
909.783, 6286.421
910.265, 6331.104
910.747, 6372.286
911.230, 6398.817
911.712, 6419.346
912.194, 6463.093
912.676, 6540.234
913.158, 6611.676
913.640, 6640.962
914.122, 6662.844
914.604, 6713.236
915.086, 6812.252
915.569, 6873.334
916.051, 6888.148
916.533, 6884.394
917.015, 6885.542
917.497, 6885.910
917.979, 6861.083
918.461, 6811.282
918.943, 6750.867
919.425, 6686.617
919.908, 6617.705
920.390, 6541.852
920.872, 6459.585
921.354, 6362.365
921.836, 6186.474
922.318, 6146.111
922.800, 6424.142
923.282, 6844.969
923.765, 6780.330
924.247, 6307.872
924.729, 5866.693
925.211, 5684.541
925.693, 5599.445
926.175, 5537.598
926.657, 5489.368
927.139, 5431.732
927.622, 5354.879
928.104, 5281.813
928.586, 5215.891
929.068, 5157.543
929.550, 5112.248
930.032, 5077.296
930.514, 5036.647
930.996, 4983.239
931.479, 4934.210
931.961, 4904.440
932.443, 4885.420
932.925, 4868.157
933.407, 4853.696
933.889, 4836.019
934.371, 4814.279
934.853, 4791.079
935.335, 4769.738
935.818, 4749.115
936.300, 4723.117
936.782, 4691.209
937.264, 4662.837
937.746, 4644.756
938.228, 4632.771
938.710, 4624.476
939.192, 4619.695
939.674, 4617.333
940.157, 4615.634
940.639, 4620.350
941.121, 4639.456
941.603, 4664.410
942.085, 4660.786
942.567, 4633.775
943.049, 4611.579
943.531, 4613.491
944.013, 4620.767
944.496, 4627.048
944.978, 4629.723
945.460, 4620.657
945.942, 4586.578
946.424, 4571.847
946.906, 4589.513
947.388, 4617.435
947.870, 4617.581
948.352, 4597.252
948.835, 4581.721
949.317, 4577.924
949.799, 4575.332
950.281, 4564.212
950.763, 4552.514
951.245, 4548.947
951.727, 4556.286
952.209, 4563.899
952.692, 4573.292
953.174, 4578.622
953.656, 4566.741
954.138, 4548.013
954.620, 4561.249
955.102, 4604.294
955.584, 4637.136
956.066, 4623.047
956.549, 4604.136
957.031, 4607.025
957.513, 4628.598
957.995, 4640.439
958.477, 4639.606
958.959, 4640.057
959.441, 4646.886
959.923, 4657.552
960.406, 4669.962
960.888, 4682.212
961.370, 4688.811
961.852, 4680.653
962.334, 4675.590
962.816, 4686.760
963.298, 4701.076
963.780, 4699.098
964.263, 4674.090
964.745, 4668.559
965.227, 4689.758
965.709, 4714.951
966.191, 4715.288
966.673, 4704.566
967.155, 4709.871
967.637, 4737.449
968.119, 4748.190
968.602, 4703.713
969.084, 4662.067
969.566, 4653.770
970.048, 4677.137
970.530, 4701.219
971.012, 4726.021
971.494, 4747.105
971.976, 4757.500
972.458, 4765.686
972.941, 4784.820
973.423, 4810.344
973.905, 4830.062
974.387, 4827.856
974.869, 4835.728
975.351, 4861.518
975.833, 4897.782
976.315, 4932.782
976.797, 4966.768
977.280, 4997.706
977.762, 5022.705
978.244, 5054.295
978.726, 5110.017
979.208, 5175.372
979.690, 5233.403
980.172, 5275.200
980.654, 5330.271
981.136, 5401.689
981.619, 5481.809
982.101, 5562.408
982.583, 5646.850
983.065, 5753.773
983.547, 5882.167
984.029, 6023.326
984.511, 6152.332
984.994, 6311.465
985.476, 6509.101
985.958, 6761.226
986.440, 7110.403
986.922, 7574.246
987.404, 8086.550
987.886, 8647.122
988.368, 9222.941
988.850, 9735.658
989.333, 10217.870
989.815, 10734.780
990.297, 11298.100
990.779, 11913.840
991.261, 12570.610
991.743, 13298.580
992.225, 14110.170
992.707, 15002.760
993.190, 15961.650
993.672, 16981.699
994.154, 18116.500
994.636, 19317.230
995.118, 20710.900
995.600, 22427.221
996.082, 24480.961
996.564, 27005.930
997.046, 29430.480
997.529, 33231.781
998.011, 39534.559
998.493, 46931.551
998.975, 53141.422
999.457, 57844.160
999.939, 56881.059
1000.421, 47567.641
1000.903, 36309.270
1001.385, 26938.881
1001.868, 19486.051
1002.350, 14202.860
1002.832, 11808.220
1003.314, 10031.740
1003.796, 8975.271
1004.278, 8306.468
1004.760, 7824.161
1005.242, 7505.042
1005.724, 7282.293
1006.207, 7149.673
1006.689, 7057.133
1007.171, 6983.543
1007.653, 6939.413
1008.135, 6935.122
1008.617, 6964.564
1009.099, 7013.751
1009.581, 7082.158
1010.064, 7174.186
1010.546, 7295.165
1011.028, 7433.628
1011.510, 7575.472
1011.992, 7725.282
1012.474, 7894.535
1012.956, 8095.684
1013.438, 8289.146
1013.920, 8446.042
1014.403, 8619.548
1014.885, 8851.544
1015.367, 9139.425
1015.849, 9405.017
1016.331, 9650.007
1016.813, 9923.267
1017.295, 10259.470
1017.777, 10641.220
1018.260, 11052.220
1018.742, 11496.180
1019.224, 11977.430
1019.706, 12471.550
1020.188, 13056.400
1020.670, 13744.400
1021.152, 14538.670
1021.634, 15570.860
1022.116, 16693.381
1022.599, 17632.490
1023.081, 18405.561
1023.563, 18679.170
1024.045, 18107.949
1024.527, 17119.900
1025.009, 15946.840
1025.491, 14556.750
1025.973, 13473.430
1026.456, 12704.870
1026.938, 12112.820
1027.420, 11649.370
1027.902, 11288.650
1028.384, 11018.770
1028.866, 10828.950
1029.348, 10691.180
1029.830, 10628.530
1030.313, 10571.830
1030.795, 10509.700
1031.277, 10454.190
1031.759, 10422.560
1032.241, 10412.940
1032.723, 10424.730
1033.205, 10462.210
1033.687, 10486.740
1034.169, 10461.070
1034.651, 10424.180
1035.134, 10407.230
1035.616, 10410.970
1036.098, 10393.960
1036.580, 10353.040
1037.062, 10314.020
1037.544, 10292.030
1038.026, 10277.980
1038.508, 10264.330
1038.991, 10248.290
1039.473, 10223.610
1039.955, 10170.390
1040.437, 10133.690
1040.919, 10120.160
1041.401, 10121.210
1041.883, 10122.610
1042.365, 10128.500
1042.848, 10158.310
1043.330, 10213.850
1043.812, 10308.960
1044.294, 10472.710
1044.776, 10664.420
1045.258, 10852.540
1045.740, 11042.610
1046.222, 11279.510
1046.704, 11570.280
1047.187, 11871.060
1047.669, 12169.930
1048.151, 12473.540
1048.633, 12782.080
1049.115, 13110.240
1049.597, 13487.710
1050.079, 13917.790
1050.561, 14404.730
1051.043, 14936.460
1051.526, 15536.810
1052.008, 16193.250
1052.490, 16918.699
1052.972, 17801.811
1053.454, 18848.391
1053.936, 20137.510
1054.418, 21856.420
1054.900, 23700.289
1055.383, 25917.410
1055.865, 28058.619
1056.347, 28968.320
1056.829, 28598.029
1057.311, 27065.811
1057.793, 24199.000
1058.275, 20840.990
1058.757, 17695.881
1059.240, 14900.210
1059.722, 12664.220
1060.204, 11044.290
1060.686, 9777.365
1061.168, 8902.992
1061.650, 8216.442
1062.132, 7648.436
1062.614, 7187.203
1063.096, 6805.487
1063.578, 6498.780
1064.061, 6239.337
1064.543, 6034.414
1065.025, 5848.335
1065.507, 5660.036
1065.989, 5484.447
1066.471, 5340.633
1066.953, 5234.179
1067.435, 5145.131
1067.918, 5074.426
1068.400, 5005.004
1068.882, 4914.718
1069.364, 4820.680
1069.846, 4741.716
1070.328, 4677.957
1070.810, 4629.300
1071.292, 4607.197
1071.775, 4574.867
1072.257, 4519.945
1072.739, 4455.552
1073.221, 4407.415
1073.703, 4371.589
1074.185, 4338.861
1074.667, 4306.073
1075.149, 4277.324
1075.631, 4254.836
1076.114, 4237.286
1076.596, 4228.198
1077.078, 4226.803
1077.560, 4196.291
1078.042, 4137.993
1078.524, 4085.219
1079.006, 4064.956
1079.488, 4050.824
1079.971, 4018.593
1080.453, 3976.600
1080.935, 3941.534
1081.417, 3913.166
1081.899, 3894.854
1082.381, 3888.166
1082.863, 3886.402
1083.345, 3886.828
1083.828, 3885.604
1084.310, 3872.734
1084.792, 3848.625
1085.274, 3829.496
1085.756, 3827.853
1086.238, 3822.794
1086.720, 3806.446
1087.202, 3784.899
1087.684, 3773.918
1088.167, 3771.309
1088.649, 3765.427
1089.131, 3752.694
1089.613, 3739.470
1090.095, 3729.426
1090.577, 3721.045
1091.059, 3712.892
1091.541, 3704.914
1092.023, 3700.999
1092.506, 3701.867
1092.988, 3697.440
1093.470, 3679.774
1093.952, 3656.803
1094.434, 3629.609
1094.916, 3605.057
1095.398, 3597.985
1095.880, 3627.156
1096.363, 3643.416
1096.845, 3644.761
1097.327, 3633.208
1097.809, 3598.236
1098.291, 3555.943
1098.773, 3547.089
1099.255, 3568.968
1099.737, 3581.424
1100.219, 3545.370
1100.702, 3526.513
1101.184, 3552.164
1101.666, 3596.762
1102.148, 3607.050
1102.630, 3588.089
1103.112, 3571.869
1103.594, 3565.354
1104.076, 3557.606
1104.558, 3531.240
1105.041, 3509.078
1105.523, 3511.630
1106.005, 3536.855
1106.487, 3557.428
1106.969, 3573.723
1107.451, 3574.796
1107.933, 3546.718
1108.415, 3515.919
1108.898, 3514.847
1109.380, 3528.838
1109.862, 3536.030
1110.344, 3528.127
1110.826, 3525.535
1111.308, 3531.364
1111.790, 3533.082
1112.272, 3512.086
1112.755, 3484.632
1113.237, 3486.648
1113.719, 3510.960
1114.201, 3527.080
1114.683, 3510.951
1115.165, 3504.355
1115.647, 3517.918
1116.129, 3538.306
1116.611, 3549.608
1117.094, 3552.089
1117.576, 3542.247
1118.058, 3519.564
1118.540, 3508.205
1119.022, 3532.667
1119.504, 3560.150
1119.986, 3572.749
1120.468, 3575.949
1120.950, 3591.445
1121.433, 3618.333
1121.915, 3634.378
1122.397, 3631.024
1122.879, 3624.613
1123.361, 3627.933
1123.843, 3635.598
1124.325, 3641.550
1124.807, 3644.833
1125.290, 3657.110
1125.772, 3680.269
1126.254, 3699.867
1126.736, 3707.256
1127.218, 3709.205
1127.700, 3713.521
1128.182, 3718.748
1128.664, 3722.247
1129.146, 3717.970
1129.629, 3721.220
1130.111, 3731.895
1130.593, 3749.923
1131.075, 3781.573
1131.557, 3817.510
1132.039, 3837.187
1132.521, 3843.078
1133.003, 3848.414
1133.485, 3857.927
1133.968, 3867.207
1134.450, 3873.953
1134.932, 3882.544
1135.414, 3900.565
1135.896, 3925.677
1136.378, 3950.094
1136.860, 3972.655
1137.342, 3992.421
1137.825, 4006.221
1138.307, 4019.835
1138.789, 4036.932
1139.271, 4055.147
1139.753, 4067.299
1140.235, 4073.924
1140.717, 4081.608
1141.199, 4092.208
1141.682, 4102.125
1142.164, 4102.866
1142.646, 4106.350
1143.128, 4124.510
1143.610, 4156.509
1144.092, 4181.056
1144.574, 4198.070
1145.056, 4210.583
1145.538, 4218.562
1146.021, 4225.363
1146.503, 4235.655
1146.985, 4246.446
1147.467, 4253.721
1147.949, 4258.543
1148.431, 4252.440
1148.913, 4231.523
1149.395, 4222.195
1149.878, 4254.356
1150.360, 4299.789
1150.842, 4322.303
1151.324, 4327.650
1151.806, 4329.159
1152.288, 4301.172
1152.770, 4332.959
1153.252, 4450.017
1153.734, 4569.074
1154.217, 4606.161
1154.699, 4586.971
1155.181, 4531.885
1155.663, 4455.017
1156.145, 4429.868
1156.627, 4487.110
1157.109, 4611.395
1157.591, 4860.173
1158.073, 5078.684
1158.556, 4959.431
1159.038, 4632.447
1159.520, 4429.853
1160.002, 4398.020
1160.484, 4390.357
1160.966, 4354.788
1161.448, 4324.021
1161.930, 4310.207
1162.413, 4307.823
1162.895, 4306.708
1163.377, 4304.692
1163.859, 4290.903
1164.341, 4258.829
1164.823, 4232.374
1165.305, 4229.373
1165.787, 4230.751
1166.270, 4227.273
1166.752, 4218.500
1167.234, 4198.166
1167.716, 4168.127
1168.198, 4138.834
1168.680, 4110.397
1169.162, 4091.739
1169.644, 4101.593
1170.126, 4113.917
1170.609, 4102.750
1171.091, 4066.854
1171.573, 4041.285
1172.055, 4025.592
1172.537, 4011.170
1173.019, 3989.357
1173.501, 3970.352
1173.983, 3967.187
1174.465, 3968.053
1174.948, 3953.230
1175.430, 3918.066
1175.912, 3900.438
1176.394, 3902.815
1176.876, 3899.934
1177.358, 3863.116
1177.840, 3821.956
1178.322, 3802.266
1178.805, 3798.177
1179.287, 3791.042
1179.769, 3779.586
1180.251, 3770.906
1180.733, 3766.928
1181.215, 3757.689
1181.697, 3725.531
1182.179, 3689.803
1182.661, 3670.486
1183.144, 3666.456
1183.626, 3662.233
1184.108, 3657.574
1184.590, 3651.697
1185.072, 3645.522
1185.554, 3633.998
1186.036, 3604.578
1186.518, 3570.817
1187.000, 3548.540
1187.483, 3539.896
1187.965, 3533.319
1188.447, 3529.498
1188.929, 3522.242
1189.411, 3507.275
1189.893, 3494.297
1190.375, 3505.708
1190.857, 3523.639
1191.340, 3519.624
1191.822, 3483.209
1192.304, 3464.244
1192.786, 3471.100
1193.268, 3477.232
1193.750, 3471.662
1194.232, 3459.332
1194.714, 3445.066
1195.197, 3430.924
1195.679, 3421.249
1196.161, 3419.828
1196.643, 3413.646
1197.125, 3400.632
1197.607, 3386.542
1198.089, 3371.366
1198.571, 3360.074
1199.053, 3341.653
1199.536, 3338.242
1200.018, 3401.346
1200.500, 3665.096
1200.982, 3758.014
1201.464, 3615.184
1201.946, 3431.014
1202.428, 3339.272
1202.910, 3312.125
1203.392, 3298.472
1203.875, 3295.842
1204.357, 3297.717
1204.839, 3308.357
1205.321, 3313.710
1205.803, 3312.776
1206.285, 3306.742
1206.767, 3294.790
1207.249, 3279.310
1207.732, 3262.201
1208.214, 3245.581
1208.696, 3237.478
1209.178, 3249.319
1209.660, 3257.522
1210.142, 3259.243
1210.624, 3257.671
1211.106, 3256.070
1211.589, 3253.839
1212.071, 3250.352
1212.553, 3245.276
1213.035, 3236.614
1213.517, 3206.788
1213.999, 3203.130
1214.481, 3243.083
1214.963, 3288.871
1215.445, 3281.815
1215.927, 3248.070
1216.410, 3242.415
1216.892, 3267.058
1217.374, 3279.783
1217.856, 3265.468
1218.338, 3242.318
1218.820, 3208.594
1219.302, 3178.671
1219.784, 3180.900
1220.267, 3200.963
1220.749, 3213.382
1221.231, 3214.806
1221.713, 3212.075
1222.195, 3206.924
1222.677, 3196.342
1223.159, 3175.861
1223.641, 3156.484
1224.124, 3161.175
1224.606, 3178.412
1225.088, 3187.050
1225.570, 3182.851
1226.052, 3180.664
1226.534, 3186.776
1227.016, 3184.329
1227.498, 3162.905
1227.980, 3137.983
1228.463, 3141.036
1228.945, 3158.381
1229.427, 3165.993
1229.909, 3156.343
1230.391, 3155.604
1230.873, 3172.143
1231.355, 3179.966
1231.837, 3164.725
1232.320, 3141.277
1232.802, 3131.991
1233.284, 3133.531
1233.766, 3143.539
1234.248, 3168.022
1234.730, 3171.243
1235.212, 3144.372
1235.694, 3120.898
1236.177, 3116.283
1236.659, 3124.404
1237.141, 3149.106
1237.623, 3174.949
1238.105, 3174.032
1238.587, 3124.627
1239.069, 3100.094
1239.551, 3103.715
1240.033, 3119.971
1240.516, 3150.972
1240.998, 3177.584
1241.480, 3169.277
1241.962, 3141.644
1242.444, 3118.067
1242.926, 3098.675
1243.408, 3097.987
1243.890, 3118.527
1244.372, 3140.506
1244.855, 3158.015
1245.337, 3164.280
1245.819, 3137.103
1246.301, 3098.754
1246.783, 3090.801
1247.265, 3126.435
1247.747, 3139.323
1248.229, 3127.547
1248.712, 3114.735
1249.194, 3116.062
1249.676, 3122.755
1250.158, 3130.808
1250.640, 3137.567
1251.122, 3138.862
1251.604, 3133.896
1252.086, 3128.536
1252.568, 3122.882
1253.051, 3119.741
1253.533, 3125.129
1254.015, 3129.333
1254.497, 3120.008
1254.979, 3109.099
1255.461, 3115.767
1255.943, 3141.762
1256.425, 3149.818
1256.907, 3139.791
1257.390, 3129.407
1257.872, 3132.551
1258.354, 3135.214
1258.836, 3128.092
1259.318, 3117.624
1259.800, 3110.357
1260.282, 3106.273
1260.764, 3105.767
1261.247, 3108.835
1261.729, 3115.174
1262.211, 3134.148
1262.693, 3143.955
1263.175, 3131.241
1263.657, 3112.458
1264.139, 3109.776
1264.621, 3117.626
1265.104, 3104.363
1265.586, 3072.611
1266.068, 3048.096
1266.550, 3047.436
1267.032, 3049.852
1267.514, 3050.852
1267.996, 3052.303
1268.478, 3056.943
1268.960, 3063.473
1269.443, 3068.397
1269.925, 3071.796
1270.407, 3075.412
1270.889, 3075.825
1271.371, 3083.597
1271.853, 3103.007
1272.335, 3122.180
1272.817, 3127.031
1273.299, 3123.527
1273.782, 3119.665
1274.264, 3116.339
1274.746, 3116.171
1275.228, 3125.362
1275.710, 3121.342
1276.192, 3098.536
1276.674, 3077.306
1277.156, 3086.791
1277.639, 3101.605
1278.121, 3084.134
1278.603, 3045.897
1279.085, 3036.053
1279.567, 3062.409
1280.049, 3085.413
1280.531, 3099.446
1281.013, 3129.888
1281.495, 3245.844
1281.978, 3343.944
1282.460, 3314.911
1282.942, 3203.922
1283.424, 3132.463
1283.906, 3101.964
1284.388, 3074.452
1284.870, 3046.379
1285.352, 3029.561
1285.834, 3043.073
1286.317, 3059.187
1286.799, 3059.553
1287.281, 3054.468
1287.763, 3060.956
1288.245, 3077.114
1288.727, 3088.925
1289.209, 3095.216
1289.691, 3097.899
1290.174, 3100.171
1290.656, 3094.879
1291.138, 3075.464
1291.620, 3055.440
1292.102, 3053.984
1292.584, 3066.532
1293.066, 3085.607
1293.548, 3107.991
1294.031, 3117.397
1294.513, 3089.924
1294.995, 3076.583
1295.477, 3086.880
1295.959, 3104.520
1296.441, 3113.713
1296.923, 3115.883
1297.405, 3110.492
1297.887, 3100.461
1298.370, 3104.230
1298.852, 3120.292
1299.334, 3124.980
1299.816, 3121.624
1300.298, 3112.376
##END=



