##NAMES=Xenotime-(Y)
##RRUFFID=R050178
##IDEAL CHEMISTRY=Y^3+^PO_4_
##LOCALITY=Novo Horizonte, Bahia, Brazil
##OWNER=RRUFF
##SOURCE=Marcus Origlieri
##DESCRIPTION=Brown crystal fragments
##STATUS=The identification of this mineral has been confirmed by X-ray diffraction and chemical analysis
##URL=rruff.info/R050178
##MEASURED CHEMISTRY=(Y_0.74_Dy_0.09_Gd_0.06_Er_0.04_Yb_0.02_Ho_0.01_Tb_0.01_Sm_0.01_Eu_0.01_)_Σ=1.00_(P_0.97_As_0.02_Si_0.01_)_Σ=1.00_O_4_
115.4706, 1024.723
115.9528, 1067.576
116.4349, 1109.583
116.9170, 1153.858
117.3991, 1202.812
117.8812, 1250.185
118.3633, 1293.954
118.8455, 1334.664
119.3276, 1373.216
119.8097, 1411.156
120.2918, 1446.970
120.7739, 1478.799
121.2560, 1504.813
121.7382, 1530.189
122.2203, 1560.934
122.7024, 1594.519
123.1845, 1622.489
123.6666, 1632.837
124.1487, 1637.074
124.6309, 1649.266
125.1130, 1676.680
125.5951, 1709.432
126.0772, 1737.872
126.5593, 1762.406
127.0414, 1786.694
127.5236, 1812.571
128.0057, 1840.178
128.4878, 1870.527
128.9699, 1903.559
129.4520, 1939.372
129.9341, 1978.630
130.4162, 2021.427
130.8984, 2065.492
131.3805, 2110.422
131.8626, 2155.452
132.3447, 2196.585
132.8268, 2228.283
133.3089, 2254.214
133.7911, 2285.169
134.2732, 2315.965
134.7553, 2341.845
135.2374, 2359.168
135.7195, 2368.049
136.2016, 2378.899
136.6838, 2398.835
137.1659, 2427.535
137.6480, 2448.087
138.1301, 2459.109
138.6122, 2464.828
139.0943, 2473.208
139.5765, 2485.191
140.0586, 2495.975
140.5407, 2502.743
141.0228, 2504.476
141.5049, 2507.730
141.9870, 2512.837
142.4692, 2519.494
142.9513, 2526.974
143.4334, 2535.849
143.9155, 2544.473
144.3976, 2551.333
144.8797, 2553.526
145.3619, 2560.795
145.8440, 2574.441
146.3261, 2593.667
146.8082, 2613.910
147.2903, 2637.097
147.7724, 2659.408
148.2546, 2678.766
148.7367, 2693.625
149.2188, 2707.751
149.7009, 2721.144
150.1830, 2733.856
150.6651, 2746.337
151.1473, 2755.433
151.6294, 2766.247
152.1115, 2782.273
152.5936, 2813.928
153.0757, 2839.550
153.5578, 2853.580
154.0400, 2855.045
154.5221, 2861.046
155.0042, 2876.976
155.4863, 2895.727
155.9684, 2911.112
156.4505, 2921.463
156.9327, 2929.406
157.4148, 2935.556
157.8969, 2939.897
158.3790, 2942.146
158.8611, 2941.502
159.3432, 2939.009
159.8254, 2935.849
160.3075, 2930.736
160.7896, 2926.416
161.2717, 2924.039
161.7538, 2923.899
162.2359, 2924.820
162.7181, 2925.555
163.2002, 2927.352
163.6823, 2931.920
164.1644, 2945.225
164.6465, 2957.630
165.1286, 2962.919
165.6108, 2958.739
166.0929, 2954.188
166.5750, 2952.833
167.0571, 2954.142
167.5392, 2957.181
168.0213, 2963.104
168.5035, 2969.558
168.9856, 2974.473
169.4677, 2976.930
169.9498, 2979.625
170.4319, 2986.923
170.9140, 2996.114
171.3962, 3000.742
171.8783, 2991.066
172.3604, 2977.940
172.8425, 2973.572
173.3246, 2983.259
173.8067, 2994.592
174.2889, 2997.790
174.7710, 2993.966
175.2531, 2986.369
175.7352, 2975.670
176.2173, 2962.885
176.6994, 2949.758
177.1816, 2937.447
177.6637, 2923.269
178.1458, 2903.042
178.6279, 2877.550
179.1100, 2851.688
179.5921, 2827.651
180.0743, 2805.294
180.5564, 2785.005
181.0385, 2767.464
181.5206, 2750.694
182.0027, 2730.027
182.4848, 2706.212
182.9670, 2686.352
183.4491, 2676.545
183.9312, 2674.723
184.4133, 2675.695
184.8954, 2679.646
185.3775, 2684.309
185.8596, 2685.120
186.3418, 2682.131
186.8239, 2678.771
187.3060, 2678.491
187.7881, 2680.467
188.2702, 2680.996
188.7523, 2678.731
189.2345, 2674.867
189.7166, 2672.049
190.1987, 2670.294
190.6808, 2669.328
191.1629, 2669.174
191.6451, 2669.780
192.1272, 2670.080
192.6093, 2668.426
193.0914, 2666.961
193.5735, 2673.925
194.0556, 2690.443
194.5378, 2708.128
195.0199, 2717.681
195.5020, 2719.525
195.9841, 2723.641
196.4662, 2733.397
196.9483, 2747.172
197.4305, 2757.740
197.9126, 2764.445
198.3947, 2770.416
198.8768, 2778.194
199.3589, 2787.731
199.8410, 2799.076
200.3232, 2812.667
200.8053, 2827.994
201.2874, 2842.722
201.7695, 2856.647
202.2516, 2870.221
202.7337, 2884.388
203.2159, 2899.318
203.6980, 2912.346
204.1801, 2921.482
204.6622, 2927.586
205.1443, 2939.907
205.6264, 2960.501
206.1086, 2982.571
206.5907, 2997.936
207.0728, 3004.749
207.5549, 3014.056
208.0370, 3028.897
208.5191, 3048.979
209.0013, 3069.611
209.4834, 3091.331
209.9655, 3112.606
210.4476, 3130.639
210.9297, 3143.292
211.4118, 3160.580
211.8940, 3186.309
212.3761, 3220.237
212.8582, 3250.986
213.3403, 3277.412
213.8224, 3302.676
214.3045, 3329.711
214.7867, 3358.987
215.2688, 3389.490
215.7509, 3421.949
216.2330, 3456.063
216.7151, 3487.331
217.1972, 3513.022
217.6794, 3539.677
218.1615, 3575.409
218.6436, 3625.600
219.1257, 3671.286
219.6078, 3705.696
220.0899, 3729.034
220.5721, 3757.550
221.0542, 3792.668
221.5363, 3830.794
222.0184, 3867.351
222.5005, 3900.913
222.9826, 3937.228
223.4648, 3978.173
223.9469, 4024.411
224.4290, 4065.479
224.9111, 4100.554
225.3932, 4131.913
225.8753, 4162.028
226.3575, 4189.834
226.8396, 4218.458
227.3217, 4248.790
227.8038, 4281.308
228.2859, 4309.732
228.7680, 4331.788
229.2502, 4352.378
229.7323, 4376.557
230.2144, 4408.964
230.6965, 4435.919
231.1786, 4453.083
231.6607, 4460.486
232.1429, 4472.734
232.6250, 4493.284
233.1071, 4514.845
233.5892, 4529.824
234.0713, 4532.939
234.5534, 4540.094
235.0356, 4554.660
235.5177, 4576.278
235.9998, 4598.575
236.4819, 4622.920
236.9640, 4646.674
237.4461, 4667.392
237.9283, 4682.975
238.4104, 4699.479
238.8925, 4717.604
239.3746, 4737.383
239.8567, 4757.911
240.3388, 4778.452
240.8210, 4800.708
241.3031, 4826.729
241.7852, 4860.253
242.2673, 4889.603
242.7494, 4911.360
243.2315, 4926.514
243.7137, 4945.648
244.1958, 4971.459
244.6779, 4998.134
245.1600, 5021.550
245.6421, 5040.633
246.1242, 5058.677
246.6064, 5075.774
247.0885, 5092.059
247.5706, 5108.382
248.0527, 5124.481
248.5348, 5140.886
249.0169, 5158.524
249.4990, 5180.979
249.9812, 5196.818
250.4633, 5203.458
250.9454, 5202.629
251.4275, 5202.500
251.9096, 5203.987
252.3917, 5204.899
252.8739, 5204.150
253.3560, 5202.096
253.8381, 5197.235
254.3202, 5187.951
254.8023, 5175.843
255.2844, 5167.684
255.7666, 5166.783
256.2487, 5164.226
256.7308, 5154.582
257.2129, 5133.966
257.6950, 5116.769
258.1772, 5105.099
258.6593, 5096.562
259.1414, 5083.649
259.6235, 5062.667
260.1056, 5043.945
260.5877, 5033.209
261.0699, 5035.111
261.5520, 5030.262
262.0341, 5016.339
262.5162, 4996.996
262.9983, 4979.357
263.4804, 4963.720
263.9626, 4949.456
264.4447, 4936.307
264.9268, 4924.034
265.4089, 4913.513
265.8910, 4904.474
266.3731, 4897.430
266.8553, 4893.375
267.3374, 4893.087
267.8195, 4893.913
268.3016, 4895.019
268.7837, 4896.436
269.2658, 4898.546
269.7480, 4901.915
270.2301, 4905.262
270.7122, 4906.684
271.1943, 4905.960
271.6764, 4903.672
272.1585, 4897.215
272.6407, 4886.451
273.1228, 4890.243
273.6049, 4912.649
274.0870, 4941.700
274.5691, 4962.193
275.0512, 4971.177
275.5334, 4985.833
276.0155, 5012.247
276.4976, 5049.160
276.9797, 5082.931
277.4618, 5112.759
277.9439, 5141.651
278.4260, 5172.636
278.9081, 5205.787
279.3903, 5239.172
279.8724, 5270.914
280.3545, 5302.486
280.8366, 5343.094
281.3187, 5394.163
281.8008, 5448.370
282.2830, 5499.430
282.7651, 5547.309
283.2472, 5596.386
283.7293, 5647.089
284.2114, 5699.983
284.6935, 5755.423
285.1757, 5813.576
285.6578, 5874.776
286.1399, 5940.915
286.6220, 6011.449
287.1041, 6078.893
287.5862, 6141.010
288.0684, 6201.609
288.5505, 6267.236
289.0326, 6338.113
289.5147, 6412.081
289.9968, 6489.099
290.4789, 6568.839
290.9611, 6646.927
291.4432, 6723.189
291.9253, 6798.805
292.4074, 6877.249
292.8895, 6958.229
293.3716, 7031.557
293.8538, 7096.598
294.3359, 7150.794
294.8180, 7186.341
295.3001, 7202.605
295.7822, 7200.437
296.2643, 7173.419
296.7465, 7125.886
297.2286, 7077.392
297.7107, 7037.190
298.1928, 7001.438
298.6749, 6962.184
299.1570, 6919.076
299.6392, 6875.612
300.1213, 6833.381
300.6034, 6793.702
301.0855, 6761.753
301.5676, 6739.968
302.0497, 6726.087
302.5319, 6718.196
303.0140, 6716.052
303.4961, 6717.289
303.9782, 6720.760
304.4603, 6726.120
304.9424, 6732.785
305.4246, 6739.588
305.9067, 6748.650
306.3888, 6762.957
306.8709, 6781.712
307.3530, 6801.680
307.8351, 6821.706
308.3173, 6841.152
308.7994, 6858.669
309.2815, 6872.698
309.7636, 6887.854
310.2457, 6908.978
310.7278, 6934.489
311.2100, 6959.534
311.6921, 6978.923
312.1742, 6998.479
312.6563, 7024.271
313.1384, 7059.569
313.6205, 7092.323
314.1027, 7114.922
314.5848, 7130.587
315.0669, 7145.076
315.5490, 7160.212
316.0311, 7175.467
316.5132, 7190.292
316.9954, 7204.711
317.4775, 7218.577
317.9596, 7234.687
318.4417, 7249.042
318.9238, 7257.290
319.4059, 7251.196
319.8881, 7244.579
320.3702, 7244.415
320.8523, 7250.380
321.3344, 7252.155
321.8165, 7248.276
322.2986, 7238.103
322.7808, 7221.163
323.2629, 7188.804
323.7450, 7158.958
324.2271, 7137.534
324.7092, 7122.814
325.1913, 7104.573
325.6735, 7076.446
326.1556, 7048.202
326.6377, 7024.957
327.1198, 7011.789
327.6019, 6997.145
328.0840, 6978.426
328.5662, 6957.899
329.0483, 6940.620
329.5304, 6926.341
330.0125, 6915.838
330.4946, 6910.250
330.9767, 6912.443
331.4589, 6911.600
331.9410, 6907.745
332.4231, 6900.703
332.9052, 6889.552
333.3873, 6867.943
333.8694, 6851.667
334.3516, 6846.146
334.8337, 6852.240
335.3158, 6854.357
335.7979, 6849.069
336.2800, 6843.558
336.7621, 6844.590
337.2443, 6853.485
337.7264, 6865.327
338.2085, 6879.722
338.6906, 6896.448
339.1727, 6915.435
339.6548, 6937.772
340.1370, 6960.039
340.6191, 6979.353
341.1012, 6994.540
341.5833, 7013.410
342.0654, 7036.392
342.5475, 7063.513
343.0297, 7094.584
343.5118, 7129.245
343.9939, 7168.772
344.4760, 7213.862
344.9581, 7263.831
345.4402, 7318.103
345.9224, 7375.901
346.4045, 7438.746
346.8866, 7508.910
347.3687, 7586.484
347.8508, 7665.333
348.3329, 7740.048
348.8151, 7814.870
349.2972, 7901.394
349.7793, 7999.262
350.2614, 8107.897
350.7435, 8228.756
351.2256, 8358.771
351.7078, 8491.218
352.1899, 8621.595
352.6720, 8755.025
353.1541, 8899.808
353.6362, 9056.664
354.1183, 9221.943
354.6005, 9396.633
355.0826, 9576.743
355.5647, 9757.743
356.0468, 9935.865
356.5289, 10120.80
357.0110, 10327.59
357.4932, 10549.66
357.9753, 10771.66
358.4574, 10981.46
358.9395, 11191.22
359.4216, 11407.12
359.9037, 11629.60
360.3859, 11861.18
360.8680, 12103.59
361.3501, 12353.75
361.8322, 12606.77
362.3143, 12851.20
362.7964, 13106.90
363.2786, 13385.00
363.7607, 13684.23
364.2428, 13991.09
364.7249, 14291.45
365.2070, 14600.35
365.6891, 14927.36
366.1713, 15281.34
366.6534, 15646.02
367.1355, 16013.43
367.6176, 16387.53
368.0997, 16775.32
368.5818, 17197.10
369.0640, 17616.14
369.5461, 18025.37
370.0282, 18437.28
370.5103, 18813.11
370.9924, 19165.84
371.4745, 19480.05
371.9567, 19736.15
372.4388, 19927.69
372.9209, 20068.11
373.4030, 20168.57
373.8851, 20229.96
374.3672, 20202.50
374.8494, 20078.86
375.3315, 19875.23
375.8136, 19600.02
376.2957, 19236.85
376.7778, 18843.80
377.2599, 18422.79
377.7421, 17979.18
378.2242, 17531.81
378.7063, 17082.68
379.1884, 16636.07
379.6705, 16196.44
380.1526, 15760.02
380.6348, 15344.26
381.1169, 14949.22
381.5990, 14578.25
382.0811, 14228.16
382.5632, 13902.53
383.0453, 13607.98
383.5275, 13354.89
384.0096, 13135.39
384.4917, 12935.49
384.9738, 12755.42
385.4559, 12593.90
385.9380, 12450.02
386.4202, 12322.85
386.9023, 12209.06
387.3844, 12108.12
387.8665, 12017.59
388.3486, 11934.04
388.8307, 11857.72
389.3129, 11789.78
389.7950, 11728.61
390.2771, 11676.94
390.7592, 11638.49
391.2413, 11613.82
391.7234, 11601.66
392.2056, 11604.30
392.6877, 11618.56
393.1698, 11639.51
393.6519, 11660.05
394.1340, 11691.08
394.6161, 11739.17
395.0983, 11804.28
395.5804, 11878.95
396.0625, 11965.27
396.5446, 12057.43
397.0267, 12150.94
397.5089, 12233.79
397.9910, 12331.27
398.4731, 12449.58
398.9552, 12586.01
399.4373, 12732.42
399.9194, 12894.89
400.4016, 13061.76
400.8837, 13228.76
401.3658, 13399.11
401.8479, 13562.28
402.3300, 13719.46
402.8121, 13868.70
403.2942, 14007.34
403.7763, 14132.89
404.2585, 14253.77
404.7406, 14374.66
405.2227, 14493.96
405.7048, 14586.56
406.1869, 14646.02
406.6690, 14691.52
407.1512, 14737.70
407.6333, 14786.51
408.1154, 14819.33
408.5975, 14832.60
409.0796, 14831.65
409.5617, 14822.69
410.0439, 14805.29
410.5260, 14794.03
411.0081, 14795.65
411.4902, 14808.90
411.9723, 14824.21
412.4544, 14839.65
412.9366, 14874.29
413.4187, 14949.98
413.9008, 15061.23
414.3829, 15190.46
414.8650, 15333.92
415.3471, 15493.24
415.8293, 15663.81
416.3114, 15849.54
416.7935, 16061.70
417.2756, 16303.74
417.7577, 16578.53
418.2398, 16887.25
418.7220, 17235.82
419.2041, 17606.18
419.6862, 17992.33
420.1683, 18399.13
420.6504, 18821.99
421.1325, 19281.52
421.6147, 19747.95
422.0968, 20219.11
422.5789, 20697.04
423.0610, 21140.07
423.5431, 21567.10
424.0252, 21940.23
424.5074, 22242.62
424.9895, 22510.41
425.4716, 22646.50
425.9537, 22618.65
426.4358, 22455.91
426.9179, 22222.89
427.4001, 21911.73
427.8822, 21534.24
428.3643, 21082.70
428.8464, 20546.56
429.3285, 20005.90
429.8106, 19450.83
430.2928, 18906.64
430.7749, 18391.08
431.2570, 17908.10
431.7391, 17449.88
432.2212, 17016.38
432.7033, 16606.21
433.1855, 16210.74
433.6676, 15827.96
434.1497, 15477.75
434.6318, 15175.68
435.1139, 14918.11
435.5960, 14686.21
436.0782, 14478.40
436.5603, 14288.44
437.0424, 14106.71
437.5245, 13936.22
438.0066, 13791.03
438.4887, 13686.11
438.9709, 13601.51
439.4530, 13506.03
439.9351, 13403.00
440.4172, 13318.33
440.8993, 13276.60
441.3814, 13257.48
441.8636, 13237.68
442.3457, 13208.33
442.8278, 13192.36
443.3099, 13206.65
443.7920, 13242.47
444.2741, 13285.90
444.7563, 13333.60
445.2384, 13386.03
445.7205, 13440.81
446.2026, 13497.95
446.6847, 13568.43
447.1668, 13649.05
447.6490, 13746.37
448.1311, 13864.97
448.6132, 14013.43
449.0953, 14170.74
449.5774, 14327.05
450.0595, 14493.35
450.5417, 14693.68
451.0238, 14934.45
451.5059, 15194.19
451.9880, 15469.07
452.4701, 15762.09
452.9522, 16052.28
453.4344, 16339.83
453.9165, 16633.51
454.3986, 16948.97
454.8807, 17288.77
455.3628, 17625.42
455.8449, 17965.00
456.3271, 18290.17
456.8092, 18570.47
457.2913, 18808.55
457.7734, 19007.31
458.2555, 19169.50
458.7376, 19294.89
459.2198, 19380.91
459.7019, 19426.01
460.1840, 19452.89
460.6661, 19465.64
461.1482, 19477.13
461.6303, 19506.35
462.1125, 19548.76
462.5946, 19624.82
463.0767, 19748.35
463.5588, 19917.75
464.0409, 20125.92
464.5230, 20364.31
465.0052, 20642.26
465.4873, 20964.16
465.9694, 21330.54
466.4515, 21732.02
466.9336, 22167.18
467.4157, 22632.76
467.8979, 23125.60
468.3800, 23644.64
468.8621, 24192.06
469.3442, 24774.40
469.8263, 25382.95
470.3084, 25999.70
470.7906, 26626.04
471.2727, 27252.59
471.7548, 27878.39
472.2369, 28508.90
472.7190, 29121.94
473.2011, 29735.47
473.6833, 30318.08
474.1654, 30839.32
474.6475, 31299.26
475.1296, 31703.95
475.6117, 32066.23
476.0938, 32363.24
476.5760, 32540.68
477.0581, 32600.27
477.5402, 32550.39
478.0223, 32382.76
478.5044, 32111.71
478.9865, 31759.49
479.4687, 31326.13
479.9508, 30826.63
480.4329, 30263.52
480.9150, 29650.51
481.3971, 29009.95
481.8792, 28333.05
482.3614, 27647.33
482.8435, 26961.96
483.3256, 26283.21
483.8077, 25636.65
484.2898, 25046.65
484.7719, 24487.87
485.2541, 23947.51
485.7362, 23428.50
486.2183, 22932.49
486.7004, 22446.78
487.1825, 21991.65
487.6646, 21581.27
488.1468, 21238.00
488.6289, 20917.80
489.1110, 20616.88
489.5931, 20336.95
490.0752, 20073.13
490.5573, 19820.80
491.0395, 19594.65
491.5216, 19400.58
492.0037, 19237.63
492.4858, 19094.59
492.9679, 18968.79
493.4500, 18866.21
493.9322, 18797.75
494.4143, 18760.45
494.8964, 18738.26
495.3785, 18725.20
495.8606, 18729.47
496.3427, 18764.84
496.8249, 18828.24
497.3070, 18909.91
497.7891, 19002.90
498.2712, 19111.45
498.7533, 19240.48
499.2354, 19391.22
499.7176, 19552.80
500.1997, 19712.70
500.6818, 19883.70
501.1639, 20077.07
501.6460, 20300.89
502.1281, 20543.13
502.6103, 20803.20
503.0924, 21080.65
503.5745, 21370.01
504.0566, 21666.77
504.5387, 21976.33
505.0208, 22297.99
505.5030, 22630.56
505.9851, 22974.56
506.4672, 23328.36
506.9493, 23692.74
507.4314, 24069.09
507.9135, 24465.94
508.3957, 24856.13
508.8778, 25238.21
509.3599, 25616.69
509.8420, 26001.17
510.3241, 26389.68
510.8062, 26774.50
511.2884, 27150.66
511.7705, 27519.74
512.2526, 27880.48
512.7347, 28234.00
513.2168, 28575.32
513.6989, 28914.54
514.1810, 29234.37
514.6631, 29516.12
515.1453, 29762.13
515.6274, 29948.62
516.1095, 30040.62
516.5916, 30071.57
517.0737, 30086.07
517.5558, 30143.69
518.0380, 30142.07
518.5201, 30030.18
519.0022, 29823.11
519.4843, 29593.42
519.9664, 29379.03
520.4485, 29121.42
520.9307, 28799.86
521.4128, 28404.78
521.8949, 27978.40
522.3770, 27515.90
522.8591, 27027.31
523.3412, 26511.79
523.8234, 25969.77
524.3055, 25443.98
524.7876, 24947.89
525.2697, 24462.02
525.7518, 23941.60
526.2339, 23384.84
526.7161, 22843.89
527.1982, 22343.95
527.6803, 21878.57
528.1624, 21425.73
528.6445, 20981.96
529.1266, 20561.68
529.6088, 20179.59
530.0909, 19820.07
530.5730, 19465.00
531.0551, 19101.63
531.5372, 18755.06
532.0193, 18432.12
532.5015, 18129.75
532.9836, 17847.71
533.4657, 17595.47
533.9478, 17350.18
534.4299, 17097.30
534.9120, 16841.07
535.3942, 16600.64
535.8763, 16384.60
536.3584, 16182.91
536.8405, 15996.22
537.3226, 15830.66
537.8047, 15658.00
538.2869, 15475.83
538.7690, 15292.27
539.2511, 15118.01
539.7332, 14955.66
540.2153, 14798.17
540.6974, 14645.13
541.1796, 14498.08
541.6617, 14357.47
542.1438, 14223.88
542.6259, 14097.28
543.1080, 13978.87
543.5901, 13866.83
544.0723, 13754.92
544.5544, 13644.13
545.0365, 13545.92
545.5186, 13474.68
546.0007, 13418.34
546.4828, 13365.34
546.9650, 13314.52
547.4471, 13263.79
547.9292, 13199.65
548.4113, 13138.78
548.8934, 13104.24
549.3755, 13120.58
549.8577, 13141.43
550.3398, 13155.67
550.8219, 13166.23
551.3040, 13189.63
551.7861, 13233.96
552.2682, 13278.27
552.7504, 13309.10
553.2325, 13323.27
553.7146, 13364.29
554.1967, 13437.49
554.6788, 13521.11
555.1609, 13588.67
555.6431, 13643.15
556.1252, 13716.82
556.6073, 13817.70
557.0894, 13934.28
557.5715, 14052.26
558.0536, 14173.15
558.5358, 14301.75
559.0179, 14436.39
559.5000, 14581.78
559.9821, 14741.28
560.4642, 14914.50
560.9464, 15094.85
561.4285, 15282.06
561.9106, 15474.08
562.3927, 15668.82
562.8748, 15870.47
563.3569, 16065.48
563.8391, 16251.16
564.3212, 16430.64
564.8033, 16608.54
565.2854, 16786.76
565.7675, 16960.10
566.2496, 17129.81
566.7318, 17296.01
567.2139, 17457.95
567.6960, 17620.66
568.1781, 17757.18
568.6602, 17849.56
569.1423, 17908.42
569.6245, 17972.88
570.1066, 18043.50
570.5887, 18093.67
571.0708, 18098.73
571.5529, 18073.22
572.0350, 18039.97
572.5172, 18001.63
572.9993, 17954.96
573.4814, 17895.10
573.9635, 17825.94
574.4456, 17753.11
574.9277, 17670.76
575.4099, 17593.19
575.8920, 17521.49
576.3741, 17456.85
576.8562, 17402.10
577.3383, 17352.86
577.8204, 17318.47
578.3026, 17307.29
578.7847, 17318.83
579.2668, 17314.66
579.7489, 17292.33
580.2310, 17260.89
580.7131, 17218.28
581.1953, 17165.16
581.6774, 17140.60
582.1595, 17147.70
582.6416, 17179.80
583.1237, 17229.30
583.6058, 17296.58
584.0880, 17384.12
584.5701, 17492.11
585.0522, 17620.14
585.5343, 17770.04
586.0164, 17940.34
586.4985, 18124.56
586.9807, 18325.44
587.4628, 18536.39
587.9449, 18746.21
588.4270, 18956.17
588.9091, 19194.65
589.3912, 19497.64
589.8734, 19805.61
590.3555, 20086.31
590.8376, 20319.60
591.3197, 20586.65
591.8018, 20901.93
592.2839, 21231.85
592.7661, 21537.30
593.2482, 21814.38
593.7303, 22109.83
594.2124, 22440.34
594.6945, 22777.41
595.1766, 23083.06
595.6588, 23361.04
596.1409, 23631.61
596.6230, 23906.76
597.1051, 24177.01
597.5872, 24433.21
598.0693, 24671.76
598.5515, 24898.36
599.0336, 25120.22
599.5157, 25326.85
599.9978, 25510.22
600.4799, 25665.99
600.9620, 25810.34
601.4442, 25954.27
601.9263, 26083.13
602.4084, 26186.92
602.8905, 26263.57
603.3726, 26320.74
603.8547, 26355.14
604.3369, 26373.29
604.8190, 26385.63
605.3011, 26393.36
605.7832, 26387.67
606.2653, 26364.27
606.7474, 26328.05
607.2296, 26299.20
607.7117, 26273.75
608.1938, 26220.86
608.6759, 26093.69
609.1580, 25943.20
609.6401, 25851.00
610.1223, 25815.07
610.6044, 25757.63
611.0865, 25617.91
611.5686, 25447.21
612.0507, 25288.13
612.5328, 25157.09
613.0150, 25005.13
613.4971, 24805.85
613.9792, 24588.68
614.4613, 24383.14
614.9434, 24201.85
615.4255, 24003.00
615.9077, 23778.90
616.3898, 23538.11
616.8719, 23304.45
617.3540, 23080.08
617.8361, 22850.21
618.3182, 22611.66
618.8004, 22367.65
619.2825, 22129.76
619.7646, 21895.41
620.2467, 21660.74
620.7288, 21416.85
621.2109, 21172.79
621.6931, 20943.52
622.1752, 20726.93
622.6573, 20516.08
623.1394, 20310.91
623.6215, 20106.98
624.1036, 19900.37
624.5858, 19686.93
625.0679, 19476.48
625.5500, 19266.27
626.0321, 19063.10
626.5142, 18877.54
626.9963, 18713.31
627.4785, 18552.83
627.9606, 18393.92
628.4427, 18236.91
628.9248, 18079.71
629.4069, 17923.03
629.8890, 17776.02
630.3712, 17635.16
630.8533, 17509.48
631.3354, 17425.72
631.8175, 17378.46
632.2996, 17332.70
632.7817, 17259.61
633.2639, 17182.53
633.7460, 17118.45
634.2281, 17069.53
634.7102, 17036.12
635.1923, 17024.81
635.6744, 17024.96
636.1566, 17028.57
636.6387, 17028.14
637.1208, 17044.13
637.6029, 17079.68
638.0850, 17128.62
638.5671, 17182.85
639.0493, 17242.18
639.5314, 17308.39
640.0135, 17381.63
640.4956, 17462.14
640.9777, 17554.47
641.4598, 17657.08
641.9420, 17761.93
642.4241, 17866.29
642.9062, 17971.36
643.3883, 18078.93
643.8704, 18190.05
644.3525, 18306.00
644.8347, 18434.23
645.3168, 18563.40
645.7989, 18691.89
646.2810, 18819.13
646.7631, 18937.04
647.2452, 19028.97
647.7274, 19123.26
648.2095, 19235.25
648.6916, 19374.82
649.1737, 19506.00
649.6558, 19629.49
650.1379, 19743.64
650.6201, 19849.08
651.1022, 19945.22
651.5843, 20007.71
652.0664, 20023.18
652.5485, 20028.25
653.0306, 20080.23
653.5128, 20159.86
653.9949, 20222.73
654.4770, 20231.19
654.9591, 20235.84
655.4412, 20274.11
655.9233, 20335.30
656.4055, 20387.79
656.8876, 20423.69
657.3697, 20447.79
657.8518, 20461.68
658.3339, 20465.62
658.8160, 20457.96
659.2982, 20434.29
659.7803, 20407.23
660.2624, 20386.11
660.7445, 20370.61
661.2266, 20334.79
661.7087, 20275.98
662.1909, 20215.17
662.6730, 20181.91
663.1551, 20159.57
663.6372, 20109.36
664.1193, 20022.56
664.6014, 19920.40
665.0836, 19816.89
665.5657, 19707.81
666.0478, 19588.25
666.5299, 19461.08
667.0120, 19318.18
667.4941, 19159.14
667.9763, 18981.71
668.4584, 18784.24
668.9405, 18550.45
669.4226, 18325.08
669.9047, 18120.54
670.3868, 17930.05
670.8690, 17736.52
671.3511, 17539.83
671.8332, 17339.75
672.3153, 17134.85
672.7974, 16927.71
673.2795, 16711.26
673.7617, 16487.26
674.2438, 16267.85
674.7259, 16059.06
675.2080, 15862.21
675.6901, 15679.24
676.1722, 15511.48
676.6544, 15354.55
677.1365, 15223.52
677.6186, 15088.97
678.1007, 14929.95
678.5828, 14728.73
679.0649, 14551.05
679.5471, 14407.42
680.0292, 14274.26
680.5113, 14128.36
680.9934, 13967.40
681.4755, 13823.56
681.9576, 13702.33
682.4398, 13591.53
682.9219, 13476.78
683.4040, 13359.10
683.8861, 13247.28
684.3682, 13145.85
684.8503, 13044.76
685.3325, 12928.10
685.8146, 12806.00
686.2967, 12698.96
686.7788, 12626.94
687.2609, 12554.46
687.7430, 12466.49
688.2252, 12368.66
688.7073, 12286.45
689.1894, 12228.23
689.6715, 12165.20
690.1536, 12083.07
690.6357, 11985.83
691.1179, 11905.95
691.6000, 11843.63
692.0821, 11784.04
692.5642, 11717.59
693.0463, 11645.67
693.5284, 11567.55
694.0106, 11483.81
694.4927, 11403.46
694.9748, 11342.12
695.4569, 11281.23
695.9390, 11203.02
696.4211, 11097.48
696.9033, 10998.80
697.3854, 10916.04
697.8675, 10837.23
698.3496, 10751.79
698.8317, 10655.23
699.3138, 10566.97
699.7960, 10490.75
700.2781, 10419.10
700.7602, 10342.83
701.2423, 10262.43
701.7244, 10180.50
702.2065, 10096.45
702.6887, 10013.65
703.1708, 9935.803
703.6529, 9862.880
704.1350, 9795.473
704.6171, 9744.844
705.0992, 9688.405
705.5814, 9612.584
706.0635, 9523.579
706.5456, 9440.857
707.0277, 9359.652
707.5098, 9293.308
707.9919, 9250.701
708.4741, 9225.008
708.9562, 9178.434
709.4383, 9108.238
709.9204, 9042.635
710.4025, 9001.291
710.8846, 8973.439
711.3667, 8928.689
711.8488, 8869.409
712.3309, 8814.237
712.8130, 8782.388
713.2952, 8755.298
713.7773, 8714.969
714.2594, 8658.943
714.7415, 8607.453
715.2236, 8566.041
715.7057, 8530.277
716.1879, 8499.966
716.6700, 8479.628
717.1521, 8443.974
717.6342, 8387.014
718.1163, 8326.814
718.5984, 8280.121
719.0806, 8245.941
719.5627, 8215.014
720.0448, 8186.226
720.5269, 8159.759
721.0090, 8138.995
721.4911, 8119.274
721.9733, 8091.767
722.4554, 8051.157
722.9375, 8010.866
723.4196, 7980.038
723.9017, 7951.692
724.3839, 7916.211
724.8660, 7860.769
725.3481, 7816.095
725.8302, 7789.096
726.3123, 7770.062
726.7944, 7741.824
727.2766, 7703.667
727.7587, 7661.609
728.2408, 7615.505
728.7229, 7569.466
729.2050, 7531.577
729.6871, 7500.663
730.1693, 7473.254
730.6514, 7453.108
731.1335, 7430.666
731.6156, 7395.066
732.0977, 7351.367
732.5798, 7315.227
733.0620, 7298.292
733.5441, 7280.935
734.0262, 7254.754
734.5083, 7222.480
734.9904, 7202.394
735.4725, 7198.151
735.9547, 7192.973
736.4368, 7178.811
736.9189, 7157.612
737.4010, 7137.571
737.8831, 7118.521
738.3652, 7095.902
738.8474, 7062.309
739.3295, 7026.616
739.8116, 6998.388
740.2937, 6978.053
740.7758, 6958.966
741.2579, 6937.323
741.7401, 6917.406
742.2222, 6902.987
742.7043, 6895.785
743.1864, 6881.302
743.6685, 6856.104
744.1506, 6830.223
744.6328, 6812.142
745.1149, 6801.080
745.5970, 6785.763
746.0791, 6765.802
746.5612, 6743.745
747.0433, 6719.126
747.5255, 6694.981
748.0076, 6677.698
748.4897, 6670.023
748.9718, 6658.929
749.4539, 6634.189
749.9360, 6605.792
750.4182, 6582.237
750.9003, 6564.298
751.3824, 6551.876
751.8645, 6548.472
752.3466, 6546.139
752.8287, 6534.456
753.3109, 6513.070
753.7930, 6496.161
754.2751, 6485.753
754.7572, 6478.741
755.2393, 6474.737
755.7214, 6470.656
756.2036, 6459.091
756.6857, 6432.024
757.1678, 6409.043
757.6499, 6406.076
758.1320, 6411.537
758.6141, 6409.321
759.0963, 6388.286
759.5784, 6371.884
760.0605, 6362.603
760.5426, 6357.948
761.0247, 6353.823
761.5068, 6350.217
761.9890, 6346.813
762.4711, 6344.344
762.9532, 6340.361
763.4353, 6329.656
763.9174, 6314.358
764.3995, 6299.667
764.8817, 6288.074
765.3638, 6277.812
765.8459, 6268.352
766.3280, 6259.544
766.8101, 6251.281
767.2922, 6247.807
767.7744, 6239.188
768.2565, 6221.739
768.7386, 6198.799
769.2207, 6178.974
769.7028, 6162.343
770.1849, 6148.396
770.6671, 6138.012
771.1492, 6129.118
771.6313, 6118.873
772.1134, 6106.958
772.5955, 6092.339
773.0776, 6071.423
773.5598, 6050.409
774.0419, 6033.841
774.5240, 6020.519
775.0061, 6004.909
775.4882, 5985.727
775.9703, 5964.610
776.4525, 5941.788
776.9346, 5917.362
777.4167, 5892.154
777.8988, 5865.831
778.3809, 5842.258
778.8630, 5826.420
779.3452, 5812.961
779.8273, 5790.125
780.3094, 5759.891
780.7915, 5730.299
781.2736, 5705.991
781.7557, 5683.954
782.2379, 5664.749
782.7200, 5647.698
783.2021, 5624.177
783.6842, 5587.217
784.1663, 5553.710
784.6484, 5531.669
785.1306, 5518.943
785.6127, 5493.811
786.0948, 5455.390
786.5769, 5419.975
787.0590, 5401.790
787.5411, 5391.333
788.0233, 5374.501
788.5054, 5351.179
788.9875, 5322.823
789.4696, 5282.889
789.9517, 5244.710
790.4338, 5217.458
790.9160, 5201.812
791.3981, 5185.017
791.8802, 5167.946
792.3623, 5148.369
792.8444, 5124.759
793.3265, 5097.559
793.8087, 5071.873
794.2908, 5047.537
794.7729, 5026.075
795.2550, 5012.446
795.7371, 5000.342
796.2192, 4979.120
796.7014, 4949.565
797.1835, 4925.272
797.6656, 4918.306
798.1477, 4913.065
798.6298, 4900.657
799.1119, 4880.514
799.5941, 4862.095
800.0762, 4845.519
800.5583, 4830.198
801.0404, 4816.712
801.5225, 4804.306
802.0046, 4786.990
802.4868, 4764.997
802.9689, 4743.801
803.4510, 4727.646
803.9331, 4714.062
804.4152, 4701.207
804.8973, 4688.939
805.3795, 4676.176
805.8616, 4664.157
806.3437, 4649.975
806.8258, 4631.314
807.3079, 4608.369
807.7900, 4588.256
808.2722, 4570.396
808.7543, 4557.671
809.2364, 4555.097
809.7185, 4558.784
810.2006, 4555.931
810.6827, 4546.896
811.1649, 4536.153
811.6470, 4526.839
812.1291, 4516.625
812.6112, 4502.608
813.0933, 4484.738
813.5754, 4469.385
814.0576, 4457.690
814.5397, 4448.452
815.0218, 4441.841
815.5039, 4437.653
815.9860, 4433.341
816.4681, 4428.928
816.9503, 4424.437
817.4324, 4420.732
817.9145, 4416.676
818.3966, 4410.301
818.8787, 4401.761
819.3608, 4391.780
819.8430, 4376.687
820.3251, 4363.891
820.8072, 4360.378
821.2893, 4365.883
821.7714, 4361.796
822.2535, 4342.259
822.7357, 4325.599
823.2178, 4321.123
823.6999, 4325.509
824.1820, 4322.649
824.6641, 4313.002
825.1462, 4303.952
825.6284, 4303.293
826.1105, 4302.839
826.5926, 4293.078
827.0747, 4275.524
827.5568, 4258.832
828.0389, 4241.499
828.5211, 4230.494
829.0032, 4231.307
829.4853, 4240.838
829.9674, 4240.501
830.4495, 4228.771
830.9316, 4215.768
831.4138, 4205.360
831.8959, 4196.645
832.3780, 4186.236
832.8601, 4175.213
833.3422, 4167.720
833.8243, 4171.017
834.3065, 4173.473
834.7886, 4166.839
835.2707, 4153.448
835.7528, 4143.251
836.2349, 4139.931
836.7170, 4134.243
837.1992, 4122.486
837.6813, 4107.947
838.1634, 4100.370
838.6455, 4099.264
839.1276, 4098.510
839.6097, 4097.057
840.0919, 4093.088
840.5740, 4084.284
841.0561, 4071.327
841.5382, 4056.062
842.0203, 4033.693
842.5024, 4015.475
842.9846, 4007.167
843.4667, 4003.827
843.9488, 3996.737
844.4309, 3985.452
844.9130, 3972.323
845.3951, 3957.605
845.8773, 3942.031
846.3594, 3924.404
846.8415, 3906.951
847.3236, 3896.370
847.8057, 3899.469
848.2878, 3901.254
848.7700, 3893.437
849.2521, 3878.873
849.7342, 3861.004
850.2163, 3834.215
850.6984, 3815.232
851.1805, 3806.794
851.6627, 3803.900
852.1448, 3801.586
852.6269, 3799.400
853.1090, 3793.393
853.5911, 3782.904
854.0732, 3768.397
854.5554, 3745.592
855.0375, 3721.208
855.5196, 3703.770
856.0017, 3698.043
856.4838, 3691.901
856.9659, 3683.085
857.4481, 3672.946
857.9302, 3662.500
858.4123, 3651.986
858.8944, 3639.775
859.3765, 3625.396
859.8586, 3611.472
860.3408, 3602.091
860.8229, 3594.342
861.3050, 3581.847
861.7871, 3563.396
862.2692, 3548.671
862.7513, 3547.480
863.2335, 3547.730
863.7156, 3540.040
864.1977, 3523.277
864.6798, 3509.833
865.1619, 3501.269
865.6440, 3491.882
866.1262, 3475.949
866.6083, 3456.040
867.0904, 3443.288
867.5725, 3437.167
868.0546, 3433.130
868.5367, 3431.787
869.0189, 3428.275
869.5010, 3416.943
869.9831, 3398.307
870.4652, 3384.779
870.9473, 3380.623
871.4294, 3376.462
871.9116, 3370.512
872.3937, 3361.874
872.8758, 3343.181
873.3579, 3315.371
873.8400, 3294.566
874.3221, 3294.509
874.8043, 3299.952
875.2864, 3295.153
875.7685, 3283.072
876.2506, 3271.162
876.7327, 3257.734
877.2148, 3250.242
877.6970, 3253.504
878.1791, 3261.587
878.6612, 3261.497
879.1433, 3252.483
879.6254, 3242.778
880.1075, 3233.650
880.5897, 3226.083
881.0718, 3221.651
881.5539, 3219.706
882.0360, 3219.305
882.5181, 3222.045
883.0002, 3222.776
883.4824, 3216.248
883.9645, 3208.764
884.4466, 3207.705
884.9287, 3215.712
885.4108, 3220.224
885.8929, 3219.884
886.3751, 3218.037
886.8572, 3219.160
887.3393, 3221.411
887.8214, 3219.271
888.3035, 3211.432
888.7856, 3206.565
889.2678, 3211.065
889.7499, 3219.671
890.2320, 3229.619
890.7141, 3241.457
891.1962, 3249.302
891.6783, 3252.451
892.1605, 3253.489
892.6426, 3251.457
893.1247, 3248.575
893.6068, 3256.304
894.0889, 3273.593
894.5710, 3288.497
895.0532, 3290.171
895.5353, 3290.118
896.0174, 3296.970
896.4995, 3310.036
896.9816, 3320.398
897.4637, 3328.437
897.9459, 3332.005
898.4280, 3329.750
898.9101, 3322.965
899.3922, 3314.116
899.8743, 3303.686
900.3564, 3295.680
900.8386, 3293.683
901.3207, 3292.000
901.8028, 3286.159
902.2849, 3277.227
902.7670, 3266.961
903.2491, 3253.804
903.7313, 3242.187
904.2134, 3232.034
904.6955, 3223.912
905.1776, 3220.079
905.6597, 3219.975
906.1418, 3215.408
906.6240, 3204.414
907.1061, 3192.735
907.5882, 3186.946
908.0703, 3183.235
908.5524, 3176.597
909.0345, 3164.301
909.5167, 3155.783
909.9988, 3155.906
910.4809, 3155.633
910.9630, 3149.616
911.4451, 3137.811
911.9272, 3121.333
912.4094, 3100.025
912.8915, 3079.151
913.3736, 3063.956
913.8557, 3050.607
914.3378, 3035.751
914.8199, 3019.171
915.3021, 3000.885
915.7842, 2979.813
916.2663, 2957.987
916.7484, 2934.358
917.2305, 2910.845
917.7126, 2896.294
918.1948, 2890.822
918.6769, 2881.467
919.1590, 2860.904
919.6411, 2837.632
920.1232, 2821.662
920.6053, 2810.961
921.0875, 2801.703
921.5696, 2793.681
922.0517, 2785.522
922.5338, 2777.154
923.0159, 2768.354
923.4980, 2758.243
923.9802, 2746.595
924.4623, 2738.181
924.9444, 2734.372
925.4265, 2729.815
925.9086, 2716.780
926.3907, 2700.598
926.8729, 2689.293
927.3550, 2685.003
927.8371, 2678.952
928.3192, 2665.943
928.8013, 2653.136
929.2834, 2643.845
929.7656, 2638.019
930.2477, 2634.773
930.7298, 2634.244
931.2119, 2632.160
931.6940, 2623.900
932.1761, 2613.709
932.6583, 2608.237
933.1404, 2605.822
933.6225, 2599.869
934.1046, 2583.630
934.5867, 2568.979
935.0688, 2559.175
935.5510, 2552.860
936.0331, 2547.841
936.5152, 2544.146
936.9973, 2538.748
937.4794, 2530.680
937.9615, 2521.318
938.4437, 2511.004
938.9258, 2500.981
939.4079, 2493.413
939.8900, 2490.479
940.3721, 2486.519
940.8542, 2478.520
941.3364, 2471.345
941.8185, 2470.166
942.3006, 2475.241
942.7827, 2474.038
943.2648, 2465.808
943.7469, 2456.708
944.2291, 2452.853
944.7112, 2449.924
945.1933, 2441.844
945.6754, 2428.890
946.1575, 2420.206
946.6396, 2424.394
947.1218, 2425.005
947.6039, 2415.847
948.0860, 2400.081
948.5681, 2388.711
949.0502, 2381.649
949.5323, 2377.685
950.0145, 2378.084
950.4966, 2378.753
950.9787, 2375.949
951.4608, 2370.645
951.9429, 2364.429
952.4250, 2355.044
952.9072, 2348.603
953.3893, 2346.005
953.8714, 2345.369
954.3535, 2344.705
954.8356, 2344.082
955.3177, 2344.953
955.7999, 2347.643
956.2820, 2347.746
956.7640, 2338.490
957.2462, 2327.522
957.7283, 2322.110
958.2104, 2323.545
958.6925, 2321.614
959.1746, 2313.534
959.6567, 2307.406
960.1389, 2308.254
960.6210, 2312.993
961.1031, 2309.718
961.5852, 2300.354
962.0673, 2293.913
962.5494, 2299.309
963.0316, 2304.069
963.5137, 2299.588
963.9958, 2290.093
964.4779, 2283.625
964.9600, 2280.130
965.4421, 2281.062
965.9243, 2288.018
966.4064, 2295.671
966.8885, 2296.943
967.3706, 2293.798
967.8527, 2290.909
968.3348, 2289.015
968.8170, 2286.906
969.2991, 2280.398
969.7812, 2276.596
970.2633, 2281.650
970.7454, 2295.585
971.2275, 2304.562
971.7097, 2308.060
972.1918, 2310.110
972.6739, 2312.151
973.1560, 2314.609
973.6381, 2317.541
974.1202, 2321.480
974.6024, 2327.911
975.0845, 2341.304
975.5666, 2352.445
976.0487, 2357.485
976.5308, 2360.106
977.0129, 2364.606
977.4951, 2370.768
977.9772, 2383.044
978.4593, 2402.729
978.9414, 2423.942
979.4235, 2440.122
979.9056, 2455.044
980.3878, 2472.925
980.8699, 2494.143
981.3520, 2519.121
981.8341, 2547.448
982.3162, 2580.315
982.7983, 2618.137
983.2805, 2661.057
983.7626, 2709.704
984.2447, 2764.337
984.7268, 2824.762
985.2089, 2893.838
985.6910, 2966.499
986.1732, 3038.838
986.6553, 3111.516
987.1374, 3186.003
987.6195, 3262.705
988.1016, 3340.355
988.5837, 3417.195
989.0659, 3496.779
989.5480, 3579.304
990.0301, 3668.602
990.5122, 3772.514
990.9943, 3892.286
991.4764, 4030.734
991.9586, 4186.092
992.4407, 4363.811
992.9228, 4564.335
993.4049, 4787.431
993.8870, 5058.464
994.3691, 5374.886
994.8513, 5741.612
995.3334, 6170.457
995.8155, 6640.031
996.2976, 7150.111
996.7797, 7676.052
997.2618, 8173.784
997.7440, 8756.945
998.2261, 9134.016
998.7082, 9304.185
999.1903, 9228.275
999.6724, 8799.591
1000.155, 8033.203
1000.637, 7211.799
1001.119, 6358.138
1001.601, 5573.027
1002.083, 4927.336
1002.565, 4404.015
1003.047, 3991.402
1003.529, 3696.375
1004.011, 3457.752
1004.494, 3281.594
1004.976, 3137.022
1005.458, 3017.600
1005.940, 2921.156
1006.422, 2850.227
1006.904, 2800.153
1007.386, 2758.502
1007.868, 2720.055
1008.351, 2688.766
1008.833, 2668.961
1009.315, 2655.883
1009.797, 2643.413
1010.279, 2630.255
1010.761, 2622.426
1011.243, 2620.229
1011.725, 2622.012
1012.207, 2627.143
1012.690, 2634.990
1013.172, 2645.100
1013.654, 2657.268
1014.136, 2670.769
1014.618, 2684.529
1015.100, 2700.569
1015.582, 2719.644
1016.064, 2740.862
1016.547, 2761.164
1017.029, 2781.062
1017.511, 2805.750
1017.993, 2836.664
1018.475, 2872.062
1018.957, 2911.684
1019.439, 2954.772
1019.921, 3001.367
1020.403, 3052.972
1020.886, 3102.210
1021.368, 3150.116
1021.850, 3192.754
1022.332, 3229.835
1022.814, 3258.610
1023.296, 3272.932
1023.778, 3272.935
1024.260, 3259.120
1024.743, 3227.472
1025.225, 3186.795
1025.707, 3136.376
1026.189, 3080.749
1026.671, 3022.412
1027.153, 2960.858
1027.635, 2911.824
1028.117, 2877.893
1028.599, 2850.925
1029.082, 2822.201
1029.564, 2796.733
1030.046, 2780.679
1030.528, 2775.219
1031.010, 2768.544
1031.492, 2759.357
1031.974, 2749.402
1032.456, 2738.234
1032.938, 2727.705
1033.421, 2723.467
1033.903, 2723.863
1034.385, 2723.325
1034.867, 2718.760
1035.349, 2714.615
1035.831, 2710.241
1036.313, 2709.200
1036.795, 2716.647
1037.278, 2735.330
1037.760, 2741.491
1038.242, 2733.483
1038.724, 2728.824
1039.206, 2746.655
1039.688, 2771.370
1040.170, 2781.779
1040.652, 2781.620
1041.135, 2793.197
1041.617, 2827.451
1042.099, 2862.438
1042.581, 2893.107
1043.063, 2924.985
1043.545, 2969.254
1044.027, 3023.539
1044.509, 3077.132
1044.991, 3128.500
1045.474, 3180.835
1045.956, 3234.395
1046.438, 3291.033
1046.920, 3349.100
1047.402, 3408.754
1047.884, 3484.757
1048.366, 3577.294
1048.848, 3683.214
1049.330, 3799.679
1049.813, 3929.757
1050.295, 4073.127
1050.777, 4234.999
1051.259, 4425.869
1051.741, 4647.337
1052.223, 4904.629
1052.705, 5201.115
1053.187, 5527.532
1053.670, 5885.380
1054.152, 6262.198
1054.634, 6638.935
1055.116, 7008.147
1055.598, 7285.315
1056.080, 7464.620
1056.562, 7500.545
1057.044, 7346.456
1057.526, 7040.828
1058.009, 6639.145
1058.491, 6135.474
1058.973, 5637.241
1059.455, 5160.531
1059.937, 4721.569
1060.419, 4327.398
1060.901, 3978.784
1061.383, 3676.923
1061.865, 3429.009
1062.348, 3219.960
1062.830, 3053.951
1063.312, 2912.343
1063.794, 2786.345
1064.276, 2675.843
1064.758, 2586.963
1065.240, 2514.864
1065.722, 2446.430
1066.205, 2374.462
1066.687, 2307.609
1067.169, 2244.933
1067.651, 2189.907
1068.133, 2147.302
1068.615, 2117.516
1069.097, 2091.499
1069.579, 2068.813
1070.062, 2045.399
1070.544, 2015.503
1071.026, 1986.085
1071.508, 1963.026
1071.990, 1945.202
1072.472, 1926.060
1072.954, 1903.831
1073.436, 1885.127
1073.918, 1871.642
1074.401, 1860.238
1074.883, 1846.877
1075.365, 1832.245
1075.847, 1816.146
1076.329, 1798.074
1076.811, 1784.509
1077.293, 1781.759
1077.775, 1777.914
1078.257, 1767.409
1078.740, 1752.712
1079.222, 1742.870
1079.704, 1736.984
1080.186, 1730.595
1080.668, 1722.076
1081.150, 1712.279
1081.632, 1698.933
1082.114, 1686.497
1082.596, 1680.186
1083.079, 1681.537
1083.561, 1679.684
1084.043, 1674.444
1084.525, 1668.093
1085.007, 1660.829
1085.489, 1654.418
1085.971, 1652.047
1086.453, 1652.023
1086.936, 1649.005
1087.418, 1641.123
1087.900, 1632.729
1088.382, 1624.191
1088.864, 1615.573
1089.346, 1605.622
1089.828, 1596.181
1090.310, 1592.492
1090.792, 1594.958
1091.275, 1595.276
1091.757, 1587.649
1092.239, 1580.153
1092.721, 1575.576
1093.203, 1573.106
1093.685, 1571.803
1094.167, 1570.995
1094.649, 1565.651
1095.131, 1552.499
1095.614, 1541.156
1096.096, 1540.759
1096.578, 1543.234
1097.060, 1541.063
1097.542, 1533.881
1098.024, 1529.137
1098.506, 1527.016
1098.988, 1524.914
1099.471, 1521.234
1099.953, 1517.163
1100.435, 1513.252
1100.917, 1510.049
1101.399, 1508.618
1101.881, 1511.114
1102.363, 1511.916
1102.845, 1511.051
1103.328, 1508.312
1103.810, 1502.767
1104.292, 1495.486
1104.774, 1487.940
1105.256, 1480.493
1105.738, 1474.905
1106.220, 1474.658
1106.702, 1472.403
1107.184, 1465.507
1107.667, 1457.127
1108.149, 1451.982
1108.631, 1449.668
1109.113, 1448.504
1109.595, 1448.265
1110.077, 1448.921
1110.559, 1453.724
1111.041, 1456.149
1111.523, 1450.528
1112.006, 1439.401
1112.488, 1433.352
1112.970, 1432.381
1113.452, 1430.971
1113.934, 1427.474
1114.416, 1423.223
1114.898, 1417.152
1115.380, 1412.485
1115.863, 1414.702
1116.345, 1426.229
1116.827, 1427.101
1117.309, 1414.464
1117.791, 1404.539
1118.273, 1407.704
1118.755, 1415.635
1119.237, 1415.784
1119.719, 1411.519
1120.202, 1409.387
1120.684, 1414.081
1121.166, 1415.904
1121.648, 1413.896
1122.130, 1410.335
1122.612, 1407.243
1123.094, 1403.990
1123.576, 1397.262
1124.058, 1388.294
1124.541, 1382.742
1125.023, 1388.194
1125.505, 1390.558
1125.987, 1384.659
1126.469, 1376.174
1126.951, 1373.384
1127.433, 1375.105
1127.915, 1372.596
1128.398, 1365.228
1128.880, 1359.923
1129.362, 1364.963
1129.844, 1369.399
1130.326, 1366.220
1130.808, 1358.249
1131.290, 1352.260
1131.772, 1348.270
1132.255, 1344.670
1132.737, 1341.021
1133.219, 1338.296
1133.701, 1338.135
1134.183, 1338.611
1134.665, 1337.965
1135.147, 1336.128
1135.629, 1334.250
1136.111, 1332.101
1136.594, 1331.378
1137.076, 1333.113
1137.558, 1335.560
1138.040, 1337.646
1138.522, 1338.499
1139.004, 1336.375
1139.486, 1329.001
1139.968, 1325.616
1140.450, 1327.687
1140.933, 1329.645
1141.415, 1328.033
1141.897, 1324.714
1142.379, 1322.409
1142.861, 1321.314
1143.343, 1321.837
1143.825, 1326.654
1144.307, 1328.975
1144.790, 1327.553
1145.272, 1325.164
1145.754, 1324.358
1146.236, 1324.409
1146.718, 1322.808
1147.200, 1319.830
1147.682, 1316.856
1148.164, 1314.833
1148.646, 1312.469
1149.129, 1308.787
1149.611, 1305.321
1150.093, 1304.106
1150.575, 1304.836
1151.057, 1306.283
1151.539, 1308.253
1152.021, 1309.380
1152.503, 1309.950
1152.985, 1308.164
1153.468, 1300.744
1153.950, 1291.784
1154.432, 1290.844
1154.914, 1297.282
1155.396, 1300.360
1155.878, 1298.146
1156.360, 1294.625
1156.842, 1291.719
1157.325, 1289.527
1157.807, 1288.910
1158.289, 1289.134
1158.771, 1286.589
1159.253, 1281.137
1159.735, 1277.349
1160.217, 1276.753
1160.699, 1276.825
1161.182, 1276.002
1161.664, 1274.103
1162.146, 1270.566
1162.628, 1265.333
1163.110, 1260.310
1163.592, 1255.179
1164.074, 1253.154
1164.556, 1257.618
1165.038, 1261.640
1165.521, 1254.575
1166.003, 1243.320
1166.485, 1237.892
1166.967, 1241.942
1167.449, 1241.651
1167.931, 1236.073
1168.413, 1230.606
1168.895, 1229.385
1169.377, 1228.858
1169.860, 1221.859
1170.342, 1212.205
1170.824, 1206.992
1171.306, 1210.972
1171.788, 1214.537
1172.270, 1218.667
1172.752, 1219.473
1173.234, 1210.943
1173.717, 1198.877
1174.199, 1193.775
1174.681, 1193.772
1175.163, 1193.260
1175.645, 1189.573
1176.127, 1186.859
1176.609, 1185.722
1177.091, 1184.779
1177.573, 1182.320
1178.056, 1179.192
1178.538, 1177.700
1179.020, 1177.418
1179.502, 1175.679
1179.984, 1168.729
1180.466, 1164.492
1180.948, 1165.131
1181.430, 1167.097
1181.912, 1165.696
1182.395, 1162.104
1182.877, 1159.478
1183.359, 1157.964
1183.841, 1155.781
1184.323, 1149.796
1184.805, 1146.547
1185.287, 1148.738
1185.769, 1152.796
1186.252, 1151.969
1186.734, 1147.950
1187.216, 1145.983
1187.698, 1146.805
1188.180, 1147.418
1188.662, 1147.593
1189.144, 1145.617
1189.626, 1139.723
1190.109, 1132.587
1190.591, 1131.766
1191.073, 1135.090
1191.555, 1134.015
1192.037, 1126.042
1192.519, 1119.709
1193.001, 1121.574
1193.483, 1122.906
1193.965, 1118.218
1194.448, 1111.055
1194.930, 1116.039
1195.412, 1129.401
1195.894, 1135.085
1196.376, 1126.629
1196.858, 1118.057
1197.340, 1117.349
1197.822, 1116.893
1198.304, 1111.511
1198.787, 1103.187
1199.269, 1103.030
1199.751, 1109.127
1200.233, 1111.826
1200.715, 1106.035
1201.197, 1100.761
1201.679, 1101.147
1202.161, 1102.767
1202.644, 1103.079
1203.126, 1102.057
1203.608, 1098.348
1204.090, 1092.764
1204.572, 1089.835
1205.054, 1095.125
1205.536, 1097.205
1206.018, 1086.097
1206.500, 1073.648
1206.983, 1069.763
1207.465, 1073.465
1207.947, 1074.366
1208.429, 1072.800
1208.911, 1070.891
1209.393, 1070.432
1209.875, 1068.960
1210.357, 1064.522
1210.839, 1059.341
1211.322, 1055.237
1211.804, 1052.135
1212.286, 1050.356
1212.768, 1049.403
1213.250, 1045.739
1213.732, 1033.909
1214.214, 1023.117
1214.696, 1016.598
1215.179, 1013.323
1215.661, 1013.707
1216.143, 1017.203
1216.625, 1017.904
1217.107, 1015.858
1217.589, 1013.446
1218.071, 1012.123
1218.553, 1010.517
1219.036, 1008.577
1219.518, 1005.681
1220.000, 1000.513
1220.482, 993.4320
1220.964, 987.0374
1221.446, 981.4969
1221.928, 976.4471
1222.410, 971.7622
1222.892, 967.3532
1223.375, 963.0001
1223.857, 959.0129
1224.339, 956.1943
1224.821, 954.2161
1225.303, 951.4943
1225.785, 947.8771
1226.267, 943.1740
1226.749, 935.4728
1227.231, 929.0626
1227.714, 925.7751
1228.196, 923.8837
1228.678, 920.9227
1229.160, 917.0648
1229.642, 912.6076
1230.124, 907.6719
1230.606, 903.8033
1231.088, 903.0129
1231.571, 901.7378
1232.053, 898.3253
1232.535, 894.5204
1233.017, 894.4238
1233.499, 896.2410
1233.981, 893.5413
1234.463, 885.7438
1234.945, 879.1873
1235.427, 877.6630
1235.910, 876.7013
1236.392, 875.4238
1236.874, 873.5978
1237.356, 870.5988
1237.838, 866.8092
1238.320, 863.0836
1238.802, 859.5783
1239.284, 856.2839
1239.766, 853.5344
1240.249, 850.4966
1240.731, 846.6530
1241.213, 842.9030
1241.695, 840.0593
1242.177, 838.5934
1242.659, 840.9844
1243.141, 847.7936
1243.623, 849.3188
1244.106, 840.3885
1244.588, 832.3978
1245.070, 828.4714
1245.552, 826.5294
1246.034, 822.4816
1246.516, 818.3556
1246.998, 818.0776
1247.480, 822.4245
1247.963, 825.4846
1248.445, 826.7591
1248.927, 826.6102
1249.409, 824.9854
1249.891, 822.4578
1250.373, 819.8361
1250.855, 816.9388
1251.337, 813.0222
1251.819, 807.9207
1252.302, 805.3272
1252.784, 806.2198
1253.266, 805.8755
1253.748, 802.2661
1254.230, 798.5538
1254.712, 799.5272
1255.194, 801.9672
1255.676, 802.2916
1256.158, 799.9986
1256.641, 796.6796
1257.123, 792.0267
1257.605, 788.5131
1258.087, 787.0870
1258.569, 786.4900
1259.051, 786.5276
1259.533, 785.9878
1260.015, 782.7715
1260.498, 777.3176
1260.980, 775.4368
1261.462, 777.2177
1261.944, 776.4413
1262.426, 770.2902
1262.908, 764.5681
1263.390, 765.2476
1263.872, 767.2003
1264.354, 765.6537
1264.837, 761.5348
1265.319, 762.0259
1265.801, 766.4536
1266.283, 768.1885
1266.765, 764.7341
1267.247, 760.4719
1267.729, 757.4894
1268.211, 755.1474
1268.693, 752.9733
1269.176, 751.1213
1269.658, 750.9757
1270.140, 751.7800
1270.622, 749.6106
1271.104, 742.2226
1271.586, 737.2402
1272.068, 740.0146
1272.550, 743.9303
1273.033, 747.2627
1273.515, 749.0515
1273.997, 745.0196
1274.479, 737.7008
1274.961, 733.9188
1275.443, 735.9390
1275.925, 737.8378
1276.407, 738.8956
1276.890, 738.5712
1277.372, 735.9579
1277.854, 732.8853
1278.336, 733.6766
1278.818, 736.0485
1279.300, 735.6412
1279.782, 730.9446
1280.264, 728.2599
1280.746, 728.4169
1281.229, 729.0863
1281.711, 729.9493
1282.193, 729.7758
1282.675, 726.0249
1283.157, 720.7511
1283.639, 716.1559
1284.121, 712.4572
1284.603, 711.1864
1285.085, 712.6837
1285.568, 713.4556
1286.050, 712.2125
1286.532, 710.2473
1287.014, 708.0927
1287.496, 706.3387
1287.978, 705.6111
1288.460, 705.7857
1288.942, 706.3845
1289.425, 707.3572
1289.907, 708.1474
1290.389, 708.9280
1290.871, 708.0284
1291.353, 701.4393
##END=



