##NAMES=Yangite
##RRUFFID=R090031
##IDEAL CHEMISTRY=Pb^2+^Mn^2+^Si_3_O_8_&#183;H_2_O
##LOCALITY=Kombat, Namibia
##OWNER=RRUFF
##SOURCE=William W. Pinch
##DESCRIPTION=Colorless to pale brown bladed crystals associated with black massive melanotekite, R090032, and brown rhodochrosite. Sample is from the John Innes collection. Type sample.
##STATUS=The identification of this mineral is confirmed by single-crystal X-ray diffraction and chemical analysis.
##URL=rruff.info/R090031
##MEASURED CHEMISTRY=Pb_1.00_Mn_1.00_Si_3.00_O_8.00_Â·H_2_O
90.92609, 0.0000000E+00
91.40820, 38.34481
91.89032, 38.54315
92.37244, 38.44719
92.85455, 38.10311
93.33667, 37.78731
93.81879, 37.65393
94.30090, 37.69891
94.78302, 37.95878
95.26514, 38.60051
95.74725, 39.32775
96.22937, 39.37361
96.71149, 38.69064
97.19360, 37.86125
97.67572, 37.37327
98.15784, 37.23244
98.63995, 37.31983
99.12207, 37.70497
99.60419, 38.33220
100.0863, 38.72702
100.5684, 38.85527
101.0505, 38.81929
101.5327, 38.69956
102.0148, 38.43429
102.4969, 38.29900
102.9790, 38.41914
103.4611, 38.85260
103.9432, 39.19281
104.4253, 39.31739
104.9075, 39.41389
105.3896, 39.76152
105.8717, 39.89091
106.3538, 40.91544
106.8359, 43.27449
107.3180, 47.13784
107.8002, 52.01978
108.2823, 58.28541
108.7644, 65.62400
109.2465, 73.16431
109.7286, 81.08032
110.2107, 88.96655
110.6929, 96.79211
111.1750, 103.6989
111.6571, 111.3912
112.1392, 120.1665
112.6213, 129.9374
113.1034, 140.2226
113.5856, 150.5744
114.0677, 161.7587
114.5498, 174.2182
115.0319, 187.4808
115.5140, 202.6630
115.9961, 220.0440
116.4783, 239.6266
116.9604, 260.9624
117.4425, 284.5842
117.9246, 309.9447
118.4067, 336.2068
118.8888, 364.2472
119.3710, 392.5043
119.8531, 419.8053
120.3352, 445.8131
120.8173, 472.4849
121.2994, 498.9879
121.7815, 526.8674
122.2637, 558.9540
122.7458, 593.2352
123.2279, 633.6530
123.7100, 684.4259
124.1921, 746.6243
124.6742, 816.5612
125.1564, 896.0939
125.6385, 981.9801
126.1206, 1064.294
126.6027, 1152.211
127.0848, 1229.664
127.5669, 1266.533
128.0491, 1255.261
128.5312, 1208.453
129.0133, 1130.794
129.4954, 1025.975
129.9775, 921.5912
130.4596, 833.3776
130.9418, 761.4865
131.4239, 703.7706
131.9060, 661.4504
132.3881, 631.5886
132.8702, 608.8711
133.3523, 593.2526
133.8345, 583.4818
134.3166, 579.3202
134.7987, 580.7627
135.2808, 585.2443
135.7629, 592.6074
136.2450, 602.6113
136.7272, 613.6706
137.2093, 625.6563
137.6914, 639.2513
138.1735, 655.4156
138.6556, 674.3304
139.1377, 694.4901
139.6199, 716.2175
140.1020, 739.3145
140.5841, 761.4827
141.0662, 783.0155
141.5483, 802.8864
142.0304, 819.9665
142.5126, 834.5216
142.9947, 844.9570
143.4768, 848.0856
143.9589, 841.8273
144.4410, 832.2332
144.9231, 817.5204
145.4053, 800.7379
145.8874, 786.2231
146.3695, 774.8635
146.8516, 764.5034
147.3337, 754.3982
147.8158, 743.0394
148.2980, 735.2110
148.7801, 731.2321
149.2622, 730.5547
149.7443, 732.1963
150.2264, 736.2842
150.7085, 742.5310
151.1907, 750.8483
151.6728, 762.4939
152.1549, 774.2292
152.6370, 786.8842
153.1191, 799.7063
153.6012, 810.4774
154.0834, 821.3986
154.5655, 828.4901
155.0476, 830.0755
155.5297, 823.5700
156.0118, 814.8179
156.4939, 802.8691
156.9761, 788.8326
157.4582, 776.8355
157.9403, 766.6825
158.4224, 759.4532
158.9045, 755.7816
159.3866, 756.9867
159.8688, 760.3398
160.3509, 766.4792
160.8330, 774.6966
161.3151, 781.6625
161.7972, 786.9376
162.2793, 790.1712
162.7615, 791.1241
163.2436, 791.8498
163.7257, 788.3439
164.2078, 777.7019
164.6899, 760.6302
165.1720, 741.9991
165.6541, 723.1028
166.1363, 704.2125
166.6184, 685.5963
167.1005, 666.1592
167.5826, 647.9362
168.0647, 631.8383
168.5468, 617.8369
169.0290, 605.7346
169.5111, 595.3701
169.9932, 586.8146
170.4753, 580.1430
170.9574, 576.2467
171.4395, 573.7614
171.9217, 571.7523
172.4038, 570.2069
172.8859, 568.8392
173.3680, 566.9233
173.8501, 565.0823
174.3322, 564.3754
174.8144, 565.4440
175.2965, 567.8009
175.7786, 570.5825
176.2607, 573.7447
176.7428, 578.2602
177.2249, 584.7930
177.7071, 593.2936
178.1892, 603.8170
178.6713, 616.1149
179.1534, 630.5301
179.6355, 647.4125
180.1176, 666.8414
180.5998, 689.2123
181.0819, 715.1889
181.5640, 744.5237
182.0461, 777.4279
182.5282, 815.5350
183.0103, 856.8696
183.4925, 897.2803
183.9746, 936.6336
184.4567, 973.9180
184.9388, 1011.496
185.4209, 1048.051
185.9030, 1073.227
186.3852, 1081.701
186.8673, 1075.004
187.3494, 1057.369
187.8315, 1028.022
188.3136, 991.2089
188.7957, 948.8211
189.2779, 901.7141
189.7600, 856.3441
190.2421, 815.3800
190.7242, 779.0764
191.2063, 748.3092
191.6884, 723.6688
192.1706, 703.6190
192.6527, 684.9417
193.1348, 667.6852
193.6169, 653.5974
194.0990, 643.4621
194.5811, 637.2643
195.0633, 634.3143
195.5454, 634.8754
196.0275, 638.0704
196.5096, 642.4866
196.9917, 648.1568
197.4738, 654.7840
197.9560, 662.3609
198.4381, 670.8553
198.9202, 679.9157
199.4023, 689.7256
199.8844, 699.7891
200.3665, 709.1933
200.8487, 718.0994
201.3308, 725.8261
201.8129, 732.1194
202.2950, 737.0056
202.7771, 739.9352
203.2592, 740.1578
203.7414, 739.2557
204.2235, 740.7689
204.7056, 745.0836
205.1877, 750.1998
205.6698, 755.2017
206.1519, 760.0560
206.6341, 765.1156
207.1162, 770.7338
207.5983, 776.1833
208.0804, 780.1318
208.5625, 782.9295
209.0446, 783.0597
209.5268, 779.8259
210.0089, 773.1851
210.4910, 763.1891
210.9731, 749.0772
211.4552, 732.0859
211.9373, 715.0977
212.4195, 697.9473
212.9016, 681.4099
213.3837, 665.5821
213.8658, 649.8835
214.3479, 636.8471
214.8300, 626.4144
215.3121, 618.6082
215.7943, 613.4842
216.2764, 611.0912
216.7585, 611.3425
217.2406, 614.1384
217.7227, 619.2657
218.2048, 627.5018
218.6870, 639.1571
219.1691, 653.7263
219.6512, 670.2260
220.1333, 688.3152
220.6154, 709.1008
221.0975, 733.6672
221.5797, 762.5580
222.0618, 792.9335
222.5439, 825.1048
223.0260, 858.5477
223.5081, 893.0798
223.9902, 928.6813
224.4724, 965.0927
224.9545, 1001.211
225.4366, 1036.806
225.9187, 1074.246
226.4008, 1113.615
226.8829, 1155.137
227.3651, 1199.455
227.8472, 1247.280
228.3293, 1297.566
228.8114, 1349.766
229.2935, 1402.937
229.7757, 1460.423
230.2578, 1522.378
230.7399, 1587.921
231.2220, 1656.462
231.7041, 1727.509
232.1862, 1801.521
232.6684, 1878.151
233.1505, 1956.093
233.6326, 2041.141
234.1147, 2135.424
234.5968, 2235.792
235.0789, 2334.839
235.5611, 2432.106
236.0432, 2528.488
236.5253, 2627.239
237.0074, 2730.731
237.4895, 2823.057
237.9716, 2906.311
238.4538, 2977.190
238.9359, 3031.345
239.4180, 3074.542
239.9001, 3092.524
240.3822, 3080.124
240.8643, 3035.457
241.3465, 2969.591
241.8286, 2878.374
242.3107, 2768.914
242.7928, 2649.716
243.2749, 2514.547
243.7570, 2380.138
244.2392, 2249.237
244.7213, 2119.979
245.2034, 2002.963
245.6855, 1897.753
246.1676, 1804.117
246.6497, 1721.941
247.1319, 1652.012
247.6140, 1592.155
248.0961, 1542.249
248.5782, 1502.381
249.0603, 1470.612
249.5424, 1447.219
250.0246, 1431.363
250.5067, 1421.846
250.9888, 1418.530
251.4709, 1421.861
251.9530, 1432.288
252.4351, 1450.092
252.9173, 1472.329
253.3994, 1498.184
253.8815, 1529.639
254.3636, 1569.606
254.8457, 1621.124
255.3278, 1673.486
255.8100, 1725.048
256.2921, 1776.005
256.7742, 1827.558
257.2563, 1884.554
257.7384, 1935.562
258.2205, 1971.145
258.7026, 1992.389
259.1848, 1996.261
259.6669, 1981.869
260.1490, 1949.441
260.6311, 1901.218
261.1132, 1834.813
261.5953, 1756.875
262.0775, 1670.807
262.5596, 1570.335
263.0417, 1477.997
263.5238, 1395.787
264.0059, 1323.531
264.4880, 1256.345
264.9702, 1193.696
265.4523, 1138.023
265.9344, 1091.233
266.4165, 1053.558
266.8986, 1022.682
267.3807, 999.0926
267.8629, 981.6966
268.3450, 966.5027
268.8271, 952.8098
269.3092, 942.6863
269.7913, 937.1782
270.2734, 936.6787
270.7556, 939.2521
271.2377, 945.0938
271.7198, 953.8073
272.2019, 964.3929
272.6840, 976.6638
273.1661, 991.5272
273.6483, 1009.674
274.1304, 1031.238
274.6125, 1054.585
275.0946, 1080.021
275.5767, 1106.572
276.0588, 1132.947
276.5410, 1159.276
277.0231, 1184.329
277.5052, 1208.013
277.9873, 1230.482
278.4694, 1247.678
278.9515, 1260.009
279.4337, 1266.063
279.9158, 1264.541
280.3979, 1255.689
280.8800, 1237.035
281.3621, 1207.001
281.8442, 1166.115
282.3264, 1118.957
282.8085, 1064.688
283.2906, 1007.190
283.7727, 949.6287
284.2548, 891.9900
284.7369, 837.1815
285.2191, 785.6568
285.7012, 737.8561
286.1833, 693.3912
286.6654, 652.1549
287.1475, 614.7767
287.6296, 583.2350
288.1118, 556.9960
288.5939, 532.1185
289.0760, 507.2899
289.5581, 483.5757
290.0402, 463.0162
290.5223, 445.5585
291.0045, 430.6523
291.4866, 418.3974
291.9687, 408.3898
292.4508, 398.6662
292.9329, 388.6714
293.4150, 379.1015
293.8972, 370.8061
294.3793, 363.7492
294.8614, 357.4604
295.3435, 351.7481
295.8256, 346.6048
296.3077, 342.1068
296.7899, 338.3538
297.2720, 335.1078
297.7541, 332.0356
298.2362, 329.2213
298.7183, 326.9860
299.2004, 325.5840
299.6826, 324.8746
300.1647, 324.5858
300.6468, 324.7027
301.1289, 325.2147
301.6110, 326.2715
302.0931, 327.7287
302.5753, 329.2448
303.0574, 330.6426
303.5395, 332.0053
304.0216, 333.4007
304.5037, 334.8429
304.9858, 336.3448
305.4680, 337.3449
305.9501, 338.4912
306.4322, 340.9014
306.9143, 346.0341
307.3964, 351.8534
307.8785, 356.3456
308.3607, 359.6530
308.8428, 363.2917
309.3249, 368.8359
309.8070, 375.0734
310.2891, 380.4508
310.7712, 383.6112
311.2534, 387.0650
311.7355, 392.8506
312.2176, 400.5261
312.6997, 408.2872
313.1818, 414.7058
313.6639, 420.9604
314.1461, 428.0697
314.6282, 436.3534
315.1103, 445.1439
315.5924, 454.1388
316.0745, 463.3576
316.5566, 473.0040
317.0388, 483.2992
317.5209, 493.8374
318.0030, 504.4396
318.4851, 515.0089
318.9672, 525.9503
319.4493, 537.6968
319.9315, 549.7760
320.4136, 561.7256
320.8957, 573.2709
321.3778, 584.6718
321.8599, 596.3096
322.3420, 608.2809
322.8242, 619.4542
323.3063, 629.8793
323.7884, 639.2690
324.2705, 647.3724
324.7526, 652.6824
325.2347, 658.3098
325.7169, 664.7818
326.1990, 672.1022
326.6811, 679.6125
327.1632, 686.4136
327.6453, 693.9708
328.1274, 703.0926
328.6096, 713.5569
329.0917, 725.9349
329.5738, 739.6520
330.0559, 755.1095
330.5380, 773.9098
331.0201, 796.2122
331.5023, 821.6766
331.9844, 850.1199
332.4665, 880.4597
332.9486, 915.9706
333.4307, 957.5383
333.9128, 1003.676
334.3950, 1051.021
334.8771, 1099.899
335.3592, 1150.253
335.8413, 1202.640
336.3234, 1258.001
336.8055, 1309.571
337.2877, 1359.968
337.7698, 1402.212
338.2519, 1430.359
338.7340, 1445.324
339.2161, 1441.338
339.6982, 1415.269
340.1803, 1368.832
340.6624, 1311.707
341.1446, 1240.262
341.6267, 1167.992
342.1088, 1101.654
342.5909, 1041.685
343.0730, 991.0481
343.5551, 951.3290
344.0373, 920.3978
344.5194, 894.6805
345.0015, 873.9377
345.4836, 858.7490
345.9657, 850.4172
346.4478, 848.2345
346.9300, 848.7056
347.4121, 851.8650
347.8942, 856.7791
348.3763, 862.0579
348.8584, 867.9055
349.3405, 875.5829
349.8227, 886.0943
350.3048, 898.7502
350.7869, 912.3359
351.2690, 926.8123
351.7511, 941.8458
352.2332, 956.6497
352.7154, 971.6574
353.1975, 987.9571
353.6796, 1007.178
354.1617, 1026.503
354.6438, 1042.768
355.1259, 1056.237
355.6081, 1068.344
356.0902, 1081.696
356.5723, 1093.586
357.0544, 1100.828
357.5365, 1102.045
358.0186, 1100.029
358.5008, 1097.240
358.9829, 1092.614
359.4650, 1083.874
359.9471, 1068.964
360.4292, 1050.358
360.9113, 1029.548
361.3935, 1006.976
361.8756, 981.5790
362.3577, 950.8465
362.8398, 917.8517
363.3219, 886.0849
363.8040, 856.5662
364.2862, 828.3926
364.7683, 801.3087
365.2504, 775.2058
365.7325, 750.4198
366.2146, 726.9999
366.6967, 704.6970
367.1789, 683.3549
367.6610, 662.5107
368.1431, 643.1348
368.6252, 624.7917
369.1073, 607.7666
369.5894, 593.2082
370.0716, 582.7771
370.5537, 572.9686
371.0358, 562.1439
371.5179, 548.9835
372.0000, 538.8351
372.4821, 532.5782
372.9643, 528.8068
373.4464, 525.8087
373.9285, 523.7946
374.4106, 522.1349
374.8927, 520.5979
375.3748, 519.1961
375.8570, 518.4119
376.3391, 518.0354
376.8212, 518.6812
377.3033, 521.0688
377.7854, 525.3768
378.2675, 529.9498
378.7497, 534.4192
379.2318, 539.1953
379.7139, 545.2291
380.1960, 552.4205
380.6781, 561.4529
381.1602, 573.2430
381.6424, 587.4094
382.1245, 601.0453
382.6066, 613.7705
383.0887, 627.5242
383.5708, 645.5222
384.0529, 667.0341
384.5351, 689.4105
385.0172, 711.3082
385.4993, 733.1962
385.9814, 757.0683
386.4635, 782.6415
386.9456, 808.3354
387.4278, 834.9691
387.9099, 860.0515
388.3920, 880.1570
388.8741, 894.9456
389.3562, 903.1672
389.8383, 904.8723
390.3205, 899.4708
390.8026, 885.2066
391.2847, 858.9238
391.7668, 825.0118
392.2489, 785.0042
392.7310, 738.2283
393.2132, 691.1439
393.6953, 645.4731
394.1774, 602.2920
394.6595, 562.5820
395.1416, 526.2919
395.6237, 494.3626
396.1059, 467.6859
396.5880, 446.1129
397.0701, 427.1684
397.5522, 411.2049
398.0343, 397.3487
398.5164, 385.1422
398.9986, 374.8517
399.4807, 365.8319
399.9628, 357.8747
400.4449, 351.1649
400.9270, 346.1755
401.4091, 343.7196
401.8913, 341.9902
402.3734, 340.3130
402.8555, 338.4599
403.3376, 337.9742
403.8197, 339.0575
404.3018, 341.2682
404.7840, 344.1532
405.2661, 347.7054
405.7482, 351.9535
406.2303, 356.8023
406.7124, 362.3721
407.1945, 369.5484
407.6767, 378.5010
408.1588, 388.1939
408.6409, 397.9763
409.1230, 407.8352
409.6051, 418.1988
410.0872, 429.1711
410.5694, 440.6558
411.0515, 452.0677
411.5336, 463.6041
412.0157, 476.2292
412.4978, 490.5395
412.9799, 506.2054
413.4621, 522.6335
413.9442, 539.9657
414.4263, 558.1221
414.9084, 576.4078
415.3905, 595.7486
415.8727, 618.1150
416.3548, 644.8324
416.8369, 673.5197
417.3190, 702.3255
417.8011, 731.4523
418.2832, 762.0120
418.7654, 793.8903
419.2475, 827.5589
419.7296, 863.5697
420.2117, 902.8235
420.6938, 941.1012
421.1759, 978.0509
421.6581, 1012.546
422.1402, 1043.834
422.6223, 1073.674
423.1044, 1097.847
423.5865, 1115.729
424.0686, 1127.102
424.5508, 1130.952
425.0329, 1127.354
425.5150, 1115.814
425.9971, 1095.779
426.4792, 1064.665
426.9613, 1030.413
427.4435, 991.8380
427.9256, 951.0179
428.4077, 910.7505
428.8898, 868.6802
429.3719, 831.4332
429.8540, 801.1319
430.3362, 777.4889
430.8183, 754.3357
431.3004, 731.0544
431.7825, 710.4431
432.2646, 695.3790
432.7467, 685.9128
433.2289, 677.7155
433.7110, 670.3818
434.1931, 664.0494
434.6752, 659.2430
435.1573, 655.8824
435.6394, 653.1315
436.1216, 650.6161
436.6036, 648.3795
437.0858, 646.6312
437.5679, 645.3718
438.0500, 644.2958
438.5321, 642.9487
439.0142, 641.6374
439.4963, 640.8190
439.9785, 640.2943
440.4606, 640.7858
440.9427, 643.6497
441.4248, 648.1486
441.9069, 652.0563
442.3890, 654.7429
442.8712, 656.1816
443.3533, 656.4794
443.8354, 655.7748
444.3175, 653.2808
444.7996, 648.8499
445.2817, 642.4753
445.7639, 634.1070
446.2460, 622.3314
446.7281, 610.0325
447.2102, 597.6736
447.6923, 585.2041
448.1744, 572.6902
448.6566, 559.5718
449.1387, 546.9264
449.6208, 535.2397
450.1029, 524.5404
450.5850, 514.4417
451.0671, 504.9594
451.5493, 496.1871
452.0314, 488.1864
452.5135, 480.9039
452.9956, 474.9626
453.4777, 470.7264
453.9598, 467.9893
454.4420, 465.9366
454.9241, 464.6315
455.4062, 463.6044
455.8883, 462.2535
456.3704, 460.8219
456.8525, 460.5215
457.3347, 461.5758
457.8168, 463.4385
458.2989, 465.3456
458.7810, 467.4919
459.2631, 470.3838
459.7452, 474.8397
460.2274, 479.8528
460.7095, 484.0381
461.1916, 487.6004
461.6737, 491.6802
462.1558, 497.3501
462.6379, 503.7114
463.1201, 509.8835
463.6022, 515.5035
464.0843, 521.5281
464.5664, 528.6136
465.0485, 536.3012
465.5306, 543.8608
466.0128, 550.6159
466.4949, 557.7133
466.9770, 565.8870
467.4591, 575.2045
467.9412, 583.1173
468.4233, 587.9583
468.9055, 592.8768
469.3876, 599.9608
469.8697, 611.0477
470.3518, 620.2783
470.8339, 627.4070
471.3160, 632.7939
471.7982, 637.0248
472.2803, 639.9578
472.7624, 642.3700
473.2445, 644.7203
473.7266, 646.7889
474.2087, 647.1358
474.6909, 645.7083
475.1730, 643.0124
475.6551, 639.7785
476.1372, 635.7115
476.6193, 629.2801
477.1014, 619.9183
477.5836, 609.3936
478.0657, 600.0840
478.5478, 591.4089
479.0299, 581.9044
479.5120, 570.2924
479.9941, 557.7861
480.4763, 545.6249
480.9584, 533.7395
481.4405, 521.7035
481.9226, 508.6883
482.4047, 495.7802
482.8868, 483.7969
483.3690, 473.0968
483.8511, 463.2034
484.3332, 454.4171
484.8153, 446.3133
485.2974, 438.0063
485.7795, 428.5716
486.2617, 419.9047
486.7438, 412.3366
487.2259, 405.8451
487.7080, 400.4391
488.1901, 396.6581
488.6722, 393.2035
489.1544, 389.0782
489.6365, 383.8493
490.1186, 379.8564
490.6007, 377.4029
491.0828, 375.8604
491.5649, 374.0058
492.0471, 371.7936
492.5292, 370.6343
493.0113, 371.2169
493.4934, 373.0597
493.9755, 375.1382
494.4576, 377.4131
494.9398, 379.4950
495.4219, 380.7082
495.9040, 381.6053
496.3861, 383.1140
496.8682, 385.3748
497.3503, 388.1779
497.8325, 391.5505
498.3146, 395.3224
498.7967, 399.3039
499.2788, 403.1012
499.7609, 407.3564
500.2430, 412.2682
500.7252, 417.8533
501.2073, 424.3105
501.6894, 432.5678
502.1715, 440.9354
502.6536, 448.5143
503.1357, 454.4852
503.6179, 461.7203
504.1000, 470.8179
504.5821, 480.8424
505.0642, 490.9142
505.5463, 501.0214
506.0284, 511.1230
506.5106, 521.0656
506.9927, 530.9697
507.4748, 541.1674
507.9569, 551.5986
508.4390, 562.5743
508.9211, 574.4738
509.4033, 587.1600
509.8854, 599.4377
510.3675, 611.2475
510.8496, 623.1152
511.3317, 635.5041
511.8138, 648.4142
512.2960, 661.7031
512.7781, 675.9225
513.2602, 689.8145
513.7423, 701.8503
514.2244, 712.5617
514.7065, 723.2389
515.1887, 735.2724
515.6708, 746.9231
516.1529, 757.2343
516.6350, 766.1910
517.1171, 773.3669
517.5992, 778.5102
518.0814, 781.8181
518.5635, 783.3845
519.0456, 783.1066
519.5277, 781.2768
520.0098, 779.4567
520.4919, 775.5441
520.9741, 766.1140
521.4562, 749.3810
521.9383, 730.8699
522.4204, 711.5986
522.9025, 691.5360
523.3846, 670.2324
523.8668, 647.5617
524.3489, 624.6961
524.8310, 601.9789
525.3131, 579.3740
525.7952, 557.2014
526.2773, 535.1613
526.7595, 514.6125
527.2416, 497.6697
527.7237, 483.6776
528.2058, 470.7556
528.6879, 458.8042
529.1700, 447.3235
529.6522, 435.2593
530.1343, 423.2769
530.6164, 412.9180
531.0985, 406.4201
531.5806, 400.7581
532.0627, 394.1808
532.5449, 386.5322
533.0270, 378.8570
533.5091, 370.7953
533.9912, 363.2616
534.4733, 357.0292
534.9554, 353.0298
535.4376, 348.9850
535.9197, 345.0103
536.4018, 340.9510
536.8839, 336.5310
537.3660, 331.3215
537.8481, 326.8560
538.3303, 323.8239
538.8124, 321.8398
539.2945, 318.6033
539.7766, 313.9796
540.2587, 309.2608
540.7408, 304.9633
541.2230, 301.2339
541.7051, 299.1858
542.1872, 299.1053
542.6693, 298.9988
543.1514, 296.6061
543.6335, 292.8177
544.1157, 289.1789
544.5978, 286.0156
545.0799, 283.3700
545.5620, 281.4704
546.0441, 280.1479
546.5262, 278.9843
547.0084, 278.0075
547.4905, 276.9922
547.9726, 275.7270
548.4547, 274.1681
548.9368, 272.9230
549.4189, 272.5981
549.9011, 272.1389
550.3832, 270.8730
550.8653, 268.2379
551.3474, 266.1073
551.8295, 264.6378
552.3116, 263.5410
552.7938, 262.3926
553.2759, 261.1651
553.7580, 260.1704
554.2401, 259.5850
554.7222, 259.2068
555.2043, 258.5500
555.6865, 257.6315
556.1686, 256.5580
556.6507, 255.2338
557.1328, 253.8686
557.6149, 252.7389
558.0970, 251.8627
558.5792, 251.1994
559.0613, 250.9414
559.5434, 250.7873
560.0255, 250.3883
560.5076, 249.3709
560.9897, 248.6485
561.4719, 249.0528
561.9540, 249.8352
562.4361, 249.7470
562.9182, 247.5387
563.4003, 245.6680
563.8824, 244.5147
564.3646, 244.0499
564.8467, 244.1289
565.3288, 245.0886
565.8109, 245.8851
566.2930, 245.8380
566.7751, 244.8983
567.2573, 244.5206
567.7394, 244.8189
568.2215, 245.1308
568.7036, 244.5359
569.1857, 243.3303
569.6678, 242.6420
570.1500, 242.8164
570.6321, 243.3234
571.1142, 243.8068
571.5963, 244.1596
572.0784, 244.1398
572.5605, 243.2456
573.0427, 242.2978
573.5248, 241.7071
574.0069, 241.4813
574.4890, 241.5452
574.9711, 242.4085
575.4532, 243.1279
575.9354, 243.1419
576.4175, 242.1439
576.8996, 241.4366
577.3817, 241.0197
577.8638, 240.9005
578.3459, 241.1238
578.8281, 241.7527
579.3102, 242.4940
579.7923, 243.4084
580.2744, 244.2771
580.7565, 244.5088
581.2386, 244.1488
581.7208, 244.0307
582.2029, 244.6050
582.6850, 245.5241
583.1671, 246.0650
583.6492, 246.3235
584.1313, 246.8657
584.6134, 248.9211
585.0955, 250.9088
585.5776, 250.9003
586.0598, 248.4641
586.5419, 246.7298
587.0240, 247.8352
587.5061, 249.7303
587.9882, 250.7091
588.4703, 249.5415
588.9525, 248.7870
589.4346, 248.5324
589.9167, 248.7515
590.3988, 249.5292
590.8809, 251.2454
591.3630, 252.4716
591.8452, 252.7138
592.3273, 252.2733
592.8094, 252.3154
593.2915, 252.8598
593.7736, 253.5350
594.2557, 253.9164
594.7379, 254.2849
595.2200, 255.6270
595.7021, 257.9474
596.1842, 260.2138
596.6663, 261.6064
597.1484, 262.4692
597.6306, 263.1492
598.1127, 263.5753
598.5948, 264.2227
599.0769, 265.4926
599.5590, 267.0508
600.0411, 268.4823
600.5233, 269.5433
601.0054, 270.6397
601.4875, 271.7763
601.9696, 272.9969
602.4517, 274.4177
602.9338, 275.9686
603.4160, 277.9019
603.8981, 280.3708
604.3802, 283.3481
604.8623, 286.4267
605.3444, 289.6323
605.8265, 292.9477
606.3087, 295.9745
606.7908, 299.1003
607.2729, 303.8023
607.7550, 310.3895
608.2371, 317.0370
608.7192, 321.3997
609.2014, 325.0835
609.6835, 330.4507
610.1656, 338.4261
610.6477, 347.5544
611.1298, 357.1176
611.6119, 367.4280
612.0941, 379.2655
612.5762, 393.0013
613.0583, 407.9048
613.5404, 423.8631
614.0225, 440.7161
614.5046, 459.3163
614.9868, 479.7950
615.4689, 501.4030
615.9510, 524.1140
616.4331, 547.8234
616.9152, 572.1401
617.3973, 596.9077
617.8795, 622.9116
618.3616, 649.6863
618.8437, 677.8553
619.3258, 708.5762
619.8079, 742.3289
620.2900, 778.5204
620.7722, 816.1335
621.2543, 856.2871
621.7364, 900.0117
622.2185, 948.8964
622.7006, 1000.128
623.1827, 1053.539
623.6649, 1108.887
624.1470, 1166.097
624.6291, 1226.711
625.1112, 1287.651
625.5933, 1348.067
626.0754, 1408.065
626.5576, 1467.804
627.0397, 1529.184
627.5218, 1584.035
628.0039, 1630.186
628.4860, 1666.857
628.9681, 1688.817
629.4503, 1696.382
629.9324, 1684.463
630.4145, 1646.746
630.8966, 1587.067
631.3787, 1508.882
631.8608, 1410.369
632.3430, 1307.296
632.8251, 1205.169
633.3072, 1106.974
633.7893, 1014.913
634.2714, 926.4589
634.7535, 847.9297
635.2357, 781.1285
635.7178, 724.6811
636.1999, 675.4721
636.6820, 635.5491
637.1641, 599.8824
637.6462, 567.9212
638.1284, 539.2682
638.6105, 513.4729
639.0926, 490.4099
639.5747, 470.0146
640.0568, 452.9787
640.5389, 438.6030
641.0211, 425.4167
641.5032, 413.4442
641.9853, 402.7219
642.4674, 393.6188
642.9495, 385.7812
643.4316, 379.0570
643.9138, 373.7505
644.3959, 368.3975
644.8780, 362.1419
645.3601, 355.7513
645.8422, 350.1093
646.3243, 345.7590
646.8065, 341.5393
647.2886, 337.2675
647.7707, 333.1732
648.2528, 329.5461
648.7349, 326.3802
649.2170, 323.8230
649.6992, 322.0635
650.1813, 320.7448
650.6634, 318.8926
651.1455, 316.5458
651.6276, 314.0579
652.1097, 311.2681
652.5919, 308.6164
653.0740, 306.6122
653.5561, 305.2457
654.0382, 304.3126
654.5203, 304.2964
655.0024, 304.2488
655.4846, 303.4308
655.9667, 301.5604
656.4488, 299.9043
656.9309, 298.6235
657.4130, 297.6428
657.8951, 296.9423
658.3773, 296.6141
658.8594, 296.3632
659.3415, 296.3078
659.8236, 296.0941
660.3057, 294.8935
660.7878, 292.8667
661.2700, 291.7895
661.7521, 292.3582
662.2342, 293.4030
662.7163, 293.6756
663.1984, 293.1984
663.6805, 292.0334
664.1627, 289.2907
664.6448, 286.7403
665.1269, 285.3346
665.6090, 284.9728
666.0911, 285.2433
666.5732, 286.6912
667.0554, 288.1082
667.5375, 289.1910
668.0196, 289.9384
668.5017, 290.0841
668.9838, 289.2897
669.4659, 288.6850
669.9481, 289.1497
670.4302, 290.5859
670.9123, 291.4127
671.3944, 291.5876
671.8765, 291.4356
672.3586, 290.9079
672.8408, 290.3569
673.3229, 290.4261
673.8050, 291.2755
674.2871, 292.4892
674.7692, 294.2910
675.2513, 296.0863
675.7335, 297.2129
676.2156, 296.9082
676.6977, 296.6694
677.1798, 296.5248
677.6619, 296.6161
678.1440, 297.1792
678.6262, 298.2904
679.1083, 299.7611
679.5904, 301.8199
680.0725, 303.9913
680.5546, 304.7944
681.0367, 304.3253
681.5189, 304.5212
682.0010, 306.7778
682.4831, 309.8927
682.9652, 311.9239
683.4473, 313.0983
683.9294, 314.6817
684.4116, 317.7293
684.8937, 321.0847
685.3758, 324.1772
685.8579, 326.9370
686.3400, 329.2987
686.8221, 330.4271
687.3043, 331.8712
687.7864, 334.3994
688.2685, 338.1869
688.7506, 342.0959
689.2327, 346.1340
689.7148, 350.3798
690.1970, 354.8952
690.6791, 359.7121
691.1612, 364.8874
691.6433, 370.4434
692.1254, 375.9680
692.6075, 381.0573
693.0897, 385.8671
693.5718, 390.5587
694.0539, 394.5673
694.5360, 399.5951
695.0181, 407.1811
695.5002, 416.0821
695.9824, 424.5169
696.4645, 432.0336
696.9466, 439.3741
697.4287, 446.6236
697.9108, 453.7499
698.3929, 460.8575
698.8751, 468.2294
699.3572, 474.3332
699.8393, 478.3919
700.3214, 481.1641
700.8035, 484.7684
701.2856, 488.9215
701.7678, 491.9843
702.2499, 492.8573
702.7320, 492.3036
703.2141, 491.0304
703.6962, 489.0114
704.1783, 485.8988
704.6605, 480.9833
705.1426, 475.4337
705.6247, 469.7746
706.1068, 464.0412
706.5889, 458.0088
707.0710, 451.7078
707.5532, 445.1418
708.0353, 438.0954
708.5174, 430.5705
708.9995, 423.5289
709.4816, 416.9559
709.9637, 410.9827
710.4459, 405.7904
710.9280, 401.2374
711.4101, 397.1940
711.8922, 393.6306
712.3743, 390.4999
712.8564, 387.8563
713.3386, 385.6035
713.8207, 383.5949
714.3028, 381.7527
714.7849, 380.2715
715.2670, 379.0910
715.7491, 378.2823
716.2313, 377.8520
716.7134, 377.6853
717.1955, 378.4355
717.6776, 380.4080
718.1597, 383.0196
718.6418, 385.1154
719.1240, 386.8434
719.6061, 389.0087
720.0882, 392.0251
720.5703, 395.4261
721.0524, 398.6006
721.5345, 401.7588
722.0167, 405.4084
722.4988, 409.5354
722.9809, 414.4071
723.4630, 420.6206
723.9451, 427.7827
724.4272, 433.9686
724.9094, 438.3777
725.3915, 443.2945
725.8736, 449.6066
726.3557, 457.0459
726.8378, 464.5306
727.3199, 472.1300
727.8021, 479.4941
728.2842, 486.3966
728.7663, 492.9607
729.2484, 499.5199
729.7305, 505.9402
730.2126, 511.3864
730.6948, 515.0607
731.1769, 517.8161
731.6590, 520.7040
732.1411, 524.3341
732.6232, 524.3230
733.1053, 518.8028
733.5875, 511.5797
734.0696, 505.1674
734.5517, 499.9602
735.0338, 492.0871
735.5159, 481.1107
735.9980, 469.1270
736.4802, 457.7350
736.9623, 446.8991
737.4444, 436.8590
737.9265, 427.6729
738.4086, 418.5888
738.8907, 408.2923
739.3729, 398.1167
739.8550, 389.6932
740.3371, 384.0275
740.8192, 378.5895
741.3013, 372.7946
741.7834, 367.1727
742.2656, 362.1996
742.7477, 357.7934
743.2298, 354.4087
743.7119, 352.3666
744.1940, 350.8421
744.6761, 348.4404
745.1583, 345.4059
745.6404, 343.0230
746.1225, 341.7640
746.6046, 340.9631
747.0867, 340.0259
747.5688, 339.0982
748.0510, 338.4388
748.5331, 338.7238
749.0152, 338.6055
749.4973, 337.2076
749.9794, 335.2794
750.4615, 334.3267
750.9437, 334.6351
751.4258, 335.3135
751.9079, 336.4544
752.3900, 337.5923
752.8721, 337.3322
753.3542, 335.8270
753.8364, 334.4530
754.3185, 333.6857
754.8006, 333.4636
755.2827, 334.0107
755.7648, 335.0826
756.2469, 335.9653
756.7291, 336.1699
757.2112, 336.3123
757.6933, 336.6200
758.1754, 337.0768
758.6575, 337.5575
759.1396, 338.0632
759.6218, 338.5822
760.1039, 339.1418
760.5860, 339.7065
761.0681, 340.1610
761.5502, 340.5057
762.0323, 340.7749
762.5145, 340.5873
762.9966, 340.5711
763.4787, 341.8367
763.9608, 344.1942
764.4429, 346.3999
764.9250, 347.9361
765.4072, 349.1041
765.8893, 349.9164
766.3714, 350.3717
766.8535, 351.1342
767.3356, 352.4528
767.8177, 353.6247
768.2999, 354.1770
768.7820, 354.1968
769.2641, 354.6637
769.7462, 355.5814
770.2283, 356.5881
770.7104, 357.4769
771.1926, 358.2580
771.6747, 358.7915
772.1568, 359.0923
772.6389, 359.8033
773.1210, 361.5663
773.6031, 363.5766
774.0853, 365.3903
774.5674, 366.9828
775.0495, 368.3341
775.5316, 369.2815
776.0137, 370.2902
776.4958, 371.5833
776.9780, 373.1747
777.4601, 375.2654
777.9422, 377.8654
778.4243, 381.0610
778.9064, 386.1212
779.3885, 391.2865
779.8707, 393.6490
780.3528, 392.6158
780.8349, 392.5371
781.3170, 396.0811
781.7991, 400.7782
782.2812, 404.8449
782.7633, 407.8528
783.2454, 411.5836
783.7275, 416.1994
784.2097, 421.0726
784.6918, 425.4709
785.1739, 429.4886
785.6560, 434.6216
786.1381, 441.0676
786.6202, 447.6347
787.1024, 452.6411
787.5845, 457.4364
788.0666, 463.8936
788.5487, 472.7632
789.0308, 481.2137
789.5129, 488.3871
789.9951, 494.7139
790.4772, 500.3353
790.9593, 504.7133
791.4414, 510.4192
791.9235, 518.1788
792.4056, 525.7595
792.8878, 530.8956
793.3699, 533.9252
793.8520, 536.9810
794.3341, 540.4168
794.8162, 542.8416
795.2983, 543.6552
795.7805, 542.5714
796.2626, 539.1262
796.7447, 532.8651
797.2268, 525.4957
797.7089, 516.6766
798.1910, 507.3227
798.6732, 498.1602
799.1553, 488.9808
799.6374, 480.3237
800.1195, 472.2305
800.6016, 464.6088
801.0837, 457.3024
801.5659, 450.3334
802.0480, 443.5744
802.5301, 437.0248
803.0122, 431.0610
803.4943, 425.6650
803.9764, 421.1102
804.4586, 417.7115
804.9407, 415.8686
805.4228, 414.3660
805.9049, 413.3659
806.3870, 412.3536
806.8691, 410.7770
807.3513, 408.5266
807.8334, 406.7237
808.3155, 405.4452
808.7976, 404.4924
809.2797, 403.7133
809.7618, 403.0919
810.2440, 402.6095
810.7261, 402.2586
811.2082, 402.0441
811.6903, 402.3370
812.1724, 402.5397
812.6545, 402.0598
813.1367, 400.3917
813.6188, 399.1651
814.1009, 398.3524
814.5830, 398.0467
815.0651, 398.7019
815.5472, 400.1971
816.0294, 400.4996
816.5115, 399.3811
816.9936, 398.1418
817.4757, 397.8499
817.9578, 398.2284
818.4399, 399.1320
818.9221, 400.6948
819.4042, 401.8196
819.8863, 401.7021
820.3684, 401.3424
820.8505, 401.3930
821.3326, 401.8716
821.8148, 402.7725
822.2969, 404.2035
822.7790, 405.6740
823.2611, 406.8071
823.7432, 407.6102
824.2253, 408.0139
824.7075, 407.9964
825.1896, 407.9407
825.6717, 407.9853
826.1538, 408.1992
826.6359, 408.6413
827.1180, 409.3186
827.6002, 410.2509
828.0823, 411.9527
828.5644, 413.2621
829.0465, 413.2292
829.5286, 411.8047
830.0107, 411.5136
830.4929, 412.4113
830.9750, 413.8683
831.4571, 415.8235
831.9392, 417.8248
832.4213, 419.1840
832.9034, 419.8500
833.3856, 420.0406
833.8677, 418.8248
834.3498, 418.0288
834.8319, 419.1513
835.3140, 422.2972
835.7961, 424.0876
836.2783, 424.1405
836.7604, 423.8552
837.2425, 423.7952
837.7246, 424.0263
838.2067, 424.9456
838.6888, 426.5054
839.1710, 428.1911
839.6531, 430.0218
840.1352, 431.5607
840.6173, 432.1430
841.0994, 431.8908
841.5815, 432.1893
842.0637, 434.0966
842.5458, 435.6007
843.0279, 435.8008
843.5100, 435.0390
843.9921, 435.8074
844.4742, 438.1898
844.9564, 439.9010
845.4385, 439.0358
845.9206, 437.3576
846.4027, 437.7115
846.8848, 439.6017
847.3669, 441.3116
847.8491, 442.0220
848.3312, 442.4721
848.8133, 442.6811
849.2954, 442.8755
849.7775, 443.8564
850.2596, 446.0165
850.7418, 447.6664
851.2239, 448.0822
851.7060, 447.9982
852.1881, 449.3291
852.6702, 451.6728
853.1523, 453.3945
853.6345, 453.3087
854.1166, 453.0231
854.5987, 453.5022
855.0808, 454.5627
855.5629, 455.8857
856.0450, 457.8488
856.5272, 459.3786
857.0093, 460.1684
857.4914, 460.6666
857.9735, 461.7982
858.4556, 463.5063
858.9377, 464.6109
859.4199, 464.6932
859.9020, 464.6039
860.3841, 465.2453
860.8662, 466.3352
861.3483, 467.4773
861.8304, 468.6000
862.3126, 469.7007
862.7947, 470.5600
863.2768, 471.5361
863.7589, 473.0582
864.2410, 475.3296
864.7231, 476.8853
865.2053, 477.4381
865.6874, 478.0927
866.1695, 480.3995
866.6516, 483.6057
867.1337, 486.1707
867.6158, 487.7885
868.0980, 489.3523
868.5801, 492.0593
869.0622, 494.4073
869.5443, 494.7553
870.0264, 492.2267
870.5085, 492.3187
870.9907, 495.8689
871.4728, 499.8663
871.9549, 502.0597
872.4370, 502.8563
872.9191, 503.7414
873.4012, 504.7681
873.8834, 506.0361
874.3655, 507.9479
874.8476, 509.8594
875.3297, 510.8882
875.8118, 511.0422
876.2939, 512.8101
876.7761, 517.4747
877.2582, 521.9018
877.7403, 524.9545
878.2224, 526.8373
878.7045, 528.1578
879.1866, 529.0035
879.6688, 530.5146
880.1509, 533.8625
880.6330, 537.7018
881.1151, 540.5173
881.5972, 542.7225
882.0793, 545.4434
882.5615, 549.6485
883.0436, 553.6444
883.5257, 556.9153
884.0078, 559.8587
884.4899, 563.4311
884.9720, 567.6755
885.4542, 571.6967
885.9363, 575.0359
886.4184, 578.6624
886.9005, 584.3416
887.3826, 591.1170
887.8647, 597.2062
888.3469, 601.1759
888.8290, 605.9651
889.3111, 612.9033
889.7932, 620.7716
890.2753, 628.2894
890.7574, 635.1339
891.2396, 643.2755
891.7217, 652.9839
892.2038, 663.4965
892.6859, 673.8834
893.1680, 684.5045
893.6501, 696.0393
894.1323, 708.6624
894.6144, 722.3669
895.0965, 737.1843
895.5786, 753.1989
896.0607, 770.6384
896.5428, 789.4950
897.0250, 809.7709
897.5071, 831.2662
897.9892, 854.7919
898.4713, 881.4942
898.9534, 910.6041
899.4355, 940.7443
899.9177, 971.7356
900.3998, 1004.392
900.8819, 1037.487
901.3640, 1073.094
901.8461, 1112.252
902.3282, 1154.685
902.8104, 1199.158
903.2925, 1245.297
903.7746, 1293.103
904.2567, 1341.601
904.7388, 1392.234
905.2209, 1449.184
905.7031, 1511.469
906.1852, 1575.013
906.6673, 1639.620
907.1494, 1704.149
907.6315, 1770.552
908.1136, 1835.760
908.5958, 1894.876
909.0779, 1949.823
909.5600, 1995.127
910.0421, 2031.162
910.5242, 2056.332
911.0063, 2069.587
911.4885, 2070.516
911.9706, 2056.297
912.4527, 2026.020
912.9348, 1986.393
913.4169, 1937.506
913.8990, 1885.071
914.3812, 1833.387
914.8633, 1782.288
915.3454, 1735.483
915.8275, 1690.882
916.3096, 1654.051
916.7917, 1628.040
917.2739, 1612.358
917.7560, 1603.961
918.2381, 1602.853
918.7202, 1609.157
919.2023, 1624.324
919.6844, 1645.780
920.1666, 1673.163
920.6487, 1705.604
921.1308, 1739.316
921.6129, 1775.707
922.0950, 1810.912
922.5771, 1846.094
923.0593, 1877.457
923.5414, 1896.744
924.0235, 1903.591
924.5056, 1896.387
924.9877, 1875.028
925.4698, 1838.834
925.9520, 1783.292
926.4341, 1713.724
926.9162, 1638.057
927.3983, 1551.420
927.8804, 1468.174
928.3625, 1388.126
928.8447, 1313.261
929.3268, 1246.026
929.8089, 1186.581
930.2910, 1131.715
930.7731, 1080.753
931.2552, 1035.899
931.7374, 999.2921
932.2195, 967.9124
932.7016, 938.6522
933.1837, 911.4125
933.6658, 887.9635
934.1479, 868.7922
934.6301, 852.3622
935.1122, 838.3969
935.5943, 826.5361
936.0764, 815.3092
936.5585, 804.6747
937.0406, 795.0397
937.5228, 786.6123
938.0049, 779.1190
938.4870, 772.6956
938.9691, 767.0032
939.4512, 761.2352
939.9333, 754.6284
940.4155, 748.9225
940.8976, 744.2672
941.3797, 740.6588
941.8618, 738.5844
942.3439, 737.7115
942.8260, 736.5245
943.3082, 734.7109
943.7903, 732.5633
944.2724, 729.6381
944.7545, 726.9053
945.2366, 725.3594
945.7188, 725.6071
946.2009, 725.4079
946.6830, 724.6190
947.1651, 723.7082
947.6472, 722.7768
948.1293, 721.9769
948.6115, 722.1319
949.0936, 723.1329
949.5757, 724.0613
950.0578, 724.2894
950.5399, 724.3521
951.0220, 724.0701
951.5042, 723.8543
951.9863, 725.3988
952.4684, 729.8815
952.9505, 732.8795
953.4326, 732.9776
953.9147, 731.8533
954.3969, 732.1002
954.8790, 733.6003
955.3611, 736.1504
955.8432, 739.9873
956.3253, 743.9890
956.8074, 747.4508
957.2896, 750.8521
957.7717, 754.6618
958.2538, 758.8366
958.7359, 763.6828
959.2180, 769.3370
959.7001, 774.8391
960.1823, 778.7522
960.6644, 782.1774
961.1465, 787.5064
961.6286, 794.6271
962.1107, 801.6745
962.5928, 807.4387
963.0750, 813.2522
963.5571, 819.3505
964.0392, 826.0402
964.5213, 834.8043
965.0034, 845.9523
965.4855, 856.4310
965.9677, 865.2786
966.4498, 873.3766
966.9319, 881.6375
967.4140, 890.0671
967.8961, 898.5844
968.3782, 908.1915
968.8604, 916.1530
969.3425, 921.9822
969.8246, 926.1512
970.3067, 928.7991
970.7888, 929.8527
971.2709, 930.8747
971.7531, 931.9187
972.2352, 932.3114
972.7173, 931.6364
973.1994, 929.9216
973.6815, 926.5176
974.1636, 921.6740
974.6458, 918.1702
975.1279, 917.0222
975.6100, 916.5353
976.0921, 916.3115
976.5742, 916.4035
977.0563, 916.3978
977.5385, 916.6239
978.0206, 919.2103
978.5027, 925.5040
978.9848, 933.1441
979.4669, 940.9470
979.9490, 948.7759
980.4311, 956.3367
980.9132, 962.3740
981.3953, 970.9973
981.8774, 982.6454
982.3596, 995.7194
982.8417, 1008.618
983.3238, 1021.752
983.8059, 1035.623
984.2880, 1050.430
984.7701, 1067.536
985.2523, 1088.087
985.7344, 1110.767
986.2165, 1135.184
986.6986, 1161.171
987.1807, 1188.276
987.6628, 1216.003
988.1450, 1246.303
988.6271, 1279.654
989.1092, 1315.965
989.5913, 1355.282
990.0734, 1397.430
990.5555, 1442.279
991.0377, 1489.477
991.5198, 1539.270
992.0019, 1590.459
992.4840, 1644.907
992.9661, 1703.625
993.4482, 1766.576
993.9304, 1835.527
994.4125, 1911.133
994.8946, 1991.184
995.3767, 2074.585
995.8588, 2163.363
996.3409, 2261.437
996.8231, 2366.937
997.3052, 2473.214
997.7873, 2580.249
998.2694, 2687.417
998.7515, 2795.403
999.2336, 2902.385
999.7158, 3004.730
1000.198, 3101.337
1000.680, 3186.753
1001.162, 3258.339
1001.644, 3320.109
1002.126, 3369.433
1002.608, 3411.783
1003.091, 3449.101
1003.573, 3479.174
1004.055, 3519.652
1004.537, 3570.459
1005.019, 3633.611
1005.501, 3709.385
1005.983, 3799.341
1006.465, 3910.750
1006.948, 4041.103
1007.430, 4184.940
1007.912, 4343.171
1008.394, 4510.017
1008.876, 4687.670
1009.358, 4868.509
1009.840, 5044.880
1010.322, 5216.143
1010.804, 5362.915
1011.287, 5486.119
1011.769, 5567.073
1012.251, 5593.577
1012.733, 5566.114
1013.215, 5483.725
1013.697, 5342.556
1014.179, 5151.922
1014.661, 4902.490
1015.143, 4629.489
1015.626, 4344.381
1016.108, 4053.769
1016.590, 3772.164
1017.072, 3503.155
1017.554, 3250.760
1018.036, 3013.930
1018.518, 2798.269
1019.000, 2610.946
1019.483, 2447.241
1019.965, 2300.640
1020.447, 2171.546
1020.929, 2055.769
1021.411, 1952.839
1021.893, 1859.860
1022.375, 1774.716
1022.857, 1697.499
1023.339, 1628.946
1023.822, 1568.982
1024.304, 1514.681
1024.786, 1466.470
1025.268, 1423.216
1025.750, 1385.938
1026.232, 1353.086
1026.714, 1320.286
1027.196, 1288.221
1027.679, 1260.600
1028.161, 1240.152
1028.643, 1221.404
1029.125, 1200.291
1029.607, 1179.099
1030.089, 1160.274
1030.571, 1143.954
1031.053, 1129.352
1031.536, 1116.456
1032.018, 1104.669
1032.500, 1093.971
1032.982, 1083.829
1033.464, 1072.957
1033.946, 1061.850
1034.428, 1052.241
1034.910, 1045.616
1035.392, 1039.647
1035.875, 1034.436
1036.357, 1028.987
1036.839, 1020.785
1037.321, 1010.319
1037.803, 1003.027
1038.285, 1000.083
1038.767, 997.6602
1039.249, 992.4904
1039.731, 986.6650
1040.214, 981.6738
1040.696, 977.6788
1041.178, 974.9954
1041.660, 974.0443
1042.142, 972.7997
1042.624, 969.8660
1043.106, 966.6599
1043.588, 966.1511
1044.071, 967.2695
1044.553, 967.5571
1045.035, 965.0306
1045.517, 963.3267
1045.999, 963.1254
1046.481, 963.9814
1046.963, 965.5745
1047.445, 967.9022
1047.927, 971.1846
1048.410, 975.4084
1048.892, 979.0735
1049.374, 980.9578
1049.856, 982.0481
1050.338, 982.2957
1050.820, 982.2640
1051.302, 984.0945
1051.784, 988.1520
1052.266, 992.7743
1052.749, 997.5153
1053.231, 1003.025
1053.713, 1010.948
1054.195, 1019.941
1054.677, 1027.875
1055.159, 1034.051
1055.641, 1040.712
1056.123, 1049.058
1056.606, 1057.370
1057.088, 1065.020
1057.570, 1072.011
1058.052, 1078.964
1058.534, 1085.432
1059.016, 1088.636
1059.498, 1086.366
1059.980, 1081.648
1060.463, 1075.642
1060.945, 1068.602
1061.427, 1060.918
1061.909, 1052.753
1062.391, 1043.349
1062.873, 1032.427
1063.355, 1022.216
1063.837, 1014.957
1064.319, 1009.416
1064.802, 1004.072
1065.284, 998.9242
1065.766, 994.3622
1066.248, 990.3575
1066.730, 987.2697
1067.212, 985.5242
1067.694, 984.2345
1068.176, 981.5518
1068.658, 977.9050
1069.141, 974.9833
1069.623, 973.1691
1070.105, 971.7199
1070.587, 969.6166
1071.069, 968.3323
1071.551, 969.1810
1072.033, 971.9316
1072.515, 973.4229
1072.998, 973.5831
1073.480, 973.8944
1073.962, 974.5801
1074.444, 976.3104
1074.926, 980.4132
1075.408, 985.8287
1075.890, 990.8623
1076.372, 995.0587
1076.854, 999.0121
1077.337, 1002.446
1077.819, 1006.347
1078.301, 1012.089
1078.783, 1018.697
1079.265, 1022.878
1079.747, 1025.328
1080.229, 1029.879
1080.711, 1039.808
1081.193, 1050.084
1081.676, 1058.953
1082.158, 1067.721
1082.640, 1078.561
1083.122, 1091.287
1083.604, 1104.487
1084.086, 1118.066
1084.568, 1130.644
1085.050, 1139.526
1085.532, 1148.389
1086.015, 1161.578
1086.497, 1178.173
1086.979, 1189.054
1087.461, 1194.023
1087.943, 1194.628
1088.425, 1191.148
1088.907, 1184.105
1089.389, 1173.493
1089.872, 1160.056
1090.354, 1144.533
1090.836, 1125.788
1091.318, 1108.464
1091.800, 1092.609
1092.282, 1078.312
1092.764, 1065.843
1093.246, 1054.880
1093.729, 1043.978
1094.211, 1033.559
1094.693, 1025.607
1095.175, 1022.550
1095.657, 1019.808
1096.139, 1015.983
1096.621, 1011.985
1097.103, 1008.773
1097.585, 1006.321
1098.068, 1004.059
1098.550, 1001.980
1099.032, 1000.740
1099.514, 1001.803
1099.996, 1002.971
1100.478, 1002.643
1100.960, 1001.164
1101.442, 999.8821
1101.924, 998.6903
1102.407, 998.4031
1102.889, 999.3038
1103.371, 1000.554
1103.853, 1000.987
1104.335, 1002.554
1104.817, 1002.725
1105.299, 1005.363
1105.781, 1007.460
1106.264, 1008.852
1106.746, 1009.738
1107.228, 1010.046
1107.710, 1010.080
1108.192, 1010.406
1108.674, 1010.971
1109.156, 1011.688
1109.638, 1012.596
1110.120, 1013.463
1110.603, 1014.041
1111.085, 1014.802
1111.567, 1016.249
1112.049, 1018.197
1112.531, 1019.299
1113.013, 1019.653
1113.495, 1019.937
1113.977, 1020.521
1114.459, 1021.125
1114.942, 1021.370
1115.424, 1021.724
1115.906, 1022.981
1116.388, 1025.318
1116.870, 1026.427
1117.352, 1026.141
1117.834, 1026.065
1118.316, 1027.906
1118.799, 1030.111
1119.281, 1031.275
1119.763, 1031.636
1120.245, 1032.432
1120.727, 1033.857
1121.209, 1034.944
1121.691, 1035.329
1122.173, 1036.075
1122.656, 1039.157
1123.138, 1042.976
1123.620, 1045.308
1124.102, 1045.858
1124.584, 1046.278
1125.066, 1046.698
1125.548, 1047.196
1126.030, 1047.658
1126.512, 1048.420
1126.995, 1050.516
1127.477, 1053.402
1127.959, 1055.750
1128.441, 1057.162
1128.923, 1058.432
1129.405, 1059.587
1129.887, 1060.957
1130.369, 1062.914
1130.851, 1065.188
1131.334, 1066.238
1131.816, 1066.391
1132.298, 1067.304
1132.780, 1070.268
1133.262, 1073.175
1133.744, 1074.992
1134.226, 1076.326
1134.708, 1077.592
1135.191, 1078.729
1135.673, 1080.930
1136.155, 1084.165
1136.637, 1086.946
1137.119, 1088.109
1137.601, 1088.760
1138.083, 1088.925
1138.565, 1089.414
1139.047, 1091.952
1139.530, 1097.241
1140.012, 1100.933
1140.494, 1102.591
1140.976, 1103.499
1141.458, 1104.430
1141.940, 1105.442
1142.422, 1106.794
1142.904, 1108.322
1143.386, 1109.074
1143.869, 1108.595
1144.351, 1108.452
1144.833, 1108.705
1145.315, 1110.048
1145.797, 1114.456
1146.279, 1119.955
1146.761, 1123.784
1147.243, 1125.584
1147.726, 1126.482
1148.208, 1125.818
1148.690, 1126.141
1149.172, 1128.554
1149.654, 1131.867
1150.136, 1133.696
1150.618, 1134.682
1151.100, 1136.170
1151.583, 1138.556
1152.065, 1140.929
1152.547, 1143.013
1153.029, 1145.121
1153.511, 1147.670
1153.993, 1150.162
1154.475, 1150.044
1154.957, 1148.423
1155.439, 1149.268
1155.922, 1155.906
1156.404, 1161.218
1156.886, 1161.248
1157.368, 1160.362
1157.850, 1161.349
1158.332, 1164.015
1158.814, 1166.665
1159.296, 1169.239
1159.778, 1171.301
1160.261, 1171.556
1160.743, 1172.499
1161.225, 1175.868
1161.707, 1180.101
1162.189, 1183.843
1162.671, 1187.100
1163.153, 1188.475
1163.635, 1187.997
1164.118, 1187.736
1164.600, 1189.067
1165.082, 1191.086
1165.564, 1193.503
1166.046, 1196.132
1166.528, 1198.786
1167.010, 1201.583
1167.492, 1203.273
1167.974, 1203.718
1168.457, 1203.906
1168.939, 1203.872
1169.421, 1204.627
1169.903, 1207.820
1170.385, 1212.624
1170.867, 1215.189
1171.349, 1215.062
1171.831, 1215.473
1172.313, 1216.982
1172.796, 1218.859
1173.278, 1220.068
1173.760, 1222.707
1174.242, 1224.143
1174.724, 1228.092
1175.206, 1231.595
1175.688, 1234.710
1176.170, 1236.699
1176.653, 1237.059
1177.135, 1237.143
1177.617, 1238.300
1178.099, 1240.359
1178.581, 1243.351
1179.063, 1247.409
1179.545, 1250.821
1180.027, 1253.502
1180.510, 1255.591
1180.992, 1257.045
1181.474, 1258.014
1181.956, 1258.107
1182.438, 1258.133
1182.920, 1259.573
1183.402, 1263.354
1183.884, 1265.783
1184.366, 1266.119
1184.849, 1266.896
1185.331, 1269.760
1185.813, 1273.422
1186.295, 1275.308
1186.777, 1276.257
1187.259, 1277.920
1187.741, 1281.749
1188.223, 1283.608
1188.705, 1282.272
1189.188, 1281.484
1189.670, 1283.974
1190.152, 1288.467
1190.634, 1292.907
1191.116, 1297.095
1191.598, 1300.569
1192.080, 1303.091
1192.562, 1304.765
1193.045, 1305.061
1193.527, 1305.702
1194.009, 1308.662
1194.491, 1312.767
1194.973, 1314.922
1195.455, 1315.722
1195.937, 1317.267
1196.419, 1321.501
1196.901, 1324.668
1197.384, 1325.950
1197.866, 1326.898
1198.348, 1329.412
1198.830, 1332.662
1199.312, 1334.291
1199.794, 1334.615
1200.276, 1335.602
1200.758, 1339.083
1201.240, 1341.748
1201.723, 1343.023
1202.205, 1343.556
1202.687, 1343.367
1203.169, 1343.253
1203.651, 1345.692
1204.133, 1350.514
1204.615, 1354.858
1205.097, 1356.928
1205.580, 1359.566
1206.062, 1363.827
1206.544, 1368.030
1207.026, 1368.680
1207.508, 1367.555
1207.990, 1369.692
1208.472, 1375.368
1208.954, 1379.786
1209.437, 1379.947
1209.919, 1380.209
1210.401, 1381.448
1210.883, 1383.431
1211.365, 1385.805
1211.847, 1388.626
1212.329, 1392.394
1212.811, 1397.194
1213.293, 1401.526
1213.776, 1405.724
1214.258, 1408.092
1214.740, 1407.575
1215.222, 1405.834
1215.704, 1405.305
1216.186, 1406.259
1216.668, 1410.135
1217.150, 1417.592
1217.632, 1422.861
1218.115, 1422.832
1218.597, 1422.672
1219.079, 1423.935
1219.561, 1426.159
1220.043, 1428.543
1220.525, 1431.171
1221.007, 1434.498
1221.489, 1438.899
1221.972, 1442.096
1222.454, 1442.576
1222.936, 1443.727
1223.418, 1447.225
1223.900, 1451.747
1224.382, 1454.593
1224.864, 1456.265
1225.346, 1457.711
1225.828, 1459.014
1226.311, 1460.730
1226.793, 1463.019
1227.275, 1465.525
1227.757, 1468.282
1228.239, 1470.932
1228.721, 1472.544
1229.203, 1473.533
1229.685, 1474.488
1230.167, 1474.906
1230.650, 1477.963
1231.132, 1485.255
1231.614, 1491.560
1232.096, 1493.794
1232.578, 1493.876
1233.060, 1495.024
1233.542, 1496.906
1234.024, 1498.874
1234.507, 1500.689
1234.989, 1502.732
1235.471, 1504.692
1235.953, 1507.831
1236.435, 1513.955
1236.917, 1520.553
1237.399, 1523.026
1237.881, 1523.048
1238.364, 1523.538
1238.846, 1525.218
1239.328, 1527.201
1239.810, 1529.394
1240.292, 1532.286
1240.774, 1536.806
1241.256, 1541.588
1241.738, 1544.348
1242.220, 1546.253
1242.703, 1549.695
1243.185, 1556.259
1243.667, 1560.054
1244.149, 1560.555
1244.631, 1561.172
1245.113, 1564.620
1245.595, 1568.753
1246.077, 1571.073
1246.559, 1572.373
1247.042, 1574.086
1247.524, 1576.373
1248.006, 1578.860
1248.488, 1581.601
1248.970, 1583.912
1249.452, 1584.477
1249.934, 1585.332
1250.416, 1589.188
1250.899, 1594.088
1251.381, 1596.795
1251.863, 1596.737
1252.345, 1597.711
1252.827, 1599.761
1253.309, 1602.285
1253.791, 1605.039
1254.273, 1607.935
1254.755, 1611.080
1255.238, 1614.199
1255.720, 1616.780
1256.202, 1618.750
1256.684, 1621.318
1257.166, 1624.439
1257.648, 1627.520
1258.130, 1630.590
1258.612, 1633.064
1259.094, 1633.603
1259.577, 1634.144
1260.059, 1636.743
1260.541, 1641.323
1261.023, 1647.270
1261.505, 1654.267
1261.987, 1659.962
1262.469, 1662.762
1262.951, 1664.340
1263.434, 1664.343
1263.916, 1664.471
1264.398, 1666.852
1264.880, 1670.819
1265.362, 1673.016
1265.844, 1673.797
1266.326, 1675.563
1266.808, 1680.775
1267.291, 1684.935
1267.773, 1686.857
1268.255, 1688.330
1268.737, 1690.859
1269.219, 1694.417
1269.701, 1699.913
1270.183, 1706.587
1270.665, 1711.537
1271.147, 1712.423
1271.630, 1713.673
1272.112, 1715.553
1272.594, 1717.948
1273.076, 1721.331
1273.558, 1724.787
1274.040, 1726.359
1274.522, 1729.851
1275.004, 1732.713
1275.486, 1734.619
1275.969, 1738.084
1276.451, 1738.632
1276.933, 1739.289
1277.415, 1741.920
1277.897, 1746.535
1278.379, 1755.176
1278.861, 1765.366
1279.343, 1770.855
1279.825, 1770.547
1280.308, 1770.045
1280.790, 1769.543
1281.272, 1770.389
1281.754, 1774.382
1282.236, 1779.229
1282.718, 1784.216
1283.200, 1788.493
1283.682, 1790.459
1284.165, 1790.002
1284.647, 1791.507
1285.129, 1795.032
1285.611, 1798.555
1286.093, 1800.952
1286.575, 1802.962
1287.057, 1804.547
1287.539, 1806.269
1288.021, 1808.836
1288.504, 1812.088
1288.986, 1815.392
1289.468, 1818.685
1289.950, 1821.794
1290.432, 1824.437
1290.914, 1827.217
1291.396, 1830.359
1291.878, 1833.518
1292.360, 1836.208
1292.843, 1838.771
1293.325, 1842.474
1293.807, 1844.766
1294.289, 1850.209
1294.771, 1850.459
1295.253, 1852.230
1295.735, 1855.894
1296.217, 1860.457
1296.700, 1865.877
1297.182, 1871.080
1297.664, 1874.234
1298.146, 1875.856
1298.628, 1877.611
1299.110, 1879.817
1299.592, 1883.021
1300.074, 1887.407
1300.557, 1890.605
1301.039, 1889.387
1301.521, 1887.878
1302.003, 1889.916
1302.485, 1893.818
1302.967, 1897.483
1303.449, 1902.014
##END=



