##NAMES=Yangite
##RRUFFID=R090031
##IDEAL CHEMISTRY=Pb^2+^Mn^2+^Si_3_O_8_&#183;H_2_O
##LOCALITY=Kombat, Namibia
##OWNER=RRUFF
##SOURCE=William W. Pinch
##DESCRIPTION=Colorless to pale brown bladed crystals associated with black massive melanotekite, R090032, and brown rhodochrosite. Sample is from the John Innes collection. Type sample.
##STATUS=The identification of this mineral is confirmed by single-crystal X-ray diffraction and chemical analysis.
##URL=rruff.info/R090031
##MEASURED CHEMISTRY=Pb_1.00_Mn_1.00_Si_3.00_O_8.00_Â·H_2_O
92.37695, 439.1879
92.85907, 440.9915
93.34119, 441.1519
93.82330, 435.6276
94.30542, 427.8626
94.78754, 420.1190
95.26965, 413.0930
95.75177, 406.6221
96.23389, 401.3711
96.71600, 396.4366
97.19812, 391.1372
97.68024, 385.3229
98.16235, 379.7189
98.64447, 375.1773
99.12659, 371.6507
99.60870, 368.3892
100.0908, 365.9844
100.5729, 364.6649
101.0551, 364.3004
101.5372, 364.6064
102.0193, 365.9091
102.5014, 370.2831
102.9835, 378.4607
103.4656, 389.3896
103.9478, 403.5771
104.4299, 420.4307
104.9120, 439.2183
105.3941, 459.6850
105.8762, 482.4397
106.3583, 501.2142
106.8405, 517.1463
107.3226, 529.1870
107.8047, 535.5916
108.2868, 536.5670
108.7689, 535.3008
109.2510, 534.8525
109.7332, 535.2352
110.2153, 536.2927
110.6974, 536.8281
111.1795, 538.2886
111.6616, 543.0300
112.1437, 551.8485
112.6259, 563.5068
113.1080, 576.7155
113.5901, 591.2672
114.0722, 606.8225
114.5543, 623.4418
115.0364, 641.1259
115.5185, 658.3559
116.0007, 673.6033
116.4828, 689.3051
116.9649, 706.9543
117.4470, 726.7205
117.9291, 748.2545
118.4112, 771.0628
118.8934, 794.4743
119.3755, 820.9721
119.8576, 849.7239
120.3397, 881.6677
120.8218, 917.3076
121.3039, 956.8766
121.7861, 1000.682
122.2682, 1050.083
122.7503, 1105.499
123.2324, 1167.131
123.7145, 1243.510
124.1966, 1324.925
124.6788, 1401.832
125.1609, 1472.146
125.6430, 1531.119
126.1251, 1536.491
126.6072, 1483.625
127.0893, 1398.259
127.5715, 1275.621
128.0536, 1122.598
128.5357, 969.4003
129.0178, 832.3657
129.4999, 714.8295
129.9821, 617.0954
130.4642, 543.0441
130.9463, 486.0180
131.4284, 440.4825
131.9105, 407.1102
132.3926, 381.4647
132.8748, 362.6767
133.3569, 348.8404
133.8390, 338.0317
134.3211, 329.9579
134.8032, 324.3572
135.2853, 320.2990
135.7674, 318.2489
136.2496, 317.3340
136.7317, 317.0464
137.2138, 317.3753
137.6959, 318.3344
138.1780, 320.0513
138.6601, 322.5919
139.1423, 325.2110
139.6244, 328.2586
140.1065, 331.0982
140.5886, 333.4098
141.0707, 335.2256
141.5528, 336.8725
142.0350, 338.8340
142.5171, 341.7027
142.9992, 343.1993
143.4813, 342.5360
143.9634, 341.3186
144.4455, 340.4550
144.9277, 340.2170
145.4098, 340.4620
145.8919, 340.9760
146.3740, 341.7981
146.8561, 342.8734
147.3382, 343.8999
147.8204, 345.2749
148.3025, 347.4732
148.7846, 350.6699
149.2667, 354.7489
149.7488, 359.6970
150.2309, 365.5537
150.7131, 371.7700
151.1952, 378.5378
151.6773, 385.5977
152.1594, 391.9092
152.6415, 396.7003
153.1236, 400.9426
153.6058, 406.3843
154.0879, 413.4761
154.5700, 420.3143
155.0521, 424.9056
155.5342, 427.1109
156.0163, 429.8284
156.4985, 434.2237
156.9806, 439.5888
157.4627, 445.4649
157.9448, 451.7601
158.4269, 458.4779
158.9090, 465.8309
159.3912, 474.2095
159.8733, 482.1613
160.3554, 489.6109
160.8375, 496.4143
161.3196, 502.6596
161.8017, 508.4197
162.2839, 513.2548
162.7660, 515.7935
163.2481, 515.0661
163.7302, 512.9734
164.2123, 509.2796
164.6944, 504.6405
165.1766, 499.8016
165.6587, 495.1544
166.1408, 490.6656
166.6229, 485.9729
167.1050, 481.0902
167.5871, 475.9916
168.0693, 470.0569
168.5514, 463.8849
169.0335, 458.5259
169.5156, 454.6669
169.9977, 452.2779
170.4798, 450.8758
170.9620, 450.7200
171.4441, 451.0603
171.9262, 451.4508
172.4083, 451.9818
172.8904, 453.0596
173.3725, 454.7653
173.8547, 457.4059
174.3368, 461.7725
174.8189, 468.7756
175.3010, 476.8796
175.7831, 484.3769
176.2652, 491.1573
176.7474, 499.4370
177.2295, 511.4857
177.7116, 526.3867
178.1937, 541.6874
178.6758, 556.4459
179.1579, 571.5143
179.6401, 588.0413
180.1222, 605.7053
180.6043, 625.7196
181.0864, 649.2950
181.5685, 675.4671
182.0506, 702.9371
182.5328, 732.1923
183.0149, 762.1693
183.4970, 790.6786
183.9791, 821.3473
184.4612, 843.6378
184.9433, 856.3541
185.4255, 859.0277
185.9076, 850.5714
186.3897, 828.9001
186.8718, 794.7877
187.3539, 757.3766
187.8360, 713.2402
188.3182, 668.9643
188.8003, 624.9247
189.2824, 582.1990
189.7645, 542.2818
190.2466, 506.5044
190.7287, 474.7530
191.2109, 446.7839
191.6930, 423.2586
192.1751, 402.6035
192.6572, 384.8919
193.1393, 369.8619
193.6214, 356.9760
194.1036, 345.9220
194.5857, 336.7097
195.0678, 329.1702
195.5499, 323.4266
196.0320, 318.7682
196.5141, 315.2343
196.9963, 312.6097
197.4784, 310.2813
197.9605, 307.7062
198.4426, 304.8327
198.9247, 302.1491
199.4068, 299.3208
199.8890, 296.9037
200.3711, 295.4968
200.8532, 295.0654
201.3353, 294.7711
201.8174, 293.7719
202.2995, 292.0192
202.7817, 290.7115
203.2638, 289.9417
203.7459, 289.6057
204.2280, 289.5567
204.7101, 289.7702
205.1922, 290.4859
205.6744, 292.4868
206.1565, 295.3903
206.6386, 297.2273
207.1207, 296.9747
207.6028, 295.6866
208.0849, 295.1469
208.5671, 295.9253
209.0492, 295.7405
209.5313, 291.5656
210.0134, 284.9865
210.4955, 279.3085
210.9776, 276.6988
211.4598, 275.6867
211.9419, 272.7805
212.4240, 267.1385
212.9061, 261.2913
213.3882, 256.4528
213.8703, 252.4847
214.3525, 249.1986
214.8346, 246.2973
215.3167, 244.0099
215.7988, 243.3566
216.2809, 245.1458
216.7630, 247.4438
217.2451, 249.3400
217.7273, 251.0799
218.2094, 253.0815
218.6915, 255.5308
219.1736, 258.4484
219.6557, 261.9885
220.1378, 266.6186
220.6200, 271.3346
221.1021, 275.6242
221.5842, 279.7899
222.0663, 284.3694
222.5484, 289.7173
223.0305, 295.7759
223.5127, 302.0060
223.9948, 308.5083
224.4769, 315.0451
224.9590, 321.7211
225.4411, 328.4083
225.9232, 334.7970
226.4054, 340.6459
226.8875, 346.0324
227.3696, 352.3691
227.8517, 359.6943
228.3338, 367.9433
228.8159, 377.5775
229.2981, 388.1122
229.7802, 398.7146
230.2623, 408.9226
230.7444, 418.7571
231.2265, 428.1717
231.7086, 436.5378
232.1908, 445.1954
232.6729, 454.8054
233.1550, 464.9677
233.6371, 474.8391
234.1192, 483.8336
234.6013, 492.1625
235.0835, 501.4414
235.5656, 512.5440
236.0477, 523.5058
236.5298, 533.2966
237.0119, 542.4773
237.4940, 552.6365
237.9762, 564.9278
238.4583, 578.5751
238.9404, 589.9196
239.4225, 599.5723
239.9046, 606.8334
240.3867, 611.0287
240.8689, 612.5901
241.3510, 612.3983
241.8331, 610.6695
242.3152, 607.6357
242.7973, 603.9559
243.2794, 598.7607
243.7616, 594.3744
244.2437, 591.3293
244.7258, 589.8209
245.2079, 590.5899
245.6900, 594.2913
246.1721, 600.1586
246.6543, 606.4009
247.1364, 612.7425
247.6185, 619.9980
248.1006, 628.5294
248.5827, 638.2789
249.0648, 649.0771
249.5470, 660.6949
250.0291, 673.8245
250.5112, 689.0090
250.9933, 706.2530
251.4754, 725.1877
251.9576, 746.5212
252.4397, 769.6744
252.9218, 792.6183
253.4039, 814.2379
253.8860, 836.1367
254.3681, 859.9916
254.8503, 885.8188
255.3324, 911.8862
255.8145, 938.9905
256.2966, 966.0680
256.7787, 988.0115
257.2608, 1005.084
257.7430, 1014.318
258.2251, 1015.746
258.7072, 1009.329
259.1893, 994.6353
259.6714, 969.9577
260.1535, 936.2883
260.6357, 898.0402
261.1178, 852.8268
261.5999, 806.6829
262.0820, 762.1297
262.5641, 719.4706
263.0462, 679.5582
263.5284, 642.3394
264.0105, 608.1940
264.4926, 578.5225
264.9747, 554.1404
265.4568, 533.9261
265.9389, 516.8976
266.4211, 502.9178
266.9032, 491.8604
267.3853, 483.8238
267.8674, 478.6234
268.3495, 475.5460
268.8316, 475.3146
269.3138, 476.3512
269.7959, 477.7451
270.2780, 479.8465
270.7601, 483.2201
271.2422, 488.2318
271.7243, 494.6486
272.2065, 501.6086
272.6886, 508.7835
273.1707, 517.1417
273.6528, 526.8654
274.1349, 537.7247
274.6170, 549.6465
275.0992, 562.8023
275.5813, 576.3700
276.0634, 588.2145
276.5455, 597.9921
277.0276, 606.5619
277.5097, 615.7350
277.9919, 623.2662
278.4740, 627.3407
278.9561, 627.3146
279.4382, 623.2908
279.9203, 615.3118
280.4024, 602.8983
280.8846, 587.1407
281.3667, 567.9060
281.8488, 546.2572
282.3309, 522.3860
282.8130, 496.5731
283.2951, 470.0453
283.7773, 444.4937
284.2594, 419.9072
284.7415, 396.4546
285.2236, 373.3334
285.7057, 351.7202
286.1878, 332.2268
286.6700, 315.0412
287.1521, 299.9655
287.6342, 286.9048
288.1163, 276.3693
288.5984, 266.2714
289.0805, 256.4600
289.5627, 247.2044
290.0448, 238.3999
290.5269, 230.2089
291.0090, 223.1553
291.4911, 217.8674
291.9732, 214.5307
292.4554, 210.7163
292.9375, 205.2787
293.4196, 200.4948
293.9017, 197.3199
294.3838, 195.4026
294.8659, 193.9240
295.3481, 192.3478
295.8302, 190.6662
296.3123, 188.8569
296.7944, 186.1352
297.2765, 184.1414
297.7586, 183.5908
298.2408, 183.9031
298.7229, 184.1763
299.2050, 183.8939
299.6871, 183.3116
300.1692, 183.4296
300.6513, 185.1472
301.1335, 186.5160
301.6156, 186.7695
302.0977, 186.8324
302.5798, 187.8401
303.0619, 190.2225
303.5440, 193.3376
304.0262, 195.8847
304.5083, 197.6174
304.9904, 199.0391
305.4725, 199.9917
305.9546, 200.7647
306.4367, 201.2748
306.9189, 201.6375
307.4010, 202.5524
307.8831, 205.1792
308.3652, 210.7254
308.8473, 214.7931
309.3294, 215.9965
309.8116, 217.1091
310.2937, 219.9826
310.7758, 224.5777
311.2579, 229.5346
311.7400, 233.4062
312.2221, 235.9505
312.7043, 239.3834
313.1864, 244.1133
313.6685, 249.1969
314.1506, 254.1015
314.6327, 259.0502
315.1148, 264.6025
315.5970, 271.1160
316.0791, 278.5958
316.5612, 287.1369
317.0433, 297.3998
317.5254, 308.0596
318.0075, 318.7128
318.4897, 329.6014
318.9718, 341.4208
319.4539, 354.5926
319.9360, 368.3062
320.4181, 380.0882
320.9002, 388.5157
321.3824, 396.4295
321.8645, 404.3441
322.3466, 411.6352
322.8287, 417.5376
323.3108, 421.8035
323.7929, 425.1457
324.2751, 428.6587
324.7572, 431.9987
325.2393, 436.2970
325.7214, 441.6279
326.2035, 447.7283
326.6856, 454.4177
327.1678, 461.6874
327.6499, 469.6509
328.1320, 478.3194
328.6141, 487.3826
329.0962, 498.9998
329.5783, 514.5233
330.0605, 530.9366
330.5426, 546.6590
331.0247, 562.1811
331.5068, 578.7322
331.9889, 597.1412
332.4710, 617.4467
332.9532, 640.3098
333.4353, 666.4358
333.9174, 694.8069
334.3995, 727.1865
334.8816, 761.1761
335.3637, 794.2795
335.8459, 825.1438
336.3280, 853.0062
336.8101, 874.9752
337.2922, 892.9111
337.7743, 900.9320
338.2564, 900.0814
338.7386, 889.4659
339.2206, 866.3282
339.7028, 830.5784
340.1849, 787.6935
340.6670, 744.9226
341.1491, 700.5829
341.6312, 661.1038
342.1133, 626.0710
342.5955, 595.6542
343.0776, 570.3467
343.5597, 549.9259
344.0418, 533.6169
344.5239, 520.8967
345.0060, 511.8339
345.4882, 505.1241
345.9703, 501.6346
346.4524, 499.9163
346.9345, 500.2340
347.4166, 502.0342
347.8987, 504.4365
348.3809, 506.8632
348.8630, 509.5405
349.3451, 513.4070
349.8272, 519.3171
350.3093, 525.2233
350.7914, 530.4477
351.2736, 535.6057
351.7557, 541.4012
352.2378, 548.0869
352.7199, 555.0768
353.2020, 561.3111
353.6841, 566.4987
354.1663, 571.7988
354.6484, 578.8449
355.1305, 584.9044
355.6126, 588.3145
356.0947, 588.9645
356.5768, 587.7764
357.0590, 585.5865
357.5411, 582.4333
358.0232, 577.8614
358.5053, 572.0225
358.9874, 564.3601
359.4695, 554.5504
359.9517, 542.8932
360.4338, 529.9330
360.9159, 515.6970
361.3980, 500.5828
361.8801, 485.6603
362.3622, 471.3267
362.8444, 456.4387
363.3265, 439.7268
363.8086, 422.6616
364.2907, 406.6674
364.7728, 392.0763
365.2549, 378.7423
365.7371, 366.6591
366.2192, 355.8731
366.7013, 345.4354
367.1834, 334.8592
367.6655, 324.8422
368.1476, 316.1607
368.6298, 308.7294
369.1119, 301.4098
369.5940, 292.9753
370.0761, 283.8377
370.5582, 276.2539
371.0403, 271.1640
371.5225, 266.2836
372.0046, 259.5547
372.4867, 251.8318
372.9688, 245.0535
373.4509, 240.4748
373.9330, 236.9590
374.4152, 232.8427
374.8973, 228.0706
375.3794, 223.2662
375.8615, 218.4563
376.3436, 213.9861
376.8257, 210.3438
377.3079, 207.6853
377.7900, 205.5698
378.2721, 203.6558
378.7542, 202.0025
379.2363, 200.9652
379.7184, 200.8625
380.2006, 201.0428
380.6827, 200.4395
381.1648, 199.0501
381.6469, 198.3493
382.1290, 199.3434
382.6111, 201.0835
383.0933, 202.0515
383.5754, 202.0300
384.0575, 202.2769
384.5396, 203.9704
385.0217, 206.9416
385.5038, 209.5150
385.9860, 211.3897
386.4681, 213.0738
386.9502, 214.9451
387.4323, 216.8966
387.9144, 218.7552
388.3965, 220.6623
388.8787, 222.0521
389.3608, 221.2437
389.8429, 217.9565
390.3250, 213.6366
390.8071, 208.1638
391.2892, 201.9880
391.7714, 195.4487
392.2535, 188.6698
392.7356, 182.0038
393.2177, 175.8769
393.6998, 170.3259
394.1819, 165.3337
394.6641, 161.2130
395.1462, 157.2916
395.6283, 152.9196
396.1104, 148.3951
396.5925, 144.7252
397.0746, 142.5992
397.5568, 141.7806
398.0389, 140.8881
398.5210, 139.8523
399.0031, 138.8329
399.4852, 137.5478
399.9673, 136.4209
400.4495, 135.8642
400.9316, 136.0201
401.4137, 136.8175
401.8958, 138.2679
402.3779, 140.8628
402.8600, 142.7515
403.3422, 142.5499
403.8243, 142.9749
404.3064, 145.9660
404.7885, 150.9249
405.2706, 155.7418
405.7527, 158.6696
406.2349, 160.0410
406.7170, 162.4039
407.1991, 166.4353
407.6812, 170.5267
408.1633, 174.5525
408.6454, 178.3186
409.1276, 181.4662
409.6097, 183.8387
410.0918, 186.0756
410.5739, 189.1554
411.0560, 193.1741
411.5381, 197.4669
412.0203, 202.1607
412.5024, 206.9174
412.9845, 211.4037
413.4666, 215.6952
413.9487, 220.2471
414.4308, 225.3715
414.9130, 230.9934
415.3951, 236.7724
415.8772, 242.5603
416.3593, 248.8770
416.8414, 256.3351
417.3235, 264.4036
417.8057, 272.3873
418.2878, 280.0194
418.7699, 287.7397
419.2520, 296.3927
419.7341, 305.8083
420.2162, 314.3814
420.6984, 321.6513
421.1805, 327.7457
421.6626, 332.8893
422.1447, 337.1855
422.6268, 340.3962
423.1089, 343.1158
423.5911, 344.4155
424.0732, 342.9362
424.5553, 338.5355
425.0374, 331.9815
425.5195, 323.5459
426.0016, 313.2845
426.4838, 302.4756
426.9659, 290.1921
427.4480, 278.3618
427.9301, 268.1793
428.4122, 259.0824
428.8943, 249.7560
429.3765, 239.5838
429.8586, 229.5674
430.3407, 221.4758
430.8228, 216.0742
431.3049, 211.1906
431.7870, 206.9672
432.2692, 203.1653
432.7513, 199.6725
433.2334, 196.4604
433.7155, 193.4894
434.1976, 190.7789
434.6797, 188.3050
435.1619, 185.6394
435.6440, 182.4740
436.1261, 179.4577
436.6082, 176.6173
437.0903, 174.0162
437.5724, 171.7630
438.0546, 169.8888
438.5367, 168.1968
439.0188, 166.3432
439.5009, 164.1899
439.9830, 162.3256
440.4651, 160.9541
440.9473, 159.6932
441.4294, 158.2863
441.9115, 156.8365
442.3936, 155.6919
442.8757, 155.2092
443.3578, 155.1271
443.8400, 154.5947
444.3221, 153.5641
444.8042, 152.1868
445.2863, 150.0472
445.7684, 147.8338
446.2505, 146.1806
446.7327, 145.2173
447.2148, 144.7392
447.6969, 144.8248
448.1790, 145.3375
448.6611, 145.4337
449.1432, 144.7606
449.6254, 144.0966
450.1075, 144.2345
450.5896, 144.9462
451.0717, 145.5703
451.5538, 145.7311
452.0359, 145.8741
452.5181, 146.4716
453.0002, 147.4732
453.4823, 148.4543
453.9644, 149.0978
454.4465, 149.7569
454.9286, 151.3821
455.4108, 154.3117
455.8929, 156.9493
456.3750, 158.6470
456.8571, 160.0243
457.3392, 161.6391
457.8214, 163.6141
458.3035, 166.0644
458.7856, 169.1717
459.2677, 172.9518
459.7498, 176.5172
460.2319, 180.0129
460.7141, 183.1748
461.1962, 185.5046
461.6783, 187.5929
462.1604, 190.3748
462.6425, 194.1837
463.1246, 198.3434
463.6068, 201.6168
464.0889, 203.3998
464.5710, 205.8569
465.0531, 209.5534
465.5352, 213.3476
466.0173, 216.7923
466.4995, 219.8909
466.9816, 222.7824
467.4637, 225.5122
467.9458, 228.1590
468.4279, 230.9885
468.9100, 234.0541
469.3922, 237.1946
469.8743, 240.8743
470.3564, 244.3171
470.8385, 246.7210
471.3206, 247.9827
471.8027, 248.9706
472.2849, 250.6773
472.7670, 252.7141
473.2491, 253.4940
473.7312, 252.6749
474.2133, 251.1769
474.6954, 249.6547
475.1776, 247.9293
475.6597, 245.5294
476.1418, 242.1935
476.6239, 238.4081
477.1060, 234.4530
477.5881, 230.3341
478.0703, 225.8762
478.5524, 220.9777
479.0345, 216.0378
479.5166, 211.7301
479.9987, 208.2206
480.4808, 204.5196
480.9630, 200.7882
481.4451, 196.6888
481.9272, 191.5481
482.4093, 185.7791
482.8914, 180.6839
483.3735, 177.0646
483.8557, 174.5534
484.3378, 171.8171
484.8199, 168.7800
485.3020, 165.6039
485.7841, 161.9262
486.2662, 158.3630
486.7484, 155.2954
487.2305, 152.8122
487.7126, 150.9481
488.1947, 149.8901
488.6768, 149.5531
489.1589, 148.5175
489.6411, 146.1240
490.1232, 144.0734
490.6053, 142.9083
491.0874, 142.3084
491.5695, 141.8210
492.0516, 141.2868
492.5338, 141.2755
493.0159, 142.5960
493.4980, 145.1124
493.9801, 147.6769
494.4622, 150.4328
494.9443, 152.6284
495.4265, 152.8258
495.9086, 151.8718
496.3907, 152.2459
496.8728, 155.4614
497.3549, 159.4136
497.8370, 162.2672
498.3192, 164.3339
498.8013, 166.7946
499.2834, 170.1121
499.7655, 173.9557
500.2476, 177.7974
500.7297, 181.5003
501.2119, 185.7380
501.6940, 190.8995
502.1761, 196.3217
502.6582, 201.6404
503.1403, 206.8150
503.6224, 211.9656
504.1045, 217.1787
504.5866, 222.3913
505.0688, 227.3835
505.5509, 231.8415
506.0330, 236.6132
506.5151, 241.9754
506.9972, 247.4892
507.4793, 252.9075
507.9615, 258.1720
508.4436, 263.2609
508.9257, 268.0240
509.4078, 272.6098
509.8899, 277.7691
510.3720, 283.7119
510.8542, 289.8048
511.3363, 295.8807
511.8184, 301.9551
512.3005, 308.2696
512.7827, 314.9614
513.2648, 320.9182
513.7469, 324.9752
514.2290, 327.6592
514.7111, 330.5259
515.1932, 333.7791
515.6754, 337.2546
516.1575, 341.4845
516.6396, 345.8525
517.1217, 347.8331
517.6038, 345.9160
518.0859, 343.2394
518.5681, 341.5498
519.0502, 339.9581
519.5323, 337.0071
520.0144, 332.2709
520.4965, 326.1310
520.9786, 318.9972
521.4608, 310.8141
521.9429, 301.8332
522.4250, 291.1144
522.9071, 280.6389
523.3892, 271.2113
523.8713, 262.4831
524.3535, 253.9040
524.8356, 245.3006
525.3177, 236.7036
525.7998, 228.0915
526.2819, 219.2090
526.7640, 211.6570
527.2462, 206.2171
527.7283, 201.5369
528.2104, 197.0807
528.6925, 192.8586
529.1746, 188.9454
529.6567, 185.4076
530.1389, 182.1405
530.6210, 179.1537
531.1031, 176.4221
531.5852, 173.4483
532.0673, 169.9346
532.5494, 166.3737
533.0316, 163.4626
533.5137, 161.1687
533.9958, 158.6773
534.4779, 155.5580
534.9600, 152.4101
535.4421, 149.6333
535.9243, 147.2188
536.4064, 145.0164
536.8885, 142.9798
537.3706, 141.0593
537.8527, 139.1917
538.3348, 137.4997
538.8170, 135.5627
539.2991, 133.2354
539.7812, 130.8235
540.2633, 128.2153
540.7454, 125.6577
541.2275, 123.7237
541.7097, 122.8347
542.1918, 122.5541
542.6739, 121.7434
543.1560, 120.2746
543.6381, 118.6633
544.1202, 116.6160
544.6024, 114.7888
545.0845, 113.7513
545.5666, 113.3838
546.0487, 113.0044
546.5308, 112.3907
547.0129, 111.4718
547.4951, 109.9217
547.9772, 107.7624
548.4593, 106.0065
548.9414, 105.2392
549.4235, 104.9133
549.9056, 103.9778
550.3878, 102.3080
550.8699, 100.9191
551.3520, 100.2489
551.8341, 99.74986
552.3162, 98.91343
552.7983, 97.81492
553.2805, 96.89339
553.7626, 96.42416
554.2447, 96.20399
554.7268, 95.60600
555.2089, 94.14317
555.6910, 93.18240
556.1732, 93.14277
556.6553, 93.21529
557.1374, 92.92578
557.6195, 92.29635
558.1016, 91.56982
558.5837, 90.87251
559.0659, 90.20859
559.5480, 89.51878
560.0301, 88.74148
560.5122, 88.36987
560.9943, 89.04826
561.4764, 89.69913
561.9586, 89.12249
562.4407, 87.40309
562.9228, 85.88145
563.4049, 85.22964
563.8870, 84.89212
564.3691, 84.18460
564.8513, 83.20713
565.3334, 82.62360
565.8155, 82.79369
566.2976, 83.34347
566.7797, 83.59047
567.2618, 83.51585
567.7440, 83.11053
568.2261, 81.80660
568.7082, 80.69913
569.1903, 80.76645
569.6724, 81.53149
570.1545, 81.69681
570.6367, 80.52216
571.1188, 78.81601
571.6009, 78.43959
572.0830, 79.85660
572.5651, 80.82473
573.0472, 81.07558
573.5294, 80.81921
574.0115, 79.90134
574.4936, 78.56792
574.9757, 77.45541
575.4578, 76.83789
575.9399, 76.53310
576.4221, 76.39275
576.9042, 76.39971
577.3863, 76.47179
577.8684, 76.60670
578.3505, 76.73666
578.8326, 76.75330
579.3148, 76.64355
579.7969, 76.67764
580.2790, 77.02921
580.7611, 77.35291
581.2432, 77.47095
581.7253, 77.45223
582.2075, 77.42276
582.6896, 77.42597
583.1717, 77.42661
583.6538, 77.43192
584.1359, 77.51069
584.6180, 77.06923
585.1002, 75.04993
585.5823, 73.79194
586.0643, 74.67062
586.5464, 76.45000
587.0286, 77.41325
587.5107, 77.02791
587.9928, 76.41165
588.4749, 76.68772
588.9570, 77.63384
589.4391, 78.47906
589.9213, 79.22220
590.4034, 79.47526
590.8855, 78.76585
591.3676, 77.36736
591.8497, 76.34685
592.3318, 75.64005
592.8140, 75.38693
593.2961, 75.93530
593.7782, 76.79053
594.2603, 77.46183
594.7424, 77.85906
595.2245, 78.00906
595.7067, 77.86755
596.1888, 77.55692
596.6709, 77.81136
597.1530, 79.06695
597.6351, 80.14320
598.1172, 80.88543
598.5994, 81.41867
599.0815, 81.63886
599.5636, 81.67607
600.0457, 82.04203
600.5278, 83.25671
601.0099, 84.87725
601.4921, 85.87106
601.9742, 86.22142
602.4563, 87.29681
602.9384, 89.98159
603.4205, 93.03651
603.9026, 94.49332
604.3848, 94.32341
604.8669, 94.56779
605.3490, 95.37435
605.8311, 96.80740
606.3132, 99.18568
606.7953, 102.1915
607.2775, 105.0644
607.7596, 107.5058
608.2417, 110.1254
608.7238, 113.8850
609.2059, 119.0075
609.6880, 124.1399
610.1702, 128.3899
610.6523, 133.7292
611.1344, 141.2735
611.6165, 150.0757
612.0986, 158.8024
612.5807, 167.0750
613.0629, 175.3611
613.5450, 184.3583
614.0271, 193.6688
614.5092, 202.0066
614.9913, 209.1607
615.4734, 215.9849
615.9556, 222.9125
616.4377, 230.0330
616.9198, 237.7511
617.4019, 246.3747
617.8840, 254.9786
618.3661, 263.5167
618.8483, 271.9089
619.3304, 279.4865
619.8125, 286.7016
620.2946, 295.0603
620.7767, 305.5257
621.2589, 317.8488
621.7410, 331.3277
622.2231, 346.3299
622.7052, 361.3920
623.1873, 375.6443
623.6694, 390.6050
624.1516, 407.7031
624.6337, 426.1680
625.1158, 443.7442
625.5979, 459.7626
626.0800, 474.1278
626.5621, 487.2529
627.0443, 498.5867
627.5264, 506.4466
628.0085, 510.6421
628.4906, 509.8191
628.9727, 502.5635
629.4548, 488.8691
629.9370, 469.9330
630.4191, 443.6064
630.9012, 415.7201
631.3833, 386.1874
631.8654, 356.3072
632.3475, 326.6866
632.8297, 297.7700
633.3118, 270.4300
633.7939, 245.3268
634.2760, 222.5587
634.7581, 203.3700
635.2402, 188.1374
635.7224, 175.0643
636.2045, 164.5384
636.6866, 155.2882
637.1687, 145.7865
637.6508, 136.1340
638.1329, 127.7048
638.6151, 121.1070
639.0972, 115.7366
639.5793, 111.5564
640.0614, 108.2074
640.5435, 104.6976
641.0256, 100.6916
641.5078, 96.86121
641.9899, 94.21377
642.4720, 92.93857
642.9541, 91.28570
643.4362, 88.63892
643.9183, 86.33286
644.4005, 84.85296
644.8826, 83.77158
645.3647, 82.60306
645.8468, 81.25703
646.3289, 79.98990
646.8110, 79.18095
647.2932, 78.58454
647.7753, 77.43221
648.2574, 75.67746
648.7395, 74.36510
649.2216, 74.25093
649.7037, 74.45056
650.1859, 73.14405
650.6680, 69.74161
651.1501, 67.56327
651.6322, 67.52067
652.1143, 68.11476
652.5964, 68.96156
653.0786, 69.69793
653.5607, 69.73399
654.0428, 68.87067
654.5249, 67.61746
655.0070, 66.52509
655.4891, 65.57714
655.9713, 65.31966
656.4534, 66.10450
656.9355, 66.89613
657.4176, 67.34207
657.8997, 67.45760
658.3818, 67.11669
658.8640, 66.22224
659.3461, 65.51070
659.8282, 65.46524
660.3103, 65.67229
660.7924, 65.80931
661.2745, 65.78751
661.7567, 65.29660
662.2388, 64.13048
662.7209, 62.79940
663.2030, 62.32330
663.6851, 63.07237
664.1672, 63.45907
664.6494, 63.11514
665.1315, 62.80433
665.6136, 62.77272
666.0957, 62.93188
666.5778, 63.15372
667.0599, 63.40508
667.5421, 63.68147
668.0242, 63.96769
668.5063, 64.27810
668.9884, 64.67126
669.4705, 65.15110
669.9526, 65.63365
670.4348, 66.11054
670.9169, 66.50460
671.3990, 66.61049
671.8811, 66.20019
672.3632, 66.07024
672.8453, 66.42505
673.3275, 66.87472
673.8096, 67.15052
674.2917, 67.38337
674.7738, 67.92706
675.2559, 68.90693
675.7380, 69.83872
676.2202, 69.83303
676.7023, 69.05704
677.1844, 69.37993
677.6665, 71.22744
678.1486, 72.94604
678.6307, 73.54218
679.1129, 73.57698
679.5950, 74.10938
680.0771, 75.21275
680.5592, 76.47010
681.0413, 77.82198
681.5234, 79.24934
682.0056, 80.72879
682.4877, 82.27061
682.9698, 83.95129
683.4519, 85.79504
683.9340, 87.61928
684.4161, 89.06874
684.8983, 90.06734
685.3804, 91.54794
685.8625, 93.68378
686.3446, 95.99040
686.8267, 98.21252
687.3088, 100.5061
687.7910, 103.1810
688.2731, 106.3146
688.7552, 109.1858
689.2373, 111.2230
689.7194, 113.0341
690.2015, 115.2708
690.6837, 117.8417
691.1658, 120.2927
691.6479, 122.4353
692.1300, 124.4693
692.6121, 126.6781
693.0942, 129.0046
693.5764, 131.8491
694.0585, 135.6807
694.5406, 139.3879
695.0227, 142.6033
695.5048, 145.5746
695.9869, 148.6472
696.4691, 151.8496
696.9512, 154.7997
697.4333, 157.2376
697.9154, 159.3281
698.3975, 161.5394
698.8796, 163.6942
699.3618, 164.7815
699.8439, 164.3574
700.3260, 163.3408
700.8081, 162.9932
701.2902, 163.4590
701.7723, 163.2188
702.2545, 162.0668
702.7366, 160.4302
703.2187, 158.4200
703.7008, 155.9377
704.1829, 152.7497
704.6650, 148.9245
705.1472, 144.8798
705.6293, 140.8229
706.1114, 136.8018
706.5935, 132.9912
707.0756, 129.3531
707.5577, 125.5405
708.0399, 121.4082
708.5220, 117.2424
709.0041, 113.2206
709.4862, 109.3404
709.9683, 106.4466
710.4504, 105.8231
710.9326, 104.4237
711.4147, 100.8906
711.8968, 97.00607
712.3789, 94.42211
712.8610, 93.06190
713.3431, 91.76324
713.8253, 89.67622
714.3074, 87.51357
714.7895, 86.48508
715.2716, 86.45844
715.7537, 86.51963
716.2358, 86.55014
716.7180, 86.28006
717.2001, 85.28240
717.6822, 83.76893
718.1643, 83.16514
718.6464, 84.21487
719.1285, 85.05775
719.6107, 85.37298
720.0928, 85.54430
720.5749, 85.77014
721.0570, 86.09959
721.5391, 86.54713
722.0212, 87.11124
722.5034, 87.84167
722.9855, 88.90078
723.4676, 90.22279
723.9497, 91.32047
724.4318, 92.09370
724.9139, 92.96204
725.3961, 94.17493
725.8782, 95.66760
726.3603, 97.25465
726.8424, 99.06841
727.3245, 100.6861
727.8066, 101.6568
728.2888, 102.8604
728.7709, 105.1843
729.2530, 107.9800
729.7351, 110.0941
730.2172, 111.1297
730.6993, 111.5793
731.1815, 111.8708
731.6636, 112.0026
732.1457, 111.9523
732.6278, 111.7137
733.1099, 111.4318
733.5920, 111.3154
734.0742, 110.9367
734.5563, 109.5754
735.0384, 107.0041
735.5205, 104.5022
736.0026, 102.2738
736.4847, 99.87686
736.9669, 96.93401
737.4490, 93.86759
737.9311, 91.13815
738.4132, 88.82317
738.8953, 86.62875
739.3774, 84.17738
739.8596, 81.81330
740.3417, 80.54391
740.8238, 80.26652
741.3059, 79.20934
741.7880, 76.70738
742.2701, 74.06322
742.7523, 72.49681
743.2344, 71.95042
743.7165, 71.63377
744.1986, 71.95888
744.6807, 71.92787
745.1628, 71.23454
745.6450, 70.29385
746.1271, 69.34401
746.6092, 68.43540
747.0913, 67.53384
747.5734, 66.58609
748.0555, 65.81108
748.5377, 65.72339
749.0198, 66.06503
749.5019, 65.74836
749.9840, 64.61269
750.4661, 63.52973
750.9482, 63.00517
751.4304, 62.90165
751.9125, 62.89641
752.3946, 63.08382
752.8767, 63.14481
753.3588, 63.10506
753.8409, 62.92240
754.3231, 62.48339
754.8052, 61.93275
755.2873, 61.38933
755.7694, 60.89608
756.2515, 60.67738
756.7336, 61.17525
757.2158, 61.91842
757.6979, 62.08019
758.1800, 61.72120
758.6621, 61.24964
759.1442, 60.78616
759.6263, 60.42601
760.1085, 60.31811
760.5906, 60.46439
761.0727, 60.35791
761.5548, 59.70319
762.0369, 59.23629
762.5190, 59.09996
763.0012, 59.15181
763.4833, 59.39498
763.9654, 59.74556
764.4475, 59.94159
764.9296, 59.81182
765.4117, 59.61675
765.8939, 59.41148
766.3760, 59.34443
766.8581, 59.95070
767.3402, 61.15360
767.8223, 61.82710
768.3044, 61.18174
768.7866, 59.84826
769.2687, 59.45533
769.7508, 60.29360
770.2329, 60.99857
770.7150, 61.43353
771.1971, 61.87961
771.6793, 62.56981
772.1614, 63.29661
772.6435, 63.68112
773.1256, 63.61992
773.6077, 63.84661
774.0898, 64.83311
774.5720, 66.04472
775.0541, 67.17126
775.5362, 68.15334
776.0183, 69.03233
776.5004, 69.77473
776.9825, 69.99273
777.4647, 69.04338
777.9468, 67.34708
778.4289, 67.19633
778.9110, 68.92867
779.3931, 70.38732
779.8752, 70.92595
780.3574, 71.25166
780.8395, 71.95910
781.3216, 72.99698
781.8037, 74.06136
782.2858, 75.23277
782.7679, 76.30213
783.2501, 77.14194
783.7322, 77.92280
784.2143, 78.68841
784.6964, 79.52598
785.1785, 80.64227
785.6606, 82.14936
786.1428, 83.74758
786.6249, 85.08888
787.1070, 86.20692
787.5891, 87.23673
788.0712, 88.17967
788.5533, 88.94545
789.0355, 89.30981
789.5176, 89.89841
789.9997, 91.84009
790.4818, 95.51964
790.9639, 98.14915
791.4460, 99.24597
791.9282, 99.96005
792.4103, 100.3727
792.8924, 100.6421
793.3745, 100.9474
793.8566, 101.2602
794.3387, 101.3795
794.8209, 101.2666
795.3030, 100.8313
795.7851, 100.0416
796.2672, 98.84643
796.7493, 96.92374
797.2314, 94.32631
797.7136, 91.92870
798.1957, 90.31344
798.6778, 89.18013
799.1599, 87.87052
799.6420, 86.43117
800.1241, 84.55949
800.6063, 81.82932
801.0884, 79.31297
801.5705, 77.64402
802.0526, 76.41289
802.5347, 75.12192
803.0168, 73.71187
803.4990, 72.60943
803.9811, 72.32930
804.4632, 71.98661
804.9453, 70.81087
805.4274, 69.31569
805.9095, 68.18436
806.3917, 67.59647
806.8738, 67.54422
807.3559, 68.21319
807.8380, 69.07818
808.3201, 68.75404
808.8022, 67.30436
809.2844, 66.31644
809.7665, 66.13326
810.2486, 66.05717
810.7307, 65.59008
811.2128, 64.88278
811.6949, 64.42222
812.1771, 64.48006
812.6592, 64.22810
813.1413, 63.18922
813.6234, 62.37499
814.1055, 62.39145
814.5876, 62.82328
815.0698, 63.19231
815.5519, 63.37793
816.0340, 63.25433
816.5161, 62.22776
816.9982, 61.24925
817.4803, 61.72557
817.9625, 63.13655
818.4446, 64.16492
818.9267, 64.48595
819.4088, 64.23476
819.8909, 63.41199
820.3730, 62.33371
820.8552, 62.27897
821.3373, 63.60382
821.8194, 64.34745
822.3015, 64.02634
822.7836, 63.56710
823.2657, 63.64441
823.7479, 63.92022
824.2300, 63.63215
824.7121, 62.49635
825.1942, 61.83904
825.6763, 62.62116
826.1584, 63.21719
826.6406, 62.22228
827.1227, 60.66111
827.6048, 60.20802
828.0869, 61.08261
828.5690, 62.01157
829.0511, 61.98744
829.5333, 61.46657
830.0154, 61.08310
830.4975, 60.88140
830.9796, 61.14708
831.4617, 61.94482
831.9438, 62.93123
832.4260, 63.92420
832.9081, 64.80854
833.3902, 65.20712
833.8723, 64.86311
834.3544, 64.71455
834.8365, 65.15471
835.3187, 65.28608
835.8008, 64.29032
836.2829, 63.06404
836.7650, 62.89499
837.2471, 63.92430
837.7292, 64.58200
838.2114, 63.73839
838.6935, 63.03660
839.1756, 63.93524
839.6577, 65.40558
840.1398, 65.90025
840.6219, 65.32710
841.1041, 64.66486
841.5862, 64.55305
842.0683, 64.75082
842.5504, 64.85972
843.0325, 64.89785
843.5146, 64.95780
843.9968, 65.03873
844.4789, 65.31284
844.9610, 65.95054
845.4431, 66.66494
845.9252, 66.91531
846.4073, 66.60587
846.8895, 66.31829
847.3716, 66.18409
847.8537, 65.89262
848.3358, 65.05682
848.8179, 64.27885
849.3000, 64.15540
849.7822, 64.61065
850.2643, 65.07749
850.7464, 65.35867
851.2285, 65.64570
851.7106, 66.16549
852.1927, 66.67226
852.6749, 66.77519
853.1570, 66.59336
853.6391, 66.61784
854.1212, 67.07331
854.6033, 67.61183
855.0854, 67.74885
855.5676, 67.57310
856.0497, 67.46266
856.5318, 67.41807
857.0139, 67.63110
857.4960, 68.24865
857.9781, 68.81796
858.4603, 68.81662
858.9424, 68.30266
859.4245, 67.95428
859.9066, 67.66006
860.3887, 67.72909
860.8708, 68.46697
861.3530, 69.27405
861.8351, 69.92889
862.3172, 70.40842
862.7993, 70.75807
863.2814, 71.04513
863.7635, 70.82833
864.2457, 69.27090
864.7278, 67.75895
865.2099, 67.35091
865.6920, 67.79338
866.1741, 68.77841
866.6563, 70.10693
867.1384, 71.31519
867.6205, 72.09230
868.1026, 72.44645
868.5847, 72.17017
869.0668, 71.40458
869.5490, 71.08775
870.0311, 71.36069
870.5132, 71.81237
870.9953, 72.20616
871.4774, 72.64084
871.9595, 73.35786
872.4417, 74.47605
872.9238, 75.20818
873.4059, 75.09229
873.8880, 75.33090
874.3701, 76.69498
874.8522, 78.24065
875.3344, 79.11350
875.8165, 79.41611
876.2986, 79.87492
876.7807, 80.80145
877.2628, 81.64454
877.7449, 81.71021
878.2271, 82.02808
878.7092, 84.01222
879.1913, 86.89111
879.6734, 88.65923
880.1555, 88.63790
880.6376, 88.52285
881.1198, 90.12035
881.6019, 92.56364
882.0840, 94.19580
882.5661, 95.19444
883.0482, 96.35884
883.5303, 97.90182
884.0125, 99.81331
884.4946, 102.1175
884.9767, 104.7157
885.4588, 107.2779
885.9409, 109.7827
886.4230, 112.3621
886.9052, 114.9290
887.3873, 117.7983
887.8694, 121.0988
888.3515, 124.8424
888.8336, 129.1652
889.3157, 134.1296
889.7979, 139.1355
890.2800, 143.7867
890.7621, 149.0027
891.2442, 154.7576
891.7263, 161.3989
892.2084, 169.2594
892.6906, 178.2654
893.1727, 187.9913
893.6548, 198.3524
894.1369, 209.2969
894.6190, 220.5514
895.1011, 232.5724
895.5833, 245.6169
896.0654, 259.8095
896.5475, 275.7697
897.0296, 293.4229
897.5117, 311.0326
897.9938, 326.7149
898.4760, 341.4295
898.9581, 357.8157
899.4402, 375.6803
899.9223, 392.8061
900.4044, 408.7101
900.8865, 425.3257
901.3687, 443.9483
901.8508, 463.9450
902.3329, 483.8612
902.8150, 503.5041
903.2971, 524.4297
903.7792, 546.9355
904.2614, 570.2178
904.7435, 594.1480
905.2256, 618.7412
905.7077, 643.7720
906.1898, 669.2707
906.6719, 695.2880
907.1541, 723.5703
907.6362, 749.4160
908.1183, 773.0724
908.6004, 792.3295
909.0825, 806.2663
909.5646, 814.2812
910.0468, 815.8106
910.5289, 810.6348
911.0110, 798.8571
911.4931, 778.6036
911.9752, 753.5453
912.4573, 726.7155
912.9395, 698.1793
913.4216, 667.0334
913.9037, 633.8195
914.3858, 600.8466
914.8679, 569.4883
915.3500, 540.0637
915.8321, 512.8441
916.3142, 488.1544
916.7963, 467.8865
917.2784, 452.1536
917.7606, 439.9786
918.2427, 431.2960
918.7248, 424.9500
919.2069, 419.7266
919.6890, 415.6860
920.1711, 413.1830
920.6533, 412.4891
921.1354, 412.7884
921.6175, 415.4078
922.0996, 417.1747
922.5817, 417.1540
923.0638, 414.9224
923.5460, 409.7736
924.0281, 401.6500
924.5102, 390.9851
924.9923, 377.2789
925.4744, 361.6790
925.9565, 343.7619
926.4387, 324.7411
926.9208, 305.1438
927.4029, 285.4549
927.8850, 266.9726
928.3671, 250.0733
928.8492, 234.4757
929.3314, 219.6892
929.8135, 206.3481
930.2956, 195.2687
930.7777, 186.0900
931.2598, 178.2353
931.7419, 171.3313
932.2241, 164.7282
932.7062, 157.8689
933.1883, 151.0655
933.6704, 144.4839
934.1525, 138.4220
934.6346, 134.6344
935.1168, 133.2004
935.5989, 131.4971
936.0810, 128.2985
936.5631, 124.3888
937.0452, 120.6732
937.5273, 117.2034
938.0095, 114.9555
938.4916, 114.3107
938.9737, 113.2212
939.4558, 110.9441
939.9379, 108.8988
940.4200, 108.2606
940.9022, 108.4420
941.3843, 107.9222
941.8664, 106.3985
942.3485, 105.0959
942.8306, 104.1031
943.3127, 103.2122
943.7949, 102.2823
944.2770, 101.4982
944.7591, 101.1814
945.2412, 101.1849
945.7233, 100.8528
946.2054, 99.71076
946.6876, 98.95133
947.1697, 99.53013
947.6518, 100.1344
948.1339, 99.48014
948.6160, 98.32020
949.0981, 97.99039
949.5803, 98.68296
950.0624, 99.43401
950.5445, 99.68365
951.0266, 99.70804
951.5087, 99.60233
951.9908, 99.55305
952.4730, 99.92936
952.9551, 100.6794
953.4372, 101.4643
953.9193, 102.1430
954.4014, 102.8812
954.8835, 103.7899
955.3657, 104.9363
955.8478, 106.6071
956.3299, 108.7338
956.8120, 110.8900
957.2941, 112.9915
957.7762, 114.9706
958.2584, 116.8081
958.7405, 118.4270
959.2226, 119.5081
959.7047, 119.9639
960.1868, 121.4952
960.6689, 124.4246
961.1511, 127.1580
961.6332, 129.2315
962.1153, 130.9902
962.5974, 132.5129
963.0795, 134.0257
963.5616, 136.5596
964.0438, 140.8161
964.5259, 144.6141
965.0080, 147.5845
965.4901, 150.5727
965.9722, 153.9489
966.4543, 157.4243
966.9365, 160.8664
967.4186, 164.2026
967.9007, 166.8335
968.3828, 168.6545
968.8649, 169.8164
969.3470, 170.3830
969.8292, 170.2475
970.3113, 169.2483
970.7934, 167.5404
971.2755, 165.2993
971.7576, 162.5820
972.2397, 159.5103
972.7219, 155.4228
973.2040, 151.8562
973.6861, 150.3701
974.1682, 149.5106
974.6503, 147.3714
975.1324, 144.3614
975.6146, 141.9979
976.0967, 140.8175
976.5788, 140.2554
977.0609, 139.6849
977.5430, 139.5415
978.0251, 140.5635
978.5073, 142.4665
978.9894, 144.7780
979.4715, 147.3144
979.9536, 149.5228
980.4357, 151.0680
980.9178, 152.9686
981.4000, 157.0507
981.8821, 160.3684
982.3642, 164.4915
982.8463, 170.0529
983.3284, 174.6336
983.8105, 181.2851
984.2927, 188.6660
984.7748, 195.7299
985.2569, 204.2910
985.7390, 213.3968
986.2211, 222.6337
986.7032, 233.3583
987.1854, 244.1235
987.6675, 254.9044
988.1496, 265.5946
988.6317, 276.8871
989.1138, 289.4588
989.5959, 303.1081
990.0781, 316.8368
990.5602, 330.3745
991.0423, 344.7631
991.5244, 359.7486
992.0065, 375.9942
992.4886, 393.8530
992.9708, 413.0719
993.4529, 433.1743
993.9350, 454.1899
994.4171, 477.0604
994.8992, 501.8387
995.3813, 528.2706
995.8635, 555.8652
996.3456, 585.6238
996.8277, 619.1656
997.3098, 654.2030
997.7919, 688.5687
998.2740, 721.9626
998.7562, 753.7617
999.2383, 784.4933
999.7204, 812.4973
1000.203, 836.6862
1000.685, 858.7009
1001.167, 879.6319
1001.649, 899.1122
1002.131, 915.4934
1002.613, 928.8997
1003.095, 943.1061
1003.577, 959.0499
1004.059, 977.1356
1004.542, 996.9026
1005.024, 1019.431
1005.506, 1046.036
1005.988, 1076.193
1006.470, 1109.103
1006.952, 1144.395
1007.434, 1181.645
1007.916, 1222.232
1008.398, 1262.743
1008.881, 1301.628
1009.363, 1337.038
1009.845, 1368.135
1010.327, 1393.038
1010.809, 1409.015
1011.291, 1414.725
1011.773, 1407.659
1012.255, 1385.050
1012.738, 1348.501
1013.220, 1298.364
1013.702, 1236.643
1014.184, 1165.694
1014.666, 1087.669
1015.148, 1007.456
1015.630, 927.7056
1016.112, 851.0382
1016.594, 780.4642
1017.077, 715.5948
1017.559, 654.3582
1018.041, 597.3870
1018.523, 547.7111
1019.005, 505.7762
1019.487, 468.3648
1019.969, 433.5363
1020.451, 401.7929
1020.934, 373.6207
1021.416, 348.9479
1021.898, 326.9655
1022.380, 307.6172
1022.862, 290.2780
1023.344, 274.8108
1023.826, 260.2431
1024.308, 245.7955
1024.791, 233.8030
1025.273, 221.0448
1025.755, 212.1424
1026.237, 203.4573
1026.719, 194.9558
1027.201, 186.8626
1027.683, 179.1317
1028.165, 172.2754
1028.647, 166.7737
1029.130, 162.1011
1029.612, 157.2490
1030.094, 152.1594
1030.576, 147.3869
1031.058, 142.8434
1031.540, 138.9012
1032.022, 135.7310
1032.504, 133.0085
1032.986, 130.6929
1033.469, 128.4520
1033.951, 125.3547
1034.433, 121.0574
1034.915, 118.1271
1035.397, 117.1703
1035.879, 116.2800
1036.361, 115.2446
1036.843, 113.8714
1037.326, 111.7317
1037.808, 109.3167
1038.290, 107.8728
1038.772, 107.7290
1039.254, 107.0448
1039.736, 105.3622
1040.218, 103.8666
1040.700, 102.6618
1041.182, 101.8481
1041.665, 101.7079
1042.147, 101.9664
1042.629, 101.9177
1043.111, 101.3652
1043.593, 101.3689
1044.075, 102.3385
1044.557, 103.3314
1045.039, 103.9708
1045.521, 104.7543
1046.004, 106.2574
1046.486, 108.0882
1046.968, 109.3410
1047.450, 109.8098
1047.932, 110.5291
1048.414, 111.8486
1048.896, 113.1084
1049.378, 113.9680
1049.861, 114.8719
1050.343, 116.1684
1050.825, 117.7391
1051.307, 119.2453
1051.789, 120.5788
1052.271, 122.4520
1052.753, 125.1028
1053.235, 128.1645
1053.718, 132.1502
1054.200, 135.8849
1054.682, 138.2197
1055.164, 139.7634
1055.646, 141.7546
1056.128, 144.3908
1056.610, 147.0250
1057.092, 150.6359
1057.574, 152.6683
1058.057, 151.7372
1058.539, 149.3679
1059.021, 146.2946
1059.503, 142.8251
1059.985, 139.2971
1060.467, 135.7466
1060.949, 131.9570
1061.431, 128.1022
1061.913, 123.6442
1062.396, 117.4830
1062.878, 111.4714
1063.360, 107.0961
1063.842, 103.8872
1064.324, 100.9632
1064.806, 98.17924
1065.288, 95.80059
1065.770, 94.59156
1066.253, 92.91179
1066.735, 89.50262
1067.217, 85.94673
1067.699, 83.42610
1068.181, 81.59460
1068.663, 79.60676
1069.145, 77.44917
1069.627, 76.15146
1070.109, 76.52438
1070.592, 77.09619
1071.074, 77.32656
1071.556, 77.38052
1072.038, 77.52023
1072.520, 77.49104
1073.002, 76.76781
1073.484, 75.41904
1073.966, 74.21901
1074.448, 73.30577
1074.931, 72.90173
1075.413, 73.45570
1075.895, 74.20155
1076.377, 74.53818
1076.859, 74.75182
1077.341, 75.34908
1077.823, 76.26958
1078.305, 76.94770
1078.788, 77.12590
1079.270, 77.26009
1079.752, 77.35183
1080.234, 77.70415
1080.716, 78.68472
1081.198, 79.92789
1081.680, 80.98491
1082.162, 81.88813
1082.644, 82.95359
1083.127, 84.26852
1083.609, 85.77980
1084.091, 87.83942
1084.573, 89.67189
1085.055, 90.81735
1085.537, 91.48608
1086.019, 92.01614
1086.501, 92.26847
1086.984, 91.78167
1087.466, 90.40576
1087.948, 88.65185
1088.430, 86.92027
1088.912, 84.63279
1089.394, 81.15118
1089.876, 77.26351
1090.358, 73.51716
1090.840, 70.01940
1091.323, 66.67350
1091.805, 63.46008
1092.287, 61.25248
1092.769, 61.40966
1093.251, 61.23750
1093.733, 58.99323
1094.215, 56.57533
1094.697, 55.62909
1095.179, 55.48245
1095.662, 54.94597
1096.144, 53.84992
1096.626, 52.57784
1097.108, 50.76966
1097.590, 49.55075
1098.072, 49.64737
1098.554, 50.05639
1099.036, 50.55346
1099.519, 50.72884
1100.001, 49.70914
1100.483, 47.77772
1100.965, 46.88841
1101.447, 48.23823
1101.929, 48.99598
1102.411, 47.85986
1102.893, 46.66695
1103.375, 46.21651
1103.858, 46.19244
1104.340, 46.37613
1104.822, 46.65781
1105.304, 46.79636
1105.786, 46.77765
1106.268, 46.54857
1106.750, 46.11745
1107.232, 45.45018
1107.714, 44.25208
1108.197, 43.07507
1108.679, 42.17472
1109.161, 41.67280
1109.643, 41.94152
1110.125, 43.17822
1110.607, 43.96963
1111.089, 43.99406
1111.571, 43.83562
1112.054, 43.55813
1112.536, 43.17173
1113.018, 42.60454
1113.500, 41.96721
1113.982, 41.33314
1114.464, 40.69922
1114.946, 40.55149
1115.428, 41.64250
1115.911, 41.95265
1116.393, 40.80705
1116.875, 39.65757
1117.357, 38.92698
1117.839, 38.62334
1118.321, 38.98592
1118.803, 39.81149
1119.285, 39.82640
1119.767, 40.07663
1120.250, 40.70095
1120.732, 39.92068
1121.214, 41.27560
1121.696, 40.83928
1122.178, 40.05672
1122.660, 40.17723
1123.142, 40.74129
1123.624, 40.48736
1124.106, 39.25016
1124.589, 38.42469
1125.071, 37.93703
1125.553, 38.28489
1126.035, 39.97716
1126.517, 41.18451
1126.999, 40.66589
1127.481, 39.40997
1127.963, 38.98866
1128.446, 39.31831
1128.928, 39.44883
1129.410, 39.37418
1129.892, 39.10646
1130.374, 38.61061
1130.856, 38.26970
1131.338, 38.29567
1131.820, 38.16524
1132.302, 37.19348
1132.785, 35.89117
1133.267, 36.15775
1133.749, 37.83842
1134.231, 38.22142
1134.713, 37.23685
1135.195, 36.72344
1135.677, 37.18967
1136.159, 37.73342
1136.641, 37.69418
1137.124, 37.44351
1137.606, 37.49394
1138.088, 37.88525
1138.570, 39.29296
1139.052, 41.24356
1139.534, 41.16129
1140.016, 38.94723
1140.498, 36.83214
1140.981, 35.87142
1141.463, 35.83051
1141.945, 36.87166
1142.427, 38.16394
1142.909, 38.07149
1143.391, 37.20011
1143.873, 36.67900
1144.355, 36.63597
1144.838, 37.28020
1145.320, 38.48309
1145.802, 39.07749
1146.284, 38.13430
1146.766, 36.76316
1147.248, 35.78112
1147.730, 35.26540
1148.212, 35.47790
1148.694, 36.13884
1149.177, 36.99061
1149.659, 37.80894
1150.141, 38.05843
1150.623, 37.48688
1151.105, 36.83861
1151.587, 36.43652
1152.069, 36.27512
1152.551, 36.59393
1153.033, 36.94269
1153.516, 36.78614
1153.998, 36.32471
1154.480, 36.02388
1154.962, 35.96620
1155.444, 35.94477
1155.926, 35.71923
1156.408, 35.77711
1156.890, 36.78531
1157.373, 37.52266
1157.855, 36.87592
1158.337, 35.88298
1158.819, 36.01567
1159.301, 36.98222
1159.783, 36.97382
1160.265, 35.08688
1160.747, 34.24287
1161.229, 35.33954
1161.712, 36.49096
1162.194, 37.83617
1162.676, 38.45526
1163.158, 37.27624
1163.640, 35.30313
1164.122, 34.26836
1164.604, 34.17285
1165.086, 34.94887
1165.568, 37.25538
1166.051, 38.34572
1166.533, 37.60147
1167.015, 36.65849
1167.497, 36.09226
1167.979, 35.89669
1168.461, 36.15626
1168.943, 36.65266
1169.425, 36.73885
1169.908, 36.41645
1170.390, 35.25727
1170.872, 33.21379
1171.354, 32.61338
1171.836, 34.02244
1172.318, 35.45966
1172.800, 35.73594
1173.282, 35.32279
1173.765, 34.65969
1174.247, 34.00381
1174.729, 34.34356
1175.211, 35.34138
1175.693, 35.83843
1176.175, 35.75600
1176.657, 35.25906
1177.139, 34.48343
1177.621, 34.03078
1178.104, 34.38832
1178.586, 35.09613
1179.068, 35.96594
1179.550, 36.56348
1180.032, 35.86780
1180.514, 34.65128
1180.996, 34.39122
1181.478, 35.05393
1181.960, 35.71876
1182.443, 36.06200
1182.925, 36.09160
1183.407, 35.52919
1183.889, 35.00941
1184.371, 35.01090
1184.853, 35.13338
1185.335, 34.95921
1185.817, 34.69426
1186.300, 34.74903
1186.782, 35.12488
1187.264, 35.42172
1187.746, 35.66321
1188.228, 35.59870
1188.710, 34.52283
1189.192, 33.99812
1189.674, 35.34156
1190.156, 36.71760
1190.639, 36.34079
1191.121, 37.14047
1191.603, 37.24725
1192.085, 36.71319
1192.567, 37.06137
1193.049, 35.57359
1193.531, 34.87370
1194.013, 35.49860
1194.495, 36.16453
1194.978, 36.36021
1195.460, 36.27086
1195.942, 36.02127
1196.424, 35.74737
1196.906, 35.97730
1197.388, 36.66523
1197.870, 36.79047
1198.352, 36.35343
1198.835, 35.50094
1199.317, 34.33551
1199.799, 33.98662
1200.281, 35.06946
1200.763, 35.93498
1201.245, 34.16392
1201.727, 31.66781
1202.209, 32.11248
1202.692, 34.35989
1203.174, 36.71878
1203.656, 38.57812
1204.138, 38.69995
1204.620, 37.12178
1205.102, 35.39852
1205.584, 34.20320
1206.066, 33.67001
1206.548, 34.33321
1207.031, 35.20134
1207.513, 35.73888
1207.995, 35.88835
1208.477, 35.31857
1208.959, 34.45221
1209.441, 34.23994
1209.923, 34.79503
1210.405, 35.00275
1210.887, 34.28337
1211.370, 33.69973
1211.852, 33.41216
1212.334, 33.30012
1212.816, 33.40571
1213.298, 33.57891
1213.780, 33.67990
1214.262, 33.76995
1214.744, 34.04512
1215.227, 34.55358
1215.709, 34.70922
1216.191, 34.45556
1216.673, 34.04471
1217.155, 33.45827
1217.637, 32.96391
1218.119, 32.66900
1218.601, 32.58501
1219.083, 32.74942
1219.566, 33.07000
1220.048, 33.33148
1220.530, 33.54824
1221.012, 33.83089
1221.494, 34.14045
1221.976, 34.37703
1222.458, 34.46091
1222.940, 33.92147
1223.422, 32.58905
1223.905, 31.68991
1224.387, 32.63654
1224.869, 34.00021
1225.351, 34.22900
1225.833, 34.00735
1226.315, 34.21912
1226.797, 34.55550
1227.279, 34.15646
1227.762, 33.23499
1228.244, 33.16755
1228.726, 34.60618
1229.208, 35.53013
1229.690, 34.85693
1230.172, 34.11417
1230.654, 33.49855
1231.136, 33.34636
1231.619, 34.34500
1232.101, 35.61161
1232.583, 35.94313
1233.065, 35.46681
1233.547, 34.96445
1234.029, 34.21819
1234.511, 34.30964
1234.993, 35.62731
1235.475, 36.27722
1235.958, 35.73603
1236.440, 34.84953
1236.922, 34.02443
1237.404, 33.58709
1237.886, 34.11838
1238.368, 35.18156
1238.850, 35.41407
1239.332, 34.98145
1239.814, 34.44384
1240.297, 33.89777
1240.779, 33.48850
1241.261, 33.26379
1241.743, 33.35669
1242.225, 33.86901
1242.707, 34.10725
1243.189, 32.85018
1243.671, 31.73029
1244.154, 32.54348
1244.636, 33.98988
1245.118, 34.83244
1245.600, 35.17194
1246.082, 35.41963
1246.564, 35.58489
1247.046, 35.30178
1247.528, 34.21747
1248.010, 33.48304
1248.493, 33.26701
1248.975, 33.46605
1249.457, 34.46828
1249.939, 35.31672
1250.421, 35.37809
1250.903, 35.14267
1251.385, 35.36713
1251.867, 35.84733
1252.349, 35.20038
1252.832, 33.24773
1253.314, 32.72473
1253.796, 33.75998
1254.278, 34.24717
1254.760, 33.73128
1255.242, 33.33589
1255.724, 33.67384
1256.206, 34.31038
1256.689, 34.90028
1257.171, 35.25222
1257.653, 34.79253
1258.135, 35.00788
1258.617, 34.01159
1259.099, 34.35786
1259.581, 33.94545
1260.063, 32.98668
1260.546, 33.01627
1261.028, 34.62568
1261.510, 36.56490
1261.992, 39.67617
1262.474, 41.03011
1262.956, 37.56356
1263.438, 34.11367
1263.920, 34.18336
1264.402, 35.55857
1264.885, 35.38487
1265.367, 34.19397
1265.849, 34.04430
1266.331, 35.21548
1266.813, 35.53620
1267.295, 34.75930
1267.777, 34.40593
1268.259, 34.79691
1268.741, 34.75610
1269.224, 33.73257
1269.706, 32.78132
1270.188, 32.91848
1270.670, 33.65017
1271.152, 34.13841
1271.634, 34.47680
1272.116, 35.04616
1272.598, 35.58571
1273.081, 35.25681
1273.563, 34.32530
1274.045, 33.85513
1274.527, 34.13319
1275.009, 34.60144
1275.491, 35.08681
1275.973, 35.46140
1276.455, 35.73235
1276.938, 35.79481
1277.420, 35.36248
1277.902, 34.90966
1278.384, 34.95055
1278.866, 35.23569
1279.348, 35.17855
1279.830, 34.80651
1280.312, 34.93093
1280.794, 34.54812
1281.276, 35.82288
1281.759, 34.31887
1282.241, 33.58263
1282.723, 34.24873
1283.205, 35.04958
1283.687, 35.22712
1284.169, 35.09594
1284.651, 35.02114
1285.133, 34.97233
1285.616, 34.89273
1286.098, 34.77922
##END=



