##NAMES=Yedlinite
##RRUFFID=R050338
##IDEAL CHEMISTRY=Pb^2+^_6_Cr^3+^Cl_6_O(OH)_7_
##LOCALITY=Tiger, Pinal County, Arizona, USA
##OWNER=RRUFF
##SOURCE=University of Arizona Mineral Museum
##DESCRIPTION=Pale purple prismatic crystals associated with blue diaboleite
##STATUS=The identification of this mineral is confirmed by single-crystal X-ray diffraction and chemical analysis.
##URL=rruff.info/R050338
##MEASURED CHEMISTRY=Pb_6_Cr_0.99_Cl_6.01_(OH)_7_O
187.0630, 9829.357
188.9914, 9807.434
190.9199, 9809.670
192.8484, 9840.487
194.7768, 9883.063
196.7053, 9893.511
198.6338, 9871.712
200.5622, 9869.234
202.4907, 9919.363
204.4192, 9949.043
206.3476, 9933.643
208.2761, 9891.973
210.2046, 9828.291
212.1330, 9753.125
214.0615, 9702.475
215.9900, 9675.060
217.9184, 9686.488
219.8469, 9789.025
221.7754, 9873.817
223.7038, 9885.768
225.6323, 9856.137
227.5608, 9829.068
229.4892, 9804.714
231.4177, 9783.275
233.3462, 9754.661
235.2746, 9753.679
237.2031, 9809.083
239.1315, 9868.373
241.0600, 9899.389
242.9885, 9908.439
244.9169, 9907.304
246.8454, 9895.873
248.7739, 9894.267
250.7023, 9911.044
252.6308, 9930.390
254.5593, 9948.027
256.4878, 9967.747
258.4162, 9995.852
260.3447, 10027.83
262.2732, 10053.88
264.2016, 10073.92
266.1301, 10083.75
268.0585, 10067.59
269.9870, 10060.64
271.9155, 10073.49
273.8439, 10096.91
275.7724, 10127.04
277.7009, 10160.71
279.6293, 10184.46
281.5578, 10193.05
283.4863, 10228.77
285.4147, 10323.57
287.3432, 10413.84
289.2717, 10494.87
291.2001, 10556.17
293.1286, 10568.49
295.0571, 10557.07
296.9855, 10582.08
298.9140, 10648.04
300.8425, 10730.99
302.7709, 10816.14
304.6994, 10935.22
306.6279, 11078.51
308.5563, 11273.85
310.4848, 11526.60
312.4133, 11856.75
314.3417, 12287.20
316.2702, 12916.93
318.1987, 13520.05
320.1271, 14528.35
322.0556, 15567.82
323.9841, 16721.38
325.9125, 17765.89
327.8410, 18580.72
329.7695, 19163.10
331.6979, 19552.42
333.6264, 19742.15
335.5549, 19621.10
337.4833, 19125.11
339.4118, 18396.05
341.3403, 17277.73
343.2687, 16156.33
345.1972, 15126.38
347.1257, 14258.72
349.0541, 13621.49
350.9826, 13202.99
352.9111, 12994.05
354.8395, 13052.98
356.7680, 13120.40
358.6965, 13248.93
360.6249, 13274.70
362.5534, 13069.05
364.4819, 12823.25
366.4103, 12631.00
368.3388, 12530.23
370.2673, 12650.22
372.1957, 13005.03
374.1242, 13200.56
376.0527, 13225.78
377.9811, 13047.75
379.9096, 12554.62
381.8381, 11997.90
383.7665, 11413.27
385.6950, 10882.16
387.6235, 10485.48
389.5519, 10204.20
391.4804, 9986.836
393.4088, 9840.570
395.3373, 9722.184
397.2658, 9642.292
399.1942, 9570.249
401.1227, 9504.849
403.0512, 9442.630
404.9796, 9377.909
406.9081, 9317.451
408.8366, 9268.631
410.7650, 9230.168
412.6935, 9196.858
414.6220, 9169.284
416.5504, 9143.533
418.4789, 9119.974
420.4074, 9097.894
422.3358, 9082.188
424.2643, 9063.489
426.1928, 9025.760
428.1212, 8990.138
430.0497, 8986.104
431.9782, 9008.134
433.9066, 9016.297
435.8351, 9000.327
437.7636, 8998.639
439.6920, 9023.839
441.6205, 9041.932
443.5490, 9050.912
445.4774, 9047.541
447.4059, 9025.662
449.3344, 8994.170
451.2628, 8963.529
453.1913, 8931.259
455.1198, 8881.849
457.0482, 8803.304
458.9767, 8763.494
460.9052, 8785.287
462.8336, 8797.825
464.7621, 8796.798
466.6906, 8779.448
468.6190, 8738.576
470.5475, 8686.287
472.4760, 8630.840
474.4044, 8572.782
476.3329, 8514.515
478.2614, 8456.574
480.1898, 8388.396
482.1183, 8296.524
484.0468, 8229.467
485.9753, 8198.474
487.9037, 8169.713
489.8322, 8135.538
491.7607, 8097.744
493.6891, 8061.929
495.6176, 8017.957
497.5461, 7940.820
499.4745, 7850.238
501.4030, 7814.324
503.3315, 7841.719
505.2599, 7833.625
507.1884, 7772.666
509.1169, 7736.294
511.0453, 7747.623
512.9738, 7748.770
514.9022, 7715.031
516.8307, 7672.223
518.7592, 7628.948
520.6876, 7589.853
522.6161, 7564.378
524.5446, 7546.267
526.4730, 7512.692
528.4015, 7461.527
530.3300, 7436.979
532.2584, 7446.992
534.1869, 7449.533
536.1154, 7438.590
538.0438, 7426.306
539.9723, 7411.594
541.9008, 7404.087
543.8292, 7420.729
545.7577, 7434.755
547.6862, 7417.997
549.6146, 7384.413
551.5431, 7362.283
553.4716, 7350.465
555.4000, 7337.650
557.3285, 7324.629
559.2570, 7304.396
561.1854, 7273.685
563.1139, 7248.178
565.0424, 7232.682
566.9708, 7220.068
568.8993, 7201.782
570.8278, 7193.119
572.7562, 7211.585
574.6847, 7236.305
576.6132, 7243.457
578.5416, 7238.983
580.4701, 7236.185
582.3986, 7235.385
584.3270, 7243.133
586.2555, 7260.775
588.1840, 7271.366
590.1124, 7271.668
592.0409, 7273.228
593.9694, 7282.025
595.8978, 7284.481
597.8263, 7265.301
599.7548, 7249.758
601.6832, 7255.022
603.6117, 7265.795
605.5402, 7277.429
607.4686, 7278.875
609.3971, 7234.805
611.3256, 7157.296
613.2540, 7127.741
615.1825, 7145.049
617.1110, 7136.165
619.0394, 7091.249
620.9679, 7069.266
622.8964, 7088.766
624.8248, 7103.722
626.7533, 7091.629
628.6818, 7085.930
630.6102, 7097.974
632.5387, 7121.656
634.4672, 7168.508
636.3956, 7211.448
638.3241, 7209.853
640.2526, 7185.903
642.1810, 7191.343
644.1095, 7217.918
646.0380, 7220.886
647.9664, 7201.740
649.8949, 7182.993
651.8234, 7165.774
653.7518, 7157.754
655.6803, 7164.546
657.6088, 7166.928
659.5372, 7162.292
661.4657, 7148.861
663.3942, 7117.663
665.3226, 7088.608
667.2511, 7065.933
669.1796, 7054.188
671.1080, 7068.693
673.0365, 7087.501
674.9650, 7077.469
676.8934, 7049.873
678.8219, 7028.382
680.7504, 7013.997
682.6788, 7013.079
684.6073, 7024.759
686.5358, 7029.607
688.4642, 7023.518
690.3927, 7043.533
692.3212, 7108.855
694.2496, 7149.728
696.1781, 7131.654
698.1066, 7124.263
700.0350, 7155.188
701.9634, 7183.892
703.8919, 7185.750
705.8204, 7192.369
707.7488, 7236.213
709.6773, 7282.156
711.6058, 7281.680
713.5342, 7332.146
715.4627, 7317.057
717.3912, 7389.517
719.3196, 7421.943
721.2481, 7425.277
723.1766, 7437.223
725.1050, 7458.800
727.0335, 7489.707
728.9620, 7530.876
730.8904, 7566.384
732.8189, 7590.191
734.7474, 7628.176
736.6758, 7694.045
738.6043, 7754.380
740.5328, 7795.386
742.4612, 7844.797
744.3897, 7914.683
746.3182, 7985.547
748.2466, 8047.121
750.1751, 8109.210
752.1036, 8180.086
754.0320, 8251.385
755.9605, 8308.138
757.8890, 8368.854
759.8174, 8454.130
761.7459, 8559.688
763.6744, 8674.391
765.6028, 8804.224
767.5313, 8963.552
769.4598, 9149.699
771.3882, 9355.201
773.3167, 9578.305
775.2452, 9797.721
777.1736, 10008.74
779.1021, 10264.33
781.0306, 10572.91
782.9590, 10905.55
784.8875, 11245.77
786.8160, 11646.61
788.7444, 12096.41
790.6729, 12633.29
792.6014, 13264.92
794.5298, 13978.68
796.4583, 14753.83
798.3868, 15635.64
800.3152, 16606.21
802.2437, 17733.91
804.1722, 19010.58
806.1006, 20510.11
808.0291, 22288.46
809.9576, 24303.80
811.8860, 26605.64
813.8145, 29045.43
815.7430, 31672.80
817.6714, 34182.43
819.5999, 36468.41
821.5284, 38214.38
823.4568, 38900.39
825.3853, 38601.15
827.3138, 37341.73
829.2422, 35276.67
831.1707, 32941.87
833.0992, 30375.06
835.0276, 27923.50
836.9561, 25585.76
838.8846, 23338.65
840.8130, 21165.63
842.7415, 19205.08
844.6700, 17448.52
846.5984, 15931.63
848.5269, 14685.71
850.4554, 13598.62
852.3839, 12674.38
854.3123, 11902.96
856.2408, 11313.87
858.1693, 10797.15
860.0977, 10347.42
862.0262, 9952.581
863.9547, 9613.758
865.8831, 9325.495
867.8116, 9097.159
869.7401, 8897.828
871.6685, 8728.361
873.5970, 8565.472
875.5255, 8400.889
877.4539, 8240.153
879.3824, 8076.957
881.3109, 7934.248
883.2393, 7832.397
885.1678, 7739.151
887.0963, 7634.222
889.0247, 7533.830
890.9532, 7436.925
892.8817, 7361.355
894.8101, 7337.504
896.7386, 7317.468
898.6671, 7268.117
900.5955, 7202.602
902.5240, 7128.897
904.4525, 7049.896
906.3809, 6955.969
908.3094, 6871.250
910.2379, 6832.964
912.1663, 6813.217
914.0948, 6777.088
916.0233, 6732.039
917.9517, 6685.758
919.8802, 6640.893
921.8087, 6603.361
923.7371, 6569.936
925.6656, 6524.624
927.5941, 6484.596
929.5225, 6504.001
931.4510, 6550.856
933.3795, 6550.104
935.3079, 6510.987
937.2364, 6459.803
939.1649, 6391.004
941.0933, 6263.385
943.0218, 6209.641
944.9503, 6129.190
946.8787, 6048.551
948.8071, 6000.866
950.7356, 5918.420
952.6641, 5864.007
954.5925, 5833.548
956.5210, 5814.409
958.4495, 5803.002
960.3779, 5780.356
962.3064, 5750.174
964.2349, 5742.271
966.1633, 5747.396
968.0918, 5701.251
970.0203, 5618.105
971.9487, 5579.765
973.8772, 5578.492
975.8057, 5573.582
977.7341, 5563.556
979.6626, 5537.464
981.5911, 5520.857
983.5195, 5474.691
985.4480, 5458.663
987.3765, 5416.783
989.3049, 5395.610
991.2334, 5374.995
993.1619, 5352.458
995.0903, 5344.989
997.0188, 5323.586
998.9473, 5324.960
1000.876, 5341.438
1002.804, 5336.082
1004.733, 5312.126
1006.661, 5283.815
1008.590, 5252.678
1010.518, 5224.558
1012.447, 5197.938
1014.375, 5162.651
1016.303, 5125.179
1018.232, 5108.181
1020.160, 5107.474
1022.089, 5112.582
1024.017, 5120.125
1025.946, 5123.453
1027.874, 5120.162
1029.803, 5098.500
1031.731, 5092.271
1033.660, 5057.790
1035.588, 5055.266
1037.517, 5031.519
1039.445, 4999.915
1041.374, 4985.796
1043.302, 4983.546
1045.230, 4987.067
1047.159, 4992.085
1049.087, 4998.215
1051.016, 4995.271
1052.944, 4950.455
1054.873, 4904.382
1056.801, 4926.967
1058.730, 4963.058
1060.658, 4940.985
1062.587, 4950.038
1064.515, 4910.030
1066.444, 4917.243
1068.372, 4884.142
1070.301, 4844.465
1072.229, 4821.693
1074.157, 4810.823
1076.086, 4810.649
1078.014, 4817.098
1079.943, 4841.584
1081.871, 4851.042
1083.800, 4807.483
1085.728, 4771.969
1087.657, 4790.831
1089.585, 4800.025
1091.514, 4758.777
1093.442, 4725.028
1095.371, 4722.129
1097.299, 4724.521
1099.228, 4725.399
1101.156, 4730.357
1103.084, 4743.721
1105.013, 4755.932
1106.941, 4775.771
1108.870, 4770.667
1110.798, 4719.215
1112.727, 4687.538
1114.655, 4685.235
1116.584, 4687.443
1118.512, 4693.200
1120.441, 4705.881
1122.369, 4730.735
1124.298, 4720.114
1126.226, 4725.199
1128.155, 4726.690
1130.083, 4705.862
1132.011, 4712.031
1133.940, 4689.795
1135.868, 4662.235
1137.797, 4637.692
1139.725, 4665.084
1141.654, 4708.099
1143.582, 4651.458
1145.511, 4676.989
1147.439, 4594.626
1149.368, 4661.086
1151.296, 4676.920
1153.225, 4672.706
1155.153, 4665.735
1157.082, 4669.255
1159.010, 4711.536
1160.938, 4740.001
1162.867, 4718.590
1164.795, 4690.421
1166.724, 4670.450
1168.652, 4657.869
1170.581, 4654.377
1172.509, 4652.850
1174.438, 4651.862
1176.366, 4650.896
1178.295, 4650.603
1180.223, 4642.249
1182.152, 4639.037
1184.080, 4636.278
1186.009, 4626.939
1187.937, 4630.604
1189.865, 4626.640
1191.794, 4623.693
1193.722, 4620.505
1195.651, 4605.159
1197.579, 4583.415
1199.508, 4574.124
1201.436, 4572.163
1203.365, 4570.185
1205.293, 4566.126
1207.222, 4559.127
1209.150, 4546.292
1211.079, 4516.859
1213.007, 4491.532
1214.936, 4486.706
1216.864, 4486.524
1218.792, 4484.705
1220.721, 4484.471
1222.649, 4495.527
1224.578, 4479.328
1226.506, 4414.202
1228.435, 4390.282
1230.363, 4425.908
1232.292, 4441.578
1234.220, 4430.158
1236.149, 4418.864
1238.077, 4409.679
1240.006, 4400.146
1241.934, 4393.376
1243.863, 4410.249
1245.791, 4430.564
1247.719, 4399.721
1249.648, 4359.077
1251.576, 4369.444
1253.505, 4392.204
1255.433, 4397.691
1257.362, 4392.433
1259.290, 4373.634
1261.219, 4356.524
1263.147, 4345.806
1265.076, 4341.084
1267.004, 4350.019
1268.933, 4342.358
1270.861, 4311.063
1272.790, 4287.406
1274.718, 4273.319
1276.646, 4266.936
1278.575, 4265.494
1280.503, 4251.827
1282.432, 4232.836
1284.360, 4226.521
1286.289, 4229.174
1288.217, 4243.549
1290.146, 4253.172
1292.074, 4237.794
1294.003, 4217.808
1295.931, 4201.405
1297.860, 4191.263
1299.788, 4189.733
1301.717, 4191.302
1303.645, 4204.786
1305.573, 4195.981
1307.502, 4202.624
1309.430, 4196.287
1311.359, 4186.059
1313.287, 4171.488
1315.216, 4119.941
1317.144, 4083.871
1319.073, 4064.108
1321.001, 4072.916
1322.930, 4085.922
1324.858, 4079.498
1326.786, 4070.081
1328.715, 4065.139
1330.643, 4066.043
1332.572, 4082.927
1334.500, 4080.155
1336.429, 4082.582
1338.357, 4080.246
1340.286, 4069.437
1342.214, 4073.533
1344.143, 4045.042
1346.071, 4055.066
1348.000, 4041.172
1349.928, 4060.430
1351.857, 4026.992
1353.785, 4026.088
1355.714, 4026.350
1357.642, 4004.152
1359.570, 3986.985
1361.499, 3985.520
1363.427, 3992.820
1365.356, 4012.709
1367.284, 4010.201
1369.213, 3980.036
1371.141, 3936.021
1373.070, 3889.064
1374.998, 3918.151
1376.927, 3980.312
1378.855, 3990.646
1380.784, 3974.751
1382.712, 3940.362
1384.641, 3920.571
1386.569, 3939.787
1388.497, 3953.341
1390.426, 3947.868
1392.354, 3936.791
1394.283, 3922.115
1396.211, 3904.369
1398.140, 3885.912
1400.068, 3891.208
1401.997, 3906.720
1403.925, 3896.364
1405.854, 3876.929
1407.782, 3860.828
1409.711, 3856.605
1411.639, 3883.219
1413.568, 3893.262
1415.496, 3869.593
1417.424, 3854.137
1419.353, 3853.096
1421.281, 3853.192
1423.210, 3853.666
1425.138, 3860.635
1427.067, 3865.634
1428.995, 3837.143
1430.924, 3813.806
1432.852, 3851.267
1434.781, 3885.462
1436.709, 3875.609
1438.638, 3870.880
1440.566, 3884.144
1442.495, 3870.212
1444.423, 3828.084
1446.351, 3814.814
1448.280, 3822.512
1450.208, 3819.368
1452.137, 3809.458
1454.065, 3794.947
1455.994, 3782.356
1457.922, 3781.410
1459.851, 3774.259
1461.779, 3750.119
1463.708, 3736.394
1465.636, 3735.538
1467.565, 3732.516
1469.493, 3729.936
1471.422, 3756.459
1473.350, 3779.939
1475.278, 3731.124
1477.207, 3687.351
1479.135, 3724.875
1481.064, 3754.344
1482.992, 3743.889
1484.921, 3719.315
1486.849, 3679.945
1488.778, 3653.696
1490.706, 3639.637
1492.635, 3625.370
1494.563, 3622.614
1496.492, 3659.463
1498.420, 3693.757
1500.349, 3692.802
1502.277, 3688.095
1504.205, 3696.047
1506.134, 3680.611
1508.062, 3681.089
1509.991, 3637.942
1511.919, 3668.027
1513.848, 3657.142
1515.776, 3643.124
1517.705, 3682.123
1519.633, 3699.585
1521.562, 3631.176
1523.490, 3608.343
1525.419, 3688.102
1527.347, 3683.522
1529.276, 3605.673
1531.204, 3605.650
1533.132, 3640.521
1535.061, 3629.204
1536.989, 3612.168
1538.918, 3614.675
1540.846, 3622.639
1542.775, 3634.616
1544.703, 3635.682
1546.632, 3634.869
1548.560, 3621.619
1550.489, 3622.922
1552.417, 3612.820
1554.346, 3602.814
1556.274, 3606.741
1558.203, 3606.987
1560.131, 3597.299
1562.059, 3580.454
1563.988, 3588.969
1565.916, 3565.800
1567.845, 3594.848
1569.773, 3602.148
1571.702, 3597.066
1573.630, 3584.285
1575.559, 3573.177
1577.487, 3565.957
1579.416, 3570.613
1581.344, 3554.720
1583.273, 3571.557
1585.201, 3534.443
1587.130, 3512.342
1589.058, 3506.261
1590.986, 3524.685
1592.915, 3548.879
1594.843, 3581.369
1596.772, 3571.078
1598.700, 3515.770
1600.629, 3487.316
1602.557, 3485.691
1604.486, 3517.665
1606.414, 3547.753
1608.343, 3536.297
1610.271, 3522.682
1612.200, 3516.655
1614.128, 3513.903
1616.057, 3513.798
1617.985, 3514.504
1619.913, 3518.894
1621.842, 3532.666
1623.770, 3552.175
1625.699, 3583.246
1627.627, 3601.831
1629.556, 3604.241
1631.484, 3585.117
1633.413, 3553.294
1635.341, 3551.658
1637.270, 3558.850
1639.198, 3550.112
1641.127, 3538.741
1643.055, 3527.341
1644.984, 3524.497
1646.912, 3530.577
1648.840, 3536.853
1650.769, 3542.283
1652.697, 3550.431
1654.626, 3549.648
1656.554, 3540.863
1658.483, 3531.889
1660.411, 3510.060
1662.340, 3499.579
1664.268, 3475.532
1666.197, 3457.796
1668.125, 3447.481
1670.054, 3455.419
1671.982, 3450.708
1673.911, 3410.718
1675.839, 3383.762
1677.767, 3372.179
1679.696, 3375.205
1681.624, 3379.491
1683.553, 3357.688
1685.481, 3337.856
1687.410, 3336.382
1689.338, 3332.457
1691.267, 3322.001
1693.195, 3324.203
1695.124, 3328.730
1697.052, 3309.036
1698.981, 3280.195
1700.909, 3244.418
1702.838, 3227.762
1704.766, 3217.431
1706.694, 3233.726
1708.623, 3218.650
1710.551, 3228.677
1712.480, 3242.984
1714.408, 3252.046
1716.337, 3238.389
1718.265, 3244.312
1720.194, 3196.354
1722.122, 3228.010
1724.051, 3203.402
1725.979, 3178.481
1727.908, 3211.424
1729.836, 3225.703
1731.765, 3202.550
1733.693, 3183.494
1735.621, 3171.557
1737.550, 3173.832
1739.478, 3172.114
1741.407, 3139.913
1743.335, 3125.612
1745.264, 3139.466
1747.192, 3141.772
1749.121, 3138.315
1751.049, 3167.114
1752.978, 3183.644
1754.906, 3181.063
1756.835, 3186.468
1758.763, 3167.336
1760.692, 3169.469
1762.620, 3134.870
1764.548, 3118.330
1766.477, 3111.385
1768.405, 3117.838
1770.334, 3104.819
1772.262, 3105.559
1774.191, 3107.715
1776.119, 3101.436
1778.048, 3110.790
1779.976, 3112.577
1781.905, 3109.148
1783.833, 3102.169
1785.762, 3092.020
1787.690, 3080.863
1789.619, 3071.714
1791.547, 3072.351
1793.475, 3067.969
1795.404, 3048.135
1797.332, 3049.280
1799.261, 3028.960
1801.189, 3031.679
1803.118, 2997.542
1805.046, 2997.809
1806.975, 2992.441
1808.903, 2971.784
1810.832, 2960.208
1812.760, 2956.927
1814.688, 2964.301
1816.617, 2969.344
1818.545, 2969.026
1820.474, 2947.050
1822.402, 2950.066
1824.331, 2913.583
1826.259, 2939.226
1828.188, 2959.869
1830.116, 2960.759
1832.045, 2928.603
1833.973, 2917.472
1835.902, 2920.046
1837.830, 2906.519
1839.759, 2902.881
1841.687, 2932.937
1843.615, 2938.880
1845.544, 2913.657
1847.472, 2881.692
1849.401, 2858.713
1851.329, 2871.243
1853.258, 2881.350
1855.186, 2877.302
1857.115, 2879.495
1859.043, 2887.110
1860.972, 2904.871
1862.900, 2905.085
1864.829, 2868.581
1866.757, 2841.735
1868.686, 2832.668
1870.614, 2857.560
1872.542, 2885.990
1874.471, 2891.100
1876.399, 2867.157
1878.328, 2813.857
1880.256, 2806.707
1882.185, 2822.322
1884.113, 2817.632
1886.042, 2808.607
1887.970, 2800.406
1889.899, 2798.820
1891.827, 2799.332
1893.756, 2804.096
1895.684, 2816.880
1897.613, 2815.063
1899.541, 2819.056
1901.469, 2817.247
1903.398, 2818.781
1905.326, 2804.544
1907.255, 2801.949
1909.183, 2787.937
1911.112, 2782.618
1913.040, 2777.972
1914.969, 2769.250
1916.897, 2765.974
1918.826, 2756.625
1920.754, 2741.825
1922.683, 2737.825
1924.611, 2741.318
1926.540, 2751.535
1928.468, 2748.269
1930.396, 2752.954
1932.325, 2746.994
1934.253, 2747.565
1936.182, 2732.994
1938.110, 2712.128
1940.039, 2707.677
1941.967, 2718.640
1943.896, 2737.344
1945.824, 2713.801
1947.753, 2687.150
1949.681, 2693.783
1951.610, 2678.135
1953.538, 2640.195
1955.467, 2639.595
1957.395, 2649.857
1959.323, 2646.008
1961.252, 2658.816
1963.180, 2652.070
1965.109, 2671.499
1967.037, 2644.871
1968.966, 2652.589
1970.894, 2658.903
1972.823, 2656.259
1974.751, 2642.482
1976.680, 2632.506
1978.608, 2649.806
1980.537, 2647.232
1982.465, 2613.312
1984.394, 2586.147
1986.322, 2573.609
1988.250, 2588.892
1990.179, 2610.511
1992.107, 2632.832
1994.036, 2631.688
1995.964, 2618.487
1997.893, 2608.304
1999.821, 2585.092
2001.750, 2548.072
2003.678, 2538.064
2005.607, 2545.775
2007.535, 2566.967
2009.464, 2582.411
2011.392, 2588.579
2013.321, 2590.468
2015.249, 2582.537
2017.177, 2578.024
2019.106, 2533.947
2021.034, 2550.929
2022.963, 2529.783
2024.891, 2501.772
2026.820, 2501.080
2028.748, 2498.064
2030.677, 2491.476
2032.605, 2504.711
2034.534, 2504.979
2036.462, 2493.629
2038.391, 2482.263
2040.319, 2464.569
2042.248, 2448.110
2044.176, 2425.211
2046.104, 2426.781
2048.033, 2432.736
2049.961, 2437.160
2051.890, 2424.443
2053.818, 2408.750
2055.747, 2392.341
2057.675, 2406.347
2059.604, 2431.524
2061.532, 2431.302
2063.461, 2409.178
2065.389, 2415.859
2067.318, 2366.515
2069.246, 2397.575
2071.175, 2381.741
2073.103, 2371.487
2075.031, 2379.224
2076.960, 2393.813
2078.888, 2400.043
2080.817, 2375.148
2082.745, 2370.705
2084.674, 2388.550
2086.602, 2402.124
2088.531, 2395.213
2090.459, 2382.909
2092.388, 2333.491
2094.316, 2333.149
2096.245, 2279.218
2098.173, 2250.581
2100.102, 2280.730
2102.030, 2307.819
2103.958, 2321.324
2105.887, 2298.446
2107.815, 2291.225
2109.744, 2311.453
2111.672, 2329.925
2113.601, 2343.701
2115.529, 2353.021
2117.458, 2337.955
2119.386, 2337.902
2121.315, 2304.442
2123.243, 2306.337
2125.172, 2302.549
2127.100, 2270.154
2129.029, 2231.571
2130.957, 2222.498
2132.885, 2246.013
2134.814, 2294.239
2136.742, 2268.876
2138.671, 2235.410
2140.599, 2267.914
2142.528, 2252.130
2144.456, 2200.594
2146.385, 2191.884
2148.313, 2197.693
2150.242, 2206.399
2152.170, 2209.158
2154.099, 2208.106
2156.027, 2193.149
2157.956, 2210.102
2159.884, 2268.632
2161.813, 2448.425
2163.741, 2552.999
2165.669, 2398.885
2167.598, 2285.558
2169.526, 2212.079
2171.455, 2142.718
2173.383, 2116.018
2175.312, 2138.792
2177.240, 2137.060
2179.169, 2132.460
2181.097, 2153.067
2183.026, 2142.781
2184.954, 2113.538
2186.883, 2111.992
2188.811, 2103.508
2190.740, 2072.887
2192.668, 2077.513
2194.596, 2105.155
2196.525, 2092.407
2198.453, 2094.420
2200.382, 2101.624
2202.310, 2085.233
2204.239, 2084.954
2206.167, 2097.803
2208.096, 2073.245
2210.024, 2049.711
2211.953, 2065.915
2213.881, 2071.054
2215.810, 2062.920
2217.738, 2048.041
2219.667, 2051.931
2221.595, 2048.496
2223.523, 2067.787
2225.452, 2046.298
2227.380, 2051.695
2229.309, 2034.499
2231.237, 2004.435
2233.166, 2000.129
2235.094, 2003.383
2237.023, 2008.309
2238.951, 2008.150
2240.880, 2003.254
2242.808, 1993.246
2244.737, 1985.004
2246.665, 1980.745
2248.594, 1973.380
2250.522, 1969.215
2252.450, 1965.042
2254.379, 1961.675
2256.307, 1962.034
2258.236, 1959.504
2260.164, 1979.843
2262.093, 1992.345
2264.021, 1944.760
2265.950, 1908.808
2267.878, 1895.107
2269.807, 1884.926
2271.735, 1928.041
2273.664, 1896.565
2275.592, 1905.916
2277.521, 1914.765
2279.449, 1879.029
2281.377, 1872.517
2283.306, 1879.046
2285.234, 1861.187
2287.163, 1871.772
2289.091, 1903.355
2291.020, 1854.105
2292.948, 1834.880
2294.877, 1899.521
2296.805, 1914.115
2298.734, 1893.379
2300.662, 1841.964
2302.591, 1807.570
2304.519, 1794.382
2306.448, 1808.832
2308.376, 1819.854
2310.304, 1821.929
2312.233, 1808.322
2314.161, 1815.886
2316.090, 1813.215
2318.018, 1850.646
2319.947, 1822.612
2321.875, 1792.092
2323.804, 1808.571
2325.732, 1836.966
2327.661, 1819.350
2329.589, 1813.416
2331.518, 1822.685
2333.446, 1836.669
2335.375, 1835.932
2337.303, 1834.598
2339.231, 1820.845
2341.160, 1817.151
2343.088, 1797.167
2345.017, 1780.609
2346.945, 1777.576
2348.874, 1803.623
2350.802, 1803.014
2352.731, 1784.931
2354.659, 1773.916
2356.588, 1756.155
2358.516, 1729.594
2360.445, 1725.057
2362.373, 1671.923
2364.302, 1708.934
2366.230, 1696.145
2368.158, 1689.019
2370.087, 1717.523
2372.015, 1697.725
2373.944, 1673.014
2375.872, 1689.098
2377.801, 1697.447
2379.729, 1697.476
2381.658, 1690.157
2383.586, 1674.216
2385.515, 1662.106
2387.443, 1688.167
2389.372, 1704.694
2391.300, 1705.322
2393.229, 1705.394
2395.157, 1694.030
2397.085, 1668.583
2399.014, 1659.186
2400.942, 1653.358
2402.871, 1644.935
2404.799, 1638.816
2406.728, 1630.689
2408.656, 1629.426
2410.585, 1624.572
2412.513, 1618.154
2414.442, 1620.128
2416.370, 1623.203
2418.299, 1622.945
2420.227, 1607.926
2422.156, 1618.891
2424.084, 1638.431
2426.012, 1590.566
2427.941, 1587.205
2429.869, 1623.316
2431.798, 1590.351
2433.726, 1567.404
2435.655, 1572.927
2437.583, 1589.633
2439.512, 1587.208
2441.440, 1561.676
2443.369, 1570.485
2445.297, 1574.727
2447.226, 1556.626
2449.154, 1564.663
2451.083, 1562.719
2453.011, 1557.947
2454.939, 1553.656
2456.868, 1550.511
2458.796, 1536.866
2460.725, 1522.070
2462.653, 1515.603
2464.582, 1534.926
2466.510, 1531.182
2468.439, 1512.589
2470.367, 1488.906
2472.296, 1480.501
2474.224, 1479.868
2476.153, 1476.965
2478.081, 1471.645
2480.010, 1468.918
2481.938, 1458.060
2483.866, 1461.118
2485.795, 1443.671
2487.723, 1440.617
2489.652, 1450.132
2491.580, 1465.080
2493.509, 1472.663
2495.437, 1455.551
2497.366, 1419.597
2499.294, 1391.563
2501.223, 1378.502
2503.151, 1381.155
2505.080, 1404.007
2507.008, 1414.274
2508.937, 1409.388
2510.865, 1418.987
2512.793, 1431.299
2514.722, 1439.629
2516.650, 1420.709
2518.579, 1410.162
2520.507, 1416.236
2522.436, 1396.617
2524.364, 1418.737
2526.293, 1378.479
2528.221, 1361.740
2530.150, 1364.059
2532.078, 1376.537
2534.007, 1361.390
2535.935, 1359.179
2537.864, 1373.693
2539.792, 1354.176
2541.720, 1353.131
2543.649, 1376.081
2545.577, 1381.641
2547.506, 1354.592
2549.434, 1371.585
2551.363, 1333.731
2553.291, 1354.611
2555.219, 1350.604
2557.148, 1302.913
2559.076, 1291.658
2561.005, 1319.960
2562.933, 1318.557
2564.862, 1289.363
2566.790, 1246.639
2568.719, 1242.148
2570.647, 1242.316
2572.576, 1247.448
2574.504, 1250.418
2576.433, 1243.625
2578.361, 1259.030
2580.290, 1231.934
2582.218, 1223.066
2584.146, 1223.960
2586.075, 1216.545
2588.003, 1218.226
2589.932, 1224.063
2591.860, 1218.889
2593.789, 1222.255
2595.717, 1229.343
2597.646, 1232.414
2599.574, 1202.924
2601.503, 1173.538
2603.431, 1188.179
2605.360, 1183.077
2607.288, 1174.398
2609.217, 1182.848
2611.145, 1186.247
2613.073, 1183.921
2615.002, 1176.342
2616.930, 1213.263
2618.859, 1229.404
2620.787, 1190.163
2622.716, 1160.064
2624.644, 1156.251
2626.573, 1178.180
2628.501, 1175.433
2630.430, 1161.588
2632.358, 1143.967
2634.287, 1121.850
2636.215, 1129.942
2638.144, 1157.333
2640.072, 1140.629
2642.000, 1118.504
2643.929, 1109.550
2645.857, 1148.313
2647.786, 1157.219
2649.714, 1137.023
2651.643, 1089.898
2653.571, 1134.988
2655.500, 1167.723
2657.428, 1055.066
2659.357, 1055.495
2661.285, 1090.007
2663.214, 1091.959
2665.142, 1065.494
2667.071, 1049.697
2668.999, 1062.193
2670.927, 1054.781
2672.856, 1063.363
2674.784, 1087.102
2676.713, 1053.972
2678.641, 1041.851
2680.570, 1045.841
2682.498, 1003.033
2684.427, 1015.041
2686.355, 1045.006
2688.284, 1023.764
2690.212, 1003.362
2692.141, 990.4836
2694.069, 986.1719
2695.998, 983.2721
2697.926, 996.0596
2699.854, 1021.629
2701.783, 969.0408
2703.711, 938.0057
2705.640, 952.2423
2707.568, 990.3755
2709.497, 995.1806
2711.425, 981.5950
2713.354, 1012.396
2715.282, 971.6353
2717.211, 930.9773
2719.139, 1017.902
2721.068, 975.3940
2722.996, 930.5409
2724.925, 969.1630
2726.853, 951.8620
2728.781, 941.3127
2730.710, 951.3665
2732.638, 938.0850
2734.567, 944.0568
2736.495, 953.8344
2738.424, 920.8372
2740.352, 897.4791
2742.281, 902.4317
2744.209, 886.0906
2746.138, 917.9376
2748.066, 890.9875
2749.995, 908.9438
2751.923, 931.0930
2753.852, 941.6486
2755.780, 933.2614
2757.708, 887.3137
2759.637, 875.9601
2761.565, 876.8586
2763.494, 850.4774
2765.422, 835.8834
2767.351, 841.0256
2769.279, 863.1404
2771.208, 865.3675
2773.136, 841.6114
2775.065, 810.6201
2776.993, 840.6072
2778.922, 837.8639
2780.850, 823.9991
2782.779, 857.4133
2784.707, 827.8074
2786.635, 807.2780
2788.564, 835.8146
2790.492, 807.7451
2792.421, 800.9865
2794.349, 817.4642
2796.278, 794.2270
2798.206, 797.9761
2800.135, 811.9647
2802.063, 803.2478
2803.992, 808.0274
2805.920, 794.4511
2807.849, 754.6159
2809.777, 793.6445
2811.706, 798.1068
2813.634, 766.2399
2815.563, 740.1401
2817.491, 733.1570
2819.419, 748.9078
2821.348, 734.3105
2823.276, 764.7645
2825.205, 741.9283
2827.133, 740.4426
2829.062, 763.8267
2830.990, 763.2534
2832.919, 757.5732
2834.847, 774.0393
2836.776, 760.8294
2838.704, 743.5786
2840.633, 737.1835
2842.561, 718.1190
2844.490, 736.1675
2846.418, 696.1720
2848.346, 670.4785
2850.275, 682.9365
2852.203, 709.7815
2854.132, 731.7971
2856.060, 706.4133
2857.989, 701.2244
2859.917, 709.8712
2861.846, 693.6875
2863.774, 689.4491
2865.703, 683.1711
2867.631, 667.4099
2869.560, 666.6118
2871.488, 653.9487
2873.417, 647.9227
2875.345, 670.2957
2877.273, 655.8054
2879.202, 647.1005
2881.130, 672.2029
2883.059, 623.0625
2884.987, 595.4555
2886.916, 593.0090
2888.844, 581.7195
2890.773, 560.5414
2892.701, 572.3252
2894.630, 632.6608
2896.558, 633.9293
2898.487, 620.1234
2900.415, 609.6937
2902.344, 614.6746
2904.272, 610.3274
2906.200, 600.5229
2908.129, 591.0895
2910.057, 594.9363
2911.986, 600.7231
2913.914, 603.0172
2915.843, 598.1791
2917.771, 588.9276
2919.700, 575.3363
2921.628, 566.1670
2923.557, 567.2632
2925.485, 584.3084
2927.414, 567.7189
2929.342, 582.7559
2931.271, 571.4922
2933.199, 555.3184
2935.127, 538.9898
2937.056, 513.0340
2938.984, 519.9295
2940.913, 535.7457
2942.841, 541.0887
2944.770, 492.1801
2946.698, 507.8062
2948.627, 534.3488
2950.555, 486.6475
2952.484, 503.5875
2954.412, 508.6847
2956.341, 489.0757
2958.269, 479.0803
2960.198, 491.0305
2962.126, 502.6511
2964.054, 500.6768
2965.983, 489.9108
2967.911, 495.6280
2969.840, 498.4005
2971.768, 474.7095
2973.697, 468.2451
2975.625, 479.3608
2977.554, 488.2767
2979.482, 448.0972
2981.411, 481.1743
2983.339, 486.7226
2985.268, 435.7368
2987.196, 434.8134
2989.125, 463.3336
2991.053, 480.2316
2992.981, 456.2813
2994.910, 431.9617
2996.838, 432.2248
2998.767, 449.4387
3000.695, 471.6233
3002.624, 424.0226
3004.552, 436.3803
3006.481, 497.6064
3008.409, 432.2148
3010.338, 453.1468
3012.266, 467.5913
3014.195, 426.2592
3016.123, 428.6044
3018.052, 431.7697
3019.980, 428.3013
3021.908, 425.9536
3023.837, 420.1847
3025.765, 414.6442
3027.694, 404.1201
3029.622, 396.1858
3031.551, 398.3018
3033.479, 403.6153
3035.408, 403.6035
3037.336, 388.3969
3039.265, 385.9633
3041.193, 364.5328
3043.122, 357.0488
3045.050, 324.0435
3046.979, 332.5143
3048.907, 326.8294
3050.835, 309.1257
3052.764, 332.6685
3054.692, 324.6838
3056.621, 330.4412
3058.549, 362.5655
3060.478, 318.1664
3062.406, 310.1429
3064.335, 330.2816
3066.263, 352.0220
3068.192, 315.1683
3070.120, 316.2768
3072.049, 327.2675
3073.977, 306.4871
3075.906, 290.1725
3077.834, 315.9123
3079.762, 344.7221
3081.691, 328.9619
3083.619, 351.0164
3085.548, 325.2524
3087.476, 295.3416
3089.405, 326.2097
3091.333, 306.1469
3093.262, 286.4044
3095.190, 277.3570
3097.119, 274.0483
3099.047, 270.4218
3100.976, 270.1005
3102.904, 282.5815
3104.833, 276.7135
3106.761, 296.3332
3108.689, 307.3678
3110.618, 306.7325
3112.546, 302.9781
3114.475, 305.5365
3116.403, 288.1131
3118.332, 306.1971
3120.260, 295.9396
3122.189, 305.9085
3124.117, 271.9132
3126.046, 234.4557
3127.974, 260.3721
3129.903, 250.0292
3131.831, 209.3407
3133.760, 192.1629
3135.688, 253.4377
3137.616, 232.0158
3139.545, 244.1081
3141.473, 264.7396
3143.402, 247.8210
3145.330, 187.9615
3147.259, 200.6444
3149.187, 257.6039
3151.116, 328.3155
3153.044, 283.9565
3154.973, 397.6742
3156.901, 212.0823
3158.830, 205.4725
3160.758, 178.1148
3162.687, 178.6142
3164.615, 188.5062
3166.543, 196.0014
3168.472, 205.4270
3170.400, 228.9764
3172.329, 227.1688
3174.257, 208.5631
3176.186, 229.6347
3178.114, 203.8614
3180.043, 195.0210
3181.971, 210.3190
3183.900, 227.8795
3185.828, 212.6422
3187.757, 207.2428
3189.685, 211.7781
3191.614, 214.3792
3193.542, 237.5102
3195.470, 207.3236
3197.399, 194.1780
3199.327, 237.5914
3201.256, 203.8140
3203.184, 208.2975
3205.113, 211.4466
3207.041, 203.2907
3208.970, 205.6410
3210.898, 210.0430
3212.827, 191.2246
3214.755, 184.0085
3216.684, 155.7092
3218.612, 172.5244
3220.541, 158.1750
3222.469, 158.1346
3224.397, 155.6444
3226.326, 158.2135
3228.254, 164.4838
3230.183, 159.4042
3232.111, 146.6561
3234.040, 153.7369
3235.968, 134.7179
3237.897, 106.4547
3239.825, 87.89489
3241.754, 94.50480
3243.682, 136.5802
3245.611, 155.0077
3247.539, 159.0210
3249.468, 163.0937
3251.396, 178.2542
3253.324, 179.6988
3255.253, 179.2384
3257.181, 180.3552
3259.110, 171.1542
3261.038, 171.6283
3262.967, 166.9849
3264.895, 161.8907
3266.824, 159.2664
3268.752, 164.0361
3270.681, 175.6129
3272.609, 165.1668
3274.538, 173.4713
3276.466, 159.9304
3278.395, 175.6126
3280.323, 162.1422
3282.251, 157.8845
3284.180, 152.9135
3286.108, 144.9824
3288.037, 139.9658
3289.965, 130.7555
3291.894, 140.3389
3293.822, 127.9771
3295.751, 137.3551
3297.679, 140.0663
3299.608, 137.5917
3301.536, 139.5110
3303.465, 150.0195
3305.393, 128.0064
3307.322, 138.0627
3309.250, 162.6467
3311.178, 111.8916
3313.107, 122.7977
3315.035, 141.5550
3316.964, 132.1124
3318.892, 91.26292
3320.821, 63.84164
3322.749, 74.77089
3324.678, 101.0957
3326.606, 128.3719
3328.535, 147.2855
3330.463, 126.5810
3332.392, 120.9352
3334.320, 129.7659
3336.249, 133.9933
3338.177, 112.1882
3340.105, 125.5521
3342.034, 105.4322
3343.962, 117.5901
3345.891, 107.3582
3347.819, 137.6938
3349.748, 102.2280
3351.676, 104.1911
3353.605, 126.6044
3355.533, 142.3799
3357.462, 147.6222
3359.390, 129.6687
3361.319, 116.1223
3363.247, 116.6123
3365.176, 129.1628
3367.104, 154.7301
3369.032, 157.6053
3370.961, 168.7823
3372.889, 172.3624
3374.818, 126.0945
3376.746, 90.08147
3378.675, 112.9888
3380.603, 127.2490
3382.532, 116.3320
3384.460, 117.3808
3386.389, 103.5986
3388.317, 127.1939
3390.246, 128.2921
3392.174, 92.70576
3394.103, 69.86254
3396.031, 99.50729
3397.959, 78.40620
##END=



