##NAMES=Yoderite
##RRUFFID=R050277
##IDEAL CHEMISTRY=(MgAl_3_)(MgAl)Al_2_O_2_(SiO_4_)_4_(OH)_2_
##LOCALITY=Mautia Hill, Kongwa, Central Province, Tanzania
##OWNER=RRUFF
##SOURCE=Marcus Origlieri
##DESCRIPTION=Blue anhedral lathlike grains
##STATUS=The identification of this mineral has been confirmed by X-ray diffraction and chemical analysis
##URL=rruff.info/R050277
##MEASURED CHEMISTRY=(Mg_1.95_Mn_0.05_)_Σ=2_(Al_5.54_Fe^3+^_0.46_)_Σ=6_Si_4.00_O_18_(OH)_2_
144.7414, 26164.23
145.2236, 26181.76
145.7057, 26197.58
146.1878, 26208.48
146.6699, 26214.25
147.1520, 26219.45
147.6341, 26220.13
148.1163, 26223.71
148.5984, 26235.17
149.0805, 26253.08
149.5626, 26271.55
150.0447, 26283.43
150.5268, 26284.67
151.0090, 26291.68
151.4911, 26309.23
151.9732, 26327.51
152.4553, 26340.34
152.9374, 26346.55
153.4195, 26349.20
153.9017, 26352.66
154.3838, 26357.35
154.8659, 26361.72
155.3480, 26364.66
155.8301, 26367.68
156.3122, 26372.77
156.7944, 26380.71
157.2765, 26389.69
157.7586, 26396.13
158.2407, 26399.42
158.7228, 26403.58
159.2049, 26410.86
159.6871, 26419.89
160.1692, 26427.41
160.6513, 26432.06
161.1334, 26435.20
161.6155, 26438.65
162.0976, 26442.29
162.5798, 26446.86
163.0619, 26453.77
163.5440, 26462.75
164.0261, 26470.15
164.5082, 26473.97
164.9903, 26476.04
165.4725, 26476.51
165.9546, 26474.89
166.4367, 26475.91
166.9188, 26487.63
167.4009, 26514.25
167.8830, 26534.43
168.3652, 26538.74
168.8473, 26537.65
169.3294, 26539.22
169.8115, 26546.14
170.2936, 26553.25
170.7757, 26548.75
171.2579, 26520.13
171.7400, 26503.41
172.2221, 26509.88
172.7042, 26525.15
173.1863, 26537.46
173.6684, 26541.56
174.1506, 26537.86
174.6327, 26527.47
175.1148, 26492.23
175.5969, 26471.10
176.0790, 26475.20
176.5611, 26492.79
177.0433, 26509.90
177.5254, 26519.43
178.0075, 26522.05
178.4896, 26520.54
178.9717, 26509.85
179.4538, 26501.29
179.9360, 26497.11
180.4181, 26497.03
180.9002, 26501.36
181.3823, 26511.74
181.8644, 26525.68
182.3465, 26531.28
182.8287, 26521.23
183.3108, 26511.46
183.7929, 26510.35
184.2750, 26516.58
184.7571, 26522.63
185.2392, 26522.05
185.7214, 26519.06
186.2035, 26525.34
186.6856, 26546.75
187.1677, 26571.78
187.6498, 26589.85
188.1319, 26600.57
188.6141, 26612.44
189.0962, 26635.66
189.5783, 26661.06
190.0604, 26675.24
190.5425, 26670.90
191.0246, 26659.03
191.5068, 26655.15
191.9889, 26661.61
192.4710, 26668.45
192.9531, 26670.13
193.4352, 26670.28
193.9173, 26673.29
194.3995, 26682.02
194.8816, 26693.16
195.3637, 26697.64
195.8458, 26688.10
196.3279, 26686.26
196.8100, 26703.85
197.2922, 26729.39
197.7743, 26749.60
198.2564, 26757.50
198.7385, 26755.66
199.2206, 26753.78
199.7027, 26751.37
200.1849, 26749.21
200.6670, 26747.33
201.1491, 26745.66
201.6312, 26744.20
202.1133, 26742.96
202.5954, 26741.82
203.0776, 26739.95
203.5597, 26740.38
204.0418, 26736.72
204.5239, 26724.30
205.0060, 26707.58
205.4881, 26693.57
205.9703, 26686.64
206.4524, 26686.19
206.9345, 26686.99
207.4166, 26694.84
207.8987, 26697.91
208.3808, 26688.99
208.8630, 26672.79
209.3451, 26659.27
209.8272, 26654.61
210.3093, 26657.83
210.7914, 26661.36
211.2735, 26665.93
211.7557, 26669.71
212.2378, 26674.14
212.7199, 26677.54
213.2020, 26673.64
213.6841, 26655.26
214.1662, 26627.81
214.6484, 26615.42
215.1305, 26627.05
215.6126, 26643.41
216.0947, 26655.71
216.5768, 26664.14
217.0589, 26669.54
217.5410, 26671.88
218.0232, 26671.59
218.5053, 26670.64
218.9874, 26669.14
219.4695, 26667.21
219.9516, 26663.48
220.4337, 26658.15
220.9159, 26656.63
221.3980, 26661.63
221.8801, 26672.60
222.3622, 26689.70
222.8443, 26716.82
223.3264, 26742.99
223.8086, 26753.63
224.2907, 26746.73
224.7728, 26743.60
225.2549, 26756.37
225.7370, 26775.56
226.2191, 26793.40
226.7013, 26807.97
227.1834, 26820.88
227.6655, 26834.38
228.1476, 26848.93
228.6297, 26861.61
229.1118, 26871.26
229.5940, 26878.64
230.0761, 26883.63
230.5582, 26886.05
231.0403, 26887.59
231.5224, 26890.98
232.0045, 26897.20
232.4867, 26902.59
232.9688, 26901.33
233.4509, 26902.30
233.9330, 26914.95
234.4151, 26941.45
234.8972, 26971.75
235.3794, 26988.11
235.8615, 26981.37
236.3436, 26982.25
236.8257, 26998.24
237.3078, 27018.65
237.7899, 27035.33
238.2721, 27046.52
238.7542, 27057.00
239.2363, 27075.72
239.7184, 27111.42
240.2005, 27137.83
240.6826, 27151.34
241.1648, 27159.09
241.6469, 27163.35
242.1290, 27165.79
242.6111, 27170.21
243.0932, 27183.69
243.5753, 27218.38
244.0575, 27236.32
244.5396, 27232.03
245.0217, 27217.13
245.5038, 27198.50
245.9859, 27177.98
246.4680, 27155.13
246.9502, 27129.60
247.4323, 27103.25
247.9144, 27067.45
248.3965, 27010.99
248.8786, 26953.46
249.3607, 26910.99
249.8429, 26885.09
250.3250, 26863.63
250.8071, 26831.36
251.2892, 26782.44
251.7713, 26745.15
252.2534, 26725.23
252.7356, 26712.40
253.2177, 26701.60
253.6998, 26691.45
254.1819, 26679.30
254.6640, 26661.63
255.1461, 26637.16
255.6283, 26617.92
256.1104, 26605.38
256.5925, 26597.22
257.0746, 26593.50
257.5567, 26593.78
258.0388, 26594.07
258.5210, 26590.64
259.0031, 26583.57
259.4852, 26578.87
259.9673, 26576.94
260.4494, 26577.22
260.9315, 26580.66
261.4137, 26586.90
261.8958, 26591.95
262.3779, 26592.34
262.8600, 26588.77
263.3421, 26587.11
263.8242, 26587.64
264.3064, 26589.72
264.7885, 26594.99
265.2706, 26602.74
265.7527, 26605.60
266.2348, 26595.68
266.7169, 26578.55
267.1991, 26570.42
267.6812, 26575.46
268.1633, 26584.87
268.6454, 26592.53
269.1275, 26598.76
269.6096, 26607.82
270.0918, 26626.49
270.5739, 26645.65
271.0560, 26649.33
271.5381, 26632.23
272.0202, 26611.45
272.5023, 26599.52
272.9845, 26595.38
273.4666, 26590.33
273.9487, 26580.30
274.4308, 26569.21
274.9129, 26561.45
275.3951, 26557.16
275.8772, 26556.34
276.3593, 26562.71
276.8414, 26574.38
277.3235, 26578.01
277.8056, 26565.24
278.2878, 26549.17
278.7699, 26542.35
279.2520, 26544.46
279.7341, 26550.23
280.2162, 26558.27
280.6983, 26567.72
281.1805, 26573.63
281.6626, 26571.91
282.1447, 26571.29
282.6268, 26581.75
283.1089, 26600.04
283.5910, 26612.67
284.0732, 26608.49
284.5553, 26591.87
285.0374, 26579.44
285.5195, 26574.63
286.0016, 26569.27
286.4837, 26553.49
286.9659, 26533.46
287.4480, 26522.87
287.9301, 26533.28
288.4122, 26556.79
288.8943, 26572.06
289.3764, 26577.52
289.8586, 26577.88
290.3407, 26573.00
290.8228, 26565.58
291.3049, 26559.36
291.7870, 26556.30
292.2691, 26554.63
292.7513, 26550.54
293.2334, 26542.91
293.7155, 26536.16
294.1976, 26531.97
294.6797, 26529.41
295.1618, 26527.44
295.6440, 26525.65
296.1261, 26525.22
296.6082, 26529.22
297.0903, 26539.66
297.5724, 26546.27
298.0545, 26541.51
298.5367, 26535.10
299.0188, 26534.52
299.5009, 26541.13
299.9830, 26548.69
300.4651, 26548.42
300.9472, 26538.42
301.4294, 26535.14
301.9115, 26547.72
302.3936, 26562.55
302.8757, 26572.86
303.3578, 26578.33
303.8399, 26581.95
304.3221, 26585.80
304.8042, 26589.88
305.2863, 26594.99
305.7684, 26603.56
306.2505, 26610.65
306.7326, 26612.16
307.2148, 26610.24
307.6969, 26610.57
308.1790, 26618.34
308.6611, 26632.03
309.1432, 26641.36
309.6253, 26641.33
310.1075, 26644.35
310.5896, 26657.94
311.0717, 26676.50
311.5538, 26691.82
312.0359, 26699.55
312.5180, 26701.42
313.0002, 26700.23
313.4823, 26689.12
313.9644, 26689.65
314.4465, 26716.64
314.9286, 26752.33
315.4107, 26778.95
315.8929, 26790.16
316.3750, 26793.65
316.8571, 26802.98
317.3392, 26822.21
317.8213, 26833.63
318.3034, 26826.45
318.7856, 26815.39
319.2677, 26810.07
319.7498, 26811.95
320.2319, 26815.81
320.7140, 26816.11
321.1961, 26812.50
321.6783, 26808.24
322.1604, 26807.03
322.6425, 26801.96
323.1246, 26787.55
323.6067, 26765.53
324.0888, 26742.95
324.5710, 26725.49
325.0531, 26712.92
325.5352, 26699.71
326.0173, 26684.08
326.4994, 26670.27
326.9815, 26659.14
327.4637, 26650.92
327.9458, 26646.78
328.4279, 26649.54
328.9100, 26655.20
329.3921, 26649.96
329.8742, 26627.41
330.3564, 26607.22
330.8385, 26597.04
331.3206, 26591.79
331.8027, 26586.50
332.2848, 26579.61
332.7669, 26571.49
333.2491, 26562.03
333.7312, 26550.24
334.2133, 26540.79
334.6954, 26533.21
335.1775, 26529.48
335.6596, 26532.78
336.1418, 26543.21
336.6239, 26555.15
337.1060, 26562.70
337.5881, 26565.62
338.0702, 26570.27
338.5523, 26582.08
339.0345, 26590.50
339.5165, 26586.57
339.9987, 26573.34
340.4808, 26562.20
340.9629, 26563.73
341.4450, 26574.58
341.9271, 26576.74
342.4092, 26564.59
342.8914, 26553.50
343.3735, 26550.72
343.8556, 26553.74
344.3377, 26559.67
344.8198, 26569.44
345.3019, 26578.78
345.7841, 26578.80
346.2662, 26567.17
346.7483, 26555.39
347.2304, 26548.74
347.7125, 26543.79
348.1946, 26537.44
348.6768, 26528.91
349.1589, 26520.15
349.6410, 26513.27
350.1231, 26508.33
350.6052, 26503.60
351.0873, 26499.39
351.5695, 26494.68
352.0516, 26488.44
352.5337, 26480.83
353.0158, 26473.13
353.4979, 26466.35
353.9800, 26460.18
354.4622, 26452.92
354.9443, 26442.65
355.4264, 26435.07
355.9085, 26434.16
356.3906, 26438.68
356.8727, 26446.88
357.3549, 26462.13
357.8370, 26478.38
358.3191, 26487.70
358.8012, 26490.02
359.2833, 26485.11
359.7654, 26465.79
360.2476, 26442.01
360.7297, 26430.42
361.2118, 26437.16
361.6939, 26446.82
362.1760, 26447.53
362.6581, 26440.73
363.1403, 26434.30
363.6224, 26430.76
364.1045, 26428.54
364.5866, 26424.31
365.0687, 26417.64
365.5508, 26415.04
366.0330, 26421.13
366.5151, 26432.47
366.9972, 26444.21
367.4793, 26456.14
367.9614, 26464.86
368.4435, 26462.88
368.9257, 26453.07
369.4078, 26453.64
369.8899, 26480.16
370.3720, 26508.39
370.8541, 26517.33
371.3362, 26507.87
371.8184, 26492.08
372.3005, 26474.58
372.7826, 26456.91
373.2647, 26443.84
373.7468, 26436.49
374.2289, 26431.45
374.7111, 26427.96
375.1932, 26425.80
375.6753, 26424.60
376.1574, 26424.30
376.6395, 26424.65
377.1216, 26425.91
377.6038, 26429.37
378.0859, 26428.20
378.5680, 26417.74
379.0501, 26404.60
379.5322, 26393.86
380.0143, 26386.33
380.4965, 26381.98
380.9786, 26381.74
381.4607, 26385.70
381.9428, 26384.25
382.4249, 26373.23
382.9070, 26361.96
383.3892, 26354.79
383.8713, 26350.40
384.3534, 26345.08
384.8355, 26336.72
385.3176, 26327.58
385.7997, 26324.26
386.2819, 26334.34
386.7640, 26341.33
387.2461, 26345.50
387.7282, 26346.07
388.2103, 26340.37
388.6924, 26328.65
389.1746, 26316.46
389.6567, 26311.08
390.1388, 26315.22
390.6209, 26314.92
391.1030, 26301.39
391.5851, 26292.16
392.0673, 26299.39
392.5494, 26317.49
393.0315, 26331.47
393.5136, 26330.31
393.9957, 26317.26
394.4778, 26312.34
394.9600, 26323.63
395.4421, 26332.30
395.9242, 26332.55
396.4063, 26330.38
396.8884, 26333.50
397.3705, 26344.10
397.8527, 26355.51
398.3348, 26356.13
398.8169, 26341.68
399.2990, 26332.12
399.7811, 26334.62
400.2632, 26337.49
400.7454, 26333.24
401.2275, 26323.79
401.7096, 26317.20
402.1917, 26320.18
402.6738, 26331.35
403.1559, 26343.08
403.6381, 26357.57
404.1202, 26368.38
404.6023, 26370.25
405.0844, 26368.46
405.5665, 26369.35
406.0486, 26375.21
406.5308, 26383.87
407.0129, 26393.68
407.4950, 26404.94
407.9771, 26412.90
408.4592, 26413.52
408.9413, 26412.98
409.4235, 26416.02
409.9056, 26422.77
410.3877, 26432.34
410.8698, 26445.81
411.3519, 26461.71
411.8340, 26476.86
412.3162, 26491.65
412.7983, 26503.95
413.2804, 26509.50
413.7625, 26511.61
414.2446, 26517.81
414.7267, 26531.76
415.2089, 26547.69
415.6910, 26561.98
416.1731, 26574.46
416.6552, 26583.81
417.1373, 26588.40
417.6194, 26591.12
418.1016, 26597.37
418.5837, 26607.29
419.0658, 26618.32
419.5479, 26627.78
420.0300, 26638.83
420.5121, 26657.52
420.9943, 26684.32
421.4764, 26710.00
421.9585, 26726.04
422.4406, 26731.94
422.9227, 26736.77
423.4048, 26741.28
423.8870, 26743.97
424.3691, 26745.00
424.8512, 26743.61
425.3333, 26737.80
425.8154, 26726.46
426.2975, 26711.81
426.7797, 26698.66
427.2618, 26685.36
427.7439, 26676.88
428.2260, 26677.31
428.7081, 26679.67
429.1902, 26679.44
429.6724, 26675.86
430.1545, 26669.76
430.6366, 26661.51
431.1187, 26651.13
431.6008, 26642.99
432.0829, 26637.12
432.5651, 26633.91
433.0472, 26638.10
433.5293, 26643.59
434.0114, 26640.86
434.4935, 26625.60
434.9756, 26605.34
435.4578, 26594.34
435.9399, 26595.34
436.4220, 26596.66
436.9041, 26596.65
437.3862, 26596.60
437.8683, 26597.82
438.3505, 26599.90
438.8326, 26600.68
439.3147, 26598.08
439.7968, 26592.81
440.2789, 26587.18
440.7610, 26579.62
441.2432, 26575.37
441.7253, 26577.88
442.2074, 26584.81
442.6895, 26594.94
443.1716, 26609.90
443.6537, 26622.49
444.1359, 26627.06
444.6180, 26623.75
445.1001, 26612.04
445.5822, 26587.37
446.0643, 26561.58
446.5464, 26549.46
447.0286, 26549.47
447.5107, 26550.60
447.9928, 26553.45
448.4749, 26553.82
448.9570, 26545.00
449.4391, 26527.63
449.9213, 26511.62
450.4034, 26503.04
450.8855, 26500.25
451.3676, 26497.00
451.8497, 26493.24
452.3318, 26489.33
452.8140, 26485.15
453.2961, 26481.00
453.7782, 26477.49
454.2603, 26474.70
454.7424, 26471.86
455.2245, 26468.21
455.7067, 26463.82
456.1888, 26457.43
456.6709, 26443.80
457.1530, 26433.66
457.6351, 26433.74
458.1172, 26440.05
458.5994, 26443.93
459.0815, 26440.62
459.5636, 26434.80
460.0457, 26439.62
460.5278, 26464.74
461.0099, 26480.57
461.4921, 26481.65
461.9742, 26477.00
462.4563, 26471.83
462.9384, 26466.73
463.4205, 26459.75
463.9026, 26447.82
464.3848, 26432.35
464.8669, 26424.00
465.3490, 26428.10
465.8311, 26429.25
466.3132, 26414.79
466.7953, 26396.95
467.2775, 26391.17
467.7596, 26402.81
468.2417, 26418.99
468.7238, 26426.13
469.2059, 26425.78
469.6880, 26431.19
470.1702, 26449.54
470.6523, 26465.22
471.1344, 26459.11
471.6165, 26436.28
472.0986, 26417.22
472.5807, 26409.50
473.0629, 26405.85
473.5450, 26400.27
474.0271, 26392.89
474.5092, 26385.05
474.9913, 26377.62
475.4734, 26370.08
475.9556, 26361.35
476.4377, 26352.50
476.9198, 26340.82
477.4019, 26323.44
477.8840, 26304.81
478.3661, 26290.00
478.8483, 26278.92
479.3304, 26266.68
479.8125, 26247.78
480.2946, 26223.30
480.7767, 26211.31
481.2589, 26227.53
481.7410, 26237.34
482.2231, 26228.06
482.7052, 26212.75
483.1873, 26208.38
483.6694, 26218.81
484.1516, 26231.21
484.6337, 26227.07
485.1158, 26202.55
485.5979, 26183.82
486.0800, 26173.02
486.5621, 26166.29
487.0443, 26165.70
487.5264, 26167.54
488.0085, 26165.06
488.4906, 26154.43
488.9727, 26140.29
489.4548, 26129.96
489.9370, 26123.85
490.4191, 26116.89
490.9012, 26105.85
491.3833, 26095.77
491.8654, 26093.30
492.3475, 26097.68
492.8297, 26098.12
493.3118, 26085.59
493.7939, 26069.06
494.2760, 26060.98
494.7581, 26061.50
495.2402, 26062.83
495.7224, 26060.63
496.2045, 26056.13
496.6866, 26053.70
497.1687, 26057.52
497.6508, 26054.91
498.1329, 26036.78
498.6151, 26014.04
499.0972, 25998.61
499.5793, 25992.14
500.0614, 25989.57
500.5435, 25986.96
501.0256, 25984.22
501.5078, 25977.03
501.9899, 25957.10
502.4720, 25942.46
502.9541, 25938.53
503.4362, 25940.78
503.9183, 25945.42
504.4004, 25950.84
504.8825, 25954.92
505.3647, 25955.11
505.8468, 25951.32
506.3289, 25944.12
506.8110, 25928.52
507.2931, 25915.72
507.7752, 25912.09
508.2574, 25914.05
508.7395, 25915.98
509.2216, 25916.63
509.7037, 25914.27
510.1858, 25902.84
510.6679, 25883.30
511.1501, 25874.39
511.6322, 25885.06
512.1143, 25901.44
512.5964, 25910.09
513.0786, 25911.68
513.5607, 25908.06
514.0428, 25892.01
514.5249, 25876.70
515.0070, 25877.49
515.4891, 25890.81
515.9713, 25899.26
516.4534, 25893.95
516.9355, 25880.97
517.4176, 25873.60
517.8997, 25874.76
518.3818, 25875.82
518.8640, 25875.11
519.3461, 25875.35
519.8282, 25881.94
520.3103, 25891.92
520.7924, 25894.38
521.2745, 25880.59
521.7567, 25856.12
522.2388, 25845.66
522.7209, 25859.24
523.2030, 25868.57
523.6851, 25869.54
524.1672, 25865.72
524.6494, 25857.35
525.1315, 25845.77
525.6136, 25836.09
526.0957, 25831.07
526.5778, 25831.16
527.0599, 25842.23
527.5421, 25871.17
528.0242, 25886.54
528.5063, 25861.19
528.9884, 25820.37
529.4705, 25798.87
529.9526, 25803.32
530.4348, 25808.73
530.9169, 25799.96
531.3990, 25784.40
531.8811, 25775.41
532.3632, 25774.67
532.8453, 25772.87
533.3275, 25761.26
533.8096, 25742.09
534.2917, 25733.87
534.7738, 25743.66
535.2559, 25753.24
535.7380, 25763.12
536.2202, 25768.26
536.7023, 25758.09
537.1844, 25733.34
537.6665, 25711.21
538.1486, 25712.05
538.6307, 25736.20
539.1129, 25747.12
539.5950, 25733.29
540.0771, 25720.91
540.5592, 25716.72
541.0413, 25716.98
541.5234, 25718.14
542.0056, 25719.19
542.4877, 25719.13
542.9698, 25717.07
543.4519, 25713.00
543.9340, 25706.20
544.4161, 25694.53
544.8983, 25685.08
545.3804, 25686.96
545.8625, 25693.45
546.3446, 25690.78
546.8267, 25671.50
547.3088, 25653.21
547.7910, 25647.95
548.2731, 25650.51
548.7552, 25650.06
549.2373, 25644.24
549.7194, 25638.93
550.2015, 25640.68
550.6837, 25649.89
551.1658, 25653.51
551.6479, 25647.98
552.1300, 25642.26
552.6121, 25637.64
553.0942, 25634.67
553.5764, 25633.42
554.0585, 25634.03
554.5406, 25637.67
555.0227, 25647.52
555.5048, 25664.42
555.9869, 25672.35
556.4691, 25664.83
556.9512, 25656.79
557.4333, 25652.35
557.9154, 25650.91
558.3975, 25653.03
558.8796, 25659.51
559.3618, 25664.10
559.8439, 25660.25
560.3260, 25649.73
560.8081, 25638.19
561.2902, 25625.63
561.7723, 25615.82
562.2545, 25613.18
562.7366, 25616.03
563.2187, 25615.21
563.7008, 25606.71
564.1829, 25599.68
564.6650, 25598.21
565.1472, 25600.01
565.6293, 25602.59
566.1114, 25605.13
566.5935, 25606.29
567.0756, 25603.91
567.5577, 25597.95
568.0399, 25599.69
568.5220, 25615.12
569.0041, 25631.28
569.4862, 25652.72
569.9683, 25670.17
570.4504, 25671.08
570.9326, 25654.50
571.4147, 25635.49
571.8968, 25630.67
572.3789, 25637.12
572.8610, 25634.25
573.3431, 25618.47
573.8253, 25603.94
574.3074, 25598.93
574.7895, 25598.90
575.2716, 25596.66
575.7537, 25590.37
576.2358, 25587.81
576.7180, 25595.44
577.2001, 25607.90
577.6822, 25620.27
578.1643, 25631.17
578.6464, 25634.03
579.1285, 25622.56
579.6107, 25601.12
580.0928, 25588.55
580.5749, 25590.52
581.0570, 25594.25
581.5391, 25601.28
582.0212, 25608.45
582.5034, 25613.64
582.9855, 25616.60
583.4676, 25617.13
583.9497, 25613.76
584.4318, 25609.58
584.9139, 25616.72
585.3961, 25639.50
585.8782, 25658.60
586.3602, 25670.97
586.8423, 25675.77
587.3245, 25668.38
587.8066, 25650.53
588.2887, 25636.59
588.7708, 25634.72
589.2529, 25638.57
589.7350, 25641.28
590.2172, 25643.05
590.6993, 25646.56
591.1814, 25653.54
591.6635, 25660.80
592.1456, 25663.53
592.6277, 25661.76
593.1099, 25654.45
593.5920, 25637.96
594.0741, 25620.05
594.5562, 25601.61
595.0383, 25585.47
595.5204, 25577.38
596.0026, 25579.79
596.4847, 25585.17
596.9668, 25579.54
597.4489, 25560.16
597.9310, 25550.75
598.4131, 25559.05
598.8953, 25568.45
599.3774, 25573.92
599.8595, 25574.07
600.3416, 25564.75
600.8237, 25541.22
601.3058, 25518.86
601.7880, 25509.76
602.2701, 25510.60
602.7522, 25514.52
603.2343, 25520.43
603.7164, 25525.67
604.1985, 25528.47
604.6807, 25528.68
605.1628, 25525.11
605.6449, 25514.94
606.1270, 25505.17
606.6091, 25499.02
607.0912, 25492.45
607.5734, 25479.91
608.0555, 25462.44
608.5376, 25447.26
609.0197, 25440.83
609.5018, 25440.99
609.9839, 25437.87
610.4661, 25429.37
610.9482, 25424.48
611.4303, 25431.18
611.9124, 25438.07
612.3945, 25435.46
612.8766, 25424.06
613.3588, 25412.55
613.8409, 25403.75
614.3230, 25397.32
614.8051, 25392.42
615.2872, 25389.35
615.7693, 25390.38
616.2515, 25396.78
616.7336, 25405.14
617.2157, 25410.87
617.6978, 25413.67
618.1799, 25414.16
618.6620, 25412.78
619.1442, 25408.58
619.6263, 25395.67
620.1084, 25381.66
620.5905, 25379.28
621.0726, 25391.82
621.5547, 25407.34
622.0369, 25409.95
622.5190, 25400.44
623.0011, 25398.36
623.4832, 25408.00
623.9653, 25415.77
624.4474, 25414.33
624.9296, 25407.42
625.4117, 25399.20
625.8938, 25389.60
626.3759, 25381.08
626.8580, 25372.35
627.3401, 25366.76
627.8223, 25372.61
628.3044, 25387.51
628.7865, 25395.16
629.2686, 25385.31
629.7507, 25365.46
630.2328, 25355.37
630.7150, 25364.31
631.1971, 25364.41
631.6792, 25348.63
632.1613, 25332.01
632.6434, 25321.28
633.1255, 25315.49
633.6077, 25311.95
634.0898, 25309.84
634.5719, 25307.54
635.0540, 25303.43
635.5361, 25297.43
636.0182, 25287.71
636.5004, 25272.20
636.9825, 25258.70
637.4646, 25252.90
637.9467, 25254.06
638.4288, 25258.04
638.9109, 25270.61
639.3931, 25276.97
639.8752, 25266.00
640.3573, 25250.41
640.8394, 25245.56
641.3215, 25251.18
641.8036, 25255.41
642.2858, 25249.29
642.7679, 25236.20
643.2500, 25228.56
643.7321, 25229.21
644.2142, 25227.76
644.6964, 25220.06
645.1785, 25212.14
645.6606, 25207.18
646.1427, 25204.76
646.6248, 25203.32
647.1069, 25203.16
647.5891, 25202.43
648.0712, 25198.15
648.5533, 25191.83
649.0354, 25189.19
649.5175, 25191.90
649.9996, 25192.94
650.4818, 25184.31
650.9639, 25167.03
651.4460, 25159.53
651.9281, 25169.86
652.4102, 25178.75
652.8923, 25187.01
653.3745, 25190.13
653.8566, 25180.94
654.3387, 25161.62
654.8208, 25143.16
655.3029, 25133.28
655.7850, 25129.66
656.2672, 25126.79
656.7493, 25124.56
657.2314, 25125.37
657.7135, 25131.79
658.1956, 25138.71
658.6777, 25138.46
659.1599, 25133.02
659.6420, 25134.06
660.1241, 25151.47
660.6062, 25166.57
661.0883, 25167.05
661.5704, 25160.61
662.0526, 25159.76
662.5347, 25166.42
663.0168, 25171.79
663.4989, 25166.49
663.9810, 25152.74
664.4631, 25150.01
664.9453, 25165.98
665.4274, 25176.31
665.9095, 25170.52
666.3916, 25161.19
666.8737, 25154.21
667.3558, 25151.03
667.8380, 25155.85
668.3201, 25182.84
668.8022, 25207.39
669.2843, 25199.91
669.7664, 25169.36
670.2485, 25141.35
670.7307, 25122.90
671.2128, 25113.13
671.6949, 25112.45
672.1770, 25120.91
672.6591, 25126.04
673.1412, 25129.11
673.6234, 25127.06
674.1055, 25111.90
674.5876, 25096.77
675.0697, 25095.33
675.5518, 25106.37
676.0339, 25116.06
676.5161, 25114.42
676.9982, 25106.67
677.4803, 25102.25
677.9624, 25100.88
678.4445, 25098.01
678.9266, 25091.25
679.4088, 25085.46
679.8909, 25086.87
680.3730, 25095.35
680.8551, 25098.68
681.3372, 25093.91
681.8193, 25087.60
682.3015, 25077.22
682.7836, 25068.79
683.2657, 25071.49
683.7478, 25084.17
684.2299, 25095.42
684.7120, 25096.34
685.1942, 25089.50
685.6763, 25082.31
686.1584, 25074.99
686.6405, 25065.45
687.1226, 25049.61
687.6047, 25036.46
688.0869, 25040.06
688.5690, 25055.03
689.0511, 25058.09
689.5332, 25036.00
690.0153, 25012.75
690.4974, 24997.32
690.9796, 24988.19
691.4617, 24984.40
691.9438, 24985.17
692.4259, 24988.41
692.9080, 24992.83
693.3901, 24997.78
693.8723, 25000.78
694.3544, 25001.37
694.8365, 25001.04
695.3186, 24998.39
695.8007, 24996.34
696.2828, 24998.75
696.7650, 25003.14
697.2471, 25002.29
697.7292, 24991.77
698.2113, 24979.99
698.6934, 24971.79
699.1755, 24966.22
699.6577, 24961.36
700.1398, 24957.26
700.6219, 24956.89
701.1040, 24963.16
701.5861, 24973.02
702.0682, 24975.70
702.5504, 24968.04
703.0325, 24960.40
703.5146, 24952.44
703.9967, 24945.64
704.4788, 24941.25
704.9609, 24938.45
705.4431, 24935.16
705.9252, 24929.94
706.4073, 24926.90
706.8894, 24932.02
707.3715, 24940.51
707.8536, 24942.53
708.3358, 24937.48
708.8179, 24931.88
709.3000, 24929.56
709.7821, 24929.41
710.2642, 24929.03
710.7463, 24929.91
711.2285, 24927.11
711.7106, 24919.74
712.1927, 24909.89
712.6748, 24896.78
713.1569, 24882.38
713.6390, 24868.62
714.1212, 24855.88
714.6033, 24847.16
715.0854, 24846.10
715.5675, 24850.38
716.0496, 24860.28
716.5317, 24874.18
717.0139, 24870.33
717.4960, 24833.88
717.9781, 24789.89
718.4602, 24782.91
718.9423, 24826.43
719.4244, 24851.91
719.9066, 24852.84
720.3887, 24844.56
720.8708, 24824.94
721.3529, 24802.08
721.8350, 24784.72
722.3171, 24774.44
722.7993, 24766.56
723.2814, 24756.76
723.7635, 24747.47
724.2456, 24746.45
724.7277, 24751.96
725.2098, 24746.88
725.6920, 24722.96
726.1741, 24699.32
726.6562, 24701.09
727.1383, 24730.11
727.6204, 24739.78
728.1025, 24707.65
728.5847, 24686.15
729.0668, 24693.94
729.5489, 24708.84
730.0310, 24708.84
730.5131, 24695.83
730.9952, 24689.78
731.4774, 24706.45
731.9595, 24728.72
732.4416, 24731.06
732.9237, 24717.22
733.4058, 24704.52
733.8879, 24696.33
734.3701, 24690.27
734.8522, 24684.87
735.3343, 24679.81
735.8164, 24673.60
736.2985, 24659.03
736.7806, 24653.97
737.2628, 24672.04
737.7449, 24687.06
738.2270, 24675.99
738.7091, 24650.45
739.1912, 24639.90
739.6733, 24658.40
740.1555, 24677.15
740.6376, 24658.80
741.1197, 24619.45
741.6018, 24605.03
742.0839, 24618.82
742.5660, 24631.35
743.0482, 24625.98
743.5303, 24612.30
744.0124, 24609.79
744.4945, 24622.25
744.9766, 24633.52
745.4587, 24649.81
745.9409, 24657.65
746.4230, 24644.57
746.9051, 24624.60
747.3872, 24613.88
747.8693, 24615.57
748.3514, 24623.29
748.8336, 24637.35
749.3157, 24652.13
749.7978, 24660.98
750.2799, 24663.35
750.7620, 24654.49
751.2441, 24632.25
751.7263, 24607.29
752.2084, 24590.54
752.6905, 24581.97
753.1726, 24578.82
753.6547, 24590.04
754.1368, 24592.99
754.6190, 24578.72
755.1011, 24560.94
755.5832, 24544.85
756.0653, 24533.49
756.5474, 24534.89
757.0295, 24559.37
757.5117, 24582.81
757.9938, 24579.30
758.4759, 24561.04
758.9580, 24554.68
759.4401, 24561.80
759.9222, 24560.50
760.4044, 24534.65
760.8865, 24499.03
761.3686, 24493.56
761.8507, 24533.26
762.3328, 24557.61
762.8149, 24561.03
763.2971, 24555.07
763.7792, 24537.49
764.2613, 24517.30
764.7434, 24507.43
765.2255, 24510.58
765.7076, 24514.60
766.1898, 24511.82
766.6719, 24508.99
767.1540, 24514.93
767.6361, 24525.90
768.1182, 24531.40
768.6003, 24528.27
769.0825, 24522.09
769.5646, 24518.40
770.0467, 24517.14
770.5288, 24519.33
771.0109, 24525.54
771.4930, 24533.20
771.9752, 24543.65
772.4573, 24553.03
772.9394, 24558.72
773.4215, 24560.74
773.9036, 24558.85
774.3857, 24550.39
774.8679, 24541.96
775.3500, 24534.95
775.8321, 24530.29
776.3142, 24529.67
776.7963, 24532.46
777.2784, 24537.23
777.7606, 24543.51
778.2427, 24548.11
778.7248, 24544.17
779.2069, 24532.37
779.6890, 24524.38
780.1711, 24520.88
780.6533, 24521.14
781.1354, 24527.29
781.6175, 24534.45
782.0996, 24532.90
782.5817, 24519.76
783.0638, 24511.63
783.5460, 24515.72
784.0281, 24517.42
784.5102, 24508.49
784.9923, 24495.37
785.4744, 24484.09
785.9565, 24476.75
786.4387, 24475.84
786.9208, 24486.10
787.4029, 24500.34
787.8850, 24506.18
788.3671, 24505.34
788.8492, 24508.76
789.3314, 24519.42
789.8135, 24523.14
790.2956, 24506.31
790.7777, 24475.68
791.2598, 24459.17
791.7419, 24462.57
792.2241, 24469.59
792.7062, 24487.54
793.1883, 24500.94
793.6704, 24496.38
794.1525, 24484.91
794.6346, 24485.97
795.1168, 24504.83
795.5989, 24522.73
796.0810, 24530.54
796.5631, 24530.13
797.0452, 24521.11
797.5273, 24505.62
798.0095, 24486.03
798.4916, 24463.79
798.9737, 24450.18
799.4558, 24460.97
799.9379, 24490.68
800.4200, 24494.31
800.9022, 24460.84
801.3843, 24441.29
801.8664, 24458.10
802.3485, 24477.34
802.8306, 24462.58
803.3127, 24426.83
803.7949, 24411.83
804.2770, 24434.28
804.7591, 24455.06
805.2412, 24456.19
805.7233, 24457.62
806.2054, 24484.33
806.6876, 24523.84
807.1697, 24543.70
807.6518, 24531.12
808.1339, 24509.12
808.6160, 24503.33
809.0981, 24509.33
809.5803, 24512.42
810.0624, 24512.31
810.5445, 24510.38
811.0266, 24506.26
811.5087, 24503.63
811.9908, 24508.66
812.4730, 24521.41
812.9551, 24521.68
813.4372, 24496.99
813.9193, 24476.89
814.4014, 24464.22
814.8835, 24457.17
815.3657, 24454.74
815.8478, 24456.83
816.3299, 24464.76
816.8120, 24482.07
817.2941, 24495.90
817.7762, 24495.91
818.2584, 24488.13
818.7405, 24479.79
819.2226, 24471.43
819.7047, 24459.73
820.1868, 24443.24
820.6689, 24430.96
821.1511, 24437.74
821.6332, 24462.20
822.1153, 24476.35
822.5974, 24477.27
823.0795, 24478.86
823.5616, 24487.12
824.0438, 24495.11
824.5259, 24493.51
825.0080, 24483.74
825.4901, 24480.61
825.9722, 24497.76
826.4543, 24503.62
826.9365, 24474.49
827.4186, 24446.15
827.9007, 24453.76
828.3828, 24485.04
828.8649, 24505.12
829.3470, 24499.93
829.8292, 24487.58
830.3113, 24484.30
830.7934, 24487.04
831.2755, 24490.80
831.7576, 24494.75
832.2397, 24495.45
832.7219, 24491.38
833.2040, 24485.80
833.6861, 24482.80
834.1682, 24482.09
834.6503, 24479.33
835.1324, 24472.41
835.6146, 24468.26
836.0967, 24472.68
836.5788, 24475.53
837.0609, 24467.05
837.5430, 24451.84
838.0251, 24442.71
838.5073, 24443.57
838.9894, 24445.71
839.4715, 24445.35
839.9536, 24446.15
840.4357, 24453.72
840.9178, 24464.24
841.4000, 24470.18
841.8821, 24469.20
842.3642, 24463.74
842.8463, 24454.18
843.3284, 24442.80
843.8105, 24434.37
844.2927, 24428.97
844.7748, 24428.52
845.2569, 24433.97
845.7390, 24439.71
846.2211, 24440.50
846.7032, 24437.70
847.1854, 24438.45
847.6675, 24448.50
848.1496, 24449.07
848.6317, 24427.49
849.1138, 24409.49
849.5959, 24409.42
850.0781, 24418.24
850.5602, 24422.65
851.0423, 24420.73
851.5244, 24418.37
852.0065, 24417.96
852.4886, 24417.46
852.9708, 24415.44
853.4529, 24412.50
853.9350, 24409.28
854.4171, 24406.10
854.8992, 24403.71
855.3813, 24402.89
855.8635, 24402.42
856.3456, 24399.09
856.8277, 24393.87
857.3098, 24393.90
857.7919, 24400.50
858.2740, 24401.34
858.7562, 24387.43
859.2383, 24369.79
859.7204, 24370.68
860.2025, 24396.15
860.6846, 24404.53
861.1667, 24374.58
861.6489, 24359.75
862.1310, 24389.36
862.6131, 24426.48
863.0952, 24438.48
863.5773, 24428.93
864.0594, 24423.99
864.5416, 24436.21
865.0237, 24443.50
865.5058, 24427.16
865.9879, 24408.32
866.4700, 24409.50
866.9521, 24425.68
867.4343, 24441.66
867.9164, 24451.16
868.3985, 24452.40
868.8806, 24436.95
869.3627, 24413.65
869.8448, 24405.96
870.3270, 24412.80
870.8091, 24424.54
871.2912, 24439.15
871.7733, 24448.68
872.2554, 24444.42
872.7375, 24430.27
873.2197, 24424.84
873.7018, 24429.13
874.1839, 24440.45
874.6660, 24469.36
875.1481, 24490.88
875.6302, 24485.79
876.1124, 24468.11
876.5945, 24457.09
877.0766, 24454.10
877.5587, 24453.40
878.0408, 24454.94
878.5229, 24457.19
879.0051, 24459.66
879.4872, 24462.35
879.9693, 24462.62
880.4514, 24462.70
880.9335, 24472.78
881.4156, 24502.64
881.8978, 24530.49
882.3799, 24522.65
882.8620, 24499.03
883.3441, 24507.01
883.8262, 24543.62
884.3083, 24568.51
884.7905, 24563.96
885.2726, 24549.76
885.7547, 24552.48
886.2368, 24569.65
886.7189, 24576.51
887.2010, 24570.98
887.6832, 24564.52
888.1653, 24558.97
888.6474, 24554.12
889.1295, 24548.34
889.6116, 24543.33
890.0938, 24546.13
890.5759, 24562.11
891.0580, 24574.98
891.5401, 24582.62
892.0222, 24589.13
892.5043, 24595.70
892.9865, 24602.51
893.4686, 24610.71
893.9507, 24619.88
894.4328, 24625.61
894.9149, 24623.13
895.3970, 24619.65
895.8792, 24619.84
896.3613, 24622.42
896.8434, 24626.21
897.3255, 24630.69
897.8076, 24634.80
898.2897, 24638.00
898.7719, 24641.82
899.2540, 24648.41
899.7361, 24657.27
900.2182, 24669.38
900.7003, 24684.11
901.1824, 24685.74
901.6646, 24667.47
902.1467, 24652.28
902.6288, 24665.64
903.1109, 24698.83
903.5930, 24703.59
904.0751, 24662.22
904.5573, 24645.64
905.0394, 24677.40
905.5215, 24706.66
906.0036, 24701.07
906.4857, 24681.31
906.9678, 24680.38
907.4500, 24701.12
907.9321, 24715.55
908.4142, 24715.25
908.8963, 24714.64
909.3784, 24719.08
909.8605, 24725.04
910.3427, 24728.66
910.8248, 24730.64
911.3069, 24733.00
911.7890, 24734.93
912.2711, 24744.60
912.7532, 24779.93
913.2354, 24817.68
913.7175, 24824.96
914.1996, 24810.28
914.6817, 24799.57
915.1638, 24800.06
915.6459, 24802.06
916.1280, 24795.77
916.6101, 24787.62
917.0922, 24795.16
917.5743, 24816.77
918.0565, 24836.94
918.5386, 24854.28
919.0207, 24862.69
919.5028, 24857.17
919.9849, 24846.21
920.4670, 24843.66
920.9492, 24849.91
921.4313, 24862.86
921.9134, 24891.39
922.3955, 24906.54
922.8776, 24889.75
923.3597, 24870.43
923.8419, 24875.71
924.3240, 24897.27
924.8061, 24909.78
925.2882, 24907.10
925.7703, 24906.92
926.2524, 24915.51
926.7346, 24922.47
927.2167, 24916.93
927.6988, 24909.92
928.1809, 24919.81
928.6630, 24945.19
929.1451, 24960.56
929.6273, 24949.10
930.1094, 24932.01
930.5915, 24922.26
931.0736, 24917.64
931.5557, 24917.26
932.0378, 24919.33
932.5200, 24921.85
933.0021, 24923.69
933.4842, 24917.97
933.9663, 24891.64
934.4484, 24855.71
934.9305, 24838.82
935.4127, 24837.47
935.8948, 24832.16
936.3769, 24819.02
936.8590, 24804.88
937.3411, 24794.69
937.8232, 24785.28
938.3054, 24766.87
938.7875, 24737.16
939.2696, 24723.88
939.7517, 24731.33
940.2338, 24739.55
940.7159, 24742.97
941.1981, 24742.67
941.6802, 24739.14
942.1623, 24732.65
942.6444, 24725.89
943.1265, 24720.85
943.6086, 24711.94
944.0908, 24695.92
944.5729, 24679.66
945.0550, 24669.95
945.5371, 24659.46
946.0192, 24632.58
946.5013, 24589.33
946.9835, 24565.84
947.4656, 24592.62
947.9477, 24613.48
948.4298, 24599.35
948.9119, 24575.03
949.3940, 24562.31
949.8762, 24558.73
950.3583, 24552.36
950.8404, 24539.26
951.3225, 24527.89
951.8046, 24529.52
952.2867, 24531.52
952.7689, 24513.39
953.2510, 24487.32
953.7331, 24480.89
954.2152, 24494.73
954.6973, 24504.52
955.1794, 24495.01
955.6616, 24480.08
956.1437, 24483.29
956.6258, 24497.76
957.1079, 24497.94
957.5900, 24484.24
958.0721, 24470.35
958.5543, 24460.34
959.0364, 24455.26
959.5185, 24456.53
960.0006, 24462.75
960.4827, 24472.40
960.9648, 24487.85
961.4470, 24481.75
961.9291, 24444.64
962.4112, 24415.27
962.8933, 24414.98
963.3754, 24423.67
963.8575, 24414.38
964.3397, 24387.58
964.8218, 24367.12
965.3039, 24354.84
965.7860, 24345.92
966.2681, 24341.17
966.7502, 24338.44
967.2324, 24336.89
967.7145, 24336.54
968.1966, 24338.53
968.6787, 24343.64
969.1608, 24344.01
969.6429, 24338.37
970.1251, 24328.11
970.6072, 24306.78
971.0893, 24286.95
971.5714, 24280.43
972.0535, 24283.40
972.5356, 24285.45
973.0178, 24283.80
973.4999, 24281.12
973.9820, 24275.49
974.4641, 24272.56
974.9462, 24285.13
975.4283, 24298.22
975.9105, 24285.79
976.3926, 24251.72
976.8747, 24223.70
977.3568, 24215.88
977.8389, 24216.43
978.3210, 24217.06
978.8032, 24216.76
979.2853, 24212.14
979.7674, 24205.44
980.2495, 24203.66
980.7316, 24207.94
981.2137, 24212.99
981.6959, 24215.21
982.1780, 24214.64
982.6601, 24207.55
983.1422, 24197.50
983.6243, 24203.89
984.1064, 24225.79
984.5886, 24236.35
985.0707, 24225.29
985.5528, 24213.06
986.0349, 24222.51
986.5170, 24244.58
986.9991, 24240.52
987.4813, 24207.37
987.9634, 24196.37
988.4455, 24215.65
988.9276, 24239.71
989.4097, 24259.37
989.8918, 24272.64
990.3740, 24277.42
990.8561, 24273.64
991.3382, 24257.46
991.8203, 24219.27
992.3024, 24194.20
992.7845, 24187.20
993.2667, 24192.56
993.7488, 24213.68
994.2309, 24240.71
994.7130, 24257.64
995.1951, 24263.65
995.6772, 24265.80
996.1594, 24261.56
996.6415, 24256.80
997.1236, 24252.30
997.6057, 24247.13
998.0878, 24236.75
998.5699, 24226.58
999.0521, 24229.32
999.5342, 24248.72
1000.016, 24258.71
1000.498, 24247.25
1000.981, 24234.95
1001.463, 24229.21
1001.945, 24225.79
1002.427, 24220.54
1002.909, 24214.71
1003.391, 24211.85
1003.873, 24213.18
1004.355, 24215.56
1004.837, 24222.22
1005.320, 24224.51
1005.802, 24213.22
1006.284, 24196.86
1006.766, 24184.83
1007.248, 24177.61
1007.730, 24171.27
1008.212, 24163.94
1008.694, 24160.77
1009.177, 24168.64
1009.659, 24179.80
1010.141, 24186.65
1010.623, 24190.68
1011.105, 24195.10
1011.587, 24199.99
1012.069, 24202.35
1012.551, 24200.21
1013.033, 24198.97
1013.516, 24205.98
1013.998, 24216.86
1014.480, 24226.60
1014.962, 24233.40
1015.444, 24229.00
1015.926, 24214.64
1016.408, 24209.93
1016.890, 24228.85
1017.372, 24253.07
1017.855, 24254.31
1018.337, 24238.97
1018.819, 24224.04
1019.301, 24211.15
1019.783, 24207.39
1020.265, 24213.98
1020.747, 24219.40
1021.229, 24214.02
1021.712, 24207.06
1022.194, 24224.48
1022.676, 24260.61
1023.158, 24260.08
1023.640, 24221.86
1024.122, 24191.76
1024.604, 24182.72
1025.086, 24188.58
1025.568, 24206.71
1026.051, 24229.84
1026.533, 24237.88
1027.015, 24229.94
1027.497, 24223.31
1027.979, 24217.39
1028.461, 24221.07
1028.943, 24240.50
1029.425, 24256.55
1029.908, 24250.70
1030.390, 24230.14
1030.872, 24218.24
1031.354, 24216.43
1031.836, 24217.44
1032.318, 24222.98
1032.800, 24225.65
1033.282, 24221.49
1033.765, 24217.06
1034.247, 24218.25
1034.729, 24224.21
1035.211, 24231.88
1035.693, 24242.19
1036.175, 24250.73
1036.657, 24254.15
1037.139, 24263.07
1037.621, 24287.14
1038.104, 24309.51
1038.586, 24313.10
1039.068, 24301.93
1039.550, 24292.98
1040.032, 24285.96
1040.514, 24282.22
1040.996, 24285.40
1041.478, 24286.67
1041.960, 24283.63
1042.443, 24277.51
1042.925, 24266.26
1043.407, 24252.60
1043.889, 24248.46
1044.371, 24262.06
1044.853, 24266.77
1045.335, 24255.34
1045.817, 24243.78
1046.300, 24234.42
1046.782, 24228.98
1047.264, 24229.88
1047.746, 24235.97
1048.228, 24244.10
1048.710, 24258.15
1049.192, 24262.85
1049.674, 24245.64
1050.156, 24232.41
1050.639, 24235.57
1051.121, 24243.57
1051.603, 24246.15
1052.085, 24244.57
1052.567, 24245.44
1053.049, 24252.03
1053.531, 24252.89
1054.013, 24237.52
1054.495, 24226.67
1054.978, 24234.36
1055.460, 24245.47
1055.942, 24242.19
1056.424, 24231.08
1056.906, 24236.18
1057.388, 24268.82
1057.870, 24284.76
1058.352, 24254.47
1058.835, 24227.22
1059.317, 24227.17
1059.799, 24237.51
1060.281, 24242.07
1060.763, 24243.50
1061.245, 24254.72
1061.727, 24281.25
1062.209, 24295.94
1062.692, 24280.23
1063.174, 24262.47
1063.656, 24257.16
1064.138, 24254.38
1064.620, 24242.16
1065.102, 24225.48
1065.584, 24218.70
1066.066, 24225.60
1066.548, 24228.92
1067.031, 24214.93
1067.513, 24204.78
1067.995, 24215.30
1068.477, 24228.32
1068.959, 24222.60
1069.441, 24208.12
1069.923, 24211.00
1070.405, 24236.30
1070.887, 24252.01
1071.370, 24233.91
1071.852, 24217.21
1072.334, 24227.46
1072.816, 24238.59
1073.298, 24218.49
1073.780, 24186.18
1074.262, 24182.42
1074.744, 24212.45
1075.227, 24237.07
1075.709, 24233.37
1076.191, 24229.09
1076.673, 24244.49
1077.155, 24257.65
1077.637, 24242.82
1078.119, 24216.92
1078.601, 24212.24
1079.083, 24230.35
1079.566, 24238.97
1080.048, 24215.80
1080.530, 24198.81
1081.012, 24215.14
1081.494, 24235.48
1081.976, 24236.59
1082.458, 24227.92
1082.940, 24224.75
1083.422, 24227.93
1083.905, 24228.16
1084.387, 24220.15
1084.869, 24214.34
1085.351, 24219.60
1085.833, 24224.57
1086.315, 24219.34
1086.797, 24210.77
1087.279, 24207.69
1087.761, 24209.89
1088.244, 24211.68
1088.726, 24210.33
1089.208, 24212.67
1089.690, 24229.66
1090.172, 24241.85
1090.654, 24231.49
1091.136, 24215.24
1091.618, 24209.00
1092.101, 24212.96
1092.583, 24223.45
1093.065, 24240.62
1093.547, 24254.76
1094.029, 24267.80
1094.511, 24269.55
1094.993, 24242.10
1095.475, 24212.27
1095.958, 24206.63
1096.440, 24216.35
1096.922, 24218.44
1097.404, 24208.27
1097.886, 24205.07
1098.368, 24228.36
1098.850, 24241.47
1099.332, 24217.97
1099.814, 24192.74
1100.297, 24198.98
1100.779, 24217.11
1101.261, 24208.71
1101.743, 24172.43
1102.225, 24154.56
1102.707, 24186.43
1103.189, 24207.67
1103.671, 24193.84
1104.153, 24175.93
1104.636, 24176.01
1105.118, 24178.91
1105.600, 24160.62
1106.082, 24125.05
1106.564, 24102.23
1107.046, 24097.54
1107.528, 24104.50
1108.010, 24130.55
1108.493, 24156.96
1108.975, 24184.44
1109.457, 24201.97
1109.939, 24187.27
1110.421, 24155.09
1110.903, 24156.39
1111.385, 24213.43
1111.867, 24239.52
1112.349, 24203.66
1112.832, 24168.72
1113.314, 24146.89
1113.796, 24134.11
1114.278, 24128.18
1114.760, 24129.01
1115.242, 24140.74
1115.724, 24167.45
1116.206, 24173.41
1116.688, 24131.35
1117.171, 24113.17
1117.653, 24148.83
1118.135, 24179.62
1118.617, 24167.21
1119.099, 24142.00
1119.581, 24147.46
1120.063, 24180.69
1120.545, 24195.88
1121.028, 24178.99
1121.510, 24177.18
1121.992, 24203.77
1122.474, 24221.86
1122.956, 24211.99
1123.438, 24198.58
1123.920, 24208.27
1124.402, 24232.07
1124.885, 24235.14
1125.367, 24210.43
1125.849, 24197.09
1126.331, 24199.29
1126.813, 24198.52
1127.295, 24187.61
1127.777, 24181.11
1128.259, 24190.71
1128.741, 24208.97
1129.224, 24223.17
1129.706, 24233.10
1130.188, 24223.82
1130.670, 24190.93
1131.152, 24176.38
1131.634, 24188.57
1132.116, 24203.85
1132.598, 24211.07
1133.080, 24211.63
1133.563, 24204.72
1134.045, 24195.70
1134.527, 24212.20
1135.009, 24252.09
1135.491, 24267.83
1135.973, 24256.40
1136.455, 24243.98
1136.937, 24239.27
1137.420, 24234.62
1137.902, 24222.79
1138.384, 24210.90
1138.866, 24214.95
1139.348, 24230.74
1139.830, 24240.53
1140.312, 24245.88
1140.794, 24261.32
1141.276, 24286.56
1141.759, 24295.52
1142.241, 24273.59
1142.723, 24243.82
1143.205, 24232.49
1143.687, 24233.16
1144.169, 24236.26
1144.651, 24240.96
1145.133, 24245.85
1145.615, 24250.40
1146.098, 24251.34
1146.580, 24248.75
1147.062, 24254.52
1147.544, 24283.88
1148.026, 24311.55
1148.508, 24302.43
1148.990, 24282.46
1149.472, 24286.98
1149.955, 24305.85
1150.437, 24315.93
1150.919, 24314.82
1151.401, 24314.54
1151.883, 24320.22
1152.365, 24327.63
1152.847, 24336.37
1153.329, 24343.28
1153.812, 24344.53
1154.294, 24343.86
1154.776, 24346.04
1155.258, 24349.82
1155.740, 24350.00
1156.222, 24345.43
1156.704, 24345.68
1157.186, 24360.37
1157.668, 24371.57
1158.151, 24371.12
1158.633, 24367.84
1159.115, 24366.74
1159.597, 24366.66
1160.079, 24366.24
1160.561, 24365.13
1161.043, 24361.70
1161.525, 24352.03
1162.007, 24347.83
1162.490, 24354.62
1162.972, 24360.36
1163.454, 24359.25
1163.936, 24359.07
1164.418, 24369.47
1164.900, 24382.64
1165.382, 24378.90
1165.864, 24355.17
1166.347, 24349.81
1166.829, 24372.71
1167.311, 24383.91
1167.793, 24373.99
1168.275, 24364.67
1168.757, 24366.40
1169.239, 24372.64
1169.721, 24375.59
1170.203, 24376.84
1170.686, 24384.54
1171.168, 24399.10
1171.650, 24402.06
1172.132, 24392.09
1172.614, 24394.64
1173.096, 24416.89
1173.578, 24438.24
1174.060, 24444.65
1174.542, 24443.01
1175.025, 24443.79
1175.507, 24445.42
1175.989, 24440.36
1176.471, 24431.63
1176.953, 24432.23
1177.435, 24441.68
1177.917, 24447.21
1178.399, 24444.98
1178.882, 24447.54
1179.364, 24467.58
1179.846, 24490.96
1180.328, 24501.35
1180.810, 24503.43
1181.292, 24501.68
1181.774, 24497.79
1182.256, 24493.71
1182.739, 24489.84
1183.221, 24485.98
1183.703, 24482.09
1184.185, 24478.16
1184.667, 24470.58
1185.149, 24467.47
1185.631, 24484.28
1186.113, 24498.55
1186.595, 24476.35
1187.078, 24442.25
1187.560, 24448.77
1188.042, 24498.06
1188.524, 24526.97
1189.006, 24504.67
1189.488, 24490.60
1189.970, 24503.72
1190.452, 24515.25
1190.934, 24509.94
1191.417, 24502.01
1191.899, 24506.52
1192.381, 24516.98
1192.863, 24515.94
1193.345, 24500.80
1193.827, 24494.40
1194.309, 24502.23
1194.791, 24501.72
1195.274, 24484.86
1195.756, 24475.74
1196.238, 24487.82
1196.720, 24506.52
1197.202, 24516.35
1197.684, 24518.29
1198.166, 24513.11
1198.648, 24501.32
1199.130, 24500.93
1199.613, 24511.28
1200.095, 24506.99
1200.577, 24483.75
1201.059, 24472.25
1201.541, 24490.40
1202.023, 24518.60
1202.505, 24537.50
1202.987, 24545.67
1203.469, 24533.79
1203.952, 24512.09
1204.434, 24501.11
1204.916, 24500.39
1205.398, 24503.74
1205.880, 24508.71
1206.362, 24513.44
1206.844, 24517.75
1207.326, 24518.46
1207.809, 24513.20
1208.291, 24503.44
1208.773, 24481.35
1209.255, 24462.77
1209.737, 24474.23
1210.219, 24500.77
1210.701, 24500.38
1211.183, 24465.89
1211.666, 24452.21
1212.148, 24493.21
1212.630, 24523.32
1213.112, 24527.29
1213.594, 24522.10
1214.076, 24505.74
1214.558, 24492.04
1215.040, 24495.36
1215.522, 24510.06
1216.005, 24520.21
1216.487, 24525.17
1216.969, 24529.83
1217.451, 24535.10
1217.933, 24535.62
1218.415, 24530.21
1218.897, 24520.57
1219.379, 24506.27
1219.861, 24495.08
1220.344, 24496.15
1220.826, 24504.40
1221.308, 24505.99
1221.790, 24502.98
1222.272, 24508.18
1222.754, 24518.62
1223.236, 24514.55
1223.718, 24495.85
1224.201, 24486.30
1224.683, 24496.98
1225.165, 24508.62
1225.647, 24500.95
1226.129, 24489.22
1226.611, 24490.12
1227.093, 24496.80
1227.575, 24500.60
1228.057, 24503.84
1228.540, 24515.01
1229.022, 24531.46
1229.504, 24536.00
1229.986, 24519.12
1230.468, 24510.15
1230.950, 24529.10
1231.432, 24543.69
1231.914, 24534.67
1232.396, 24525.43
1232.879, 24535.22
1233.361, 24552.71
1233.843, 24562.00
1234.325, 24563.66
1234.807, 24559.80
1235.289, 24544.26
1235.771, 24544.26
1236.253, 24564.15
1236.736, 24586.44
1237.218, 24610.14
1237.700, 24617.09
1238.182, 24592.79
1238.664, 24562.45
1239.146, 24564.05
1239.628, 24584.91
1240.110, 24582.00
1240.593, 24561.38
1241.075, 24547.41
1241.557, 24541.31
1242.039, 24539.46
1242.521, 24540.76
1243.003, 24546.43
1243.485, 24557.80
1243.967, 24564.97
1244.449, 24550.94
1244.932, 24538.07
1245.414, 24552.07
1245.896, 24574.30
1246.378, 24583.93
1246.860, 24586.40
1247.342, 24596.53
1247.824, 24613.55
1248.306, 24618.82
1248.788, 24602.44
1249.271, 24589.98
1249.753, 24590.72
1250.235, 24588.48
1250.717, 24570.27
1251.199, 24559.99
1251.681, 24577.76
1252.163, 24603.07
1252.645, 24606.57
1253.128, 24592.03
1253.610, 24581.36
1254.092, 24573.97
1254.574, 24578.07
1255.056, 24594.24
1255.538, 24608.16
1256.020, 24616.50
1256.502, 24621.86
1256.984, 24625.69
1257.467, 24626.42
1257.949, 24620.91
1258.431, 24613.43
1258.913, 24611.29
1259.395, 24612.23
1259.877, 24611.85
1260.359, 24611.59
1260.841, 24615.34
1261.323, 24623.02
1261.806, 24632.79
1262.288, 24644.85
1262.770, 24650.46
1263.252, 24634.77
1263.734, 24627.02
1264.216, 24649.63
1264.698, 24671.60
1265.180, 24670.71
1265.663, 24660.24
1266.145, 24655.46
1266.627, 24655.66
1267.109, 24659.01
1267.591, 24667.26
1268.073, 24664.78
1268.555, 24645.79
1269.037, 24647.24
1269.520, 24678.15
1270.002, 24700.38
1270.484, 24696.87
1270.966, 24683.20
1271.448, 24672.46
1271.930, 24667.27
1272.412, 24677.09
1272.894, 24693.69
1273.376, 24695.22
1273.859, 24688.43
1274.341, 24689.40
1274.823, 24698.28
1275.305, 24709.70
1275.787, 24721.03
1276.269, 24724.34
1276.751, 24705.82
1277.233, 24700.33
1277.715, 24745.02
1278.198, 24782.24
1278.680, 24772.06
1279.162, 24747.47
1279.644, 24734.37
1280.126, 24730.64
1280.608, 24728.60
1281.090, 24726.76
1281.572, 24729.84
1282.055, 24744.65
1282.537, 24751.20
1283.019, 24746.91
1283.501, 24747.34
##END=



