##NAMES=Yoshimuraite
##RRUFFID=R050266
##IDEAL CHEMISTRY=Ba_4_Mn^2+^_4_Ti^4+^_2_(Si_2_O_7_)_2_(PO_4_)_2_O_2_(OH)_2_
##LOCALITY=Taguchi mine, Shidara, Kitashidara-Gun, Aichi Prefecture, Japan
##OWNER=RRUFF
##SOURCE=Marcus Origlieri
##DESCRIPTION=Brown tabular crystals associated with katophorite, R050633.
##STATUS=The identification of this mineral is confirmed by single-crystal X-ray diffraction and chemical analysis.
##URL=rruff.info/R050266
##MEASURED CHEMISTRY=(Ba_1.82_Sr_0.18_)_Σ=2_(Ti_0.78_Fe^3+^_0.22_)_Σ=1_(Mn^2+^_1.62_Fe^2+^_0.38_)_Σ=2_O(Si_2.00_O_7_)((P_0.59_S_0.41_)_Σ=1_O_4_)((OH)_0.81_O_0.19_)_Σ=1_; OH estimated by charge balance
92.02539, 6861.346
92.50751, 6807.413
92.98962, 6831.601
93.47174, 6882.490
93.95386, 6959.545
94.43597, 7011.541
94.91809, 7028.042
95.40021, 7020.637
95.88232, 6999.263
96.36444, 6962.133
96.84656, 6914.025
97.32867, 6858.830
97.81078, 6799.892
98.29290, 6740.511
98.77502, 6678.294
99.25713, 6601.920
99.73925, 6532.943
100.2214, 6473.450
100.7035, 6419.247
101.1856, 6368.095
101.6677, 6319.089
102.1498, 6272.647
102.6320, 6229.018
103.1141, 6185.717
103.5962, 6152.133
104.0783, 6133.706
104.5604, 6121.675
105.0425, 6106.143
105.5247, 6083.386
106.0068, 6057.934
106.4889, 6036.260
106.9710, 6017.916
107.4531, 6000.740
107.9352, 5983.909
108.4173, 5967.260
108.8995, 5950.154
109.3816, 5930.575
109.8637, 5911.533
110.3458, 5896.856
110.8279, 5887.695
111.3100, 5879.478
111.7922, 5865.811
112.2743, 5844.337
112.7564, 5825.125
113.2385, 5812.478
113.7206, 5802.494
114.2027, 5791.729
114.6849, 5778.532
115.1670, 5763.970
115.6491, 5752.194
116.1312, 5746.257
116.6133, 5739.540
117.0954, 5731.319
117.5776, 5721.495
118.0597, 5709.747
118.5418, 5695.532
119.0239, 5678.718
119.5060, 5664.751
119.9881, 5653.667
120.4703, 5644.541
120.9524, 5637.921
121.4345, 5633.292
121.9166, 5628.908
122.3987, 5623.382
122.8808, 5616.461
123.3630, 5608.142
123.8451, 5596.369
124.3272, 5584.170
124.8093, 5574.768
125.2914, 5568.804
125.7735, 5564.448
126.2557, 5560.298
126.7378, 5556.285
127.2199, 5551.778
127.7020, 5546.285
128.1841, 5540.088
128.6662, 5534.314
129.1483, 5529.839
129.6305, 5524.869
130.1126, 5517.113
130.5947, 5506.972
131.0768, 5498.031
131.5589, 5493.963
132.0410, 5495.425
132.5232, 5496.546
133.0053, 5498.132
133.4874, 5498.127
133.9695, 5494.556
134.4516, 5487.310
134.9337, 5478.708
135.4159, 5472.356
135.8980, 5469.907
136.3801, 5466.625
136.8622, 5460.159
137.3443, 5453.933
137.8264, 5451.250
138.3086, 5453.287
138.7907, 5458.339
139.2728, 5461.721
139.7549, 5465.155
140.2370, 5464.706
140.7191, 5456.981
141.2013, 5445.671
141.6834, 5436.234
142.1655, 5431.675
142.6476, 5430.962
143.1297, 5429.493
143.6118, 5426.824
144.0939, 5424.103
144.5761, 5421.722
145.0582, 5419.683
145.5403, 5417.998
146.0224, 5417.064
146.5045, 5416.358
146.9866, 5414.370
147.4688, 5409.046
147.9509, 5404.084
148.4330, 5404.264
148.9151, 5410.603
149.3972, 5415.642
149.8793, 5412.867
150.3615, 5406.376
150.8436, 5400.857
151.3257, 5397.953
151.8078, 5397.043
152.2899, 5397.006
152.7720, 5398.519
153.2542, 5399.646
153.7363, 5398.969
154.2184, 5397.520
154.7005, 5397.005
155.1826, 5398.896
155.6647, 5402.806
156.1469, 5404.771
156.6290, 5404.016
157.1111, 5401.717
157.5932, 5395.795
158.0753, 5388.373
158.5574, 5383.954
159.0396, 5387.178
159.5217, 5399.598
160.0038, 5405.039
160.4859, 5398.778
160.9680, 5390.879
161.4501, 5384.429
161.9323, 5380.069
162.4144, 5377.726
162.8965, 5377.691
163.3786, 5381.014
163.8607, 5381.739
164.3428, 5378.006
164.8250, 5373.235
165.3071, 5369.858
165.7892, 5368.264
166.2713, 5367.351
166.7534, 5365.705
167.2355, 5363.122
167.7177, 5361.646
168.1998, 5362.840
168.6819, 5364.805
169.1640, 5365.031
169.6461, 5362.872
170.1282, 5359.484
170.6104, 5355.687
171.0925, 5351.530
171.5746, 5348.292
172.0567, 5346.862
172.5388, 5346.784
173.0209, 5346.846
173.5031, 5347.200
173.9852, 5347.067
174.4673, 5345.547
174.9494, 5342.789
175.4315, 5340.202
175.9136, 5338.828
176.3958, 5338.628
176.8779, 5338.757
177.3600, 5340.692
177.8421, 5341.454
178.3242, 5338.450
178.8063, 5331.959
179.2885, 5325.235
179.7706, 5321.454
180.2527, 5320.925
180.7348, 5322.158
181.2169, 5329.175
181.6990, 5334.880
182.1812, 5334.007
182.6633, 5326.413
183.1454, 5317.069
183.6275, 5313.347
184.1096, 5319.205
184.5917, 5322.423
185.0738, 5321.972
185.5560, 5320.033
186.0381, 5317.980
186.5202, 5316.211
187.0023, 5314.347
187.4844, 5311.683
187.9665, 5306.721
188.4487, 5303.422
188.9308, 5302.564
189.4129, 5302.907
189.8950, 5303.723
190.3771, 5304.739
190.8592, 5305.366
191.3414, 5304.264
191.8235, 5299.814
192.3056, 5296.714
192.7877, 5296.085
193.2698, 5296.915
193.7519, 5298.189
194.2341, 5299.736
194.7162, 5300.921
195.1983, 5300.140
195.6804, 5297.185
196.1625, 5293.864
196.6446, 5289.825
197.1268, 5285.788
197.6089, 5283.798
198.0910, 5285.432
198.5731, 5287.975
199.0552, 5286.973
199.5373, 5282.007
200.0195, 5276.591
200.5016, 5271.907
200.9837, 5268.103
201.4658, 5266.117
201.9479, 5267.062
202.4300, 5269.248
202.9122, 5270.828
203.3943, 5271.764
203.8764, 5272.190
204.3585, 5272.359
204.8406, 5272.275
205.3227, 5271.264
205.8048, 5268.293
206.2870, 5264.974
206.7691, 5262.148
207.2512, 5259.950
207.7333, 5258.761
208.2154, 5260.118
208.6975, 5265.028
209.1797, 5266.429
209.6618, 5257.814
210.1439, 5248.867
210.6260, 5245.734
211.1081, 5249.151
211.5902, 5254.482
212.0724, 5255.452
212.5545, 5250.180
213.0366, 5246.164
213.5187, 5243.728
214.0008, 5242.689
214.4829, 5243.327
214.9651, 5245.536
215.4472, 5248.550
215.9293, 5251.629
216.4114, 5256.392
216.8935, 5257.484
217.3756, 5252.164
217.8578, 5245.795
218.3399, 5241.975
218.8220, 5241.523
219.3041, 5242.884
219.7862, 5243.683
220.2683, 5243.173
220.7505, 5243.653
221.2326, 5246.924
221.7147, 5249.990
222.1968, 5250.027
222.6789, 5246.552
223.1610, 5241.781
223.6432, 5239.009
224.1253, 5239.548
224.6074, 5239.578
225.0895, 5238.225
225.5716, 5236.835
226.0537, 5236.646
226.5358, 5237.934
227.0180, 5240.182
227.5001, 5243.106
227.9822, 5247.720
228.4643, 5249.218
228.9464, 5244.059
229.4285, 5237.131
229.9107, 5234.226
230.3928, 5236.734
230.8749, 5240.759
231.3570, 5241.530
231.8391, 5238.979
232.3212, 5234.894
232.8034, 5227.566
233.2855, 5219.632
233.7676, 5214.534
234.2497, 5213.056
234.7318, 5213.511
235.2139, 5215.459
235.6961, 5218.624
236.1782, 5218.948
236.6603, 5212.331
237.1424, 5203.185
237.6245, 5198.735
238.1066, 5200.769
238.5888, 5204.369
239.0709, 5205.449
239.5530, 5204.476
240.0351, 5202.287
240.5172, 5198.955
240.9993, 5194.579
241.4815, 5188.815
241.9636, 5180.640
242.4457, 5173.608
242.9278, 5171.375
243.4099, 5172.133
243.8920, 5172.312
244.3742, 5169.884
244.8563, 5165.943
245.3384, 5163.237
245.8205, 5162.608
246.3026, 5161.314
246.7847, 5157.690
247.2668, 5152.521
247.7490, 5146.792
248.2311, 5140.116
248.7132, 5133.608
249.1953, 5130.634
249.6774, 5133.927
250.1595, 5135.155
250.6417, 5128.311
251.1238, 5118.283
251.6059, 5111.624
252.0880, 5112.076
252.5701, 5116.732
253.0522, 5118.420
253.5344, 5116.437
254.0165, 5112.596
254.4986, 5106.038
254.9807, 5098.807
255.4628, 5093.211
255.9449, 5090.403
256.4271, 5089.330
256.9092, 5087.325
257.3913, 5083.071
257.8734, 5080.560
258.3555, 5082.929
258.8376, 5085.995
259.3198, 5085.053
259.8019, 5078.211
260.2840, 5068.907
260.7661, 5064.557
261.2482, 5068.096
261.7303, 5071.211
262.2125, 5073.541
262.6946, 5074.735
263.1767, 5073.616
263.6588, 5070.015
264.1409, 5066.200
264.6230, 5066.813
265.1052, 5076.509
265.5873, 5081.285
266.0694, 5076.815
266.5515, 5070.462
267.0336, 5067.747
267.5157, 5069.833
267.9979, 5073.939
268.4800, 5075.837
268.9621, 5073.676
269.4442, 5073.379
269.9263, 5077.445
270.4084, 5081.225
270.8906, 5081.335
271.3727, 5077.572
271.8548, 5072.383
272.3369, 5068.710
272.8190, 5067.157
273.3011, 5065.354
273.7833, 5062.497
274.2654, 5060.144
274.7475, 5059.171
275.2296, 5059.610
275.7117, 5061.096
276.1938, 5063.431
276.6760, 5066.947
277.1581, 5069.290
277.6402, 5070.793
278.1223, 5071.163
278.6044, 5069.481
279.0865, 5066.350
279.5686, 5063.466
280.0508, 5062.142
280.5329, 5062.380
281.0150, 5063.553
281.4971, 5066.344
281.9792, 5069.114
282.4613, 5072.175
282.9435, 5074.757
283.4256, 5075.014
283.9077, 5071.461
284.3898, 5064.641
284.8719, 5059.819
285.3540, 5058.614
285.8362, 5057.170
286.3183, 5053.755
286.8004, 5049.460
287.2825, 5046.631
287.7646, 5046.674
288.2467, 5048.393
288.7289, 5047.491
289.2110, 5040.813
289.6931, 5035.662
290.1752, 5034.231
290.6573, 5034.753
291.1394, 5034.951
291.6216, 5033.983
292.1037, 5032.077
292.5858, 5029.580
293.0679, 5026.522
293.5500, 5022.909
294.0321, 5018.229
294.5143, 5013.239
294.9964, 5008.463
295.4785, 5004.038
295.9606, 5000.613
296.4427, 4999.214
296.9248, 5000.547
297.4070, 5002.072
297.8891, 5004.322
298.3712, 5006.358
298.8533, 5007.345
299.3354, 5007.155
299.8175, 5006.101
300.2997, 5004.189
300.7818, 5001.142
301.2639, 4999.774
301.7460, 5002.677
302.2281, 5005.193
302.7102, 5003.323
303.1924, 4997.423
303.6745, 4991.521
304.1566, 4988.666
304.6387, 4988.791
305.1208, 4988.606
305.6029, 4988.251
306.0851, 4987.465
306.5672, 4985.349
307.0493, 4982.517
307.5314, 4981.016
308.0135, 4982.235
308.4956, 4985.485
308.9778, 4987.714
309.4599, 4988.619
309.9420, 4989.106
310.4241, 4989.414
310.9062, 4989.508
311.3883, 4989.283
311.8705, 4988.673
312.3526, 4987.815
312.8347, 4987.185
313.3168, 4987.633
313.7989, 4986.407
314.2810, 4980.384
314.7632, 4973.286
315.2453, 4970.666
315.7274, 4974.197
316.2095, 4980.021
316.6916, 4983.188
317.1737, 4983.410
317.6559, 4981.966
318.1380, 4976.529
318.6201, 4970.906
319.1022, 4969.045
319.5843, 4971.320
320.0664, 4974.861
320.5485, 4977.279
321.0306, 4978.426
321.5128, 4978.693
321.9949, 4976.162
322.4770, 4974.373
322.9591, 4976.569
323.4412, 4982.001
323.9233, 4986.850
324.4055, 4988.647
324.8876, 4987.597
325.3697, 4985.638
325.8518, 4982.216
326.3339, 4978.630
326.8160, 4974.919
327.2982, 4971.405
327.7803, 4968.836
328.2624, 4967.675
328.7445, 4967.411
329.2266, 4966.660
329.7087, 4965.079
330.1909, 4963.723
330.6730, 4963.033
331.1551, 4962.602
331.6372, 4961.708
332.1193, 4960.131
332.6014, 4958.640
333.0836, 4958.329
333.5657, 4959.516
334.0478, 4961.202
334.5299, 4964.830
335.0120, 4967.977
335.4941, 4967.729
335.9763, 4964.147
336.4584, 4960.823
336.9405, 4961.433
337.4226, 4966.466
337.9047, 4969.105
338.3868, 4968.123
338.8690, 4966.224
339.3511, 4963.766
339.8332, 4961.410
340.3153, 4961.184
340.7974, 4964.909
341.2795, 4971.437
341.7617, 4973.067
342.2438, 4966.130
342.7259, 4959.466
343.2080, 4955.216
343.6901, 4952.436
344.1722, 4949.748
344.6544, 4946.612
345.1365, 4943.214
345.6186, 4939.917
346.1007, 4936.138
346.5828, 4933.507
347.0649, 4932.844
347.5471, 4932.901
348.0292, 4932.906
348.5113, 4932.579
348.9934, 4931.549
349.4755, 4929.285
349.9576, 4925.353
350.4398, 4921.833
350.9219, 4918.403
351.4040, 4915.546
351.8861, 4914.200
352.3682, 4913.784
352.8503, 4912.482
353.3325, 4908.704
353.8146, 4902.712
354.2967, 4898.813
354.7788, 4896.994
355.2609, 4897.207
355.7430, 4900.957
356.2252, 4906.344
356.7073, 4911.547
357.1894, 4915.745
357.6715, 4917.786
358.1536, 4914.333
358.6357, 4897.900
359.1179, 4887.536
359.5999, 4887.467
360.0821, 4890.990
360.5642, 4893.296
361.0463, 4893.170
361.5284, 4891.719
362.0105, 4890.545
362.4926, 4890.476
362.9748, 4887.411
363.4569, 4877.344
363.9390, 4868.259
364.4211, 4864.876
364.9032, 4865.612
365.3853, 4865.538
365.8675, 4860.551
366.3496, 4851.393
366.8317, 4845.262
367.3138, 4844.151
367.7959, 4843.768
368.2780, 4844.413
368.7602, 4844.764
369.2423, 4842.912
369.7244, 4837.955
370.2065, 4831.572
370.6886, 4827.456
371.1707, 4827.390
371.6529, 4824.985
372.1350, 4817.556
372.6171, 4808.931
373.0992, 4800.923
373.5813, 4794.086
374.0634, 4788.665
374.5456, 4786.139
375.0277, 4786.808
375.5098, 4783.645
375.9919, 4771.398
376.4740, 4760.931
376.9561, 4759.201
377.4383, 4763.040
377.9204, 4764.913
378.4025, 4759.641
378.8846, 4749.939
379.3667, 4743.369
379.8488, 4740.693
380.3310, 4739.225
380.8131, 4738.238
381.2952, 4737.706
381.7773, 4738.170
382.2594, 4740.195
382.7415, 4741.211
383.2237, 4737.057
383.7058, 4727.771
384.1879, 4721.365
384.6700, 4721.474
385.1521, 4723.428
385.6342, 4722.598
386.1164, 4719.185
386.5985, 4716.452
387.0806, 4717.236
387.5627, 4719.918
388.0448, 4720.380
388.5269, 4717.804
389.0091, 4714.691
389.4912, 4712.456
389.9733, 4711.070
390.4554, 4710.658
390.9375, 4711.598
391.4196, 4713.213
391.9018, 4715.123
392.3839, 4717.290
392.8660, 4719.314
393.3481, 4721.209
393.8302, 4722.659
394.3123, 4723.127
394.7945, 4722.562
395.2766, 4721.362
395.7587, 4718.768
396.2408, 4715.856
396.7229, 4714.694
397.2050, 4715.828
397.6872, 4717.802
398.1693, 4719.394
398.6514, 4720.596
399.1335, 4720.114
399.6156, 4716.147
400.0977, 4711.848
400.5798, 4709.838
401.0620, 4709.695
401.5441, 4708.950
402.0262, 4705.864
402.5083, 4701.121
402.9904, 4698.313
403.4725, 4700.914
403.9547, 4700.877
404.4368, 4694.209
404.9189, 4685.016
405.4010, 4678.926
405.8831, 4677.604
406.3652, 4677.889
406.8474, 4675.057
407.3295, 4667.604
407.8116, 4661.351
408.2937, 4657.872
408.7758, 4654.093
409.2579, 4647.695
409.7401, 4639.304
410.2222, 4631.266
410.7043, 4625.257
411.1864, 4621.093
411.6685, 4616.899
412.1506, 4613.209
412.6328, 4608.808
413.1149, 4603.799
413.5970, 4597.899
414.0791, 4589.980
414.5612, 4579.828
415.0433, 4569.960
415.5255, 4565.069
416.0076, 4567.385
416.4897, 4566.892
416.9718, 4560.956
417.4539, 4553.773
417.9360, 4546.820
418.4182, 4540.232
418.9003, 4533.831
419.3824, 4527.164
419.8645, 4520.565
420.3466, 4515.825
420.8287, 4514.400
421.3109, 4511.761
421.7930, 4505.159
422.2751, 4496.836
422.7572, 4488.985
423.2393, 4482.032
423.7214, 4476.458
424.2036, 4473.816
424.6857, 4473.938
425.1678, 4471.999
425.6499, 4466.009
426.1320, 4458.791
426.6141, 4452.453
427.0963, 4447.064
427.5784, 4443.172
428.0605, 4442.325
428.5426, 4442.612
429.0247, 4440.750
429.5068, 4436.435
429.9890, 4432.447
430.4711, 4431.050
430.9532, 4431.194
431.4353, 4429.320
431.9174, 4423.475
432.3995, 4418.489
432.8817, 4417.507
433.3638, 4419.047
433.8459, 4419.874
434.3280, 4418.893
434.8101, 4417.483
435.2922, 4417.789
435.7744, 4420.550
436.2565, 4421.702
436.7386, 4421.169
437.2207, 4418.890
437.7028, 4413.331
438.1849, 4405.577
438.6671, 4399.649
439.1492, 4398.584
439.6313, 4401.240
440.1134, 4400.920
440.5955, 4393.517
441.0776, 4388.234
441.5598, 4387.697
442.0418, 4388.979
442.5240, 4389.099
443.0061, 4387.310
443.4882, 4384.939
443.9703, 4384.063
444.4524, 4385.667
444.9345, 4384.216
445.4167, 4374.921
445.8988, 4367.313
446.3809, 4366.393
446.8630, 4369.561
447.3451, 4371.522
447.8272, 4369.217
448.3094, 4363.981
448.7915, 4358.880
449.2736, 4353.511
449.7557, 4349.363
450.2378, 4347.420
450.7199, 4346.356
451.2021, 4345.323
451.6842, 4344.206
452.1663, 4343.315
452.6484, 4343.620
453.1305, 4344.529
453.6126, 4343.032
454.0948, 4338.011
454.5769, 4332.896
455.0590, 4330.349
455.5411, 4329.308
456.0232, 4328.043
456.5053, 4326.346
456.9875, 4324.144
457.4696, 4321.310
457.9517, 4317.906
458.4338, 4313.806
458.9159, 4308.409
459.3980, 4303.398
459.8802, 4301.729
460.3623, 4303.518
460.8444, 4305.603
461.3265, 4309.027
461.8086, 4311.383
462.2907, 4309.939
462.7729, 4304.959
463.2550, 4299.050
463.7371, 4293.816
464.2192, 4289.178
464.7013, 4284.556
465.1834, 4278.629
465.6656, 4274.376
466.1477, 4273.537
466.6298, 4273.901
467.1119, 4272.990
467.5940, 4270.286
468.0761, 4267.120
468.5583, 4265.107
469.0404, 4264.448
469.5225, 4263.614
470.0046, 4263.579
470.4867, 4262.333
470.9688, 4257.643
471.4510, 4251.653
471.9331, 4248.217
472.4152, 4249.383
472.8973, 4252.408
473.3794, 4251.686
473.8615, 4246.057
474.3437, 4241.619
474.8258, 4242.460
475.3079, 4242.299
475.7900, 4235.708
476.2721, 4223.775
476.7542, 4213.147
477.2364, 4210.074
477.7185, 4210.775
478.2006, 4205.935
478.6827, 4194.666
479.1648, 4183.146
479.6469, 4173.970
480.1291, 4166.892
480.6112, 4161.581
481.0933, 4158.885
481.5754, 4155.641
482.0575, 4149.189
482.5396, 4141.362
483.0217, 4135.700
483.5038, 4132.957
483.9860, 4131.285
484.4681, 4129.009
484.9502, 4126.098
485.4323, 4123.369
485.9144, 4121.274
486.3965, 4118.850
486.8787, 4115.498
487.3608, 4111.526
487.8429, 4107.225
488.3250, 4102.694
488.8071, 4098.694
489.2892, 4096.907
489.7714, 4099.434
490.2535, 4098.845
490.7356, 4091.464
491.2177, 4084.907
491.6998, 4085.091
492.1819, 4089.391
492.6641, 4090.489
493.1462, 4083.138
493.6283, 4070.876
494.1104, 4064.515
494.5925, 4066.521
495.0746, 4067.766
495.5568, 4065.834
496.0389, 4062.597
496.5210, 4059.165
497.0031, 4055.667
497.4852, 4051.779
497.9673, 4046.720
498.4495, 4041.160
498.9316, 4037.113
499.4137, 4034.849
499.8958, 4033.148
500.3779, 4031.672
500.8600, 4030.149
501.3422, 4028.065
501.8243, 4025.322
502.3064, 4022.168
502.7885, 4017.341
503.2706, 4012.524
503.7527, 4011.647
504.2349, 4015.635
504.7170, 4019.794
505.1991, 4019.458
505.6812, 4014.333
506.1633, 4009.365
506.6454, 4003.916
507.1276, 3999.325
507.6097, 3996.911
508.0918, 3995.440
508.5739, 3992.746
509.0560, 3988.083
509.5381, 3983.045
510.0203, 3980.467
510.5024, 3981.612
510.9845, 3980.893
511.4666, 3976.520
511.9487, 3972.053
512.4308, 3968.693
512.9130, 3966.267
513.3951, 3964.081
513.8772, 3961.626
514.3593, 3959.701
514.8414, 3960.552
515.3235, 3964.842
515.8057, 3966.691
516.2878, 3963.153
516.7699, 3958.264
517.2520, 3955.529
517.7341, 3954.687
518.2162, 3953.664
518.6984, 3951.118
519.1805, 3948.155
519.6626, 3946.565
520.1447, 3946.215
520.6268, 3945.113
521.1089, 3942.316
521.5911, 3938.190
522.0732, 3933.207
522.5553, 3926.363
523.0374, 3921.583
523.5195, 3921.485
524.0016, 3922.379
524.4838, 3920.980
524.9659, 3917.281
525.4480, 3912.959
525.9301, 3909.060
526.4122, 3905.799
526.8943, 3904.319
527.3765, 3906.714
527.8586, 3907.948
528.3407, 3908.300
528.8228, 3906.931
529.3049, 3902.238
529.7870, 3894.662
530.2692, 3887.088
530.7513, 3881.794
531.2334, 3878.659
531.7155, 3877.350
532.1976, 3879.120
532.6797, 3879.819
533.1619, 3876.586
533.6440, 3871.947
534.1261, 3868.542
534.6082, 3866.945
535.0903, 3865.070
535.5724, 3860.330
536.0546, 3854.573
536.5367, 3852.418
537.0188, 3854.687
537.5009, 3856.833
537.9830, 3855.247
538.4651, 3850.686
538.9473, 3847.676
539.4294, 3847.469
539.9115, 3847.038
540.3936, 3844.836
540.8757, 3842.259
541.3578, 3841.776
541.8400, 3843.504
542.3221, 3844.277
542.8042, 3840.410
543.2863, 3831.780
543.7684, 3826.292
544.2505, 3827.098
544.7326, 3827.457
545.2147, 3826.388
545.6968, 3824.129
546.1790, 3820.509
546.6611, 3815.647
547.1432, 3811.087
547.6253, 3808.204
548.1074, 3807.021
548.5895, 3808.589
549.0717, 3815.050
549.5538, 3819.736
550.0359, 3816.030
550.5180, 3808.644
551.0001, 3804.775
551.4822, 3806.771
551.9644, 3809.446
552.4465, 3809.134
552.9286, 3807.253
553.4107, 3806.715
553.8928, 3808.084
554.3749, 3810.619
554.8571, 3814.425
555.3392, 3819.321
555.8213, 3819.293
556.3034, 3808.488
556.7855, 3800.623
557.2676, 3801.927
557.7498, 3806.752
558.2319, 3808.179
558.7140, 3804.723
559.1961, 3799.882
559.6782, 3797.535
560.1603, 3797.737
560.6425, 3796.984
561.1246, 3793.770
561.6067, 3791.901
562.0888, 3793.003
562.5709, 3795.673
563.0530, 3798.682
563.5352, 3801.780
564.0173, 3804.149
564.4994, 3804.587
564.9815, 3803.723
565.4636, 3803.615
565.9457, 3804.527
566.4279, 3805.833
566.9100, 3806.865
567.3921, 3808.060
567.8742, 3810.820
568.3563, 3816.375
568.8384, 3821.419
569.3206, 3823.899
569.8027, 3825.717
570.2848, 3830.013
570.7669, 3836.769
571.2490, 3842.411
571.7311, 3843.481
572.2133, 3840.535
572.6954, 3839.669
573.1775, 3841.440
573.6596, 3844.710
574.1417, 3849.323
574.6238, 3855.310
575.1060, 3864.009
575.5881, 3874.829
576.0702, 3883.817
576.5523, 3886.161
577.0344, 3884.189
577.5165, 3887.555
577.9987, 3898.006
578.4808, 3906.012
578.9629, 3905.481
579.4450, 3901.604
579.9271, 3901.472
580.4092, 3905.448
580.8914, 3911.358
581.3735, 3921.359
581.8556, 3931.015
582.3377, 3934.528
582.8198, 3932.411
583.3019, 3929.704
583.7841, 3929.190
584.2662, 3930.299
584.7483, 3931.555
585.2304, 3934.484
585.7125, 3934.869
586.1946, 3932.089
586.6768, 3927.478
587.1589, 3921.705
587.6410, 3914.813
588.1231, 3906.386
588.6052, 3895.916
589.0873, 3884.631
589.5695, 3875.640
590.0516, 3869.446
590.5337, 3861.739
591.0158, 3851.050
591.4979, 3839.273
591.9800, 3827.677
592.4622, 3816.361
592.9443, 3805.803
593.4264, 3796.156
593.9085, 3787.374
594.3906, 3780.093
594.8727, 3773.768
595.3549, 3766.715
595.8370, 3758.392
596.3191, 3749.649
596.8012, 3741.191
597.2833, 3732.656
597.7654, 3727.129
598.2476, 3727.172
598.7297, 3726.801
599.2118, 3724.153
599.6939, 3720.021
600.1760, 3715.280
600.6581, 3710.263
601.1403, 3705.388
601.6224, 3701.338
602.1045, 3698.021
602.5866, 3693.796
603.0687, 3688.188
603.5508, 3682.716
604.0330, 3678.083
604.5151, 3674.047
604.9972, 3670.531
605.4793, 3667.620
605.9614, 3664.673
606.4435, 3661.536
606.9257, 3658.063
607.4078, 3653.958
607.8899, 3649.262
608.3720, 3644.297
608.8541, 3639.121
609.3362, 3634.130
609.8184, 3630.529
610.3005, 3628.515
610.7826, 3627.805
611.2647, 3630.806
611.7468, 3632.993
612.2289, 3630.741
612.7111, 3625.164
613.1932, 3619.630
613.6753, 3615.867
614.1574, 3613.728
614.6395, 3613.247
615.1216, 3614.549
615.6038, 3615.757
616.0859, 3616.438
616.5680, 3617.067
617.0501, 3618.686
617.5322, 3620.701
618.0143, 3620.882
618.4965, 3617.273
618.9786, 3613.377
619.4607, 3611.507
619.9428, 3610.746
620.4249, 3609.311
620.9070, 3606.800
621.3892, 3604.079
621.8713, 3601.942
622.3534, 3600.394
622.8355, 3599.767
623.3176, 3600.555
623.7997, 3601.732
624.2819, 3603.762
624.7640, 3605.731
625.2461, 3606.739
625.7282, 3606.741
626.2103, 3606.482
626.6924, 3606.917
627.1745, 3607.369
627.6566, 3605.147
628.1387, 3599.871
628.6208, 3597.616
629.1030, 3601.907
629.5851, 3608.811
630.0672, 3612.326
630.5493, 3612.306
631.0314, 3612.969
631.5135, 3614.638
631.9957, 3617.427
632.4778, 3622.556
632.9599, 3628.665
633.4420, 3632.559
633.9241, 3633.115
634.4063, 3633.208
634.8884, 3637.071
635.3705, 3645.207
635.8526, 3653.061
636.3347, 3661.299
636.8168, 3668.166
637.2990, 3672.458
637.7811, 3675.483
638.2632, 3678.912
638.7453, 3683.113
639.2274, 3686.858
639.7095, 3690.438
640.1917, 3692.572
640.6738, 3690.152
641.1559, 3683.182
641.6380, 3675.825
642.1201, 3670.488
642.6022, 3665.874
643.0844, 3658.777
643.5665, 3646.574
644.0486, 3637.518
644.5307, 3632.744
645.0128, 3630.015
645.4949, 3629.758
645.9771, 3630.287
646.4592, 3628.471
646.9413, 3622.885
647.4234, 3615.826
647.9055, 3610.357
648.3876, 3606.455
648.8698, 3603.254
649.3519, 3600.794
649.8340, 3598.839
650.3161, 3598.370
650.7982, 3597.980
651.2803, 3594.464
651.7625, 3585.901
652.2446, 3578.627
652.7267, 3576.604
653.2088, 3576.204
653.6909, 3573.185
654.1730, 3567.677
654.6552, 3562.452
655.1373, 3559.216
655.6194, 3557.283
656.1015, 3554.622
656.5836, 3550.076
657.0657, 3547.844
657.5479, 3550.467
658.0300, 3553.288
658.5121, 3555.241
658.9942, 3555.790
659.4763, 3553.628
659.9584, 3547.434
660.4406, 3541.388
660.9227, 3539.384
661.4048, 3540.412
661.8869, 3542.472
662.3690, 3545.304
662.8511, 3546.866
663.3333, 3545.351
663.8154, 3541.647
664.2975, 3539.499
664.7796, 3540.174
665.2617, 3540.663
665.7438, 3540.882
666.2260, 3540.936
666.7081, 3540.898
667.1902, 3540.770
667.6723, 3540.579
668.1544, 3540.394
668.6365, 3539.927
669.1187, 3538.995
669.6008, 3537.558
670.0829, 3534.196
670.5650, 3527.906
671.0471, 3521.929
671.5292, 3519.813
672.0114, 3519.859
672.4935, 3516.002
672.9756, 3505.432
673.4577, 3495.694
673.9398, 3490.255
674.4219, 3485.834
674.9041, 3479.266
675.3862, 3470.520
675.8683, 3461.112
676.3504, 3451.899
676.8325, 3442.746
677.3146, 3432.734
677.7968, 3420.999
678.2789, 3412.771
678.7610, 3410.382
679.2431, 3409.322
679.7252, 3407.964
680.2073, 3405.755
680.6895, 3401.329
681.1716, 3393.729
681.6537, 3385.572
682.1358, 3377.589
682.6179, 3370.331
683.1000, 3364.840
683.5822, 3361.031
684.0643, 3357.619
684.5464, 3353.844
685.0285, 3349.677
685.5106, 3345.027
685.9927, 3339.877
686.4749, 3334.313
686.9570, 3327.359
687.4391, 3321.034
687.9212, 3316.057
688.4033, 3312.407
688.8854, 3310.191
689.3676, 3309.789
689.8497, 3309.379
690.3318, 3306.724
690.8139, 3303.143
691.2960, 3302.460
691.7781, 3304.867
692.2603, 3304.951
692.7424, 3298.887
693.2245, 3289.266
693.7066, 3282.833
694.1887, 3281.015
694.6708, 3279.620
695.1530, 3279.312
695.6351, 3278.682
696.1172, 3277.177
696.5993, 3274.819
697.0814, 3271.117
697.5635, 3265.762
698.0457, 3261.695
698.5278, 3263.919
699.0099, 3269.775
699.4920, 3270.059
699.9741, 3263.863
700.4562, 3256.694
700.9384, 3251.139
701.4205, 3246.760
701.9026, 3242.638
702.3847, 3238.434
702.8668, 3235.613
703.3489, 3235.275
703.8311, 3235.231
704.3132, 3235.398
704.7953, 3234.797
705.2774, 3231.401
705.7595, 3224.794
706.2416, 3218.100
706.7238, 3214.593
707.2059, 3213.864
707.6880, 3214.840
708.1701, 3217.937
708.6522, 3219.094
709.1343, 3215.846
709.6164, 3210.684
710.0985, 3207.866
710.5806, 3208.019
711.0627, 3205.724
711.5449, 3197.347
712.0270, 3189.951
712.5091, 3187.712
712.9912, 3188.175
713.4733, 3188.048
713.9554, 3186.430
714.4376, 3184.042
714.9197, 3181.295
715.4018, 3178.425
715.8839, 3176.567
716.3660, 3175.992
716.8481, 3174.447
717.3303, 3170.569
717.8124, 3166.423
718.2945, 3164.615
718.7766, 3164.966
719.2587, 3164.878
719.7408, 3164.274
720.2230, 3163.043
720.7051, 3161.319
721.1872, 3158.848
721.6693, 3154.703
722.1514, 3149.229
722.6335, 3144.410
723.1157, 3141.821
723.5978, 3140.790
724.0799, 3139.680
724.5620, 3138.487
725.0441, 3137.025
725.5262, 3134.852
726.0084, 3133.169
726.4905, 3134.019
726.9726, 3136.292
727.4547, 3135.530
727.9368, 3128.275
728.4189, 3123.047
728.9011, 3124.619
729.3832, 3127.702
729.8653, 3126.821
730.3474, 3122.638
730.8295, 3119.286
731.3116, 3119.102
731.7938, 3120.502
732.2759, 3120.500
732.7580, 3119.058
733.2401, 3119.557
733.7222, 3123.648
734.2043, 3125.958
734.6865, 3122.136
735.1686, 3114.940
735.6507, 3110.694
736.1328, 3110.532
736.6149, 3109.398
737.0970, 3104.849
737.5792, 3100.295
738.0613, 3097.917
738.5434, 3097.341
739.0255, 3098.206
739.5076, 3100.179
739.9897, 3101.029
740.4719, 3097.027
740.9540, 3089.175
741.4361, 3085.235
741.9182, 3086.153
742.4003, 3086.141
742.8824, 3082.584
743.3646, 3077.671
743.8467, 3073.913
744.3288, 3071.257
744.8109, 3070.155
745.2930, 3072.717
745.7751, 3074.427
746.2573, 3073.647
746.7394, 3070.928
747.2215, 3065.502
747.7036, 3058.392
748.1857, 3054.138
748.6678, 3057.345
749.1500, 3063.780
749.6321, 3062.760
750.1142, 3054.302
750.5963, 3048.934
751.0784, 3049.139
751.5605, 3051.735
752.0427, 3055.420
752.5248, 3059.443
753.0069, 3059.704
753.4890, 3053.075
753.9711, 3047.888
754.4532, 3045.579
754.9354, 3044.666
755.4175, 3044.826
755.8996, 3045.382
756.3817, 3044.960
756.8638, 3042.889
757.3459, 3040.904
757.8281, 3041.623
758.3102, 3044.178
758.7923, 3045.399
759.2744, 3045.086
759.7565, 3043.069
760.2386, 3038.339
760.7208, 3033.591
761.2029, 3033.883
761.6850, 3041.096
762.1671, 3045.716
762.6492, 3046.827
763.1313, 3046.667
763.6135, 3044.688
764.0956, 3042.569
764.5777, 3041.988
765.0598, 3043.201
765.5419, 3045.504
766.0240, 3048.655
766.5062, 3052.456
766.9883, 3057.141
767.4704, 3062.335
767.9525, 3066.419
768.4346, 3069.023
768.9167, 3070.302
769.3989, 3070.213
769.8810, 3068.991
770.3631, 3067.986
770.8452, 3065.940
771.3273, 3066.429
771.8094, 3071.830
772.2916, 3077.611
772.7737, 3081.657
773.2558, 3084.200
773.7379, 3085.883
774.2200, 3086.711
774.7021, 3087.428
775.1843, 3087.941
775.6664, 3088.972
776.1485, 3092.180
776.6306, 3096.997
777.1127, 3100.731
777.5948, 3102.174
778.0770, 3102.668
778.5591, 3104.257
779.0412, 3107.017
779.5233, 3109.118
780.0054, 3109.628
780.4875, 3111.487
780.9697, 3117.069
781.4518, 3123.344
781.9339, 3127.616
782.4160, 3129.908
782.8981, 3130.750
783.3802, 3130.121
783.8624, 3128.247
784.3445, 3122.991
784.8266, 3117.775
785.3087, 3118.156
785.7908, 3123.651
786.2729, 3128.553
786.7551, 3129.059
787.2372, 3126.866
787.7193, 3125.089
788.2014, 3123.730
788.6835, 3122.858
789.1656, 3122.769
789.6478, 3122.081
790.1299, 3119.660
790.6120, 3116.262
791.0941, 3113.755
791.5762, 3112.422
792.0583, 3111.068
792.5404, 3111.245
793.0225, 3109.639
793.5046, 3102.778
793.9868, 3094.144
794.4689, 3088.379
794.9510, 3086.405
795.4331, 3085.811
795.9152, 3086.115
796.3973, 3085.742
796.8795, 3081.089
797.3616, 3073.096
797.8437, 3066.915
798.3258, 3063.875
798.8079, 3060.750
799.2900, 3054.571
799.7722, 3045.919
800.2543, 3038.156
800.7364, 3030.277
801.2185, 3025.257
801.7006, 3026.303
802.1827, 3027.315
802.6649, 3025.403
803.1470, 3021.528
803.6291, 3017.371
804.1112, 3013.099
804.5933, 3009.609
805.0754, 3007.786
805.5576, 3006.698
806.0397, 3005.945
806.5218, 3005.108
807.0039, 3003.454
807.4860, 3000.713
807.9681, 2996.699
808.4503, 2990.761
808.9324, 2983.497
809.4145, 2978.214
809.8966, 2975.042
810.3787, 2973.040
810.8608, 2972.630
811.3430, 2972.117
811.8251, 2969.889
812.3072, 2966.135
812.7893, 2962.416
813.2714, 2958.302
813.7535, 2954.840
814.2357, 2952.142
814.7178, 2950.168
815.1999, 2948.562
815.6820, 2947.768
816.1641, 2949.054
816.6462, 2952.906
817.1284, 2956.884
817.6105, 2959.724
818.0926, 2960.746
818.5747, 2957.329
819.0568, 2950.305
819.5389, 2945.032
820.0211, 2943.420
820.5032, 2943.510
820.9853, 2943.095
821.4674, 2942.251
821.9495, 2942.230
822.4316, 2943.492
822.9138, 2944.541
823.3959, 2944.994
823.8780, 2945.260
824.3601, 2945.678
824.8422, 2946.111
825.3243, 2946.192
825.8065, 2945.807
826.2886, 2945.206
826.7707, 2943.802
827.2528, 2942.812
827.7349, 2943.808
828.2170, 2946.027
828.6992, 2947.542
829.1813, 2947.731
829.6634, 2947.823
830.1455, 2949.661
830.6276, 2952.359
831.1097, 2952.230
831.5919, 2949.345
832.0740, 2948.208
832.5561, 2950.386
833.0382, 2953.434
833.5203, 2955.141
834.0024, 2955.615
834.4846, 2955.828
834.9667, 2956.028
835.4488, 2955.468
835.9309, 2952.115
836.4130, 2950.047
836.8951, 2953.175
837.3773, 2958.458
837.8594, 2959.520
838.3415, 2954.208
838.8236, 2951.379
839.3057, 2958.870
839.7878, 2968.195
840.2700, 2971.296
840.7521, 2969.719
841.2342, 2967.098
841.7163, 2964.665
842.1984, 2962.767
842.6805, 2962.096
843.1627, 2961.763
843.6448, 2958.413
844.1269, 2951.947
844.6090, 2947.371
845.0911, 2945.901
845.5732, 2945.226
846.0554, 2943.615
846.5375, 2941.745
847.0196, 2941.874
847.5017, 2946.832
847.9838, 2947.135
848.4659, 2937.905
848.9481, 2929.809
849.4302, 2927.338
849.9123, 2927.921
850.3944, 2928.413
850.8765, 2928.379
851.3586, 2929.063
851.8408, 2931.747
852.3229, 2934.727
852.8050, 2937.397
853.2871, 2939.028
853.7692, 2938.226
854.2513, 2934.965
854.7335, 2929.677
855.2156, 2922.353
855.6977, 2915.441
856.1798, 2914.488
856.6619, 2919.243
857.1440, 2921.790
857.6262, 2921.448
858.1083, 2920.448
858.5904, 2919.475
859.0725, 2918.800
859.5546, 2918.937
860.0367, 2920.023
860.5189, 2920.474
861.0010, 2919.847
861.4831, 2919.252
861.9652, 2917.883
862.4473, 2917.478
862.9294, 2920.090
863.4116, 2924.736
863.8937, 2928.569
864.3758, 2930.756
864.8579, 2931.998
865.3400, 2932.227
865.8221, 2932.106
866.3043, 2931.946
866.7864, 2932.121
867.2685, 2933.872
867.7506, 2937.417
868.2327, 2940.609
868.7148, 2941.180
869.1970, 2939.626
869.6791, 2937.026
870.1612, 2933.370
870.6433, 2931.690
871.1254, 2932.976
871.6075, 2934.595
872.0897, 2934.645
872.5718, 2933.428
873.0539, 2931.951
873.5360, 2930.519
874.0181, 2928.136
874.5002, 2924.459
874.9823, 2920.245
875.4644, 2914.636
875.9465, 2909.306
876.4286, 2906.497
876.9108, 2906.261
877.3929, 2905.684
877.8750, 2905.525
878.3571, 2902.787
878.8392, 2893.460
879.3214, 2882.129
879.8035, 2874.621
880.2856, 2870.550
880.7677, 2865.730
881.2498, 2857.967
881.7319, 2849.870
882.2141, 2844.742
882.6962, 2841.859
883.1783, 2839.687
883.6604, 2837.959
884.1425, 2834.221
884.6246, 2827.354
885.1068, 2820.823
885.5889, 2818.671
886.0710, 2820.277
886.5531, 2821.138
887.0352, 2821.995
887.5173, 2819.736
887.9995, 2812.192
888.4816, 2803.936
888.9637, 2796.550
889.4458, 2790.730
889.9279, 2788.457
890.4100, 2791.173
890.8922, 2791.563
891.3743, 2786.858
891.8564, 2781.632
892.3385, 2777.469
892.8206, 2774.213
893.3027, 2771.942
893.7849, 2770.357
894.2670, 2768.525
894.7491, 2766.222
895.2312, 2762.989
895.7133, 2757.009
896.1954, 2750.544
896.6776, 2748.674
897.1597, 2750.261
897.6418, 2748.745
898.1239, 2741.386
898.6060, 2732.547
899.0881, 2727.472
899.5703, 2725.684
900.0524, 2725.270
900.5345, 2726.407
901.0166, 2725.168
901.4987, 2720.139
901.9808, 2714.482
902.4630, 2710.720
902.9451, 2708.303
903.4272, 2705.304
903.9093, 2701.365
904.3914, 2697.617
904.8735, 2693.635
905.3557, 2690.381
905.8378, 2688.824
906.3199, 2687.743
906.8020, 2685.705
907.2841, 2682.717
907.7662, 2680.089
908.2484, 2678.175
908.7305, 2676.633
909.2126, 2676.171
909.6947, 2675.370
910.1768, 2671.637
910.6589, 2666.612
911.1411, 2664.886
911.6232, 2668.267
912.1053, 2671.886
912.5874, 2671.248
913.0695, 2668.419
913.5516, 2666.659
914.0338, 2665.489
914.5159, 2662.582
914.9980, 2657.673
915.4801, 2653.781
915.9622, 2653.313
916.4443, 2655.245
916.9265, 2657.681
917.4086, 2660.618
917.8907, 2661.701
918.3728, 2660.629
918.8549, 2658.370
919.3370, 2654.969
919.8192, 2651.347
920.3013, 2648.531
920.7834, 2646.477
921.2655, 2646.720
921.7476, 2650.816
922.2297, 2654.534
922.7119, 2657.715
923.1940, 2659.940
923.6761, 2659.445
924.1582, 2658.183
924.6403, 2660.626
925.1224, 2668.289
925.6046, 2674.642
926.0867, 2677.345
926.5688, 2679.163
927.0509, 2679.667
927.5330, 2681.280
928.0151, 2688.090
928.4973, 2699.084
928.9794, 2708.282
929.4615, 2712.484
929.9436, 2714.719
930.4257, 2717.047
930.9078, 2719.453
931.3900, 2721.785
931.8721, 2724.194
932.3542, 2727.531
932.8363, 2731.917
933.3184, 2735.460
933.8005, 2736.109
934.2827, 2734.701
934.7648, 2733.556
935.2469, 2732.544
935.7290, 2729.848
936.2111, 2725.079
936.6932, 2721.610
937.1754, 2721.903
937.6575, 2722.997
938.1396, 2719.032
938.6217, 2709.414
939.1038, 2702.417
939.5859, 2699.723
940.0681, 2695.015
940.5502, 2685.874
941.0323, 2675.276
941.5144, 2665.747
941.9965, 2656.850
942.4786, 2646.406
942.9608, 2631.896
943.4429, 2621.052
943.9250, 2616.009
944.4071, 2612.531
944.8892, 2610.525
945.3713, 2608.146
945.8535, 2602.818
946.3356, 2594.821
946.8177, 2587.822
947.2998, 2583.748
947.7819, 2579.719
948.2640, 2574.885
948.7462, 2569.081
949.2283, 2560.288
949.7104, 2550.918
950.1925, 2546.880
950.6746, 2549.448
951.1567, 2550.972
951.6389, 2544.005
952.1210, 2534.089
952.6031, 2527.797
953.0852, 2524.171
953.5673, 2521.294
954.0494, 2518.824
954.5316, 2517.441
955.0137, 2517.597
955.4958, 2516.914
955.9779, 2510.670
956.4600, 2500.438
956.9421, 2494.522
957.4242, 2492.742
957.9063, 2490.631
958.3884, 2487.056
958.8705, 2482.366
959.3527, 2476.480
959.8348, 2470.448
960.3169, 2468.088
960.7990, 2470.640
961.2811, 2469.783
961.7632, 2464.088
962.2454, 2458.675
962.7275, 2455.845
963.2096, 2453.493
963.6917, 2448.805
964.1738, 2442.211
964.6559, 2438.391
965.1381, 2439.144
965.6202, 2439.843
966.1023, 2441.794
966.5844, 2442.070
967.0665, 2438.163
967.5486, 2432.536
968.0308, 2428.275
968.5129, 2425.602
968.9950, 2423.705
969.4771, 2423.708
969.9592, 2422.731
970.4413, 2418.045
970.9235, 2413.570
971.4056, 2413.217
971.8877, 2415.331
972.3698, 2416.005
972.8519, 2414.185
973.3340, 2412.649
973.8162, 2412.870
974.2983, 2414.081
974.7804, 2416.478
975.2625, 2418.984
975.7446, 2419.714
976.2267, 2419.026
976.7089, 2419.008
977.1910, 2420.672
977.6731, 2422.551
978.1552, 2422.114
978.6373, 2425.742
979.1194, 2425.162
979.6016, 2431.861
980.0837, 2437.222
980.5658, 2440.451
981.0479, 2443.239
981.5300, 2446.570
982.0121, 2451.129
982.4943, 2459.121
982.9764, 2469.573
983.4585, 2476.867
983.9406, 2480.863
984.4227, 2483.724
984.9048, 2485.946
985.3870, 2489.245
985.8691, 2495.343
986.3512, 2503.405
986.8333, 2510.684
987.3154, 2516.970
987.7975, 2524.241
988.2797, 2532.823
988.7618, 2541.725
989.2439, 2551.076
989.7260, 2559.533
990.2081, 2565.552
990.6902, 2569.237
991.1724, 2571.704
991.6545, 2573.094
992.1366, 2572.902
992.6187, 2570.192
993.1008, 2567.354
993.5829, 2567.381
994.0651, 2566.586
994.5472, 2559.109
995.0293, 2544.836
995.5114, 2531.194
995.9935, 2518.451
996.4756, 2505.951
996.9578, 2494.385
997.4399, 2482.262
997.9220, 2468.041
998.4041, 2453.033
998.8862, 2438.826
999.3683, 2425.630
999.8505, 2415.402
1000.333, 2411.354
1000.815, 2406.859
1001.297, 2397.508
1001.779, 2388.600
1002.261, 2385.206
1002.743, 2385.549
1003.225, 2385.417
1003.707, 2383.776
1004.190, 2382.750
1004.672, 2384.813
1005.154, 2386.243
1005.636, 2383.111
1006.118, 2378.945
1006.600, 2378.627
1007.082, 2381.094
1007.564, 2381.618
1008.046, 2378.425
1008.529, 2375.893
1009.011, 2379.226
1009.493, 2383.375
1009.975, 2382.294
1010.457, 2378.186
1010.939, 2374.202
1011.421, 2371.353
1011.903, 2371.055
1012.385, 2374.090
1012.868, 2377.325
1013.350, 2376.791
1013.832, 2377.728
1014.314, 2377.265
1014.796, 2375.451
1015.278, 2374.573
1015.760, 2371.461
1016.242, 2369.180
1016.725, 2369.580
1017.207, 2368.438
1017.689, 2370.872
1018.171, 2369.801
1018.653, 2370.743
1019.135, 2373.236
1019.617, 2373.555
1020.099, 2370.972
1020.581, 2368.948
1021.064, 2370.010
1021.546, 2372.086
1022.028, 2371.239
1022.510, 2367.687
1022.992, 2363.619
1023.474, 2359.014
1023.956, 2355.618
1024.438, 2353.966
1024.921, 2352.645
1025.403, 2350.565
1025.885, 2348.157
1026.367, 2346.549
1026.849, 2345.827
1027.331, 2344.745
1027.813, 2343.480
1028.295, 2340.509
1028.777, 2334.865
1029.260, 2329.364
1029.742, 2326.487
1030.224, 2322.414
1030.706, 2319.284
1031.188, 2317.556
1031.670, 2314.513
1032.152, 2313.971
1032.634, 2313.239
1033.116, 2311.629
1033.599, 2309.424
1034.081, 2306.383
1034.563, 2303.216
1035.045, 2302.349
1035.527, 2304.927
1036.009, 2305.750
1036.491, 2303.726
1036.973, 2302.082
1037.456, 2302.285
1037.938, 2302.462
1038.420, 2301.186
1038.902, 2298.630
1039.384, 2295.169
1039.866, 2289.910
1040.348, 2286.366
1040.830, 2286.011
1041.313, 2285.289
1041.795, 2282.538
1042.277, 2279.769
1042.759, 2278.653
1043.241, 2278.811
1043.723, 2279.154
1044.205, 2279.892
1044.687, 2280.133
1045.169, 2280.527
1045.651, 2279.471
1046.134, 2274.662
1046.616, 2269.815
1047.098, 2268.047
1047.580, 2268.702
1048.062, 2269.650
1048.544, 2270.773
1049.026, 2271.954
1049.508, 2273.130
1049.991, 2274.426
1050.473, 2276.184
1050.955, 2277.840
1051.437, 2279.029
1051.919, 2279.750
1052.401, 2279.839
1052.883, 2278.827
1053.365, 2279.297
1053.848, 2284.458
1054.330, 2287.820
1054.812, 2285.462
1055.294, 2281.543
1055.776, 2278.776
1056.258, 2277.583
1056.740, 2278.484
1057.222, 2281.853
1057.704, 2285.332
1058.187, 2289.645
1058.669, 2292.135
1059.151, 2290.273
1059.633, 2287.276
1060.115, 2285.460
1060.597, 2284.898
1061.079, 2285.590
1061.561, 2287.743
1062.043, 2288.540
1062.526, 2286.144
1063.008, 2283.332
1063.490, 2280.541
1063.972, 2278.609
1064.454, 2280.333
1064.936, 2282.827
1065.418, 2279.282
1065.900, 2268.220
1066.383, 2259.125
1066.865, 2258.347
1067.347, 2256.900
1067.829, 2249.366
1068.311, 2240.508
1068.793, 2234.449
1069.275, 2230.266
1069.757, 2225.196
1070.240, 2218.798
1070.722, 2213.867
1071.204, 2212.883
1071.686, 2211.867
1072.168, 2209.240
1072.650, 2205.539
1073.132, 2199.872
1073.614, 2194.017
1074.096, 2191.611
1074.578, 2192.745
1075.061, 2192.054
1075.543, 2185.283
1076.025, 2179.508
1076.507, 2180.010
1076.989, 2180.969
1077.471, 2176.587
1077.953, 2170.146
1078.435, 2167.128
1078.918, 2168.013
1079.400, 2169.725
1079.882, 2171.932
1080.364, 2173.027
1080.846, 2171.276
1081.328, 2169.178
1081.810, 2169.055
1082.292, 2169.438
1082.774, 2167.970
1083.257, 2164.807
1083.739, 2162.039
1084.221, 2160.229
1084.703, 2159.322
1085.185, 2160.054
1085.667, 2160.849
1086.149, 2160.941
1086.631, 2160.317
1087.114, 2158.210
1087.596, 2155.439
1088.078, 2155.000
1088.560, 2158.588
1089.042, 2160.354
1089.524, 2155.610
1090.006, 2151.053
1090.488, 2151.508
1090.970, 2153.222
1091.453, 2152.425
1091.935, 2149.501
1092.417, 2146.168
1092.899, 2142.681
1093.381, 2140.215
1093.863, 2139.725
1094.345, 2139.670
1094.827, 2139.733
1095.309, 2139.592
1095.792, 2139.358
1096.274, 2138.597
1096.756, 2135.678
1097.238, 2130.382
1097.720, 2128.096
1098.202, 2133.918
1098.684, 2138.270
1099.166, 2136.552
1099.649, 2133.711
1100.131, 2132.611
1100.613, 2132.953
1101.095, 2134.446
1101.577, 2136.822
1102.059, 2138.058
1102.541, 2135.812
1103.023, 2135.416
1103.505, 2140.476
1103.988, 2144.973
1104.470, 2145.391
1104.952, 2143.670
1105.434, 2140.995
1105.916, 2138.194
1106.398, 2138.621
1106.880, 2144.991
1107.362, 2149.300
1107.844, 2148.772
1108.327, 2147.954
1108.809, 2148.187
1109.291, 2149.166
1109.773, 2151.404
1110.255, 2154.048
1110.737, 2154.202
1111.219, 2150.224
1111.701, 2149.440
1112.184, 2157.473
1112.666, 2161.625
1113.148, 2156.454
1113.630, 2149.322
1114.112, 2143.779
1114.594, 2140.081
1115.076, 2139.506
1115.558, 2142.762
1116.041, 2142.034
1116.523, 2133.772
1117.005, 2127.633
1117.487, 2125.859
1117.969, 2124.485
1118.451, 2120.974
1118.933, 2117.521
1119.415, 2117.721
1119.897, 2114.585
1120.380, 2112.429
1120.862, 2112.752
1121.344, 2108.968
1121.826, 2111.331
1122.308, 2113.172
1122.790, 2112.057
1123.272, 2109.716
1123.754, 2107.626
1124.236, 2105.725
1124.719, 2103.928
1125.201, 2102.512
1125.683, 2099.373
1126.165, 2093.530
1126.647, 2090.102
1127.129, 2091.085
1127.611, 2091.981
1128.093, 2089.381
1128.576, 2085.635
1129.058, 2085.588
1129.540, 2083.516
1130.022, 2081.987
1130.504, 2082.737
1130.986, 2080.058
1131.468, 2081.579
1131.950, 2081.993
1132.432, 2078.553
1132.915, 2074.000
1133.397, 2071.241
1133.879, 2070.635
1134.361, 2075.374
1134.843, 2084.549
1135.325, 2085.788
1135.807, 2078.687
1136.289, 2072.701
1136.771, 2070.883
1137.254, 2070.739
1137.736, 2070.443
1138.218, 2069.760
1138.700, 2066.779
1139.182, 2063.351
1139.664, 2067.907
1140.146, 2077.983
1140.628, 2082.038
1141.111, 2078.505
1141.593, 2073.121
1142.075, 2068.843
1142.557, 2065.899
1143.039, 2064.955
1143.521, 2065.144
1144.003, 2064.998
1144.485, 2064.883
1144.968, 2065.601
1145.450, 2067.069
1145.932, 2069.273
1146.414, 2071.932
1146.896, 2072.717
1147.378, 2068.943
1147.860, 2064.814
1148.342, 2064.686
1148.824, 2066.187
1149.307, 2066.864
1149.789, 2066.917
1150.271, 2067.341
1150.753, 2067.986
1151.235, 2067.357
1151.717, 2064.525
1152.199, 2061.944
1152.681, 2060.910
1153.163, 2060.729
1153.646, 2060.878
1154.128, 2061.722
1154.610, 2063.988
1155.092, 2067.187
1155.574, 2070.136
1156.056, 2072.604
1156.538, 2075.439
1157.020, 2080.775
1157.503, 2083.780
1157.985, 2080.685
1158.467, 2077.483
1158.949, 2078.862
1159.431, 2081.496
1159.913, 2080.104
1160.395, 2075.236
1160.877, 2073.349
1161.359, 2077.268
1161.842, 2079.112
1162.324, 2076.672
1162.806, 2075.431
1163.288, 2077.960
1163.770, 2080.719
1164.252, 2081.316
1164.734, 2080.128
1165.216, 2077.835
1165.698, 2074.376
1166.181, 2070.747
1166.663, 2066.670
1167.145, 2063.671
1167.627, 2062.158
1168.109, 2061.132
1168.591, 2060.313
1169.073, 2059.100
1169.555, 2056.626
1170.037, 2053.397
1170.520, 2051.297
1171.002, 2050.311
1171.484, 2049.485
1171.966, 2048.786
1172.448, 2048.631
1172.930, 2049.137
1173.412, 2050.753
1173.894, 2053.845
1174.377, 2057.575
1174.859, 2061.940
1175.341, 2065.429
1175.823, 2062.290
1176.305, 2055.031
1176.787, 2051.119
1177.269, 2050.962
1177.751, 2051.744
1178.234, 2052.372
1178.716, 2053.118
1179.198, 2054.171
1179.680, 2055.481
1180.162, 2057.419
1180.644, 2059.240
1181.126, 2059.662
1181.608, 2059.428
1182.090, 2059.692
1182.573, 2060.723
1183.055, 2062.819
1183.537, 2066.361
1184.019, 2068.897
1184.501, 2069.019
1184.983, 2067.911
1185.465, 2065.297
1185.947, 2062.615
1186.429, 2060.692
1186.912, 2059.747
1187.394, 2060.506
1187.876, 2062.878
1188.358, 2063.901
1188.840, 2062.581
1189.322, 2060.726
1189.804, 2057.991
1190.286, 2055.443
1190.769, 2053.726
1191.251, 2052.055
1191.733, 2049.725
1192.215, 2047.002
1192.697, 2044.616
1193.179, 2042.684
1193.661, 2040.130
1194.143, 2036.769
1194.625, 2033.403
1195.108, 2029.930
1195.590, 2027.557
1196.072, 2027.045
1196.554, 2027.204
1197.036, 2026.678
1197.518, 2025.748
1198.000, 2025.382
1198.482, 2025.475
1198.964, 2025.113
1199.447, 2024.233
1199.929, 2021.802
1200.411, 2018.032
1200.893, 2017.782
1201.375, 2023.989
1201.857, 2030.801
1202.339, 2031.439
1202.821, 2028.369
1203.304, 2023.957
1203.786, 2019.739
1204.268, 2018.781
1204.750, 2020.394
1205.232, 2022.462
1205.714, 2024.330
1206.196, 2026.217
1206.678, 2028.950
1207.161, 2029.442
1207.643, 2022.834
1208.125, 2016.704
1208.607, 2017.384
1209.089, 2020.402
1209.571, 2021.301
1210.053, 2020.361
1210.535, 2018.986
1211.017, 2017.294
1211.500, 2016.953
1211.982, 2019.010
1212.464, 2021.163
1212.946, 2024.182
1213.428, 2025.754
1213.910, 2024.461
1214.392, 2021.876
1214.874, 2018.741
1215.356, 2015.930
1215.839, 2016.598
1216.321, 2021.398
1216.803, 2023.114
1217.285, 2021.334
1217.767, 2019.204
1218.249, 2017.261
1218.731, 2014.713
1219.213, 2011.000
1219.696, 2008.783
1220.178, 2011.497
1220.660, 2016.599
1221.142, 2018.683
1221.624, 2018.036
1222.106, 2014.409
1222.588, 2008.990
1223.070, 2005.555
1223.552, 2004.668
1224.035, 2005.091
1224.517, 2006.241
1224.999, 2007.133
1225.481, 2005.191
1225.963, 2004.571
1226.445, 2012.429
1226.927, 2020.534
1227.409, 2018.619
1227.891, 2011.343
1228.374, 2006.557
1228.856, 2005.334
1229.338, 2006.189
1229.820, 2010.602
1230.302, 2010.863
1230.784, 1999.315
1231.266, 1991.522
1231.748, 1995.350
1232.231, 2001.147
1232.713, 2004.081
1233.195, 2004.407
1233.677, 2001.837
1234.159, 1996.845
1234.641, 1993.608
1235.123, 1992.442
1235.605, 1991.777
1236.088, 1991.837
1236.570, 1990.369
1237.052, 1986.542
1237.534, 1983.568
1238.016, 1983.551
1238.498, 1985.118
1238.980, 1986.938
1239.462, 1988.200
1239.944, 1985.946
1240.427, 1981.506
1240.909, 1978.599
1241.391, 1977.290
1241.873, 1976.825
1242.355, 1976.784
1242.837, 1976.141
1243.319, 1974.194
1243.801, 1972.772
1244.283, 1974.372
1244.766, 1975.726
1245.248, 1973.196
1245.730, 1970.248
1246.212, 1970.760
1246.694, 1973.219
1247.176, 1975.159
1247.658, 1976.097
1248.140, 1974.942
1248.622, 1969.236
1249.105, 1966.351
1249.587, 1969.313
1250.069, 1970.801
1250.551, 1968.753
1251.033, 1965.311
1251.515, 1960.796
1251.997, 1957.463
1252.479, 1959.403
1252.962, 1965.128
1253.444, 1965.591
1253.926, 1960.930
1254.408, 1959.041
1254.890, 1960.099
1255.372, 1959.436
1255.854, 1956.115
1256.336, 1953.182
1256.818, 1952.398
1257.301, 1952.988
1257.783, 1955.627
1258.265, 1957.420
1258.747, 1952.956
1259.229, 1946.274
1259.711, 1941.570
1260.193, 1939.732
1260.675, 1943.142
1261.157, 1950.258
1261.640, 1953.592
1262.122, 1950.099
1262.604, 1946.593
1263.086, 1944.721
1263.568, 1943.818
1264.050, 1944.370
1264.532, 1945.003
1265.014, 1945.058
1265.497, 1944.623
1265.979, 1943.752
1266.461, 1942.487
1266.943, 1940.937
1267.425, 1938.959
1267.907, 1937.739
1268.389, 1937.264
1268.871, 1937.977
1269.354, 1939.983
1269.836, 1941.884
1270.318, 1943.070
1270.800, 1942.509
1271.282, 1938.475
1271.764, 1934.350
1272.246, 1936.985
1272.728, 1942.330
1273.210, 1943.484
1273.693, 1941.715
1274.175, 1939.132
1274.657, 1936.629
1275.139, 1935.106
1275.621, 1934.840
1276.103, 1936.306
1276.585, 1941.977
1277.067, 1945.601
1277.549, 1942.791
1278.032, 1940.409
1278.514, 1943.400
1278.996, 1946.615
1279.478, 1945.273
1279.960, 1941.353
1280.442, 1938.424
1280.924, 1936.496
1281.406, 1935.611
1281.889, 1935.596
1282.371, 1939.891
1282.853, 1949.267
1283.335, 1951.362
1283.817, 1942.822
1284.299, 1935.514
1284.781, 1937.064
1285.263, 1942.387
1285.745, 1946.134
1286.228, 1948.279
##END=



