##NAMES=Yttrotungstite-(Y)
##RRUFFID=R050569
##IDEAL CHEMISTRY=Y^3+^W^6+^_2_O_6_(OH)_3_
##LOCALITY=Perak, Malaysia
##OWNER=RRUFF
##SOURCE=University of Arizona Mineral Museum
##DESCRIPTION=Colorless flattened lathlike crystals
##STATUS=The identification of this mineral has been confirmed by X-ray diffraction and chemical analysis
##URL=rruff.info/R050569
##MEASURED CHEMISTRY=(Y_0.70_Nd_0.10_Ce_0.07_Dy_0.07_La_0.04_Ca_0.02_)_Σ=1_W_2.00_(O_6.00_(OH)_2.98_(H_2_O)_0.02_)_Σ=9_ ; O, OH and H_2_O estimated by difference and charge balance.
173.8053, 37141.48
174.2874, 37213.60
174.7695, 37391.28
175.2516, 37599.83
175.7338, 37746.93
176.2159, 37831.15
176.6980, 37891.01
177.1801, 37950.61
177.6622, 38011.81
178.1443, 38078.19
178.6264, 38163.41
179.1086, 38253.04
179.5907, 38310.63
180.0728, 38329.55
180.5549, 38351.88
181.0370, 38435.32
181.5191, 38567.79
182.0013, 38697.88
182.4834, 38794.52
182.9655, 38867.62
183.4476, 38945.63
183.9297, 39029.36
184.4118, 39121.15
184.8940, 39233.52
185.3761, 39365.07
185.8582, 39483.93
186.3403, 39556.22
186.8224, 39594.18
187.3046, 39661.13
187.7867, 39775.42
188.2688, 39912.68
188.7509, 40023.46
189.2330, 40107.08
189.7151, 40179.72
190.1973, 40250.73
190.6794, 40320.39
191.1615, 40395.66
191.6436, 40482.19
192.1257, 40574.75
192.6078, 40654.15
193.0900, 40720.46
193.5721, 40780.11
194.0542, 40834.52
194.5363, 40883.30
195.0184, 40943.67
195.5005, 41018.95
195.9826, 41109.27
196.4648, 41225.23
196.9469, 41375.90
197.4290, 41521.45
197.9111, 41605.02
198.3932, 41618.26
198.8753, 41638.03
199.3575, 41692.34
199.8396, 41780.89
200.3217, 41869.82
200.8038, 41957.65
201.2859, 42046.79
201.7680, 42144.55
202.2502, 42256.51
202.7323, 42355.66
203.2144, 42422.46
203.6965, 42449.50
204.1786, 42502.80
204.6607, 42588.66
205.1429, 42694.58
205.6250, 42801.16
206.1071, 42915.15
206.5892, 43005.05
207.0713, 43048.59
207.5534, 43036.09
208.0356, 43022.40
208.5177, 43002.44
208.9998, 42986.51
209.4819, 43008.60
209.9640, 43080.02
210.4461, 43164.17
210.9282, 43243.04
211.4104, 43322.50
211.8925, 43374.98
212.3746, 43387.83
212.8567, 43370.98
213.3388, 43377.89
213.8209, 43419.79
214.3031, 43465.39
214.7852, 43491.07
215.2673, 43490.30
215.7494, 43486.43
216.2315, 43476.92
216.7136, 43464.08
217.1958, 43477.38
217.6779, 43526.21
218.1600, 43588.31
218.6421, 43646.21
219.1242, 43700.82
219.6063, 43749.56
220.0885, 43793.57
220.5706, 43832.70
221.0527, 43858.39
221.5348, 43862.91
222.0169, 43862.68
222.4990, 43872.48
222.9812, 43885.59
223.4633, 43923.83
223.9454, 44004.38
224.4275, 44138.13
224.9096, 44220.59
225.3917, 44227.37
225.8739, 44205.56
226.3560, 44218.76
226.8381, 44294.20
227.3202, 44354.61
227.8023, 44369.16
228.2844, 44318.43
228.7665, 44320.92
229.2487, 44416.88
229.7308, 44539.55
230.2129, 44577.82
230.6950, 44470.25
231.1771, 44378.52
231.6592, 44357.90
232.1414, 44432.56
232.6235, 44501.84
233.1056, 44569.86
233.5877, 44630.17
234.0698, 44663.69
234.5519, 44642.68
235.0341, 44637.48
235.5162, 44679.54
235.9983, 44797.78
236.4804, 44889.75
236.9625, 44946.43
237.4446, 44979.32
237.9268, 45016.57
238.4089, 45062.96
238.8910, 45107.52
239.3731, 45145.09
239.8552, 45171.09
240.3373, 45200.01
240.8195, 45233.96
241.3016, 45270.43
241.7837, 45301.22
242.2658, 45315.64
242.7479, 45339.32
243.2300, 45387.23
243.7122, 45476.21
244.1943, 45552.94
244.6764, 45610.49
245.1585, 45654.51
245.6406, 45706.75
246.1227, 45766.91
246.6048, 45835.71
247.0870, 45913.96
247.5691, 46003.93
248.0512, 46099.33
248.5333, 46204.89
249.0154, 46316.22
249.4975, 46415.23
249.9797, 46504.27
250.4618, 46578.89
250.9439, 46634.66
251.4260, 46663.39
251.9081, 46688.93
252.3902, 46699.04
252.8724, 46704.29
253.3545, 46775.86
253.8366, 46957.11
254.3187, 47141.75
254.8008, 47256.43
255.2829, 47274.67
255.7651, 47282.80
256.2472, 47279.57
256.7293, 47270.63
257.2114, 47298.16
257.6935, 47376.46
258.1756, 47469.88
258.6577, 47553.09
259.1399, 47626.93
259.6220, 47689.50
260.1041, 47737.10
260.5862, 47772.26
261.0683, 47812.86
261.5504, 47854.46
262.0326, 47908.30
262.5147, 47986.16
262.9968, 48094.18
263.4789, 48208.02
263.9610, 48332.17
264.4431, 48462.50
264.9253, 48549.10
265.4074, 48577.59
265.8895, 48588.09
266.3716, 48606.80
266.8537, 48626.93
267.3358, 48682.17
267.8180, 48794.54
268.3001, 48951.69
268.7822, 49055.32
269.2643, 49082.19
269.7464, 49099.93
270.2285, 49178.54
270.7107, 49339.57
271.1928, 49463.54
271.6749, 49519.80
272.1570, 49518.70
272.6391, 49527.30
273.1212, 49544.50
273.6034, 49574.14
274.0855, 49629.26
274.5676, 49717.98
275.0497, 49779.14
275.5318, 49795.16
276.0139, 49773.36
276.4961, 49752.91
276.9782, 49731.12
277.4603, 49718.91
277.9424, 49728.94
278.4245, 49762.66
278.9066, 49801.70
279.3888, 49848.66
279.8709, 49897.57
280.3530, 49909.52
280.8351, 49875.13
281.3172, 49841.96
281.7993, 49869.15
282.2815, 49957.75
282.7636, 50008.96
283.2457, 49983.22
283.7278, 49909.43
284.2099, 49899.57
284.6920, 49960.95
285.1741, 50040.52
285.6563, 50081.74
286.1384, 50088.98
286.6205, 50126.14
287.1026, 50221.16
287.5847, 50348.59
288.0668, 50432.75
288.5490, 50471.11
289.0311, 50496.66
289.5132, 50533.96
289.9953, 50582.00
290.4774, 50641.57
290.9595, 50723.14
291.4417, 50808.42
291.9238, 50847.32
292.4059, 50839.06
292.8880, 50828.43
293.3701, 50852.80
293.8522, 50906.21
294.3344, 50966.67
294.8165, 51031.84
295.2986, 51099.31
295.7807, 51160.93
296.2628, 51217.64
296.7449, 51280.21
297.2271, 51378.56
297.7092, 51489.03
298.1913, 51548.66
298.6734, 51515.32
299.1555, 51458.47
299.6376, 51481.81
300.1198, 51576.71
300.6019, 51682.38
301.0840, 51756.99
301.5661, 51811.15
302.0482, 51862.63
302.5303, 51914.22
303.0125, 51967.04
303.4946, 52024.46
303.9767, 52085.17
304.4588, 52145.56
304.9409, 52194.21
305.4230, 52243.08
305.9052, 52315.40
306.3873, 52435.37
306.8694, 52543.20
307.3515, 52582.44
307.8336, 52564.18
308.3157, 52525.18
308.7979, 52443.58
309.2800, 52371.67
309.7621, 52369.54
310.2442, 52476.35
310.7263, 52594.29
311.2084, 52657.96
311.6906, 52683.36
312.1727, 52713.77
312.6548, 52788.10
313.1369, 52865.41
313.6190, 52910.04
314.1011, 52904.89
314.5833, 52896.13
315.0654, 52898.49
315.5475, 52912.91
316.0296, 52941.31
316.5117, 52980.07
316.9938, 53036.16
317.4760, 53120.37
317.9580, 53247.57
318.4402, 53360.44
318.9223, 53441.88
319.4044, 53497.41
319.8865, 53534.43
320.3686, 53527.93
320.8507, 53525.80
321.3329, 53547.97
321.8150, 53599.86
322.2971, 53663.53
322.7792, 53745.06
323.2613, 53834.17
323.7434, 53916.77
324.2256, 53998.08
324.7077, 54065.73
325.1898, 54110.57
325.6719, 54122.43
326.1540, 54152.27
326.6361, 54219.75
327.1183, 54299.96
327.6004, 54365.28
328.0825, 54403.55
328.5646, 54439.97
329.0467, 54474.94
329.5288, 54506.77
330.0110, 54555.22
330.4931, 54629.13
330.9752, 54713.99
331.4573, 54795.83
331.9394, 54876.23
332.4215, 54952.04
332.9037, 55023.97
333.3858, 55091.57
333.8679, 55148.61
334.3500, 55189.29
334.8321, 55227.38
335.3142, 55279.14
335.7964, 55359.01
336.2785, 55411.41
336.7606, 55420.95
337.2427, 55395.54
337.7248, 55376.38
338.2069, 55354.09
338.6891, 55360.82
339.1712, 55437.28
339.6533, 55597.15
340.1354, 55716.93
340.6175, 55769.88
341.0996, 55779.98
341.5818, 55818.51
342.0639, 55890.72
342.5460, 55956.92
343.0281, 55983.98
343.5102, 55974.83
343.9923, 55983.29
344.4745, 56017.12
344.9566, 56066.63
345.4387, 56116.99
345.9208, 56167.44
346.4029, 56214.40
346.8850, 56253.00
347.3672, 56285.82
347.8493, 56319.40
348.3314, 56353.16
348.8135, 56391.29
349.2956, 56440.96
349.7777, 56499.83
350.2599, 56559.56
350.7419, 56620.61
351.2241, 56678.95
351.7062, 56724.61
352.1883, 56755.62
352.6704, 56789.14
353.1525, 56832.51
353.6346, 56889.78
354.1168, 56969.95
354.5989, 57113.49
355.0810, 57259.48
355.5631, 57337.92
356.0452, 57348.42
356.5273, 57357.90
357.0095, 57400.75
357.4916, 57471.46
357.9737, 57562.37
358.4558, 57713.35
358.9379, 57847.76
359.4200, 57915.25
359.9022, 57923.34
360.3843, 57926.09
360.8664, 57903.77
361.3485, 57909.07
361.8306, 57986.22
362.3127, 58223.34
362.7949, 58437.55
363.2770, 58570.32
363.7591, 58637.36
364.2412, 58695.69
364.7233, 58762.22
365.2054, 58820.74
365.6876, 58859.60
366.1697, 58846.72
366.6518, 58865.21
367.1339, 58944.21
367.6160, 59059.03
368.0981, 59153.78
368.5803, 59203.93
369.0624, 59257.52
369.5445, 59335.40
370.0266, 59458.60
370.5087, 59538.11
370.9908, 59552.98
371.4730, 59536.16
371.9551, 59531.40
372.4372, 59538.21
372.9193, 59560.47
373.4014, 59618.48
373.8835, 59717.75
374.3657, 59708.66
374.8478, 59538.12
375.3299, 59344.87
375.8120, 59289.04
376.2941, 59399.06
376.7762, 59496.03
377.2584, 59537.49
377.7405, 59535.44
378.2226, 59545.80
378.7047, 59570.38
379.1868, 59598.09
379.6689, 59619.95
380.1511, 59636.35
380.6332, 59651.84
381.1153, 59660.87
381.5974, 59678.27
382.0795, 59751.33
382.5616, 59875.23
383.0438, 59974.42
383.5259, 59975.54
384.0080, 59917.81
384.4901, 59899.99
384.9722, 59937.79
385.4543, 59997.87
385.9364, 60042.89
386.4185, 60080.34
386.9007, 60132.24
387.3828, 60223.42
387.8649, 60328.30
388.3470, 60419.46
388.8291, 60494.52
389.3112, 60563.99
389.7934, 60630.34
390.2755, 60695.50
390.7576, 60761.44
391.2397, 60844.69
391.7218, 60916.41
392.2039, 60951.04
392.6861, 60952.13
393.1682, 60963.68
393.6503, 61008.49
394.1324, 61068.07
394.6145, 61128.42
395.0966, 61195.34
395.5788, 61252.52
396.0609, 61287.62
396.5430, 61308.03
397.0251, 61340.98
397.5072, 61410.96
397.9893, 61477.82
398.4715, 61523.95
398.9536, 61540.11
399.4357, 61552.98
399.9178, 61576.32
400.3999, 61592.17
400.8820, 61562.88
401.3642, 61437.16
401.8463, 61345.54
402.3284, 61337.11
402.8105, 61425.37
403.2926, 61477.70
403.7747, 61483.41
404.2569, 61468.05
404.7390, 61453.30
405.2211, 61433.73
405.7032, 61444.82
406.1853, 61514.93
406.6674, 61619.68
407.1496, 61625.28
407.6317, 61514.07
408.1138, 61403.80
408.5959, 61402.12
409.0780, 61495.03
409.5602, 61564.00
410.0423, 61582.29
410.5244, 61581.73
411.0065, 61617.79
411.4886, 61685.81
411.9707, 61750.09
412.4529, 61780.00
412.9350, 61795.09
413.4171, 61834.45
413.8992, 61905.46
414.3813, 61976.75
414.8634, 62018.14
415.3456, 62040.16
415.8277, 62062.89
416.3098, 62089.80
416.7919, 62124.78
417.2740, 62174.50
417.7561, 62237.80
418.2382, 62302.36
418.7203, 62366.45
419.2025, 62426.19
419.6846, 62476.79
420.1667, 62488.13
420.6488, 62522.55
421.1309, 62633.48
421.6130, 62790.94
422.0952, 62887.02
422.5773, 62825.92
423.0594, 62755.80
423.5415, 62747.26
424.0236, 62854.44
424.5057, 62930.59
424.9879, 62953.74
425.4700, 62951.07
425.9521, 62965.09
426.4342, 63001.23
426.9163, 63046.37
427.3984, 63102.95
427.8806, 63173.57
428.3627, 63214.29
428.8448, 63209.97
429.3269, 63200.53
429.8090, 63224.80
430.2911, 63285.91
430.7733, 63363.70
431.2554, 63464.59
431.7375, 63573.23
432.2196, 63644.63
432.7017, 63677.25
433.1838, 63685.13
433.6660, 63649.22
434.1481, 63589.94
434.6302, 63604.16
435.1123, 63715.31
435.5944, 63854.50
436.0765, 63948.09
436.5587, 63999.11
437.0408, 64017.82
437.5229, 63961.61
438.0050, 63900.07
438.4871, 63932.58
438.9692, 64061.83
439.4514, 64186.34
439.9335, 64225.11
440.4156, 64223.45
440.8977, 64234.45
441.3798, 64278.77
441.8619, 64334.90
442.3441, 64400.52
442.8262, 64471.94
443.3083, 64534.91
443.7904, 64592.50
444.2725, 64633.88
444.7546, 64649.12
445.2368, 64615.45
445.7189, 64600.63
446.2010, 64619.03
446.6831, 64658.80
447.1652, 64701.63
447.6473, 64744.61
448.1295, 64794.80
448.6116, 64855.80
449.0937, 64928.85
449.5758, 64997.43
450.0579, 65065.36
450.5400, 65122.80
451.0221, 65155.68
451.5042, 65155.90
451.9864, 65170.86
452.4685, 65208.00
452.9506, 65263.39
453.4327, 65334.70
453.9148, 65423.39
454.3969, 65499.89
454.8791, 65533.53
455.3612, 65537.37
455.8433, 65569.38
456.3254, 65635.97
456.8075, 65710.89
457.2896, 65756.48
457.7718, 65784.50
458.2539, 65825.54
458.7360, 65928.61
459.2181, 66026.91
459.7002, 66016.23
460.1823, 65912.67
460.6645, 65850.73
461.1466, 65958.05
461.6287, 66123.79
462.1108, 66242.53
462.5929, 66266.61
463.0750, 66291.23
463.5572, 66360.07
464.0393, 66456.23
464.5214, 66544.55
465.0035, 66626.98
465.4856, 66689.34
465.9677, 66713.26
466.4499, 66681.10
466.9320, 66693.72
467.4141, 66792.80
467.8962, 66911.00
468.3783, 66987.04
468.8604, 66989.33
469.3426, 67012.18
469.8247, 67080.47
470.3068, 67177.27
470.7889, 67225.33
471.2710, 67207.98
471.7531, 67192.77
472.2353, 67225.30
472.7174, 67306.23
473.1995, 67353.45
473.6816, 67352.63
474.1637, 67355.43
474.6458, 67452.98
475.1280, 67628.88
475.6101, 67778.03
476.0922, 67860.98
476.5743, 67893.44
477.0564, 67881.20
477.5385, 67829.23
478.0207, 67794.90
478.5028, 67843.70
478.9849, 67923.84
479.4670, 67961.41
479.9491, 67908.14
480.4312, 67888.22
480.9134, 68027.91
481.3955, 68250.28
481.8776, 68410.73
482.3597, 68400.09
482.8418, 68365.59
483.3239, 68361.18
483.8060, 68391.05
484.2881, 68447.33
484.7703, 68554.39
485.2524, 68671.23
485.7345, 68767.44
486.2166, 68842.08
486.6987, 68895.97
487.1808, 68917.73
487.6630, 68920.81
488.1451, 68948.43
488.6272, 69007.64
489.1093, 69074.16
489.5914, 69139.96
490.0735, 69204.60
490.5557, 69266.82
491.0378, 69327.22
491.5199, 69381.33
492.0020, 69412.31
492.4841, 69425.47
492.9662, 69467.92
493.4484, 69566.13
493.9305, 69684.83
494.4126, 69758.10
494.8947, 69793.21
495.3768, 69829.63
495.8589, 69894.66
496.3411, 69974.95
496.8232, 70056.48
497.3053, 70137.78
497.7874, 70216.98
498.2695, 70298.11
498.7516, 70373.88
499.2338, 70435.64
499.7159, 70458.63
500.1980, 70488.08
500.6801, 70543.10
501.1622, 70621.02
501.6443, 70695.80
502.1265, 70775.53
502.6086, 70840.93
503.0907, 70879.56
503.5728, 70865.08
504.0549, 70881.47
504.5370, 70943.45
505.0192, 71025.42
505.5013, 71084.55
505.9834, 71110.34
506.4655, 71151.23
506.9476, 71227.59
507.4297, 71330.76
507.9119, 71400.73
508.3940, 71432.78
508.8761, 71471.45
509.3582, 71570.05
509.8403, 71707.30
510.3224, 71801.78
510.8046, 71836.52
511.2867, 71847.92
511.7688, 71880.80
512.2509, 71923.65
512.7330, 71948.66
513.2151, 71908.82
513.6973, 71871.14
514.1794, 71905.45
514.6615, 72005.52
515.1436, 72083.48
515.6257, 72075.30
516.1078, 72043.17
516.5900, 72035.55
517.0721, 72087.47
517.5542, 72117.87
518.0363, 72087.19
518.5184, 72031.94
519.0005, 72021.15
519.4827, 72105.34
519.9648, 72164.30
520.4469, 72151.61
520.9290, 72070.26
521.4111, 72061.20
521.8932, 72150.84
522.3754, 72255.00
522.8575, 72306.25
523.3396, 72303.50
523.8217, 72295.83
524.3038, 72282.71
524.7859, 72278.40
525.2681, 72303.08
525.7502, 72356.13
526.2323, 72431.99
526.7144, 72573.99
527.1965, 72717.78
527.6786, 72746.46
528.1608, 72668.74
528.6429, 72587.77
529.1250, 72562.66
529.6071, 72574.86
530.0892, 72609.23
530.5714, 72670.92
531.0535, 72736.52
531.5356, 72806.78
532.0176, 72872.65
532.4998, 72918.80
532.9819, 72931.54
533.4640, 72935.72
533.9461, 72927.51
534.4282, 72907.58
534.9103, 72919.95
535.3925, 72971.41
535.8746, 73046.88
536.3567, 73144.45
536.8388, 73274.02
537.3209, 73377.62
537.8030, 73447.79
538.2852, 73497.92
538.7673, 73551.79
539.2494, 73608.69
539.7315, 73648.87
540.2136, 73652.72
540.6957, 73642.97
541.1779, 73671.66
541.6600, 73735.31
542.1421, 73803.30
542.6242, 73844.27
543.1063, 73880.59
543.5884, 73947.70
544.0706, 74062.34
544.5527, 74160.29
545.0348, 74181.53
545.5169, 74170.28
545.9990, 74185.48
546.4811, 74285.00
546.9633, 74370.24
547.4454, 74386.82
547.9275, 74348.66
548.4096, 74381.06
548.8917, 74545.79
549.3738, 74715.22
549.8560, 74828.85
550.3381, 74865.37
550.8202, 74941.87
551.3023, 75076.29
551.7844, 75221.45
552.2665, 75314.26
552.7487, 75352.66
553.2308, 75413.34
553.7129, 75522.81
554.1950, 75653.65
554.6771, 75757.05
555.1592, 75833.51
555.6414, 75884.37
556.1235, 75884.53
556.6056, 75872.15
557.0877, 75888.88
557.5698, 75937.09
558.0519, 76024.55
558.5341, 76199.09
559.0162, 76397.63
559.4983, 76551.24
559.9804, 76641.70
560.4625, 76692.02
560.9446, 76688.30
561.4268, 76648.28
561.9089, 76615.20
562.3910, 76569.77
562.8731, 76558.66
563.3552, 76610.19
563.8373, 76725.05
564.3195, 76788.03
564.8016, 76783.85
565.2837, 76759.75
565.7658, 76752.62
566.2479, 76762.67
566.7300, 76760.98
567.2122, 76745.37
567.6943, 76715.34
568.1764, 76651.96
568.6585, 76568.12
569.1406, 76516.84
569.6227, 76522.07
570.1049, 76567.98
570.5870, 76661.93
571.0691, 76790.17
571.5512, 76887.54
572.0333, 76889.61
572.5154, 76866.13
572.9976, 76869.34
573.4797, 76916.83
573.9618, 76948.84
574.4439, 76912.66
574.9260, 76872.72
575.4081, 76900.86
575.8903, 77079.38
576.3724, 77197.31
576.8545, 77214.85
577.3366, 77162.56
577.8187, 77129.80
578.3008, 77116.21
578.7830, 77123.57
579.2651, 77154.93
579.7472, 77208.64
580.2293, 77279.16
580.7114, 77367.44
581.1935, 77454.69
581.6757, 77523.57
582.1578, 77578.02
582.6399, 77627.01
583.1220, 77672.72
583.6041, 77710.14
584.0862, 77719.64
584.5684, 77719.57
585.0505, 77741.85
585.5326, 77816.32
586.0147, 77898.31
586.4968, 77976.55
586.9789, 78048.73
587.4611, 78105.34
587.9432, 78117.37
588.4253, 78139.72
588.9074, 78202.57
589.3895, 78327.01
589.8716, 78395.36
590.3538, 78377.15
590.8359, 78351.30
591.3180, 78422.97
591.8001, 78597.05
592.2822, 78719.39
592.7643, 78753.68
593.2465, 78736.00
593.7286, 78712.36
594.2107, 78687.48
594.6928, 78685.85
595.1749, 78730.92
595.6570, 78798.13
596.1392, 78857.29
596.6213, 78910.13
597.1034, 78981.74
597.5854, 79132.91
598.0676, 79278.32
598.5497, 79344.54
599.0318, 79272.54
599.5139, 79235.28
599.9960, 79266.35
600.4781, 79342.44
600.9603, 79441.82
601.4424, 79597.55
601.9245, 79710.54
602.4066, 79751.63
602.8887, 79743.96
603.3708, 79771.24
603.8530, 79841.01
604.3351, 79883.66
604.8172, 79832.72
605.2993, 79724.13
605.7814, 79691.34
606.2635, 79734.38
606.7457, 79814.62
607.2278, 79923.27
607.7099, 80040.85
608.1920, 80133.39
608.6741, 80182.45
609.1563, 80243.28
609.6384, 80390.64
610.1205, 80556.60
610.6026, 80645.13
611.0847, 80537.32
611.5668, 80457.66
612.0490, 80467.34
612.5311, 80547.20
613.0132, 80619.23
613.4953, 80679.52
613.9774, 80740.86
614.4595, 80813.79
614.9417, 80899.15
615.4238, 80946.00
615.9059, 80947.20
616.3880, 80945.86
616.8701, 80981.53
617.3522, 81047.87
617.8344, 81126.48
618.3165, 81220.98
618.7986, 81304.00
619.2807, 81340.82
619.7628, 81346.27
620.2449, 81347.25
620.7271, 81339.02
621.2092, 81343.81
621.6913, 81374.29
622.1734, 81427.23
622.6555, 81488.30
623.1376, 81585.99
623.6198, 81660.28
624.1019, 81680.19
624.5840, 81636.11
625.0661, 81628.73
625.5482, 81664.80
626.0303, 81725.26
626.5125, 81807.59
626.9946, 81911.88
627.4767, 81974.65
627.9588, 81978.59
628.4409, 81976.14
628.9230, 82050.57
629.4052, 82177.63
629.8873, 82287.68
630.3694, 82350.99
630.8515, 82392.77
631.3336, 82441.28
631.8157, 82487.63
632.2979, 82504.88
632.7800, 82441.03
633.2621, 82381.39
633.7442, 82367.77
634.2263, 82405.04
634.7084, 82456.41
635.1906, 82547.19
635.6727, 82622.64
636.1548, 82640.15
636.6369, 82572.81
637.1190, 82565.70
637.6011, 82636.90
638.0833, 82732.76
638.5654, 82776.33
639.0475, 82776.73
639.5296, 82801.09
640.0117, 82869.38
640.4938, 82964.04
640.9760, 83086.88
641.4581, 83219.59
641.9402, 83317.98
642.4223, 83337.98
642.9044, 83335.84
643.3865, 83337.55
643.8687, 83345.02
644.3508, 83365.75
644.8329, 83393.09
645.3150, 83442.46
645.7971, 83527.78
646.2792, 83668.73
646.7614, 83768.76
647.2435, 83822.45
647.7256, 83845.33
648.2077, 83849.41
648.6898, 83834.40
649.1719, 83804.09
649.6541, 83749.95
650.1362, 83703.49
650.6183, 83715.93
651.1004, 83774.60
651.5825, 83840.91
652.0646, 83895.37
652.5468, 83954.69
653.0289, 84048.18
653.5110, 84161.35
653.9931, 84243.09
654.4752, 84265.63
654.9573, 84261.54
655.4395, 84227.38
655.9216, 84154.21
656.4037, 84146.58
656.8858, 84228.78
657.3679, 84344.95
657.8500, 84474.23
658.3322, 84626.48
658.8143, 84710.35
659.2964, 84712.41
659.7785, 84680.53
660.2606, 84664.19
660.7427, 84661.79
661.2249, 84668.28
661.7070, 84684.76
662.1891, 84704.86
662.6712, 84708.93
663.1533, 84712.50
663.6354, 84748.29
664.1175, 84877.35
664.5996, 84995.04
665.0817, 85052.52
665.5638, 85056.04
666.0460, 85057.84
666.5281, 85067.38
667.0102, 85067.51
667.4923, 85037.59
667.9744, 84972.03
668.4565, 84993.46
668.9387, 85119.88
669.4208, 85267.65
669.9029, 85376.08
670.3850, 85448.98
670.8671, 85497.53
671.3492, 85519.38
671.8314, 85538.78
672.3135, 85597.67
672.7956, 85665.11
673.2777, 85689.15
673.7598, 85596.24
674.2419, 85540.48
674.7241, 85623.08
675.2062, 85783.33
675.6883, 85899.36
676.1704, 85895.23
676.6525, 85919.73
677.1346, 86013.21
677.6168, 86158.90
678.0989, 86267.80
678.5810, 86337.34
679.0631, 86384.23
679.5452, 86400.77
680.0273, 86400.01
680.5095, 86452.42
680.9916, 86557.73
681.4737, 86657.76
681.9558, 86697.19
682.4379, 86710.38
682.9200, 86729.07
683.4022, 86749.37
683.8843, 86824.38
684.3664, 87033.69
684.8485, 87280.84
685.3306, 87478.00
685.8127, 87584.58
686.2949, 87672.86
686.7770, 87742.84
687.2591, 87796.73
687.7412, 87833.33
688.2233, 87848.65
688.7054, 87870.94
689.1876, 87901.04
689.6697, 87948.92
690.1518, 88064.24
690.6339, 88230.01
691.1160, 88349.34
691.5981, 88297.29
692.0803, 88224.57
692.5624, 88308.55
693.0445, 88528.34
693.5266, 88712.91
694.0087, 88788.12
694.4908, 88812.27
694.9730, 88807.18
695.4551, 88764.97
695.9372, 88741.78
696.4193, 88744.16
696.9014, 88756.93
697.3835, 88775.16
697.8657, 88801.89
698.3478, 88802.33
698.8299, 88773.48
699.3120, 88721.92
699.7941, 88633.12
700.2762, 88527.90
700.7584, 88464.76
701.2405, 88462.62
701.7226, 88498.97
702.2047, 88592.79
702.6868, 88705.93
703.1689, 88770.39
703.6511, 88708.28
704.1332, 88658.66
704.6153, 88673.24
705.0974, 88730.05
705.5795, 88755.67
706.0616, 88732.23
706.5438, 88717.98
707.0259, 88745.18
707.5080, 88798.16
707.9901, 88773.98
708.4722, 88670.91
708.9543, 88588.40
709.4365, 88605.16
709.9186, 88679.45
710.4007, 88763.31
710.8828, 88852.58
711.3649, 88892.31
711.8470, 88799.38
712.3292, 88676.13
712.8113, 88600.94
713.2934, 88597.79
713.7755, 88613.23
714.2576, 88666.30
714.7397, 88715.84
715.2219, 88718.70
715.7040, 88657.82
716.1861, 88637.18
716.6682, 88685.05
717.1503, 88736.11
717.6324, 88655.02
718.1146, 88479.89
718.5967, 88389.66
719.0788, 88482.07
719.5609, 88609.13
720.0430, 88619.06
720.5251, 88553.65
721.0073, 88501.37
721.4894, 88498.47
721.9715, 88511.94
722.4536, 88556.09
722.9357, 88613.92
723.4178, 88595.74
723.9000, 88439.45
724.3821, 88326.70
724.8642, 88349.34
725.3463, 88480.67
725.8284, 88492.99
726.3105, 88380.21
726.7927, 88297.86
727.2748, 88410.60
727.7569, 88604.82
728.2390, 88666.76
728.7211, 88584.88
729.2032, 88511.45
729.6853, 88553.66
730.1674, 88632.45
730.6495, 88690.83
731.1317, 88724.94
731.6138, 88721.93
732.0959, 88626.66
732.5780, 88545.92
733.0601, 88591.42
733.5422, 88801.10
734.0244, 88932.19
734.5065, 88957.75
734.9886, 88927.06
735.4707, 88884.05
735.9528, 88839.27
736.4349, 88835.02
736.9171, 88904.23
737.3992, 88974.13
737.8813, 88974.26
738.3634, 88931.87
738.8455, 88894.94
739.3276, 88848.59
739.8098, 88842.86
740.2919, 88910.03
740.7740, 89025.49
741.2561, 89135.96
741.7382, 89251.57
742.2203, 89331.02
742.7025, 89355.45
743.1846, 89336.80
743.6667, 89295.22
744.1488, 89234.86
744.6309, 89207.70
745.1130, 89286.31
745.5952, 89388.95
746.0773, 89410.02
746.5594, 89357.59
747.0415, 89322.23
747.5236, 89347.87
748.0057, 89398.38
748.4879, 89461.84
748.9700, 89542.60
749.4521, 89600.70
749.9342, 89639.22
750.4163, 89649.90
750.8984, 89598.54
751.3806, 89487.63
751.8627, 89506.77
752.3448, 89675.89
752.8269, 89839.40
753.3090, 89788.88
753.7911, 89649.24
754.2733, 89638.42
754.7554, 89822.37
755.2375, 89997.43
755.7196, 90046.56
756.2017, 90039.57
756.6838, 90046.95
757.1660, 90093.63
757.6481, 90134.05
758.1302, 90173.42
758.6123, 90200.65
759.0944, 90189.90
759.5765, 90137.56
760.0587, 90115.72
760.5408, 90141.02
761.0229, 90195.14
761.5050, 90269.26
761.9871, 90351.98
762.4692, 90415.51
762.9514, 90435.74
763.4335, 90450.17
763.9156, 90490.05
764.3977, 90538.48
764.8798, 90557.01
765.3619, 90481.02
765.8441, 90452.64
766.3262, 90522.26
766.8083, 90649.67
767.2904, 90692.16
767.7725, 90641.17
768.2546, 90586.98
768.7368, 90553.93
769.2189, 90552.30
769.7010, 90620.52
770.1831, 90745.78
770.6652, 90868.45
771.1473, 90989.39
771.6295, 91067.64
772.1116, 91033.70
772.5937, 90900.03
773.0758, 90861.52
773.5579, 91048.40
774.0400, 91212.28
774.5222, 91241.04
775.0043, 91139.84
775.4864, 91152.66
775.9685, 91299.91
776.4506, 91433.49
776.9327, 91429.51
777.4149, 91342.17
777.8970, 91276.79
778.3791, 91239.19
778.8612, 91250.23
779.3433, 91366.60
779.8254, 91507.88
780.3076, 91611.39
780.7897, 91663.75
781.2718, 91708.15
781.7539, 91742.84
782.2360, 91777.68
782.7181, 91821.12
783.2003, 91876.21
783.6824, 91913.29
784.1645, 91926.88
784.6466, 91947.33
785.1287, 92016.34
785.6108, 92112.55
786.0930, 92192.14
786.5751, 92246.90
787.0572, 92292.51
787.5393, 92327.72
788.0214, 92364.93
788.5035, 92417.48
788.9857, 92509.33
789.4678, 92581.63
789.9499, 92641.08
790.4320, 92673.36
790.9141, 92641.33
791.3962, 92538.20
791.8784, 92512.20
792.3605, 92599.54
792.8426, 92714.09
793.3247, 92745.48
793.8068, 92723.99
794.2889, 92710.48
794.7711, 92719.96
795.2531, 92746.69
795.7352, 92813.29
796.2173, 92886.94
796.6995, 92916.77
797.1816, 92838.70
797.6637, 92820.23
798.1458, 92906.84
798.6279, 93030.19
799.1100, 93047.27
799.5922, 92963.41
800.0743, 92927.80
800.5564, 93001.91
801.0385, 93098.00
801.5206, 93094.41
802.0027, 93026.86
802.4849, 92970.17
802.9670, 92931.65
803.4491, 92933.70
803.9312, 93028.32
804.4133, 93164.34
804.8954, 93216.83
805.3776, 93138.81
805.8597, 93078.03
806.3418, 93053.20
806.8239, 93075.32
807.3060, 93207.23
807.7881, 93430.85
808.2703, 93598.17
808.7524, 93615.60
809.2345, 93584.45
809.7166, 93616.25
810.1987, 93684.48
810.6808, 93721.03
811.1630, 93669.05
811.6451, 93617.96
812.1272, 93583.77
812.6093, 93570.70
813.0914, 93594.63
813.5735, 93659.76
814.0557, 93751.05
814.5378, 93883.48
815.0199, 94021.03
815.5020, 94064.24
815.9841, 94027.97
816.4662, 93977.19
816.9484, 93913.48
817.4305, 93875.87
817.9126, 93896.08
818.3947, 93967.37
818.8768, 94065.20
819.3589, 94258.61
819.8411, 94383.65
820.3232, 94366.13
820.8053, 94251.23
821.2874, 94257.91
821.7695, 94394.34
822.2516, 94539.86
822.7338, 94654.38
823.2159, 94734.90
823.6980, 94749.63
824.1801, 94718.26
824.6622, 94716.92
825.1443, 94821.41
825.6265, 94929.23
826.1086, 94970.14
826.5907, 94958.35
827.0728, 95017.50
827.5549, 95195.73
828.0370, 95349.92
828.5192, 95422.55
829.0013, 95436.74
829.4834, 95468.00
829.9655, 95518.10
830.4476, 95603.80
830.9297, 95784.52
831.4119, 95970.20
831.8940, 96030.43
832.3761, 96002.65
832.8582, 96056.36
833.3403, 96329.16
833.8224, 96607.66
834.3046, 96827.67
834.7867, 96993.66
835.2688, 97124.70
835.7509, 97215.09
836.2330, 97304.09
836.7151, 97395.23
837.1973, 97504.88
837.6794, 97676.17
838.1615, 97903.73
838.6436, 98164.40
839.1257, 98491.93
839.6078, 98806.25
840.0900, 99049.18
840.5721, 99227.90
841.0542, 99425.06
841.5363, 99647.98
842.0184, 99882.71
842.5005, 100126.8
842.9827, 100379.1
843.4648, 100638.3
843.9469, 100903.9
844.4290, 101162.0
844.9111, 101390.3
845.3932, 101615.0
845.8754, 101901.1
846.3575, 102214.9
846.8396, 102438.1
847.3217, 102446.0
847.8038, 102443.8
848.2859, 102502.7
848.7681, 102605.9
849.2502, 102693.9
849.7323, 102766.0
850.2144, 102832.2
850.6965, 102920.9
851.1786, 102983.2
851.6608, 102883.2
852.1429, 102659.4
852.6250, 102443.4
853.1071, 102311.9
853.5892, 102194.4
854.0714, 102048.7
854.5535, 101885.9
855.0356, 101750.5
855.5177, 101673.6
855.9998, 101569.1
856.4819, 101411.1
856.9641, 101216.3
857.4462, 101020.8
857.9283, 100826.5
858.4104, 100667.5
858.8925, 100576.8
859.3746, 100500.0
859.8568, 100394.1
860.3389, 100258.6
860.8210, 100095.0
861.3030, 99771.46
861.7852, 99589.61
862.2673, 99678.16
862.7494, 99898.38
863.2315, 99950.73
863.7136, 99815.92
864.1957, 99694.01
864.6779, 99630.82
865.1600, 99613.84
865.6421, 99664.18
866.1242, 99743.88
866.6063, 99765.23
867.0884, 99640.35
867.5706, 99527.93
868.0527, 99506.88
868.5348, 99531.16
869.0169, 99530.89
869.4990, 99521.19
869.9811, 99434.13
870.4633, 99233.45
870.9454, 99004.86
871.4275, 98888.65
871.9096, 98858.19
872.3917, 98826.27
872.8738, 98771.30
873.3560, 98711.18
873.8381, 98648.26
874.3202, 98592.22
874.8023, 98555.52
875.2844, 98559.89
875.7665, 98555.03
876.2487, 98544.94
876.7308, 98520.36
877.2129, 98453.05
877.6950, 98349.67
878.1771, 98312.52
878.6592, 98362.73
879.1414, 98418.70
879.6235, 98398.00
880.1056, 98341.86
880.5877, 98296.24
881.0698, 98269.34
881.5519, 98253.75
882.0341, 98237.92
882.5162, 98242.34
882.9983, 98291.22
883.4804, 98394.63
883.9625, 98460.49
884.4446, 98488.51
884.9268, 98475.68
885.4089, 98347.80
885.8910, 98209.33
886.3731, 98258.90
886.8552, 98516.91
887.3373, 98702.37
887.8195, 98620.98
888.3016, 98494.27
888.7837, 98436.67
889.2658, 98449.63
889.7479, 98534.59
890.2300, 98713.20
890.7122, 98861.39
891.1943, 98880.80
891.6764, 98817.76
892.1585, 98766.57
892.6406, 98731.91
893.1227, 98740.49
893.6049, 98888.55
894.0870, 99009.01
894.5691, 98950.75
895.0512, 98747.09
895.5333, 98738.25
896.0154, 99019.94
896.4976, 99249.90
896.9797, 99287.36
897.4618, 99201.86
897.9439, 99162.86
898.4260, 99168.48
898.9081, 99213.46
899.3903, 99333.46
899.8724, 99454.73
900.3545, 99537.54
900.8366, 99586.55
901.3187, 99612.07
901.8008, 99598.81
902.2830, 99592.70
902.7651, 99589.99
903.2472, 99610.60
903.7293, 99723.45
904.2114, 99908.98
904.6935, 100026.4
905.1757, 100016.4
905.6578, 99981.14
906.1399, 99993.35
906.6220, 100041.6
907.1041, 100110.4
907.5862, 100230.9
908.0684, 100318.8
908.5505, 100346.2
909.0326, 100371.2
909.5147, 100477.6
909.9968, 100657.3
910.4789, 100756.2
910.9611, 100747.9
911.4432, 100745.7
911.9253, 100864.4
912.4074, 101040.2
912.8895, 101217.1
913.3716, 101399.4
913.8538, 101517.1
914.3359, 101502.7
914.8180, 101490.9
915.3001, 101569.0
915.7822, 101735.9
916.2643, 101870.4
916.7465, 101971.1
917.2286, 102048.8
917.7107, 102087.1
918.1928, 102121.9
918.6749, 102186.9
919.1570, 102284.3
919.6392, 102417.6
920.1213, 102632.6
920.6034, 102831.7
921.0855, 102979.5
921.5676, 103085.9
922.0497, 103205.9
922.5319, 103340.2
923.0140, 103456.4
923.4961, 103524.0
923.9782, 103582.8
924.4603, 103705.2
924.9424, 103856.6
925.4246, 103957.6
925.9067, 103897.5
926.3888, 103887.9
926.8708, 103984.8
927.3530, 104144.5
927.8351, 104297.0
928.3172, 104442.5
928.7993, 104593.3
929.2814, 104743.6
929.7635, 104932.2
930.2457, 105239.2
930.7278, 105602.8
931.2099, 105913.2
931.6920, 106113.5
932.1741, 106353.9
932.6563, 106675.4
933.1384, 107049.4
933.6205, 107463.2
934.1026, 107926.6
934.5847, 108363.3
935.0668, 108768.6
935.5490, 109182.9
936.0311, 109593.6
936.5132, 110060.3
936.9953, 110708.5
937.4774, 111543.9
937.9595, 112265.8
938.4417, 112610.9
938.9238, 113002.5
939.4059, 113650.9
939.8880, 114497.2
940.3701, 115098.5
940.8522, 115443.8
941.3344, 115815.7
941.8165, 116389.2
942.2986, 117034.3
942.7807, 117662.9
943.2628, 118232.8
943.7449, 118632.4
944.2271, 118740.1
944.7092, 118778.5
945.1913, 118788.9
945.6734, 118766.2
946.1555, 118721.1
946.6376, 118654.0
947.1198, 118451.7
947.6019, 118075.9
948.0840, 117606.1
948.5661, 117109.2
949.0482, 116580.7
949.5303, 116007.7
950.0125, 115369.4
950.4946, 114747.9
950.9767, 114175.8
951.4588, 113597.0
951.9409, 112949.6
952.4230, 112234.5
952.9052, 111612.5
953.3873, 111086.8
953.8694, 110585.0
954.3515, 110014.0
954.8336, 109458.9
955.3157, 108999.5
955.7979, 108637.4
956.2800, 108305.2
956.7621, 107993.0
957.2442, 107704.1
957.7263, 107441.8
958.2084, 107206.1
958.6906, 106997.6
959.1727, 106814.6
959.6548, 106642.7
960.1369, 106489.5
960.6190, 106329.7
961.1011, 106142.2
961.5833, 105935.0
962.0654, 105724.8
962.5475, 105473.7
963.0296, 105286.7
963.5117, 105178.9
963.9938, 105127.2
964.4760, 105130.6
964.9581, 105169.9
965.4402, 105155.0
965.9223, 105069.5
966.4044, 104963.9
966.8865, 104833.5
967.3687, 104728.1
967.8508, 104704.3
968.3329, 104785.6
968.8150, 104832.1
969.2971, 104847.7
969.7792, 104819.6
970.2614, 104710.1
970.7435, 104558.3
971.2256, 104493.4
971.7077, 104497.8
972.1898, 104480.0
972.6719, 104358.3
973.1541, 104237.1
973.6362, 104139.2
974.1183, 104083.4
974.6004, 104131.1
975.0825, 104321.6
975.5646, 104447.7
976.0468, 104451.2
976.5289, 104409.4
977.0110, 104450.1
977.4931, 104527.0
977.9752, 104541.9
978.4573, 104433.7
978.9395, 104361.6
979.4216, 104442.6
979.9037, 104534.2
980.3858, 104516.5
980.8679, 104365.1
981.3500, 104300.6
981.8322, 104327.1
982.3143, 104401.6
982.7964, 104572.9
983.2785, 104721.6
983.7606, 104633.8
984.2427, 104345.2
984.7249, 104177.3
985.2070, 104331.1
985.6891, 104491.5
986.1712, 104586.6
986.6533, 104629.3
987.1354, 104650.3
987.6176, 104651.0
988.0997, 104645.4
988.5818, 104636.3
989.0639, 104626.2
989.5460, 104600.3
990.0281, 104581.7
990.5103, 104603.3
990.9924, 104711.8
991.4745, 104787.6
991.9566, 104820.3
992.4387, 104842.8
992.9208, 104890.8
993.4029, 104955.5
993.8850, 105006.4
994.3671, 105041.7
994.8492, 105055.1
995.3314, 105012.6
995.8135, 104974.5
996.2956, 104982.5
996.7777, 105031.7
997.2598, 105076.8
997.7419, 105117.1
998.2241, 105159.7
998.7062, 105214.0
999.1883, 105260.9
999.6704, 105247.9
1000.153, 105203.8
1000.635, 105193.0
1001.117, 105282.4
1001.599, 105343.6
1002.081, 105317.0
1002.563, 105270.0
1003.045, 105263.0
1003.527, 105296.6
1004.009, 105367.8
1004.492, 105481.0
1004.974, 105577.1
1005.456, 105574.7
1005.938, 105550.8
1006.420, 105592.0
1006.902, 105704.3
1007.384, 105793.0
1007.866, 105849.2
1008.349, 105877.6
1008.831, 105879.6
1009.313, 105855.4
1009.795, 105772.6
1010.277, 105656.4
1010.759, 105622.4
1011.241, 105766.0
1011.723, 105926.4
1012.205, 106015.4
1012.688, 106065.9
1013.170, 106129.3
1013.652, 106222.8
1014.134, 106269.9
1014.616, 106259.2
1015.098, 106234.2
1015.580, 106218.4
1016.062, 106224.8
1016.544, 106298.7
1017.027, 106437.2
1017.509, 106531.4
1017.991, 106511.4
1018.473, 106464.1
1018.955, 106404.2
1019.437, 106347.4
1019.919, 106381.9
1020.401, 106501.3
1020.884, 106551.4
1021.366, 106414.8
1021.848, 106302.4
1022.330, 106484.5
1022.812, 106789.4
1023.294, 106969.6
1023.776, 106895.9
1024.258, 106847.8
1024.740, 106836.5
1025.223, 106827.7
1025.705, 106750.2
1026.187, 106655.7
1026.669, 106755.4
1027.151, 107037.3
1027.633, 107217.8
1028.115, 107014.0
1028.597, 106802.4
1029.079, 106786.8
1029.562, 106910.1
1030.044, 106975.8
1030.526, 106978.9
1031.008, 106986.3
1031.490, 107015.2
1031.972, 107060.5
1032.454, 107150.2
1032.936, 107239.2
1033.419, 107251.5
1033.901, 107092.0
1034.383, 107053.1
1034.865, 107218.2
1035.347, 107403.4
1035.829, 107446.5
1036.311, 107384.5
1036.793, 107443.5
1037.276, 107610.7
1037.758, 107744.6
1038.240, 107739.4
1038.722, 107699.8
1039.204, 107667.7
1039.686, 107649.3
1040.168, 107656.1
1040.650, 107692.2
1041.132, 107735.9
1041.615, 107788.8
1042.097, 107831.1
1042.579, 107814.7
1043.061, 107781.4
1043.543, 107794.4
1044.025, 107872.0
1044.507, 107969.6
1044.989, 108131.5
1045.471, 108236.9
1045.954, 108192.7
1046.436, 108035.9
1046.918, 107966.2
1047.400, 107980.0
1047.882, 108052.5
1048.364, 108244.0
1048.846, 108412.4
1049.328, 108446.0
1049.811, 108409.0
1050.293, 108434.1
1050.775, 108555.1
1051.257, 108600.2
1051.739, 108539.4
1052.221, 108464.9
1052.703, 108479.3
1053.185, 108540.6
1053.667, 108598.9
1054.150, 108647.8
1054.632, 108668.6
1055.114, 108603.4
1055.596, 108577.9
1056.078, 108637.7
1056.560, 108765.0
1057.042, 108950.9
1057.524, 109166.1
1058.006, 109246.6
1058.489, 109055.9
1058.971, 108869.7
1059.453, 108844.7
1059.935, 108925.2
1060.417, 109056.4
1060.899, 109268.4
1061.381, 109404.7
1061.863, 109460.4
1062.346, 109458.7
1062.828, 109358.8
1063.310, 109247.5
1063.792, 109263.8
1064.274, 109382.9
1064.756, 109470.9
1065.238, 109458.1
1065.720, 109455.1
1066.203, 109480.3
1066.685, 109523.4
1067.167, 109563.9
1067.649, 109605.7
1068.131, 109672.0
1068.613, 109775.4
1069.095, 109850.7
1069.577, 109832.2
1070.059, 109796.1
1070.542, 109794.5
1071.024, 109827.1
1071.506, 109870.9
1071.988, 109926.9
1072.470, 109972.5
1072.952, 109990.2
1073.434, 109998.2
1073.916, 110029.0
1074.398, 110061.4
1074.881, 110052.6
1075.363, 109908.6
1075.845, 109878.7
1076.327, 110000.3
1076.809, 110167.3
1077.291, 110275.9
1077.773, 110348.2
1078.255, 110450.3
1078.738, 110579.0
1079.220, 110663.5
1079.702, 110628.6
1080.184, 110586.1
1080.666, 110566.5
1081.148, 110573.3
1081.630, 110629.0
1082.112, 110729.2
1082.594, 110812.1
1083.077, 110865.3
1083.559, 110891.4
1084.041, 110879.2
1084.523, 110850.1
1085.005, 110813.0
1085.487, 110759.8
1085.969, 110785.2
1086.451, 110906.4
1086.933, 111027.9
1087.416, 111094.5
1087.898, 111133.0
1088.380, 111204.5
1088.862, 111281.6
1089.344, 111301.3
1089.826, 111157.5
1090.308, 111082.9
1090.790, 111124.4
1091.272, 111197.8
1091.755, 111183.7
1092.237, 111124.4
1092.719, 111228.8
1093.201, 111498.2
1093.683, 111710.6
1094.165, 111693.1
1094.647, 111638.4
1095.129, 111635.6
1095.612, 111668.1
1096.094, 111689.8
1096.576, 111700.5
1097.058, 111731.8
1097.540, 111800.9
1098.022, 111852.5
1098.504, 111810.6
1098.986, 111737.7
1099.469, 111692.4
1099.951, 111681.8
1100.433, 111708.5
1100.915, 111785.9
1101.397, 111847.6
1101.879, 111832.5
1102.361, 111809.6
1102.843, 111914.0
1103.325, 112100.2
1103.807, 112270.5
1104.290, 112449.5
1104.772, 112514.0
1105.254, 112399.9
1105.736, 112264.2
1106.218, 112277.7
1106.700, 112395.6
1107.182, 112439.1
1107.664, 112406.4
1108.147, 112352.8
1108.629, 112263.9
1109.111, 112211.6
1109.593, 112239.1
1110.075, 112317.2
1110.557, 112405.2
1111.039, 112501.7
1111.521, 112563.2
1112.004, 112576.9
1112.486, 112587.4
1112.968, 112628.9
1113.450, 112687.8
1113.932, 112766.0
1114.414, 112862.3
1114.896, 112897.9
1115.378, 112859.6
1115.860, 112829.9
1116.343, 112834.6
1116.825, 112872.0
1117.307, 112966.5
1117.789, 113082.4
1118.271, 113161.3
1118.753, 113169.5
1119.235, 113188.6
1119.717, 113231.1
1120.199, 113265.4
1120.682, 113242.1
1121.164, 113201.2
1121.646, 113270.1
1122.128, 113422.1
1122.610, 113557.9
1123.092, 113643.2
1123.574, 113695.2
1124.056, 113716.8
1124.539, 113712.8
1125.021, 113658.8
1125.503, 113574.8
1125.985, 113614.3
1126.467, 113787.3
1126.949, 113950.1
1127.431, 114053.7
1127.913, 114075.4
1128.396, 113943.8
1128.878, 113733.5
1129.360, 113647.9
1129.842, 113689.2
1130.324, 113762.2
1130.806, 113852.7
1131.288, 113938.1
1131.770, 113983.2
1132.252, 114021.4
1132.734, 114094.8
1133.217, 114210.0
1133.699, 114271.4
1134.181, 114265.0
1134.663, 114282.0
1135.145, 114384.8
1135.627, 114496.1
1136.109, 114503.4
1136.591, 114451.1
1137.074, 114405.9
1137.556, 114337.3
1138.038, 114398.7
1138.520, 114650.1
1139.002, 114884.6
1139.484, 114919.3
1139.966, 114835.3
1140.448, 114788.6
1140.931, 114779.1
1141.413, 114803.3
1141.895, 114897.8
1142.377, 114974.6
1142.859, 115022.4
1143.341, 115046.0
1143.823, 115038.4
1144.305, 115011.4
1144.787, 115007.7
1145.270, 115030.0
1145.752, 115069.9
1146.234, 115131.9
1146.716, 115200.6
1147.198, 115278.3
1147.680, 115351.6
1148.162, 115385.4
1148.644, 115384.2
1149.126, 115380.8
1149.609, 115376.8
1150.091, 115406.6
1150.573, 115532.4
1151.055, 115666.9
1151.537, 115758.0
1152.019, 115805.7
1152.501, 115779.8
1152.983, 115679.8
1153.466, 115648.0
1153.948, 115766.6
1154.430, 115890.3
1154.912, 115880.2
1155.394, 115811.3
1155.876, 115750.8
1156.358, 115688.3
1156.840, 115766.0
1157.322, 116006.8
1157.805, 116210.0
1158.287, 116237.0
1158.769, 116198.5
1159.251, 116202.0
1159.733, 116238.1
1160.215, 116291.6
1160.697, 116373.8
1161.179, 116446.3
1161.661, 116515.7
1162.144, 116548.6
1162.626, 116497.4
1163.108, 116404.8
1163.590, 116302.8
1164.072, 116210.8
1164.554, 116201.9
1165.036, 116330.8
1165.518, 116474.5
1166.000, 116627.8
1166.483, 116774.5
1166.965, 116917.8
1167.447, 117034.2
1167.929, 117046.6
1168.411, 116959.5
1168.893, 116935.5
1169.375, 117130.6
1169.857, 117239.1
1170.340, 117161.0
1170.822, 117011.8
1171.304, 117027.9
1171.786, 117138.7
1172.268, 117148.6
1172.750, 117010.7
1173.232, 116902.7
1173.714, 116895.9
1174.197, 116936.3
1174.679, 117014.0
1175.161, 117118.8
1175.643, 117229.9
1176.125, 117339.8
1176.607, 117419.5
1177.089, 117457.0
1177.571, 117476.2
1178.053, 117465.7
1178.536, 117461.4
1179.018, 117481.6
1179.500, 117526.2
1179.982, 117603.5
1180.464, 117706.9
1180.946, 117806.7
1181.428, 117935.2
1181.910, 117982.9
1182.392, 117783.6
1182.875, 117568.7
1183.357, 117561.1
1183.839, 117760.5
1184.321, 117896.6
1184.803, 117971.2
1185.285, 118017.5
1185.767, 118022.1
1186.249, 118040.5
1186.732, 118123.0
1187.214, 118226.0
1187.696, 118296.4
1188.178, 118334.1
1188.660, 118317.1
1189.142, 118244.9
1189.624, 118196.6
1190.106, 118235.5
1190.589, 118311.0
1191.071, 118417.8
1191.553, 118529.4
1192.035, 118572.1
1192.517, 118536.7
1192.999, 118620.2
1193.481, 118861.5
1193.963, 119045.9
1194.445, 118917.0
1194.927, 118734.0
1195.410, 118705.5
1195.892, 118799.1
1196.374, 118847.9
1196.856, 118846.0
1197.338, 118879.6
1197.820, 118976.1
1198.302, 119057.2
1198.784, 119056.7
1199.267, 119001.6
1199.749, 118867.7
1200.231, 118677.7
1200.713, 118682.2
1201.195, 118902.2
1201.677, 119090.5
1202.159, 119173.8
1202.641, 119205.0
1203.124, 119204.9
1203.606, 119201.6
1204.088, 119224.6
1204.570, 119275.9
1205.052, 119359.0
1205.534, 119485.4
1206.016, 119524.1
1206.498, 119377.1
1206.980, 119207.1
1207.463, 119174.8
1207.945, 119222.4
1208.427, 119282.0
1208.909, 119347.4
1209.391, 119421.7
1209.873, 119507.5
1210.355, 119569.3
1210.837, 119574.2
1211.319, 119561.4
1211.802, 119554.1
1212.284, 119562.6
1212.766, 119609.7
1213.248, 119713.0
1213.730, 119783.8
1214.212, 119821.2
1214.694, 119830.1
1215.176, 119775.9
1215.659, 119729.5
1216.141, 119775.9
1216.623, 119875.2
1217.105, 119951.2
1217.587, 119996.9
1218.069, 120021.0
1218.551, 120019.1
1219.033, 120041.0
1219.516, 120180.1
1219.998, 120313.2
1220.480, 120310.7
1220.962, 120211.7
1221.444, 120114.6
1221.926, 119998.1
1222.408, 120024.5
1222.890, 120223.0
1223.372, 120433.2
1223.854, 120561.4
1224.337, 120602.6
1224.819, 120490.6
1225.301, 120286.3
1225.783, 120210.2
1226.265, 120283.9
1226.747, 120382.3
1227.229, 120496.7
1227.711, 120578.4
1228.193, 120554.7
1228.676, 120502.3
1229.158, 120479.4
1229.640, 120486.7
1230.122, 120503.8
1230.604, 120528.6
1231.086, 120586.3
1231.568, 120685.7
1232.050, 120787.8
1232.533, 120861.1
1233.015, 120920.2
1233.497, 120987.0
1233.979, 121051.6
1234.461, 121061.8
1234.943, 121016.8
1235.425, 120926.7
1235.907, 120773.0
1236.390, 120697.0
1236.872, 120921.6
1237.354, 121190.9
1237.836, 121275.0
1238.318, 121214.6
1238.800, 121219.3
1239.282, 121286.7
1239.764, 121315.4
1240.246, 121269.1
1240.729, 121214.6
1241.211, 121166.5
1241.693, 121168.5
1242.175, 121282.4
1242.657, 121477.8
1243.139, 121548.8
1243.621, 121506.3
1244.103, 121459.6
1244.585, 121429.8
1245.068, 121448.8
1245.550, 121602.5
1246.032, 121749.4
1246.514, 121767.9
1246.996, 121691.8
1247.478, 121749.5
1247.960, 121922.6
1248.442, 122096.9
1248.925, 122263.0
1249.407, 122354.2
1249.889, 122253.0
1250.371, 122147.8
1250.853, 122170.7
1251.335, 122289.8
1251.817, 122343.2
1252.299, 122336.9
1252.781, 122288.5
1253.264, 122163.1
1253.746, 122088.3
1254.228, 122151.6
1254.710, 122226.7
1255.192, 122221.0
1255.674, 122170.5
1256.156, 122246.3
1256.638, 122407.8
1257.120, 122524.8
1257.603, 122537.7
1258.085, 122520.0
1258.567, 122467.3
1259.049, 122421.0
1259.531, 122401.9
1260.013, 122413.8
1260.495, 122488.0
1260.977, 122602.1
1261.460, 122696.9
1261.942, 122731.0
1262.424, 122786.4
1262.906, 122880.8
1263.388, 122963.2
1263.870, 122991.4
1264.352, 122985.3
1264.834, 122963.6
1265.317, 122940.6
1265.799, 122951.5
1266.281, 123065.5
1266.763, 123080.9
1267.245, 122960.8
1267.727, 122882.6
1268.209, 123065.3
1268.691, 123302.0
1269.173, 123277.6
1269.656, 123105.6
1270.138, 123055.8
1270.620, 123200.2
1271.102, 123309.8
1271.584, 123379.6
1272.066, 123420.3
1272.548, 123427.0
1273.030, 123419.7
1273.512, 123379.9
1273.995, 123355.0
1274.477, 123447.3
1274.959, 123694.1
1275.441, 123804.0
1275.923, 123767.4
1276.405, 123714.2
1276.887, 123732.3
1277.369, 123764.8
1277.852, 123777.3
1278.334, 123780.1
1278.816, 123785.9
1279.298, 123794.6
1279.780, 123827.4
##END=



