##NAMES=Yuanfuliite
##RRUFFID=R100067
##IDEAL CHEMISTRY=Mg(Fe^3+^,Al)O(BO_3_)
##LOCALITY=La Ceila, near Jumilla, Murcia Province, Spain
##OWNER=RRUFF
##SOURCE=Bob Jenkins
##DESCRIPTION=Sprays of red needles associated with black tabular hematite, colorless plates of sanidine, and yellow bladed crystals of an amphibole R100069, possibly richterite
##STATUS=The identification of this mineral has been confirmed only by single crystal X-ray diffraction.
##URL=rruff.info/R100067
91.53320, 4505.063
92.01532, 4458.210
92.49744, 4429.429
92.97955, 4494.357
93.46167, 4582.146
93.94379, 4621.361
94.42590, 4634.417
94.90802, 4636.494
95.39014, 4633.493
95.87225, 4626.018
96.35437, 4613.361
96.83649, 4599.140
97.31860, 4583.829
97.80072, 4566.436
98.28284, 4540.088
98.76495, 4503.378
99.24707, 4472.233
99.72919, 4450.670
100.2113, 4432.257
100.6934, 4414.689
101.1755, 4397.905
101.6577, 4382.574
102.1398, 4368.628
102.6219, 4354.732
103.1040, 4348.438
103.5861, 4352.927
104.0682, 4359.277
104.5504, 4362.757
105.0325, 4362.447
105.5146, 4359.956
105.9967, 4356.379
106.4788, 4349.199
106.9609, 4346.850
107.4431, 4353.869
107.9252, 4364.670
108.4073, 4371.376
108.8894, 4370.759
109.3715, 4366.299
109.8536, 4364.014
110.3358, 4363.900
110.8179, 4364.618
111.3000, 4365.479
111.7821, 4366.517
112.2642, 4368.132
112.7463, 4370.694
113.2285, 4373.866
113.7106, 4377.670
114.1927, 4382.489
114.6748, 4386.794
115.1569, 4387.938
115.6390, 4384.311
116.1212, 4381.561
116.6033, 4381.694
117.0854, 4383.198
117.5675, 4384.580
118.0496, 4385.024
118.5317, 4384.856
119.0139, 4385.769
119.4960, 4390.341
119.9781, 4393.121
120.4602, 4391.569
120.9423, 4387.541
121.4244, 4384.214
121.9066, 4384.016
122.3887, 4387.111
122.8708, 4391.232
123.3529, 4397.182
123.8350, 4403.190
124.3171, 4408.950
124.7993, 4414.204
125.2814, 4418.032
125.7635, 4418.977
126.2456, 4416.015
126.7277, 4416.146
127.2098, 4422.208
127.6920, 4430.152
128.1741, 4435.699
128.6562, 4437.789
129.1383, 4438.324
129.6204, 4439.116
130.1025, 4440.093
130.5847, 4441.822
131.0668, 4445.489
131.5489, 4450.294
132.0310, 4453.306
132.5131, 4452.932
132.9952, 4451.600
133.4774, 4451.169
133.9595, 4451.719
134.4416, 4453.333
134.9237, 4456.981
135.4058, 4463.333
135.8879, 4467.400
136.3701, 4466.256
136.8522, 4463.873
137.3343, 4462.476
137.8164, 4462.623
138.2985, 4463.316
138.7806, 4462.336
139.2628, 4456.532
139.7449, 4455.268
140.2270, 4462.832
140.7091, 4472.926
141.1912, 4479.548
141.6733, 4479.962
142.1555, 4476.301
142.6376, 4475.894
143.1197, 4482.413
143.6018, 4488.237
144.0839, 4492.300
144.5660, 4495.142
145.0482, 4497.767
145.5303, 4500.788
146.0124, 4504.016
146.4945, 4506.210
146.9766, 4507.728
147.4587, 4508.131
147.9409, 4505.691
148.4230, 4501.306
148.9051, 4499.218
149.3872, 4503.709
149.8693, 4513.248
150.3514, 4518.216
150.8336, 4515.412
151.3157, 4509.872
151.7978, 4504.568
152.2799, 4499.065
152.7620, 4497.431
153.2441, 4507.759
153.7263, 4524.026
154.2084, 4536.119
154.6905, 4538.896
155.1726, 4535.437
155.6547, 4531.975
156.1368, 4527.606
156.6190, 4525.126
157.1011, 4526.633
157.5832, 4530.784
158.0653, 4535.058
158.5474, 4537.938
159.0295, 4539.495
159.5117, 4540.700
159.9938, 4541.086
160.4759, 4541.539
160.9580, 4542.553
161.4401, 4543.917
161.9222, 4545.061
162.4044, 4545.374
162.8865, 4544.637
163.3686, 4544.274
163.8507, 4543.737
164.3328, 4543.961
164.8149, 4545.563
165.2971, 4548.468
165.7792, 4552.142
166.2613, 4556.211
166.7434, 4561.574
167.2255, 4564.341
167.7076, 4563.142
168.1898, 4560.757
168.6719, 4558.792
169.1540, 4557.677
169.6361, 4557.399
170.1182, 4558.128
170.6003, 4560.774
171.0825, 4562.076
171.5646, 4560.516
172.0467, 4558.090
172.5288, 4557.277
173.0109, 4558.906
173.4930, 4561.499
173.9752, 4562.521
174.4573, 4561.802
174.9394, 4561.309
175.4215, 4562.011
175.9036, 4563.332
176.3857, 4563.724
176.8679, 4562.098
177.3500, 4560.425
177.8321, 4561.508
178.3142, 4565.514
178.7963, 4569.707
179.2784, 4571.304
179.7606, 4570.934
180.2427, 4574.237
180.7248, 4587.802
181.2069, 4600.980
181.6890, 4603.336
182.1711, 4593.783
182.6533, 4581.784
183.1354, 4577.092
183.6175, 4580.887
184.0996, 4582.707
184.5817, 4575.814
185.0638, 4568.925
185.5460, 4568.100
186.0281, 4574.493
186.5102, 4583.323
186.9923, 4588.087
187.4744, 4587.839
187.9565, 4585.684
188.4387, 4579.648
188.9208, 4573.510
189.4029, 4569.877
189.8850, 4569.548
190.3671, 4571.720
190.8492, 4575.123
191.3314, 4581.134
191.8135, 4586.055
192.2956, 4588.550
192.7777, 4590.517
193.2598, 4594.167
193.7419, 4600.278
194.2241, 4607.197
194.7062, 4610.945
195.1883, 4609.083
195.6704, 4606.440
196.1525, 4601.396
196.6346, 4596.179
197.1168, 4593.744
197.5989, 4595.458
198.0810, 4599.792
198.5631, 4602.331
199.0452, 4601.659
199.5273, 4601.203
200.0095, 4601.377
200.4916, 4602.118
200.9737, 4603.530
201.4558, 4605.851
201.9379, 4608.493
202.4200, 4609.711
202.9022, 4609.114
203.3843, 4608.202
203.8664, 4606.845
204.3485, 4605.491
204.8306, 4605.334
205.3127, 4606.840
205.7949, 4610.044
206.2770, 4615.163
206.7591, 4623.983
207.2412, 4630.901
207.7233, 4631.315
208.2054, 4626.252
208.6876, 4622.052
209.1697, 4621.399
209.6518, 4622.936
210.1339, 4624.842
210.6160, 4627.692
211.0981, 4629.036
211.5803, 4625.373
212.0624, 4616.692
212.5445, 4610.362
213.0266, 4610.216
213.5087, 4613.127
213.9908, 4616.061
214.4730, 4618.408
214.9551, 4621.802
215.4372, 4629.451
215.9193, 4642.687
216.4014, 4652.135
216.8836, 4653.445
217.3657, 4650.766
217.8478, 4644.928
218.3299, 4636.039
218.8120, 4627.902
219.2941, 4626.297
219.7763, 4633.081
220.2584, 4640.341
220.7405, 4648.984
221.2226, 4656.153
221.7047, 4659.323
222.1868, 4657.892
222.6690, 4653.885
223.1511, 4650.078
223.6332, 4645.523
224.1153, 4643.507
224.5974, 4645.362
225.0795, 4648.760
225.5617, 4652.929
226.0438, 4657.389
226.5259, 4660.823
227.0080, 4660.642
227.4901, 4654.209
227.9722, 4648.889
228.4544, 4643.891
228.9365, 4640.560
229.4186, 4640.651
229.9007, 4644.416
230.3828, 4649.975
230.8649, 4654.172
231.3471, 4657.550
231.8292, 4658.260
232.3113, 4652.477
232.7934, 4646.431
233.2755, 4645.829
233.7576, 4652.042
234.2398, 4661.604
234.7219, 4668.859
235.2040, 4673.339
235.6861, 4675.698
236.1682, 4674.718
236.6503, 4672.312
237.1325, 4669.739
237.6146, 4667.421
238.0967, 4665.861
238.5788, 4666.019
239.0609, 4669.209
239.5430, 4671.028
240.0252, 4670.012
240.5073, 4668.208
240.9894, 4667.495
241.4715, 4668.326
241.9536, 4670.388
242.4357, 4673.833
242.9179, 4679.506
243.4000, 4682.565
243.8821, 4681.136
244.3642, 4677.527
244.8463, 4673.563
245.3284, 4669.500
245.8106, 4666.620
246.2927, 4666.900
246.7748, 4670.438
247.2569, 4674.092
247.7390, 4678.150
248.2211, 4681.786
248.7033, 4684.193
249.1854, 4685.300
249.6675, 4684.751
250.1496, 4680.525
250.6317, 4673.389
251.1138, 4669.440
251.5960, 4673.416
252.0781, 4679.780
252.5602, 4680.311
253.0423, 4673.293
253.5244, 4666.136
254.0065, 4666.609
254.4887, 4672.276
254.9708, 4676.697
255.4529, 4678.343
255.9350, 4677.837
256.4171, 4674.464
256.8992, 4666.926
257.3813, 4662.439
257.8635, 4670.728
258.3456, 4685.353
258.8277, 4695.571
259.3098, 4696.606
259.7919, 4692.548
260.2740, 4688.533
260.7562, 4684.330
261.2383, 4681.064
261.7204, 4678.997
262.2025, 4678.326
262.6846, 4679.922
263.1667, 4685.208
263.6489, 4691.400
264.1310, 4694.498
264.6131, 4694.003
265.0952, 4692.543
265.5773, 4690.613
266.0594, 4688.600
266.5416, 4687.030
267.0237, 4686.283
267.5058, 4685.469
267.9879, 4682.487
268.4700, 4676.303
268.9521, 4673.008
269.4343, 4677.764
269.9164, 4684.772
270.3985, 4689.826
270.8806, 4691.875
271.3627, 4692.467
271.8448, 4693.863
272.3270, 4696.618
272.8091, 4697.208
273.2912, 4691.351
273.7733, 4685.139
274.2554, 4682.187
274.7375, 4683.103
275.2197, 4686.447
275.7018, 4691.940
276.1839, 4700.464
276.6660, 4705.104
277.1481, 4700.610
277.6302, 4694.876
278.1124, 4691.298
278.5945, 4690.286
279.0766, 4690.876
279.5587, 4692.793
280.0408, 4696.386
280.5229, 4698.376
281.0051, 4696.262
281.4872, 4694.557
281.9693, 4695.920
282.4514, 4699.648
282.9335, 4702.928
283.4156, 4702.835
283.8978, 4699.260
284.3799, 4697.663
284.8620, 4700.755
285.3441, 4703.132
285.8262, 4701.581
286.3083, 4697.789
286.7905, 4695.761
287.2726, 4699.089
287.7547, 4706.897
288.2368, 4710.630
288.7189, 4706.532
289.2010, 4702.503
289.6832, 4700.169
290.1653, 4699.395
290.6474, 4700.257
291.1295, 4703.239
291.6116, 4707.183
292.0938, 4707.018
292.5759, 4698.671
293.0580, 4691.989
293.5401, 4688.549
294.0222, 4687.772
294.5043, 4689.760
294.9865, 4694.694
295.4686, 4700.673
295.9507, 4702.656
296.4328, 4697.019
296.9149, 4693.867
297.3970, 4694.469
297.8792, 4697.619
298.3613, 4702.962
298.8434, 4710.207
299.3255, 4717.971
299.8076, 4724.361
300.2897, 4730.500
300.7719, 4732.268
301.2540, 4726.304
301.7361, 4718.947
302.2182, 4714.379
302.7003, 4713.142
303.1824, 4712.658
303.6646, 4708.919
304.1467, 4699.295
304.6288, 4696.243
305.1109, 4705.868
305.5930, 4716.286
306.0751, 4721.837
306.5573, 4722.850
307.0394, 4723.029
307.5215, 4725.949
308.0036, 4731.958
308.4857, 4735.722
308.9678, 4736.377
309.4500, 4735.503
309.9321, 4732.147
310.4142, 4727.580
310.8963, 4724.136
311.3784, 4723.479
311.8605, 4725.260
312.3427, 4726.696
312.8248, 4726.999
313.3069, 4727.933
313.7890, 4729.847
314.2711, 4732.569
314.7532, 4736.162
315.2354, 4740.714
315.7175, 4745.568
316.1996, 4748.999
316.6817, 4752.655
317.1638, 4751.798
317.6459, 4740.646
318.1281, 4728.149
318.6102, 4723.391
319.0923, 4728.915
319.5744, 4738.876
320.0565, 4743.343
320.5386, 4739.032
321.0208, 4736.688
321.5029, 4737.749
321.9850, 4739.765
322.4671, 4741.066
322.9492, 4741.553
323.4313, 4742.415
323.9135, 4745.550
324.3956, 4752.053
324.8777, 4755.040
325.3598, 4751.830
325.8419, 4747.553
326.3240, 4741.811
326.8062, 4736.370
327.2883, 4735.215
327.7704, 4742.675
328.2525, 4757.956
328.7346, 4766.852
329.2167, 4763.260
329.6989, 4759.836
330.1810, 4760.936
330.6631, 4763.933
331.1452, 4764.131
331.6273, 4758.585
332.1094, 4750.063
332.5916, 4747.573
333.0737, 4755.610
333.5558, 4762.219
334.0379, 4765.980
334.5200, 4767.307
335.0021, 4765.263
335.4843, 4759.737
335.9664, 4754.249
336.4485, 4755.270
336.9306, 4765.800
337.4127, 4773.833
337.8948, 4776.892
338.3770, 4778.232
338.8591, 4779.112
339.3412, 4779.940
339.8233, 4781.109
340.3055, 4783.505
340.7876, 4787.415
341.2697, 4789.488
341.7518, 4789.133
342.2339, 4787.279
342.7160, 4782.705
343.1982, 4776.845
343.6803, 4772.882
344.1624, 4773.410
344.6445, 4777.508
345.1266, 4780.464
345.6087, 4781.388
346.0909, 4782.643
346.5730, 4786.084
347.0551, 4789.931
347.5372, 4791.485
348.0193, 4789.222
348.5014, 4785.745
348.9836, 4786.346
349.4657, 4792.642
349.9478, 4797.583
350.4299, 4798.341
350.9120, 4797.656
351.3941, 4797.360
351.8763, 4797.803
352.3584, 4798.249
352.8405, 4798.281
353.3226, 4797.924
353.8047, 4795.813
354.2868, 4789.037
354.7690, 4783.360
355.2511, 4782.550
355.7332, 4786.028
356.2153, 4790.936
356.6974, 4797.084
357.1795, 4803.454
357.6617, 4805.105
358.1438, 4799.037
358.6259, 4794.420
359.1080, 4799.276
359.5901, 4808.413
360.0722, 4813.155
360.5544, 4808.326
361.0365, 4800.194
361.5186, 4797.945
362.0007, 4802.312
362.4828, 4806.993
362.9649, 4810.874
363.4471, 4812.813
363.9292, 4810.908
364.4113, 4804.142
364.8934, 4797.170
365.3755, 4793.024
365.8576, 4791.585
366.3398, 4792.488
366.8219, 4796.463
367.3040, 4801.631
367.7861, 4806.109
368.2682, 4809.968
368.7503, 4813.700
369.2325, 4819.381
369.7146, 4824.544
370.1967, 4823.850
370.6788, 4816.001
371.1609, 4807.610
371.6430, 4803.752
372.1252, 4803.500
372.6073, 4803.761
373.0894, 4805.132
373.5715, 4806.109
374.0536, 4805.125
374.5357, 4802.486
375.0179, 4799.958
375.5000, 4798.357
375.9821, 4797.468
376.4642, 4796.966
376.9463, 4797.720
377.4284, 4796.937
377.9106, 4790.966
378.3927, 4783.360
378.8748, 4780.468
379.3569, 4784.145
379.8390, 4791.617
380.3211, 4800.614
380.8033, 4812.112
381.2854, 4818.604
381.7675, 4816.577
382.2496, 4811.458
382.7317, 4806.601
383.2138, 4802.532
383.6960, 4799.392
384.1781, 4797.172
384.6602, 4795.924
385.1423, 4796.456
385.6244, 4799.163
386.1065, 4802.740
386.5887, 4808.772
387.0708, 4814.985
387.5529, 4816.922
388.0350, 4812.448
388.5171, 4804.722
388.9992, 4800.672
389.4814, 4802.780
389.9635, 4805.164
390.4456, 4808.690
390.9277, 4811.955
391.4098, 4813.898
391.8919, 4814.358
392.3741, 4813.694
392.8562, 4812.072
393.3383, 4809.209
393.8204, 4807.706
394.3025, 4808.042
394.7846, 4809.169
395.2668, 4810.923
395.7489, 4813.208
396.2310, 4816.255
396.7131, 4820.376
397.1952, 4824.707
397.6773, 4826.052
398.1595, 4821.802
398.6416, 4818.804
399.1237, 4819.060
399.6058, 4820.083
400.0879, 4819.271
400.5700, 4816.210
401.0522, 4813.211
401.5343, 4812.994
402.0164, 4815.781
402.4985, 4820.143
402.9806, 4829.204
403.4627, 4836.764
403.9449, 4839.421
404.4270, 4838.319
404.9091, 4836.630
405.3912, 4836.047
405.8733, 4836.413
406.3554, 4837.296
406.8376, 4838.747
407.3197, 4840.583
407.8018, 4844.072
408.2839, 4847.292
408.7660, 4847.745
409.2481, 4844.444
409.7303, 4840.558
410.2124, 4839.863
410.6945, 4842.083
411.1766, 4842.312
411.6587, 4837.537
412.1408, 4833.143
412.6230, 4835.245
413.1051, 4842.899
413.5872, 4849.001
414.0693, 4849.769
414.5514, 4847.471
415.0335, 4845.006
415.5157, 4842.376
415.9978, 4841.442
416.4799, 4844.833
416.9620, 4850.609
417.4441, 4852.623
417.9262, 4846.956
418.4084, 4842.406
418.8905, 4845.950
419.3726, 4854.545
419.8547, 4860.070
420.3368, 4859.446
420.8189, 4855.753
421.3011, 4853.505
421.7832, 4852.574
422.2653, 4853.596
422.7474, 4859.953
423.2295, 4866.104
423.7116, 4866.391
424.1938, 4861.022
424.6759, 4854.858
425.1580, 4851.468
425.6401, 4850.772
426.1222, 4851.253
426.6043, 4852.751
427.0865, 4855.354
427.5686, 4860.391
428.0507, 4866.104
428.5328, 4869.917
429.0149, 4870.861
429.4970, 4870.286
429.9792, 4870.544
430.4613, 4871.886
430.9434, 4873.542
431.4255, 4876.341
431.9076, 4878.692
432.3897, 4880.029
432.8719, 4880.160
433.3540, 4878.659
433.8361, 4874.654
434.3182, 4868.865
434.8003, 4866.408
435.2824, 4868.026
435.7646, 4872.281
436.2467, 4881.618
436.7288, 4891.732
437.2109, 4898.045
437.6930, 4899.121
438.1751, 4896.913
438.6573, 4892.633
439.1394, 4885.937
439.6215, 4882.260
440.1036, 4884.992
440.5857, 4887.953
441.0678, 4885.688
441.5500, 4879.830
442.0321, 4876.707
442.5142, 4881.396
442.9963, 4890.069
443.4784, 4896.692
443.9605, 4901.487
444.4427, 4902.168
444.9248, 4894.599
445.4069, 4883.578
445.8890, 4877.589
446.3711, 4878.098
446.8532, 4880.471
447.3354, 4882.354
447.8175, 4884.252
448.2996, 4887.761
448.7817, 4893.522
449.2638, 4898.996
449.7459, 4900.896
450.2281, 4898.934
450.7102, 4898.974
451.1923, 4904.526
451.6744, 4909.188
452.1565, 4908.024
452.6386, 4902.425
453.1208, 4896.736
453.6029, 4893.041
454.0850, 4891.226
454.5671, 4891.017
455.0492, 4894.418
455.5313, 4896.737
456.0135, 4896.421
456.4956, 4896.023
456.9777, 4897.916
457.4598, 4902.185
457.9419, 4907.040
458.4240, 4910.786
458.9062, 4913.411
459.3883, 4916.532
459.8704, 4922.255
460.3525, 4926.057
460.8346, 4924.311
461.3167, 4921.076
461.7989, 4922.499
462.2810, 4931.024
462.7631, 4941.043
463.2452, 4943.253
463.7273, 4936.197
464.2094, 4929.792
464.6916, 4924.638
465.1737, 4921.057
465.6558, 4918.942
466.1379, 4918.422
466.6200, 4920.028
467.1021, 4926.126
467.5843, 4933.593
468.0664, 4934.885
468.5485, 4928.882
469.0306, 4925.116
469.5127, 4930.548
469.9948, 4939.160
470.4770, 4940.604
470.9591, 4932.191
471.4412, 4925.646
471.9233, 4929.281
472.4054, 4938.190
472.8875, 4943.087
473.3697, 4942.198
473.8518, 4939.807
474.3339, 4939.783
474.8160, 4942.112
475.2981, 4943.139
475.7802, 4942.304
476.2624, 4940.773
476.7445, 4938.486
477.2266, 4935.920
477.7087, 4934.126
478.1908, 4933.510
478.6729, 4933.146
479.1551, 4931.064
479.6372, 4924.436
480.1193, 4922.950
480.6014, 4930.929
481.0835, 4939.419
481.5656, 4943.028
482.0478, 4942.750
482.5299, 4942.835
483.0120, 4946.355
483.4941, 4951.837
483.9762, 4953.015
484.4583, 4946.230
484.9405, 4942.759
485.4226, 4950.308
485.9047, 4958.087
486.3868, 4955.396
486.8689, 4941.869
487.3510, 4929.289
487.8332, 4929.162
488.3153, 4938.878
488.7974, 4945.675
489.2795, 4948.532
489.7616, 4949.812
490.2437, 4950.130
490.7259, 4949.944
491.2080, 4949.898
491.6901, 4950.031
492.1722, 4950.429
492.6543, 4951.014
493.1364, 4951.891
493.6186, 4953.286
494.1007, 4955.196
494.5828, 4958.077
495.0649, 4963.726
495.5470, 4972.717
496.0291, 4975.352
496.5113, 4965.273
496.9934, 4954.410
497.4755, 4949.413
497.9576, 4949.262
498.4397, 4951.030
498.9218, 4953.431
499.4040, 4955.814
499.8861, 4956.545
500.3682, 4953.578
500.8503, 4952.782
501.3324, 4956.571
501.8145, 4960.203
502.2967, 4960.261
502.7788, 4957.409
503.2609, 4954.563
503.7430, 4953.632
504.2251, 4954.381
504.7072, 4956.321
505.1894, 4960.805
505.6715, 4963.342
506.1536, 4960.718
506.6357, 4957.125
507.1178, 4956.093
507.5999, 4957.976
508.0821, 4960.053
508.5642, 4959.900
509.0463, 4958.425
509.5284, 4958.760
510.0105, 4961.701
510.4926, 4963.604
510.9748, 4960.112
511.4569, 4954.609
511.9390, 4955.422
512.4211, 4967.299
512.9032, 4977.546
513.3853, 4977.737
513.8674, 4972.704
514.3495, 4971.405
514.8317, 4975.809
515.3138, 4980.398
515.7959, 4979.138
516.2780, 4971.406
516.7601, 4966.938
517.2422, 4967.052
517.7244, 4968.342
518.2065, 4970.469
518.6886, 4972.799
519.1707, 4974.653
519.6528, 4975.781
520.1349, 4976.220
520.6171, 4975.785
521.0992, 4974.043
521.5813, 4973.337
522.0634, 4974.824
522.5455, 4976.310
523.0276, 4976.733
523.5098, 4976.647
523.9919, 4977.206
524.4740, 4979.062
524.9561, 4981.345
525.4382, 4982.358
525.9203, 4982.034
526.4025, 4983.487
526.8846, 4988.615
527.3667, 4994.103
527.8488, 4996.747
528.3309, 4996.865
528.8130, 4996.386
529.2952, 4995.717
529.7773, 4994.782
530.2594, 4992.719
530.7415, 4990.080
531.2236, 4989.748
531.7057, 4993.511
532.1879, 4998.736
532.6700, 5000.149
533.1521, 4995.073
533.6342, 4992.278
534.1163, 4993.600
534.5984, 4995.826
535.0806, 4997.149
535.5627, 4997.535
536.0448, 4997.625
536.5269, 4997.833
537.0090, 4997.918
537.4911, 4996.903
537.9733, 4993.446
538.4554, 4991.844
538.9375, 4994.572
539.4196, 4997.571
539.9017, 4997.811
540.3839, 4995.786
540.8660, 4994.563
541.3481, 4996.652
541.8302, 5000.591
542.3123, 5003.183
542.7944, 5004.366
543.2766, 5004.918
543.7587, 5004.725
544.2408, 5004.444
544.7229, 5005.135
545.2050, 5006.950
545.6871, 5008.507
546.1693, 5010.210
546.6514, 5010.885
547.1335, 5007.826
547.6156, 5001.756
548.0977, 4997.655
548.5798, 4998.602
549.0620, 5003.585
549.5441, 5009.209
550.0262, 5018.324
550.5083, 5024.014
550.9904, 5023.734
551.4725, 5021.850
551.9547, 5021.629
552.4368, 5023.029
552.9189, 5023.964
553.4010, 5022.542
553.8831, 5019.847
554.3652, 5020.727
554.8474, 5027.126
555.3295, 5032.251
555.8116, 5034.417
556.2937, 5034.683
556.7758, 5032.741
557.2579, 5028.958
557.7401, 5026.199
558.2222, 5026.429
558.7043, 5028.653
559.1864, 5031.835
559.6685, 5035.924
560.1506, 5038.248
560.6328, 5036.190
561.1149, 5032.766
561.5970, 5036.000
562.0791, 5049.539
562.5612, 5056.773
563.0433, 5048.817
563.5255, 5037.693
564.0076, 5033.450
564.4897, 5035.827
564.9718, 5039.290
565.4539, 5040.346
565.9360, 5039.807
566.4182, 5040.549
566.9003, 5044.417
567.3824, 5046.122
567.8645, 5042.631
568.3466, 5039.463
568.8287, 5041.130
569.3109, 5046.561
569.7930, 5050.960
570.2751, 5051.115
570.7572, 5048.664
571.2393, 5046.438
571.7214, 5044.289
572.2036, 5044.450
572.6857, 5049.690
573.1678, 5055.251
573.6499, 5054.222
574.1320, 5046.799
574.6141, 5042.430
575.0963, 5045.501
575.5784, 5051.204
576.0605, 5056.804
576.5426, 5061.568
577.0247, 5063.501
577.5068, 5061.458
577.9890, 5057.610
578.4711, 5056.221
578.9532, 5059.382
579.4353, 5059.657
579.9174, 5051.719
580.3995, 5046.579
580.8817, 5052.938
581.3638, 5065.468
581.8459, 5073.141
582.3280, 5070.428
582.8101, 5063.455
583.2922, 5062.638
583.7744, 5068.524
584.2565, 5072.304
584.7386, 5071.380
585.2207, 5070.221
585.7029, 5072.930
586.1850, 5077.848
586.6671, 5080.573
587.1492, 5078.436
587.6313, 5075.979
588.1135, 5077.890
588.5956, 5081.853
589.0777, 5081.409
589.5598, 5074.800
590.0419, 5067.995
590.5240, 5067.727
591.0062, 5074.394
591.4883, 5078.515
591.9704, 5078.281
592.4525, 5078.072
592.9346, 5079.438
593.4167, 5081.194
593.8989, 5082.405
594.3810, 5082.651
594.8631, 5081.149
595.3452, 5075.630
595.8273, 5066.882
596.3094, 5064.585
596.7916, 5072.118
597.2737, 5078.428
597.7558, 5075.943
598.2379, 5071.243
598.7200, 5071.895
599.2021, 5079.260
599.6843, 5086.256
600.1664, 5089.616
600.6485, 5090.261
601.1306, 5087.917
601.6127, 5083.211
602.0948, 5081.529
602.5770, 5086.635
603.0591, 5095.662
603.5412, 5100.717
604.0233, 5098.685
604.5054, 5097.524
604.9875, 5099.065
605.4697, 5099.837
605.9518, 5096.313
606.4339, 5090.159
606.9160, 5086.065
607.3981, 5086.854
607.8802, 5090.182
608.3624, 5091.203
608.8445, 5089.500
609.3266, 5088.981
609.8087, 5090.514
610.2908, 5093.119
610.7729, 5096.834
611.2551, 5101.063
611.7372, 5103.950
612.2193, 5104.678
612.7014, 5104.368
613.1835, 5102.813
613.6656, 5100.945
614.1478, 5101.120
614.6299, 5103.892
615.1120, 5107.413
615.5941, 5110.027
616.0762, 5111.714
616.5583, 5111.663
617.0405, 5107.298
617.5226, 5104.352
618.0047, 5105.649
618.4868, 5107.603
618.9689, 5105.911
619.4510, 5100.483
619.9332, 5095.624
620.4153, 5095.576
620.8974, 5098.883
621.3795, 5099.401
621.8616, 5096.015
622.3438, 5096.473
622.8259, 5107.188
623.3080, 5120.119
623.7901, 5123.482
624.2722, 5116.759
624.7543, 5112.266
625.2365, 5115.490
625.7186, 5120.384
626.2007, 5121.377
626.6828, 5119.806
627.1649, 5120.250
627.6470, 5124.656
628.1292, 5130.683
628.6113, 5134.551
629.0934, 5135.610
629.5755, 5137.011
630.0576, 5140.938
630.5397, 5142.679
631.0219, 5137.937
631.5040, 5131.224
631.9861, 5129.450
632.4682, 5134.749
632.9503, 5140.827
633.4324, 5140.469
633.9146, 5136.288
634.3967, 5138.052
634.8788, 5147.399
635.3609, 5154.262
635.8430, 5151.691
636.3251, 5143.139
636.8073, 5138.444
637.2894, 5138.258
637.7715, 5139.577
638.2536, 5143.231
638.7357, 5147.165
639.2178, 5150.390
639.7000, 5152.474
640.1821, 5152.655
640.6642, 5150.428
641.1463, 5146.839
641.6284, 5143.688
642.1105, 5140.744
642.5927, 5139.473
643.0748, 5140.652
643.5569, 5142.739
644.0390, 5145.792
644.5211, 5148.915
645.0032, 5150.046
645.4854, 5147.896
645.9675, 5145.739
646.4496, 5147.008
646.9317, 5149.445
647.4138, 5148.001
647.8959, 5142.258
648.3781, 5137.187
648.8602, 5136.761
649.3423, 5139.811
649.8244, 5140.749
650.3065, 5137.755
650.7886, 5135.347
651.2708, 5132.565
651.7529, 5131.339
652.2350, 5133.925
652.7171, 5139.216
653.1992, 5144.092
653.6813, 5147.037
654.1635, 5148.441
654.6456, 5148.861
655.1277, 5148.271
655.6098, 5145.714
656.0919, 5139.508
656.5740, 5135.693
657.0562, 5141.513
657.5383, 5155.116
658.0204, 5162.498
658.5025, 5158.516
658.9846, 5154.675
659.4667, 5155.089
659.9489, 5156.767
660.4310, 5155.986
660.9131, 5152.870
661.3952, 5150.802
661.8773, 5152.542
662.3594, 5156.664
662.8416, 5158.352
663.3237, 5157.044
663.8058, 5155.347
664.2879, 5152.417
664.7700, 5150.655
665.2521, 5152.040
665.7343, 5155.954
666.2164, 5160.311
666.6985, 5165.460
667.1806, 5169.689
667.6627, 5171.788
668.1448, 5172.128
668.6270, 5170.832
669.1091, 5168.112
669.5912, 5165.689
670.0733, 5164.997
670.5554, 5165.972
671.0375, 5168.336
671.5197, 5173.979
672.0018, 5177.811
672.4839, 5175.963
672.9660, 5175.040
673.4481, 5181.889
673.9302, 5193.977
674.4124, 5202.013
674.8945, 5199.919
675.3766, 5193.812
675.8587, 5191.350
676.3408, 5191.650
676.8229, 5190.156
677.3051, 5185.495
677.7872, 5181.387
678.2693, 5180.912
678.7514, 5183.969
679.2335, 5189.435
679.7156, 5202.244
680.1978, 5210.686
680.6799, 5210.636
681.1620, 5207.510
681.6441, 5204.871
682.1262, 5203.456
682.6083, 5203.483
683.0905, 5205.507
683.5726, 5208.007
684.0547, 5207.745
684.5368, 5204.712
685.0189, 5202.083
685.5010, 5200.204
685.9832, 5199.392
686.4653, 5200.228
686.9474, 5202.457
687.4295, 5204.639
687.9116, 5207.514
688.3937, 5209.290
688.8759, 5208.554
689.3580, 5207.098
689.8401, 5206.648
690.3222, 5207.341
690.8043, 5208.803
691.2864, 5211.073
691.7686, 5212.984
692.2507, 5210.557
692.7328, 5202.450
693.2149, 5199.105
693.6970, 5205.045
694.1791, 5211.494
694.6613, 5211.298
695.1434, 5207.203
695.6255, 5205.250
696.1076, 5206.612
696.5897, 5209.556
697.0718, 5216.092
697.5540, 5222.107
698.0361, 5221.509
698.5182, 5214.896
699.0003, 5207.411
699.4824, 5201.944
699.9645, 5199.108
700.4467, 5201.112
700.9288, 5209.608
701.4109, 5216.876
701.8930, 5223.114
702.3751, 5227.242
702.8572, 5228.253
703.3394, 5227.138
703.8215, 5225.239
704.3036, 5222.492
704.7857, 5220.477
705.2678, 5220.673
705.7499, 5221.867
706.2321, 5222.662
706.7142, 5222.877
707.1963, 5222.257
707.6784, 5220.539
708.1605, 5218.710
708.6426, 5218.856
709.1248, 5221.667
709.6069, 5224.013
710.0890, 5225.840
710.5711, 5227.224
711.0532, 5228.208
711.5353, 5228.759
712.0175, 5228.720
712.4996, 5228.033
712.9817, 5227.281
713.4638, 5224.983
713.9459, 5223.876
714.4280, 5229.602
714.9102, 5240.728
715.3923, 5250.014
715.8744, 5254.511
716.3565, 5254.444
716.8386, 5249.004
717.3207, 5236.457
717.8029, 5231.288
718.2850, 5240.011
718.7671, 5248.299
719.2492, 5253.542
719.7313, 5256.469
720.2134, 5257.629
720.6956, 5257.209
721.1777, 5255.815
721.6598, 5252.733
722.1419, 5249.596
722.6240, 5248.541
723.1061, 5249.305
723.5883, 5251.331
724.0704, 5254.581
724.5525, 5256.912
725.0346, 5255.538
725.5167, 5250.650
725.9988, 5249.549
726.4810, 5256.989
726.9631, 5261.346
727.4452, 5258.347
727.9273, 5254.263
728.4094, 5253.869
728.8915, 5256.814
729.3737, 5260.203
729.8558, 5263.245
730.3379, 5265.277
730.8200, 5264.864
731.3021, 5262.954
731.7842, 5262.453
732.2664, 5263.851
732.7485, 5264.768
733.2306, 5263.014
733.7127, 5259.839
734.1948, 5260.350
734.6769, 5267.909
735.1591, 5273.057
735.6412, 5273.812
736.1233, 5274.053
736.6054, 5276.550
737.0875, 5279.748
737.5696, 5280.147
738.0518, 5276.192
738.5339, 5272.103
739.0160, 5271.898
739.4981, 5273.557
739.9802, 5273.126
740.4623, 5270.556
740.9445, 5268.110
741.4266, 5266.820
741.9087, 5266.644
742.3908, 5267.486
742.8729, 5269.228
743.3550, 5272.450
743.8372, 5278.104
744.3193, 5284.119
744.8014, 5292.063
745.2835, 5298.858
745.7656, 5300.349
746.2477, 5296.274
746.7299, 5291.908
747.2120, 5289.625
747.6941, 5288.970
748.1762, 5290.607
748.6583, 5293.514
749.1404, 5293.755
749.6226, 5290.298
750.1047, 5287.686
750.5868, 5291.275
751.0689, 5300.081
751.5510, 5302.745
752.0331, 5294.057
752.5153, 5289.252
752.9974, 5295.353
753.4795, 5302.013
753.9616, 5301.525
754.4437, 5296.024
754.9258, 5293.031
755.4080, 5295.115
755.8901, 5299.554
756.3722, 5305.838
756.8543, 5312.616
757.3364, 5319.092
757.8185, 5324.351
758.3007, 5324.537
758.7828, 5316.813
759.2649, 5305.608
759.7470, 5300.765
760.2291, 5303.700
760.7112, 5306.106
761.1934, 5307.445
761.6755, 5308.868
762.1576, 5311.781
762.6397, 5314.708
763.1218, 5315.570
763.6039, 5314.050
764.0861, 5312.126
764.5682, 5309.636
765.0503, 5307.801
765.5324, 5306.858
766.0145, 5307.494
766.4966, 5312.173
766.9788, 5320.995
767.4609, 5328.892
767.9430, 5330.307
768.4251, 5326.561
768.9072, 5324.164
769.3893, 5323.196
769.8715, 5323.293
770.3536, 5325.085
770.8357, 5326.881
771.3178, 5326.842
771.7999, 5325.344
772.2820, 5324.344
772.7642, 5324.291
773.2463, 5324.270
773.7284, 5323.328
774.2105, 5322.853
774.6926, 5323.653
775.1747, 5326.065
775.6569, 5331.563
776.1390, 5341.344
776.6211, 5350.001
777.1032, 5348.322
777.5853, 5338.406
778.0674, 5332.403
778.5496, 5331.495
779.0317, 5331.547
779.5138, 5330.375
779.9959, 5329.302
780.4780, 5330.898
780.9601, 5336.180
781.4423, 5340.102
781.9244, 5342.433
782.4065, 5343.768
782.8886, 5342.623
783.3707, 5341.585
783.8528, 5344.168
784.3350, 5350.198
784.8171, 5355.456
785.2992, 5356.771
785.7813, 5356.672
786.2634, 5358.137
786.7455, 5360.954
787.2277, 5365.607
787.7098, 5372.061
788.1919, 5374.982
788.6740, 5369.146
789.1561, 5358.084
789.6382, 5355.483
790.1204, 5366.534
790.6025, 5373.415
791.0846, 5370.875
791.5667, 5368.836
792.0488, 5373.691
792.5309, 5381.044
793.0131, 5382.858
793.4952, 5376.736
793.9773, 5373.422
794.4594, 5381.294
794.9415, 5391.378
795.4236, 5396.375
795.9058, 5396.567
796.3879, 5392.304
796.8700, 5384.290
797.3521, 5377.584
797.8342, 5378.206
798.3163, 5384.288
798.7985, 5385.552
799.2806, 5380.881
799.7627, 5377.615
800.2448, 5377.134
800.7269, 5378.937
801.2090, 5384.323
801.6912, 5391.940
802.1733, 5394.804
802.6554, 5388.832
803.1375, 5384.505
803.6196, 5385.089
804.1017, 5386.738
804.5839, 5385.269
805.0660, 5382.977
805.5481, 5386.159
806.0302, 5397.228
806.5123, 5408.183
806.9944, 5410.013
807.4766, 5406.106
807.9587, 5404.488
808.4408, 5405.271
808.9229, 5405.741
809.4050, 5404.856
809.8871, 5404.078
810.3693, 5405.653
810.8514, 5409.536
811.3335, 5408.906
811.8156, 5398.684
812.2977, 5392.484
812.7798, 5394.818
813.2620, 5399.322
813.7441, 5402.599
814.2262, 5404.547
814.7083, 5405.386
815.1904, 5404.179
815.6725, 5404.261
816.1547, 5407.398
816.6368, 5412.827
817.1189, 5422.091
817.6010, 5432.860
818.0831, 5437.867
818.5652, 5434.123
819.0474, 5427.506
819.5295, 5425.097
820.0116, 5426.715
820.4937, 5432.466
820.9758, 5443.992
821.4579, 5448.895
821.9401, 5440.144
822.4222, 5428.770
822.9043, 5426.655
823.3864, 5433.497
823.8685, 5439.146
824.3506, 5443.734
824.8328, 5447.043
825.3149, 5447.762
825.7970, 5448.367
826.2791, 5451.982
826.7612, 5456.786
827.2433, 5457.709
827.7255, 5452.394
828.2076, 5447.318
828.6897, 5448.828
829.1718, 5453.720
829.6539, 5457.095
830.1360, 5458.823
830.6182, 5459.790
831.1003, 5460.317
831.5824, 5460.442
832.0645, 5460.054
832.5466, 5459.250
833.0287, 5459.624
833.5109, 5461.693
833.9930, 5463.304
834.4751, 5464.427
834.9572, 5464.392
835.4393, 5460.461
835.9214, 5454.863
836.4036, 5454.778
836.8857, 5464.303
837.3678, 5472.062
837.8499, 5474.446
838.3320, 5474.894
838.8141, 5474.893
839.2963, 5475.127
839.7784, 5476.768
840.2605, 5480.063
840.7426, 5482.905
841.2247, 5482.159
841.7068, 5480.290
842.1890, 5483.409
842.6711, 5490.331
843.1532, 5494.186
843.6353, 5493.173
844.1174, 5489.049
844.5995, 5482.416
845.0817, 5474.977
845.5638, 5475.485
846.0459, 5488.117
846.5280, 5496.921
847.0101, 5499.876
847.4922, 5499.847
847.9744, 5494.868
848.4565, 5489.269
848.9386, 5490.913
849.4207, 5501.754
849.9028, 5509.815
850.3849, 5510.641
850.8671, 5509.168
851.3492, 5507.327
851.8313, 5505.556
852.3134, 5503.561
852.7955, 5501.808
853.2776, 5502.749
853.7598, 5509.583
854.2419, 5516.524
854.7240, 5511.564
855.2061, 5498.737
855.6882, 5495.438
856.1703, 5503.646
856.6525, 5513.771
857.1346, 5521.000
857.6167, 5524.681
858.0988, 5522.549
858.5809, 5512.845
859.0630, 5509.125
859.5452, 5514.681
860.0273, 5520.408
860.5094, 5525.759
860.9915, 5528.437
861.4736, 5523.930
861.9557, 5514.050
862.4379, 5509.542
862.9200, 5517.652
863.4021, 5523.999
863.8842, 5521.577
864.3663, 5517.076
864.8484, 5516.155
865.3306, 5518.180
865.8127, 5519.805
866.2948, 5519.757
866.7769, 5520.707
867.2590, 5527.028
867.7411, 5535.447
868.2233, 5539.014
868.7054, 5538.100
869.1875, 5535.251
869.6696, 5531.149
870.1517, 5527.014
870.6339, 5523.916
871.1160, 5521.851
871.5981, 5520.707
872.0802, 5520.142
872.5623, 5522.029
873.0444, 5528.451
873.5266, 5534.232
874.0087, 5536.294
874.4908, 5535.963
874.9729, 5535.362
875.4550, 5534.228
875.9371, 5534.462
876.4193, 5538.014
876.9014, 5540.956
877.3835, 5542.306
877.8656, 5541.732
878.3477, 5537.065
878.8298, 5529.848
879.3120, 5526.132
879.7941, 5529.513
880.2762, 5535.777
880.7583, 5542.719
881.2404, 5548.876
881.7225, 5549.722
882.2047, 5546.727
882.6868, 5548.838
883.1689, 5559.903
883.6510, 5571.646
884.1331, 5572.901
884.6152, 5565.294
885.0974, 5561.040
885.5795, 5560.518
886.0616, 5560.947
886.5437, 5561.964
887.0258, 5563.189
887.5079, 5564.526
887.9901, 5565.805
888.4722, 5566.358
888.9543, 5566.967
889.4364, 5565.382
889.9185, 5559.254
890.4006, 5553.772
890.8828, 5550.308
891.3649, 5549.018
891.8470, 5551.026
892.3291, 5556.040
892.8112, 5559.426
893.2933, 5558.258
893.7755, 5556.151
894.2576, 5555.199
894.7397, 5554.703
895.2218, 5553.316
895.7039, 5551.463
896.1860, 5551.458
896.6682, 5554.511
897.1503, 5557.238
897.6324, 5552.047
898.1145, 5543.844
898.5966, 5550.741
899.0787, 5571.018
899.5609, 5583.591
900.0430, 5581.515
900.5251, 5574.727
901.0072, 5572.611
901.4893, 5574.109
901.9714, 5574.126
902.4536, 5571.976
902.9357, 5570.871
903.4178, 5571.696
903.8999, 5572.447
904.3820, 5570.642
904.8641, 5568.967
905.3463, 5574.069
905.8284, 5587.878
906.3105, 5592.776
906.7926, 5577.702
907.2747, 5566.273
907.7568, 5568.218
908.2390, 5574.799
908.7211, 5580.576
909.2032, 5583.868
909.6853, 5581.994
910.1674, 5572.445
910.6495, 5564.070
911.1317, 5563.210
911.6138, 5566.187
912.0959, 5569.762
912.5780, 5573.464
913.0601, 5577.211
913.5422, 5580.847
914.0244, 5583.451
914.5065, 5583.625
914.9886, 5583.220
915.4707, 5587.415
915.9528, 5595.062
916.4349, 5597.911
916.9171, 5594.720
917.3992, 5594.328
917.8813, 5602.217
918.3634, 5612.792
918.8455, 5616.417
919.3276, 5612.614
919.8098, 5610.314
920.2919, 5609.686
920.7740, 5610.415
921.2561, 5614.443
921.7382, 5617.293
922.2203, 5613.968
922.7025, 5606.412
923.1846, 5602.199
923.6667, 5602.461
924.1488, 5603.641
924.6309, 5608.447
925.1130, 5610.708
925.5952, 5604.366
926.0773, 5595.896
926.5594, 5593.041
927.0415, 5596.444
927.5236, 5602.111
928.0057, 5610.935
928.4879, 5617.709
928.9700, 5617.208
929.4521, 5614.056
929.9342, 5613.557
930.4163, 5615.383
930.8984, 5617.026
931.3806, 5617.523
931.8627, 5617.563
932.3448, 5617.419
932.8269, 5617.535
933.3090, 5619.128
933.7911, 5621.854
934.2733, 5624.540
934.7554, 5626.878
935.2375, 5627.667
935.7196, 5625.794
936.2017, 5623.369
936.6838, 5625.911
937.1660, 5633.917
937.6481, 5636.657
938.1302, 5633.091
938.6123, 5628.265
939.0944, 5622.239
939.5765, 5619.150
940.0587, 5624.725
940.5408, 5637.203
941.0229, 5643.229
941.5050, 5636.264
941.9871, 5634.826
942.4692, 5645.780
942.9514, 5655.080
943.4335, 5656.052
943.9156, 5652.836
944.3977, 5650.151
944.8798, 5648.314
945.3619, 5647.294
945.8441, 5645.885
946.3262, 5646.797
946.8083, 5653.454
947.2904, 5660.644
947.7725, 5663.715
948.2546, 5663.802
948.7368, 5664.823
949.2189, 5668.052
949.7010, 5669.087
950.1831, 5662.460
950.6652, 5654.659
951.1473, 5651.686
951.6295, 5652.579
952.1116, 5657.010
952.5937, 5663.608
953.0758, 5667.751
953.5579, 5666.724
954.0400, 5663.023
954.5222, 5658.281
955.0043, 5653.940
955.4864, 5654.993
955.9685, 5660.965
956.4506, 5668.103
956.9327, 5675.243
957.4149, 5679.607
957.8970, 5678.124
958.3791, 5673.290
958.8612, 5673.286
959.3433, 5678.521
959.8254, 5682.367
960.3076, 5684.411
960.7897, 5684.872
961.2718, 5683.731
961.7539, 5681.134
962.2360, 5676.515
962.7181, 5670.148
963.2003, 5668.687
963.6824, 5674.833
964.1645, 5680.537
964.6466, 5687.528
965.1287, 5690.931
965.6108, 5683.391
966.0930, 5672.846
966.5751, 5671.875
967.0572, 5681.639
967.5393, 5690.754
968.0214, 5700.433
968.5035, 5706.092
968.9857, 5705.105
969.4678, 5700.904
969.9499, 5692.669
970.4320, 5684.111
970.9141, 5683.627
971.3962, 5694.215
971.8784, 5703.174
972.3605, 5702.461
972.8426, 5700.512
973.3247, 5704.415
973.8068, 5709.712
974.2889, 5710.140
974.7711, 5705.974
975.2532, 5701.308
975.7353, 5697.744
976.2174, 5696.133
976.6995, 5698.422
977.1816, 5702.319
977.6638, 5705.201
978.1459, 5706.860
978.6280, 5706.859
979.1101, 5705.348
979.5922, 5703.229
980.0743, 5700.761
980.5565, 5699.870
981.0386, 5705.688
981.5207, 5715.627
982.0028, 5719.538
982.4849, 5717.563
982.9670, 5716.046
983.4492, 5717.117
983.9313, 5720.247
984.4134, 5725.462
984.8955, 5731.318
985.3776, 5732.459
985.8597, 5728.654
986.3419, 5726.756
986.8240, 5727.131
987.3061, 5730.783
987.7882, 5739.058
988.2703, 5748.086
988.7524, 5753.320
989.2346, 5754.972
989.7167, 5755.285
990.1988, 5754.419
990.6809, 5751.294
991.1630, 5743.091
991.6451, 5737.952
992.1273, 5741.583
992.6094, 5749.178
993.0915, 5753.398
993.5736, 5753.955
994.0557, 5756.555
994.5378, 5763.525
995.0200, 5769.095
995.5021, 5773.479
995.9842, 5775.528
996.4663, 5771.919
996.9484, 5766.703
997.4305, 5767.589
997.9127, 5775.828
998.3948, 5780.405
998.8769, 5774.469
999.3590, 5771.369
999.8411, 5779.432
1000.323, 5787.944
1000.805, 5787.232
1001.287, 5780.885
1001.770, 5777.484
1002.252, 5779.042
1002.734, 5780.221
1003.216, 5777.151
1003.698, 5775.050
1004.180, 5778.466
1004.662, 5783.378
1005.144, 5785.334
1005.627, 5784.782
1006.109, 5784.565
1006.591, 5785.747
1007.073, 5786.026
1007.555, 5781.276
1008.037, 5777.344
1008.519, 5782.546
1009.001, 5791.080
1009.483, 5792.597
1009.966, 5787.728
1010.448, 5784.202
1010.930, 5785.653
1011.412, 5789.357
1011.894, 5793.150
1012.376, 5797.056
1012.858, 5801.814
1013.340, 5806.590
1013.823, 5808.587
1014.305, 5808.000
1014.787, 5808.773
1015.269, 5813.249
1015.751, 5818.636
1016.233, 5819.822
1016.715, 5819.298
1017.197, 5826.870
1017.679, 5839.848
1018.162, 5842.549
1018.644, 5832.581
1019.126, 5825.776
1019.608, 5833.050
1020.090, 5846.302
1020.572, 5851.547
1021.054, 5849.884
1021.536, 5849.436
1022.018, 5850.180
1022.501, 5849.467
1022.983, 5846.485
1023.465, 5844.797
1023.947, 5846.948
1024.429, 5852.210
1024.911, 5859.443
1025.393, 5868.691
1025.875, 5879.558
1026.358, 5893.237
1026.840, 5897.137
1027.322, 5885.901
1027.804, 5873.771
1028.286, 5871.792
1028.768, 5876.737
1029.250, 5881.128
1029.732, 5885.378
1030.214, 5885.277
1030.697, 5878.961
1031.179, 5874.826
1031.661, 5875.414
1032.143, 5878.131
1032.625, 5882.001
1033.107, 5885.523
1033.589, 5883.613
1034.071, 5873.464
1034.553, 5870.912
1035.036, 5880.058
1035.518, 5887.772
1036.000, 5889.990
1036.482, 5890.841
1036.964, 5893.438
1037.446, 5897.231
1037.928, 5900.591
1038.410, 5903.570
1038.893, 5906.095
1039.375, 5908.306
1039.857, 5909.959
1040.339, 5911.408
1040.821, 5911.914
1041.303, 5909.544
1041.785, 5906.003
1042.267, 5906.173
1042.750, 5910.638
1043.232, 5916.772
1043.714, 5928.893
1044.196, 5936.704
1044.678, 5936.231
1045.160, 5932.056
1045.642, 5924.066
1046.124, 5915.548
1046.606, 5914.814
1047.089, 5924.366
1047.571, 5932.835
1048.053, 5939.438
1048.535, 5944.208
1049.017, 5946.547
1049.499, 5947.648
1049.981, 5948.928
1050.463, 5949.568
1050.945, 5946.731
1051.428, 5939.002
1051.910, 5935.371
1052.392, 5943.377
1052.874, 5948.008
1053.356, 5941.022
1053.838, 5932.211
1054.320, 5927.603
1054.802, 5927.455
1055.285, 5932.783
1055.767, 5944.487
1056.249, 5951.274
1056.731, 5945.802
1057.213, 5940.725
1057.695, 5940.551
1058.177, 5942.616
1058.659, 5946.170
1059.141, 5949.864
1059.624, 5951.510
1060.106, 5950.731
1060.588, 5949.564
1061.070, 5944.851
1061.552, 5944.984
1062.034, 5959.903
1062.516, 5974.601
1062.998, 5975.712
1063.480, 5968.919
1063.963, 5964.209
1064.445, 5963.423
1064.927, 5965.144
1065.409, 5970.454
1065.891, 5975.977
1066.373, 5981.713
1066.855, 5985.740
1067.337, 5985.263
1067.820, 5982.689
1068.302, 5981.632
1068.784, 5982.607
1069.266, 5984.179
1069.748, 5985.554
1070.230, 5987.835
1070.712, 5992.946
1071.194, 5997.684
1071.677, 5999.893
1072.159, 6000.040
1072.641, 5997.511
1073.123, 5993.414
1073.605, 5993.454
1074.087, 6002.178
1074.569, 6009.323
1075.051, 6008.784
1075.533, 6006.376
1076.016, 6005.690
1076.498, 6006.050
1076.980, 6006.531
1077.462, 6006.873
1077.944, 6006.202
1078.426, 6002.792
1078.908, 6003.613
1079.390, 6017.631
1079.873, 6030.580
1080.355, 6029.837
1080.837, 6025.044
1081.319, 6028.858
1081.801, 6039.278
1082.283, 6045.314
1082.765, 6042.779
1083.247, 6042.263
1083.729, 6052.076
1084.212, 6061.044
1084.694, 6061.370
1085.176, 6058.618
1085.658, 6058.304
1086.140, 6059.989
1086.622, 6061.009
1087.104, 6060.678
1087.586, 6060.787
1088.068, 6063.234
1088.551, 6064.850
1089.033, 6062.635
1089.515, 6060.229
1089.997, 6062.252
1090.479, 6065.971
1090.961, 6065.225
1091.443, 6059.215
1091.925, 6054.607
1092.408, 6053.374
1092.890, 6054.776
1093.372, 6062.025
1093.854, 6068.251
1094.336, 6067.890
1094.818, 6063.610
1095.300, 6058.001
1095.782, 6052.390
1096.265, 6052.038
1096.747, 6062.458
1097.229, 6070.537
1097.711, 6070.142
1098.193, 6068.174
1098.675, 6065.435
1099.157, 6065.627
1099.639, 6076.521
1100.121, 6094.513
1100.604, 6103.100
1101.086, 6095.576
1101.568, 6088.722
1102.050, 6084.802
1102.532, 6084.985
1103.014, 6095.292
1103.496, 6105.130
1103.978, 6102.993
1104.460, 6092.928
1104.943, 6086.555
1105.425, 6085.737
1105.907, 6086.903
1106.389, 6086.580
1106.871, 6092.015
1107.353, 6110.542
1107.835, 6130.263
1108.317, 6145.625
1108.800, 6155.412
1109.282, 6156.170
1109.764, 6147.292
1110.246, 6141.667
1110.728, 6142.503
1111.210, 6143.651
1111.692, 6145.097
1112.174, 6145.785
1112.656, 6144.866
1113.139, 6143.184
1113.621, 6140.628
1114.103, 6137.689
1114.585, 6139.274
1115.067, 6150.632
1115.549, 6157.108
1116.031, 6157.423
1116.513, 6154.536
1116.995, 6146.439
1117.478, 6138.568
1117.960, 6135.429
1118.442, 6136.335
1118.924, 6139.210
1119.406, 6144.575
1119.888, 6149.824
1120.370, 6154.370
1120.852, 6160.331
1121.335, 6170.212
1121.817, 6177.680
1122.299, 6176.856
1122.781, 6173.037
1123.263, 6176.839
1123.745, 6188.534
1124.227, 6192.072
1124.709, 6185.026
1125.192, 6177.772
1125.674, 6170.078
1126.156, 6167.125
1126.638, 6172.429
1127.120, 6180.618
1127.602, 6185.148
1128.084, 6187.166
1128.566, 6194.123
1129.048, 6191.615
1129.531, 6207.616
1130.013, 6189.927
1130.495, 6178.724
1130.977, 6182.432
1131.459, 6188.393
1131.941, 6185.986
1132.423, 6189.791
1132.905, 6192.373
1133.387, 6192.196
1133.870, 6197.803
1134.352, 6199.439
1134.834, 6202.009
1135.316, 6206.388
1135.798, 6206.665
1136.280, 6199.266
1136.762, 6191.619
1137.244, 6193.721
1137.727, 6202.620
1138.209, 6210.396
1138.691, 6216.970
1139.173, 6222.525
1139.655, 6226.696
1140.137, 6226.299
1140.619, 6220.726
1141.101, 6216.692
1141.583, 6220.130
1142.066, 6226.574
1142.548, 6229.364
1143.030, 6230.045
1143.512, 6231.338
1143.994, 6233.369
1144.476, 6236.687
1144.958, 6240.748
1145.440, 6242.461
1145.922, 6240.085
1146.405, 6237.943
1146.887, 6241.190
1147.369, 6245.758
1147.851, 6248.391
1148.333, 6248.421
1148.815, 6241.614
1149.297, 6232.149
1149.779, 6231.680
1150.262, 6242.609
1150.744, 6252.846
1151.226, 6255.653
1151.708, 6255.574
1152.190, 6253.719
1152.672, 6252.010
1153.154, 6251.696
1153.636, 6252.818
1154.119, 6255.717
1154.601, 6259.968
1155.083, 6263.955
1155.565, 6267.314
1156.047, 6270.072
1156.529, 6273.056
1157.011, 6274.352
1157.493, 6271.138
1157.975, 6267.690
1158.458, 6267.221
1158.940, 6269.328
1159.422, 6273.358
1159.904, 6279.466
1160.386, 6283.786
1160.868, 6283.867
1161.350, 6285.406
1161.832, 6292.311
1162.314, 6296.333
1162.797, 6290.210
1163.279, 6283.522
1163.761, 6288.508
1164.243, 6301.604
1164.725, 6305.345
1165.207, 6295.827
1165.689, 6290.954
1166.171, 6292.181
1166.654, 6293.979
1167.136, 6295.367
1167.618, 6295.778
1168.100, 6293.852
1168.582, 6293.341
1169.064, 6302.015
1169.546, 6318.042
1170.028, 6323.563
1170.510, 6318.306
1170.993, 6312.162
1171.475, 6306.060
1171.957, 6305.070
1172.439, 6311.147
1172.921, 6321.578
1173.403, 6335.087
1173.885, 6346.896
1174.367, 6344.856
1174.849, 6333.685
1175.332, 6329.606
1175.814, 6331.402
1176.296, 6331.888
1176.778, 6330.331
1177.260, 6331.284
1177.742, 6336.946
1178.224, 6344.146
1178.706, 6351.163
1179.189, 6356.642
1179.671, 6357.994
1180.153, 6357.266
1180.635, 6356.537
1181.117, 6356.601
1181.599, 6359.876
1182.081, 6365.604
1182.563, 6366.806
1183.046, 6358.015
1183.528, 6351.624
1184.010, 6360.479
1184.492, 6367.849
1184.974, 6357.976
1185.456, 6344.387
1185.938, 6340.470
1186.420, 6345.196
1186.902, 6354.614
1187.385, 6368.486
1187.867, 6376.812
1188.349, 6372.193
1188.831, 6370.071
1189.313, 6375.900
1189.795, 6381.635
1190.277, 6382.752
1190.759, 6382.349
1191.241, 6382.724
1191.724, 6384.274
1192.206, 6389.344
1192.688, 6400.499
1193.170, 6403.487
1193.652, 6394.791
1194.134, 6388.834
1194.616, 6388.881
1195.098, 6390.944
1195.581, 6393.221
1196.063, 6395.114
1196.545, 6395.653
1197.027, 6395.297
1197.509, 6395.957
1197.991, 6397.611
1198.473, 6399.983
1198.955, 6402.741
1199.438, 6399.694
1199.920, 6389.921
1200.402, 6385.705
1200.884, 6395.710
1201.366, 6409.710
1201.848, 6414.071
1202.330, 6413.052
1202.812, 6412.575
1203.294, 6413.955
1203.776, 6423.196
1204.259, 6436.264
1204.741, 6439.649
1205.223, 6430.870
1205.705, 6422.862
1206.187, 6423.642
1206.669, 6425.519
1207.151, 6422.571
1207.633, 6419.350
1208.116, 6419.071
1208.598, 6420.880
1209.080, 6424.820
1209.562, 6429.516
1210.044, 6431.038
1210.526, 6428.167
1211.008, 6429.355
1211.490, 6440.970
1211.973, 6449.439
1212.455, 6450.374
1212.937, 6449.798
1213.419, 6449.347
1213.901, 6449.466
1214.383, 6450.425
1214.865, 6452.368
1215.347, 6456.246
1215.829, 6462.773
1216.312, 6466.421
1216.794, 6467.171
1217.276, 6464.583
1217.758, 6457.854
1218.240, 6453.206
1218.722, 6453.875
1219.204, 6456.881
1219.686, 6459.198
1220.168, 6460.741
1220.651, 6460.123
1221.133, 6458.587
1221.615, 6462.830
1222.097, 6470.845
1222.579, 6472.267
1223.061, 6466.572
1223.543, 6462.169
1224.025, 6463.046
1224.508, 6469.007
1224.990, 6483.363
1225.472, 6498.264
1225.954, 6506.527
1226.436, 6510.234
1226.918, 6509.440
1227.400, 6507.036
1227.882, 6508.284
1228.365, 6512.454
1228.847, 6512.615
1229.329, 6505.309
1229.811, 6500.457
1230.293, 6503.285
1230.775, 6505.521
1231.257, 6502.386
1231.739, 6500.128
1232.221, 6503.318
1232.703, 6509.404
1233.186, 6516.526
1233.668, 6523.793
1234.150, 6524.128
1234.632, 6513.646
1235.114, 6512.435
1235.596, 6522.868
1236.078, 6532.623
1236.560, 6539.362
1237.043, 6541.101
1237.525, 6536.047
1238.007, 6529.953
1238.489, 6530.659
1238.971, 6535.443
1239.453, 6537.888
1239.935, 6537.772
1240.417, 6532.229
1240.900, 6523.488
1241.382, 6518.737
1241.864, 6519.604
1242.346, 6526.393
1242.828, 6539.602
1243.310, 6549.554
1243.792, 6543.732
1244.274, 6537.282
1244.756, 6543.489
1245.239, 6553.771
1245.721, 6560.854
1246.203, 6565.601
1246.685, 6570.991
1247.167, 6576.588
1247.649, 6578.391
1248.131, 6574.498
1248.613, 6570.897
1249.095, 6566.182
1249.578, 6565.134
1250.060, 6569.383
1250.542, 6576.233
1251.024, 6585.232
1251.506, 6594.993
1251.988, 6604.573
1252.470, 6612.851
1252.952, 6614.850
1253.435, 6610.415
1253.917, 6604.642
1254.399, 6597.888
1254.881, 6600.846
1255.363, 6614.582
1255.845, 6624.976
1256.327, 6625.560
1256.809, 6623.840
1257.292, 6626.694
1257.774, 6631.543
1258.256, 6634.612
1258.738, 6637.617
1259.220, 6642.929
1259.702, 6650.047
1260.184, 6659.463
1260.666, 6669.458
1261.148, 6675.767
1261.630, 6677.223
1262.113, 6675.736
1262.595, 6663.986
1263.077, 6661.468
1263.559, 6682.608
1264.041, 6703.213
1264.523, 6712.143
1265.005, 6714.698
1265.487, 6714.540
1265.970, 6712.322
1266.452, 6709.062
1266.934, 6704.697
1267.416, 6704.092
1267.898, 6707.789
1268.380, 6711.446
1268.862, 6714.700
1269.344, 6717.416
1269.827, 6719.576
1270.309, 6720.425
1270.791, 6719.157
1271.273, 6718.716
1271.755, 6724.580
1272.237, 6733.169
1272.719, 6737.639
1273.201, 6740.105
1273.683, 6744.152
1274.166, 6749.497
1274.648, 6754.070
1275.130, 6758.038
1275.612, 6764.651
1276.094, 6776.142
1276.576, 6785.645
1277.058, 6789.659
1277.540, 6792.140
1278.022, 6793.981
1278.505, 6795.300
1278.987, 6793.916
1279.469, 6794.041
1279.951, 6801.760
1280.433, 6814.859
1280.915, 6824.214
1281.397, 6830.051
1281.879, 6839.627
1282.362, 6853.700
1282.844, 6861.300
1283.326, 6860.579
1283.808, 6858.574
1284.290, 6857.800
1284.772, 6858.752
1285.254, 6858.210
1285.736, 6856.019
##END=



