##NAMES=Yugawaralite
##RRUFFID=R050407
##IDEAL CHEMISTRY=Ca(Si_6_Al_2_)O_16_&#183;4H_2_O
##LOCALITY=Malad quarry, Mumbai, Maharashtra, India
##OWNER=RRUFF
##SOURCE=G.R. Rossman
##DESCRIPTION=Group of colorless flat tabular crystals
##STATUS=The identification of this mineral has been confirmed by X-ray diffraction and chemical analysis
##URL=rruff.info/R050407
##MEASURED CHEMISTRY=Ca_1.00_(Si_6.00_Al_2.00_)O_16_Â·4H_2_O
92.35352, 34.66330
92.83563, 33.30056
93.31775, 32.72084
93.79987, 33.06520
94.28198, 34.21173
94.76410, 35.87866
95.24622, 38.13797
95.72833, 40.74952
96.21045, 43.10103
96.69257, 45.18137
97.17468, 47.35579
97.65680, 49.82713
98.13892, 52.60682
98.62103, 55.87681
99.10315, 59.57500
99.58527, 63.75264
100.0674, 68.56850
100.5495, 73.93142
101.0316, 80.04566
101.5137, 87.05743
101.9958, 95.03473
102.4780, 103.8338
102.9601, 113.4139
103.4422, 123.8187
103.9243, 134.6866
104.4064, 146.1790
104.8885, 158.0891
105.3707, 170.3457
105.8528, 182.9169
106.3349, 195.7366
106.8170, 208.8145
107.2991, 222.9858
107.7813, 235.8160
108.2634, 246.7715
108.7455, 256.3652
109.2276, 265.9239
109.7097, 274.9783
110.1918, 284.4334
110.6740, 294.6802
111.1561, 305.9787
111.6382, 317.7888
112.1203, 329.7963
112.6024, 342.2214
113.0845, 355.7383
113.5667, 370.6577
114.0488, 386.5306
114.5309, 403.2342
115.0130, 421.0880
115.4951, 439.2829
115.9772, 457.9149
116.4594, 477.1124
116.9415, 495.8704
117.4236, 513.3807
117.9057, 530.4250
118.3878, 547.7647
118.8699, 566.7695
119.3521, 585.5273
119.8342, 603.4760
120.3163, 620.6420
120.7984, 636.2263
121.2805, 649.7798
121.7626, 661.4195
122.2448, 671.3450
122.7269, 680.3961
123.2090, 687.4172
123.6911, 690.9584
124.1732, 690.5206
124.6553, 688.0514
125.1375, 684.4236
125.6196, 680.0048
126.1017, 675.9589
126.5838, 672.1437
127.0659, 669.2961
127.5480, 669.1620
128.0302, 672.8055
128.5123, 677.4875
128.9944, 678.7009
129.4765, 676.8566
129.9586, 675.7954
130.4407, 678.3962
130.9229, 684.1345
131.4050, 690.9465
131.8871, 698.2895
132.3692, 706.4282
132.8513, 715.9242
133.3334, 725.6769
133.8156, 733.0447
134.2977, 738.4406
134.7798, 744.4083
135.2619, 750.8278
135.7440, 757.4818
136.2261, 764.5150
136.7083, 773.5030
137.1904, 784.8209
137.6725, 796.9914
138.1546, 808.5997
138.6367, 819.5372
139.1188, 830.9193
139.6010, 843.4161
140.0831, 856.9915
140.5652, 869.5381
141.0473, 880.7697
141.5294, 891.5918
142.0115, 902.8878
142.4937, 914.5695
142.9758, 927.0764
143.4579, 940.6581
143.9400, 955.2607
144.4221, 970.7785
144.9042, 987.5698
145.3864, 1005.043
145.8685, 1021.721
146.3506, 1036.751
146.8327, 1052.303
147.3148, 1069.525
147.7969, 1089.894
148.2791, 1108.333
148.7612, 1123.682
149.2433, 1137.180
149.7254, 1151.963
150.2075, 1169.120
150.6896, 1186.536
151.1718, 1203.326
151.6539, 1219.290
152.1360, 1235.012
152.6181, 1250.731
153.1002, 1266.275
153.5823, 1281.028
154.0645, 1294.729
154.5466, 1307.958
155.0287, 1321.005
155.5108, 1336.129
155.9929, 1348.632
156.4750, 1356.978
156.9572, 1361.863
157.4393, 1365.887
157.9214, 1369.708
158.4035, 1372.819
158.8856, 1374.923
159.3677, 1377.723
159.8499, 1377.774
160.3320, 1373.840
160.8141, 1366.242
161.2962, 1356.548
161.7783, 1344.129
162.2604, 1330.494
162.7426, 1316.891
163.2247, 1304.231
163.7068, 1291.212
164.1889, 1276.370
164.6710, 1260.047
165.1531, 1245.268
165.6353, 1234.290
166.1174, 1225.375
166.5995, 1216.654
167.0816, 1206.120
167.5637, 1196.521
168.0458, 1189.387
168.5280, 1184.796
169.0101, 1182.430
169.4922, 1182.603
169.9743, 1184.791
170.4564, 1188.285
170.9385, 1193.103
171.4207, 1198.907
171.9028, 1205.458
172.3849, 1212.722
172.8670, 1220.677
173.3491, 1229.260
173.8312, 1238.570
174.3134, 1248.843
174.7955, 1260.857
175.2776, 1273.498
175.7597, 1285.096
176.2418, 1295.508
176.7239, 1306.197
177.2061, 1319.237
177.6882, 1334.009
178.1703, 1348.552
178.6524, 1362.131
179.1345, 1375.013
179.6166, 1387.305
180.0988, 1399.055
180.5809, 1410.653
181.0630, 1422.873
181.5451, 1435.546
182.0272, 1447.467
182.5093, 1457.781
182.9915, 1467.032
183.4736, 1476.434
183.9557, 1486.256
184.4378, 1495.840
184.9199, 1505.119
185.4020, 1513.750
185.8842, 1520.526
186.3663, 1524.681
186.8484, 1526.383
187.3305, 1525.993
187.8126, 1523.442
188.2947, 1519.085
188.7769, 1513.640
189.2590, 1507.081
189.7411, 1498.655
190.2232, 1487.349
190.7053, 1473.529
191.1874, 1459.283
191.6696, 1444.654
192.1517, 1429.610
192.6338, 1414.288
193.1159, 1398.730
193.5980, 1381.865
194.0801, 1362.475
194.5623, 1340.841
195.0444, 1319.464
195.5265, 1298.468
196.0086, 1278.187
196.4907, 1259.795
196.9728, 1243.522
197.4550, 1227.120
197.9371, 1208.916
198.4192, 1188.870
198.9013, 1169.479
199.3834, 1150.921
199.8655, 1133.243
200.3477, 1116.191
200.8298, 1099.735
201.3119, 1084.239
201.7940, 1070.246
202.2761, 1057.989
202.7582, 1044.678
203.2404, 1029.985
203.7225, 1014.176
204.2046, 997.6637
204.6867, 980.1144
205.1688, 962.9561
205.6509, 947.3299
206.1331, 933.3210
206.6152, 919.8199
207.0973, 906.9408
207.5794, 894.4020
208.0615, 881.1974
208.5436, 867.0126
209.0258, 852.9232
209.5079, 839.3862
209.9900, 826.1450
210.4721, 815.0192
210.9542, 806.8090
211.4363, 800.5811
211.9185, 792.9946
212.4006, 783.3054
212.8827, 773.7782
213.3648, 766.0555
213.8469, 760.4342
214.3290, 755.0450
214.8112, 749.2836
215.2933, 743.7639
215.7754, 740.8334
216.2575, 741.6121
216.7396, 742.8510
217.2217, 742.5543
217.7038, 740.1528
218.1860, 737.8671
218.6681, 735.4767
219.1502, 733.3693
219.6323, 733.2353
220.1144, 735.9440
220.5965, 739.1493
221.0787, 741.3274
221.5608, 741.6283
222.0429, 743.3273
222.5250, 747.2313
223.0071, 752.6194
223.4892, 756.5385
223.9714, 758.1486
224.4535, 759.6898
224.9356, 762.6291
225.4177, 768.1262
225.8998, 772.1878
226.3819, 774.4889
226.8641, 775.2524
227.3462, 775.1520
227.8283, 774.1694
228.3104, 772.3490
228.7925, 769.6644
229.2746, 765.7645
229.7568, 761.6796
230.2389, 757.4568
230.7210, 753.0258
231.2031, 748.2623
231.6852, 742.9528
232.1673, 737.6276
232.6495, 732.6425
233.1316, 728.3589
233.6137, 723.5211
234.0958, 717.5773
234.5779, 711.2264
235.0600, 706.6176
235.5422, 704.5073
236.0243, 702.9786
236.5064, 701.1972
236.9885, 699.0062
237.4706, 696.9163
237.9527, 694.9835
238.4349, 693.1628
238.9170, 691.3796
239.3991, 689.7028
239.8812, 687.9584
240.3633, 686.0969
240.8454, 684.1997
241.3276, 682.0192
241.8097, 679.7708
242.2918, 677.1879
242.7739, 673.6786
243.2560, 669.0184
243.7381, 663.7818
244.2203, 658.1450
244.7024, 652.0319
245.1845, 645.7899
245.6666, 639.7084
246.1487, 633.3757
246.6308, 625.6954
247.1130, 615.6430
247.5951, 605.8815
248.0772, 597.5323
248.5593, 590.9935
249.0414, 584.2003
249.5235, 576.8740
250.0057, 569.4743
250.4878, 562.6085
250.9699, 556.2988
251.4520, 550.4425
251.9341, 544.9528
252.4162, 539.6320
252.8984, 535.5498
253.3805, 533.0760
253.8626, 531.5404
254.3447, 530.0665
254.8268, 528.6896
255.3089, 527.2487
255.7911, 525.6022
256.2732, 523.6466
256.7553, 522.2623
257.2374, 521.3955
257.7195, 521.1569
258.2017, 521.7891
258.6838, 523.7125
259.1659, 525.5626
259.6480, 526.9896
260.1301, 527.9622
260.6122, 529.0408
261.0944, 530.2119
261.5765, 531.5161
262.0586, 532.9740
262.5407, 534.5167
263.0228, 536.4381
263.5049, 539.0173
263.9871, 542.2210
264.4692, 544.4954
264.9513, 545.6028
265.4334, 546.2016
265.9155, 546.8901
266.3976, 547.6998
266.8798, 548.4877
267.3619, 549.3881
267.8440, 550.2965
268.3261, 550.1088
268.8082, 548.3275
269.2903, 546.4937
269.7725, 546.1520
270.2546, 547.8438
270.7367, 548.4659
271.2188, 547.2371
271.7009, 544.6721
272.1830, 542.9383
272.6652, 542.2210
273.1473, 541.8577
273.6294, 541.5306
274.1115, 541.3168
274.5936, 540.5641
275.0757, 539.0147
275.5579, 537.0090
276.0400, 535.6105
276.5221, 534.9262
277.0042, 534.3987
277.4863, 533.6586
277.9684, 532.6716
278.4506, 532.0417
278.9327, 532.0748
279.4148, 532.1537
279.8969, 530.6957
280.3790, 527.4722
280.8611, 524.3520
281.3433, 522.5927
281.8254, 522.1735
282.3075, 520.8437
282.7896, 518.3805
283.2717, 515.3383
283.7538, 512.4403
284.2360, 509.6805
284.7181, 507.2723
285.2002, 505.3600
285.6823, 503.9120
286.1644, 502.5195
286.6465, 501.0803
287.1287, 500.0985
287.6108, 500.6270
288.0929, 502.5638
288.5750, 504.0602
289.0571, 504.0274
289.5392, 502.9927
290.0214, 503.2177
290.5035, 504.8166
290.9856, 506.7014
291.4677, 507.4150
291.9498, 507.2377
292.4319, 507.9204
292.9141, 510.3991
293.3962, 513.8668
293.8783, 516.5901
294.3604, 518.5566
294.8425, 519.8899
295.3246, 520.3878
295.8068, 520.2994
296.2889, 520.4362
296.7710, 521.0190
297.2531, 521.8999
297.7352, 522.9967
298.2173, 524.2587
298.6995, 525.2850
299.1816, 525.8822
299.6637, 526.0135
300.1458, 525.4866
300.6279, 524.0658
301.1100, 522.3965
301.5922, 521.1017
302.0743, 520.1959
302.5564, 519.7567
303.0385, 519.9573
303.5206, 520.5941
304.0027, 521.4872
304.4849, 522.6906
304.9670, 523.7743
305.4491, 524.1362
305.9312, 524.0358
306.4133, 524.0964
306.8954, 524.1647
307.3776, 524.8052
307.8597, 526.8055
308.3418, 530.3251
308.8239, 534.1721
309.3060, 537.0551
309.7881, 539.7892
310.2703, 543.5558
310.7524, 549.2782
311.2345, 555.9268
311.7166, 562.9751
312.1987, 570.3841
312.6808, 577.6132
313.1630, 584.7474
313.6451, 591.4581
314.1272, 597.4480
314.6093, 602.1179
315.0914, 606.4246
315.5735, 610.8593
316.0557, 615.3199
316.5378, 619.2850
317.0199, 622.6920
317.5020, 625.4135
317.9841, 627.4921
318.4662, 629.6528
318.9484, 630.0065
319.4305, 627.3478
319.9126, 622.3537
320.3947, 616.7988
320.8768, 612.6697
321.3589, 607.0018
321.8411, 597.6602
322.3232, 582.2179
322.8053, 568.6827
323.2874, 560.3082
323.7695, 554.4535
324.2516, 546.9370
324.7338, 535.0791
325.2159, 523.3412
325.6980, 513.0823
326.1801, 504.5424
326.6622, 496.5611
327.1443, 488.7728
327.6265, 481.5692
328.1086, 475.3287
328.5907, 470.4131
329.0728, 466.1330
329.5549, 462.4177
330.0370, 459.2569
330.5192, 456.6768
331.0013, 454.9869
331.4834, 453.5978
331.9655, 451.9981
332.4476, 449.2847
332.9297, 447.9308
333.4119, 448.4291
333.8940, 450.4727
334.3761, 452.7992
334.8582, 455.4294
335.3403, 458.2144
335.8224, 461.0905
336.3046, 464.1135
336.7867, 466.9792
337.2688, 469.3811
337.7509, 471.8607
338.2330, 475.6652
338.7151, 481.0126
339.1973, 486.9256
339.6794, 493.1382
340.1615, 499.6004
340.6436, 506.3495
341.1257, 513.3153
341.6078, 520.5871
342.0899, 528.4406
342.5721, 536.7988
343.0542, 545.0445
343.5363, 552.7056
344.0184, 560.0468
344.5005, 568.6636
344.9826, 578.6399
345.4648, 588.7892
345.9469, 597.9760
346.4290, 606.3615
346.9111, 614.2654
347.3932, 621.8629
347.8753, 628.9503
348.3575, 634.9520
348.8396, 639.8653
349.3217, 644.0468
349.8038, 648.1249
350.2859, 651.5697
350.7680, 653.2399
351.2502, 653.0864
351.7323, 650.7838
352.2144, 645.7322
352.6965, 638.1608
353.1786, 628.9044
353.6607, 617.4440
354.1429, 604.9755
354.6250, 592.7257
355.1071, 580.7441
355.5892, 569.4618
356.0713, 558.7570
356.5534, 549.0704
357.0356, 541.0586
357.5177, 535.5712
357.9998, 531.3019
358.4819, 527.4066
358.9640, 523.9627
359.4461, 521.5351
359.9283, 520.8564
360.4104, 521.0799
360.8925, 521.5687
361.3746, 522.4587
361.8567, 523.0963
362.3388, 523.1357
362.8210, 522.7161
363.3031, 522.1629
363.7852, 522.0548
364.2673, 521.4466
364.7494, 519.8527
365.2315, 517.0820
365.7137, 513.8293
366.1958, 510.5775
366.6779, 506.8276
367.1600, 501.9627
367.6421, 494.4670
368.1242, 487.3536
368.6064, 481.4788
369.0885, 476.9120
369.5706, 471.8394
370.0527, 465.9418
370.5348, 459.7656
371.0169, 453.5409
371.4991, 447.0058
371.9812, 441.0134
372.4633, 435.8829
372.9454, 431.3090
373.4275, 426.2613
373.9096, 420.3026
374.3918, 414.5344
374.8739, 409.5747
375.3560, 405.4745
375.8381, 401.6613
376.3202, 398.1035
376.8023, 394.9232
377.2845, 392.2433
377.7666, 390.0235
378.2487, 388.6356
378.7308, 388.3074
379.2129, 388.9482
379.6950, 390.1165
380.1772, 391.8864
380.6593, 393.8392
381.1414, 395.2903
381.6235, 396.3789
382.1056, 398.6190
382.5877, 402.5035
383.0699, 407.4242
383.5520, 412.1336
384.0341, 416.7441
384.5162, 421.9443
384.9983, 428.3981
385.4804, 435.7803
385.9626, 443.4145
386.4447, 451.2011
386.9268, 459.4116
387.4089, 468.4928
387.8910, 478.2500
388.3731, 488.0384
388.8553, 496.9721
389.3374, 506.2069
389.8195, 517.0831
390.3016, 529.3792
390.7837, 541.7411
391.2658, 553.1905
391.7480, 564.1735
392.2301, 575.1403
392.7122, 586.1001
393.1943, 597.2169
393.6764, 608.5262
394.1585, 620.0372
394.6407, 631.5352
395.1228, 642.7081
395.6049, 654.1221
396.0870, 666.3937
396.5691, 680.0029
397.0512, 692.8842
397.5334, 704.5765
398.0155, 715.4031
398.4976, 725.6155
398.9797, 735.3710
399.4618, 744.4589
399.9439, 752.7452
400.4261, 760.2226
400.9082, 767.4832
401.3903, 775.3735
401.8724, 782.2197
402.3545, 786.8610
402.8366, 788.3889
403.3188, 789.5766
403.8009, 790.6183
404.2830, 791.3898
404.7651, 791.6872
405.2472, 791.7142
405.7293, 790.7034
406.2115, 788.3172
406.6936, 784.5727
407.1757, 779.4951
407.6578, 772.6402
408.1399, 765.6346
408.6220, 760.5825
409.1042, 757.4346
409.5863, 753.8073
410.0684, 748.8900
410.5505, 743.2442
411.0326, 737.4470
411.5147, 731.5258
411.9969, 726.9267
412.4790, 725.2833
412.9611, 725.6407
413.4432, 725.6653
413.9253, 724.9196
414.4074, 724.3291
414.8896, 724.7288
415.3717, 726.0405
415.8538, 728.0959
416.3359, 731.0983
416.8180, 734.6140
417.3001, 737.9641
417.7823, 741.2180
418.2644, 745.3759
418.7465, 751.8093
419.2286, 759.1471
419.7107, 765.9051
420.1928, 770.6133
420.6750, 776.2568
421.1571, 784.3487
421.6392, 794.2948
422.1213, 804.3629
422.6034, 814.1951
423.0855, 823.9305
423.5677, 833.5835
424.0498, 842.8644
424.5319, 852.9002
425.0140, 864.4461
425.4961, 876.5824
425.9782, 888.4090
426.4604, 899.6110
426.9425, 911.0443
427.4246, 923.2369
427.9067, 935.9894
428.3888, 946.9755
428.8709, 955.5297
429.3531, 963.4702
429.8352, 971.9771
430.3173, 981.1403
430.7994, 989.6382
431.2815, 997.0973
431.7636, 1004.373
432.2458, 1013.006
432.7279, 1023.099
433.2100, 1032.528
433.6921, 1039.767
434.1742, 1045.899
434.6563, 1054.973
435.1385, 1067.157
435.6206, 1080.305
436.1027, 1092.631
436.5848, 1104.514
437.0669, 1117.071
437.5490, 1130.738
438.0312, 1144.675
438.5133, 1158.119
438.9954, 1171.229
439.4775, 1184.424
439.9596, 1199.086
440.4417, 1213.224
440.9239, 1225.162
441.4060, 1234.816
441.8881, 1242.676
442.3702, 1248.910
442.8523, 1253.449
443.3344, 1256.273
443.8166, 1257.521
444.2987, 1256.860
444.7808, 1254.352
445.2629, 1249.862
445.7450, 1242.955
446.2271, 1232.636
446.7093, 1220.805
447.1914, 1208.157
447.6735, 1194.761
448.1556, 1180.170
448.6377, 1163.655
449.1198, 1146.574
449.6020, 1130.330
450.0841, 1115.994
450.5662, 1100.942
451.0483, 1084.634
451.5304, 1067.271
452.0125, 1050.129
452.4947, 1033.042
452.9768, 1016.250
453.4589, 999.5505
453.9410, 982.7867
454.4231, 967.3615
454.9052, 953.3134
455.3874, 939.8167
455.8695, 924.9402
456.3516, 909.0219
456.8337, 895.1019
457.3158, 884.2031
457.7979, 875.6380
458.2801, 867.9572
458.7622, 861.3081
459.2443, 856.5122
459.7264, 854.6525
460.2085, 854.8581
460.6906, 856.1057
461.1728, 858.2752
461.6549, 861.3682
462.1370, 865.3141
462.6191, 870.1719
463.1012, 875.9491
463.5833, 882.6676
464.0655, 890.2896
464.5476, 899.2274
465.0297, 909.2374
465.5118, 918.8065
465.9939, 927.3102
466.4760, 935.2111
466.9582, 942.6664
467.4403, 949.4781
467.9224, 956.3536
468.4045, 963.6872
468.8866, 970.8959
469.3687, 977.1403
469.8509, 981.4106
470.3330, 986.3895
470.8151, 992.8595
471.2972, 1000.672
471.7793, 1008.216
472.2614, 1015.570
472.7436, 1022.670
473.2257, 1029.291
473.7078, 1035.445
474.1899, 1042.631
474.6720, 1051.589
475.1541, 1060.000
475.6363, 1064.037
476.1184, 1064.176
476.6005, 1063.519
477.0826, 1063.939
477.5647, 1063.923
478.0468, 1060.712
478.5290, 1054.494
479.0111, 1046.985
479.4932, 1040.012
479.9753, 1032.161
480.4574, 1021.746
480.9395, 1008.331
481.4217, 992.6579
481.9038, 975.1354
482.3859, 955.9067
482.8680, 935.3646
483.3501, 913.2834
483.8322, 890.2437
484.3144, 866.1652
484.7965, 841.2872
485.2786, 815.9471
485.7607, 789.8217
486.2428, 763.8419
486.7249, 738.4596
487.2071, 714.5487
487.6892, 689.8574
488.1713, 663.3287
488.6534, 636.8105
489.1355, 612.5223
489.6176, 590.5057
490.0998, 570.3510
490.5819, 551.8784
491.0640, 534.8669
491.5461, 518.5895
492.0282, 502.9103
492.5103, 488.3262
492.9925, 475.7629
493.4746, 464.7189
493.9567, 453.5325
494.4388, 441.8451
494.9209, 430.3687
495.4030, 419.4684
495.8852, 409.3094
496.3673, 400.0302
496.8494, 392.0419
497.3315, 384.7200
497.8136, 377.5140
498.2957, 370.4230
498.7779, 363.7624
499.2600, 357.6938
499.7421, 352.0194
500.2242, 346.6518
500.7063, 341.5759
501.1884, 336.5754
501.6706, 331.6544
502.1527, 326.7835
502.6348, 322.0166
503.1169, 317.1572
503.5990, 312.6639
504.0811, 308.6866
504.5633, 305.1572
505.0454, 301.7136
505.5275, 298.3259
506.0096, 295.1854
506.4917, 292.4972
506.9738, 290.3072
507.4560, 287.6195
507.9381, 284.2728
508.4202, 280.8580
508.9023, 277.9310
509.3844, 275.4827
509.8665, 273.3971
510.3487, 271.7081
510.8308, 270.2711
511.3129, 268.9052
511.7950, 267.5988
512.2772, 266.2926
512.7593, 265.0344
513.2414, 263.7206
513.7235, 262.1414
514.2056, 260.3073
514.6877, 258.5096
515.1699, 256.8260
515.6520, 255.3175
516.1341, 254.0513
516.6162, 253.0961
517.0983, 252.2663
517.5804, 251.5293
518.0626, 250.8620
518.5447, 250.2278
519.0268, 249.4908
519.5089, 248.9260
519.9910, 248.6851
520.4731, 248.7359
520.9553, 248.6095
521.4374, 248.3390
521.9195, 247.8492
522.4016, 246.8823
522.8837, 245.1510
523.3658, 244.6866
523.8480, 245.8755
524.3301, 247.5557
524.8122, 248.1207
525.2943, 247.6357
525.7764, 247.0776
526.2585, 246.5710
526.7407, 246.3039
527.2228, 246.7723
527.7049, 247.8717
528.1870, 248.9681
528.6691, 249.2977
529.1512, 249.6209
529.6334, 251.0502
530.1155, 253.7098
530.5976, 256.2095
531.0797, 257.5542
531.5618, 258.4293
532.0439, 259.4750
532.5261, 260.6952
533.0082, 262.3315
533.4903, 264.7857
533.9724, 267.6744
534.4545, 270.2342
534.9366, 271.7450
535.4188, 273.6570
535.9009, 276.4172
536.3830, 280.0034
536.8651, 283.3359
537.3472, 286.2779
537.8293, 289.2343
538.3115, 292.5026
538.7936, 296.1092
539.2757, 299.5204
539.7578, 302.6729
540.2399, 305.6742
540.7220, 308.4806
541.2042, 311.1818
541.6863, 314.5468
542.1684, 319.2017
542.6505, 324.2177
543.1326, 328.2514
543.6147, 331.4733
544.0969, 334.6450
544.5790, 338.2047
545.0611, 341.8161
545.5432, 345.2994
546.0253, 348.6394
546.5074, 351.5088
546.9896, 353.5177
547.4717, 355.1068
547.9538, 356.6377
548.4359, 358.4762
548.9180, 359.8441
549.4001, 360.7956
549.8823, 361.2326
550.3644, 360.9729
550.8465, 359.9641
551.3286, 358.3535
551.8107, 356.1734
552.2928, 353.4112
552.7750, 350.0161
553.2571, 345.9150
553.7392, 341.4763
554.2213, 336.8665
554.7034, 332.1277
555.1855, 327.3175
555.6677, 322.4616
556.1498, 317.3337
556.6319, 311.7642
557.1140, 305.7840
557.5961, 299.4404
558.0782, 292.4953
558.5604, 285.5887
559.0425, 279.3206
559.5246, 273.5272
560.0067, 267.8831
560.4888, 262.1404
560.9709, 256.6780
561.4531, 251.8495
561.9352, 247.6377
562.4173, 243.3733
562.8994, 238.7150
563.3815, 234.1969
563.8636, 230.0607
564.3458, 226.4890
564.8279, 222.8586
565.3100, 219.0013
565.7921, 215.2506
566.2742, 212.1454
566.7563, 209.7309
567.2385, 207.3815
567.7206, 205.0311
568.2027, 202.6083
568.6848, 199.9493
569.1669, 197.0753
569.6490, 194.4165
570.1312, 192.3415
570.6133, 190.5192
571.0954, 188.4142
571.5775, 186.0206
572.0596, 183.8478
572.5417, 182.3334
573.0239, 181.0832
573.5060, 179.7771
573.9881, 178.3017
574.4702, 176.8896
574.9523, 175.6158
575.4344, 174.4241
575.9166, 173.2615
576.3987, 172.2313
576.8808, 171.0407
577.3629, 169.4460
577.8450, 167.6838
578.3271, 166.5946
578.8093, 166.4184
579.2914, 166.2004
579.7735, 165.4965
580.2556, 164.3916
580.7377, 163.4846
581.2198, 162.7892
581.7020, 162.1648
582.1841, 161.5082
582.6662, 160.8334
583.1483, 160.1770
583.6304, 159.5654
584.1125, 158.9053
584.5947, 157.8817
585.0768, 156.8223
585.5589, 156.2178
586.0410, 156.7965
586.5231, 157.2381
587.0052, 156.8274
587.4873, 155.8516
587.9694, 155.0874
588.4515, 154.9389
588.9337, 154.7507
589.4158, 154.2067
589.8979, 153.3022
590.3800, 153.0128
590.8621, 153.6366
591.3442, 154.3466
591.8264, 154.6329
592.3085, 154.4781
592.7906, 154.0701
593.2727, 153.3062
593.7548, 152.6670
594.2369, 152.8936
594.7191, 153.7591
595.2012, 154.3561
595.6833, 154.3435
596.1654, 154.2174
596.6475, 154.5997
597.1296, 155.2926
597.6118, 155.8465
598.0939, 155.7858
598.5760, 155.7769
599.0581, 156.3252
599.5402, 157.3524
600.0223, 158.1338
600.5045, 158.3285
600.9866, 158.3974
601.4687, 158.4806
601.9508, 158.4792
602.4329, 158.9665
602.9150, 160.1025
603.3972, 161.5031
603.8793, 162.8488
604.3614, 164.1413
604.8435, 165.4367
605.3256, 166.7580
605.8077, 168.0113
606.2899, 168.8824
606.7720, 169.4869
607.2541, 170.3257
607.7362, 171.4731
608.2183, 173.0567
608.7004, 175.4499
609.1826, 178.4609
609.6647, 181.3379
610.1468, 183.5451
610.6289, 185.6790
611.1110, 188.0673
611.5931, 190.7682
612.0753, 193.5429
612.5574, 196.3480
613.0395, 199.2515
613.5216, 202.3012
614.0037, 205.6426
614.4858, 208.7960
614.9680, 211.5951
615.4501, 214.4280
615.9322, 217.9133
616.4143, 222.0915
616.8964, 225.7871
617.3785, 228.5795
617.8607, 231.1052
618.3428, 234.4693
618.8249, 238.5430
619.3070, 242.7926
619.7891, 247.1749
620.2712, 251.4688
620.7534, 255.4259
621.2355, 259.1129
621.7176, 262.6613
622.1997, 266.5437
622.6818, 269.9881
623.1639, 272.3393
623.6461, 273.3094
624.1282, 274.9171
624.6103, 278.3530
625.0924, 281.6347
625.5745, 283.5118
626.0566, 283.6750
626.5388, 283.2732
627.0209, 282.1837
627.5030, 280.7781
627.9851, 279.6416
628.4672, 278.7501
628.9493, 277.4499
629.4315, 275.5113
629.9136, 273.2190
630.3957, 270.8868
630.8778, 268.5649
631.3599, 266.4361
631.8420, 264.5496
632.3242, 262.9266
632.8063, 261.6728
633.2884, 260.7446
633.7705, 259.8349
634.2526, 258.6323
634.7347, 257.6057
635.2169, 256.9241
635.6990, 256.5797
636.1811, 256.7387
636.6632, 257.4686
637.1453, 258.6194
637.6274, 260.1253
638.1096, 262.0401
638.5917, 264.0115
639.0738, 266.0362
639.5559, 268.1161
640.0380, 270.3539
640.5201, 272.7029
641.0023, 274.9121
641.4844, 276.9563
641.9665, 278.8155
642.4486, 280.7935
642.9307, 282.6133
643.4128, 283.6465
643.8950, 282.9106
644.3771, 282.0492
644.8592, 282.2592
645.3413, 283.1836
645.8234, 282.8565
646.3055, 280.4174
646.7877, 277.2258
647.2698, 273.6502
647.7519, 269.6561
648.2340, 265.3266
648.7161, 260.5817
649.1982, 255.7455
649.6804, 251.1070
650.1625, 246.6414
650.6446, 242.0457
651.1267, 237.2773
651.6088, 232.7116
652.0909, 228.9039
652.5731, 225.6077
653.0552, 222.3113
653.5373, 218.8169
654.0194, 215.5515
654.5015, 212.6685
654.9836, 210.1562
655.4658, 207.9763
655.9479, 206.0110
656.4300, 204.5186
656.9121, 203.8151
657.3942, 203.6006
657.8763, 202.9982
658.3585, 201.6305
658.8406, 200.7663
659.3227, 200.9564
659.8048, 201.9636
660.2869, 202.6320
660.7690, 202.9560
661.2512, 202.9606
661.7333, 202.4200
662.2154, 201.6375
662.6975, 201.3298
663.1796, 201.4988
663.6617, 201.4521
664.1439, 200.6571
664.6260, 199.4650
665.1081, 198.1502
665.5902, 196.7392
666.0723, 195.3323
666.5544, 194.2522
667.0366, 193.0188
667.5187, 191.1717
668.0008, 188.3051
668.4829, 185.7305
668.9650, 183.7726
669.4471, 181.8782
669.9293, 178.9084
670.4114, 174.8463
670.8935, 171.2954
671.3756, 168.7791
671.8577, 166.8300
672.3398, 164.6329
672.8220, 162.2875
673.3041, 160.1759
673.7862, 158.7194
674.2683, 157.3654
674.7504, 155.6377
675.2325, 153.6227
675.7147, 151.8305
676.1968, 150.5625
676.6789, 149.3857
677.1610, 148.1112
677.6431, 146.7119
678.1252, 145.5194
678.6074, 144.6088
679.0895, 143.7843
679.5716, 143.0045
680.0537, 142.2633
680.5358, 141.1782
681.0179, 139.6996
681.5001, 138.2375
681.9822, 137.2858
682.4643, 136.6433
682.9464, 135.9245
683.4285, 135.0385
683.9106, 134.1315
684.3928, 133.4476
684.8749, 132.7375
685.3570, 131.6912
685.8391, 129.4930
686.3212, 127.8502
686.8033, 127.3016
687.2855, 127.3670
687.7676, 127.3577
688.2497, 127.3478
688.7318, 127.0643
689.2139, 126.4130
689.6960, 125.4879
690.1782, 124.4934
690.6603, 123.4375
691.1424, 122.4668
691.6245, 121.5749
692.1066, 120.8431
692.5887, 120.4455
693.0709, 120.3367
693.5530, 120.3254
694.0351, 120.5437
694.5172, 120.6323
694.9993, 120.2037
695.4814, 119.2181
695.9636, 118.6576
696.4457, 119.0249
696.9278, 119.4987
697.4099, 119.7225
697.8920, 119.6700
698.3741, 119.5638
698.8563, 119.4479
699.3384, 119.1418
699.8205, 118.2011
700.3026, 116.8667
700.7847, 116.4138
701.2668, 117.0907
701.7490, 117.7700
702.2311, 117.4097
702.7132, 116.3700
703.1953, 115.1156
703.6774, 113.6573
704.1595, 112.2218
704.6417, 110.5470
705.1238, 109.0494
705.6059, 108.3927
706.0880, 109.5211
706.5701, 109.8984
707.0522, 108.9698
707.5344, 107.3934
708.0165, 106.6304
708.4986, 106.7479
708.9807, 106.6329
709.4628, 105.8195
709.9449, 104.7536
710.4271, 104.2937
710.9092, 104.3237
711.3913, 104.3958
711.8734, 104.4584
712.3555, 104.3288
712.8376, 103.6788
713.3198, 102.6499
713.8019, 101.9522
714.2840, 101.9977
714.7661, 102.1915
715.2482, 102.3376
715.7303, 102.4364
716.2125, 102.5350
716.6946, 102.6503
717.1767, 102.7217
717.6588, 102.7216
718.1409, 102.6489
718.6230, 102.4545
719.1052, 102.1323
719.5873, 101.8487
720.0694, 101.7415
720.5515, 101.7432
721.0336, 101.6949
721.5157, 101.5419
721.9979, 101.7059
722.4800, 102.7565
722.9621, 103.9703
723.4442, 104.7491
723.9263, 104.7722
724.4084, 104.9458
724.8906, 105.4066
725.3727, 105.8585
725.8548, 105.8754
726.3369, 105.3969
726.8190, 105.4766
727.3011, 106.3260
727.7833, 107.4176
728.2654, 108.0052
728.7475, 108.2959
729.2296, 108.7945
729.7117, 109.7108
730.1938, 110.7245
730.6760, 111.6782
731.1581, 112.5625
731.6402, 113.3788
732.1223, 114.1538
732.6044, 114.8118
733.0865, 115.1427
733.5687, 115.4244
734.0508, 116.3451
734.5329, 118.1284
735.0150, 119.6092
735.4971, 120.3897
735.9792, 120.8067
736.4614, 121.5631
736.9435, 122.6307
737.4256, 123.8641
737.9077, 125.4361
738.3898, 126.9563
738.8719, 127.8921
739.3541, 128.4288
739.8362, 129.2065
740.3183, 130.7399
740.8004, 132.2688
741.2825, 133.6715
741.7646, 134.8967
742.2468, 135.3077
742.7289, 134.5295
743.2110, 133.8839
743.6931, 134.1224
744.1752, 135.0288
744.6573, 135.3248
745.1395, 135.0216
745.6216, 134.5790
746.1037, 134.3989
746.5858, 134.2198
747.0679, 133.6330
747.5500, 132.6407
748.0322, 131.7726
748.5143, 131.3556
748.9964, 131.0715
749.4785, 130.8113
749.9606, 130.6538
750.4427, 129.9449
750.9249, 128.3206
751.4070, 126.7404
751.8891, 125.9765
752.3712, 126.0073
752.8533, 125.8055
753.3354, 125.3182
753.8176, 124.8306
754.2997, 124.4585
754.7818, 124.3156
755.2639, 124.6765
755.7460, 125.6636
756.2281, 126.6057
756.7103, 126.9050
757.1924, 127.1428
757.6745, 127.8453
758.1566, 129.4725
758.6387, 130.7630
759.1208, 131.5746
759.6030, 132.2369
760.0851, 133.0735
760.5672, 134.0939
761.0493, 135.2495
761.5314, 136.5987
762.0135, 137.8028
762.4957, 138.1917
762.9778, 138.1942
763.4599, 138.7013
763.9420, 140.1955
764.4241, 141.5705
764.9063, 142.2771
765.3884, 142.4973
765.8705, 142.4373
766.3526, 141.1388
766.8347, 141.1458
767.3168, 143.4716
767.7990, 146.3282
768.2811, 146.7063
768.7632, 144.4598
769.2453, 142.8498
769.7274, 142.7079
770.2095, 143.0309
770.6917, 142.1740
771.1738, 140.7171
771.6559, 139.9430
772.1380, 140.5857
772.6201, 141.6483
773.1022, 142.6971
773.5844, 143.7838
774.0665, 144.9978
774.5486, 146.4652
775.0307, 147.8789
775.5128, 149.1064
775.9949, 150.3309
776.4771, 152.0244
776.9592, 154.2235
777.4413, 156.2214
777.9234, 157.7049
778.4055, 159.0860
778.8876, 160.9969
779.3698, 163.3196
779.8519, 165.7584
780.3340, 168.0788
780.8161, 170.5568
781.2982, 173.5592
781.7803, 176.8314
782.2625, 179.6701
782.7446, 181.7406
783.2267, 183.8402
783.7088, 186.2163
784.1909, 188.6741
784.6730, 190.5879
785.1552, 191.9707
785.6373, 193.4823
786.1194, 195.6708
786.6015, 197.7816
787.0836, 198.6158
787.5657, 198.4293
788.0479, 197.9103
788.5300, 197.6537
789.0121, 196.8546
789.4942, 195.2808
789.9763, 192.8703
790.4584, 189.4478
790.9406, 184.4404
791.4227, 179.6271
791.9048, 175.6009
792.3869, 172.0863
792.8690, 168.2113
793.3511, 163.9662
793.8333, 159.6830
794.3154, 155.5100
794.7975, 151.3778
795.2796, 147.1869
795.7617, 142.9719
796.2438, 139.0495
796.7260, 135.4695
797.2081, 132.2296
797.6902, 129.5033
798.1723, 127.1752
798.6544, 124.7531
799.1365, 122.1481
799.6187, 119.7113
800.1008, 117.5102
800.5829, 115.5863
801.0650, 114.2413
801.5471, 113.3821
802.0292, 112.3667
802.5114, 110.6567
802.9935, 108.7964
803.4756, 107.2221
803.9577, 105.9148
804.4398, 104.8323
804.9219, 104.2444
805.4041, 103.5418
805.8862, 102.4444
806.3683, 101.0912
806.8504, 100.0856
807.3325, 99.48766
807.8146, 98.93261
808.2968, 98.26619
808.7789, 97.56087
809.2610, 96.89218
809.7431, 96.30609
810.2252, 95.98933
810.7073, 96.47020
811.1895, 96.85323
811.6716, 96.42726
812.1537, 95.40607
812.6358, 94.60017
813.1179, 94.23619
813.6000, 93.95874
814.0822, 93.71878
814.5643, 93.50041
815.0464, 93.29487
815.5285, 93.10741
816.0106, 92.71328
816.4927, 91.80619
816.9749, 90.86485
817.4570, 90.72717
817.9391, 91.17249
818.4212, 91.56081
818.9033, 91.78905
819.3854, 91.70228
819.8676, 90.91233
820.3497, 89.73213
820.8318, 89.26447
821.3139, 89.95853
821.7960, 90.27185
822.2781, 89.63422
822.7603, 88.56517
823.2424, 88.46777
823.7245, 89.17638
824.2066, 89.61492
824.6887, 89.18605
825.1708, 88.51222
825.6530, 88.05708
826.1351, 87.79677
826.6172, 87.68768
827.0993, 87.95636
827.5814, 88.07030
828.0635, 87.82790
828.5457, 87.41863
829.0278, 87.28172
829.5099, 87.48473
829.9920, 87.49410
830.4741, 87.12122
830.9562, 86.61068
831.4384, 86.28178
831.9205, 86.12984
832.4026, 86.15478
832.8847, 86.56186
833.3668, 86.84785
833.8489, 86.58843
834.3311, 86.08119
834.8132, 85.80704
835.2953, 85.46281
835.7774, 86.11496
836.2595, 88.50353
836.7416, 91.10535
837.2238, 91.07156
837.7059, 88.70506
838.1880, 86.83244
838.6701, 86.13735
839.1522, 85.92886
839.6343, 85.62337
840.1165, 85.31229
840.5986, 85.14241
841.0807, 85.31190
841.5628, 85.35831
842.0449, 85.06956
842.5270, 84.70122
843.0092, 84.54484
843.4913, 84.67561
843.9734, 84.55775
844.4555, 84.09425
844.9376, 83.56441
845.4197, 83.18648
845.9019, 83.01315
846.3840, 83.25690
846.8661, 84.08670
847.3482, 84.69917
847.8303, 84.49670
848.3124, 83.95879
848.7946, 83.49547
849.2767, 83.13103
849.7588, 82.88073
850.2409, 82.74107
850.7230, 82.72145
851.2051, 82.93654
851.6873, 83.31602
852.1694, 83.34087
852.6515, 82.96283
853.1336, 82.59999
853.6157, 82.75195
854.0978, 82.98416
854.5800, 82.80644
855.0621, 82.09816
855.5442, 81.55630
856.0263, 81.46770
856.5084, 81.42577
856.9905, 81.17381
857.4727, 80.71211
857.9548, 80.79891
858.4369, 81.50106
858.9190, 82.03493
859.4011, 81.69074
859.8832, 80.90825
860.3654, 80.26951
860.8475, 79.81645
861.3296, 79.66561
861.8117, 80.24731
862.2938, 80.78484
862.7759, 80.82035
863.2581, 80.43042
863.7402, 80.18058
864.2223, 80.08794
864.7044, 80.09068
865.1865, 80.22266
865.6686, 80.39057
866.1508, 80.33862
866.6329, 80.09840
867.1150, 79.81002
867.5971, 79.50906
868.0792, 79.21760
868.5613, 78.90306
869.0435, 78.60352
869.5256, 78.45259
870.0077, 78.47627
870.4898, 78.61349
870.9719, 78.90202
871.4540, 79.25228
871.9362, 79.49104
872.4183, 79.61870
872.9004, 79.59655
873.3825, 79.29073
873.8646, 79.09311
874.3467, 79.65554
874.8289, 80.49666
875.3110, 80.87940
875.7931, 80.22655
876.2752, 79.58234
876.7573, 78.97823
877.2394, 78.48263
877.7216, 78.23439
878.2037, 78.25785
878.6858, 78.03099
879.1679, 77.41527
879.6500, 76.93456
880.1321, 77.50963
880.6143, 78.44131
881.0964, 78.62558
881.5785, 77.69525
882.0606, 76.80097
882.5427, 76.18343
883.0248, 75.88677
883.5070, 75.97414
883.9891, 76.52269
884.4712, 77.02312
884.9533, 77.49599
885.4354, 77.79269
885.9175, 77.63156
886.3997, 77.25853
886.8818, 77.20112
887.3639, 77.46017
887.8460, 77.76229
888.3281, 78.22942
888.8102, 78.45089
889.2924, 77.99833
889.7745, 76.94160
890.2566, 76.36561
890.7387, 76.37798
891.2208, 76.57727
891.7029, 76.90073
892.1851, 77.22816
892.6672, 77.15966
893.1493, 76.78873
893.6314, 76.51940
894.1135, 76.71620
894.5956, 76.91116
895.0778, 76.75232
895.5599, 76.39536
896.0420, 76.26027
896.5241, 76.51026
897.0062, 76.67593
897.4883, 76.66492
897.9705, 76.55871
898.4526, 76.45139
898.9347, 76.36765
899.4168, 76.43517
899.8989, 76.71850
900.3810, 77.06230
900.8632, 77.59041
901.3453, 77.99388
901.8274, 77.89549
902.3095, 76.74908
902.7916, 75.97341
903.2737, 75.69502
903.7559, 75.60828
904.2380, 75.43501
904.7201, 75.19195
905.2022, 75.02762
905.6843, 74.94971
906.1664, 75.04192
906.6486, 75.67491
907.1307, 76.30223
907.6128, 76.32903
908.0949, 75.66127
908.5770, 75.17233
909.0591, 74.95990
909.5413, 74.98962
910.0234, 75.37668
910.5055, 76.00878
910.9876, 76.14831
911.4697, 75.81377
911.9518, 75.34645
912.4340, 74.86397
912.9161, 74.39581
913.3982, 73.92979
913.8803, 73.50780
914.3624, 73.25286
914.8445, 73.24226
915.3267, 73.37520
915.8088, 73.76692
916.2909, 74.18822
916.7730, 74.10481
917.2551, 73.52895
917.7372, 73.04688
918.2194, 72.78218
918.7015, 72.67467
919.1836, 72.73205
919.6657, 72.87714
920.1478, 73.00915
920.6299, 73.12036
921.1121, 73.18456
921.5942, 73.23671
922.0763, 73.20754
922.5584, 72.98179
923.0405, 72.54615
923.5226, 72.32110
924.0048, 72.32044
924.4869, 72.50971
924.9690, 73.09041
925.4511, 73.70348
925.9332, 73.89034
926.4153, 73.64233
926.8975, 73.38580
927.3796, 73.18702
927.8617, 73.05603
928.3438, 73.00182
928.8259, 73.01688
929.3080, 73.14436
929.7902, 73.37881
930.2723, 73.34782
930.7544, 72.79241
931.2365, 72.00249
931.7186, 71.02788
932.2007, 70.11691
932.6829, 69.77972
933.1650, 70.81236
933.6471, 71.57146
934.1292, 71.78240
934.6113, 71.68147
935.0934, 71.53989
935.5756, 71.35815
936.0577, 71.28644
936.5398, 71.35857
937.0219, 71.45723
937.5040, 71.51978
937.9861, 71.51534
938.4683, 71.34137
938.9504, 70.89665
939.4325, 70.76089
939.9146, 71.31184
940.3967, 71.81260
940.8788, 71.76161
941.3610, 71.23866
941.8431, 71.47242
942.3252, 72.42971
942.8073, 73.10883
943.2894, 72.47884
943.7715, 71.59463
944.2537, 71.43159
944.7358, 71.84801
945.2179, 72.24688
945.7000, 72.73975
946.1821, 72.81577
946.6642, 72.14753
947.1464, 71.23182
947.6285, 71.22615
948.1106, 72.00628
948.5927, 72.59618
949.0748, 72.65690
949.5569, 72.77789
950.0391, 73.68619
950.5212, 74.84738
951.0033, 75.62635
951.4854, 75.72163
951.9675, 75.85156
952.4496, 75.92831
952.9318, 76.21345
953.4139, 77.03798
953.8960, 78.28270
954.3781, 79.18531
954.8602, 79.75103
955.3423, 80.42214
955.8245, 81.74113
956.3066, 83.05234
956.7887, 83.67958
957.2708, 83.76753
957.7529, 84.60861
958.2350, 86.75837
958.7172, 88.38338
959.1993, 88.74451
959.6814, 88.63896
960.1635, 90.01361
960.6456, 92.39633
961.1277, 94.19640
961.6099, 94.49681
962.0920, 94.92732
962.5741, 96.53984
963.0562, 98.71482
963.5383, 100.7223
964.0204, 102.4799
964.5026, 104.2835
964.9847, 106.1539
965.4668, 107.9450
965.9489, 109.7370
966.4310, 111.2697
966.9131, 111.8131
967.3953, 111.4119
967.8774, 111.2774
968.3595, 112.6675
968.8416, 113.8091
969.3237, 113.8081
969.8058, 112.8429
970.2880, 111.6171
970.7701, 110.1068
971.2522, 108.4574
971.7343, 106.7279
972.2164, 104.8345
972.6985, 102.3522
973.1807, 99.63878
973.6628, 97.42147
974.1449, 96.19540
974.6270, 94.95968
975.1091, 93.34389
975.5912, 91.78655
976.0734, 90.73378
976.5555, 90.20004
977.0376, 89.62982
977.5197, 89.00622
978.0018, 88.33047
978.4839, 87.24017
978.9661, 86.34727
979.4482, 86.60422
979.9303, 87.95297
980.4124, 88.43111
980.8945, 87.10050
981.3766, 85.92789
981.8588, 85.54828
982.3409, 85.64632
982.8230, 85.30463
983.3051, 84.61290
983.7872, 84.03801
984.2693, 83.73450
984.7515, 83.61757
985.2336, 83.95724
985.7157, 84.30283
986.1978, 83.99610
986.6799, 82.49867
987.1620, 81.55053
987.6442, 81.22829
988.1263, 81.24356
988.6084, 81.54607
989.0905, 81.94096
989.5726, 81.80281
990.0547, 81.16992
990.5369, 80.76775
991.0190, 81.25073
991.5011, 81.77293
991.9832, 81.88972
992.4653, 81.71924
992.9474, 81.60850
993.4296, 81.52739
993.9117, 81.84892
994.3938, 82.82405
994.8759, 83.93617
995.3580, 84.42867
995.8401, 84.59956
996.3223, 84.94926
996.8044, 85.67960
997.2865, 86.43651
997.7686, 87.24441
998.2507, 87.97474
998.7328, 88.48170
999.2150, 88.77678
999.6971, 89.16253
1000.179, 89.64286
1000.661, 90.39970
1001.143, 91.73518
1001.626, 93.24306
1002.108, 94.72346
1002.590, 96.12137
1003.072, 97.30385
1003.554, 98.18024
1004.036, 99.01185
1004.518, 99.83002
1005.000, 100.6483
1005.482, 101.4326
1005.965, 102.2293
1006.447, 103.2182
1006.929, 104.5678
1007.411, 105.5884
1007.893, 105.7415
1008.375, 105.5948
1008.857, 105.6051
1009.339, 105.8027
1009.822, 105.7366
1010.304, 105.3922
1010.786, 104.9553
1011.268, 104.5260
1011.750, 104.0925
1012.232, 103.6676
1012.714, 103.2248
1013.196, 102.6853
1013.678, 101.8195
1014.161, 101.1264
1014.643, 100.6483
1015.125, 100.4138
1015.607, 100.6289
1016.089, 101.1833
1016.571, 101.4240
1017.053, 101.2579
1017.535, 100.7420
1018.018, 99.54572
1018.500, 98.30720
1018.982, 97.49911
1019.464, 97.16131
1019.946, 97.11308
1020.428, 97.38327
1020.910, 97.87328
1021.392, 98.72411
1021.874, 99.56999
1022.357, 99.50672
1022.839, 98.88261
1023.321, 98.51513
1023.803, 98.92907
1024.285, 99.31052
1024.767, 99.54958
1025.249, 99.59790
1025.731, 99.28934
1026.214, 98.61493
1026.696, 98.34452
1027.178, 98.51931
1027.660, 98.88737
1028.142, 99.53214
1028.624, 100.0622
1029.106, 100.0469
1029.588, 99.53910
1030.070, 99.12450
1030.553, 98.87234
1031.035, 98.61967
1031.517, 98.26057
1031.999, 97.99355
1032.481, 98.27586
1032.963, 98.92456
1033.445, 99.42364
1033.927, 99.53723
1034.410, 99.91518
1034.892, 101.0340
1035.374, 102.3682
1035.856, 103.5446
1036.338, 104.5639
1036.820, 105.6900
1037.302, 106.9117
1037.784, 107.9380
1038.266, 108.3631
1038.749, 108.6821
1039.231, 109.4099
1039.713, 110.4172
1040.195, 111.3725
1040.677, 112.1131
1041.159, 113.0072
1041.641, 114.1772
1042.123, 115.3442
1042.605, 116.1417
1043.088, 116.6707
1043.570, 117.3056
1044.052, 118.0845
1044.534, 118.3997
1045.016, 117.1331
1045.498, 116.1372
1045.980, 116.7551
1046.462, 118.4504
1046.945, 118.5706
1047.427, 117.0571
1047.909, 115.6829
1048.391, 115.0389
1048.873, 114.7686
1049.355, 114.7473
1049.837, 114.7537
1050.319, 114.4704
1050.802, 113.6550
1051.284, 112.9293
1051.766, 112.2257
1052.248, 111.7987
1052.730, 111.9997
1053.212, 112.6003
1053.694, 112.8675
1054.176, 112.8628
1054.658, 112.8861
1055.141, 113.0337
1055.623, 113.2958
1056.105, 113.7409
1056.587, 114.2565
1057.069, 114.6496
1057.551, 114.9120
1058.033, 115.3458
1058.515, 116.0034
1058.997, 116.7164
1059.480, 117.6468
1059.962, 118.3446
1060.444, 118.1301
1060.926, 116.9599
1061.408, 116.5544
1061.890, 117.0509
1062.372, 118.1856
1062.854, 120.2667
1063.337, 122.3219
1063.819, 122.0803
1064.301, 120.4108
1064.783, 119.2257
1065.265, 119.2774
1065.747, 119.3603
1066.229, 119.0287
1066.711, 118.6921
1067.193, 118.7321
1067.676, 119.0996
1068.158, 118.7177
1068.640, 117.6260
1069.122, 116.4670
1069.604, 115.4572
1070.086, 114.6760
1070.568, 114.3538
1071.050, 114.2408
1071.532, 113.7544
1072.015, 112.6852
1072.497, 111.9222
1072.979, 111.5510
1073.461, 111.4724
1073.943, 111.7988
1074.425, 112.2306
1074.907, 112.2403
1075.389, 111.8156
1075.872, 111.6883
1076.354, 112.3783
1076.836, 112.9154
1077.318, 113.0639
1077.800, 112.8696
1078.282, 112.1881
1078.764, 111.2273
1079.246, 110.7653
1079.729, 111.0645
1080.211, 111.6491
1080.693, 112.6316
1081.175, 113.4792
1081.657, 113.7004
1082.139, 113.2975
1082.621, 113.2695
1083.103, 113.6172
1083.585, 114.3204
1084.068, 115.7090
1084.550, 117.0875
1085.032, 117.5232
1085.514, 117.5355
1085.996, 118.0841
1086.478, 119.7028
1086.960, 120.8452
1087.442, 121.3095
1087.924, 121.7803
1088.406, 123.0086
1088.889, 124.6390
1089.371, 126.0417
1089.853, 127.2240
1090.335, 128.4407
1090.817, 129.9150
1091.299, 131.2560
1091.781, 132.3096
1092.263, 133.2583
1092.746, 134.4477
1093.228, 135.8263
1093.710, 137.1514
1094.192, 138.3915
1094.674, 139.4717
1095.156, 140.4615
1095.638, 141.1571
1096.120, 141.2722
1096.603, 140.9256
1097.085, 141.0047
1097.567, 141.5308
1098.049, 141.8833
1098.531, 141.8100
1099.013, 141.5244
1099.495, 141.1144
1099.977, 140.6935
1100.459, 140.4351
1100.942, 140.5102
1101.424, 140.2468
1101.906, 139.5274
1102.388, 138.8526
1102.870, 138.5558
1103.352, 138.5141
1103.834, 138.5186
1104.316, 138.5739
1104.798, 138.6918
1105.281, 138.8885
1105.763, 139.1245
1106.245, 139.3046
1106.727, 139.6424
1107.209, 140.4013
1107.691, 141.5215
1108.173, 142.7114
1108.655, 143.9679
1109.138, 145.3660
1109.620, 147.1773
1110.102, 148.9007
1110.584, 150.0410
1111.066, 151.0635
1111.548, 153.1459
1112.030, 156.2809
1112.512, 159.1924
1112.995, 161.6532
1113.477, 164.0266
1113.959, 166.2239
1114.441, 168.7903
1114.923, 172.4664
1115.405, 177.2132
1115.887, 181.1461
1116.369, 184.0609
1116.851, 187.5615
1117.333, 192.4507
1117.816, 197.7036
1118.298, 201.5872
1118.780, 205.1038
1119.262, 209.8411
1119.744, 216.7986
1120.226, 222.8482
1120.708, 227.4941
1121.190, 232.1751
1121.673, 237.9255
1122.155, 244.2557
1122.637, 250.4016
1123.119, 256.2886
1123.601, 261.7082
1124.083, 266.0427
1124.565, 270.6613
1125.047, 275.9313
1125.530, 281.3450
1126.012, 286.7047
1126.494, 291.8874
1126.976, 295.9284
1127.458, 298.9512
1127.940, 302.2213
1128.422, 307.5216
1128.904, 312.0243
1129.386, 314.0734
1129.869, 314.8042
1130.351, 315.8426
1130.833, 317.1750
1131.315, 318.1459
1131.797, 318.6841
1132.279, 318.7719
1132.761, 318.5262
1133.243, 317.7167
1133.725, 316.0418
1134.208, 313.6125
1134.690, 310.9817
1135.172, 308.1902
1135.654, 304.6866
1136.136, 300.1266
1136.618, 295.4951
1137.100, 292.6105
1137.582, 289.7903
1138.065, 284.8575
1138.547, 277.1875
1139.029, 270.8146
1139.511, 266.1392
1139.993, 261.4511
1140.475, 255.9757
1140.957, 250.2852
1141.439, 245.1248
1141.922, 240.4035
1142.404, 235.8730
1142.886, 231.5686
1143.368, 227.3186
1143.850, 223.1594
1144.332, 219.0787
1144.814, 214.8507
1145.296, 210.8838
1145.778, 208.5089
1146.260, 207.2829
1146.743, 205.8399
1147.225, 203.1236
1147.707, 200.9253
1148.189, 199.7160
1148.671, 198.7341
1149.153, 197.1705
1149.635, 195.2352
1150.117, 193.8597
1150.600, 193.0596
1151.082, 192.7353
1151.564, 193.2959
1152.046, 193.7575
1152.528, 193.7858
1153.010, 193.5187
1153.492, 193.0942
1153.974, 192.5217
1154.457, 192.0114
1154.939, 191.5779
1155.421, 190.5625
1155.903, 188.0668
1156.385, 185.3083
1156.867, 183.1374
1157.349, 181.1953
1157.831, 178.6154
1158.313, 175.3761
1158.796, 172.0518
1159.278, 168.7240
1159.760, 165.2872
1160.242, 161.7477
1160.724, 157.9843
1161.206, 153.7416
1161.688, 149.1032
1162.170, 144.8293
1162.652, 140.9151
1163.135, 137.2560
1163.617, 133.8707
1164.099, 130.5366
1164.581, 126.8772
1165.063, 123.1817
1165.545, 119.6873
1166.027, 116.4236
1166.509, 113.7758
1166.992, 111.8624
1167.474, 109.8002
1167.956, 107.0790
1168.438, 104.3046
1168.920, 102.1430
1169.402, 100.4564
1169.884, 99.08717
1170.366, 98.26461
1170.849, 96.85031
1171.331, 94.61482
1171.813, 92.58653
1172.295, 91.41492
1172.777, 90.70657
1173.259, 89.93174
1173.741, 89.09485
1174.223, 88.22613
1174.705, 87.46485
1175.188, 86.35255
1175.670, 84.71874
1176.152, 83.15029
1176.634, 82.06227
1177.116, 81.34565
1177.598, 80.92683
1178.080, 80.66008
1178.562, 80.11497
1179.044, 78.69234
1179.527, 77.69067
1180.009, 77.29471
1180.491, 77.13616
1180.973, 76.96082
1181.455, 76.71173
1181.937, 76.18883
1182.419, 75.45103
1182.901, 74.79186
1183.384, 74.36647
1183.866, 73.97108
1184.348, 73.51352
1184.830, 73.17375
1185.312, 73.41528
1185.794, 73.90421
1186.276, 73.66643
1186.758, 72.68793
1187.240, 71.68295
1187.723, 70.67224
1188.205, 70.09982
1188.687, 70.17909
1189.169, 70.57454
1189.651, 70.94585
1190.133, 71.15788
1190.615, 70.64009
1191.097, 69.31413
1191.579, 68.09755
1192.062, 67.09898
1192.544, 66.70695
1193.026, 67.24850
1193.508, 68.23061
1193.990, 68.58146
1194.472, 68.44563
1194.954, 68.38845
1195.436, 68.56023
1195.919, 68.36452
1196.401, 66.93527
1196.883, 65.78805
1197.365, 65.65493
1197.847, 66.15755
1198.329, 66.23929
1198.811, 65.98777
1199.293, 65.75375
1199.776, 65.64421
1200.258, 65.45752
1200.740, 64.92159
1201.222, 64.46611
1201.704, 64.22608
1202.186, 64.26328
1202.668, 65.26350
1203.150, 66.83257
1203.632, 67.27675
1204.115, 65.63099
1204.597, 64.05123
1205.079, 63.55175
1205.561, 63.42942
1206.043, 63.42039
1206.525, 63.43992
1207.007, 62.87539
1207.489, 61.89447
1207.971, 61.23979
1208.454, 61.32109
1208.936, 61.54185
1209.418, 61.96819
1209.900, 62.12680
1210.382, 61.55176
1210.864, 60.40031
1211.346, 59.77274
1211.828, 59.60737
1212.311, 59.63531
1212.793, 59.80781
1213.275, 60.04362
1213.757, 60.45135
1214.239, 60.77644
1214.721, 60.76901
1215.203, 60.48451
1215.685, 60.36720
1216.167, 60.38284
1216.650, 60.34541
1217.132, 60.16697
1217.614, 59.90847
1218.096, 59.45323
1218.578, 59.06959
1219.060, 59.08809
1219.542, 59.41925
1220.024, 59.47622
1220.506, 59.26377
1220.989, 58.86884
1221.471, 57.97477
1221.953, 57.38475
1222.435, 57.41386
1222.917, 57.71469
1223.399, 58.07115
1223.881, 58.41014
1224.363, 58.22761
1224.846, 57.60932
1225.328, 57.16827
1225.810, 57.38750
1226.292, 57.58969
1226.774, 57.66606
1227.256, 57.58131
1227.738, 57.13168
1228.220, 56.49479
1228.703, 56.41236
1229.185, 56.83328
1229.667, 57.13427
1230.149, 56.77499
1230.631, 56.62886
1231.113, 56.96560
1231.595, 57.45988
1232.077, 57.82761
1232.559, 57.99294
1233.042, 57.53930
1233.524, 56.54906
1234.006, 55.87812
1234.488, 56.24014
1234.970, 56.45705
1235.452, 56.24422
1235.934, 55.91326
1236.416, 55.88430
1236.898, 56.05581
1237.381, 56.30928
1237.863, 56.59234
1238.345, 56.55364
1238.827, 55.64058
1239.309, 55.08875
1239.791, 55.18562
1240.273, 55.52701
1240.755, 55.62936
1241.238, 55.56388
1241.720, 55.43771
1242.202, 55.26627
1242.684, 55.08150
1243.166, 54.79736
1243.648, 54.69241
1244.130, 54.83758
1244.612, 55.12582
1245.094, 55.61285
1245.577, 56.04812
1246.059, 55.94381
1246.541, 55.30704
1247.023, 54.90865
1247.505, 54.89427
1247.987, 54.89365
1248.469, 54.84613
1248.951, 54.72806
1249.433, 54.52351
1249.916, 54.22713
1250.398, 53.71395
1250.880, 53.02779
1251.362, 52.79206
1251.844, 53.12973
1252.326, 53.41507
1252.808, 53.48815
1253.290, 53.57401
1253.773, 54.14643
1254.255, 54.68378
1254.737, 54.50574
1255.219, 53.68749
1255.701, 53.41068
1256.183, 53.74730
1256.665, 53.99472
1257.147, 53.98341
1257.630, 53.90734
1258.112, 53.91887
1258.594, 53.96538
1259.076, 54.00982
1259.558, 54.05010
1260.040, 54.09429
1260.522, 54.14155
1261.004, 54.14499
1261.486, 54.09179
1261.969, 54.01019
1262.451, 53.90236
1262.933, 53.79222
1263.415, 53.70823
1263.897, 53.63033
1264.379, 53.40192
1264.861, 53.07891
1265.343, 53.14857
1265.825, 53.76299
1266.308, 54.37305
1266.790, 54.80064
1267.272, 54.95882
1267.754, 54.77725
1268.236, 54.36280
1268.718, 53.88517
1269.200, 53.40984
1269.682, 53.22406
1270.165, 53.41127
1270.647, 53.57476
1271.129, 53.49829
1271.611, 53.44929
1272.093, 53.57896
1272.575, 53.69554
1273.057, 53.21699
1273.539, 52.47604
1274.021, 52.30625
1274.504, 52.90533
1274.986, 53.28596
1275.468, 53.14730
1275.950, 53.04131
1276.432, 53.14569
1276.914, 53.32973
1277.396, 53.43848
1277.878, 53.46867
1278.360, 53.38464
1278.843, 53.17647
1279.325, 53.05389
1279.807, 53.03362
1280.289, 53.07801
1280.771, 53.18727
1281.253, 53.32481
1281.735, 53.52457
1282.217, 53.67692
1282.700, 53.62271
1283.182, 53.36849
1283.664, 53.21498
1284.146, 53.17363
1284.628, 53.07200
1285.110, 52.83617
1285.592, 52.67543
1286.074, 52.81725
1286.557, 53.07064
1287.039, 53.41154
1287.521, 53.72496
1288.003, 53.45266
1288.485, 52.66194
1288.967, 52.14644
1289.449, 52.08427
1289.931, 52.27463
1290.413, 52.85767
1290.896, 53.37044
1291.378, 53.61310
1291.860, 53.62171
1292.342, 53.39362
1292.824, 53.01011
1293.306, 52.74257
1293.788, 52.64123
1294.270, 52.61323
1294.752, 52.85920
1295.235, 52.80059
1295.717, 52.12714
1296.199, 51.34090
1296.681, 51.44825
1297.163, 52.01368
1297.645, 52.18984
1298.127, 51.87043
1298.609, 51.86028
1299.092, 52.38704
1299.574, 52.84970
1300.056, 53.15272
1300.538, 53.21481
1301.020, 52.70771
1301.502, 52.06936
1301.984, 51.85552
1302.466, 52.06295
1302.948, 52.09400
1303.431, 51.89708
1303.913, 51.88981
1304.395, 52.15006
1304.877, 52.64524
##END=



