##NAMES=Yuksporite
##RRUFFID=R060818
##IDEAL CHEMISTRY=K_4_(Ca,Na)_14_(Sr,Ba)_2_([box],Mn^2+^,Fe^3+^)(Ti^4+^,Nb^5+^)_4_(O,OH)_4_(Si_6_O_17_)_2_(Si_2_O_7_)_3_(H_2_O,OH)_3_
##LOCALITY=Chibiny, Kola Peninsula, Russia
##OWNER=RRUFF
##SOURCE=Bob Jenkins
##DESCRIPTION=Aggregate of tan colored thin lamellae formed from parallel fibers
##STATUS=The identification of this mineral has been confirmed by X-ray diffraction.
##URL=rruff.info/R060818
169.2523, 6551.914
169.7344, 6528.428
170.2165, 6505.695
170.6986, 6489.891
171.1807, 6486.714
171.6628, 6493.305
172.1450, 6504.892
172.6271, 6528.951
173.1092, 6552.143
173.5913, 6556.328
174.0734, 6538.634
174.5555, 6522.649
175.0377, 6537.711
175.5198, 6571.877
176.0019, 6595.448
176.4840, 6580.431
176.9661, 6550.011
177.4482, 6538.661
177.9303, 6551.839
178.4125, 6575.111
178.8946, 6595.391
179.3767, 6613.097
179.8588, 6629.131
180.3409, 6645.056
180.8230, 6659.963
181.3052, 6671.265
181.7873, 6678.015
182.2694, 6682.556
182.7515, 6687.966
183.2336, 6694.110
183.7157, 6700.558
184.1979, 6706.746
184.6800, 6712.833
185.1621, 6719.436
185.6442, 6726.750
186.1263, 6734.449
186.6084, 6738.643
187.0906, 6739.188
187.5727, 6747.643
188.0548, 6731.798
188.5369, 6787.222
189.0190, 6821.676
189.5011, 6836.287
189.9833, 6771.625
190.4654, 6809.327
190.9475, 6806.006
191.4296, 6801.002
191.9117, 6853.112
192.3938, 6799.979
192.8760, 6851.185
193.3581, 6851.339
193.8402, 6893.993
194.3223, 6913.371
194.8044, 6904.571
195.2865, 6891.252
195.7687, 6903.884
196.2508, 6944.254
196.7329, 6980.251
197.2150, 7000.965
197.6971, 7007.666
198.1792, 7013.229
198.6613, 7017.437
199.1435, 7021.268
199.6256, 7025.325
200.1077, 7029.326
200.5898, 7035.728
201.0719, 7044.667
201.5540, 7055.984
202.0362, 7073.823
202.5183, 7099.646
203.0004, 7129.193
203.4825, 7156.220
203.9646, 7180.612
204.4467, 7201.834
204.9289, 7218.146
205.4110, 7228.560
205.8931, 7241.538
206.3752, 7258.821
206.8573, 7276.682
207.3394, 7288.716
207.8216, 7295.964
208.3037, 7294.378
208.7858, 7277.713
209.2679, 7240.111
209.7500, 7216.963
210.2321, 7209.676
210.7143, 7217.828
211.1964, 7245.351
211.6785, 7303.904
212.1606, 7355.372
212.6427, 7375.284
213.1248, 7353.131
213.6070, 7339.873
214.0891, 7342.105
214.5712, 7354.129
215.0533, 7354.817
215.5354, 7337.697
216.0175, 7320.932
216.4997, 7314.817
216.9818, 7319.993
217.4639, 7334.387
217.9460, 7364.202
218.4281, 7402.862
218.9102, 7418.879
219.3923, 7398.906
219.8745, 7376.849
220.3566, 7377.518
220.8387, 7413.323
221.3208, 7440.767
221.8029, 7454.557
222.2850, 7456.173
222.7672, 7454.699
223.2493, 7446.938
223.7314, 7441.074
224.2135, 7445.652
224.6956, 7472.029
225.1777, 7482.967
225.6599, 7466.040
226.1420, 7424.986
226.6241, 7406.677
227.1062, 7417.704
227.5883, 7443.619
228.0704, 7474.182
228.5526, 7515.200
229.0347, 7549.549
229.5168, 7575.012
229.9989, 7591.710
230.4810, 7599.737
230.9632, 7594.390
231.4453, 7585.423
231.9274, 7581.638
232.4095, 7586.125
232.8916, 7589.607
233.3737, 7588.114
233.8559, 7581.578
234.3380, 7588.321
234.8201, 7621.660
235.3022, 7655.541
235.7843, 7661.236
236.2664, 7612.210
236.7486, 7585.341
237.2307, 7604.632
237.7128, 7672.845
238.1949, 7716.292
238.6770, 7726.694
239.1591, 7720.246
239.6412, 7711.424
240.1234, 7693.627
240.6055, 7685.691
241.0876, 7696.007
241.5697, 7726.769
242.0518, 7741.975
242.5339, 7729.181
243.0161, 7711.681
243.4982, 7715.773
243.9803, 7752.710
244.4624, 7791.067
244.9445, 7828.186
245.4266, 7865.312
245.9088, 7879.430
246.3909, 7858.664
246.8730, 7824.786
247.3551, 7801.888
247.8372, 7792.713
248.3193, 7789.459
248.8015, 7792.773
249.2836, 7803.917
249.7657, 7808.858
250.2478, 7809.366
250.7299, 7802.644
251.2120, 7782.966
251.6942, 7738.849
252.1763, 7704.931
252.6584, 7690.964
253.1405, 7699.007
253.6226, 7708.596
254.1047, 7721.112
254.5869, 7734.373
255.0690, 7746.443
255.5511, 7759.058
256.0332, 7767.325
256.5153, 7771.139
256.9974, 7770.912
257.4796, 7756.938
257.9617, 7715.802
258.4438, 7674.354
258.9259, 7668.875
259.4080, 7714.956
259.8901, 7760.732
260.3723, 7793.738
260.8544, 7813.742
261.3365, 7824.510
261.8186, 7822.947
262.3007, 7815.748
262.7828, 7810.337
263.2650, 7805.792
263.7471, 7805.191
264.2292, 7810.702
264.7113, 7822.671
265.1934, 7830.804
265.6755, 7834.196
266.1577, 7834.900
266.6398, 7833.866
267.1219, 7828.809
267.6040, 7829.999
268.0861, 7841.998
268.5682, 7865.099
269.0503, 7884.035
269.5324, 7896.475
270.0146, 7908.732
270.4967, 7931.481
270.9788, 7970.580
271.4609, 7995.968
271.9430, 7994.849
272.4251, 7968.958
272.9073, 7953.723
273.3894, 7949.426
273.8715, 7955.915
274.3536, 7976.564
274.8357, 8014.837
275.3178, 8048.854
275.8000, 8072.063
276.2821, 8085.480
276.7642, 8099.390
277.2463, 8113.801
277.7284, 8128.736
278.2105, 8146.213
278.6927, 8166.990
279.1748, 8180.499
279.6569, 8178.258
280.1390, 8165.703
280.6211, 8181.090
281.1032, 8231.930
281.5854, 8282.580
282.0675, 8291.837
282.5496, 8257.995
283.0317, 8237.118
283.5138, 8245.185
283.9959, 8276.050
284.4781, 8309.519
284.9602, 8347.620
285.4423, 8377.336
285.9244, 8381.904
286.4065, 8363.265
286.8886, 8344.793
287.3708, 8331.086
287.8529, 8321.571
288.3350, 8316.651
288.8171, 8316.865
289.2992, 8314.825
289.7813, 8298.959
290.2635, 8272.779
290.7456, 8258.250
291.2277, 8263.486
291.7098, 8279.567
292.1919, 8289.526
292.6740, 8293.275
293.1562, 8290.662
293.6383, 8276.908
294.1204, 8255.723
294.6025, 8240.104
295.0846, 8231.996
295.5667, 8231.629
296.0489, 8247.829
296.5310, 8278.223
297.0131, 8297.545
297.4952, 8270.518
297.9773, 8219.563
298.4594, 8201.254
298.9416, 8236.972
299.4237, 8286.551
299.9058, 8290.648
300.3879, 8257.373
300.8700, 8229.692
301.3521, 8245.270
301.8343, 8282.587
302.3164, 8304.228
302.7985, 8299.867
303.2806, 8290.252
303.7627, 8298.938
304.2448, 8320.854
304.7270, 8340.184
305.2091, 8351.574
305.6912, 8353.221
306.1733, 8337.072
306.6554, 8295.336
307.1375, 8261.843
307.6197, 8280.574
308.1018, 8330.375
308.5839, 8362.490
309.0660, 8339.916
309.5481, 8296.282
310.0302, 8258.791
310.5123, 8230.214
310.9944, 8208.805
311.4766, 8191.096
311.9587, 8180.401
312.4408, 8181.983
312.9229, 8225.340
313.4050, 8262.535
313.8871, 8251.601
314.3693, 8184.457
314.8514, 8127.884
315.3335, 8123.880
315.8156, 8146.967
316.2977, 8165.263
316.7798, 8166.861
317.2620, 8162.385
317.7441, 8157.090
318.2262, 8151.385
318.7083, 8141.043
319.1904, 8115.584
319.6725, 8088.816
320.1547, 8073.725
320.6368, 8077.777
321.1189, 8089.765
321.6010, 8115.770
322.0831, 8153.958
322.5652, 8170.500
323.0474, 8123.926
323.5295, 8072.787
324.0116, 8057.749
324.4937, 8127.637
324.9758, 8186.393
325.4579, 8218.283
325.9401, 8225.384
326.4222, 8227.252
326.9043, 8217.216
327.3864, 8207.756
327.8685, 8205.378
328.3506, 8219.470
328.8328, 8229.126
329.3149, 8231.450
329.7970, 8228.888
330.2791, 8229.195
330.7612, 8224.273
331.2433, 8231.041
331.7255, 8258.577
332.2076, 8323.757
332.6897, 8376.147
333.1718, 8414.489
333.6539, 8440.597
334.1360, 8458.637
334.6182, 8469.247
335.1003, 8470.946
335.5824, 8457.338
336.0645, 8418.291
336.5466, 8413.039
337.0287, 8454.864
337.5109, 8516.749
337.9930, 8553.340
338.4751, 8557.271
338.9572, 8562.432
339.4393, 8580.823
339.9214, 8612.424
340.4036, 8639.754
340.8857, 8663.466
341.3678, 8681.956
341.8499, 8690.192
342.3320, 8687.141
342.8141, 8690.470
343.2963, 8705.512
343.7784, 8731.140
344.2605, 8764.025
344.7426, 8806.175
345.2247, 8846.222
345.7068, 8870.273
346.1890, 8880.932
346.6711, 8897.765
347.1532, 8927.505
347.6353, 8963.504
348.1174, 8989.358
348.5995, 9005.672
349.0817, 9026.005
349.5638, 9068.621
350.0459, 9122.812
350.5280, 9158.754
351.0101, 9165.901
351.4922, 9164.641
351.9743, 9180.275
352.4565, 9209.920
352.9386, 9242.050
353.4207, 9273.375
353.9028, 9302.029
354.3849, 9325.631
354.8670, 9344.055
355.3492, 9358.012
355.8313, 9367.302
356.3134, 9372.930
356.7955, 9376.724
357.2776, 9375.215
357.7597, 9375.374
358.2419, 9385.899
358.7240, 9408.251
359.2061, 9425.265
359.6882, 9417.797
360.1703, 9402.509
360.6524, 9352.928
361.1346, 9405.178
361.6167, 9436.458
362.0988, 9447.895
362.5809, 9380.057
363.0630, 9414.586
363.5451, 9408.092
364.0273, 9399.916
364.5094, 9448.853
364.9915, 9392.545
365.4736, 9414.886
365.9557, 9415.765
366.4378, 9434.740
366.9200, 9445.340
367.4021, 9443.021
367.8842, 9433.165
368.3663, 9417.883
368.8484, 9392.996
369.3305, 9369.168
369.8127, 9344.280
370.2948, 9321.079
370.7769, 9305.678
371.2590, 9298.756
371.7411, 9298.896
372.2232, 9308.806
372.7054, 9334.276
373.1875, 9342.752
373.6696, 9326.853
374.1517, 9300.235
374.6338, 9280.117
375.1159, 9268.790
375.5981, 9256.816
376.0802, 9238.606
376.5623, 9215.665
377.0444, 9214.446
377.5265, 9245.037
378.0086, 9270.652
378.4908, 9250.236
378.9729, 9181.455
379.4550, 9124.295
379.9371, 9092.206
380.4192, 9077.976
380.9013, 9062.178
381.3835, 9044.529
381.8656, 9033.776
382.3477, 9046.980
382.8298, 9074.804
383.3119, 9073.617
383.7940, 9029.883
384.2762, 8978.727
384.7583, 8974.699
385.2404, 9008.223
385.7225, 9035.821
386.2046, 9026.132
386.6867, 8998.728
387.1689, 8981.585
387.6510, 8976.519
388.1331, 8977.906
388.6152, 8988.061
389.0973, 9000.362
389.5794, 9003.365
390.0616, 8982.925
390.5437, 8958.914
391.0258, 8947.079
391.5079, 8946.634
391.9900, 8946.472
392.4721, 8944.850
392.9542, 8939.379
393.4363, 8927.233
393.9185, 8897.163
394.4006, 8874.837
394.8827, 8872.686
395.3648, 8885.855
395.8469, 8898.840
396.3290, 8923.452
396.8112, 8934.456
397.2933, 8913.855
397.7754, 8831.158
398.2575, 8780.525
398.7396, 8801.221
399.2217, 8851.376
399.7039, 8865.627
400.1860, 8799.862
400.6681, 8749.176
401.1502, 8740.296
401.6323, 8778.748
402.1144, 8805.713
402.5966, 8818.324
403.0787, 8823.074
403.5608, 8825.021
404.0429, 8823.088
404.5250, 8822.177
405.0071, 8825.359
405.4893, 8829.930
405.9714, 8818.256
406.4535, 8782.735
406.9356, 8758.439
407.4177, 8778.094
407.8998, 8842.531
408.3820, 8880.387
408.8641, 8881.380
409.3462, 8865.031
409.8283, 8863.792
410.3104, 8876.770
410.7925, 8890.442
411.2747, 8898.247
411.7568, 8902.082
412.2389, 8904.806
412.7210, 8905.972
413.2031, 8912.560
413.6852, 8938.132
414.1674, 8973.836
414.6495, 9000.296
415.1316, 9004.727
415.6137, 9002.438
416.0958, 9005.646
416.5779, 9014.506
417.0601, 9030.612
417.5422, 9067.160
418.0243, 9104.782
418.5064, 9123.040
418.9885, 9109.410
419.4706, 9095.521
419.9528, 9096.313
420.4349, 9107.410
420.9170, 9120.398
421.3991, 9135.302
421.8812, 9149.495
422.3633, 9161.896
422.8455, 9172.327
423.3276, 9182.351
423.8097, 9196.407
424.2918, 9208.409
424.7739, 9212.204
425.2560, 9201.749
425.7382, 9190.126
426.2203, 9174.120
426.7024, 9156.051
427.1845, 9154.952
427.6666, 9181.603
428.1487, 9210.561
428.6309, 9226.237
429.1130, 9222.629
429.5951, 9225.581
430.0772, 9238.054
430.5593, 9254.959
431.0414, 9267.000
431.5236, 9273.531
432.0057, 9278.449
432.4878, 9284.021
432.9699, 9289.682
433.4520, 9289.311
433.9341, 9281.896
434.4162, 9275.148
434.8983, 9278.958
435.3805, 9291.067
435.8626, 9302.569
436.3447, 9316.127
436.8268, 9322.062
437.3089, 9294.468
437.7910, 9240.263
438.2732, 9197.432
438.7553, 9201.017
439.2374, 9225.552
439.7195, 9240.020
440.2016, 9238.346
440.6837, 9232.129
441.1659, 9222.124
441.6480, 9214.003
442.1301, 9216.898
442.6122, 9245.796
443.0943, 9276.709
443.5764, 9301.208
444.0586, 9318.902
444.5407, 9323.298
445.0228, 9295.498
445.5049, 9263.961
445.9870, 9248.980
446.4691, 9279.559
446.9513, 9295.914
447.4334, 9283.716
447.9155, 9253.795
448.3976, 9236.867
448.8797, 9239.329
449.3618, 9246.854
449.8440, 9253.888
450.3261, 9258.673
450.8082, 9273.028
451.2903, 9303.821
451.7724, 9334.775
452.2545, 9345.459
452.7367, 9332.795
453.2188, 9313.934
453.7009, 9284.282
454.1830, 9254.411
454.6651, 9275.117
455.1472, 9350.407
455.6294, 9422.086
456.1115, 9441.918
456.5936, 9422.606
457.0757, 9411.086
457.5578, 9413.892
458.0399, 9423.215
458.5221, 9432.009
459.0042, 9440.124
459.4863, 9446.729
459.9684, 9445.832
460.4505, 9446.841
460.9326, 9466.259
461.4148, 9503.091
461.8969, 9527.538
462.3790, 9514.955
462.8611, 9485.187
463.3432, 9455.595
463.8253, 9417.717
464.3075, 9398.923
464.7896, 9425.960
465.2717, 9480.184
465.7538, 9512.733
466.2359, 9492.333
466.7180, 9467.379
467.2002, 9455.235
467.6823, 9459.229
468.1644, 9466.636
468.6465, 9483.781
469.1286, 9499.767
469.6107, 9502.069
470.0929, 9481.627
470.5750, 9468.217
471.0571, 9470.003
471.5392, 9481.678
472.0213, 9477.308
472.5034, 9451.908
472.9856, 9428.445
473.4677, 9422.998
473.9498, 9434.470
474.4319, 9443.209
474.9140, 9448.269
475.3961, 9451.317
475.8782, 9458.930
476.3604, 9468.300
476.8425, 9464.774
477.3246, 9432.758
477.8067, 9392.461
478.2888, 9375.970
478.7709, 9380.790
479.2531, 9385.805
479.7352, 9372.560
480.2173, 9353.731
480.6994, 9344.562
481.1815, 9353.037
481.6636, 9357.896
482.1458, 9340.163
482.6279, 9312.063
483.1100, 9294.030
483.5921, 9297.111
484.0742, 9306.032
484.5563, 9318.241
485.0385, 9333.566
485.5206, 9341.770
486.0027, 9338.755
486.4848, 9330.251
486.9669, 9319.835
487.4490, 9310.793
487.9312, 9293.604
488.4133, 9261.604
488.8954, 9224.879
489.3775, 9206.467
489.8596, 9210.796
490.3417, 9219.877
490.8239, 9228.941
491.3060, 9237.933
491.7881, 9243.366
492.2702, 9245.195
492.7523, 9244.613
493.2344, 9243.523
493.7166, 9241.130
494.1987, 9233.067
494.6808, 9215.852
495.1629, 9197.047
495.6450, 9186.555
496.1271, 9182.981
496.6093, 9181.444
497.0914, 9174.560
497.5735, 9171.310
498.0556, 9182.401
498.5377, 9209.005
499.0198, 9237.175
499.5020, 9262.119
499.9841, 9283.754
500.4662, 9301.785
500.9483, 9323.554
501.4304, 9333.337
501.9125, 9320.368
502.3947, 9291.773
502.8768, 9269.284
503.3589, 9247.813
503.8410, 9239.833
504.3231, 9252.458
504.8052, 9290.070
505.2874, 9321.608
505.7695, 9346.782
506.2516, 9365.740
506.7337, 9377.144
507.2158, 9379.613
507.6979, 9380.007
508.1801, 9374.979
508.6622, 9372.997
509.1443, 9404.822
509.6264, 9470.238
510.1085, 9523.314
510.5906, 9526.403
511.0728, 9499.485
511.5549, 9492.391
512.0370, 9507.688
512.5191, 9531.638
513.0012, 9554.396
513.4833, 9577.431
513.9655, 9603.507
514.4476, 9637.854
514.9297, 9669.133
515.4118, 9688.182
515.8939, 9698.095
516.3760, 9707.354
516.8582, 9715.430
517.3403, 9726.454
517.8224, 9745.274
518.3045, 9775.778
518.7866, 9795.299
519.2687, 9783.848
519.7509, 9770.921
520.2330, 9781.985
520.7151, 9837.255
521.1972, 9876.996
521.6793, 9890.482
522.1614, 9887.151
522.6436, 9896.907
523.1257, 9926.027
523.6078, 9943.232
524.0899, 9924.925
524.5720, 9877.245
525.0541, 9861.917
525.5363, 9881.672
526.0184, 9909.373
526.5005, 9917.941
526.9826, 9913.154
527.4647, 9912.498
527.9468, 9921.522
528.4290, 9932.467
528.9111, 9938.175
529.3932, 9939.416
529.8753, 9938.372
530.3574, 9936.097
530.8395, 9931.865
531.3217, 9924.378
531.8038, 9913.620
532.2859, 9903.519
532.7680, 9900.055
533.2501, 9895.088
533.7322, 9882.642
534.2144, 9841.137
534.6965, 9821.587
535.1786, 9840.853
535.6607, 9877.850
536.1428, 9891.308
536.6249, 9869.222
537.1070, 9849.756
537.5891, 9844.433
538.0712, 9851.893
538.5533, 9859.734
539.0355, 9868.840
539.5176, 9873.694
539.9997, 9865.077
540.4818, 9846.465
540.9639, 9839.935
541.4460, 9850.239
541.9282, 9863.370
542.4103, 9857.983
542.8924, 9841.466
543.3745, 9832.263
543.8566, 9848.803
544.3387, 9867.841
544.8209, 9866.082
545.3030, 9848.015
545.7851, 9836.914
546.2672, 9851.694
546.7493, 9871.115
547.2314, 9882.586
547.7136, 9883.641
548.1957, 9879.841
548.6778, 9864.700
549.1599, 9848.811
549.6420, 9843.703
550.1241, 9857.046
550.6063, 9868.038
551.0884, 9873.352
551.5705, 9874.544
552.0526, 9877.542
552.5347, 9883.186
553.0168, 9887.208
553.4990, 9887.482
553.9811, 9884.167
554.4632, 9877.388
554.9453, 9866.504
555.4274, 9857.449
555.9095, 9851.915
556.3917, 9853.077
556.8738, 9872.625
557.3559, 9925.369
557.8380, 9972.605
558.3201, 9970.107
558.8022, 9935.302
559.2844, 9907.267
559.7665, 9907.530
560.2486, 9914.823
560.7307, 9919.565
561.2128, 9921.276
561.6949, 9923.482
562.1771, 9915.688
562.6592, 9916.879
563.1413, 9940.654
563.6234, 10010.28
564.1055, 10050.97
564.5876, 10048.33
565.0698, 10028.95
565.5519, 10033.58
566.0340, 10068.55
566.5161, 10096.21
566.9982, 10106.30
567.4803, 10103.58
567.9625, 10099.20
568.4446, 10093.39
568.9267, 10094.16
569.4088, 10112.11
569.8909, 10138.58
570.3730, 10157.16
570.8552, 10166.20
571.3373, 10174.13
571.8194, 10188.13
572.3015, 10204.43
572.7836, 10218.43
573.2657, 10229.88
573.7479, 10237.51
574.2300, 10232.62
574.7121, 10223.97
575.1942, 10231.01
575.6763, 10277.01
576.1584, 10318.12
576.6406, 10341.80
577.1227, 10348.55
577.6048, 10359.63
578.0869, 10378.44
578.5690, 10395.84
579.0511, 10402.23
579.5333, 10396.06
580.0154, 10403.01
580.4975, 10424.69
580.9796, 10458.71
581.4617, 10516.12
581.9438, 10587.09
582.4260, 10628.23
582.9081, 10609.40
583.3902, 10572.23
583.8723, 10565.95
584.3544, 10583.70
584.8365, 10602.04
585.3187, 10608.59
585.8008, 10611.50
586.2829, 10618.16
586.7650, 10629.93
587.2471, 10633.49
587.7292, 10611.29
588.2114, 10588.54
588.6935, 10585.13
589.1756, 10631.12
589.6577, 10646.97
590.1398, 10621.11
590.6219, 10572.06
591.1041, 10527.65
591.5862, 10485.27
592.0683, 10459.36
592.5504, 10457.04
593.0325, 10472.65
593.5146, 10493.17
593.9968, 10518.38
594.4789, 10534.33
594.9610, 10523.90
595.4431, 10501.00
595.9252, 10490.79
596.4073, 10495.69
596.8895, 10499.72
597.3716, 10486.94
597.8537, 10469.04
598.3358, 10459.42
598.8179, 10471.63
599.3000, 10477.15
599.7822, 10461.40
600.2643, 10434.11
600.7464, 10413.89
601.2285, 10399.37
601.7106, 10395.90
602.1927, 10409.76
602.6749, 10437.48
603.1570, 10452.19
603.6391, 10449.89
604.1212, 10446.24
604.6033, 10449.00
605.0854, 10458.17
605.5676, 10478.41
606.0497, 10512.64
606.5318, 10539.77
607.0139, 10527.47
607.4960, 10492.69
607.9781, 10472.38
608.4603, 10480.65
608.9424, 10496.63
609.4245, 10508.20
609.9066, 10515.10
610.3887, 10516.56
610.8708, 10502.78
611.3530, 10493.03
611.8351, 10498.79
612.3172, 10518.78
612.7993, 10528.88
613.2814, 10520.52
613.7635, 10511.39
614.2457, 10508.71
614.7278, 10512.78
615.2099, 10524.96
615.6920, 10549.79
616.1741, 10571.84
616.6563, 10569.74
617.1384, 10546.56
617.6205, 10531.82
618.1026, 10530.70
618.5847, 10539.42
619.0668, 10560.39
619.5489, 10587.44
620.0310, 10604.77
620.5131, 10591.35
620.9952, 10577.12
621.4774, 10586.57
621.9595, 10615.08
622.4416, 10639.32
622.9237, 10640.54
623.4058, 10644.72
623.8879, 10667.36
624.3701, 10716.05
624.8522, 10750.91
625.3343, 10765.23
625.8164, 10773.47
626.2985, 10790.04
626.7806, 10819.38
627.2628, 10827.30
627.7449, 10803.98
628.2270, 10773.67
628.7091, 10777.07
629.1912, 10809.30
629.6733, 10841.90
630.1555, 10865.75
630.6376, 10883.57
631.1197, 10895.86
631.6018, 10904.16
632.0839, 10913.56
632.5660, 10925.54
633.0482, 10940.50
633.5303, 10957.59
634.0124, 10976.33
634.4945, 11002.81
634.9766, 11045.46
635.4587, 11090.71
635.9409, 11131.57
636.4230, 11171.57
636.9051, 11197.00
637.3872, 11203.29
637.8693, 11201.05
638.3514, 11200.88
638.8336, 11202.64
639.3157, 11214.03
639.7978, 11240.82
640.2799, 11270.79
640.7620, 11281.17
641.2441, 11276.43
641.7263, 11271.96
642.2084, 11282.71
642.6905, 11291.78
643.1726, 11281.31
643.6547, 11254.37
644.1368, 11231.18
644.6190, 11230.12
645.1011, 11226.43
645.5832, 11201.31
646.0653, 11140.91
646.5474, 11111.22
647.0295, 11129.60
647.5117, 11159.61
647.9938, 11166.28
648.4759, 11139.61
648.9580, 11147.03
649.4401, 11203.35
649.9222, 11273.08
650.4044, 11298.43
650.8865, 11287.71
651.3686, 11283.88
651.8507, 11305.05
652.3328, 11334.02
652.8149, 11349.93
653.2971, 11356.89
653.7792, 11367.25
654.2613, 11383.81
654.7434, 11408.35
655.2255, 11448.57
655.7076, 11504.28
656.1898, 11544.43
656.6719, 11544.27
657.1540, 11547.08
657.6361, 11575.91
658.1182, 11640.47
658.6003, 11680.52
659.0825, 11691.29
659.5646, 11687.01
660.0467, 11672.68
660.5288, 11651.48
661.0109, 11659.00
661.4930, 11708.29
661.9752, 11763.38
662.4573, 11777.39
662.9394, 11765.04
663.4215, 11756.73
663.9036, 11759.14
664.3857, 11775.00
664.8679, 11821.46
665.3500, 11884.30
665.8321, 11921.48
666.3142, 11905.93
666.7963, 11879.83
667.2784, 11852.73
667.7606, 11824.53
668.2427, 11801.83
668.7248, 11786.44
669.2069, 11770.74
669.6890, 11750.04
670.1711, 11724.16
670.6533, 11697.60
671.1354, 11670.51
671.6175, 11640.84
672.0996, 11608.69
672.5817, 11572.94
673.0638, 11528.95
673.5460, 11472.43
674.0281, 11420.54
674.5102, 11389.16
674.9923, 11367.82
675.4744, 11342.53
675.9565, 11312.01
676.4387, 11275.73
676.9208, 11224.96
677.4029, 11170.04
677.8850, 11134.63
678.3671, 11127.74
678.8492, 11117.22
679.3314, 11087.81
679.8135, 11047.89
680.2956, 11040.18
680.7777, 11064.46
681.2598, 11082.88
681.7419, 11058.33
682.2241, 11016.46
682.7062, 11005.73
683.1883, 11026.75
683.6704, 11044.57
684.1525, 11030.02
684.6346, 11007.49
685.1168, 10996.87
685.5989, 11005.79
686.0810, 11014.92
686.5631, 11022.55
687.0452, 11028.94
687.5273, 11035.54
688.0095, 11046.28
688.4916, 11043.95
688.9737, 11020.10
689.4558, 10993.29
689.9379, 11003.25
690.4200, 11045.12
690.9022, 11068.84
691.3843, 11046.81
691.8664, 11013.43
692.3485, 11015.64
692.8306, 11044.67
693.3127, 11075.34
693.7949, 11101.66
694.2770, 11120.18
694.7591, 11128.16
695.2412, 11125.98
695.7233, 11117.62
696.2054, 11090.25
696.6876, 11071.32
697.1697, 11073.13
697.6518, 11097.42
698.1339, 11120.14
698.6160, 11141.79
699.0981, 11161.44
699.5803, 11179.33
700.0624, 11194.87
700.5444, 11205.26
701.0266, 11210.12
701.5087, 11211.54
701.9908, 11206.87
702.4729, 11201.52
702.9550, 11203.69
703.4371, 11219.69
703.9193, 11234.36
704.4014, 11238.31
704.8835, 11238.30
705.3656, 11244.44
705.8477, 11258.36
706.3298, 11277.36
706.8120, 11307.07
707.2941, 11338.22
707.7762, 11346.46
708.2583, 11329.71
708.7404, 11312.85
709.2225, 11303.43
709.7047, 11301.28
710.1868, 11303.28
710.6689, 11311.25
711.1510, 11333.56
711.6331, 11398.72
712.1152, 11462.72
712.5974, 11483.63
713.0795, 11462.30
713.5616, 11446.65
714.0437, 11451.03
714.5258, 11464.51
715.0079, 11482.25
715.4901, 11504.63
715.9722, 11527.47
716.4543, 11551.62
716.9364, 11573.55
717.4185, 11591.30
717.9006, 11604.61
718.3828, 11606.77
718.8649, 11595.20
719.3470, 11585.12
719.8291, 11594.90
720.3112, 11615.86
720.7933, 11635.23
721.2755, 11652.63
721.7576, 11661.47
722.2397, 11640.92
722.7218, 11615.13
723.2039, 11619.88
723.6860, 11703.63
724.1682, 11755.46
724.6503, 11752.80
725.1324, 11717.56
725.6145, 11698.88
726.0966, 11699.53
726.5787, 11694.01
727.0609, 11666.99
727.5430, 11635.50
728.0251, 11644.33
728.5072, 11684.03
728.9893, 11713.50
729.4714, 11700.04
729.9536, 11675.05
730.4357, 11660.36
730.9178, 11656.12
731.3999, 11657.33
731.8820, 11661.91
732.3641, 11672.83
732.8463, 11694.19
733.3284, 11727.22
733.8105, 11748.33
734.2926, 11757.07
734.7747, 11754.10
735.2568, 11731.11
735.7390, 11693.68
736.2211, 11678.60
736.7032, 11688.08
737.1853, 11706.08
737.6674, 11722.89
738.1495, 11738.11
738.6317, 11750.42
739.1138, 11758.02
739.5959, 11769.87
740.0780, 11797.58
740.5601, 11827.48
741.0422, 11844.94
741.5244, 11836.40
742.0065, 11840.64
742.4886, 11861.91
742.9707, 11892.25
743.4528, 11924.64
743.9349, 11958.56
744.4171, 11979.43
744.8992, 11981.05
745.3813, 11973.15
745.8634, 11959.84
746.3455, 11947.72
746.8276, 11952.38
747.3098, 11996.57
747.7919, 12042.28
748.2740, 12072.54
748.7561, 12090.87
749.2382, 12106.27
749.7203, 12123.01
750.2025, 12134.21
750.6846, 12138.10
751.1667, 12136.23
751.6488, 12132.49
752.1309, 12126.81
752.6130, 12122.81
753.0952, 12114.22
753.5773, 12111.99
754.0594, 12149.95
754.5415, 12221.22
755.0236, 12283.85
755.5057, 12305.74
755.9879, 12315.40
756.4700, 12332.52
756.9521, 12358.12
757.4342, 12380.50
757.9163, 12406.53
758.3984, 12418.88
758.8806, 12402.62
759.3627, 12353.08
759.8448, 12343.08
760.3269, 12382.12
760.8090, 12422.51
761.2911, 12420.67
761.7733, 12390.69
762.2554, 12370.36
762.7375, 12362.95
763.2196, 12362.60
763.7017, 12370.09
764.1838, 12379.46
764.6660, 12384.73
765.1481, 12383.09
765.6302, 12381.17
766.1123, 12381.03
766.5944, 12379.50
767.0765, 12371.45
767.5587, 12351.04
768.0408, 12224.34
768.5229, 12272.43
769.0050, 12299.54
769.4871, 12306.81
769.9692, 12234.81
770.4514, 12265.17
770.9335, 12254.51
771.4156, 12242.17
771.8977, 12286.94
772.3798, 12226.47
772.8619, 12270.33
773.3441, 12272.55
773.8262, 12293.83
774.3083, 12327.22
774.7904, 12298.34
775.2725, 12276.85
775.7546, 12265.82
776.2368, 12250.12
776.7189, 12223.33
777.2010, 12196.23
777.6831, 12191.04
778.1652, 12204.44
778.6473, 12223.72
779.1295, 12248.97
779.6116, 12271.95
780.0937, 12287.99
780.5758, 12295.99
781.0579, 12293.71
781.5400, 12263.67
782.0222, 12241.96
782.5043, 12238.48
782.9863, 12249.43
783.4684, 12261.29
783.9506, 12273.16
784.4327, 12291.08
784.9148, 12323.35
785.3969, 12359.81
785.8790, 12371.93
786.3611, 12363.21
786.8433, 12350.12
787.3254, 12335.50
787.8075, 12326.02
788.2896, 12328.02
788.7717, 12340.42
789.2538, 12355.24
789.7360, 12371.02
790.2181, 12388.36
790.7002, 12408.84
791.1823, 12431.75
791.6644, 12444.89
792.1465, 12446.43
792.6287, 12447.96
793.1108, 12458.62
793.5929, 12473.46
794.0750, 12479.31
794.5571, 12476.79
795.0392, 12474.02
795.5214, 12474.12
796.0035, 12477.81
796.4856, 12489.63
796.9677, 12510.98
797.4498, 12519.08
797.9319, 12491.89
798.4141, 12476.02
798.8962, 12503.48
799.3783, 12575.92
799.8604, 12593.89
800.3425, 12551.44
800.8246, 12506.26
801.3068, 12501.24
801.7889, 12524.32
802.2710, 12562.34
802.7531, 12614.00
803.2352, 12645.92
803.7173, 12618.62
804.1995, 12580.28
804.6816, 12566.58
805.1637, 12589.85
805.6458, 12604.71
806.1279, 12611.96
806.6100, 12609.21
807.0922, 12588.24
807.5743, 12550.02
808.0564, 12538.10
808.5385, 12555.71
809.0206, 12570.72
809.5027, 12539.44
809.9849, 12493.42
810.4670, 12484.70
810.9491, 12525.21
811.4312, 12554.44
811.9133, 12535.02
812.3954, 12503.45
812.8776, 12486.48
813.3597, 12488.21
813.8418, 12494.85
814.3239, 12512.06
814.8060, 12521.57
815.2881, 12494.81
815.7703, 12442.76
816.2524, 12426.01
816.7345, 12452.54
817.2166, 12483.28
817.6987, 12488.61
818.1808, 12478.08
818.6630, 12459.14
819.1451, 12427.18
819.6272, 12406.95
820.1093, 12414.57
820.5914, 12428.11
821.0735, 12431.87
821.5557, 12422.71
822.0378, 12419.11
822.5199, 12421.92
823.0020, 12428.92
823.4841, 12439.10
823.9662, 12451.44
824.4484, 12464.93
824.9305, 12480.03
825.4126, 12491.09
825.8947, 12491.31
826.3768, 12487.17
826.8589, 12483.43
827.3411, 12474.44
827.8232, 12481.67
828.3053, 12517.68
828.7874, 12553.03
829.2695, 12554.02
829.7516, 12521.52
830.2338, 12508.57
830.7159, 12520.50
831.1980, 12541.41
831.6801, 12561.03
832.1622, 12577.64
832.6443, 12586.05
833.1265, 12581.40
833.6086, 12585.34
834.0907, 12617.66
834.5728, 12653.53
835.0549, 12672.67
835.5370, 12668.13
836.0192, 12664.63
836.5013, 12658.64
836.9834, 12663.25
837.4655, 12702.07
837.9476, 12762.72
838.4297, 12804.69
838.9119, 12822.97
839.3940, 12828.04
839.8761, 12817.16
840.3582, 12803.45
840.8403, 12797.32
841.3224, 12796.07
841.8046, 12818.96
842.2867, 12887.94
842.7688, 12954.71
843.2509, 12971.03
843.7330, 12933.09
844.2151, 12938.24
844.6973, 12994.70
845.1794, 13059.31
845.6615, 13088.40
846.1436, 13101.38
846.6257, 13130.33
847.1078, 13183.04
847.5900, 13222.54
848.0721, 13218.33
848.5542, 13206.57
849.0363, 13213.91
849.5184, 13245.47
850.0005, 13274.73
850.4827, 13302.64
850.9648, 13326.31
851.4469, 13343.07
851.9290, 13353.90
852.4111, 13353.79
852.8932, 13342.79
853.3754, 13353.89
853.8575, 13440.48
854.3396, 13537.92
854.8217, 13591.81
855.3038, 13587.89
855.7859, 13591.29
856.2681, 13610.21
856.7502, 13631.16
857.2323, 13639.80
857.7144, 13637.29
858.1965, 13680.62
858.6786, 13771.77
859.1608, 13853.95
859.6429, 13869.71
860.1250, 13860.91
860.6071, 13878.00
861.0892, 13923.47
861.5714, 13972.32
862.0535, 14023.55
862.5356, 14068.43
863.0177, 14103.82
863.4998, 14129.56
863.9819, 14149.55
864.4641, 14163.28
864.9462, 14174.02
865.4282, 14183.85
865.9103, 14191.97
866.3925, 14194.08
866.8746, 14191.77
867.3567, 14194.30
867.8388, 14221.18
868.3209, 14241.68
868.8030, 14230.93
869.2852, 14192.17
869.7673, 14177.46
870.2494, 14195.87
870.7315, 14219.58
871.2136, 14238.45
871.6957, 14255.56
872.1779, 14285.69
872.6600, 14325.90
873.1421, 14356.33
873.6242, 14352.48
874.1063, 14346.43
874.5884, 14366.29
875.0706, 14405.19
875.5527, 14441.74
876.0348, 14466.83
876.5169, 14495.13
876.9990, 14535.49
877.4811, 14577.20
877.9633, 14580.41
878.4454, 14545.71
878.9275, 14536.91
879.4096, 14586.37
879.8917, 14654.99
880.3738, 14699.86
880.8560, 14727.42
881.3381, 14750.26
881.8202, 14774.77
882.3023, 14792.72
882.7844, 14787.82
883.2665, 14782.27
883.7487, 14816.88
884.2308, 14902.41
884.7129, 14960.11
885.1950, 14971.22
885.6771, 14964.70
886.1592, 14985.55
886.6414, 15018.44
887.1235, 15029.51
887.6056, 14996.96
888.0877, 14972.86
888.5698, 14998.90
889.0519, 15035.71
889.5341, 15039.31
890.0162, 14992.37
890.4983, 14958.37
890.9804, 14942.44
891.4625, 14929.08
891.9446, 14893.17
892.4268, 14846.21
892.9089, 14826.22
893.3910, 14840.33
893.8731, 14852.52
894.3552, 14840.37
894.8373, 14814.52
895.3195, 14784.52
895.8016, 14753.25
896.2837, 14705.07
896.7658, 14632.11
897.2479, 14557.21
897.7300, 14490.31
898.2122, 14434.24
898.6943, 14407.27
899.1764, 14408.32
899.6585, 14397.74
900.1406, 14335.31
900.6227, 14260.11
901.1049, 14203.32
901.5870, 14166.77
902.0691, 14132.14
902.5512, 14090.61
903.0333, 14060.96
903.5154, 14056.19
903.9976, 14067.67
904.4797, 14050.29
904.9618, 14005.75
905.4439, 13960.30
905.9260, 13929.21
906.4081, 13902.55
906.8903, 13865.21
907.3724, 13824.02
907.8545, 13798.77
908.3366, 13807.49
908.8187, 13817.78
909.3008, 13825.99
909.7830, 13830.73
910.2651, 13827.26
910.7472, 13815.77
911.2293, 13804.46
911.7114, 13795.47
912.1935, 13787.39
912.6757, 13777.55
913.1578, 13767.68
913.6399, 13760.67
914.1220, 13758.33
914.6041, 13756.86
915.0862, 13748.14
915.5684, 13746.34
916.0505, 13772.92
916.5326, 13831.57
917.0147, 13871.46
917.4968, 13888.46
917.9789, 13887.64
918.4611, 13862.99
918.9432, 13829.09
919.4253, 13803.80
919.9074, 13789.12
920.3895, 13788.46
920.8716, 13816.54
921.3538, 13846.28
921.8359, 13856.97
922.3180, 13845.75
922.8001, 13875.24
923.2822, 13949.95
923.7643, 14015.17
924.2465, 14014.35
924.7286, 13988.00
925.2107, 13997.30
925.6928, 14037.89
926.1749, 14066.49
926.6570, 14058.14
927.1392, 14043.33
927.6213, 14034.09
928.1034, 14028.24
928.5855, 14012.23
929.0676, 13984.30
929.5497, 13966.38
930.0319, 13968.43
930.5140, 13982.61
930.9961, 14001.14
931.4782, 14022.59
931.9603, 14042.73
932.4424, 14065.94
932.9246, 14080.82
933.4067, 14074.84
933.8888, 14064.29
934.3709, 14072.28
934.8530, 14101.50
935.3351, 14128.47
935.8173, 14150.63
936.2994, 14165.30
936.7815, 14162.69
937.2636, 14152.34
937.7457, 14149.61
938.2278, 14158.74
938.7100, 14169.73
939.1921, 14179.12
939.6742, 14189.21
940.1563, 14201.05
940.6384, 14214.33
941.1205, 14237.37
941.6027, 14272.81
942.0848, 14294.74
942.5669, 14260.15
943.0490, 14213.76
943.5311, 14231.03
944.0132, 14304.24
944.4954, 14349.77
944.9775, 14297.43
945.4596, 14255.71
945.9417, 14264.07
946.4238, 14312.38
946.9059, 14369.05
947.3881, 14436.30
947.8701, 14459.93
948.3522, 14399.11
948.8344, 14316.77
949.3165, 14287.68
949.7986, 14297.98
950.2807, 14321.83
950.7628, 14370.53
951.2449, 14404.27
951.7271, 14405.46
952.2092, 14399.15
952.6913, 14425.41
953.1734, 14485.67
953.6555, 14499.52
954.1376, 14450.98
954.6198, 14396.42
955.1019, 14395.25
955.5840, 14416.52
956.0661, 14420.95
956.5482, 14396.98
957.0303, 14393.30
957.5125, 14435.95
957.9946, 14479.12
958.4767, 14502.26
958.9588, 14506.24
959.4409, 14491.58
959.9230, 14459.44
960.4052, 14443.77
960.8873, 14487.58
961.3694, 14539.39
961.8515, 14548.56
962.3336, 14523.82
962.8157, 14503.53
963.2979, 14488.10
963.7800, 14489.43
964.2621, 14519.80
964.7442, 14557.83
965.2263, 14555.27
965.7084, 14517.72
966.1906, 14473.60
966.6727, 14425.00
967.1548, 14387.12
967.6369, 14382.05
968.1190, 14390.17
968.6011, 14388.31
969.0833, 14364.85
969.5654, 14349.02
970.0475, 14338.98
970.5296, 14340.00
971.0117, 14369.30
971.4938, 14413.46
971.9760, 14412.48
972.4581, 14366.54
972.9402, 14340.59
973.4223, 14406.52
973.9044, 14476.37
974.3865, 14488.04
974.8687, 14446.74
975.3508, 14427.40
975.8329, 14436.88
976.3150, 14442.90
976.7971, 14433.55
977.2792, 14413.83
977.7614, 14381.99
978.2435, 14347.42
978.7256, 14335.48
979.2077, 14385.55
979.6898, 14419.50
980.1719, 14395.60
980.6541, 14349.43
981.1362, 14322.50
981.6183, 14317.23
982.1004, 14318.87
982.5825, 14327.91
983.0646, 14335.41
983.5468, 14334.05
984.0289, 14324.67
984.5110, 14303.55
984.9931, 14269.43
985.4752, 14247.97
985.9573, 14268.88
986.4395, 14279.88
986.9216, 14253.82
987.4037, 14198.85
987.8858, 14173.28
988.3679, 14176.01
988.8500, 14181.46
989.3322, 14176.40
989.8143, 14168.69
990.2964, 14167.01
990.7785, 14168.12
991.2606, 14164.71
991.7427, 14149.45
992.2249, 14139.92
992.7070, 14139.86
993.1891, 14142.57
993.6712, 14134.47
994.1533, 14120.43
994.6354, 14122.46
995.1176, 14145.15
995.5997, 14172.17
996.0818, 14208.83
996.5639, 14232.58
997.0460, 14216.97
997.5281, 14157.17
998.0103, 14120.22
998.4924, 14110.76
998.9745, 14106.62
999.4566, 14096.24
999.9387, 14082.78
1000.421, 14065.23
1000.903, 14049.46
1001.385, 14055.31
1001.867, 14119.15
1002.349, 14173.63
1002.831, 14197.67
1003.314, 14198.58
1003.796, 14180.31
1004.278, 14140.94
1004.760, 14110.16
1005.242, 14092.45
1005.724, 14082.94
1006.206, 14085.64
1006.688, 14088.63
1007.170, 14070.06
1007.653, 14017.02
1008.135, 14003.03
1008.617, 14061.32
1009.099, 14119.17
1009.581, 14141.24
1010.063, 14132.35
1010.545, 14107.59
1011.027, 14070.81
1011.510, 14046.56
1011.992, 14055.53
1012.474, 14074.13
1012.956, 14100.33
1013.438, 14123.09
1013.920, 14114.94
1014.402, 14058.75
1014.884, 14024.91
1015.366, 14024.71
1015.849, 14039.76
1016.331, 14051.14
1016.813, 14059.41
1017.295, 14066.25
1017.777, 14072.45
1018.259, 14073.18
1018.741, 14061.05
1019.223, 14048.35
1019.706, 14038.70
1020.188, 14033.04
1020.670, 14048.79
1021.152, 14086.12
1021.634, 14112.44
1022.116, 14095.04
1022.598, 14074.25
1023.080, 14096.73
1023.562, 14145.31
1024.045, 14182.21
1024.527, 14198.72
1025.009, 14202.85
1025.491, 14189.92
1025.973, 14173.38
1026.455, 14164.20
1026.937, 14165.38
1027.419, 14200.17
1027.901, 14273.49
1028.384, 14318.42
1028.866, 14266.88
1029.348, 14198.02
1029.830, 14159.41
1030.312, 14150.30
1030.794, 14158.21
1031.276, 14187.53
1031.758, 14199.99
1032.240, 14164.64
1032.723, 14123.29
1033.205, 14138.87
1033.687, 14190.28
1034.169, 14237.00
1034.651, 14268.08
1035.133, 14289.14
1035.615, 14296.61
1036.097, 14299.50
1036.580, 14306.44
1037.062, 14316.51
1037.544, 14324.95
1038.026, 14331.21
1038.508, 14341.54
1038.990, 14362.84
1039.472, 14387.54
1039.954, 14415.15
1040.437, 14443.25
1040.919, 14454.24
1041.401, 14446.61
1041.883, 14430.37
1042.365, 14407.01
1042.847, 14380.51
1043.329, 14345.86
1043.811, 14315.52
1044.293, 14316.15
1044.776, 14380.92
1045.258, 14416.87
1045.740, 14387.37
1046.222, 14347.67
1046.704, 14341.42
1047.186, 14365.44
1047.668, 14358.79
1048.150, 14323.82
1048.632, 14300.47
1049.115, 14315.87
1049.597, 14351.63
1050.079, 14418.64
1050.561, 14496.29
1051.043, 14512.93
1051.525, 14445.50
1052.007, 14393.06
1052.489, 14372.31
1052.972, 14376.79
1053.454, 14413.87
1053.936, 14464.10
1054.418, 14492.31
1054.900, 14486.75
1055.382, 14484.70
1055.864, 14491.45
1056.346, 14509.56
1056.828, 14551.75
1057.311, 14607.46
1057.793, 14597.33
1058.275, 14530.27
1058.757, 14478.29
1059.239, 14500.37
1059.721, 14524.86
1060.203, 14494.70
1060.685, 14442.37
1061.167, 14426.75
1061.650, 14462.97
1062.132, 14489.59
1062.614, 14502.52
1063.096, 14505.45
1063.578, 14491.32
1064.060, 14474.97
1064.542, 14482.68
1065.024, 14514.90
1065.507, 14539.09
1065.989, 14538.48
1066.471, 14537.28
1066.953, 14541.64
1067.435, 14549.93
1067.917, 14557.67
1068.399, 14565.34
1068.881, 14574.33
1069.364, 14583.53
1069.846, 14598.15
1070.328, 14629.41
1070.810, 14661.65
1071.292, 14678.09
1071.774, 14674.80
1072.256, 14678.90
1072.738, 14689.95
1073.220, 14708.95
1073.703, 14738.15
1074.185, 14773.93
1074.667, 14816.42
1075.149, 14862.04
1075.631, 14898.87
1076.113, 14929.08
1076.595, 14939.94
1077.077, 14920.51
1077.559, 14899.53
1078.042, 14920.20
1078.524, 14971.04
1079.006, 15023.50
1079.488, 15074.14
1079.970, 15116.41
1080.452, 15137.25
1080.934, 15159.57
1081.416, 15196.15
1081.898, 15243.92
1082.381, 15291.91
1082.863, 15339.32
1083.345, 15373.66
1083.827, 15387.46
1084.309, 15390.93
1084.791, 15382.88
1085.273, 15374.54
1085.755, 15384.51
1086.238, 15431.20
1086.720, 15440.71
1087.202, 15403.63
1087.684, 15364.25
1088.166, 15370.52
1088.648, 15389.99
1089.130, 15353.31
1089.612, 15235.50
1090.094, 15271.00
1090.577, 15285.52
1091.059, 15280.21
1091.541, 15195.63
1092.023, 15213.42
1092.505, 15190.18
1092.987, 15165.26
1093.469, 15197.46
1093.951, 15124.41
1094.433, 15155.70
1094.916, 15145.31
1095.398, 15154.01
1095.880, 15121.43
1096.362, 15101.61
1096.844, 15123.07
1097.326, 15122.77
1097.808, 15141.27
1098.290, 15124.58
1098.773, 15094.69
1099.255, 15067.67
1099.737, 15046.21
1100.219, 15036.19
1100.701, 15049.95
1101.183, 15044.16
1101.665, 15014.39
1102.147, 14979.05
1102.630, 14945.53
1103.112, 14918.68
1103.594, 14911.47
1104.076, 14919.73
1104.558, 14927.96
1105.040, 14915.63
1105.522, 14925.04
1106.004, 14977.03
1106.486, 15035.53
1106.969, 15046.19
1107.451, 15017.69
1107.933, 14988.92
1108.415, 14964.55
1108.897, 14942.08
1109.379, 14907.81
1109.861, 14888.56
1110.343, 14910.82
1110.825, 14960.26
1111.308, 14985.25
1111.790, 14985.81
1112.272, 14957.11
1112.754, 14887.45
1113.236, 14816.73
1113.718, 14774.69
1114.200, 14757.92
1114.682, 14769.83
1115.165, 14820.80
1115.647, 14839.74
1116.129, 14818.67
1116.611, 14796.25
1117.093, 14797.18
1117.575, 14808.21
1118.057, 14810.37
1118.539, 14805.28
1119.021, 14796.70
1119.504, 14781.37
1119.986, 14770.57
1120.468, 14768.86
1120.950, 14765.75
1121.432, 14748.78
1121.914, 14722.37
1122.396, 14691.69
1122.878, 14660.17
1123.360, 14653.52
1123.843, 14713.38
1124.325, 14766.49
1124.807, 14785.88
1125.289, 14783.95
1125.771, 14783.21
1126.253, 14783.50
1126.735, 14782.86
1127.217, 14779.25
1127.700, 14784.76
1128.182, 14822.11
1128.664, 14859.65
1129.146, 14866.20
1129.628, 14846.50
1130.110, 14856.74
1130.592, 14898.81
1131.074, 14931.66
1131.557, 14939.33
1132.039, 14932.23
1132.521, 14917.98
1133.003, 14897.99
1133.485, 14871.71
1133.967, 14830.92
1134.449, 14814.80
1134.931, 14827.23
1135.413, 14850.62
1135.896, 14881.88
1136.378, 14911.67
1136.860, 14922.03
1137.342, 14918.87
1137.824, 14918.02
1138.306, 14929.04
1138.788, 14934.29
1139.270, 14930.71
1139.752, 14923.14
1140.235, 14912.86
1140.717, 14902.88
1141.199, 14903.58
1141.681, 14913.98
1142.163, 14921.06
1142.645, 14919.52
1143.127, 14911.94
1143.609, 14894.01
1144.092, 14876.74
1144.574, 14890.68
1145.056, 14926.87
1145.538, 14938.99
1146.020, 14917.37
1146.502, 14891.80
1146.984, 14868.31
1147.466, 14860.25
1147.948, 14880.25
1148.431, 14921.13
1148.913, 14939.92
1149.395, 14938.52
1149.877, 14949.48
1150.359, 14992.56
1150.841, 15029.61
1151.323, 15015.81
1151.805, 14991.93
1152.287, 15006.05
1152.770, 15065.42
1153.252, 15084.23
1153.734, 15059.47
1154.216, 15037.10
1154.698, 15054.55
1155.180, 15076.90
1155.662, 15066.21
1156.144, 15037.93
1156.626, 15022.63
1157.109, 15031.79
1157.591, 15026.29
1158.073, 15002.71
1158.555, 14978.10
1159.037, 14945.62
1159.519, 14934.89
1160.001, 15018.98
1160.483, 15166.75
1160.966, 15233.02
1161.448, 15150.18
1161.930, 15078.95
1162.412, 15037.74
1162.894, 15019.24
1163.376, 15023.03
1163.858, 15039.85
1164.340, 15056.52
1164.823, 15071.76
1165.305, 15078.44
1165.787, 15078.47
1166.269, 15061.75
1166.751, 15013.10
1167.233, 14965.91
1167.715, 15000.50
1168.197, 15085.37
1168.679, 15143.45
1169.161, 15156.99
1169.644, 15152.55
1170.126, 15119.40
1170.608, 15092.07
1171.090, 15083.99
1171.572, 15092.36
1172.054, 15111.75
1172.536, 15139.79
1173.018, 15169.49
1173.501, 15201.92
1173.983, 15227.98
1174.465, 15240.38
1174.947, 15248.58
1175.429, 15261.18
1175.911, 15276.39
1176.393, 15267.96
1176.875, 15241.63
1177.358, 15231.66
1177.840, 15283.06
1178.322, 15323.49
1178.804, 15307.37
1179.286, 15272.20
1179.768, 15254.89
1180.250, 15255.50
1180.732, 15268.14
1181.214, 15291.79
1181.697, 15311.17
1182.179, 15307.56
1182.661, 15305.63
1183.143, 15321.35
1183.625, 15348.05
1184.107, 15380.58
1184.589, 15420.39
1185.071, 15416.40
1185.553, 15361.38
1186.036, 15311.06
1186.518, 15331.64
1187.000, 15355.31
1187.482, 15307.81
1187.964, 15221.47
1188.446, 15222.27
1188.928, 15319.87
1189.410, 15385.34
1189.893, 15391.43
1190.375, 15377.26
1190.857, 15375.47
1191.339, 15373.88
1191.821, 15354.73
1192.303, 15320.79
1192.785, 15317.74
1193.267, 15349.73
1193.750, 15373.18
1194.232, 15371.41
1194.714, 15365.37
1195.196, 15375.25
1195.678, 15394.05
1196.160, 15418.37
1196.642, 15449.86
1197.124, 15454.40
1197.606, 15427.29
1198.089, 15407.94
1198.571, 15419.41
1199.053, 15438.15
1199.535, 15436.20
1200.017, 15424.79
1200.499, 15419.77
1200.981, 15424.56
1201.463, 15429.25
1201.945, 15433.26
1202.428, 15440.40
1202.910, 15458.28
1203.392, 15475.47
1203.874, 15476.90
1204.356, 15468.14
1204.838, 15459.47
1205.320, 15450.02
1205.802, 15445.20
1206.285, 15444.48
1206.767, 15450.84
1207.249, 15465.57
1207.731, 15489.30
1208.213, 15534.99
1208.695, 15589.95
1209.177, 15615.56
1209.659, 15597.16
1210.141, 15581.06
1210.624, 15569.16
1211.106, 15566.59
1211.588, 15589.19
1212.070, 15615.93
1212.552, 15613.89
1213.034, 15590.29
1213.516, 15589.46
1213.998, 15624.89
1214.480, 15651.30
1214.963, 15661.62
1215.445, 15666.37
1215.927, 15683.72
1216.409, 15698.48
1216.891, 15687.64
1217.373, 15652.56
1217.855, 15623.81
1218.337, 15600.80
1218.820, 15593.82
1219.302, 15607.84
1219.784, 15629.58
1220.266, 15649.42
1220.748, 15662.82
1221.230, 15656.08
1221.712, 15627.99
1222.194, 15630.96
1222.677, 15676.79
1223.159, 15715.42
1223.641, 15731.25
1224.123, 15736.32
1224.605, 15744.99
1225.087, 15753.31
1225.569, 15757.25
1226.051, 15756.05
1226.533, 15741.94
1227.016, 15706.42
1227.498, 15694.69
1227.980, 15730.47
1228.462, 15782.74
1228.944, 15818.26
1229.426, 15842.14
1229.908, 15862.59
1230.390, 15883.44
1230.872, 15879.54
1231.355, 15845.54
1231.837, 15817.75
1232.319, 15816.54
1232.801, 15825.08
1233.283, 15819.57
1233.765, 15812.23
1234.247, 15823.94
1234.729, 15862.96
1235.212, 15885.32
1235.694, 15888.31
1236.176, 15893.39
1236.658, 15916.60
1237.140, 15942.28
1237.622, 15957.33
1238.104, 15961.97
1238.586, 15953.48
1239.068, 15923.43
1239.551, 15923.13
1240.033, 15955.10
1240.515, 15993.19
1240.997, 16031.88
1241.479, 16059.36
1241.961, 16057.75
1242.443, 16041.06
1242.925, 16033.94
1243.407, 16040.26
1243.890, 16036.71
1244.372, 16022.04
1244.854, 16012.19
1245.336, 16013.22
1245.818, 16027.99
1246.300, 16074.93
1246.782, 16129.63
1247.264, 16147.97
1247.746, 16126.88
1248.229, 16093.63
1248.711, 16049.42
1249.193, 16016.45
1249.675, 16011.53
1250.157, 16021.44
1250.639, 16053.02
1251.121, 16087.54
1251.603, 16088.27
1252.086, 16055.80
1252.568, 16055.01
1253.050, 16090.12
1253.532, 16107.46
1254.014, 16036.97
1254.496, 15975.50
1254.978, 15985.61
1255.460, 16029.60
1255.943, 16043.85
1256.425, 16033.77
1256.907, 16058.87
1257.389, 16123.93
1257.871, 16169.86
1258.353, 16145.60
1258.835, 16110.97
1259.317, 16085.21
1259.799, 16069.44
1260.281, 16069.51
1260.764, 16082.06
1261.246, 16094.15
1261.728, 16104.60
1262.210, 16111.46
1262.692, 16091.09
1263.174, 16101.83
1263.656, 16172.13
1264.138, 16266.90
1264.621, 16345.16
1265.103, 16393.26
1265.585, 16352.42
1266.067, 16214.37
1266.549, 16115.60
1267.031, 16122.35
1267.513, 16142.38
1267.995, 16154.95
1268.478, 16165.10
1268.960, 16172.30
1269.442, 16186.48
1269.924, 16234.94
1270.406, 16323.58
1270.888, 16385.28
1271.370, 16406.97
1271.852, 16413.27
1272.334, 16409.29
1272.817, 16395.80
1273.299, 16359.92
1273.781, 16323.10
1274.263, 16320.58
1274.745, 16359.76
1275.227, 16380.96
1275.709, 16379.01
1276.191, 16378.15
1276.673, 16387.62
1277.156, 16396.56
1277.638, 16384.29
1278.120, 16370.37
1278.602, 16384.90
1279.084, 16427.66
1279.566, 16427.78
1280.048, 16380.50
1280.530, 16356.97
1281.013, 16384.83
1281.495, 16421.95
1281.977, 16432.50
1282.459, 16433.07
1282.941, 16433.47
1283.423, 16435.87
1283.905, 16464.65
1284.387, 16516.36
1284.870, 16537.52
1285.352, 16500.20
1285.834, 16469.62
1286.316, 16513.57
1286.798, 16548.97
1287.280, 16510.43
1287.762, 16425.41
1288.244, 16418.46
1288.726, 16472.37
1289.208, 16517.37
1289.691, 16531.73
1290.173, 16540.55
1290.655, 16553.48
1291.137, 16563.90
1291.619, 16566.41
1292.101, 16561.87
1292.583, 16559.22
1293.065, 16561.04
1293.548, 16571.99
1294.030, 16599.41
1294.512, 16608.20
1294.994, 16587.58
1295.476, 16564.50
1295.958, 16549.75
1296.440, 16543.62
1296.922, 16582.95
1297.405, 16647.37
1297.887, 16648.91
1298.369, 16590.39
1298.851, 16576.64
1299.333, 16617.70
1299.815, 16658.83
1300.297, 16681.72
1300.779, 16686.38
##END=



