##NAMES=Zanazziite
##RRUFFID=R050578
##IDEAL CHEMISTRY=Ca_2_Mg_5_Be_4_(PO_4_)_6_(OH)_4_&#183;6H_2_O
##LOCALITY=Lavra da Ilha pegmatite, Taquaral, Minas Gerais, Brazil
##OWNER=RRUFF
##SOURCE=University of Arizona Mineral Museum
##DESCRIPTION=Mass of pale green acicular crystals associated with eosphorite
##STATUS=The identification of this mineral has been confirmed by X-ray diffraction and chemical analysis
##URL=rruff.info/R050578
##MEASURED CHEMISTRY=Ca_2.00_Be_4.00_(Mg_2.48_Fe^2+^_1.80_Mn_0.33_Al_0.26_[box]_0.13_)_Σ=5_(P_1.00_O_4_)_6_(OH)_4_·6H_2_O ; Be not measured but estimated by difference and charge balance
92.06543, 2521.230
92.54755, 2505.527
93.02966, 2513.852
93.51178, 2531.388
93.99390, 2541.498
94.47601, 2551.673
94.95813, 2561.190
95.44025, 2564.477
95.92236, 2556.347
96.40448, 2534.943
96.88660, 2518.532
97.36871, 2512.183
97.85082, 2507.992
98.33294, 2500.846
98.81506, 2488.657
99.29717, 2469.678
99.77929, 2451.968
100.2614, 2436.059
100.7435, 2423.805
101.2256, 2416.525
101.7078, 2412.474
102.1899, 2408.205
102.6720, 2402.245
103.1541, 2396.670
103.6362, 2392.707
104.1183, 2390.210
104.6005, 2389.207
105.0826, 2390.539
105.5647, 2394.628
106.0468, 2396.963
106.5289, 2394.595
107.0110, 2390.562
107.4931, 2385.609
107.9753, 2379.984
108.4574, 2375.261
108.9395, 2374.886
109.4216, 2382.299
109.9037, 2388.746
110.3858, 2392.972
110.8680, 2395.896
111.3501, 2398.926
111.8322, 2402.945
112.3143, 2407.199
112.7964, 2406.688
113.2785, 2395.208
113.7607, 2385.915
114.2428, 2383.768
114.7249, 2386.835
115.2070, 2389.513
115.6891, 2387.397
116.1712, 2380.617
116.6534, 2376.701
117.1355, 2376.547
117.6176, 2378.380
118.0997, 2381.897
118.5818, 2387.236
119.0639, 2391.467
119.5461, 2390.308
120.0282, 2385.455
120.5103, 2381.899
120.9924, 2383.084
121.4745, 2386.520
121.9566, 2385.758
122.4388, 2377.325
122.9209, 2369.105
123.4030, 2366.477
123.8851, 2368.499
124.3672, 2371.939
124.8493, 2374.292
125.3315, 2375.408
125.8136, 2377.572
126.2957, 2384.106
126.7778, 2389.284
127.2599, 2389.358
127.7420, 2384.566
128.2242, 2378.835
128.7063, 2378.092
129.1884, 2387.147
129.6705, 2391.092
130.1526, 2385.945
130.6347, 2378.921
131.1169, 2375.793
131.5990, 2378.369
132.0811, 2383.921
132.5632, 2386.438
133.0453, 2381.042
133.5274, 2378.519
134.0096, 2382.285
134.4917, 2388.709
134.9738, 2392.394
135.4559, 2390.579
135.9380, 2385.015
136.4201, 2381.582
136.9023, 2379.610
137.3844, 2379.969
137.8665, 2385.789
138.3486, 2395.469
138.8307, 2401.252
139.3128, 2396.833
139.7950, 2386.143
140.2771, 2379.055
140.7592, 2377.421
141.2413, 2378.149
141.7234, 2378.277
142.2055, 2377.646
142.6877, 2377.219
143.1698, 2377.699
143.6519, 2378.626
144.1340, 2379.603
144.6161, 2380.745
145.0982, 2381.667
145.5803, 2381.079
146.0625, 2377.281
146.5446, 2374.732
147.0267, 2375.910
147.5088, 2379.053
147.9909, 2381.241
148.4730, 2379.978
148.9552, 2375.604
149.4373, 2375.055
149.9194, 2384.673
150.4015, 2392.504
150.8836, 2395.106
151.3657, 2393.259
151.8479, 2389.254
152.3300, 2384.615
152.8121, 2378.374
153.2942, 2377.861
153.7763, 2388.030
154.2584, 2398.321
154.7406, 2403.916
155.2227, 2404.285
155.7048, 2401.187
156.1869, 2395.856
156.6690, 2386.758
157.1511, 2382.118
157.6333, 2384.310
158.1154, 2389.485
158.5975, 2395.026
159.0796, 2400.444
159.5617, 2404.796
160.0438, 2406.082
160.5260, 2404.134
161.0081, 2403.123
161.4902, 2403.163
161.9723, 2404.871
162.4544, 2410.710
162.9365, 2423.633
163.4187, 2435.807
163.9008, 2436.535
164.3829, 2426.423
164.8650, 2417.377
165.3471, 2417.885
165.8292, 2426.296
166.3113, 2431.338
166.7935, 2427.085
167.2756, 2422.212
167.7577, 2423.916
168.2398, 2432.325
168.7219, 2442.030
169.2040, 2447.766
169.6862, 2448.939
170.1683, 2450.064
170.6504, 2454.013
171.1325, 2456.578
171.6146, 2454.281
172.0967, 2446.771
172.5789, 2437.736
173.0610, 2432.893
173.5431, 2435.052
174.0252, 2435.016
174.5073, 2431.453
174.9894, 2426.344
175.4716, 2420.272
175.9537, 2413.688
176.4358, 2407.826
176.9179, 2405.370
177.4000, 2410.134
177.8821, 2413.308
178.3643, 2414.109
178.8464, 2413.564
179.3285, 2412.928
179.8106, 2412.725
180.2927, 2412.197
180.7748, 2409.158
181.2570, 2398.171
181.7391, 2391.424
182.2212, 2393.390
182.7033, 2399.888
183.1854, 2404.594
183.6675, 2404.507
184.1497, 2401.059
184.6318, 2398.846
185.1139, 2399.816
185.5960, 2398.893
186.0781, 2392.338
186.5602, 2382.151
187.0423, 2374.115
187.5245, 2371.253
188.0066, 2372.170
188.4887, 2372.805
188.9708, 2372.463
189.4529, 2372.933
189.9350, 2376.788
190.4172, 2383.510
190.8993, 2387.552
191.3814, 2384.898
191.8635, 2378.738
192.3456, 2373.904
192.8277, 2371.364
193.3099, 2369.216
193.7920, 2364.789
194.2741, 2357.503
194.7562, 2352.276
195.2383, 2353.984
195.7204, 2357.567
196.2026, 2358.364
196.6847, 2354.483
197.1668, 2349.582
197.6489, 2349.763
198.1310, 2357.121
198.6131, 2363.688
199.0953, 2368.005
199.5774, 2370.273
200.0595, 2369.756
200.5416, 2365.916
201.0237, 2360.842
201.5058, 2359.721
201.9880, 2366.559
202.4701, 2370.026
202.9522, 2365.250
203.4343, 2357.838
203.9164, 2353.452
204.3985, 2354.689
204.8807, 2359.838
205.3628, 2363.850
205.8449, 2366.140
206.3270, 2367.835
206.8091, 2368.994
207.2912, 2369.677
207.7733, 2369.731
208.2555, 2369.054
208.7376, 2368.039
209.2197, 2368.160
209.7018, 2373.452
210.1839, 2375.273
210.6660, 2368.689
211.1482, 2358.958
211.6303, 2353.850
212.1124, 2357.626
212.5945, 2367.786
213.0766, 2374.221
213.5587, 2376.400
214.0409, 2375.970
214.5230, 2370.809
215.0051, 2363.435
215.4872, 2358.594
215.9693, 2359.064
216.4514, 2363.094
216.9336, 2363.932
217.4157, 2360.528
217.8978, 2356.207
218.3799, 2351.180
218.8620, 2345.968
219.3441, 2341.725
219.8263, 2338.887
220.3084, 2337.636
220.7905, 2338.307
221.2726, 2341.802
221.7547, 2345.394
222.2368, 2348.149
222.7190, 2350.011
223.2011, 2350.527
223.6832, 2348.782
224.1653, 2346.175
224.6474, 2345.731
225.1295, 2348.746
225.6117, 2350.835
226.0938, 2347.724
226.5759, 2340.163
227.0580, 2334.851
227.5401, 2336.369
228.0222, 2339.728
228.5043, 2338.428
228.9865, 2331.369
229.4686, 2322.862
229.9507, 2316.242
230.4328, 2311.509
230.9149, 2307.282
231.3970, 2302.398
231.8792, 2298.598
232.3613, 2297.592
232.8434, 2299.719
233.3255, 2303.024
233.8076, 2306.144
234.2897, 2309.188
234.7719, 2310.826
235.2540, 2309.405
235.7361, 2307.325
236.2182, 2305.879
236.7003, 2305.275
237.1824, 2305.317
237.6646, 2306.152
238.1467, 2308.099
238.6288, 2309.013
239.1109, 2308.216
239.5930, 2306.501
240.0751, 2303.314
240.5573, 2298.963
241.0394, 2295.436
241.5215, 2295.916
242.0036, 2302.109
242.4857, 2305.239
242.9678, 2302.164
243.4500, 2298.064
243.9321, 2295.027
244.4142, 2293.466
244.8963, 2292.959
245.3784, 2293.103
245.8605, 2293.958
246.3427, 2295.303
246.8248, 2297.768
247.3069, 2300.192
247.7890, 2302.073
248.2711, 2303.372
248.7532, 2304.345
249.2354, 2305.473
249.7175, 2307.297
250.1996, 2306.820
250.6817, 2300.889
251.1638, 2295.729
251.6459, 2295.165
252.1281, 2298.550
252.6102, 2302.249
253.0923, 2302.682
253.5744, 2299.270
254.0565, 2295.984
254.5386, 2292.568
255.0208, 2289.438
255.5029, 2286.687
255.9850, 2284.353
256.4671, 2282.443
256.9492, 2280.915
257.4313, 2279.723
257.9135, 2279.526
258.3956, 2282.214
258.8777, 2283.876
259.3598, 2281.057
259.8419, 2275.386
260.3240, 2272.327
260.8062, 2276.815
261.2883, 2288.758
261.7704, 2292.777
262.2525, 2283.633
262.7346, 2273.914
263.2167, 2268.364
263.6989, 2266.368
264.1810, 2265.704
264.6631, 2265.232
265.1452, 2264.776
265.6273, 2262.671
266.1094, 2255.661
266.5916, 2250.803
267.0737, 2251.863
267.5558, 2257.103
268.0379, 2262.627
268.5200, 2266.606
269.0021, 2268.975
269.4843, 2269.382
269.9664, 2267.257
270.4485, 2264.368
270.9306, 2261.577
271.4127, 2258.411
271.8948, 2253.094
272.3770, 2243.953
272.8591, 2233.832
273.3412, 2230.998
273.8233, 2238.924
274.3054, 2245.107
274.7875, 2244.577
275.2697, 2239.816
275.7518, 2234.932
276.2339, 2230.905
276.7160, 2228.491
277.1981, 2230.383
277.6802, 2237.712
278.1623, 2242.996
278.6444, 2242.766
279.1266, 2239.462
279.6087, 2237.302
280.0908, 2237.556
280.5729, 2238.439
281.0550, 2236.531
281.5371, 2231.605
282.0193, 2229.815
282.5014, 2237.073
282.9835, 2246.947
283.4656, 2248.966
283.9477, 2240.419
284.4298, 2229.506
284.9120, 2225.237
285.3941, 2226.662
285.8762, 2227.649
286.3583, 2225.991
286.8404, 2223.676
287.3225, 2223.644
287.8047, 2226.418
288.2868, 2228.867
288.7689, 2227.626
289.2510, 2223.849
289.7331, 2221.676
290.2152, 2223.798
290.6974, 2226.600
291.1795, 2225.738
291.6616, 2221.017
292.1437, 2216.715
292.6258, 2215.779
293.1079, 2217.127
293.5901, 2218.052
294.0722, 2218.356
294.5543, 2218.106
295.0364, 2216.778
295.5185, 2214.476
296.0006, 2213.427
296.4828, 2215.808
296.9649, 2219.355
297.4470, 2219.845
297.9291, 2215.829
298.4112, 2211.836
298.8933, 2211.555
299.3755, 2214.367
299.8576, 2216.533
300.3397, 2216.879
300.8218, 2215.891
301.3039, 2214.526
301.7860, 2212.861
302.2682, 2210.384
302.7503, 2206.063
303.2324, 2200.559
303.7145, 2195.559
304.1966, 2190.060
304.6787, 2187.665
305.1609, 2195.095
305.6430, 2210.986
306.1251, 2221.896
306.6072, 2217.669
307.0893, 2204.923
307.5714, 2198.468
308.0536, 2201.408
308.5357, 2206.510
309.0178, 2207.671
309.4999, 2206.104
309.9820, 2204.804
310.4641, 2205.063
310.9463, 2206.019
311.4284, 2206.553
311.9105, 2206.677
312.3926, 2206.148
312.8747, 2204.039
313.3568, 2201.289
313.8390, 2199.663
314.3211, 2200.103
314.8032, 2201.158
315.2853, 2201.295
315.7674, 2200.494
316.2495, 2199.691
316.7317, 2199.118
317.2138, 2198.917
317.6959, 2199.473
318.1780, 2201.298
318.6601, 2202.593
319.1422, 2201.350
319.6243, 2198.005
320.1064, 2195.646
320.5886, 2195.267
321.0707, 2196.301
321.5528, 2198.351
322.0349, 2201.578
322.5170, 2203.782
322.9991, 2203.446
323.4813, 2201.172
323.9634, 2198.463
324.4455, 2195.289
324.9276, 2192.420
325.4097, 2190.690
325.8918, 2189.943
326.3740, 2189.748
326.8561, 2190.731
327.3382, 2191.937
327.8203, 2191.779
328.3024, 2190.028
328.7845, 2187.506
329.2667, 2183.434
329.7488, 2179.061
330.2309, 2177.770
330.7130, 2184.141
331.1951, 2191.044
331.6772, 2189.625
332.1594, 2180.038
332.6415, 2172.691
333.1236, 2174.054
333.6057, 2180.938
334.0878, 2185.858
334.5699, 2187.913
335.0521, 2189.191
335.5342, 2191.542
336.0163, 2194.405
336.4984, 2195.160
336.9805, 2192.150
337.4626, 2187.649
337.9448, 2185.467
338.4269, 2185.942
338.9090, 2185.837
339.3911, 2182.174
339.8732, 2177.362
340.3553, 2177.063
340.8375, 2183.409
341.3196, 2190.145
341.8017, 2189.169
342.2838, 2181.311
342.7659, 2174.811
343.2480, 2171.049
343.7302, 2169.480
344.2123, 2170.778
344.6944, 2174.892
345.1765, 2177.749
345.6586, 2176.022
346.1407, 2170.160
346.6229, 2164.881
347.1050, 2158.579
347.5871, 2154.362
348.0692, 2155.269
348.5513, 2160.197
349.0334, 2165.290
349.5156, 2169.145
349.9977, 2171.324
350.4798, 2170.211
350.9619, 2163.783
351.4440, 2158.759
351.9261, 2157.780
352.4083, 2159.490
352.8904, 2161.753
353.3725, 2163.938
353.8546, 2166.518
354.3367, 2170.799
354.8188, 2177.973
355.3010, 2181.538
355.7831, 2177.298
356.2652, 2171.453
356.7473, 2170.150
357.2294, 2173.831
357.7115, 2177.927
358.1937, 2178.182
358.6758, 2174.379
359.1579, 2172.996
359.6400, 2175.339
360.1221, 2178.545
360.6042, 2182.606
361.0863, 2186.518
361.5685, 2187.508
362.0506, 2183.601
362.5327, 2176.372
363.0148, 2172.351
363.4969, 2173.130
363.9790, 2174.880
364.4612, 2178.416
364.9433, 2182.150
365.4254, 2183.542
365.9075, 2181.856
366.3896, 2179.458
366.8717, 2180.417
367.3539, 2187.994
367.8360, 2191.335
368.3181, 2184.677
368.8002, 2178.489
369.2823, 2181.517
369.7644, 2192.992
370.2466, 2204.930
370.7287, 2209.917
371.2108, 2207.451
371.6929, 2206.374
372.1750, 2208.428
372.6571, 2209.882
373.1393, 2208.724
373.6214, 2206.328
374.1035, 2205.253
374.5856, 2206.980
375.0677, 2210.558
375.5498, 2212.855
376.0320, 2212.356
376.5141, 2212.817
376.9962, 2216.266
377.4783, 2219.746
377.9604, 2220.152
378.4425, 2216.947
378.9247, 2212.623
379.4068, 2210.763
379.8889, 2212.394
380.3710, 2212.900
380.8531, 2210.428
381.3352, 2208.495
381.8174, 2210.077
382.2995, 2213.793
382.7816, 2215.253
383.2637, 2210.017
383.7458, 2199.647
384.2279, 2195.307
384.7101, 2200.677
385.1922, 2206.816
385.6743, 2212.617
386.1564, 2216.935
386.6385, 2217.973
387.1206, 2214.675
387.6028, 2209.617
388.0849, 2207.160
388.5670, 2208.066
389.0491, 2207.949
389.5312, 2204.861
390.0133, 2201.048
390.4955, 2196.769
390.9776, 2192.430
391.4597, 2190.953
391.9418, 2197.236
392.4239, 2209.391
392.9060, 2215.210
393.3882, 2210.027
393.8703, 2205.258
394.3524, 2210.989
394.8345, 2222.546
395.3166, 2229.688
395.7987, 2226.408
396.2809, 2218.583
396.7630, 2214.679
397.2451, 2215.013
397.7272, 2213.673
398.2093, 2205.554
398.6914, 2195.770
399.1736, 2193.038
399.6557, 2199.991
400.1378, 2206.179
400.6199, 2202.780
401.1020, 2193.793
401.5841, 2190.897
402.0662, 2198.039
402.5483, 2207.944
403.0305, 2212.448
403.5126, 2211.940
403.9947, 2209.472
404.4768, 2204.176
404.9589, 2198.062
405.4410, 2192.204
405.9232, 2186.949
406.4053, 2184.267
406.8874, 2186.461
407.3695, 2192.037
407.8516, 2193.244
408.3337, 2186.488
408.8159, 2180.194
409.2980, 2176.685
409.7801, 2175.373
410.2622, 2176.047
410.7443, 2178.725
411.2264, 2181.282
411.7086, 2180.104
412.1907, 2172.774
412.6728, 2167.616
413.1549, 2166.189
413.6370, 2165.607
414.1191, 2164.322
414.6013, 2162.076
415.0834, 2158.937
415.5655, 2154.862
416.0476, 2149.906
416.5297, 2145.370
417.0118, 2141.505
417.4940, 2137.802
417.9761, 2134.107
418.4582, 2130.546
418.9403, 2127.184
419.4224, 2124.050
419.9045, 2121.485
420.3867, 2120.586
420.8688, 2123.226
421.3509, 2122.469
421.8330, 2112.456
422.3151, 2103.915
422.7972, 2104.354
423.2794, 2112.165
423.7615, 2119.661
424.2436, 2120.333
424.7257, 2115.396
425.2078, 2113.302
425.6899, 2115.969
426.1721, 2118.147
426.6542, 2118.489
427.1363, 2117.162
427.6184, 2113.446
428.1005, 2106.476
428.5826, 2100.342
429.0648, 2101.670
429.5469, 2110.610
430.0290, 2115.992
430.5111, 2114.075
430.9932, 2109.104
431.4753, 2104.148
431.9575, 2099.401
432.4396, 2096.396
432.9217, 2096.517
433.4038, 2098.634
433.8859, 2100.931
434.3680, 2103.303
434.8502, 2106.172
435.3323, 2111.274
435.8144, 2116.608
436.2965, 2116.834
436.7786, 2107.956
437.2607, 2099.741
437.7429, 2097.988
438.2250, 2100.773
438.7071, 2104.652
439.1892, 2109.094
439.6713, 2111.504
440.1534, 2107.236
440.6356, 2094.014
441.1177, 2084.527
441.5998, 2081.039
442.0819, 2080.246
442.5640, 2080.929
443.0461, 2082.406
443.5282, 2083.141
444.0103, 2082.010
444.4925, 2079.396
444.9746, 2077.448
445.4567, 2076.144
445.9388, 2075.572
446.4209, 2076.844
446.9030, 2078.291
447.3852, 2077.795
447.8673, 2075.012
448.3494, 2071.916
448.8315, 2071.264
449.3136, 2073.829
449.7957, 2074.905
450.2779, 2073.835
450.7600, 2071.849
451.2421, 2068.679
451.7242, 2064.950
452.2063, 2061.562
452.6884, 2058.913
453.1706, 2057.191
453.6527, 2057.318
454.1348, 2060.226
454.6169, 2062.042
455.0990, 2060.090
455.5811, 2057.851
456.0633, 2058.344
456.5454, 2061.647
457.0275, 2064.315
457.5096, 2063.238
457.9917, 2059.442
458.4738, 2056.620
458.9560, 2055.258
459.4381, 2054.103
459.9202, 2051.635
460.4023, 2048.889
460.8844, 2048.131
461.3665, 2051.429
461.8487, 2054.368
462.3308, 2052.431
462.8129, 2047.141
463.2950, 2044.303
463.7771, 2046.352
464.2592, 2049.875
464.7414, 2049.805
465.2235, 2045.655
465.7056, 2041.730
466.1877, 2037.856
466.6698, 2034.837
467.1519, 2033.238
467.6341, 2033.090
468.1162, 2034.599
468.5983, 2038.217
469.0804, 2043.162
469.5625, 2045.656
470.0446, 2043.790
470.5268, 2041.856
471.0089, 2041.051
471.4910, 2039.816
471.9731, 2035.103
472.4552, 2027.221
472.9373, 2021.272
473.4195, 2023.685
473.9016, 2035.340
474.3837, 2043.256
474.8658, 2046.339
475.3479, 2046.390
475.8300, 2041.147
476.3122, 2034.034
476.7943, 2029.734
477.2764, 2030.291
477.7585, 2033.683
478.2406, 2038.198
478.7227, 2044.460
479.2049, 2045.702
479.6870, 2036.649
480.1691, 2026.265
480.6512, 2021.066
481.1333, 2020.410
481.6154, 2020.574
482.0976, 2021.159
482.5797, 2020.923
483.0618, 2016.296
483.5439, 2007.070
484.0260, 2001.358
484.5081, 2004.639
484.9902, 2012.940
485.4724, 2017.407
485.9545, 2016.754
486.4366, 2016.368
486.9187, 2019.918
487.4008, 2023.986
487.8829, 2022.762
488.3651, 2015.714
488.8472, 2009.042
489.3293, 2008.644
489.8114, 2014.440
490.2935, 2016.923
490.7756, 2014.475
491.2578, 2011.260
491.7399, 2008.015
492.2220, 2004.847
492.7041, 2001.421
493.1862, 1997.744
493.6683, 1994.962
494.1505, 1995.121
494.6326, 1999.359
495.1147, 2002.035
495.5968, 2002.262
496.0789, 2001.730
496.5610, 2001.030
497.0432, 2000.009
497.5253, 1998.174
498.0074, 1995.154
498.4895, 1991.579
498.9716, 1987.984
499.4537, 1983.884
499.9359, 1983.036
500.4180, 1989.243
500.9001, 1996.437
501.3822, 1999.810
501.8643, 1999.463
502.3464, 1997.528
502.8286, 1993.597
503.3107, 1989.319
503.7928, 1987.859
504.2749, 1989.311
504.7570, 1989.580
505.2391, 1985.779
505.7213, 1979.870
506.2034, 1977.211
506.6855, 1978.961
507.1676, 1980.753
507.6497, 1981.025
508.1318, 1980.951
508.6140, 1982.589
509.0961, 1985.844
509.5782, 1987.711
510.0603, 1985.220
510.5424, 1978.679
511.0245, 1974.498
511.5067, 1974.906
511.9888, 1974.999
512.4709, 1974.162
512.9530, 1972.510
513.4351, 1969.398
513.9172, 1965.005
514.3994, 1961.702
514.8815, 1963.545
515.3636, 1971.283
515.8457, 1973.978
516.3278, 1967.467
516.8099, 1961.378
517.2921, 1960.104
517.7742, 1961.624
518.2563, 1962.842
518.7384, 1962.729
519.2205, 1962.110
519.7026, 1961.531
520.1848, 1961.090
520.6669, 1961.894
521.1490, 1964.914
521.6311, 1967.705
522.1132, 1967.894
522.5953, 1965.741
523.0775, 1961.754
523.5596, 1952.963
524.0417, 1945.098
524.5238, 1942.470
525.0059, 1944.120
525.4880, 1947.669
525.9702, 1952.393
526.4523, 1956.957
526.9344, 1959.144
527.4165, 1958.483
527.8986, 1956.299
528.3807, 1951.782
528.8629, 1946.643
529.3450, 1940.381
529.8271, 1934.352
530.3092, 1931.650
530.7913, 1934.286
531.2734, 1939.769
531.7556, 1941.838
532.2377, 1939.214
532.7198, 1936.779
533.2019, 1934.081
533.6840, 1932.694
534.1661, 1934.937
534.6483, 1939.723
535.1304, 1942.547
535.6125, 1939.111
536.0946, 1933.223
536.5767, 1932.539
537.0588, 1937.345
537.5410, 1941.285
538.0231, 1942.282
538.5052, 1940.653
538.9873, 1936.119
539.4694, 1928.009
539.9515, 1922.215
540.4337, 1921.346
540.9158, 1922.880
541.3979, 1925.619
541.8800, 1928.772
542.3621, 1929.176
542.8442, 1924.189
543.3264, 1916.396
543.8085, 1914.664
544.2906, 1925.827
544.7726, 1933.753
545.2548, 1938.015
545.7369, 1939.198
546.2190, 1935.383
546.7011, 1928.396
547.1832, 1924.223
547.6653, 1928.500
548.1475, 1938.151
548.6296, 1939.946
549.1117, 1930.083
549.5938, 1922.388
550.0759, 1921.810
550.5580, 1924.342
551.0402, 1928.349
551.5223, 1933.381
552.0044, 1936.614
552.4865, 1934.696
552.9686, 1930.553
553.4507, 1929.352
553.9329, 1931.312
554.4150, 1934.781
554.8971, 1939.689
555.3792, 1944.905
555.8613, 1947.210
556.3434, 1945.471
556.8256, 1944.285
557.3077, 1945.726
557.7898, 1947.263
558.2719, 1945.591
558.7540, 1941.371
559.2361, 1938.717
559.7183, 1940.704
560.2004, 1946.070
560.6825, 1949.672
561.1646, 1951.942
561.6467, 1951.425
562.1288, 1945.254
562.6110, 1938.789
563.0931, 1935.932
563.5752, 1936.617
564.0573, 1938.216
564.5394, 1939.169
565.0215, 1939.601
565.5037, 1940.222
565.9858, 1941.357
566.4679, 1940.254
566.9500, 1933.312
567.4321, 1925.873
567.9142, 1925.634
568.3964, 1933.141
568.8785, 1939.714
569.3606, 1942.742
569.8427, 1943.256
570.3248, 1941.046
570.8069, 1936.921
571.2891, 1934.211
571.7712, 1934.889
572.2533, 1937.667
572.7354, 1939.386
573.2175, 1939.713
573.6996, 1939.451
574.1818, 1938.008
574.6639, 1936.529
575.1460, 1935.002
575.6281, 1934.030
576.1102, 1935.454
576.5923, 1940.971
577.0745, 1947.423
577.5566, 1946.605
578.0387, 1936.579
578.5208, 1930.065
579.0029, 1932.599
579.4850, 1936.182
579.9672, 1933.924
580.4493, 1927.214
580.9314, 1922.199
581.4135, 1921.688
581.8956, 1923.360
582.3777, 1926.239
582.8599, 1929.621
583.3420, 1930.472
583.8241, 1927.452
584.3062, 1923.020
584.7883, 1920.642
585.2704, 1921.080
585.7526, 1919.659
586.2347, 1912.832
586.7168, 1908.036
587.1989, 1910.036
587.6810, 1915.722
588.1631, 1920.564
588.6453, 1922.786
589.1274, 1922.560
589.6095, 1919.051
590.0916, 1911.554
590.5737, 1907.636
591.0558, 1910.270
591.5380, 1912.276
592.0201, 1909.559
592.5022, 1904.407
592.9843, 1900.093
593.4664, 1897.370
593.9485, 1895.740
594.4307, 1895.370
594.9128, 1895.769
595.3949, 1895.981
595.8770, 1895.889
596.3591, 1894.873
596.8412, 1891.942
597.3234, 1887.628
597.8055, 1885.899
598.2876, 1890.163
598.7697, 1892.112
599.2518, 1887.596
599.7339, 1881.982
600.2161, 1880.965
600.6982, 1884.557
601.1803, 1888.197
601.6624, 1887.832
602.1445, 1884.862
602.6266, 1886.615
603.1088, 1896.314
603.5909, 1902.245
604.0730, 1898.488
604.5551, 1891.841
605.0372, 1886.495
605.5193, 1882.728
606.0015, 1880.113
606.4836, 1879.798
606.9657, 1879.641
607.4478, 1876.204
607.9299, 1870.127
608.4120, 1865.337
608.8942, 1863.490
609.3763, 1863.378
609.8584, 1863.288
610.3405, 1863.335
610.8226, 1863.008
611.3047, 1860.712
611.7869, 1859.755
612.2690, 1863.827
612.7511, 1869.688
613.2332, 1871.427
613.7153, 1866.927
614.1974, 1860.545
614.6796, 1858.922
615.1617, 1862.427
615.6438, 1862.440
616.1259, 1856.295
616.6080, 1850.865
617.0901, 1849.943
617.5723, 1851.777
618.0544, 1854.648
618.5365, 1859.148
619.0186, 1861.369
619.5007, 1856.261
619.9828, 1848.514
620.4650, 1846.065
620.9471, 1849.509
621.4292, 1854.393
621.9113, 1858.136
622.3934, 1860.505
622.8755, 1860.554
623.3577, 1856.800
623.8398, 1852.710
624.3219, 1845.165
624.8040, 1840.023
625.2861, 1843.172
625.7682, 1852.328
626.2504, 1860.582
626.7325, 1864.132
627.2145, 1864.065
627.6967, 1861.154
628.1788, 1855.178
628.6609, 1851.969
629.1430, 1853.930
629.6251, 1856.933
630.1072, 1857.121
630.5894, 1855.201
631.0715, 1853.605
631.5536, 1853.155
632.0357, 1852.585
632.5178, 1851.099
632.9999, 1849.119
633.4821, 1846.908
633.9642, 1844.694
634.4463, 1843.620
634.9284, 1845.050
635.4105, 1848.727
635.8926, 1850.867
636.3748, 1851.882
636.8569, 1850.535
637.3390, 1843.586
637.8211, 1836.681
638.3032, 1835.875
638.7853, 1840.540
639.2675, 1843.222
639.7496, 1837.363
640.2317, 1827.914
640.7138, 1822.269
641.1959, 1820.371
641.6780, 1821.731
642.1602, 1827.350
642.6423, 1833.195
643.1244, 1833.809
643.6065, 1828.192
644.0886, 1822.704
644.5707, 1816.138
645.0529, 1811.040
645.5350, 1808.829
646.0171, 1808.564
646.4992, 1809.330
646.9813, 1810.668
647.4634, 1811.718
647.9456, 1811.850
648.4277, 1810.961
648.9098, 1806.960
649.3919, 1797.323
649.8740, 1791.279
650.3561, 1796.761
650.8383, 1804.924
651.3204, 1805.014
651.8025, 1796.064
652.2846, 1788.306
652.7667, 1786.140
653.2488, 1786.558
653.7310, 1787.659
654.2131, 1788.869
654.6952, 1788.913
655.1773, 1787.245
655.6594, 1784.354
656.1415, 1780.556
656.6237, 1774.879
657.1058, 1772.924
657.5879, 1780.040
658.0700, 1785.054
658.5521, 1782.499
659.0342, 1777.315
659.5164, 1776.154
659.9985, 1780.550
660.4806, 1785.694
660.9627, 1788.521
661.4448, 1789.036
661.9269, 1785.982
662.4091, 1779.278
662.8912, 1775.189
663.3733, 1777.688
663.8554, 1783.131
664.3375, 1784.279
664.8196, 1779.540
665.3018, 1774.919
665.7839, 1769.644
666.2660, 1765.401
666.7481, 1763.541
667.2302, 1763.225
667.7123, 1762.476
668.1945, 1760.639
668.6766, 1760.068
669.1587, 1765.578
669.6408, 1776.452
670.1229, 1781.055
670.6050, 1777.674
671.0872, 1772.043
671.5693, 1764.906
672.0514, 1758.362
672.5335, 1756.083
673.0156, 1758.855
673.4977, 1762.193
673.9799, 1765.995
674.4620, 1768.828
674.9441, 1769.466
675.4262, 1768.083
675.9083, 1764.761
676.3904, 1759.513
676.8726, 1754.477
677.3547, 1753.279
677.8368, 1756.455
678.3189, 1760.182
678.8010, 1766.692
679.2831, 1770.444
679.7653, 1767.100
680.2474, 1761.101
680.7295, 1758.556
681.2116, 1760.819
681.6937, 1761.423
682.1758, 1753.845
682.6580, 1744.385
683.1401, 1741.785
683.6222, 1745.398
684.1043, 1749.938
684.5864, 1753.236
685.0685, 1754.481
685.5507, 1751.599
686.0328, 1742.246
686.5149, 1738.156
686.9970, 1746.533
687.4791, 1752.101
687.9612, 1747.197
688.4434, 1738.505
688.9255, 1734.521
689.4076, 1737.177
689.8897, 1741.761
690.3718, 1746.145
690.8539, 1749.401
691.3361, 1748.308
691.8182, 1743.152
692.3003, 1741.188
692.7824, 1746.821
693.2645, 1753.603
693.7466, 1750.024
694.2288, 1731.123
694.7109, 1722.870
695.1930, 1735.468
695.6751, 1746.136
696.1572, 1745.419
696.6393, 1738.915
697.1215, 1733.536
697.6036, 1731.099
698.0857, 1730.135
698.5678, 1729.913
699.0499, 1730.057
699.5320, 1728.872
700.0142, 1726.216
700.4963, 1725.948
700.9784, 1730.740
701.4605, 1736.270
701.9426, 1735.891
702.4247, 1728.415
702.9069, 1724.572
703.3890, 1728.068
703.8711, 1731.116
704.3532, 1730.014
704.8353, 1727.163
705.3174, 1725.594
705.7996, 1725.890
706.2817, 1726.770
706.7638, 1727.303
707.2459, 1727.464
707.7280, 1726.620
708.2101, 1724.460
708.6923, 1724.774
709.1743, 1730.538
709.6564, 1736.235
710.1385, 1734.370
710.6207, 1725.780
711.1028, 1721.235
711.5849, 1724.742
712.0670, 1728.442
712.5491, 1729.420
713.0313, 1728.957
713.5134, 1728.630
713.9955, 1728.563
714.4776, 1727.755
714.9597, 1725.244
715.4418, 1721.823
715.9240, 1719.472
716.4061, 1718.188
716.8882, 1718.275
717.3703, 1720.814
717.8524, 1723.126
718.3345, 1723.049
718.8167, 1720.939
719.2988, 1717.714
719.7809, 1710.869
720.2630, 1706.909
720.7451, 1711.385
721.2272, 1717.521
721.7094, 1718.001
722.1915, 1713.272
722.6736, 1707.920
723.1557, 1704.461
723.6378, 1703.280
724.1199, 1706.378
724.6021, 1714.407
725.0842, 1718.304
725.5663, 1715.508
726.0484, 1711.909
726.5305, 1711.011
727.0126, 1711.767
727.4948, 1712.473
727.9769, 1713.915
728.4590, 1712.646
728.9411, 1703.489
729.4232, 1694.668
729.9053, 1693.953
730.3875, 1699.411
730.8696, 1705.872
731.3517, 1711.062
731.8338, 1713.959
732.3159, 1712.064
732.7980, 1705.399
733.2802, 1701.315
733.7623, 1700.324
734.2444, 1700.590
734.7265, 1702.411
735.2086, 1704.338
735.6907, 1704.404
736.1729, 1702.550
736.6550, 1699.849
737.1371, 1693.512
737.6192, 1689.454
738.1013, 1694.066
738.5834, 1702.249
739.0656, 1705.444
739.5477, 1701.879
740.0298, 1696.319
740.5119, 1693.030
740.9940, 1691.651
741.4761, 1690.820
741.9583, 1690.610
742.4404, 1690.264
742.9225, 1688.480
743.4046, 1688.042
743.8867, 1694.245
744.3688, 1705.207
744.8510, 1709.633
745.3331, 1700.977
745.8152, 1692.763
746.2973, 1690.270
746.7794, 1689.784
747.2615, 1687.122
747.7437, 1682.563
748.2258, 1679.236
748.7079, 1679.133
749.1900, 1680.972
749.6721, 1682.264
750.1542, 1683.053
750.6364, 1686.143
751.1185, 1693.363
751.6006, 1697.929
752.0827, 1694.292
752.5648, 1685.445
753.0469, 1679.398
753.5291, 1676.062
754.0112, 1675.316
754.4933, 1679.038
754.9754, 1683.473
755.4575, 1687.623
755.9396, 1690.396
756.4218, 1689.763
756.9039, 1685.224
757.3860, 1679.829
757.8681, 1676.270
758.3502, 1674.501
758.8323, 1674.692
759.3145, 1676.898
759.7966, 1679.955
760.2787, 1684.027
760.7608, 1687.470
761.2429, 1687.940
761.7250, 1685.121
762.2072, 1683.077
762.6893, 1683.156
763.1714, 1682.241
763.6535, 1678.429
764.1356, 1674.161
764.6177, 1670.861
765.0999, 1669.173
765.5820, 1670.490
766.0641, 1677.107
766.5462, 1684.263
767.0283, 1685.057
767.5104, 1680.974
767.9926, 1677.252
768.4747, 1674.734
768.9568, 1673.422
769.4389, 1673.313
769.9210, 1674.417
770.4031, 1677.071
770.8853, 1684.617
771.3674, 1687.109
771.8495, 1680.245
772.3316, 1673.205
772.8137, 1669.840
773.2958, 1668.814
773.7780, 1667.920
774.2601, 1666.662
774.7422, 1665.597
775.2243, 1665.684
775.7064, 1665.784
776.1885, 1663.514
776.6707, 1659.855
777.1528, 1658.440
777.6349, 1660.539
778.1170, 1664.687
778.5991, 1669.433
779.0812, 1674.686
779.5634, 1678.822
780.0455, 1683.562
780.5276, 1683.082
781.0097, 1669.828
781.4918, 1656.423
781.9739, 1653.883
782.4561, 1659.819
782.9382, 1663.896
783.4203, 1662.779
783.9024, 1660.871
784.3845, 1659.619
784.8666, 1659.118
785.3488, 1660.512
785.8309, 1662.927
786.3130, 1662.964
786.7951, 1658.616
787.2772, 1652.742
787.7593, 1650.093
788.2415, 1650.634
788.7236, 1652.886
789.2057, 1657.854
789.6878, 1660.166
790.1699, 1655.027
790.6520, 1647.721
791.1342, 1648.669
791.6162, 1660.136
792.0983, 1665.531
792.5804, 1658.922
793.0626, 1651.956
793.5447, 1648.395
794.0268, 1647.413
794.5089, 1648.539
794.9910, 1651.166
795.4731, 1653.480
795.9553, 1654.257
796.4374, 1654.085
796.9195, 1653.830
797.4016, 1653.404
797.8837, 1652.403
798.3658, 1650.740
798.8480, 1648.751
799.3301, 1646.684
799.8122, 1644.467
800.2943, 1641.798
800.7764, 1637.777
801.2585, 1635.228
801.7407, 1635.471
802.2228, 1635.829
802.7049, 1635.061
803.1870, 1633.927
803.6691, 1633.326
804.1512, 1633.384
804.6334, 1634.683
805.1155, 1638.583
805.5976, 1642.941
806.0797, 1646.337
806.5618, 1648.498
807.0439, 1648.971
807.5261, 1647.672
808.0082, 1644.945
808.4903, 1640.816
808.9724, 1635.879
809.4545, 1632.487
809.9366, 1630.784
810.4188, 1629.370
810.9009, 1627.350
811.3830, 1626.936
811.8651, 1631.114
812.3472, 1638.108
812.8293, 1641.637
813.3115, 1641.243
813.7936, 1638.448
814.2757, 1630.259
814.7578, 1622.900
815.2399, 1620.823
815.7220, 1622.102
816.2042, 1623.318
816.6863, 1623.459
817.1684, 1623.358
817.6505, 1623.064
818.1326, 1623.313
818.6147, 1626.600
819.0969, 1632.056
819.5790, 1634.563
820.0611, 1632.573
820.5432, 1629.362
821.0253, 1628.037
821.5074, 1628.289
821.9896, 1628.185
822.4717, 1628.011
822.9538, 1626.757
823.4359, 1622.411
823.9180, 1619.039
824.4001, 1620.769
824.8823, 1624.516
825.3644, 1623.525
825.8465, 1615.008
826.3286, 1609.106
826.8107, 1611.195
827.2928, 1616.029
827.7750, 1621.138
828.2571, 1625.197
828.7392, 1625.696
829.2213, 1622.282
829.7034, 1618.349
830.1855, 1617.434
830.6677, 1618.189
831.1498, 1615.863
831.6319, 1610.628
832.1140, 1608.860
832.5961, 1612.595
833.0782, 1617.505
833.5604, 1620.529
834.0425, 1621.669
834.5246, 1620.873
835.0067, 1615.430
835.4888, 1612.699
835.9709, 1615.153
836.4531, 1617.434
836.9352, 1617.508
837.4173, 1615.809
837.8994, 1612.090
838.3815, 1606.263
838.8636, 1603.444
839.3458, 1610.141
839.8279, 1617.442
840.3100, 1615.211
840.7921, 1608.070
841.2742, 1606.483
841.7563, 1611.845
842.2385, 1616.105
842.7206, 1612.322
843.2027, 1604.120
843.6848, 1601.111
844.1669, 1603.431
844.6490, 1604.103
845.1312, 1601.753
845.6133, 1599.638
846.0954, 1599.812
846.5775, 1601.366
847.0596, 1602.353
847.5417, 1602.518
848.0239, 1602.849
848.5060, 1604.420
848.9881, 1604.834
849.4702, 1602.389
849.9523, 1598.999
850.4344, 1596.054
850.9166, 1594.031
851.3987, 1594.137
851.8808, 1599.305
852.3629, 1603.461
852.8450, 1599.126
853.3271, 1591.587
853.8093, 1590.001
854.2914, 1594.376
854.7735, 1599.074
855.2556, 1601.040
855.7377, 1600.843
856.2198, 1598.697
856.7020, 1594.738
857.1841, 1592.269
857.6662, 1591.300
858.1483, 1592.397
858.6304, 1596.930
859.1125, 1601.514
859.5947, 1601.695
860.0768, 1597.433
860.5589, 1594.892
861.0410, 1594.558
861.5231, 1595.172
862.0052, 1597.998
862.4874, 1600.417
862.9695, 1600.841
863.4516, 1599.439
863.9337, 1596.858
864.4158, 1593.226
864.8979, 1588.652
865.3801, 1580.349
865.8622, 1573.396
866.3443, 1574.977
866.8264, 1582.266
867.3085, 1588.658
867.7906, 1591.982
868.2728, 1592.557
868.7549, 1590.168
869.2370, 1585.877
869.7191, 1582.199
870.2012, 1579.158
870.6833, 1578.921
871.1655, 1582.515
871.6476, 1585.691
872.1297, 1585.603
872.6118, 1583.075
873.0939, 1579.927
873.5760, 1575.192
874.0581, 1572.684
874.5402, 1575.317
875.0223, 1576.688
875.5045, 1573.274
875.9866, 1568.990
876.4687, 1568.860
876.9508, 1572.385
877.4329, 1572.869
877.9150, 1563.785
878.3972, 1556.794
878.8793, 1561.006
879.3614, 1568.573
879.8435, 1570.597
880.3256, 1567.643
880.8077, 1564.656
881.2899, 1563.849
881.7720, 1563.448
882.2541, 1559.889
882.7362, 1555.361
883.2183, 1558.511
883.7004, 1568.288
884.1826, 1572.004
884.6647, 1565.272
885.1468, 1556.515
885.6289, 1553.762
886.1110, 1556.250
886.5931, 1560.565
887.0753, 1568.567
887.5574, 1572.548
888.0395, 1569.188
888.5216, 1565.672
889.0037, 1567.234
889.4858, 1570.553
889.9680, 1569.560
890.4501, 1563.202
890.9322, 1558.588
891.4143, 1557.046
891.8964, 1557.025
892.3785, 1559.042
892.8607, 1561.469
893.3428, 1562.921
893.8249, 1563.173
894.3070, 1562.222
894.7891, 1559.773
895.2712, 1557.014
895.7534, 1553.968
896.2355, 1551.864
896.7176, 1554.904
897.1997, 1561.016
897.6818, 1560.951
898.1639, 1551.474
898.6461, 1541.120
899.1282, 1539.677
899.6103, 1545.443
900.0924, 1552.417
900.5745, 1560.845
901.0566, 1563.900
901.5388, 1559.260
902.0209, 1552.827
902.5030, 1548.164
902.9851, 1545.506
903.4672, 1545.924
903.9493, 1551.838
904.4315, 1553.872
904.9136, 1546.758
905.3957, 1542.549
905.8778, 1547.942
906.3599, 1555.669
906.8420, 1558.673
907.3242, 1556.979
907.8063, 1554.417
908.2884, 1550.546
908.7705, 1547.775
909.2526, 1548.091
909.7347, 1549.031
910.2169, 1548.438
910.6990, 1546.687
911.1811, 1544.445
911.6632, 1542.022
912.1453, 1541.729
912.6274, 1548.661
913.1096, 1556.811
913.5917, 1555.563
914.0738, 1547.986
914.5559, 1543.254
915.0380, 1543.106
915.5201, 1543.344
916.0023, 1540.696
916.4844, 1537.631
916.9665, 1540.852
917.4486, 1550.262
917.9307, 1553.688
918.4128, 1549.311
918.8950, 1546.932
919.3771, 1551.673
919.8592, 1557.321
920.3413, 1555.255
920.8234, 1545.768
921.3055, 1542.568
921.7877, 1550.789
922.2698, 1556.233
922.7519, 1556.267
923.2340, 1554.326
923.7161, 1550.296
924.1982, 1546.118
924.6804, 1546.146
925.1625, 1551.986
925.6446, 1554.150
926.1267, 1544.437
926.6088, 1537.325
927.0909, 1543.129
927.5731, 1553.281
928.0552, 1558.436
928.5373, 1558.278
929.0194, 1557.260
929.5015, 1557.419
929.9836, 1557.259
930.4658, 1554.450
930.9479, 1551.193
931.4300, 1551.140
931.9121, 1553.462
932.3942, 1555.120
932.8763, 1555.200
933.3585, 1555.013
933.8406, 1555.947
934.3227, 1557.199
934.8048, 1556.302
935.2869, 1553.600
935.7690, 1552.293
936.2512, 1552.858
936.7333, 1553.916
937.2154, 1554.753
937.6975, 1555.503
938.1796, 1556.168
938.6617, 1556.649
939.1439, 1559.982
939.6260, 1568.953
940.1081, 1572.707
940.5902, 1564.871
941.0723, 1556.911
941.5544, 1559.326
942.0366, 1568.561
942.5187, 1572.002
943.0008, 1566.004
943.4829, 1563.324
943.9650, 1567.176
944.4471, 1571.155
944.9293, 1572.422
945.4114, 1572.953
945.8935, 1575.470
946.3756, 1579.607
946.8577, 1581.937
947.3398, 1580.435
947.8220, 1578.729
948.3041, 1578.112
948.7862, 1578.442
949.2683, 1580.214
949.7504, 1582.647
950.2325, 1583.853
950.7147, 1583.569
951.1968, 1584.521
951.6789, 1589.562
952.1610, 1595.989
952.6431, 1601.462
953.1252, 1605.426
953.6074, 1605.195
954.0895, 1601.728
954.5716, 1601.394
955.0537, 1607.458
955.5358, 1615.134
956.0179, 1617.645
956.5000, 1616.146
956.9821, 1615.829
957.4642, 1616.653
957.9464, 1617.414
958.4285, 1617.718
958.9106, 1619.350
959.3927, 1623.812
959.8748, 1630.204
960.3569, 1636.411
960.8391, 1642.889
961.3212, 1646.379
961.8033, 1645.227
962.2854, 1646.115
962.7675, 1653.164
963.2496, 1660.303
963.7318, 1660.078
964.2139, 1653.984
964.6960, 1653.387
965.1781, 1662.058
965.6602, 1670.091
966.1423, 1677.874
966.6245, 1684.402
967.1066, 1687.965
967.5887, 1690.830
968.0708, 1695.603
968.5529, 1702.434
969.0350, 1710.507
969.5172, 1720.176
969.9993, 1730.346
970.4814, 1742.631
970.9635, 1753.430
971.4456, 1759.429
971.9277, 1761.945
972.4099, 1762.963
972.8920, 1763.077
973.3741, 1764.996
973.8562, 1772.565
974.3383, 1780.086
974.8204, 1782.563
975.3026, 1782.439
975.7847, 1782.001
976.2668, 1782.332
976.7489, 1785.090
977.2310, 1791.028
977.7131, 1798.772
978.1953, 1809.413
978.6774, 1819.454
979.1595, 1821.478
979.6416, 1817.912
980.1237, 1816.359
980.6058, 1818.104
981.0880, 1819.597
981.5701, 1818.470
982.0522, 1816.513
982.5343, 1817.714
983.0164, 1820.978
983.4985, 1819.902
983.9807, 1814.460
984.4628, 1807.832
984.9449, 1800.893
985.4270, 1793.976
985.9091, 1787.396
986.3912, 1781.016
986.8734, 1773.897
987.3555, 1765.609
987.8376, 1760.824
988.3197, 1760.673
988.8018, 1760.326
989.2839, 1758.548
989.7661, 1754.546
990.2482, 1746.698
990.7303, 1735.827
991.2124, 1727.877
991.6945, 1724.429
992.1766, 1720.062
992.6588, 1712.802
993.1409, 1707.239
993.6230, 1706.822
994.1051, 1708.071
994.5872, 1706.135
995.0693, 1701.072
995.5515, 1697.452
996.0336, 1698.919
996.5157, 1696.488
996.9978, 1684.217
997.4799, 1673.124
997.9620, 1671.525
998.4442, 1673.621
998.9263, 1669.879
999.4084, 1659.380
999.8905, 1651.343
1000.373, 1651.556
1000.855, 1649.936
1001.337, 1639.203
1001.819, 1628.718
1002.301, 1628.241
1002.783, 1633.016
1003.265, 1632.062
1003.747, 1622.927
1004.230, 1616.180
1004.712, 1620.125
1005.194, 1624.592
1005.676, 1622.377
1006.158, 1617.400
1006.640, 1614.751
1007.122, 1613.511
1007.604, 1608.837
1008.086, 1599.054
1008.569, 1591.127
1009.051, 1592.427
1009.533, 1596.504
1010.015, 1596.914
1010.497, 1594.806
1010.979, 1591.188
1011.461, 1587.159
1011.943, 1585.629
1012.426, 1587.983
1012.908, 1591.234
1013.390, 1593.681
1013.872, 1594.017
1014.354, 1587.458
1014.836, 1577.061
1015.318, 1572.050
1015.800, 1573.408
1016.282, 1576.403
1016.765, 1578.463
1017.247, 1578.913
1017.729, 1575.476
1018.211, 1575.833
1018.693, 1574.562
1019.175, 1571.539
1019.657, 1571.441
1020.139, 1567.204
1020.622, 1562.478
1021.104, 1559.566
1021.586, 1558.112
1022.068, 1558.229
1022.550, 1559.551
1023.032, 1557.486
1023.514, 1551.968
1023.996, 1547.013
1024.478, 1543.516
1024.961, 1541.824
1025.443, 1542.613
1025.925, 1544.128
1026.407, 1542.134
1026.889, 1536.426
1027.371, 1531.347
1027.853, 1526.465
1028.335, 1525.399
1028.818, 1530.568
1029.300, 1534.043
1029.782, 1528.335
1030.264, 1518.454
1030.746, 1518.893
1031.228, 1532.901
1031.710, 1536.312
1032.192, 1524.447
1032.674, 1515.914
1033.156, 1516.502
1033.639, 1520.201
1034.121, 1523.181
1034.603, 1525.007
1035.085, 1524.212
1035.567, 1519.933
1036.049, 1516.253
1036.531, 1512.839
1037.013, 1510.686
1037.496, 1510.091
1037.978, 1510.887
1038.460, 1513.984
1038.942, 1518.131
1039.424, 1519.265
1039.906, 1516.141
1040.388, 1513.739
1040.870, 1512.309
1041.353, 1511.241
1041.835, 1510.805
1042.317, 1510.286
1042.799, 1509.170
1043.281, 1507.535
1043.763, 1505.518
1044.245, 1502.723
1044.727, 1500.756
1045.209, 1500.093
1045.692, 1499.733
1046.174, 1500.064
1046.656, 1500.032
1047.138, 1498.731
1047.620, 1496.425
1048.102, 1493.327
1048.584, 1488.189
1049.066, 1487.151
1049.548, 1495.674
1050.031, 1502.323
1050.513, 1503.755
1050.995, 1501.614
1051.477, 1494.090
1051.959, 1484.735
1052.441, 1483.073
1052.923, 1492.899
1053.405, 1497.623
1053.888, 1488.951
1054.370, 1480.801
1054.852, 1478.968
1055.334, 1479.232
1055.816, 1478.667
1056.298, 1477.095
1056.780, 1474.376
1057.262, 1470.109
1057.745, 1467.721
1058.227, 1469.154
1058.709, 1471.400
1059.191, 1474.197
1059.673, 1476.445
1060.155, 1476.708
1060.637, 1475.888
1061.119, 1475.893
1061.601, 1477.103
1062.083, 1479.061
1062.566, 1484.126
1063.048, 1486.677
1063.530, 1480.806
1064.012, 1474.455
1064.494, 1475.757
1064.976, 1481.471
1065.458, 1484.045
1065.940, 1481.977
1066.423, 1480.078
1066.905, 1481.512
1067.387, 1481.818
1067.869, 1475.796
1068.351, 1470.695
1068.833, 1476.056
1069.315, 1485.602
1069.797, 1486.098
1070.280, 1475.682
1070.762, 1467.563
1071.244, 1469.793
1071.726, 1472.068
1072.208, 1468.878
1072.690, 1464.582
1073.172, 1461.975
1073.654, 1461.131
1074.136, 1462.580
1074.619, 1465.841
1075.101, 1466.841
1075.583, 1461.871
1076.065, 1457.803
1076.547, 1459.549
1077.029, 1461.860
1077.511, 1460.037
1077.993, 1456.381
1078.475, 1454.597
1078.958, 1455.072
1079.440, 1456.096
1079.922, 1456.915
1080.404, 1458.471
1080.886, 1463.367
1081.368, 1466.905
1081.850, 1463.803
1082.332, 1458.485
1082.814, 1457.306
1083.297, 1460.052
1083.779, 1461.883
1084.261, 1461.139
1084.743, 1459.551
1085.225, 1456.750
1085.707, 1454.657
1086.189, 1455.638
1086.671, 1457.206
1087.154, 1455.560
1087.636, 1451.835
1088.118, 1451.301
1088.600, 1456.518
1089.082, 1458.964
1089.564, 1451.752
1090.046, 1444.847
1090.528, 1443.989
1091.010, 1446.026
1091.493, 1449.199
1091.975, 1452.114
1092.457, 1451.834
1092.939, 1447.359
1093.421, 1444.343
1093.903, 1446.905
1094.385, 1448.732
1094.867, 1446.373
1095.349, 1442.639
1095.832, 1438.161
1096.314, 1434.808
1096.796, 1437.082
1097.278, 1445.492
1097.760, 1449.557
1098.242, 1439.530
1098.724, 1433.772
1099.206, 1444.792
1099.689, 1455.363
1100.171, 1451.546
1100.653, 1440.949
1101.135, 1435.199
1101.617, 1435.156
1102.099, 1435.001
1102.581, 1432.414
1103.063, 1431.297
1103.546, 1434.000
1104.028, 1436.723
1104.510, 1437.516
1104.992, 1437.222
1105.474, 1436.701
1105.956, 1436.035
1106.438, 1435.162
1106.920, 1433.661
1107.402, 1432.960
1107.885, 1433.189
1108.367, 1434.339
1108.849, 1437.186
1109.331, 1440.278
1109.813, 1443.097
1110.295, 1445.051
1110.777, 1444.437
1111.259, 1440.488
1111.741, 1436.796
1112.224, 1434.708
1112.706, 1431.413
1113.188, 1422.371
1113.670, 1416.030
1114.152, 1421.403
1114.634, 1431.557
1115.116, 1433.414
1115.598, 1426.030
1116.081, 1421.893
1116.563, 1422.892
1117.045, 1423.980
1117.527, 1425.810
1118.009, 1425.975
1118.491, 1421.699
1118.973, 1416.757
1119.455, 1416.116
1119.938, 1419.276
1120.420, 1421.668
1120.902, 1423.091
1121.384, 1424.037
1121.866, 1423.675
1122.348, 1424.989
1122.830, 1426.582
1123.312, 1435.193
1123.794, 1429.867
1124.276, 1432.704
1124.759, 1432.778
1125.241, 1428.287
1125.723, 1431.863
1126.205, 1426.886
1126.687, 1421.396
1127.169, 1416.716
1127.651, 1413.575
1128.133, 1412.259
1128.616, 1413.461
1129.098, 1419.487
1129.580, 1429.702
1130.062, 1432.483
1130.544, 1427.063
1131.026, 1423.527
1131.508, 1423.563
1131.990, 1422.480
1132.473, 1417.962
1132.955, 1412.133
1133.437, 1407.191
1133.919, 1403.415
1134.401, 1402.137
1134.883, 1403.131
1135.365, 1403.719
1135.847, 1403.799
1136.329, 1405.328
1136.812, 1408.864
1137.294, 1411.671
1137.776, 1411.503
1138.258, 1409.866
1138.740, 1409.156
1139.222, 1409.261
1139.704, 1410.277
1140.186, 1411.772
1140.668, 1411.338
1141.151, 1409.081
1141.633, 1409.127
1142.115, 1413.618
1142.597, 1417.485
1143.079, 1413.816
1143.561, 1407.080
1144.043, 1403.977
1144.525, 1403.745
1145.008, 1406.567
1145.490, 1410.606
1145.972, 1409.623
1146.454, 1402.626
1146.936, 1398.498
1147.418, 1404.850
1147.900, 1413.067
1148.382, 1415.281
1148.865, 1414.543
1149.347, 1414.015
1149.829, 1413.374
1150.311, 1410.562
1150.793, 1406.426
1151.275, 1405.774
1151.757, 1411.466
1152.239, 1415.698
1152.721, 1412.155
1153.203, 1407.945
1153.686, 1409.034
1154.168, 1410.683
1154.650, 1405.986
1155.132, 1398.335
1155.614, 1396.919
1156.096, 1403.493
1156.578, 1407.565
1157.060, 1404.747
1157.543, 1401.038
1158.025, 1396.462
1158.507, 1393.260
1158.989, 1393.685
1159.471, 1395.543
1159.953, 1395.527
1160.435, 1397.827
1160.917, 1395.333
1161.400, 1401.836
1161.882, 1406.019
1162.364, 1407.613
1162.846, 1407.143
1163.328, 1403.801
1163.810, 1399.577
1164.292, 1395.202
1164.774, 1391.441
1165.256, 1389.844
1165.739, 1390.414
1166.221, 1393.815
1166.703, 1401.921
1167.185, 1405.520
1167.667, 1402.680
1168.149, 1397.708
1168.631, 1391.684
1169.113, 1387.516
1169.595, 1388.797
1170.078, 1393.980
1170.560, 1398.880
1171.042, 1403.332
1171.524, 1399.167
1172.006, 1386.472
1172.488, 1378.404
1172.970, 1378.318
1173.452, 1384.026
1173.934, 1394.665
1174.417, 1404.434
1174.899, 1403.904
1175.381, 1396.628
1175.863, 1390.869
1176.345, 1386.754
1176.827, 1385.636
1177.309, 1386.652
1177.791, 1385.071
1178.274, 1379.836
1178.756, 1377.619
1179.238, 1385.027
1179.720, 1393.591
1180.202, 1393.003
1180.684, 1389.276
1181.166, 1389.986
1181.648, 1393.097
1182.130, 1395.169
1182.613, 1395.256
1183.095, 1392.214
1183.577, 1385.104
1184.059, 1379.745
1184.541, 1381.087
1185.023, 1382.554
1185.505, 1379.349
1185.987, 1375.948
1186.469, 1376.152
1186.952, 1378.854
1187.434, 1383.118
1187.916, 1388.341
1188.398, 1388.721
1188.880, 1377.123
1189.362, 1371.332
1189.844, 1378.138
1190.326, 1384.377
1190.809, 1385.080
1191.291, 1384.389
1191.773, 1386.331
1192.255, 1383.590
1192.737, 1386.540
1193.219, 1378.720
1193.701, 1373.540
1194.183, 1371.114
1194.666, 1371.534
1195.148, 1375.901
1195.630, 1377.970
1196.112, 1374.149
1196.594, 1370.342
1197.076, 1373.453
1197.558, 1380.540
1198.040, 1382.890
1198.522, 1381.072
1199.005, 1380.458
1199.487, 1380.882
1199.969, 1378.355
1200.451, 1372.592
1200.933, 1369.564
1201.415, 1372.608
1201.897, 1377.095
1202.379, 1378.164
1202.861, 1377.176
1203.344, 1375.491
1203.826, 1373.804
1204.308, 1372.724
1204.790, 1372.872
1205.272, 1376.979
1205.754, 1384.267
1206.236, 1387.545
1206.718, 1382.664
1207.201, 1375.554
1207.683, 1366.227
1208.165, 1360.158
1208.647, 1364.156
1209.129, 1370.547
1209.611, 1371.188
1210.093, 1368.070
1210.575, 1367.190
1211.057, 1369.448
1211.540, 1370.016
1212.022, 1366.142
1212.504, 1363.800
1212.986, 1364.678
1213.468, 1365.932
1213.950, 1367.628
1214.432, 1367.952
1214.914, 1364.458
1215.396, 1358.889
1215.879, 1355.923
1216.361, 1355.617
1216.843, 1357.410
1217.325, 1361.769
1217.807, 1364.816
1218.289, 1365.831
1218.771, 1366.740
1219.253, 1368.475
1219.736, 1369.551
1220.218, 1368.338
1220.700, 1365.678
1221.182, 1363.035
1221.664, 1360.576
1222.146, 1358.260
1222.628, 1356.704
1223.110, 1358.883
1223.593, 1364.248
1224.075, 1367.818
1224.557, 1367.423
1225.039, 1366.062
1225.521, 1366.049
1226.003, 1366.280
1226.485, 1365.298
1226.967, 1364.489
1227.449, 1367.163
1227.932, 1369.924
1228.414, 1365.391
1228.896, 1355.270
1229.378, 1351.119
1229.860, 1357.811
1230.342, 1362.184
1230.824, 1359.818
1231.306, 1356.715
1231.788, 1351.526
1232.271, 1349.732
1232.753, 1358.229
1233.235, 1368.275
1233.717, 1366.864
1234.199, 1370.171
1234.681, 1370.214
1235.163, 1364.119
1235.645, 1364.903
1236.128, 1354.528
1236.610, 1347.684
1237.092, 1347.998
1237.574, 1350.890
1238.056, 1353.833
1238.538, 1356.219
1239.020, 1356.939
1239.502, 1356.960
1239.984, 1359.755
1240.467, 1363.608
1240.949, 1363.049
1241.431, 1359.025
1241.913, 1355.625
1242.395, 1353.653
1242.877, 1351.085
1243.359, 1346.599
1243.841, 1344.686
1244.323, 1350.553
1244.806, 1357.956
1245.288, 1364.663
1245.770, 1368.515
1246.252, 1365.833
1246.734, 1359.917
1247.216, 1356.301
1247.698, 1355.080
1248.180, 1351.623
1248.662, 1353.415
1249.145, 1339.021
1249.627, 1356.012
1250.109, 1367.221
1250.591, 1365.661
1251.073, 1360.939
1251.555, 1357.657
1252.037, 1355.794
1252.519, 1355.778
1253.002, 1356.749
1253.484, 1353.643
1253.966, 1346.647
1254.448, 1345.589
1254.930, 1350.450
1255.412, 1356.063
1255.894, 1360.815
1256.376, 1361.545
1256.859, 1356.549
1257.341, 1349.620
1257.823, 1342.859
1258.305, 1338.958
1258.787, 1344.663
1259.269, 1353.007
1259.751, 1354.763
1260.233, 1351.938
1260.715, 1348.060
1261.198, 1344.558
1261.680, 1343.596
1262.162, 1346.181
1262.644, 1348.579
1263.126, 1349.436
1263.608, 1350.231
1264.090, 1350.250
1264.572, 1351.748
1265.054, 1359.126
1265.537, 1365.178
1266.019, 1360.393
1266.501, 1349.087
1266.983, 1346.545
1267.465, 1353.957
1267.947, 1356.529
1268.429, 1353.646
1268.911, 1354.362
1269.394, 1360.144
1269.876, 1360.420
1270.358, 1350.800
1270.840, 1341.813
1271.322, 1343.064
1271.804, 1349.276
1272.286, 1354.305
1272.768, 1357.469
1273.250, 1355.622
1273.733, 1352.173
1274.215, 1354.473
1274.697, 1360.539
1275.179, 1362.687
1275.661, 1359.232
1276.143, 1354.966
1276.625, 1349.997
1277.107, 1347.990
1277.589, 1352.984
1278.072, 1357.481
1278.554, 1358.702
1279.036, 1357.464
1279.518, 1352.168
1280.000, 1346.811
1280.482, 1349.502
1280.964, 1345.927
1281.446, 1345.684
1281.929, 1348.621
1282.411, 1346.680
1282.893, 1355.341
1283.375, 1359.791
1283.857, 1356.394
1284.339, 1350.655
1284.821, 1345.738
1285.303, 1344.301
1285.786, 1349.045
1286.268, 1359.770
##END=



