##NAMES=Zanazziite
##RRUFFID=R100220
##IDEAL CHEMISTRY=Ca_2_Mg_5_Be_4_(PO_4_)_6_(OH)_4_&#183;6H_2_O
##LOCALITY=Jenipapo district, Itinga, Minas Gerais, Brazil
##OWNER=RRUFF
##SOURCE=Luiz Menezes
##DESCRIPTION=Pale lilac rectangular blocky crystals on muscovite
##STATUS=The identification of this mineral has been confirmed only by single crystal X-ray diffraction.
##URL=rruff.info/R100220
212.5287, 578.6096
213.0108, 576.6537
213.4929, 572.4301
213.9750, 570.3973
214.4572, 571.5491
214.9393, 574.7398
215.4214, 576.5869
215.9035, 576.6741
216.3856, 576.2646
216.8678, 575.8868
217.3499, 575.3170
217.8320, 575.4910
218.3141, 576.6740
218.7962, 578.5377
219.2783, 580.1084
219.7605, 581.3686
220.2426, 582.3073
220.7247, 582.9596
221.2068, 583.4740
221.6889, 583.1109
222.1710, 581.1093
222.6532, 578.3841
223.1353, 578.2408
223.6174, 582.5593
224.0995, 586.3373
224.5816, 586.7526
225.0637, 581.9984
225.5459, 578.4630
226.0280, 576.3107
226.5101, 575.5014
226.9922, 576.2066
227.4743, 579.4963
227.9564, 582.6251
228.4386, 584.1720
228.9207, 583.2458
229.4028, 582.8684
229.8849, 583.4510
230.3670, 584.5148
230.8492, 584.6497
231.3313, 583.2577
231.8134, 581.8389
232.2955, 581.1501
232.7776, 581.7973
233.2597, 581.7571
233.7419, 580.6201
234.2240, 578.9119
234.7061, 578.0239
235.1882, 578.1627
235.6703, 578.8215
236.1524, 579.9778
236.6346, 582.4130
237.1167, 583.4365
237.5988, 582.2303
238.0809, 579.9173
238.5630, 579.1926
239.0451, 580.9405
239.5273, 582.9449
240.0094, 584.2646
240.4915, 584.4802
240.9736, 585.1055
241.4557, 586.3908
241.9378, 587.9594
242.4200, 589.0054
242.9021, 589.2511
243.3842, 589.4130
243.8663, 589.9091
244.3484, 591.2610
244.8306, 591.2569
245.3127, 589.0848
245.7948, 585.9894
246.2769, 584.2670
246.7590, 584.3016
247.2411, 585.1005
247.7233, 586.5583
248.2054, 589.1086
248.6875, 590.6635
249.1696, 590.7711
249.6517, 590.1862
250.1338, 590.1673
250.6160, 591.1247
251.0981, 591.9212
251.5802, 592.1802
252.0623, 591.8174
252.5444, 591.3315
253.0265, 590.5165
253.5087, 589.7572
253.9908, 589.6713
254.4729, 590.5883
254.9550, 591.5176
255.4371, 592.2115
255.9192, 592.6551
256.4014, 592.9099
256.8835, 592.8088
257.3656, 592.6836
257.8477, 592.9935
258.3298, 593.9961
258.8120, 594.8492
259.2941, 595.3058
259.7762, 595.3353
260.2583, 595.3477
260.7404, 594.9767
261.2225, 595.0241
261.7047, 596.7190
262.1868, 601.1964
262.6689, 604.2800
263.1510, 604.7574
263.6331, 602.7022
264.1152, 601.0695
264.5974, 599.9578
265.0795, 599.1302
265.5616, 598.3845
266.0437, 597.6725
266.5258, 597.1803
267.0079, 596.9335
267.4901, 596.9422
267.9722, 597.3348
268.4543, 598.3264
268.9364, 599.3145
269.4185, 599.7738
269.9006, 599.5938
270.3828, 599.3922
270.8649, 599.2186
271.3470, 599.0944
271.8291, 599.1787
272.3112, 599.5687
272.7933, 599.8747
273.2755, 599.6370
273.7576, 598.6768
274.2397, 598.3481
274.7218, 598.9775
275.2039, 600.2274
275.6860, 601.0212
276.1682, 601.2285
276.6503, 601.5001
277.1324, 602.4864
277.6145, 604.3010
278.0966, 605.2656
278.5787, 605.0685
279.0609, 604.2147
279.5430, 603.8395
280.0251, 604.0516
280.5072, 604.1965
280.9893, 603.8373
281.4715, 602.9877
281.9536, 602.3676
282.4357, 602.0502
282.9178, 601.8805
283.3999, 601.5257
283.8820, 600.9547
284.3642, 600.5628
284.8463, 600.5233
285.3284, 600.8123
285.8105, 601.3032
286.2926, 602.0076
286.7747, 602.8122
287.2569, 603.5676
287.7390, 604.2687
288.2211, 604.9949
288.7032, 606.0072
289.1853, 607.1031
289.6674, 607.2426
290.1496, 606.3226
290.6317, 605.1758
291.1138, 604.6345
291.5959, 604.6734
292.0780, 605.0878
292.5602, 605.8839
293.0423, 606.9944
293.5244, 608.7662
294.0065, 611.2665
294.4886, 612.7187
294.9707, 610.1483
295.4529, 604.8668
295.9350, 601.7986
296.4171, 603.0159
296.8992, 606.3486
297.3813, 608.0848
297.8634, 608.3201
298.3456, 608.1808
298.8277, 608.4818
299.3098, 609.0356
299.7919, 609.4484
300.2740, 609.6592
300.7561, 609.6553
301.2383, 609.1735
301.7204, 608.3535
302.2025, 607.8642
302.6846, 608.1922
303.1667, 609.0941
303.6488, 610.2682
304.1310, 611.7174
304.6131, 613.2492
305.0952, 614.5076
305.5773, 615.6559
306.0594, 617.1299
306.5415, 620.3891
307.0237, 623.4899
307.5058, 623.8895
307.9879, 620.9703
308.4700, 617.9577
308.9521, 617.5417
309.4343, 618.6888
309.9164, 619.5569
310.3985, 618.7633
310.8806, 617.7914
311.3627, 617.9368
311.8448, 619.2693
312.3270, 620.5619
312.8091, 620.9284
313.2912, 620.8923
313.7733, 621.0722
314.2554, 622.1186
314.7375, 623.0662
315.2197, 623.1381
315.7018, 622.4767
316.1839, 622.2785
316.6660, 623.9020
317.1481, 625.7972
317.6302, 626.6233
318.1124, 624.7197
318.5945, 623.3825
319.0766, 624.2859
319.5587, 626.7775
320.0408, 628.6020
320.5229, 628.8726
321.0051, 628.4073
321.4872, 627.4650
321.9693, 625.1698
322.4514, 624.1531
322.9335, 626.6047
323.4156, 630.5674
323.8978, 632.2669
324.3799, 628.5481
324.8620, 624.6443
325.3441, 622.4083
325.8262, 622.4014
326.3083, 622.7726
326.7905, 623.5720
327.2726, 624.6183
327.7547, 625.6773
328.2368, 626.7783
328.7189, 627.8603
329.2010, 628.9410
329.6832, 630.0235
330.1653, 630.9800
330.6474, 631.8709
331.1295, 632.5925
331.6116, 633.0568
332.0938, 633.1075
332.5759, 633.1641
333.0580, 633.4382
333.5401, 633.8256
334.0222, 633.4732
334.5043, 631.8971
334.9865, 630.2411
335.4686, 629.1837
335.9507, 628.9041
336.4328, 628.6910
336.9149, 628.3415
337.3970, 628.1131
337.8792, 628.7980
338.3613, 630.7053
338.8434, 632.6847
339.3255, 634.3950
339.8076, 635.9196
340.2898, 636.5128
340.7719, 636.0071
341.2540, 634.8917
341.7361, 633.4710
342.2182, 631.6113
342.7003, 631.0295
343.1825, 632.9619
343.6646, 636.8823
344.1467, 638.9525
344.6288, 638.9417
345.1109, 638.3267
345.5930, 638.8973
346.0752, 640.4490
346.5573, 640.9207
347.0394, 639.3458
347.5215, 636.7853
348.0036, 635.5479
348.4857, 635.6202
348.9679, 636.2457
349.4500, 636.7173
349.9321, 637.2982
350.4142, 639.0585
350.8963, 642.6788
351.3784, 646.2104
351.8606, 646.4953
352.3427, 644.2890
352.8248, 642.3754
353.3069, 642.5248
353.7890, 643.8389
354.2711, 645.4825
354.7533, 647.5214
355.2354, 648.7059
355.7175, 647.2289
356.1996, 644.2255
356.6817, 641.6740
357.1638, 640.1655
357.6460, 639.5970
358.1281, 640.3133
358.6102, 642.1879
359.0923, 643.8072
359.5744, 644.1400
360.0565, 643.9158
360.5387, 643.8183
361.0208, 643.8159
361.5029, 644.2552
361.9850, 645.9033
362.4671, 648.2344
362.9492, 649.5984
363.4314, 648.3273
363.9135, 646.7350
364.3956, 646.1765
364.8777, 647.3486
365.3598, 648.3370
365.8419, 648.2859
366.3241, 647.9108
366.8062, 648.2852
367.2883, 651.0179
367.7704, 653.1047
368.2526, 653.4066
368.7347, 651.4543
369.2168, 650.3153
369.6989, 650.5533
370.1810, 651.2916
370.6631, 651.7890
371.1453, 651.4716
371.6274, 651.7891
372.1095, 653.1871
372.5916, 655.4633
373.0737, 657.2518
373.5558, 658.5559
374.0380, 659.3876
374.5201, 659.6210
375.0022, 658.9113
375.4843, 658.7910
375.9664, 659.5424
376.4485, 660.7008
376.9307, 661.1837
377.4128, 660.7043
377.8949, 660.7868
378.3770, 662.6732
378.8591, 666.1652
379.3412, 666.9535
379.8234, 664.5551
380.3055, 661.1312
380.7876, 658.7620
381.2697, 657.4330
381.7518, 657.3392
382.2339, 659.0173
382.7161, 661.5860
383.1982, 662.9273
383.6803, 663.0673
384.1624, 663.0209
384.6445, 663.6534
385.1266, 664.6692
385.6088, 665.3238
386.0909, 665.4754
386.5730, 665.3471
387.0551, 664.7764
387.5372, 664.0629
388.0193, 664.0664
388.5015, 665.6878
388.9836, 668.0142
389.4657, 670.3411
389.9478, 672.6486
390.4299, 674.2554
390.9120, 674.2602
391.3942, 673.4304
391.8763, 672.7103
392.3584, 672.5889
392.8405, 672.5005
393.3226, 671.9944
393.8047, 671.2129
394.2869, 670.8038
394.7690, 671.5179
395.2511, 672.3458
395.7332, 672.6349
396.2154, 672.0245
396.6975, 671.4259
397.1796, 670.9079
397.6617, 670.5385
398.1438, 670.4329
398.6259, 671.0378
399.1081, 671.4805
399.5902, 671.3173
400.0723, 670.3477
400.5544, 670.1541
401.0365, 671.6422
401.5186, 673.2166
402.0008, 673.4420
402.4829, 671.1393
402.9650, 669.7321
403.4471, 669.8796
403.9292, 671.1979
404.4113, 672.0704
404.8935, 672.3686
405.3756, 672.5317
405.8577, 672.5841
406.3398, 672.3793
406.8219, 673.4176
407.3040, 676.1895
407.7862, 679.3271
408.2683, 680.4649
408.7504, 679.5270
409.2325, 679.5165
409.7146, 682.3477
410.1967, 686.6840
410.6789, 687.6393
411.1610, 685.1041
411.6431, 682.2758
412.1252, 682.4072
412.6073, 684.4873
413.0894, 685.5131
413.5716, 684.5624
414.0537, 683.0782
414.5358, 682.7610
415.0179, 683.3752
415.5000, 684.1542
415.9821, 685.2077
416.4643, 685.9026
416.9464, 685.1604
417.4285, 682.7797
417.9106, 680.8231
418.3927, 681.2465
418.8748, 682.6273
419.3570, 683.2728
419.8391, 681.2204
420.3212, 679.6707
420.8033, 680.8430
421.2854, 683.9942
421.7675, 685.6396
422.2497, 682.9573
422.7318, 679.8220
423.2139, 678.4459
423.6960, 680.1977
424.1781, 681.2820
424.6602, 680.9212
425.1424, 679.7750
425.6245, 678.7891
426.1066, 677.9539
426.5887, 677.3171
427.0709, 676.8227
427.5530, 676.4667
428.0351, 676.7219
428.5172, 678.1069
428.9993, 679.3809
429.4814, 679.4146
429.9636, 677.6182
430.4457, 676.9709
430.9278, 678.1493
431.4099, 680.1706
431.8920, 680.8100
432.3741, 679.9252
432.8563, 678.7885
433.3384, 677.8284
433.8205, 677.0659
434.3026, 676.5905
434.7847, 676.3681
435.2668, 676.6604
435.7490, 678.0052
436.2311, 680.1498
436.7132, 682.1815
437.1953, 683.9498
437.6774, 685.3751
438.1595, 685.9377
438.6417, 685.9323
439.1238, 686.5778
439.6059, 689.4931
440.0880, 692.9864
440.5701, 695.4808
441.0522, 696.8714
441.5344, 696.8170
442.0165, 693.8386
442.4986, 689.7157
442.9807, 686.6424
443.4628, 685.6985
443.9449, 685.5879
444.4271, 685.8360
444.9092, 686.4822
445.3913, 687.8196
445.8734, 691.3990
446.3555, 694.5184
446.8376, 695.7197
447.3198, 693.8440
447.8019, 692.0818
448.2840, 689.6174
448.7661, 687.6830
449.2482, 688.2988
449.7303, 693.9261
450.2125, 697.8976
450.6946, 698.5500
451.1767, 696.0875
451.6588, 693.3132
452.1409, 689.7663
452.6230, 686.9314
453.1052, 686.2697
453.5873, 687.9894
454.0694, 688.8892
454.5515, 688.4487
455.0337, 687.6537
455.5158, 688.6568
455.9979, 691.2827
456.4800, 692.8099
456.9621, 691.1668
457.4442, 687.8963
457.9264, 686.7398
458.4085, 687.6415
458.8906, 689.0654
459.3727, 690.2823
459.8548, 691.0788
460.3369, 690.8713
460.8191, 689.0118
461.3012, 687.3965
461.7833, 688.1635
462.2654, 690.2891
462.7475, 691.6352
463.2296, 690.4749
463.7118, 688.9504
464.1939, 687.9330
464.6760, 687.4605
465.1581, 688.1561
465.6402, 692.2651
466.1223, 696.3526
466.6045, 697.9375
467.0866, 693.4589
467.5687, 690.4417
468.0508, 690.0301
468.5329, 691.2512
469.0150, 691.9132
469.4972, 691.2385
469.9793, 691.2111
470.4614, 692.9332
470.9435, 696.5990
471.4256, 698.0636
471.9077, 696.8798
472.3899, 694.4148
472.8720, 691.4095
473.3541, 687.6796
473.8362, 685.3989
474.3183, 685.0719
474.8004, 685.9721
475.2826, 686.8879
475.7647, 687.8088
476.2468, 688.6129
476.7289, 689.3839
477.2110, 689.9589
477.6931, 689.8347
478.1753, 689.0085
478.6574, 688.0901
479.1395, 687.4459
479.6216, 687.0659
480.1037, 686.9637
480.5858, 687.2415
481.0680, 687.6187
481.5501, 688.0011
482.0322, 688.3475
482.5143, 688.5621
482.9964, 688.6156
483.4786, 688.5382
483.9607, 688.2285
484.4428, 687.6557
484.9249, 687.4099
485.4070, 688.2751
485.8892, 689.0986
486.3713, 689.0079
486.8534, 686.3947
487.3355, 685.2880
487.8176, 686.6844
488.2997, 689.3362
488.7819, 690.4857
489.2640, 689.3641
489.7461, 688.4620
490.2282, 688.5936
490.7103, 689.7048
491.1924, 691.0941
491.6746, 692.9233
492.1567, 694.3740
492.6388, 694.4391
493.1209, 693.2939
493.6030, 692.5369
494.0851, 692.4163
494.5673, 692.6080
495.0494, 692.4604
495.5315, 692.1756
496.0136, 692.4894
496.4957, 694.4476
496.9778, 696.7688
497.4600, 698.2190
497.9421, 698.7934
498.4242, 698.6310
498.9063, 696.7242
499.3884, 694.7454
499.8705, 694.2971
500.3527, 696.3749
500.8348, 698.3005
501.3169, 699.0153
501.7990, 699.0214
502.2811, 699.0262
502.7632, 699.1627
503.2454, 699.3029
503.7275, 699.2819
504.2096, 699.1565
504.6917, 699.6458
505.1738, 701.5251
505.6559, 702.9783
506.1381, 702.7055
506.6202, 699.8613
507.1023, 698.9324
507.5844, 700.4247
508.0665, 702.9319
508.5486, 704.6607
509.0308, 705.6036
509.5129, 706.2004
509.9950, 706.4483
510.4771, 706.5270
510.9592, 707.0545
511.4413, 707.9249
511.9235, 708.2703
512.4056, 706.7634
512.8877, 704.6610
513.3698, 703.9127
513.8519, 704.7122
514.3340, 706.0130
514.8162, 708.0074
515.2983, 709.7158
515.7804, 709.8820
516.2625, 706.5328
516.7446, 703.6345
517.2267, 703.3506
517.7089, 704.7399
518.1910, 705.4855
518.6731, 704.5609
519.1552, 703.4359
519.6373, 702.5941
520.1194, 702.0583
520.6016, 701.5267
521.0837, 700.5349
521.5658, 700.0565
522.0479, 700.9947
522.5300, 703.8781
523.0121, 706.2619
523.4943, 708.1121
523.9764, 709.2097
524.4585, 708.6871
524.9406, 706.5026
525.4227, 705.0020
525.9048, 705.3521
526.3870, 706.8116
526.8691, 707.5381
527.3513, 707.5746
527.8334, 707.5086
528.3155, 707.8995
528.7976, 708.4081
529.2797, 708.4183
529.7618, 707.7508
530.2440, 707.2444
530.7261, 707.9833
531.2082, 709.0782
531.6903, 709.3800
532.1724, 707.0886
532.6545, 705.4543
533.1367, 706.1962
533.6188, 708.5568
534.1009, 709.8438
534.5830, 707.8397
535.0651, 706.4762
535.5472, 707.5021
536.0294, 711.5295
536.5115, 713.4728
536.9936, 712.3889
537.4757, 710.5485
537.9578, 709.8546
538.4399, 710.4937
538.9221, 711.1023
539.4042, 711.5969
539.8863, 711.9192
540.3684, 711.4224
540.8505, 710.2762
541.3326, 710.6595
541.8148, 715.1628
542.2969, 720.7081
542.7790, 720.8038
543.2611, 716.1233
543.7432, 712.0610
544.2253, 712.9528
544.7075, 715.9545
545.1896, 718.4432
545.6717, 720.1813
546.1538, 720.7066
546.6359, 718.0662
547.1180, 714.8190
547.6002, 713.7207
548.0823, 718.4413
548.5644, 721.8682
549.0465, 721.7019
549.5286, 719.2819
550.0107, 718.5621
550.4929, 720.7460
550.9750, 722.7841
551.4571, 723.4171
551.9392, 722.6322
552.4213, 723.6432
552.9034, 727.0515
553.3856, 730.3801
553.8677, 731.2566
554.3498, 729.9238
554.8319, 729.2579
555.3140, 729.5095
555.7961, 730.6038
556.2783, 732.9562
556.7604, 736.1184
557.2425, 738.7900
557.7246, 740.3677
558.2067, 741.3964
558.6888, 742.1278
559.1710, 742.6944
559.6531, 743.5281
560.1352, 745.5212
560.6173, 747.3084
561.0994, 747.8196
561.5815, 746.7798
562.0637, 746.2447
562.5458, 747.2620
563.0279, 748.5013
563.5100, 748.9659
563.9921, 747.8554
564.4742, 747.3762
564.9564, 747.7653
565.4385, 748.6370
565.9206, 749.4599
566.4027, 750.2983
566.8848, 750.6439
567.3669, 750.1866
567.8491, 749.2056
568.3312, 748.7248
568.8133, 748.7194
569.2954, 748.4826
569.7775, 747.4554
570.2596, 745.9235
570.7418, 744.1700
571.2239, 742.1742
571.7060, 740.8427
572.1881, 741.5690
572.6702, 743.0201
573.1523, 743.7846
573.6345, 743.6577
574.1166, 742.5245
574.5987, 739.0264
575.0808, 734.7650
575.5629, 732.3516
576.0450, 734.9090
576.5272, 736.3436
577.0093, 734.8567
577.4914, 731.0524
577.9735, 728.9630
578.4556, 729.2333
578.9377, 729.9393
579.4199, 730.2241
579.9020, 730.0851
580.3841, 729.7376
580.8662, 729.1288
581.3483, 728.6459
581.8304, 728.7489
582.3126, 729.3187
582.7947, 730.0402
583.2768, 731.0084
583.7589, 731.6423
584.2410, 730.9639
584.7231, 729.5172
585.2053, 728.3822
585.6874, 728.5629
586.1696, 728.6442
586.6517, 727.2190
587.1338, 724.8168
587.6159, 723.8411
588.0980, 726.2799
588.5801, 729.0323
589.0623, 730.8669
589.5444, 731.7165
590.0265, 731.9700
590.5086, 731.3922
590.9907, 730.5301
591.4728, 729.7598
591.9550, 729.0882
592.4371, 728.7379
592.9192, 728.9697
593.4013, 729.0110
593.8834, 727.0716
594.3655, 723.6118
594.8477, 721.5775
595.3298, 722.5306
595.8119, 724.6334
596.2940, 725.4796
596.7761, 725.3701
597.2582, 725.3370
597.7404, 726.1326
598.2225, 727.0221
598.7046, 727.5577
599.1867, 727.6945
599.6688, 727.4633
600.1509, 726.3713
600.6331, 725.2527
601.1152, 724.6547
601.5973, 724.8046
602.0794, 724.8930
602.5615, 724.5800
603.0436, 724.5314
603.5258, 725.8677
604.0079, 729.0966
604.4900, 730.9442
604.9721, 730.7105
605.4542, 729.1058
605.9363, 726.9086
606.4185, 724.3139
606.9006, 722.8541
607.3827, 724.1452
607.8648, 726.4412
608.3469, 727.0756
608.8290, 726.3052
609.3112, 725.5304
609.7933, 725.4368
610.2754, 725.7498
610.7575, 726.3956
611.2396, 727.4198
611.7217, 728.1642
612.2039, 728.0715
612.6860, 727.8369
613.1681, 728.0195
613.6502, 729.2350
614.1323, 729.7865
614.6144, 729.5154
615.0966, 728.6847
615.5787, 727.3403
616.0608, 725.2272
616.5429, 724.5317
617.0250, 726.4145
617.5071, 729.2794
617.9893, 729.0128
618.4714, 726.0050
618.9535, 723.2867
619.4356, 722.5149
619.9177, 722.8618
620.3998, 723.5369
620.8820, 724.4697
621.3641, 725.1790
621.8462, 724.8671
622.3283, 724.5994
622.8104, 725.2979
623.2925, 727.4014
623.7747, 729.1174
624.2568, 729.8427
624.7389, 730.2054
625.2210, 730.7129
625.7031, 731.5023
626.1852, 732.1223
626.6674, 732.5617
627.1495, 732.7933
627.6316, 732.4855
628.1137, 731.5816
628.5958, 731.6954
629.0779, 733.8871
629.5601, 736.6904
630.0422, 736.4993
630.5243, 734.0321
631.0064, 732.6492
631.4885, 735.6237
631.9706, 739.6071
632.4528, 741.1747
632.9349, 740.4421
633.4170, 740.0754
633.8991, 741.4586
634.3812, 743.4094
634.8633, 745.3398
635.3455, 747.3137
635.8276, 748.7813
636.3097, 749.5854
636.7918, 750.0164
637.2739, 750.2411
637.7560, 750.1418
638.2382, 750.2497
638.7203, 750.5865
639.2024, 751.1418
639.6845, 752.0989
640.1666, 753.3651
640.6487, 754.2399
641.1309, 754.5283
641.6130, 754.2863
642.0951, 753.3340
642.5772, 751.8771
643.0594, 750.5502
643.5415, 749.7910
644.0236, 749.1285
644.5057, 748.4100
644.9879, 747.5943
645.4700, 746.4121
645.9521, 744.1771
646.4342, 742.1572
646.9163, 741.0259
647.3984, 741.0025
647.8806, 740.3682
648.3627, 738.8079
648.8448, 737.2664
649.3269, 736.8553
649.8090, 737.5782
650.2911, 736.6401
650.7733, 733.4534
651.2554, 730.2653
651.7375, 730.0634
652.2196, 731.9145
652.7017, 733.5626
653.1838, 734.4305
653.6660, 734.7909
654.1481, 734.4172
654.6302, 733.7360
655.1123, 733.5050
655.5944, 734.5145
656.0765, 735.4139
656.5587, 735.7413
657.0408, 735.5730
657.5229, 735.3722
658.0050, 735.1985
658.4871, 734.8572
658.9692, 734.2173
659.4514, 733.3136
659.9335, 732.4689
660.4156, 731.6426
660.8977, 731.2208
661.3798, 731.5804
661.8619, 732.5603
662.3441, 734.1204
662.8262, 736.3000
663.3083, 737.6169
663.7904, 736.0527
664.2725, 733.4053
664.7546, 731.6521
665.2368, 731.3854
665.7189, 731.5328
666.2010, 731.8038
666.6831, 732.2809
667.1652, 733.1085
667.6473, 735.0545
668.1295, 736.0629
668.6116, 735.6798
669.0937, 734.5350
669.5758, 733.8428
670.0579, 733.6411
670.5400, 733.4662
671.0222, 733.1213
671.5043, 732.7704
671.9864, 732.6688
672.4685, 732.8295
672.9506, 733.3581
673.4327, 734.8949
673.9149, 736.3742
674.3970, 736.7852
674.8791, 736.1974
675.3612, 735.3232
675.8433, 734.3206
676.3254, 733.2023
676.8076, 731.7549
677.2897, 729.7653
677.7718, 728.9938
678.2539, 729.9584
678.7360, 731.4590
679.2181, 732.8375
679.7003, 734.1189
680.1824, 735.0146
680.6645, 735.4967
681.1466, 735.6871
681.6287, 735.1232
682.1108, 734.3659
682.5930, 735.4157
683.0751, 739.3553
683.5572, 742.7416
684.0393, 741.7662
684.5214, 738.6578
685.0035, 736.6130
685.4857, 737.7226
685.9678, 738.7429
686.4499, 738.6608
686.9320, 737.9609
687.4141, 737.7020
687.8962, 737.8693
688.3784, 738.6329
688.8605, 740.5748
689.3426, 742.9280
689.8247, 742.4749
690.3068, 739.0899
690.7889, 736.3448
691.2711, 736.5982
691.7532, 738.3759
692.2353, 738.7122
692.7174, 737.7882
693.1995, 736.7513
693.6816, 735.9532
694.1638, 735.5667
694.6459, 735.7594
695.1280, 736.5527
695.6101, 737.7265
696.0922, 739.5584
696.5743, 741.5067
697.0565, 743.4711
697.5386, 745.8203
698.0207, 746.5931
698.5028, 745.3522
698.9849, 743.4844
699.4670, 742.1810
699.9492, 741.4083
700.4313, 740.7382
700.9135, 740.0705
701.3956, 739.7885
701.8777, 740.3770
702.3598, 741.6073
702.8419, 743.3352
703.3240, 746.4742
703.8062, 748.0956
704.2883, 744.8424
704.7704, 739.6318
705.2525, 736.7893
705.7346, 739.3678
706.2167, 741.3419
706.6989, 741.8307
707.1810, 741.5273
707.6631, 742.1217
708.1452, 743.8444
708.6273, 745.0769
709.1094, 745.1698
709.5916, 744.6528
710.0737, 744.7324
710.5558, 745.3163
711.0379, 745.9062
711.5200, 746.3285
712.0021, 746.5592
712.4843, 746.4080
712.9664, 745.9756
713.4485, 745.8104
713.9306, 746.6153
714.4127, 747.2617
714.8948, 747.2001
715.3770, 746.4249
715.8591, 745.3195
716.3412, 743.5163
716.8233, 742.1120
717.3054, 741.8824
717.7875, 742.7801
718.2697, 743.6234
718.7518, 744.4385
719.2339, 745.0245
719.7160, 744.9651
720.1981, 744.6624
720.6802, 744.8508
721.1624, 745.6696
721.6445, 746.3891
722.1266, 746.5979
722.6087, 746.5000
723.0908, 746.1668
723.5729, 744.9736
724.0551, 744.9675
724.5372, 747.1802
725.0193, 749.7217
725.5014, 750.5349
725.9835, 749.2993
726.4656, 748.2792
726.9478, 747.6970
727.4299, 747.3879
727.9120, 747.2709
728.3941, 747.2432
728.8762, 746.9135
729.3583, 745.9348
729.8405, 745.1375
730.3226, 745.3635
730.8047, 746.2072
731.2868, 746.9913
731.7689, 747.9064
732.2510, 748.2781
732.7332, 747.4587
733.2153, 746.1020
733.6974, 745.5685
734.1795, 746.2361
734.6616, 746.6571
735.1437, 746.2723
735.6259, 745.5944
736.1080, 746.4176
736.5901, 748.4948
737.0722, 749.6171
737.5543, 747.3656
738.0364, 744.6415
738.5186, 745.4107
739.0007, 748.7529
739.4828, 751.4108
739.9649, 752.0050
740.4470, 751.5787
740.9291, 750.0306
741.4113, 747.5428
741.8934, 746.2273
742.3755, 746.7443
742.8576, 747.2291
743.3397, 746.6320
743.8218, 745.2444
744.3040, 745.9535
744.7861, 748.8232
745.2682, 751.1645
745.7503, 750.8082
746.2324, 748.8761
746.7145, 746.6962
747.1967, 744.4041
747.6788, 743.1415
748.1609, 744.9413
748.6430, 746.9025
749.1251, 746.6543
749.6072, 743.1605
750.0894, 742.0993
750.5715, 745.4512
751.0536, 748.8819
751.5357, 749.0794
752.0178, 745.5703
752.4999, 745.2596
752.9821, 748.5833
753.4642, 752.2879
753.9463, 753.0532
754.4284, 752.0165
754.9105, 751.4596
755.3926, 751.7090
755.8748, 751.9652
756.3569, 751.5446
756.8390, 750.9808
757.3211, 750.7460
757.8032, 750.9992
758.2853, 751.4030
758.7675, 752.0190
759.2496, 752.6715
759.7318, 753.1599
760.2139, 753.4274
760.6960, 753.9833
761.1781, 754.8992
761.6602, 756.0154
762.1423, 757.5646
762.6245, 759.1352
763.1066, 759.5827
763.5887, 758.4008
764.0708, 756.9823
764.5529, 756.0817
765.0350, 755.5935
765.5172, 755.3911
765.9993, 755.5562
766.4814, 755.8629
766.9635, 756.3671
767.4456, 756.9233
767.9277, 757.3535
768.4099, 757.6501
768.8920, 757.8516
769.3741, 758.0155
769.8562, 757.9310
770.3383, 756.6806
770.8204, 754.9236
771.3026, 754.6013
771.7847, 757.1136
772.2668, 759.7257
772.7489, 760.6603
773.2310, 760.4792
773.7131, 760.0536
774.1953, 759.3720
774.6774, 758.7579
775.1595, 758.3506
775.6416, 757.9860
776.1237, 757.0841
776.6058, 755.4207
777.0880, 755.0460
777.5701, 756.7062
778.0522, 759.3931
778.5343, 761.7346
779.0164, 763.7101
779.4985, 765.3162
779.9807, 767.1142
780.4628, 767.8006
780.9449, 765.0937
781.4270, 760.8503
781.9091, 758.8865
782.3912, 763.0605
782.8734, 765.5974
783.3555, 764.5919
783.8376, 761.7009
784.3197, 761.2143
784.8018, 763.3412
785.2839, 765.5673
785.7661, 767.6227
786.2482, 768.6258
786.7303, 765.7914
787.2124, 760.5508
787.6945, 756.8998
788.1766, 757.6550
788.6588, 759.5150
789.1409, 761.6710
789.6230, 763.6376
790.1051, 764.0096
790.5872, 760.8492
791.0693, 759.0154
791.5515, 759.9430
792.0336, 762.5809
792.5157, 763.9323
792.9978, 763.9960
793.4799, 763.6479
793.9620, 763.1697
794.4442, 762.5087
794.9263, 761.1818
795.4084, 759.5694
795.8905, 758.7103
796.3726, 759.5155
796.8547, 760.6918
797.3369, 761.4861
797.8190, 762.2061
798.3011, 764.0762
798.7832, 768.5219
799.2653, 771.1916
799.7474, 770.5184
800.2296, 767.7483
800.7117, 766.2911
801.1938, 766.0562
801.6759, 766.0612
802.1580, 765.7706
802.6401, 765.6552
803.1223, 766.5478
803.6044, 768.0751
804.0865, 769.2367
804.5686, 769.6377
805.0507, 769.6829
805.5328, 769.2487
806.0150, 768.5893
806.4971, 768.4269
806.9792, 769.0488
807.4613, 769.2198
807.9434, 768.4178
808.4255, 767.1553
808.9077, 766.4559
809.3898, 766.2956
809.8719, 766.6110
810.3540, 767.8729
810.8361, 769.0479
811.3182, 769.1823
811.8004, 768.6005
812.2825, 768.0872
812.7646, 767.7590
813.2467, 767.6091
813.7288, 767.5565
814.2109, 767.7117
814.6931, 768.4218
815.1752, 769.7594
815.6573, 771.2225
816.1394, 772.9537
816.6215, 774.3121
817.1037, 773.7354
817.5858, 771.8953
818.0679, 770.5347
818.5500, 770.1393
819.0322, 770.6819
819.5143, 773.2443
819.9964, 776.5658
820.4785, 777.8636
820.9606, 775.8141
821.4427, 773.9183
821.9249, 772.4507
822.4070, 771.6393
822.8891, 772.4914
823.3712, 774.7912
823.8533, 776.0421
824.3354, 775.1727
824.8176, 773.7926
825.2997, 773.6046
825.7818, 774.2267
826.2639, 775.0002
826.7460, 776.4391
827.2281, 777.1395
827.7103, 776.1716
828.1924, 774.5891
828.6745, 773.7747
829.1566, 773.9241
829.6387, 774.0365
830.1208, 773.9019
830.6030, 773.8082
831.0851, 774.4376
831.5672, 775.4586
832.0493, 776.0223
832.5314, 775.9869
833.0135, 775.1856
833.4957, 771.9685
833.9778, 768.5968
834.4599, 767.6968
834.9420, 773.3870
835.4241, 776.3596
835.9063, 775.5994
836.3884, 773.3365
836.8705, 772.1604
837.3526, 772.0411
837.8347, 771.4899
838.3168, 770.1868
838.7990, 769.1798
839.2811, 769.8498
839.7632, 771.3636
840.2453, 772.5885
840.7274, 773.2589
841.2095, 773.7762
841.6917, 774.3947
842.1738, 774.7981
842.6559, 774.6669
843.1380, 773.6695
843.6201, 773.3857
844.1022, 773.9767
844.5844, 774.7277
845.0665, 775.1816
845.5486, 775.2538
846.0307, 774.2845
846.5128, 772.1832
846.9949, 770.9498
847.4771, 773.2838
847.9592, 776.0536
848.4413, 776.5842
848.9234, 773.9834
849.4055, 772.4318
849.8876, 772.3927
850.3698, 772.8688
850.8519, 773.3713
851.3340, 773.8931
851.8161, 774.2227
852.2982, 774.3580
852.7803, 774.9622
853.2625, 777.5565
853.7446, 780.1750
854.2267, 780.2426
854.7088, 777.9266
855.1909, 776.3853
855.6730, 777.6130
856.1552, 778.8223
856.6373, 778.8417
857.1194, 777.8702
857.6015, 777.6470
858.0836, 778.3314
858.5657, 778.5920
859.0479, 777.4395
859.5300, 775.7175
860.0121, 775.1787
860.4942, 775.5318
860.9763, 775.7561
861.4584, 774.7762
861.9406, 774.1355
862.4227, 775.0630
862.9048, 776.9453
863.3869, 777.5400
863.8690, 776.1843
864.3511, 775.1528
864.8333, 774.9291
865.3154, 775.3555
865.7975, 776.4221
866.2796, 777.9150
866.7617, 778.9667
867.2438, 779.3990
867.7260, 779.0823
868.2081, 776.6695
868.6902, 773.8023
869.1723, 772.9900
869.6544, 777.1474
870.1365, 780.0092
870.6187, 780.9169
871.1008, 780.7971
871.5829, 780.6760
872.0650, 780.5778
872.5471, 781.0308
873.0292, 782.2431
873.5114, 783.3762
873.9935, 783.8270
874.4756, 783.5720
874.9577, 782.3384
875.4399, 779.4772
875.9220, 777.5651
876.4041, 777.7089
876.8862, 778.6564
877.3683, 779.8668
877.8505, 781.5165
878.3326, 781.9180
878.8147, 780.8777
879.2968, 779.9384
879.7789, 780.8607
880.2610, 782.5895
880.7432, 783.3350
881.2253, 783.0115
881.7074, 782.6845
882.1895, 782.6573
882.6716, 782.9548
883.1537, 783.8817
883.6359, 785.3592
884.1180, 785.7408
884.6001, 784.7422
885.0822, 783.9006
885.5643, 784.1844
886.0464, 785.0117
886.5286, 784.9117
887.0107, 784.0686
887.4928, 783.2273
887.9749, 782.6229
888.4570, 782.2964
888.9391, 782.7589
889.4213, 783.5238
889.9034, 782.9373
890.3855, 779.9385
890.8676, 778.1376
891.3497, 778.5815
891.8318, 780.1130
892.3140, 780.6196
892.7961, 780.3046
893.2782, 779.8102
893.7603, 778.8644
894.2424, 778.9012
894.7245, 782.6168
895.2067, 787.2195
895.6888, 789.2760
896.1709, 785.7441
896.6530, 783.6285
897.1351, 783.2631
897.6172, 783.8192
898.0994, 784.7662
898.5815, 785.9870
899.0636, 786.3566
899.5457, 785.7055
900.0278, 785.3398
900.5099, 786.8293
900.9921, 788.7731
901.4742, 789.9404
901.9563, 790.1289
902.4384, 789.8424
902.9205, 788.7758
903.4026, 787.8215
903.8848, 787.4651
904.3669, 787.6162
904.8490, 787.3551
905.3311, 786.7087
905.8132, 786.4360
906.2953, 787.4592
906.7775, 788.7170
907.2596, 789.1036
907.7417, 788.8112
908.2238, 788.5758
908.7059, 788.9964
909.1880, 788.9077
909.6702, 787.5011
910.1523, 785.7990
910.6344, 786.7831
911.1165, 790.3799
911.5986, 792.8621
912.0807, 793.0791
912.5629, 792.1478
913.0450, 790.2247
913.5271, 788.3707
914.0092, 788.3239
914.4913, 792.5102
914.9734, 794.9509
915.4556, 793.9404
915.9377, 791.6577
916.4198, 789.5984
916.9019, 787.6750
917.3840, 787.8659
917.8661, 790.4604
918.3483, 793.4205
918.8304, 795.1522
919.3125, 796.0692
919.7946, 796.7571
920.2767, 797.2739
920.7589, 796.9847
921.2410, 794.2297
921.7231, 792.2221
922.2052, 792.6653
922.6873, 795.1282
923.1694, 795.5148
923.6516, 793.7523
924.1337, 792.2209
924.6158, 792.0157
925.0979, 792.7725
925.5800, 794.5636
926.0621, 796.9113
926.5443, 798.6525
927.0264, 799.5106
927.5085, 799.4495
927.9906, 797.5936
928.4727, 795.4808
928.9548, 796.1549
929.4370, 799.7580
929.9191, 801.9973
930.4012, 801.9485
930.8833, 801.1212
931.3654, 801.1602
931.8475, 801.4849
932.3297, 801.0746
932.8118, 799.2293
933.2939, 798.5519
933.7761, 800.9631
934.2582, 803.3761
934.7403, 803.8206
935.2224, 802.2341
935.7045, 801.2736
936.1866, 800.9468
936.6688, 800.7221
937.1509, 799.8973
937.6330, 799.2052
938.1151, 799.6825
938.5972, 801.1454
939.0793, 802.4969
939.5615, 804.0279
940.0436, 804.5911
940.5257, 803.3251
941.0078, 801.2695
941.4899, 801.7551
941.9720, 804.6494
942.4542, 806.0822
942.9363, 804.2863
943.4184, 802.2796
943.9005, 803.7165
944.3826, 806.8518
944.8647, 809.2961
945.3469, 810.1249
945.8290, 810.8066
946.3111, 811.3802
946.7932, 811.9589
947.2753, 812.4598
947.7574, 812.9344
948.2396, 814.7870
948.7217, 818.0888
949.2038, 820.4584
949.6859, 819.0987
950.1680, 816.6924
950.6501, 815.5037
951.1323, 815.6429
951.6144, 816.1343
952.0965, 816.8503
952.5786, 817.8714
953.0607, 819.2538
953.5428, 820.9346
954.0250, 822.8496
954.5071, 824.9315
954.9892, 826.7977
955.4713, 828.1696
955.9534, 829.4482
956.4355, 831.3605
956.9177, 833.1957
957.3998, 833.8832
957.8819, 832.3013
958.3640, 831.4372
958.8461, 831.3021
959.3282, 832.0124
959.8104, 834.4527
960.2925, 837.8431
960.7746, 838.9413
961.2567, 837.5093
961.7388, 836.5258
962.2209, 839.0686
962.7031, 841.7454
963.1852, 841.4034
963.6673, 838.2551
964.1494, 838.5306
964.6315, 843.3349
965.1136, 847.7318
965.5958, 849.8958
966.0779, 850.4490
966.5600, 849.8235
967.0421, 848.6745
967.5242, 848.8502
968.0063, 852.3870
968.4885, 855.5621
968.9706, 856.8010
969.4527, 857.0311
969.9348, 857.2498
970.4169, 857.2751
970.8990, 858.2584
971.3812, 860.3055
971.8633, 863.0509
972.3454, 866.6374
972.8275, 870.4022
973.3096, 873.1943
973.7917, 874.9137
974.2739, 877.0302
974.7560, 880.5177
975.2381, 883.9492
975.7202, 886.4092
976.2023, 888.3858
976.6844, 893.0363
977.1666, 900.3525
977.6487, 906.2282
978.1308, 908.2526
978.6129, 909.2377
979.0950, 911.4089
979.5771, 914.8043
980.0593, 919.4807
980.5414, 926.9813
981.0235, 933.4806
981.5056, 938.4078
981.9877, 943.0027
982.4698, 948.9404
982.9520, 955.8564
983.4341, 961.3851
983.9162, 965.3770
984.3983, 968.8178
984.8804, 971.9764
985.3625, 975.2177
985.8447, 978.9086
986.3268, 983.0261
986.8089, 986.9848
987.2910, 991.5634
987.7731, 993.5965
988.2552, 991.2841
988.7374, 986.9048
989.2195, 985.3769
989.7016, 985.6168
990.1837, 984.7517
990.6658, 981.1656
991.1479, 977.6432
991.6301, 975.3519
992.1122, 973.6772
992.5944, 972.1305
993.0765, 970.9153
993.5586, 968.6099
994.0407, 965.0484
994.5228, 961.5652
995.0049, 959.6473
995.4871, 958.2177
995.9692, 955.9318
996.4513, 952.7497
996.9334, 949.0172
997.4155, 943.1913
997.8976, 939.0137
998.3798, 937.9514
998.8619, 938.6741
999.3440, 937.9675
999.8261, 935.9616
1000.308, 933.9547
1000.790, 932.2936
1001.272, 930.6799
1001.755, 928.8583
1002.237, 926.9279
1002.719, 925.1648
1003.201, 924.0637
1003.683, 921.1828
1004.165, 915.5646
1004.647, 910.5284
1005.129, 908.6876
1005.612, 908.9521
1006.094, 908.6348
1006.576, 907.5996
1007.058, 905.1726
1007.540, 899.1395
1008.022, 893.7579
1008.504, 890.6618
1008.986, 889.3538
1009.468, 889.3738
1009.951, 890.9597
1010.433, 892.0565
1010.915, 892.4678
1011.397, 891.7528
1011.879, 888.1658
1012.361, 883.8459
1012.843, 881.5901
1013.325, 882.0481
1013.807, 882.5662
1014.290, 883.2074
1014.772, 883.0189
1015.254, 881.2570
1015.736, 878.4252
1016.218, 876.5842
1016.700, 875.5899
1017.182, 874.5999
1017.664, 873.0870
1018.147, 871.6469
1018.629, 870.8905
1019.111, 870.3631
1019.593, 869.2215
1020.075, 866.7930
1020.557, 865.9714
1021.039, 867.2487
1021.521, 868.6625
1022.003, 868.2166
1022.486, 866.6730
1022.968, 865.1893
1023.450, 863.8738
1023.932, 862.9609
1024.414, 862.9591
1024.896, 862.8981
1025.378, 862.3884
1025.860, 861.6362
1026.343, 861.4094
1026.825, 861.6345
1027.307, 861.1005
1027.789, 859.1830
1028.271, 857.3738
1028.753, 857.1791
1029.235, 857.7269
1029.717, 858.0964
1030.199, 858.1689
1030.682, 858.1253
1031.164, 858.2236
1031.646, 857.4561
1032.128, 853.9199
1032.610, 849.5063
1033.092, 849.6180
1033.574, 853.3215
1034.056, 857.1873
1034.539, 861.1611
1035.021, 863.1750
1035.503, 861.2291
1035.985, 857.8514
1036.467, 856.5463
1036.949, 857.3962
1037.431, 857.1796
1037.913, 855.4767
1038.396, 853.3886
1038.878, 851.1385
1039.360, 849.5009
1039.842, 849.5159
1040.324, 851.2574
1040.806, 852.4504
1041.288, 852.8463
1041.770, 853.0206
1042.252, 853.1849
1042.734, 853.2172
1043.217, 852.5700
1043.699, 851.6025
1044.181, 851.2916
1044.663, 852.1694
1045.145, 853.1669
1045.627, 853.9597
1046.109, 854.6393
1046.591, 855.3367
1047.074, 856.0741
1047.556, 856.1741
1048.038, 855.6375
1048.520, 854.9703
1049.002, 854.3180
1049.484, 853.8610
1049.966, 853.9270
1050.448, 854.3113
1050.931, 854.3837
1051.413, 853.6260
1051.895, 853.7241
1052.377, 855.2487
1052.859, 856.7239
1053.341, 855.9689
1053.823, 853.9072
1054.305, 852.4651
1054.787, 851.8676
1055.270, 851.8799
1055.752, 852.8013
1056.234, 853.9061
1056.716, 854.9540
1057.198, 855.9016
1057.680, 856.6942
1058.162, 857.2960
1058.644, 857.0977
1059.126, 855.6192
1059.609, 853.9850
1060.091, 853.0738
1060.573, 852.6454
1061.055, 852.3853
1061.537, 852.0283
1062.019, 853.0120
1062.501, 855.8299
1062.983, 858.2162
1063.466, 858.4102
1063.948, 857.3204
1064.430, 856.4557
1064.912, 855.7497
1065.394, 854.9823
1065.876, 853.0928
1066.358, 852.6257
1066.840, 854.7400
1067.323, 857.4789
1067.805, 858.2077
1068.287, 857.2586
1068.769, 856.9429
1069.251, 857.4391
1069.733, 858.3450
1070.215, 860.3953
1070.697, 861.8059
1071.179, 860.5262
1071.661, 857.4330
1072.144, 856.5745
1072.626, 858.3886
1073.108, 859.2877
1073.590, 857.9662
1074.072, 856.5832
1074.554, 858.7502
1075.036, 862.0988
1075.518, 863.3447
1076.001, 861.3900
1076.483, 859.7728
1076.965, 858.6937
1077.447, 858.2391
1077.929, 858.8370
1078.411, 859.8822
1078.893, 859.1825
1079.375, 857.3478
1079.858, 856.3947
1080.340, 857.9446
1080.822, 859.3242
1081.304, 858.9888
1081.786, 858.5154
1082.268, 859.5340
1082.750, 862.0690
1083.232, 863.8922
1083.714, 864.9580
1084.197, 865.0761
1084.679, 862.6744
1085.161, 860.6161
1085.643, 861.9601
1086.125, 865.4593
1086.607, 866.7538
1087.089, 865.0041
1087.571, 863.8585
1088.054, 864.0016
1088.536, 864.3180
1089.018, 862.9974
1089.500, 861.2460
1089.982, 861.1693
1090.464, 863.0117
1090.946, 863.8401
1091.428, 861.7631
1091.911, 860.8386
1092.393, 862.8879
1092.875, 866.2621
1093.357, 866.8279
1093.839, 865.3587
1094.321, 864.2604
1094.803, 864.1992
1095.285, 864.5865
1095.767, 865.4803
1096.250, 866.4548
1096.732, 867.2740
1097.214, 867.9333
1097.696, 868.3176
1098.178, 868.4366
1098.660, 868.4213
1099.142, 868.3125
1099.624, 868.1352
1100.106, 867.4032
1100.589, 866.8300
1101.071, 867.7325
1101.553, 871.0918
1102.035, 872.5748
1102.517, 871.8634
1102.999, 870.6301
1103.481, 870.0057
1103.963, 869.8612
1104.446, 870.5934
1104.928, 871.7621
1105.410, 871.5545
1105.892, 867.7811
1106.374, 865.6368
1106.856, 865.9213
1107.338, 867.8075
1107.820, 871.4169
1108.302, 875.4702
1108.785, 876.5872
1109.267, 874.3817
1109.749, 872.2574
1110.231, 870.9385
1110.713, 870.9904
1111.195, 873.2490
1111.677, 876.5463
1112.159, 877.9360
1112.641, 877.4637
1113.124, 874.8641
1113.606, 869.3285
1114.088, 864.8508
1114.570, 864.4489
1115.052, 865.9899
1115.534, 868.3822
1116.016, 871.4398
1116.498, 872.2537
1116.981, 870.7657
1117.463, 868.8424
1117.945, 866.6490
1118.427, 865.4033
1118.909, 867.4220
1119.391, 870.6846
1119.873, 872.2414
1120.355, 871.2869
1120.838, 869.8544
1121.320, 867.5928
1121.802, 866.3271
1122.284, 868.5338
1122.766, 871.7457
1123.248, 871.8380
1123.730, 869.8459
1124.212, 868.6153
1124.694, 869.8055
1125.177, 870.5858
1125.659, 870.5938
1126.141, 870.5072
1126.623, 871.3181
1127.105, 872.5361
1127.587, 872.7362
1128.069, 871.9684
1128.551, 871.1871
1129.033, 870.7936
1129.516, 870.4297
1129.998, 869.8290
1130.480, 869.3362
1130.962, 869.8694
1131.444, 871.1058
1131.926, 871.3015
1132.408, 870.1777
1132.890, 868.8411
1133.373, 866.9850
1133.855, 866.2027
1134.337, 868.0360
1134.819, 871.4897
1135.301, 873.2033
1135.783, 873.2083
1136.265, 872.2839
1136.747, 870.3906
1137.229, 868.6065
1137.712, 867.8832
1138.194, 867.6592
1138.676, 867.3379
1139.158, 866.8835
1139.640, 867.5008
1140.122, 869.3700
1140.604, 870.4836
1141.086, 869.6495
1141.569, 868.4009
1142.051, 868.7757
1142.533, 869.6592
1143.015, 869.3949
1143.497, 867.1282
1143.979, 865.7722
1144.461, 865.2442
1144.943, 866.0393
1145.426, 869.6076
1145.908, 873.6973
1146.390, 874.2287
1146.872, 872.4999
1147.354, 871.2374
1147.836, 872.1494
1148.318, 872.0287
1148.800, 870.5597
1149.282, 868.6279
1149.765, 866.4258
1150.247, 864.5314
1150.729, 864.3792
1151.211, 865.7665
1151.693, 867.6823
1152.175, 871.5290
1152.657, 873.1172
1153.139, 870.7552
1153.621, 867.6696
1154.104, 868.1962
1154.586, 871.1406
1155.068, 872.3084
1155.550, 871.6003
1156.032, 871.0722
1156.514, 871.9980
1156.996, 872.9531
1157.478, 873.5739
1157.961, 873.8614
1158.443, 873.6268
1158.925, 873.0085
1159.407, 872.7756
1159.889, 873.0325
1160.371, 873.6744
1160.853, 875.4861
1161.335, 876.7132
1161.818, 875.9573
1162.300, 876.9890
1162.782, 877.2064
1163.264, 876.5250
1163.746, 877.2846
1164.228, 875.7805
1164.710, 874.3688
1165.192, 875.4276
1165.674, 876.6469
1166.156, 876.0764
1166.639, 874.0809
1167.121, 872.9700
1167.603, 872.7537
1168.085, 872.8704
1168.567, 873.3578
1169.049, 873.5026
1169.531, 871.2939
1170.013, 869.4008
1170.496, 871.3556
1170.978, 877.2331
1171.460, 880.0272
1171.942, 879.6263
1172.424, 878.2415
1172.906, 876.3768
1173.388, 874.7610
1173.870, 873.7125
1174.353, 873.5838
1174.835, 875.3019
1175.317, 879.5106
1175.799, 881.7267
1176.281, 881.8542
1176.763, 880.9203
1177.245, 878.9418
1177.727, 876.8254
1178.209, 875.2291
1178.692, 874.3392
1179.174, 874.6054
1179.656, 876.6866
1180.138, 878.2311
1180.620, 879.3160
1181.102, 879.4871
1181.584, 876.8184
1182.066, 874.2596
1182.548, 876.8120
1183.031, 882.2547
1183.513, 885.2809
1183.995, 883.8602
1184.477, 882.8729
1184.959, 882.6354
1185.441, 882.3701
1185.923, 881.2677
1186.405, 879.8243
1186.888, 878.2747
1187.370, 876.9541
1187.852, 877.0992
1188.334, 880.1299
1188.816, 881.9492
1189.298, 881.9373
1189.780, 881.4769
1190.262, 882.2532
1190.745, 883.3381
1191.227, 883.0282
1191.709, 881.5746
1192.191, 880.8301
1192.673, 881.8492
1193.155, 882.1768
1193.637, 881.3137
1194.119, 880.1389
1194.601, 879.2725
1195.084, 879.0093
1195.566, 880.2990
1196.048, 882.9863
1196.530, 884.7375
1197.012, 884.9824
1197.494, 884.4426
1197.976, 882.9130
1198.458, 881.4412
1198.941, 881.8551
1199.423, 883.1922
1199.905, 883.8823
1200.387, 883.7585
1200.869, 883.2610
1201.351, 882.1823
1201.833, 881.3109
1202.315, 880.7296
1202.797, 880.6825
1203.280, 882.0616
1203.762, 884.0543
1204.244, 885.2341
1204.726, 885.3594
1205.208, 885.3243
1205.690, 885.3754
1206.172, 885.0713
1206.654, 884.0140
1207.136, 883.0157
1207.619, 883.9083
1208.101, 885.7090
1208.583, 886.7804
1209.065, 886.8215
1209.547, 885.9548
1210.029, 883.0437
1210.511, 881.9020
1210.993, 884.6127
1211.476, 888.6524
1211.958, 889.1722
1212.440, 887.7733
1212.922, 887.5291
1213.404, 889.5080
1213.886, 889.8941
1214.368, 887.3499
1214.850, 885.5755
1215.333, 886.3817
1215.815, 888.4326
1216.297, 889.5638
1216.779, 890.0727
1217.261, 890.4108
1217.743, 890.5244
1218.225, 891.3088
1218.707, 893.4188
1219.189, 894.5490
1219.672, 893.2348
1220.154, 890.8046
1220.636, 889.3695
1221.118, 888.7109
1221.600, 888.5347
1222.082, 889.0735
1222.564, 889.0124
1223.046, 887.9113
1223.528, 887.3767
1224.011, 888.5553
1224.493, 890.4129
1224.975, 891.3228
1225.457, 891.5901
1225.939, 891.6905
1226.421, 891.4189
1226.903, 892.1621
1227.385, 894.4862
1227.868, 895.7827
1228.350, 893.9318
1228.832, 890.9542
1229.314, 889.6825
1229.796, 889.5900
1230.278, 889.8010
1230.760, 889.9954
1231.242, 891.2582
1231.724, 893.9636
1232.207, 895.9513
1232.689, 895.2390
1233.171, 893.8551
1233.653, 895.1047
1234.135, 897.2882
1234.617, 897.3535
1235.099, 894.0912
1235.581, 891.5442
1236.063, 889.6815
1236.546, 888.9838
1237.028, 890.5811
1237.510, 892.6568
1237.992, 893.4973
1238.474, 893.4332
1238.956, 892.7394
1239.438, 890.8102
1239.920, 891.5831
1240.403, 895.2944
1240.885, 898.1913
1241.367, 896.6677
1241.849, 894.4982
1242.331, 895.1268
1242.813, 897.1344
1243.295, 898.4422
1243.777, 898.9650
1244.260, 898.5907
1244.742, 897.3096
1245.224, 896.6240
1245.706, 898.1047
1246.188, 899.8146
1246.670, 900.4036
1247.152, 900.4757
1247.634, 901.0673
1248.116, 902.3300
1248.599, 901.4918
1249.081, 898.7838
1249.563, 897.6373
1250.045, 902.6627
1250.527, 906.8403
1251.009, 905.2437
1251.491, 901.7475
1251.973, 900.1344
1252.455, 900.3396
1252.938, 901.3876
1253.420, 903.0768
1253.902, 904.0166
1254.384, 902.5110
1254.866, 901.3211
1255.348, 901.7220
1255.830, 902.5982
1256.313, 902.9217
1256.795, 902.8516
1257.277, 903.3316
1257.759, 904.3368
1258.241, 905.6423
1258.723, 908.3780
1259.205, 909.5042
1259.687, 907.6190
1260.169, 905.4017
1260.651, 905.2559
1261.134, 906.6387
1261.616, 908.2411
1262.098, 909.8466
1262.580, 910.8568
1263.062, 911.5057
1263.544, 910.3915
1264.026, 906.3774
1264.508, 903.0646
1264.991, 904.2941
1265.473, 907.8680
1265.955, 909.9588
1266.437, 910.8184
1266.919, 911.1989
1267.401, 911.0181
1267.883, 910.8606
1268.365, 910.7273
1268.848, 910.6994
1269.330, 910.9141
1269.812, 911.2219
1270.294, 911.2100
1270.776, 911.1861
1271.258, 912.0087
1271.740, 914.5890
1272.222, 914.7347
1272.704, 912.0492
1273.187, 909.9819
1273.669, 911.7181
1274.151, 914.3047
1274.633, 915.5090
1275.115, 915.6454
1275.597, 915.2183
1276.079, 914.0943
1276.561, 913.6659
1277.043, 913.9327
1277.526, 914.3710
1278.008, 914.7823
1278.490, 915.1635
1278.972, 916.1139
1279.454, 916.5681
1279.936, 914.8704
1280.418, 911.1978
1280.900, 910.2265
1281.383, 911.7305
1281.865, 914.2399
1282.347, 918.7270
1282.829, 921.6644
1283.311, 921.2139
1283.793, 919.5654
1284.275, 917.8245
1284.757, 916.2591
1285.240, 916.1857
1285.722, 917.3105
1286.204, 918.7117
1286.686, 920.4548
1287.168, 921.7734
1287.650, 922.7508
1288.132, 923.0215
1288.614, 921.8346
1289.096, 920.1380
1289.578, 919.9778
1290.061, 920.7793
1290.543, 921.3918
1291.025, 921.6258
1291.507, 921.0753
1291.989, 919.3309
1292.471, 918.7190
1292.953, 921.4711
1293.435, 924.8735
1293.918, 925.9997
1294.400, 925.4977
1294.882, 924.0150
1295.364, 921.4792
1295.846, 919.6000
1296.328, 918.3773
1296.810, 919.2400
1297.292, 924.5799
1297.775, 928.9442
1298.257, 927.1263
1298.739, 923.2706
1299.221, 921.3168
1299.703, 921.0450
1300.185, 920.1525
1300.667, 918.9010
1301.149, 918.9765
1301.631, 921.7961
1302.114, 923.5566
1302.596, 924.0458
##END=



