##NAMES=Zemannite
##RRUFFID=R050273
##IDEAL CHEMISTRY=Mg_0.5_Zn^2+^Fe^3+^(Te^4+^O_3_)_3_&#183;<i>n</i>H_2_O (3&#8804;<i>n</i>&#8804;4.5)
##LOCALITY=Mina Bambollita, Moctezuma, Sonora, Mexico
##OWNER=RRUFF
##SOURCE=Marcus Origlieri
##DESCRIPTION=Dark reddish-brown hexagonal prisms
##STATUS=The identification of this mineral has been confirmed by single-crystal X-ray diffraction.
##URL=rruff.info/R050273
92.54132, 0.0000000E+00
93.02344, 1.075869
93.50555, 1.031375
93.98767, 1.015185
94.46979, 1.005582
94.95190, 1.025613
95.43402, 1.141241
95.91614, 1.360140
96.39825, 1.635394
96.88037, 1.925655
97.36249, 2.229911
97.84460, 2.502477
98.32672, 2.685108
98.80884, 2.786280
99.29095, 2.982821
99.77307, 3.302421
100.2552, 3.692361
100.7373, 4.021697
101.2194, 4.267163
101.7015, 4.530739
102.1837, 4.865377
102.6658, 5.262827
103.1479, 5.764311
103.6300, 6.407765
104.1121, 7.161929
104.5942, 7.844604
105.0763, 8.449322
105.5585, 8.999234
106.0406, 9.513933
106.5227, 9.955362
107.0048, 10.42062
107.4869, 10.92804
107.9690, 11.48150
108.4512, 12.02504
108.9333, 12.58775
109.4154, 13.13051
109.8975, 13.61449
110.3796, 13.91700
110.8617, 14.28376
111.3439, 14.76948
111.8260, 15.40145
112.3081, 16.05927
112.7902, 16.68480
113.2723, 17.34426
113.7544, 18.12016
114.2366, 19.14730
114.7187, 20.19770
115.2008, 21.16511
115.6829, 21.98664
116.1650, 22.83883
116.6471, 23.82651
117.1293, 24.89102
117.6114, 25.90743
118.0935, 26.78007
118.5756, 27.61574
119.0577, 28.49201
119.5398, 29.42585
120.0220, 30.39433
120.5041, 31.46468
120.9862, 32.59379
121.4683, 33.60664
121.9504, 34.32934
122.4325, 34.90910
122.9147, 35.50747
123.3968, 36.12294
123.8789, 36.81725
124.3610, 37.67475
124.8431, 38.68642
125.3252, 39.71533
125.8074, 40.69959
126.2895, 41.62562
126.7716, 42.46628
127.2537, 43.07330
127.7358, 43.63841
128.2179, 44.48435
128.7001, 45.61903
129.1822, 46.85839
129.6643, 48.07849
130.1464, 49.26215
130.6285, 50.33794
131.1106, 51.18131
131.5928, 51.88029
132.0749, 52.77580
132.5570, 53.90664
133.0391, 55.06495
133.5212, 55.92338
134.0033, 56.39835
134.4855, 56.55252
134.9676, 56.56278
135.4497, 56.62135
135.9318, 56.68709
136.4139, 56.80252
136.8960, 56.86605
137.3782, 56.68941
137.8603, 56.27673
138.3424, 55.64802
138.8245, 54.76907
139.3066, 53.60124
139.7887, 52.46980
140.2709, 51.39965
140.7530, 50.38932
141.2351, 49.45532
141.7172, 48.62107
142.1993, 47.78945
142.6814, 46.89301
143.1636, 45.87789
143.6457, 44.92200
144.1278, 44.03733
144.6099, 43.22173
145.0920, 42.42358
145.5741, 41.58161
146.0563, 40.82048
146.5384, 40.25610
147.0205, 39.98863
147.5026, 39.74275
147.9847, 39.51017
148.4668, 39.29832
148.9490, 38.95770
149.4311, 38.33535
149.9132, 37.67675
150.3953, 37.21747
150.8774, 37.19374
151.3595, 37.11034
151.8417, 36.84658
152.3238, 36.35159
152.8059, 35.97443
153.2880, 35.82484
153.7701, 35.75849
154.2522, 35.61812
154.7344, 35.29650
155.2165, 34.98875
155.6986, 34.74585
156.1807, 34.57552
156.6628, 34.43709
157.1449, 34.36177
157.6271, 34.30637
158.1092, 34.21191
158.5913, 34.02750
159.0734, 33.83311
159.5555, 33.65563
160.0376, 33.49324
160.5198, 33.36168
161.0019, 33.25439
161.4840, 33.18171
161.9661, 33.16565
162.4482, 33.29218
162.9303, 33.42351
163.4125, 33.47144
163.8946, 33.38070
164.3767, 33.30126
164.8588, 33.30284
165.3409, 33.36576
165.8230, 33.44304
166.3052, 33.56506
166.7873, 33.66480
167.2694, 33.67838
167.7515, 33.54003
168.2336, 33.40742
168.7157, 33.36947
169.1978, 33.41525
169.6800, 33.50886
170.1621, 33.64814
170.6442, 33.81739
171.1263, 34.01581
171.6084, 34.30492
172.0905, 34.53538
172.5727, 34.49464
173.0548, 34.24431
173.5369, 34.08287
174.0190, 34.35257
174.5011, 34.78935
174.9832, 35.00946
175.4654, 34.78406
175.9475, 34.44097
176.4296, 34.32579
176.9117, 34.42147
177.3938, 34.58425
177.8759, 34.76473
178.3581, 34.93120
178.8402, 35.02404
179.3223, 35.03920
179.8044, 34.96106
180.2865, 34.66872
180.7686, 34.17501
181.2508, 33.78643
181.7329, 33.86535
182.2150, 34.26637
182.6971, 34.59636
183.1792, 34.68709
183.6613, 34.64990
184.1435, 34.71929
184.6256, 34.90014
185.1077, 35.05567
185.5898, 34.97194
186.0719, 34.72078
186.5540, 34.61808
187.0362, 34.86138
187.5183, 35.30665
188.0004, 35.53060
188.4825, 35.51511
188.9646, 35.45869
189.4467, 35.59989
189.9289, 35.91361
190.4110, 36.18842
190.8931, 36.31810
191.3752, 36.35199
191.8573, 36.49978
192.3394, 36.77535
192.8216, 37.10369
193.3037, 37.40746
193.7858, 37.68718
194.2679, 37.95739
194.7500, 38.23775
195.2321, 38.51697
195.7143, 38.72768
196.1964, 38.86374
196.6785, 38.94555
197.1606, 38.97534
197.6427, 38.94781
198.1248, 38.95098
198.6070, 38.99641
199.0891, 39.08824
199.5712, 39.31458
200.0533, 39.70168
200.5354, 40.15627
201.0175, 40.54533
201.4997, 40.86195
201.9818, 41.17294
202.4639, 41.54036
202.9460, 41.96515
203.4281, 42.18611
203.9102, 42.13351
204.3924, 42.00576
204.8745, 42.08599
205.3566, 42.39751
205.8387, 42.81261
206.3208, 43.32322
206.8029, 43.94268
207.2851, 44.43660
207.7672, 44.76980
208.2493, 45.02869
208.7314, 45.36145
209.2135, 45.80825
209.6956, 46.19163
210.1778, 46.42100
210.6599, 46.47365
211.1420, 46.59380
211.6241, 46.79939
212.1062, 47.04837
212.5883, 47.28141
213.0705, 47.50438
213.5526, 47.69539
214.0347, 47.84172
214.5168, 47.94217
214.9989, 48.01124
215.4810, 48.03086
215.9632, 48.03612
216.4453, 48.08870
216.9274, 48.21097
217.4095, 48.32689
217.8916, 48.40499
218.3737, 48.43522
218.8559, 48.49113
219.3380, 48.59713
219.8201, 48.70661
220.3022, 48.72622
220.7843, 48.58318
221.2664, 48.51016
221.7486, 48.64368
222.2307, 49.07448
222.7128, 49.18130
223.1949, 48.79152
223.6770, 48.21719
224.1591, 47.96786
224.6413, 48.20890
225.1234, 48.44909
225.6055, 48.51392
226.0876, 48.33901
226.5697, 48.33227
227.0518, 48.62188
227.5340, 48.98126
228.0161, 49.02694
228.4982, 48.51960
228.9803, 48.13484
229.4624, 48.11308
229.9445, 48.54983
230.4267, 48.85523
230.9088, 48.99505
231.3909, 49.03454
231.8730, 49.05716
232.3551, 49.03075
232.8372, 49.04256
233.3194, 49.10754
233.8015, 49.22028
234.2836, 49.43609
234.7657, 49.81847
235.2478, 50.25347
235.7299, 50.60019
236.2121, 50.84229
236.6942, 51.02031
237.1763, 51.14732
237.6584, 51.22747
238.1405, 51.22111
238.6226, 51.08389
239.1048, 50.89649
239.5869, 50.76131
240.0690, 50.72729
240.5511, 50.65538
241.0332, 50.47895
241.5153, 50.17083
241.9975, 50.01838
242.4796, 50.11058
242.9617, 50.28153
243.4438, 50.34440
243.9259, 50.24915
244.4080, 50.13613
244.8902, 50.02810
245.3723, 49.92423
245.8544, 49.84271
246.3365, 49.79950
246.8186, 49.76360
247.3007, 49.70930
247.7829, 49.65733
248.2650, 49.54176
248.7471, 49.30554
249.2292, 48.94181
249.7113, 48.76858
250.1934, 48.95104
250.6756, 49.14154
251.1577, 48.99247
251.6398, 48.28186
252.1219, 47.69456
252.6040, 47.40078
253.0861, 47.38373
253.5683, 47.19720
254.0504, 46.78444
254.5325, 46.26890
255.0146, 45.72892
255.4967, 45.09850
255.9788, 44.60002
256.4609, 44.33397
256.9431, 44.25719
257.4252, 43.97173
257.9073, 43.40026
258.3894, 42.72660
258.8715, 42.06963
259.3536, 41.40786
259.8358, 40.80969
260.3179, 40.30691
260.8000, 39.87226
261.2821, 39.35163
261.7642, 38.65994
262.2463, 38.01806
262.7285, 37.56643
263.2106, 37.33858
263.6927, 37.21181
264.1748, 37.23781
264.6569, 37.34630
265.1390, 37.26978
265.6212, 36.94840
266.1033, 36.56779
266.5854, 36.21862
267.0675, 35.91111
267.5496, 35.61267
268.0317, 35.30308
268.5139, 35.01379
268.9960, 34.85241
269.4781, 34.86082
269.9602, 34.88425
270.4423, 34.84656
270.9244, 34.73792
271.4066, 34.61799
271.8887, 34.48981
272.3708, 34.34865
272.8529, 34.17664
273.3350, 33.95733
273.8171, 33.76659
274.2993, 33.65647
274.7814, 33.64429
275.2635, 33.54637
275.7456, 33.33089
276.2277, 33.07970
276.7098, 32.95234
277.1920, 32.98052
277.6741, 32.95593
278.1562, 32.77430
278.6383, 32.43432
279.1204, 32.18330
279.6025, 32.04682
280.0847, 31.93461
280.5668, 31.67562
281.0489, 31.24300
281.5310, 30.97053
282.0131, 31.02580
282.4952, 31.35801
282.9774, 31.56799
283.4595, 31.64669
283.9416, 31.64829
284.4237, 31.66110
284.9058, 31.68460
285.3879, 31.53331
285.8701, 31.05241
286.3522, 30.38791
286.8343, 30.13867
287.3164, 30.34918
287.7985, 30.63477
288.2806, 30.60345
288.7628, 30.29452
289.2449, 30.12761
289.7270, 30.25241
290.2091, 30.52016
290.6912, 30.53374
291.1733, 30.28961
291.6555, 30.03637
292.1376, 30.00894
292.6197, 30.14836
293.1018, 30.17185
293.5839, 30.01346
294.0660, 29.75686
294.5482, 29.49838
295.0303, 29.24684
295.5124, 29.08381
295.9945, 29.12171
296.4766, 29.28959
296.9587, 29.37996
297.4409, 29.35852
297.9230, 29.29748
298.4051, 29.30470
298.8872, 29.36155
299.3693, 29.38725
299.8514, 29.30481
300.3336, 29.16872
300.8157, 29.05535
301.2978, 28.96083
301.7799, 28.95088
302.2620, 29.16537
302.7441, 29.52806
303.2263, 29.83941
303.7084, 30.05972
304.1905, 30.15750
304.6726, 30.01886
305.1547, 29.63706
305.6368, 29.29879
306.1190, 29.24846
306.6011, 29.40844
307.0832, 29.64672
307.5653, 30.03016
308.0474, 30.38723
308.5295, 30.54873
309.0117, 30.52777
309.4938, 30.42034
309.9759, 30.16247
310.4580, 29.89753
310.9401, 29.81602
311.4222, 30.08937
311.9044, 30.40236
312.3865, 30.48610
312.8686, 30.40977
313.3507, 30.42752
313.8328, 30.83021
314.3149, 31.30044
314.7971, 31.54891
315.2792, 31.43046
315.7613, 31.28607
316.2434, 31.24601
316.7255, 31.30361
317.2076, 31.44477
317.6898, 31.82858
318.1719, 32.17457
318.6540, 32.26022
319.1361, 31.95528
319.6182, 31.78930
320.1003, 32.00819
320.5825, 32.45676
321.0646, 32.92179
321.5467, 33.44821
322.0288, 33.88922
322.5109, 34.17794
322.9930, 34.29663
323.4752, 34.36874
323.9573, 34.33461
324.4394, 34.30336
324.9215, 34.37323
325.4036, 34.64664
325.8857, 34.92895
326.3679, 35.13602
326.8500, 35.27849
327.3321, 35.57447
327.8142, 36.27472
328.2963, 36.97905
328.7784, 37.45039
329.2606, 37.52481
329.7427, 37.56066
330.2248, 37.48818
330.7069, 37.36967
331.1890, 37.45424
331.6711, 37.92601
332.1533, 38.40435
332.6354, 38.73262
333.1175, 38.84930
333.5996, 38.95022
334.0817, 39.02976
334.5638, 39.09576
335.0460, 39.15294
335.5281, 39.15590
336.0102, 39.23479
336.4923, 39.44959
336.9744, 39.82308
337.4565, 40.17350
337.9387, 40.52919
338.4208, 40.82860
338.9029, 40.95116
339.3850, 40.81855
339.8671, 40.81569
340.3492, 41.07274
340.8313, 41.55077
341.3134, 41.94808
341.7956, 42.28435
342.2777, 42.49210
342.7598, 42.47731
343.2419, 42.23217
343.7240, 41.97931
344.2061, 41.72065
344.6883, 41.51021
345.1704, 41.54285
345.6525, 41.83418
346.1346, 42.11179
346.6167, 42.18009
347.0988, 42.07304
347.5810, 41.99433
348.0631, 41.96247
348.5452, 41.94881
349.0273, 41.90382
349.5094, 41.83371
349.9915, 41.78363
350.4737, 41.75996
350.9558, 41.77296
351.4379, 41.90094
351.9200, 42.15653
352.4021, 42.33075
352.8842, 42.07729
353.3664, 41.59098
353.8485, 41.32732
354.3306, 41.58637
354.8127, 42.02862
355.2948, 42.29268
355.7769, 42.39058
356.2591, 42.38641
356.7412, 42.20852
357.2233, 41.99839
357.7054, 41.92798
358.1875, 42.08448
358.6696, 42.30403
359.1518, 42.49941
359.6339, 42.66991
360.1160, 42.81110
360.5981, 42.88864
361.0802, 42.95769
361.5623, 43.05085
362.0445, 43.17042
362.5266, 43.32121
363.0087, 43.54696
363.4908, 43.79134
363.9729, 43.98154
364.4550, 43.92999
364.9372, 43.97655
365.4193, 44.32777
365.9014, 44.99496
366.3835, 45.49321
366.8656, 45.56017
367.3477, 45.51625
367.8299, 45.59676
368.3120, 45.97124
368.7941, 46.30309
369.2762, 46.51764
369.7583, 46.65051
370.2404, 46.86897
370.7226, 47.35460
371.2047, 47.74659
371.6868, 47.86854
372.1689, 47.49664
372.6510, 47.38363
373.1331, 47.67730
373.6153, 48.14695
374.0974, 48.40264
374.5795, 48.33791
375.0616, 48.27077
375.5437, 48.29102
376.0258, 48.39980
376.5080, 48.52625
376.9901, 48.69482
377.4722, 48.83516
377.9543, 48.84005
378.4364, 48.67208
378.9185, 48.64070
379.4007, 48.84816
379.8828, 49.19877
380.3649, 49.38795
380.8470, 49.40011
381.3291, 49.37490
381.8112, 49.41460
382.2934, 49.50544
382.7755, 49.52769
383.2576, 49.45189
383.7397, 49.36549
384.2218, 49.44061
384.7039, 49.64018
385.1861, 49.75665
385.6682, 49.61605
386.1503, 49.34930
386.6324, 49.23092
387.1145, 49.26692
387.5966, 49.28598
388.0788, 49.05729
388.5609, 48.72250
389.0430, 48.54148
389.5251, 48.66982
390.0072, 48.88124
390.4893, 48.98196
390.9715, 48.99051
391.4536, 48.98126
391.9357, 49.04722
392.4178, 49.08248
392.8999, 48.98000
393.3820, 48.67943
393.8642, 48.38214
394.3463, 48.17579
394.8284, 48.03654
395.3105, 47.92974
395.7926, 47.89222
396.2747, 47.84077
396.7569, 47.76019
397.2390, 47.65096
397.7211, 47.46286
398.2032, 47.09380
398.6853, 46.69382
399.1674, 46.37699
399.6496, 46.23027
400.1317, 46.07116
400.6138, 45.88001
401.0959, 45.66520
401.5780, 45.45485
402.0602, 45.23106
402.5423, 45.03024
403.0244, 44.86194
403.5065, 44.71234
403.9886, 44.64834
404.4707, 44.71896
404.9529, 44.82790
405.4350, 44.85523
405.9171, 44.80653
406.3992, 44.64884
406.8813, 44.32819
407.3634, 43.88302
407.8456, 43.57210
408.3277, 43.41699
408.8098, 43.30693
409.2919, 43.13168
409.7740, 42.89947
410.2561, 42.60401
410.7383, 42.80038
411.2204, 42.90810
411.7025, 42.93266
412.1846, 42.58511
412.6667, 42.74850
413.1488, 42.72576
413.6310, 42.70813
414.1131, 42.98144
414.5952, 42.75641
415.0773, 43.05190
415.5594, 43.15820
416.0415, 43.37046
416.5237, 43.39538
417.0058, 43.49554
417.4879, 43.80972
417.9700, 44.02605
418.4521, 44.08099
418.9342, 44.37890
419.4164, 44.27982
419.8985, 44.55404
420.3806, 44.99691
420.8627, 45.12841
421.3448, 45.49643
421.8269, 45.79273
422.3091, 45.73108
422.7912, 45.84907
423.2733, 45.89614
423.7554, 45.93853
424.2375, 45.98673
424.7196, 46.04099
425.2018, 46.12795
425.6839, 46.22015
426.1660, 46.36758
426.6481, 46.60247
427.1302, 46.93677
427.6123, 47.34075
428.0945, 47.89260
428.5766, 48.49346
429.0587, 48.88420
429.5408, 48.91239
430.0229, 49.05681
430.5050, 49.54767
430.9872, 50.39938
431.4693, 51.04431
431.9514, 51.45064
432.4335, 51.74020
432.9156, 51.99018
433.3977, 52.19638
433.8799, 52.53897
434.3620, 53.08291
434.8441, 53.75027
435.3262, 54.40071
435.8083, 55.03127
436.2904, 55.58844
436.7726, 55.94938
437.2547, 56.22198
437.7368, 56.66631
438.2189, 57.31243
438.7010, 58.06195
439.1831, 58.90588
439.6652, 59.78474
440.1473, 60.58028
440.6295, 61.13504
441.1116, 61.68664
441.5937, 62.42068
442.0758, 63.32578
442.5579, 64.31676
443.0400, 65.53238
443.5222, 66.71268
444.0043, 67.62625
444.4864, 68.08020
444.9685, 68.64169
445.4506, 69.52436
445.9327, 70.61034
446.4149, 71.73513
446.8970, 72.77354
447.3791, 73.92703
447.8612, 75.33509
448.3433, 77.00661
448.8254, 78.47983
449.3076, 79.60632
449.7897, 80.65658
450.2718, 81.76737
450.7539, 82.85713
451.2360, 84.20652
451.7181, 85.98519
452.2003, 87.92882
452.6824, 89.40629
453.1645, 90.26991
453.6466, 91.28976
454.1287, 92.78586
454.6108, 94.71364
455.0930, 96.49757
455.5751, 98.15160
456.0572, 99.69233
456.5393, 101.1285
457.0214, 102.4626
457.5035, 103.6080
457.9857, 104.5082
458.4678, 105.3349
458.9499, 106.3722
459.4320, 107.5609
459.9141, 108.7084
460.3962, 109.7331
460.8784, 110.6431
461.3605, 111.3865
461.8426, 111.9729
462.3247, 112.5641
462.8068, 113.4901
463.2889, 114.3925
463.7711, 114.8593
464.2532, 114.4728
464.7353, 114.0618
465.2174, 114.0896
465.6995, 114.3382
466.1816, 114.2897
466.6638, 113.5416
467.1459, 112.7170
467.6280, 112.0667
468.1101, 111.6795
468.5922, 111.1083
469.0743, 110.3176
469.5565, 109.3602
470.0386, 108.2905
470.5207, 107.1685
471.0028, 105.8259
471.4849, 104.1873
471.9670, 102.3508
472.4492, 100.5519
472.9313, 98.80615
473.4134, 97.07922
473.8955, 95.31160
474.3776, 93.50813
474.8597, 91.98710
475.3419, 90.78648
475.8240, 89.62138
476.3061, 88.19762
476.7882, 86.55174
477.2703, 84.84367
477.7524, 83.08211
478.2346, 81.31730
478.7167, 79.54932
479.1988, 77.80162
479.6809, 76.16174
480.1630, 74.76321
480.6451, 73.44809
481.1273, 72.04176
481.6094, 70.52255
482.0915, 69.04534
482.5736, 67.76340
483.0557, 66.52507
483.5378, 65.16129
484.0200, 63.43708
484.5021, 61.81737
484.9842, 60.37702
485.4663, 59.12679
485.9484, 58.11666
486.4305, 57.64538
486.9127, 57.13472
487.3948, 56.38678
487.8769, 55.37040
488.3590, 54.38345
488.8411, 53.42414
489.3232, 52.49378
489.8054, 51.60167
490.2875, 50.75441
490.7696, 49.93193
491.2517, 49.13289
491.7338, 48.36663
492.2159, 47.71364
492.6981, 47.18513
493.1802, 46.57647
493.6623, 45.68390
494.1444, 44.62648
494.6265, 43.97805
495.1086, 43.73652
495.5908, 43.59186
496.0729, 43.30711
496.5550, 42.91425
497.0371, 42.47920
497.5192, 42.00948
498.0013, 41.51312
498.4835, 41.01085
498.9656, 40.48420
499.4477, 39.90865
499.9298, 39.08285
500.4119, 38.35743
500.8940, 37.98420
501.3762, 37.95262
501.8583, 37.91673
502.3404, 37.86475
502.8225, 37.71181
503.3046, 37.38976
503.7867, 36.64775
504.2689, 36.13895
504.7510, 36.03788
505.2331, 36.10991
505.7152, 35.99854
506.1973, 35.62172
506.6794, 35.22669
507.1616, 34.85021
507.6437, 34.49724
508.1258, 34.23769
508.6079, 34.08576
509.0900, 33.97040
509.5721, 33.85952
510.0543, 33.75028
510.5364, 33.60538
511.0185, 33.41625
511.5006, 33.22035
511.9827, 33.06783
512.4648, 32.94710
512.9470, 32.82227
513.4291, 32.68331
513.9112, 32.53255
514.3933, 32.36542
514.8754, 32.18548
515.3575, 32.00584
515.8397, 31.80387
516.3218, 31.62510
516.8039, 31.51473
517.2860, 31.48733
517.7681, 31.45187
518.2502, 31.35235
518.7324, 31.24269
519.2145, 31.17110
519.6966, 31.27382
520.1787, 31.25309
520.6608, 30.97200
521.1429, 30.56376
521.6251, 30.38165
522.1072, 30.61618
522.5893, 30.71782
523.0714, 30.43082
523.5535, 29.76249
524.0356, 29.41586
524.5178, 29.43846
524.9999, 29.61084
525.4820, 29.83487
525.9641, 30.08457
526.4462, 30.07807
526.9283, 29.71247
527.4105, 29.29523
527.8926, 29.30150
528.3747, 29.61504
528.8568, 29.85101
529.3389, 29.81006
529.8210, 29.64013
530.3032, 29.43559
530.7853, 29.21478
531.2674, 29.07586
531.7495, 29.15220
532.2316, 29.27752
532.7137, 29.33083
533.1959, 29.28211
533.6780, 29.21778
534.1601, 29.14283
534.6422, 29.07079
535.1243, 29.01473
535.6064, 28.80480
536.0886, 28.99644
536.5707, 29.09578
537.0528, 29.10779
537.5349, 28.77086
538.0170, 28.88450
538.4991, 28.81758
538.9813, 28.74324
539.4634, 28.92030
539.9455, 28.63413
540.4276, 28.80720
540.9097, 28.79695
541.3918, 28.87060
541.8740, 28.76256
542.3561, 28.71065
542.8382, 28.84048
543.3203, 28.86967
543.8024, 28.74072
544.2845, 28.81971
544.7667, 28.52718
545.2488, 28.56067
545.7309, 28.73480
546.2130, 28.61499
546.6951, 28.69730
547.1772, 28.70263
547.6594, 28.44028
548.1415, 28.39254
548.6236, 28.51827
549.1057, 28.94750
549.5878, 29.10734
550.0699, 28.66802
550.5521, 28.13139
551.0342, 27.92841
551.5163, 28.22513
551.9984, 28.50825
552.4805, 28.77219
552.9626, 28.96657
553.4448, 28.92129
553.9269, 28.59617
554.4090, 28.34012
554.8911, 28.32487
555.3732, 28.47665
555.8553, 28.52569
556.3375, 28.47294
556.8196, 28.40784
557.3017, 28.38110
557.7838, 28.39298
558.2659, 28.46696
558.7480, 28.62206
559.2302, 28.73869
559.7123, 28.65961
560.1944, 28.50947
560.6765, 28.45006
561.1586, 28.67996
561.6407, 28.84849
562.1229, 28.83079
562.6050, 28.66488
563.0871, 28.46269
563.5692, 28.07476
564.0513, 27.82505
564.5334, 27.84567
565.0156, 28.14913
565.4977, 28.38288
565.9798, 28.56751
566.4619, 28.64193
566.9440, 28.48416
567.4261, 28.06364
567.9083, 27.91354
568.3904, 28.11443
568.8725, 28.45668
569.3546, 28.72730
569.8367, 28.91339
570.3188, 28.95297
570.8010, 28.75659
571.2831, 28.49465
571.7652, 28.35269
572.2473, 28.32113
572.7294, 28.37340
573.2115, 28.58592
573.6937, 28.80610
574.1758, 28.91818
574.6579, 28.91208
575.1400, 28.92016
575.6221, 29.00824
576.1042, 29.10743
576.5864, 29.17286
577.0685, 29.19927
577.5506, 29.19294
578.0327, 29.12156
578.5148, 29.04087
578.9969, 29.02205
579.4791, 29.06905
579.9612, 29.17071
580.4433, 29.34598
580.9254, 29.55404
581.4075, 29.68255
581.8896, 29.73113
582.3718, 29.76559
582.8539, 29.80938
583.3360, 29.86583
583.8181, 29.96188
584.3002, 30.09322
584.7823, 30.18709
585.2645, 30.15829
585.7466, 30.08141
586.2286, 30.04540
586.7108, 30.09399
587.1929, 30.09112
587.6750, 29.82382
588.1571, 29.53581
588.6392, 29.50492
589.1213, 30.11262
589.6035, 30.57531
590.0856, 30.75317
590.5677, 30.73203
591.0498, 30.72648
591.5319, 30.69588
592.0140, 30.77785
592.4962, 31.05425
592.9783, 31.49482
593.4604, 31.86378
593.9425, 32.16057
594.4246, 32.38432
594.9067, 32.48153
595.3889, 32.50420
595.8710, 32.63534
596.3531, 32.90398
596.8352, 33.14997
597.3173, 33.17290
597.7994, 33.09648
598.2816, 33.09956
598.7637, 33.23643
599.2458, 33.45947
599.7279, 33.79913
600.2100, 34.20118
600.6921, 34.56586
601.1743, 34.88830
601.6564, 35.15449
602.1385, 35.34259
602.6206, 35.46403
603.1027, 35.59944
603.5848, 35.76137
604.0670, 35.91008
604.5491, 35.99006
605.0312, 35.99602
605.5133, 36.18791
605.9954, 36.57448
606.4775, 37.08786
606.9597, 37.79964
607.4418, 38.59736
607.9239, 39.06351
608.4060, 39.05762
608.8881, 38.97792
609.3702, 39.26639
609.8524, 39.74940
610.3345, 40.12389
610.8166, 40.16708
611.2987, 40.18914
611.7808, 40.27812
612.2629, 40.45056
612.7451, 40.75445
613.2272, 41.40588
613.7093, 41.97844
614.1914, 42.28534
614.6735, 42.32167
615.1556, 42.61063
615.6378, 43.25379
616.1199, 43.94609
616.6020, 44.50752
617.0841, 44.94080
617.5662, 45.28548
618.0483, 45.51994
618.5305, 45.77581
619.0126, 46.31566
619.4947, 46.99580
619.9768, 47.39465
620.4589, 47.32493
620.9410, 47.18431
621.4232, 47.28462
621.9053, 47.57643
622.3874, 47.96752
622.8695, 48.49595
623.3516, 49.04360
623.8337, 49.57805
624.3159, 50.09947
624.7980, 50.60814
625.2801, 51.10533
625.7622, 51.59685
626.2443, 52.08648
626.7264, 52.57619
627.2086, 53.06119
627.6907, 53.56514
628.1728, 54.00386
628.6549, 54.22916
629.1370, 54.28021
629.6191, 54.63380
630.1013, 55.36010
630.5834, 56.13543
631.0655, 56.60490
631.5476, 56.87790
632.0297, 57.15588
632.5118, 57.49076
632.9940, 57.84366
633.4761, 58.17706
633.9582, 58.51454
634.4403, 58.89190
634.9224, 59.40972
635.4045, 59.87135
635.8867, 60.15524
636.3688, 60.32238
636.8509, 60.65509
637.3330, 61.31305
637.8151, 61.86915
638.2972, 62.15646
638.7794, 62.18623
639.2615, 62.14445
639.7436, 62.00130
640.2257, 61.97099
640.7078, 62.35667
641.1899, 62.98647
641.6721, 63.23759
642.1542, 63.04119
642.6363, 62.82190
643.1184, 63.00952
643.6005, 63.37500
644.0826, 63.62999
644.5648, 63.70635
645.0469, 63.67137
645.5290, 63.47610
646.0111, 63.21037
646.4932, 63.00297
646.9753, 62.93717
647.4575, 62.85056
647.9396, 62.73969
648.4217, 62.59346
648.9038, 62.34259
649.3859, 61.91518
649.8680, 61.66345
650.3502, 61.82821
650.8323, 62.23180
651.3144, 62.13185
651.7965, 61.55346
652.2786, 61.05081
652.7607, 61.14547
653.2429, 61.47351
653.7250, 61.51211
654.2071, 61.23023
654.6892, 60.88507
655.1713, 60.54285
655.6534, 60.24675
656.1356, 60.05482
656.6177, 60.07787
657.0998, 59.95507
657.5819, 59.50843
658.0640, 58.97451
658.5461, 58.57158
659.0283, 58.32505
659.5104, 58.12824
659.9925, 57.96875
660.4746, 57.85737
660.9567, 57.84454
661.4388, 57.92163
661.9210, 57.95509
662.4031, 57.91081
662.8852, 57.78550
663.3673, 57.56245
663.8494, 57.25125
664.3315, 56.88517
664.8137, 56.34809
665.2958, 55.87324
665.7779, 55.68805
666.2600, 55.75427
666.7421, 55.72210
667.2242, 55.50517
667.7064, 55.17091
668.1885, 54.69246
668.6706, 54.01968
669.1527, 53.63145
669.6348, 53.59896
670.1169, 53.71241
670.5991, 53.86807
671.0812, 54.05920
671.5633, 54.10957
672.0454, 53.99755
672.5275, 53.80976
673.0096, 53.55348
673.4918, 53.30671
673.9739, 53.23457
674.4560, 53.42136
674.9381, 53.67122
675.4202, 53.98827
675.9023, 54.24906
676.3845, 54.27499
676.8666, 53.69444
677.3487, 53.25668
677.8308, 53.15655
678.3129, 53.28977
678.7950, 53.45493
679.2772, 53.66826
679.7593, 53.86338
680.2414, 53.99711
680.7235, 54.10729
681.2056, 54.37976
681.6877, 54.80593
682.1699, 55.19375
682.6520, 55.35798
683.1341, 55.44250
683.6162, 55.71545
684.0983, 56.15820
684.5804, 56.54128
685.0626, 56.65755
685.5447, 56.71357
686.0268, 56.83057
686.5089, 57.01046
686.9910, 57.32577
687.4731, 58.00695
687.9553, 58.65889
688.4374, 59.01989
688.9195, 58.95167
689.4016, 59.02821
689.8837, 59.25816
690.3658, 59.61592
690.8480, 60.12045
691.3301, 60.74412
691.8122, 61.31545
692.2943, 61.80280
692.7764, 62.22360
693.2585, 62.55322
693.7407, 62.84523
694.2228, 63.18788
694.7049, 63.58191
695.1870, 64.07193
695.6691, 64.78217
696.1512, 65.58844
696.6334, 66.24510
697.1155, 66.63789
697.5976, 66.94942
698.0797, 67.14677
698.5618, 67.29086
699.0439, 67.64037
699.5261, 68.23149
700.0082, 68.83128
700.4903, 69.33648
700.9724, 69.77914
701.4545, 70.24821
701.9366, 70.74625
702.4188, 71.29270
702.9009, 71.97063
703.3830, 72.65734
703.8651, 73.25599
704.3472, 73.75394
704.8293, 74.13708
705.3115, 74.20503
705.7936, 74.30840
706.2757, 74.67253
706.7578, 75.35658
707.2399, 76.08724
707.7220, 76.94815
708.2042, 77.73515
708.6863, 78.21890
709.1684, 78.39828
709.6505, 78.69010
710.1326, 79.11555
710.6147, 79.68618
711.0969, 80.52090
711.5790, 81.49442
712.0611, 82.34161
712.5432, 82.97642
713.0253, 83.58203
713.5074, 84.30714
713.9896, 85.05725
714.4717, 85.71325
714.9538, 86.13602
715.4359, 86.59030
715.9180, 87.01880
716.4001, 87.52939
716.8823, 88.33690
717.3644, 89.49326
717.8465, 90.75324
718.3286, 92.14537
718.8107, 93.49243
719.2928, 94.19392
719.7750, 94.38603
720.2571, 94.83702
720.7392, 96.08147
721.2213, 97.58179
721.7034, 98.82693
722.1855, 99.87512
722.6677, 100.9516
723.1498, 102.1277
723.6319, 103.3526
724.1140, 104.6537
724.5961, 106.0116
725.0782, 107.3369
725.5604, 108.6677
726.0425, 109.8681
726.5246, 110.8253
727.0067, 111.5784
727.4888, 112.5914
727.9709, 113.8585
728.4531, 115.1820
728.9352, 116.4947
729.4173, 117.7253
729.8994, 118.7232
730.3815, 119.4937
730.8636, 120.1899
731.3458, 120.8488
731.8279, 121.5023
732.3100, 122.2213
732.7921, 123.1170
733.2742, 123.6621
733.7563, 123.5374
734.2385, 123.3728
734.7206, 123.6560
735.2027, 124.5093
735.6848, 125.1116
736.1669, 125.4466
736.6490, 125.5351
737.1312, 125.3603
737.6133, 124.9577
738.0954, 124.4042
738.5775, 123.6899
739.0596, 122.9245
739.5417, 122.1242
740.0239, 121.3428
740.5060, 120.6449
740.9881, 120.0861
741.4702, 119.5476
741.9523, 119.2140
742.4344, 118.7775
742.9166, 117.8293
743.3987, 116.2083
743.8808, 114.6576
744.3629, 113.3020
744.8450, 112.0059
745.3271, 110.5667
745.8093, 108.9827
746.2914, 107.2641
746.7735, 105.3453
747.2556, 103.4295
747.7377, 101.7518
748.2198, 100.2338
748.7020, 98.69071
749.1841, 97.10288
749.6662, 95.43253
750.1483, 93.58943
750.6304, 91.64872
751.1125, 89.81404
751.5947, 88.17067
752.0768, 86.38334
752.5589, 84.34417
753.0410, 82.13596
753.5231, 80.00748
754.0052, 77.95724
754.4874, 76.05701
754.9695, 74.39532
755.4516, 72.90153
755.9337, 71.60300
756.4158, 70.43755
756.8979, 69.23864
757.3801, 67.93922
757.8622, 66.56589
758.3443, 65.05726
758.8264, 63.44598
759.3085, 62.01808
759.7906, 60.78286
760.2728, 59.69453
760.7549, 58.76094
761.2370, 57.95373
761.7191, 57.08000
762.2012, 56.14015
762.6833, 55.20526
763.1655, 54.32630
763.6476, 53.47355
764.1297, 52.62024
764.6118, 51.76698
765.0939, 50.93010
765.5760, 50.02238
766.0582, 49.20498
766.5403, 48.61458
767.0224, 48.28516
767.5045, 47.78113
767.9866, 46.99855
768.4688, 46.22506
768.9509, 45.61463
769.4330, 45.15802
769.9151, 44.74910
770.3972, 44.38807
770.8793, 44.01011
771.3615, 43.57439
771.8436, 43.08221
772.3257, 42.46838
772.8078, 41.73165
773.2899, 41.15151
773.7720, 41.10106
774.2542, 41.08213
774.7363, 40.76500
775.2184, 40.07489
775.7005, 39.30639
776.1826, 38.33522
776.6647, 37.49476
777.1469, 37.08886
777.6290, 37.09901
778.1111, 36.98043
778.5932, 36.71665
779.0753, 36.37701
779.5574, 35.93188
780.0396, 35.48897
780.5217, 35.22577
781.0038, 35.18646
781.4859, 35.13469
781.9680, 34.92942
782.4501, 34.69622
782.9323, 34.56273
783.4144, 34.64323
783.8964, 34.41542
784.3785, 33.72919
784.8607, 33.00105
785.3428, 32.64777
785.8249, 32.62164
786.3070, 32.50623
786.7891, 32.26870
787.2712, 31.99114
787.7534, 31.70817
788.2355, 31.44965
788.7176, 31.25740
789.1997, 31.14738
789.6818, 31.06229
790.1639, 30.98535
790.6461, 30.92386
791.1282, 30.88967
791.6103, 30.91965
792.0924, 30.87144
792.5745, 30.73469
793.0566, 30.54215
793.5388, 30.28321
794.0209, 29.98419
794.5030, 29.82579
794.9851, 29.84211
795.4672, 29.84387
795.9493, 29.64837
796.4315, 29.35209
796.9136, 29.03163
797.3957, 28.62720
797.8778, 28.42591
798.3599, 28.70773
798.8420, 29.07176
799.3242, 29.21311
799.8063, 29.07645
800.2884, 28.90484
800.7705, 28.68116
801.2526, 28.48618
801.7347, 28.44854
802.2169, 28.50799
802.6990, 28.46744
803.1811, 28.28443
803.6632, 28.11576
804.1453, 28.12791
804.6274, 28.18747
805.1096, 28.15764
805.5917, 27.95111
806.0738, 27.81665
806.5559, 27.75312
807.0380, 27.78651
807.5201, 28.02609
808.0023, 28.53004
808.4844, 28.57627
808.9665, 28.06979
809.4486, 27.44867
809.9307, 27.10956
810.4128, 26.99146
810.8950, 27.01318
811.3771, 27.18150
811.8592, 27.34993
812.3413, 27.47459
812.8234, 27.54287
813.3055, 27.54301
813.7877, 27.47128
814.2698, 27.33350
814.7519, 27.10638
815.2340, 26.85003
815.7161, 26.55400
816.1982, 26.24030
816.6804, 26.25058
817.1625, 26.62949
817.6446, 26.99187
818.1267, 26.89334
818.6088, 26.62239
819.0909, 26.56309
819.5731, 26.80507
820.0552, 26.99251
820.5373, 26.94588
821.0194, 26.84824
821.5015, 26.82753
821.9836, 26.91491
822.4658, 26.90018
822.9479, 26.74377
823.4300, 26.61349
823.9121, 26.73973
824.3942, 27.00100
824.8763, 26.94525
825.3585, 26.55140
825.8406, 26.20635
826.3227, 26.24499
826.8048, 26.41395
827.2869, 26.51935
827.7690, 26.53540
828.2512, 26.52977
828.7333, 26.50436
829.2154, 26.46900
829.6975, 26.43645
830.1796, 26.40708
830.6617, 26.31010
831.1439, 26.14245
831.6260, 25.97338
832.1081, 25.85696
832.5902, 25.76805
833.0723, 25.64428
833.5544, 25.49236
834.0366, 25.41769
834.5187, 25.50867
835.0008, 25.65446
835.4829, 25.83185
835.9650, 26.03724
836.4471, 26.11208
836.9293, 26.01322
837.4114, 25.90384
837.8935, 25.84549
838.3756, 25.84470
838.8577, 25.97092
839.3398, 26.20056
839.8220, 26.35964
840.3041, 26.29164
840.7862, 26.15548
841.2683, 26.04715
841.7504, 25.97375
842.2325, 25.95312
842.7147, 26.08451
843.1968, 26.14227
843.6789, 26.04054
844.1610, 25.82234
844.6431, 25.66840
845.1252, 25.57844
845.6074, 25.57008
846.0895, 25.71567
846.5716, 25.88279
847.0537, 25.85994
847.5358, 25.69985
848.0179, 25.54829
848.5001, 25.41632
848.9822, 25.36173
849.4643, 25.45347
849.9464, 25.63210
850.4285, 25.76720
850.9106, 25.85950
851.3928, 25.90487
851.8749, 25.90047
852.3570, 25.85064
852.8391, 25.73613
853.3212, 25.58058
853.8033, 25.45798
854.2855, 25.37704
854.7676, 25.36526
855.2497, 25.48841
855.7318, 25.67837
856.2139, 25.83361
856.6960, 26.00580
857.1782, 26.02207
857.6603, 25.81214
858.1424, 25.51475
858.6245, 25.31990
859.1066, 25.22214
859.5887, 25.15069
860.0709, 25.08232
860.5530, 25.09180
861.0351, 25.39050
861.5172, 25.75812
861.9993, 25.87831
862.4814, 25.56591
862.9636, 25.32049
863.4457, 25.30842
863.9278, 25.37532
864.4099, 25.42031
864.8920, 25.43981
865.3741, 25.46726
865.8563, 25.51209
866.3384, 25.51718
866.8205, 25.38804
867.3026, 25.19478
867.7847, 25.06392
868.2668, 25.00702
868.7490, 24.99154
869.2311, 25.02228
869.7132, 25.06972
870.1953, 25.11123
870.6774, 25.14309
871.1595, 25.21460
871.6417, 25.34832
872.1238, 25.45761
872.6059, 25.47918
873.0880, 25.43728
873.5701, 25.38169
874.0522, 25.32482
874.5344, 25.35593
875.0165, 25.70926
875.4986, 26.01185
875.9807, 25.93759
876.4628, 25.54448
876.9449, 25.28384
877.4271, 25.24141
877.9092, 25.24035
878.3913, 25.25401
878.8734, 25.26205
879.3555, 25.16459
879.8376, 24.97831
880.3198, 24.87788
880.8019, 25.00257
881.2840, 25.14801
881.7661, 25.04367
882.2482, 24.82834
882.7303, 24.76784
883.2125, 25.13122
883.6946, 25.40038
884.1767, 25.48807
884.6588, 25.46969
885.1409, 25.45348
885.6230, 25.43980
886.1052, 25.41068
886.5873, 25.36121
887.0694, 25.30281
887.5515, 25.20964
888.0336, 25.13122
888.5157, 25.15040
888.9979, 25.31858
889.4800, 25.48569
889.9621, 25.65585
890.4442, 25.77043
890.9263, 25.78652
891.4084, 25.69853
891.8906, 25.51461
892.3727, 25.21284
892.8548, 24.94262
893.3369, 24.86513
893.8190, 24.89762
894.3011, 24.88754
894.7833, 24.82847
895.2654, 24.81701
895.7475, 24.99201
896.2296, 25.14236
896.7117, 25.11059
897.1938, 24.91872
897.6760, 24.86058
898.1581, 24.95749
898.6402, 25.10720
899.1223, 25.28563
899.6044, 25.46623
900.0865, 25.61756
900.5687, 25.72119
901.0508, 25.70416
901.5329, 25.31939
902.0150, 25.02706
902.4971, 25.16523
902.9792, 25.55050
903.4614, 25.69502
903.9435, 25.48757
904.4256, 25.33719
904.9077, 25.33361
905.3898, 25.37575
905.8719, 25.25399
906.3541, 25.03256
906.8362, 24.92303
907.3183, 25.00856
907.8004, 25.12369
908.2825, 25.21741
908.7646, 25.25859
909.2468, 25.18692
909.7289, 24.83076
910.2110, 24.82771
910.6931, 25.34092
911.1752, 25.85133
911.6573, 25.82015
912.1395, 25.39122
912.6216, 25.14439
913.1037, 25.10681
913.5858, 25.14031
914.0679, 25.18619
914.5500, 25.23393
915.0322, 25.28245
915.5143, 25.33056
915.9964, 25.34706
916.4785, 25.31768
916.9606, 25.28695
917.4427, 25.28811
917.9249, 25.29240
918.4070, 25.15614
918.8891, 24.91543
919.3712, 24.76632
919.8533, 24.85878
920.3354, 25.02175
920.8176, 25.18406
921.2997, 25.32429
921.7818, 25.39670
922.2639, 25.38578
922.7460, 25.31913
923.2281, 25.16405
923.7103, 25.00781
924.1924, 25.03138
924.6745, 25.18745
925.1566, 25.19256
925.6387, 24.96250
926.1208, 24.77068
926.6030, 24.89107
927.0851, 25.12150
927.5672, 25.27167
928.0493, 25.29204
928.5314, 25.29394
929.0135, 25.26639
929.4957, 25.24460
929.9778, 25.24764
930.4599, 25.27589
930.9420, 25.35876
931.4241, 25.48712
931.9063, 25.56651
932.3884, 25.53900
932.8705, 25.43666
933.3526, 25.22102
933.8347, 24.93210
934.3168, 24.78242
934.7990, 24.85720
935.2811, 24.91301
935.7632, 24.86388
936.2453, 24.79306
936.7274, 24.96268
937.2095, 25.29682
937.6917, 25.44209
938.1738, 25.20352
938.6559, 24.93699
939.1380, 24.89799
939.6201, 24.97669
940.1022, 25.03662
940.5844, 25.01706
941.0665, 25.08900
941.5486, 25.31246
942.0307, 25.49826
942.5128, 25.42414
942.9949, 25.16060
943.4771, 24.98665
943.9592, 24.91870
944.4413, 24.83058
944.9234, 24.52244
945.4055, 24.26617
945.8876, 24.28646
946.3698, 24.58590
946.8519, 24.81690
947.3340, 24.98866
947.8161, 25.05400
948.2982, 24.95296
948.7803, 24.77811
949.2625, 24.77686
949.7446, 24.89364
950.2267, 24.94574
950.7088, 24.79033
951.1909, 24.63937
951.6730, 24.55596
952.1552, 24.55688
952.6373, 24.67416
953.1194, 24.97244
953.6015, 25.19198
954.0836, 25.32177
954.5657, 25.33871
955.0479, 25.09462
955.5300, 24.75110
956.0121, 24.68567
956.4942, 24.95338
956.9763, 25.16606
957.4584, 24.96996
957.9406, 24.81346
958.4227, 25.04624
958.9048, 25.62304
959.3869, 25.81903
959.8690, 25.58797
960.3511, 25.30976
960.8333, 25.15889
961.3154, 25.07337
961.7975, 24.90623
962.2796, 24.72044
962.7617, 24.67747
963.2438, 25.02229
963.7260, 25.28577
964.2081, 25.31185
964.6902, 25.23283
965.1723, 25.23396
965.6544, 25.32793
966.1365, 25.26582
966.6187, 24.98722
967.1008, 24.76291
967.5829, 24.97221
968.0650, 25.32912
968.5471, 25.50897
969.0292, 25.46233
969.5114, 25.28265
969.9935, 24.77907
970.4756, 24.41516
970.9577, 24.43004
971.4398, 24.75018
971.9219, 24.95921
972.4041, 25.06061
972.8862, 25.11335
973.3683, 25.15195
973.8504, 25.15033
974.3325, 25.05528
974.8146, 24.90953
975.2968, 24.80122
975.7789, 24.71960
976.2610, 24.72555
976.7431, 24.85554
977.2252, 25.01953
977.7073, 25.11245
978.1895, 25.13836
978.6716, 25.05150
979.1537, 24.83008
979.6358, 24.76690
980.1179, 25.34503
980.6000, 25.92694
981.0822, 25.96878
981.5642, 25.43678
982.0463, 25.11216
982.5284, 25.03759
983.0106, 25.00695
983.4927, 24.90522
983.9748, 24.80609
984.4569, 24.93603
984.9390, 25.19788
985.4211, 25.32084
985.9033, 25.00973
986.3854, 24.75937
986.8675, 24.77789
987.3496, 24.90905
987.8317, 24.98352
988.3138, 24.99728
988.7960, 24.97099
989.2781, 24.89686
989.7602, 24.85430
990.2423, 24.96012
990.7244, 25.11992
991.2065, 25.22606
991.6887, 25.26832
992.1708, 25.25860
992.6529, 25.12859
993.1350, 25.04430
993.6171, 25.08103
994.0992, 25.19933
994.5814, 25.24675
995.0635, 25.23147
995.5456, 25.20812
996.0277, 25.18764
996.5098, 25.18503
996.9919, 25.23174
997.4741, 25.29541
997.9562, 25.32638
998.4383, 25.27670
998.9204, 25.30476
999.4025, 25.46075
999.8846, 25.57165
1000.367, 25.41327
1000.849, 25.09573
1001.331, 24.89273
1001.813, 24.81607
1002.295, 24.82343
1002.777, 25.00968
1003.259, 25.15387
1003.742, 25.08669
1004.224, 24.89325
1004.706, 24.88733
1005.188, 25.09249
1005.670, 25.25448
1006.152, 25.30321
1006.634, 25.28158
1007.116, 25.18872
1007.599, 25.08349
1008.081, 25.06717
1008.563, 25.23277
1009.045, 25.29178
1009.527, 25.10386
1010.009, 24.95015
1010.491, 25.08369
1010.973, 25.46280
1011.455, 25.57724
1011.938, 25.45173
1012.420, 25.32473
1012.902, 25.34935
1013.384, 25.42169
1013.866, 25.52873
1014.348, 25.62520
1014.830, 25.56596
1015.312, 25.25621
1015.794, 25.06755
1016.277, 25.05869
1016.759, 25.18063
1017.241, 25.50906
1017.723, 25.88060
1018.205, 25.91320
1018.687, 25.49834
1019.169, 25.15031
1019.651, 25.11563
1020.134, 25.16403
1020.616, 25.18985
1021.098, 25.19515
1021.580, 25.19122
1022.062, 25.17838
1022.544, 25.18340
1023.026, 25.23413
1023.508, 25.28937
1023.990, 25.32935
1024.473, 25.33911
1024.955, 25.28919
1025.437, 25.08899
1025.919, 24.98162
1026.401, 25.00138
1026.883, 25.05777
1027.365, 25.06100
1027.847, 25.02695
1028.330, 24.96669
1028.812, 24.89160
1029.294, 24.93578
1029.776, 25.42246
1030.258, 25.79177
1030.740, 25.67294
1031.222, 25.22880
1031.704, 24.93570
1032.187, 24.79333
1032.669, 24.83387
1033.151, 25.12270
1033.633, 25.43179
1034.115, 25.47811
1034.597, 25.38749
1035.079, 25.31513
1035.561, 25.28948
1036.043, 25.29631
1036.526, 25.36182
1037.008, 25.40709
1037.490, 25.35642
1037.972, 25.25009
1038.454, 25.26028
1038.936, 25.37025
1039.418, 25.49738
1039.900, 25.65223
1040.382, 25.75348
1040.865, 25.74134
1041.347, 25.65575
1041.829, 25.54902
1042.311, 25.40850
1042.793, 25.32842
1043.275, 25.32416
1043.757, 25.33228
1044.239, 25.28180
1044.722, 25.21274
1045.204, 25.19023
1045.686, 25.21573
1046.168, 25.17167
1046.650, 24.95855
1047.132, 24.80356
1047.614, 24.75896
1048.096, 24.82741
1048.578, 25.12257
1049.061, 25.54361
1049.543, 25.71111
1050.025, 25.41349
1050.507, 25.12070
1050.989, 25.10398
1051.471, 25.19455
1051.953, 25.25364
1052.435, 25.28270
1052.917, 25.23413
1053.400, 25.09804
1053.882, 25.01818
1054.364, 25.15078
1054.846, 25.33731
1055.328, 25.38058
1055.810, 25.33168
1056.292, 25.32868
1056.774, 25.49283
1057.257, 25.54523
1057.739, 25.42819
1058.221, 25.25991
1058.703, 25.15101
1059.185, 25.11129
1059.667, 25.20044
1060.149, 25.41952
1060.631, 25.62451
1061.114, 25.81607
1061.596, 25.88625
1062.078, 25.69079
1062.560, 25.35169
1063.042, 25.33776
1063.524, 25.65041
1064.006, 25.92525
1064.488, 26.07714
1064.970, 26.10616
1065.453, 25.90903
1065.935, 25.64785
1066.417, 25.51521
1066.899, 25.58477
1067.381, 25.63271
1067.863, 25.65023
1068.345, 25.67257
1068.827, 25.74819
1069.309, 25.82631
1069.792, 25.70031
1070.274, 25.47410
1070.756, 25.44514
1071.238, 26.09080
1071.720, 26.46369
1072.202, 26.23017
1072.684, 25.79145
1073.166, 25.56893
1073.649, 25.54538
1074.131, 25.52756
1074.613, 25.50385
1075.095, 25.45344
1075.577, 25.25512
1076.059, 25.12390
1076.541, 25.26089
1077.023, 25.59798
1077.505, 25.82378
1077.988, 25.90882
1078.470, 26.03660
1078.952, 26.27734
1079.434, 26.45624
1079.916, 26.24716
1080.398, 25.90103
1080.880, 25.79105
1081.362, 26.01779
1081.844, 26.13230
1082.327, 26.03625
1082.809, 25.91769
1083.291, 25.85401
1083.773, 25.82308
1084.255, 25.73698
1084.737, 25.62737
1085.219, 25.60430
1085.701, 25.76258
1086.183, 25.90532
1086.666, 25.97080
1087.148, 25.97318
1087.630, 25.91235
1088.112, 25.78538
1088.594, 25.62419
1089.076, 25.43537
1089.558, 25.39497
1090.040, 25.84193
1090.523, 26.26716
1091.005, 26.21835
1091.487, 25.86157
1091.969, 25.60728
1092.451, 25.47144
1092.933, 25.46084
1093.415, 25.59957
1093.897, 25.75559
1094.380, 25.76841
1094.862, 25.72453
1095.344, 25.76983
1095.826, 25.90411
1096.308, 25.94628
1096.790, 25.74941
1097.272, 25.63287
1097.754, 25.69657
1098.236, 25.85136
1098.719, 25.93172
1099.201, 25.95736
1099.683, 25.98668
1100.165, 26.03290
1100.647, 26.07727
1101.129, 26.12070
1101.611, 26.15039
1102.093, 26.16914
1102.575, 26.17110
1103.058, 26.08136
1103.540, 25.91127
1104.022, 25.80340
1104.504, 25.82839
1104.986, 25.91340
1105.468, 26.10586
1105.950, 26.27225
1106.432, 26.21385
1106.915, 25.82176
1107.397, 25.72009
1107.879, 25.94874
1108.361, 26.17013
1108.843, 26.05435
1109.325, 25.87247
1109.807, 26.07368
1110.289, 26.47594
1110.771, 26.56908
1111.254, 25.92220
1111.736, 25.59020
1112.218, 25.71786
1112.700, 26.00469
1113.182, 26.20436
1113.664, 26.29472
1114.146, 26.16364
1114.628, 25.83416
1115.110, 25.56311
1115.593, 25.47570
1116.075, 25.43739
1116.557, 25.39957
1117.039, 25.39924
1117.521, 25.56286
1118.003, 25.83866
1118.485, 25.96178
1118.967, 25.87694
1119.450, 25.77967
1119.932, 25.77476
1120.414, 25.80964
1120.896, 25.87017
1121.378, 25.94310
1121.860, 25.96082
1122.342, 25.92353
1122.824, 25.81431
1123.307, 25.57337
1123.789, 25.40968
1124.271, 25.59422
1124.753, 25.89705
1125.235, 26.05946
1125.717, 26.04642
1126.199, 26.10433
1126.681, 26.24933
1127.163, 26.34927
1127.646, 26.30816
1128.128, 26.21357
1128.610, 26.14728
1129.092, 26.11757
1129.574, 26.14457
1130.056, 26.34180
1130.538, 26.36572
1131.020, 26.15350
1131.502, 25.94409
1131.985, 25.96821
1132.467, 26.11379
1132.949, 26.14972
1133.431, 26.09900
1133.913, 26.05428
1134.395, 26.06675
1134.877, 26.05920
1135.359, 26.00965
1135.842, 25.95416
1136.324, 25.94195
1136.806, 25.95991
1137.288, 25.95696
1137.770, 25.93256
1138.252, 25.92575
1138.734, 26.01506
1139.216, 26.04745
1139.698, 25.91069
1140.181, 25.73371
1140.663, 25.84750
1141.145, 26.19425
1141.627, 26.32667
1142.109, 26.15849
1142.591, 25.98145
1143.073, 25.96561
1143.555, 26.03081
1144.037, 26.17733
1144.520, 26.35763
1145.002, 26.37265
1145.484, 26.22371
1145.966, 26.07381
1146.448, 25.96832
1146.930, 25.87967
1147.412, 25.73817
1147.894, 25.63192
1148.377, 25.67472
1148.859, 25.87015
1149.341, 26.00269
1149.823, 26.06681
1150.305, 26.12309
1150.787, 26.21454
1151.269, 26.27823
1151.751, 26.20015
1152.234, 26.07034
1152.716, 26.02268
1153.198, 26.11917
1153.680, 26.13841
1154.162, 26.06294
1154.644, 25.98598
1155.126, 25.97746
1155.608, 25.99199
1156.090, 25.95679
1156.573, 25.89108
1157.055, 25.83426
1157.537, 25.83274
1158.019, 25.76109
1158.501, 25.56371
1158.983, 25.43636
1159.465, 25.65979
1159.947, 26.00871
1160.429, 25.95210
1160.912, 25.60043
1161.394, 25.38462
1161.876, 25.56310
1162.358, 25.74345
1162.840, 25.88997
1163.322, 25.99918
1163.804, 26.05510
1164.286, 26.07242
1164.769, 26.10424
1165.251, 26.14477
1165.733, 26.12931
1166.215, 25.94534
1166.697, 25.81727
1167.179, 25.82392
1167.661, 25.87634
1168.143, 25.79310
1168.625, 25.63606
1169.108, 25.66883
1169.590, 25.91755
1170.072, 26.14848
1170.554, 26.23691
1171.036, 26.29178
1171.518, 26.37734
1172.000, 26.44642
1172.482, 26.36158
1172.964, 26.15394
1173.447, 25.97781
1173.929, 25.85656
1174.411, 25.82400
1174.893, 26.02356
1175.375, 26.18860
1175.857, 26.15485
1176.339, 25.98355
1176.821, 25.89938
1177.304, 25.89351
1177.786, 25.89775
1178.268, 25.89619
1178.750, 25.89148
1179.232, 25.83466
1179.714, 25.82714
1180.196, 26.01217
1180.678, 26.33312
1181.161, 26.16103
1181.643, 25.54508
1182.125, 25.26239
1182.607, 25.74199
1183.089, 26.24900
1183.571, 26.19928
1184.053, 25.94928
1184.535, 25.82547
1185.017, 25.83177
1185.500, 25.88440
1185.982, 25.98240
1186.464, 26.07462
1186.946, 26.16533
1187.428, 26.19732
1187.910, 26.08120
1188.392, 25.90571
1188.874, 25.74415
1189.356, 25.57252
1189.839, 25.72240
1190.321, 26.20431
1190.803, 26.55915
1191.285, 26.36677
1191.767, 26.11075
1192.249, 26.25447
1192.731, 26.54931
1193.213, 26.61729
1193.696, 26.39428
1194.178, 26.19031
1194.660, 26.00320
1195.142, 25.89422
1195.624, 25.96233
1196.106, 26.06937
1196.588, 26.11645
1197.070, 26.11179
1197.552, 26.07958
1198.035, 26.02763
1198.517, 25.89847
1198.999, 25.67754
1199.481, 25.51992
1199.963, 25.60113
1200.445, 25.74577
1200.927, 25.78958
1201.409, 25.77669
1201.891, 25.85163
1202.374, 26.07804
1202.856, 26.06680
1203.338, 25.76072
1203.820, 25.51964
1204.302, 25.78430
1204.784, 26.14302
1205.266, 26.18456
1205.748, 26.00091
1206.231, 25.98602
1206.713, 26.20696
1207.195, 26.28680
1207.677, 26.17129
1208.159, 26.01461
1208.641, 25.88941
1209.123, 25.84395
1209.605, 25.99205
1210.088, 26.26929
1210.570, 26.36845
1211.052, 26.24766
1211.534, 26.17847
1212.016, 26.20980
1212.498, 26.24069
1212.980, 26.11711
1213.462, 25.99166
1213.944, 26.02467
1214.427, 26.19753
1214.909, 26.34670
1215.391, 26.48460
1215.873, 26.48428
1216.355, 26.29858
1216.837, 26.10800
1217.319, 26.09051
1217.801, 26.15204
1218.283, 26.24338
1218.766, 26.34324
1219.248, 26.35036
1219.730, 26.25322
1220.212, 26.15194
1220.694, 26.05997
1221.176, 26.01207
1221.658, 26.10433
1222.140, 26.20476
1222.623, 26.17362
1223.105, 26.02676
1223.587, 25.91192
1224.069, 25.82721
1224.551, 25.80673
1225.033, 25.86706
1225.515, 25.95311
1225.997, 26.03534
1226.479, 26.10456
1226.962, 26.15984
1227.444, 26.19718
1227.926, 26.15775
1228.408, 26.04034
1228.890, 25.98880
1229.372, 26.05696
1229.854, 26.14188
1230.336, 26.16395
1230.818, 26.16086
1231.301, 26.16991
1231.783, 26.18487
1232.265, 26.14326
1232.747, 26.04731
1233.229, 25.95716
1233.711, 25.87117
1234.193, 25.86631
1234.675, 26.16729
1235.158, 26.41546
1235.640, 26.26746
1236.122, 25.82163
1236.604, 25.75377
1237.086, 26.02438
1237.568, 26.27300
1238.050, 26.40667
1238.532, 26.43037
1239.015, 26.24805
1239.497, 26.05203
1239.979, 25.96917
1240.461, 25.98314
1240.943, 26.02928
1241.425, 26.09966
1241.907, 26.16481
1242.389, 26.24869
1242.871, 26.21519
1243.354, 25.78662
1243.836, 25.44242
1244.318, 25.49844
1244.800, 25.84300
1245.282, 26.00721
1245.764, 26.02590
1246.246, 26.03005
1246.728, 26.06604
1247.210, 26.07438
1247.693, 25.97654
1248.175, 25.91517
1248.657, 25.98485
1249.139, 26.12977
1249.621, 26.17687
1250.103, 26.14205
1250.585, 26.05296
1251.067, 25.85489
1251.550, 25.80400
1252.032, 26.03124
1252.514, 26.27758
1252.996, 26.43711
1253.478, 26.50269
1253.960, 26.36726
1254.442, 26.14325
1254.924, 26.09481
1255.406, 26.41094
1255.889, 26.52467
1256.371, 26.31730
1256.853, 26.07839
1257.335, 25.93037
1257.817, 25.87462
1258.299, 26.00223
1258.781, 26.19449
1259.263, 26.22485
1259.745, 25.93017
1260.228, 25.87094
1260.710, 26.11305
1261.192, 26.37641
1261.674, 26.55613
1262.156, 26.63876
1262.638, 26.49814
1263.120, 26.29850
1263.602, 26.31413
1264.085, 26.64909
1264.567, 26.73526
1265.049, 26.54741
1265.531, 26.33646
1266.013, 26.19751
1266.495, 26.12049
1266.977, 26.09797
1267.459, 26.12944
1267.942, 26.25405
1268.424, 26.47812
1268.906, 26.42472
1269.388, 26.10066
1269.870, 25.99642
1270.352, 26.48974
1270.834, 26.90908
1271.316, 26.60199
1271.798, 26.13103
1272.281, 26.01836
1272.763, 26.22149
1273.245, 26.26268
1273.727, 26.17254
1274.209, 26.17600
1274.691, 26.40620
1275.173, 26.62123
1275.655, 26.73022
1276.137, 26.74758
1276.620, 26.64402
1277.102, 26.47111
1277.584, 26.46245
1278.066, 26.57179
1278.548, 26.64401
1279.030, 26.63612
1279.512, 26.56536
1279.994, 26.34761
1280.476, 26.22111
1280.959, 26.36548
1281.441, 26.61627
1281.923, 26.53167
1282.405, 26.25674
1282.887, 26.08868
1283.369, 26.10854
1283.851, 26.22477
1284.333, 26.47610
1284.816, 26.67219
1285.298, 26.73231
1285.780, 26.68848
1286.262, 26.53285
1286.744, 26.33624
1287.226, 26.18933
1287.708, 26.10182
1288.190, 26.12284
1288.672, 26.26560
1289.155, 26.44229
1289.637, 26.65939
1290.119, 26.79137
1290.601, 26.57312
1291.083, 26.29968
1291.565, 26.33004
1292.047, 26.63462
1292.529, 26.83072
1293.011, 26.91879
1293.494, 26.86597
1293.976, 26.60416
1294.458, 26.42178
1294.940, 26.63115
1295.422, 26.87787
1295.904, 26.91160
1296.386, 26.79733
1296.868, 26.80304
1297.351, 26.89734
1297.833, 26.95940
1298.315, 26.96482
1298.797, 26.90691
1299.279, 26.65684
1299.761, 26.51055
1300.243, 26.62608
1300.725, 26.84467
1301.208, 26.80311
1301.690, 26.62340
1302.172, 26.57228
1302.654, 26.71281
1303.136, 26.77368
1303.618, 26.68056
1304.100, 26.61156
1304.582, 26.61748
1305.064, 26.70282
##END=



