##NAMES=Zhanghuifenite
##RRUFFID=R160030
##IDEAL CHEMISTRY=Na_3_Mn^2+^_4_Mg_2_Al(PO_4_)_6_
##LOCALITY=Santa Ana pegmatite, Totoral pegmatitic field, Coronel Pringles Department, San Luis, Argentina
##OWNER=RRUFF
##SOURCE=Jaroslav Hyršl
##DESCRIPTION=Dark green massive in veinlets, associated with beusite and lithiophilite. Type sample
##STATUS=The identification of this mineral is confirmed by single-crystal X-ray diffraction and chemical analysis.
##URL=rruff.info/R160030
##MEASURED CHEMISTRY=(Na_2.80_Ca_0.11_)_Σ2.91_(Mn_3.09_Fe^2+^_0.47_Mg_0.36_)_Σ3.92_(Mg_1.31_Fe^2+^_0.69_)_Σ2.00_(Al_0.81_Fe^3+^_0.19_)_Σ1.00_(PO_4_)_6_
91.35754, 747.6052
91.83966, 742.3678
92.32178, 723.6801
92.80389, 704.3553
93.28601, 685.2529
93.76813, 666.6682
94.25024, 649.1979
94.73236, 633.9719
95.21448, 621.9657
95.69659, 609.0061
96.17871, 596.6536
96.66083, 585.3041
97.14294, 574.7676
97.62506, 564.6418
98.10718, 554.8439
98.58929, 546.9448
99.07141, 542.1747
99.55353, 537.3732
100.0356, 531.0540
100.5178, 523.3975
100.9999, 515.7202
101.4820, 509.1007
101.9641, 503.6900
102.4462, 498.6048
102.9283, 493.5404
103.4105, 488.7689
103.8926, 484.4893
104.3747, 480.7025
104.8568, 477.5564
105.3389, 475.7542
105.8210, 475.0114
106.3032, 473.7076
106.7853, 471.2653
107.2674, 467.7074
107.7495, 462.9521
108.2316, 455.7564
108.7137, 448.5180
109.1959, 442.7512
109.6780, 438.5366
110.1601, 435.3817
110.6422, 433.0888
111.1243, 432.0941
111.6064, 430.3458
112.0886, 426.8041
112.5707, 422.9693
113.0528, 419.9063
113.5349, 417.9336
114.0170, 416.5651
114.4991, 414.6991
114.9813, 411.9187
115.4634, 409.1188
115.9455, 406.4636
116.4276, 403.8052
116.9097, 400.9362
117.3918, 397.7224
117.8740, 394.2668
118.3561, 391.1175
118.8382, 388.0032
119.3203, 385.3930
119.8024, 383.7629
120.2845, 382.8648
120.7667, 381.8452
121.2488, 379.9987
121.7309, 377.4875
122.2130, 375.5753
122.6951, 375.1053
123.1772, 374.7215
123.6594, 373.0202
124.1415, 369.7547
124.6236, 366.4020
125.1057, 364.0517
125.5878, 362.4040
126.0699, 361.1122
126.5521, 360.1924
127.0342, 359.5389
127.5163, 358.8516
127.9984, 358.2602
128.4805, 357.4174
128.9626, 356.0850
129.4448, 354.3916
129.9269, 352.6582
130.4090, 351.1437
130.8911, 349.8807
131.3732, 348.4998
131.8553, 346.8599
132.3375, 345.2124
132.8196, 343.5423
133.3017, 341.9161
133.7838, 340.5069
134.2659, 339.5638
134.7480, 339.3578
135.2302, 338.9409
135.7123, 338.2473
136.1944, 337.4322
136.6765, 336.4597
137.1586, 335.3615
137.6407, 334.4204
138.1229, 334.1791
138.6050, 335.5682
139.0871, 335.9516
139.5692, 334.5003
140.0513, 332.1528
140.5334, 330.1263
141.0156, 328.8715
141.4977, 328.0582
141.9798, 326.9433
142.4619, 325.4156
142.9440, 323.9677
143.4261, 322.8658
143.9083, 322.0290
144.3904, 321.0941
144.8725, 319.7523
145.3546, 318.3905
145.8367, 317.6489
146.3188, 317.7891
146.8010, 317.9206
147.2831, 317.0774
147.7652, 315.1193
148.2473, 313.3316
148.7294, 312.3987
149.2115, 311.7962
149.6937, 311.1568
150.1758, 310.3671
150.6579, 309.5023
151.1400, 308.7207
151.6221, 308.1649
152.1042, 307.3970
152.5864, 306.0021
153.0685, 304.4944
153.5506, 303.5067
154.0327, 303.4047
154.5148, 303.9086
154.9969, 303.7938
155.4791, 302.4568
155.9612, 301.0948
156.4433, 299.7680
156.9254, 298.5509
157.4075, 297.5666
157.8896, 296.9179
158.3718, 296.5791
158.8539, 296.0123
159.3360, 295.1156
159.8181, 294.1314
160.3002, 293.1176
160.7823, 292.0823
161.2645, 291.0103
161.7466, 289.8872
162.2287, 288.7115
162.7108, 287.5387
163.1929, 286.4334
163.6750, 285.2840
164.1572, 283.9557
164.6393, 282.4620
165.1214, 281.0086
165.6035, 279.8252
166.0856, 278.8654
166.5677, 277.7730
167.0499, 276.3538
167.5320, 274.8510
168.0141, 273.5713
168.4962, 272.5590
168.9783, 271.6507
169.4604, 270.8016
169.9426, 269.9629
170.4247, 268.9959
170.9068, 267.8532
171.3889, 266.5421
171.8710, 265.0314
172.3531, 263.1567
172.8353, 261.3573
173.3174, 259.8792
173.7995, 258.6539
174.2816, 257.5537
174.7637, 256.5460
175.2458, 255.6185
175.7280, 254.5842
176.2101, 253.2910
176.6922, 252.0380
177.1743, 250.8627
177.6564, 249.8135
178.1385, 248.9880
178.6207, 248.6142
179.1028, 248.8361
179.5849, 248.3826
180.0670, 246.4738
180.5491, 244.5749
181.0313, 243.3380
181.5134, 242.7035
181.9955, 242.1817
182.4776, 241.2090
182.9597, 239.5616
183.4418, 238.2935
183.9240, 237.6249
184.4061, 237.0730
184.8882, 236.3863
185.3703, 235.5259
185.8524, 234.5767
186.3345, 233.6219
186.8167, 232.6083
187.2988, 231.7989
187.7809, 231.4395
188.2630, 231.1180
188.7451, 230.3843
189.2272, 229.1624
189.7094, 227.9309
190.1915, 227.3845
190.6736, 227.7243
191.1557, 227.7471
191.6378, 227.1198
192.1199, 226.1907
192.6021, 225.3619
193.0842, 224.7205
193.5663, 224.1862
194.0484, 223.6679
194.5305, 223.1580
195.0126, 222.7347
195.4948, 222.5184
195.9769, 222.3956
196.4590, 222.1199
196.9411, 221.6044
197.4232, 220.9997
197.9053, 220.4712
198.3875, 220.0070
198.8696, 219.5135
199.3517, 218.7978
199.8338, 217.9695
200.3159, 217.5400
200.7980, 217.7902
201.2802, 218.2251
201.7623, 218.5459
202.2444, 218.7394
202.7265, 218.7737
203.2086, 218.5296
203.6907, 218.0201
204.1729, 217.6818
204.6550, 217.8255
205.1371, 217.8937
205.6192, 217.5754
206.1013, 216.9067
206.5834, 216.1218
207.0656, 215.3441
207.5477, 214.5186
208.0298, 214.0793
208.5119, 214.5336
208.9940, 214.9763
209.4761, 214.9988
209.9583, 214.6255
210.4404, 214.1658
210.9225, 213.9596
211.4046, 214.1004
211.8867, 214.0976
212.3689, 213.8646
212.8510, 213.5769
213.3331, 213.3328
213.8152, 213.1257
214.2973, 212.8664
214.7794, 212.4256
215.2616, 211.6657
215.7437, 211.2449
216.2258, 211.4314
216.7079, 211.6668
217.1900, 211.6768
217.6721, 211.4221
218.1543, 210.9785
218.6364, 210.3998
219.1185, 209.5960
219.6006, 209.0487
220.0827, 208.8522
220.5648, 208.8090
221.0470, 208.8776
221.5291, 209.0164
222.0112, 209.0823
222.4933, 208.9355
222.9754, 208.5436
223.4575, 207.9478
223.9397, 206.7520
224.4218, 205.6213
224.9039, 205.2219
225.3860, 205.6039
225.8681, 206.0833
226.3502, 205.9173
226.8324, 205.0572
227.3145, 204.5553
227.7966, 204.8728
228.2787, 205.3435
228.7608, 205.2402
229.2429, 204.4619
229.7251, 203.6489
230.2072, 203.4997
230.6893, 203.8756
231.1714, 203.9233
231.6535, 203.2143
232.1356, 202.2548
232.6178, 201.6616
233.0999, 201.5132
233.5820, 201.4580
234.0641, 201.2128
234.5462, 200.8530
235.0283, 200.5505
235.5105, 200.3601
235.9926, 200.2463
236.4747, 200.1880
236.9568, 200.2134
237.4389, 200.1852
237.9210, 200.0179
238.4032, 199.7392
238.8853, 199.3437
239.3674, 198.6645
239.8495, 197.9780
240.3316, 197.8773
240.8137, 198.6413
241.2959, 199.1539
241.7780, 198.5667
242.2601, 197.5041
242.7422, 196.7262
243.2243, 196.6277
243.7064, 196.8179
244.1886, 196.5170
244.6707, 195.5177
245.1528, 194.5513
245.6349, 193.8670
246.1170, 193.3572
246.5991, 192.9385
247.0813, 192.5965
247.5634, 192.2834
248.0455, 191.8780
248.5276, 191.2925
249.0097, 190.8322
249.4918, 190.8188
249.9740, 190.8331
250.4561, 190.4347
250.9382, 189.4460
251.4203, 188.1856
251.9024, 187.2534
252.3845, 186.7316
252.8667, 186.3824
253.3488, 186.2942
253.8309, 186.2578
254.3130, 186.0816
254.7951, 185.7111
255.2772, 185.2675
255.7594, 184.9505
256.2415, 184.7344
256.7236, 184.7220
257.2057, 185.2971
257.6878, 185.8003
258.1699, 185.6151
258.6520, 184.6469
259.1342, 183.4092
259.6163, 182.7361
260.0984, 182.9627
260.5805, 183.0696
261.0626, 183.0069
261.5447, 182.8760
262.0269, 182.7206
262.5090, 182.5600
262.9911, 182.4185
263.4732, 182.3660
263.9553, 182.5807
264.4374, 182.3583
264.9196, 181.1619
265.4017, 180.0353
265.8838, 179.7820
266.3659, 180.3536
266.8480, 180.9982
267.3301, 180.8592
267.8123, 179.6686
268.2944, 178.8046
268.7765, 178.4077
269.2586, 178.1424
269.7407, 177.8250
270.2228, 177.4632
270.7050, 177.1879
271.1871, 177.1363
271.6692, 177.3459
272.1513, 177.4231
272.6334, 177.2246
273.1155, 177.0586
273.5977, 177.2172
274.0798, 177.5647
274.5619, 177.6591
275.0440, 177.1350
275.5261, 176.0040
276.0082, 175.0757
276.4904, 174.2685
276.9725, 173.6928
277.4546, 173.5748
277.9367, 173.7353
278.4188, 173.7555
278.9009, 173.3578
279.3831, 172.6228
279.8652, 172.0693
280.3473, 171.6800
280.8294, 171.4463
281.3115, 171.4504
281.7936, 171.6047
282.2758, 171.7711
282.7579, 171.8968
283.2400, 171.9571
283.7221, 171.8520
284.2042, 171.4141
284.6863, 171.0798
285.1685, 171.1129
285.6506, 171.2648
286.1327, 171.0832
286.6148, 170.3651
287.0969, 169.4622
287.5790, 169.1123
288.0612, 169.5502
288.5433, 169.8880
289.0254, 170.0890
289.5075, 170.0818
289.9896, 169.6658
290.4717, 168.7679
290.9539, 167.7845
291.4360, 167.2483
291.9181, 167.2232
292.4002, 167.3756
292.8823, 168.0323
293.3644, 168.6630
293.8466, 168.6436
294.3287, 167.8811
294.8108, 166.9052
295.2929, 166.1998
295.7750, 165.7944
296.2571, 165.4805
296.7393, 165.2086
297.2214, 165.0535
297.7035, 165.1904
298.1856, 165.5880
298.6677, 165.8647
299.1498, 165.7030
299.6320, 165.1235
300.1141, 164.6228
300.5962, 164.1790
301.0783, 163.8278
301.5604, 163.7021
302.0425, 163.7321
302.5247, 163.5714
303.0068, 162.9401
303.4889, 162.0271
303.9710, 161.4911
304.4531, 161.4882
304.9352, 161.6083
305.4174, 161.8463
305.8995, 162.0864
306.3816, 161.9422
306.8637, 161.1398
307.3458, 160.0740
307.8279, 159.6438
308.3101, 160.0515
308.7922, 160.3403
309.2743, 160.1691
309.7564, 159.6883
310.2385, 159.0889
310.7206, 158.3690
311.2028, 157.7463
311.6849, 157.6427
312.1670, 158.1153
312.6491, 158.3635
313.1312, 157.9956
313.6133, 157.4272
314.0955, 157.2175
314.5776, 157.4648
315.0597, 157.7659
315.5418, 157.7511
316.0239, 157.4123
316.5060, 156.9377
316.9882, 156.1119
317.4703, 155.3149
317.9524, 154.8650
318.4345, 154.7667
318.9166, 154.8722
319.3987, 155.1822
319.8809, 155.6114
320.3630, 155.7258
320.8451, 155.5148
321.3272, 155.0156
321.8093, 154.0070
322.2914, 152.6599
322.7736, 151.5964
323.2557, 151.1139
323.7378, 151.1096
324.2199, 151.3389
324.7020, 152.0297
325.1841, 152.4777
325.6663, 152.2662
326.1484, 151.6628
326.6305, 151.1619
327.1126, 150.9167
327.5947, 150.8382
328.0768, 150.8228
328.5590, 150.8984
329.0411, 150.8938
329.5232, 150.6646
330.0053, 150.3906
330.4874, 150.3415
330.9695, 150.5665
331.4517, 150.7742
331.9338, 150.6108
332.4159, 150.0264
332.8980, 149.7247
333.3801, 149.9680
333.8622, 150.3167
334.3444, 150.4267
334.8265, 150.3079
335.3086, 150.2045
335.7907, 150.3174
336.2729, 150.5952
336.7550, 150.6442
337.2371, 150.2903
337.7192, 149.9173
338.2013, 149.6098
338.6834, 149.4049
339.1656, 149.4338
339.6477, 149.8076
340.1298, 150.3410
340.6119, 150.4970
341.0940, 150.0849
341.5761, 149.7040
342.0583, 149.3944
342.5404, 149.2015
343.0225, 149.2693
343.5046, 149.6399
343.9867, 150.0296
344.4688, 150.0066
344.9510, 149.3086
345.4331, 148.9646
345.9152, 149.3477
346.3973, 149.8293
346.8794, 149.9084
347.3615, 149.5619
347.8437, 149.0742
348.3258, 148.6667
348.8079, 148.3446
349.2900, 148.1250
349.7721, 148.0977
350.2542, 148.0659
350.7364, 147.8129
351.2185, 147.4872
351.7006, 147.5268
352.1827, 148.2485
352.6648, 149.3614
353.1469, 149.6470
353.6291, 147.9289
354.1112, 146.8514
354.5933, 147.2081
355.0754, 148.1596
355.5575, 148.7361
356.0396, 148.6183
356.5218, 148.1395
357.0039, 147.8579
357.4860, 147.9425
357.9681, 147.8644
358.4502, 147.5280
358.9323, 147.1183
359.4145, 146.6896
359.8966, 146.2893
360.3787, 146.0328
360.8608, 146.0790
361.3429, 146.4839
361.8250, 146.5022
362.3072, 145.6692
362.7893, 144.9617
363.2714, 144.8421
363.7535, 145.0630
364.2356, 145.1165
364.7177, 144.6915
365.1999, 143.9348
365.6820, 143.4527
366.1641, 143.5787
366.6462, 143.5221
367.1283, 143.0306
367.6104, 142.4189
368.0926, 141.9937
368.5747, 141.8434
369.0568, 141.8261
369.5389, 141.7612
370.0210, 141.7061
370.5031, 141.4268
370.9853, 140.7379
371.4674, 139.9919
371.9495, 139.2869
372.4316, 138.6720
372.9137, 138.2439
373.3958, 138.1331
373.8780, 138.3186
374.3601, 138.3414
374.8422, 138.1015
375.3243, 137.8115
375.8064, 137.5043
376.2885, 137.2020
376.7707, 136.9530
377.2528, 136.7976
377.7349, 136.6460
378.2170, 136.2696
378.6991, 135.5582
379.1812, 134.9485
379.6634, 134.6639
380.1455, 134.4456
380.6276, 134.0401
381.1097, 133.4190
381.5918, 132.9019
382.0739, 132.9596
382.5561, 133.5678
383.0382, 133.7423
383.5203, 133.0326
384.0024, 132.2897
384.4845, 132.1444
384.9666, 132.4156
385.4488, 132.5546
385.9309, 132.1295
386.4130, 131.4259
386.8951, 131.1358
387.3772, 131.3795
387.8593, 131.5702
388.3415, 131.3673
388.8236, 130.9324
389.3057, 130.4196
389.7878, 129.7908
390.2699, 129.2431
390.7520, 128.9977
391.2342, 129.0164
391.7163, 129.0309
392.1984, 128.9872
392.6805, 128.8770
393.1626, 128.6685
393.6447, 128.3618
394.1269, 128.0897
394.6090, 127.9755
395.0911, 127.9029
395.5732, 127.6324
396.0553, 127.1178
396.5374, 126.6769
397.0196, 126.6910
397.5017, 127.0450
397.9838, 126.9935
398.4659, 125.9397
398.9480, 124.9853
399.4301, 124.9811
399.9123, 125.6827
400.3944, 126.2325
400.8765, 126.2190
401.3586, 125.8659
401.8407, 125.7087
402.3228, 125.8427
402.8050, 125.9266
403.2871, 125.7757
403.7692, 125.6074
404.2513, 125.7127
404.7334, 126.1308
405.2155, 126.6037
405.6977, 126.8545
406.1798, 126.8498
406.6619, 126.8455
407.1440, 126.7792
407.6261, 126.7739
408.1082, 126.9476
408.5904, 127.2266
409.0725, 127.4450
409.5546, 127.5066
410.0367, 127.4454
410.5188, 127.3792
411.0009, 127.2339
411.4831, 127.1896
411.9652, 127.2176
412.4473, 127.3680
412.9294, 127.7425
413.4115, 128.3325
413.8936, 128.9693
414.3758, 129.4587
414.8579, 129.7913
415.3400, 130.0263
415.8221, 130.0089
416.3042, 130.0431
416.7863, 130.3275
417.2685, 130.7359
417.7506, 131.0030
418.2327, 130.9458
418.7148, 130.6835
419.1969, 130.5864
419.6790, 130.7567
420.1612, 130.8528
420.6433, 130.7885
421.1254, 130.6207
421.6075, 130.3525
422.0896, 129.9909
422.5717, 129.6448
423.0539, 129.4756
423.5360, 129.4641
424.0181, 129.2889
424.5002, 128.8403
424.9823, 128.3352
425.4644, 127.8433
425.9466, 127.4060
426.4287, 127.1440
426.9108, 127.2077
427.3929, 127.3976
427.8750, 127.4476
428.3571, 127.3553
428.8393, 127.1798
429.3214, 126.9056
429.8035, 126.5878
430.2856, 126.3230
430.7677, 126.1167
431.2498, 125.9378
431.7320, 125.7485
432.2141, 125.5795
432.6962, 125.5158
433.1783, 125.5866
433.6604, 125.6546
434.1425, 125.5405
434.6247, 125.2439
435.1068, 125.1439
435.5889, 125.3265
436.0710, 125.6423
436.5531, 126.1486
437.0352, 126.7292
437.5174, 127.0426
437.9995, 126.8898
438.4816, 126.4382
438.9637, 126.1312
439.4458, 126.0234
439.9279, 125.9896
440.4101, 125.9876
440.8922, 126.0817
441.3743, 126.3894
441.8564, 126.8918
442.3385, 127.3977
442.8206, 127.7144
443.3028, 127.8286
443.7849, 127.9784
444.2670, 128.2473
444.7491, 128.4603
445.2312, 128.5336
445.7133, 128.5364
446.1955, 128.5430
446.6776, 128.5838
447.1597, 128.7060
447.6418, 129.0396
448.1239, 129.6933
448.6060, 130.2149
449.0882, 130.5219
449.5703, 130.7070
450.0524, 130.7585
450.5345, 130.7108
451.0166, 130.6770
451.4987, 130.8225
451.9809, 131.0376
452.4630, 130.8153
452.9451, 129.8886
453.4272, 129.2409
453.9093, 129.7050
454.3914, 130.5720
454.8736, 131.0505
455.3557, 130.9215
455.8378, 130.6730
456.3199, 130.6882
456.8020, 130.9134
457.2841, 131.1575
457.7663, 131.4238
458.2484, 131.5970
458.7305, 131.4128
459.2126, 130.9466
459.6947, 130.7936
460.1768, 131.4245
460.6590, 132.1214
461.1411, 132.1617
461.6232, 131.6858
462.1053, 131.4307
462.5874, 131.8160
463.0695, 132.5828
463.5517, 133.0202
464.0338, 132.9093
464.5159, 132.8946
464.9980, 133.1270
465.4801, 133.4334
465.9622, 133.6870
466.4444, 133.8542
466.9265, 133.9179
467.4086, 133.8444
467.8907, 133.6323
468.3728, 133.5136
468.8549, 133.5369
469.3371, 133.6015
469.8192, 133.8212
470.3013, 134.0198
470.7834, 133.9675
471.2655, 133.5865
471.7477, 133.0168
472.2298, 132.4374
472.7119, 131.8296
473.1940, 131.3049
473.6761, 130.8403
474.1582, 130.5063
474.6404, 130.4465
475.1225, 130.5475
475.6046, 130.5290
476.0867, 130.2016
476.5688, 129.7104
477.0509, 129.3675
477.5331, 129.2071
478.0152, 128.9296
478.4973, 128.3164
478.9794, 127.6146
479.4615, 127.1042
479.9436, 126.8054
480.4258, 126.5656
480.9079, 126.3034
481.3900, 126.0520
481.8721, 125.8604
482.3542, 125.7328
482.8363, 125.6931
483.3185, 125.7912
483.8006, 125.9955
484.2827, 126.1143
484.7648, 126.1829
485.2469, 126.1321
485.7290, 125.8284
486.2112, 125.4246
486.6933, 125.1614
487.1754, 125.1059
487.6575, 125.1438
488.1396, 125.1441
488.6217, 125.1237
489.1039, 124.9773
489.5860, 124.5917
490.0681, 124.2210
490.5502, 123.9166
491.0323, 123.7088
491.5144, 123.6658
491.9966, 123.8280
492.4787, 124.0763
492.9608, 124.1612
493.4429, 124.0571
493.9250, 123.8645
494.4071, 123.3946
494.8893, 123.0044
495.3714, 122.9976
495.8535, 123.2710
496.3356, 123.4222
496.8177, 123.1905
497.2998, 122.6723
497.7820, 122.0043
498.2641, 121.1141
498.7462, 120.5003
499.2283, 120.5847
499.7104, 120.9202
500.1925, 120.9149
500.6747, 120.5006
501.1568, 120.0397
501.6389, 119.6663
502.1210, 119.3747
502.6031, 119.1906
503.0852, 119.1170
503.5674, 119.0382
504.0495, 118.8423
504.5316, 118.5626
505.0137, 118.4449
505.4958, 118.6915
505.9779, 118.8357
506.4601, 118.7873
506.9422, 118.5461
507.4243, 118.0400
507.9064, 117.2778
508.3885, 116.4678
508.8706, 115.8356
509.3528, 115.3722
509.8349, 115.1624
510.3170, 115.4774
510.7991, 115.7517
511.2812, 115.9459
511.7633, 115.9634
512.2454, 115.6150
512.7275, 114.8210
513.2097, 113.8893
513.6918, 113.3225
514.1739, 113.1717
514.6560, 112.9115
515.1381, 112.3541
515.6202, 111.8317
516.1024, 111.5940
516.5845, 111.5490
517.0666, 111.4460
517.5487, 111.1749
518.0308, 110.8142
518.5129, 110.4227
518.9951, 110.0081
519.4772, 109.6715
519.9593, 109.4876
520.4414, 109.3256
520.9235, 108.9180
521.4056, 108.2240
521.8878, 107.7809
522.3699, 107.8860
522.8520, 108.1050
523.3341, 108.1989
523.8162, 108.1126
524.2983, 107.7079
524.7805, 106.8672
525.2626, 105.8014
525.7447, 105.0887
526.2268, 104.9569
526.7089, 104.8537
527.1910, 104.8440
527.6732, 104.8067
528.1553, 104.6657
528.6374, 104.4209
529.1195, 104.0945
529.6016, 103.6692
530.0837, 103.2102
530.5659, 102.9881
531.0480, 103.1134
531.5301, 103.1855
532.0122, 103.0733
532.4943, 102.8758
532.9764, 102.6482
533.4586, 102.3985
533.9407, 102.1350
534.4228, 101.7854
534.9049, 101.4486
535.3870, 101.3605
535.8691, 101.5449
536.3513, 101.7730
536.8334, 101.9850
537.3155, 102.1143
537.7976, 101.9779
538.2797, 101.4414
538.7618, 100.9874
539.2440, 100.7345
539.7261, 100.6423
540.2082, 100.7567
540.6903, 101.0315
541.1724, 101.2120
541.6545, 101.0732
542.1367, 100.6697
542.6188, 100.4467
543.1009, 100.4847
543.5830, 100.6160
544.0651, 100.9434
544.5472, 101.2794
545.0294, 101.4495
545.5115, 101.4397
545.9936, 101.3700
546.4757, 101.3274
546.9578, 101.3171
547.4399, 101.3862
547.9221, 101.5753
548.4042, 101.7477
548.8863, 101.8375
549.3684, 101.8847
549.8505, 101.8973
550.3326, 101.8602
550.8148, 101.9203
551.2969, 102.2536
551.7790, 102.7206
552.2611, 103.0545
552.7432, 103.2243
553.2253, 103.3344
553.7075, 103.4429
554.1896, 103.5536
554.6717, 103.6842
555.1538, 103.8517
555.6359, 104.0122
556.1180, 104.1186
556.6002, 104.2369
557.0823, 104.4650
557.5644, 104.7940
558.0465, 105.1022
558.5286, 105.2689
559.0107, 105.3170
559.4929, 105.4572
559.9750, 105.6456
560.4571, 106.0122
560.9392, 106.7413
561.4213, 107.5283
561.9034, 108.1191
562.3856, 108.4750
562.8677, 108.7334
563.3498, 108.9680
563.8319, 109.1907
564.3140, 109.4252
564.7961, 109.6632
565.2783, 109.9723
565.7604, 110.4206
566.2425, 110.9450
566.7246, 111.4167
567.2067, 111.8210
567.6888, 112.2317
568.1710, 112.6964
568.6531, 113.1656
569.1352, 113.6253
569.6173, 114.0500
570.0994, 114.3348
570.5815, 114.4058
571.0637, 114.2844
571.5458, 114.0612
572.0279, 113.7352
572.5100, 113.2941
572.9921, 112.4735
573.4742, 111.7524
573.9564, 111.6204
574.4385, 111.9497
574.9206, 112.1406
575.4027, 111.6964
575.8848, 110.8949
576.3669, 110.5755
576.8491, 110.8565
577.3312, 111.0074
577.8133, 110.7022
578.2954, 110.2798
578.7775, 110.1235
579.2596, 110.2165
579.7418, 110.2025
580.2239, 109.7574
580.7060, 109.2822
581.1881, 109.2748
581.6702, 109.6452
582.1523, 109.9336
582.6345, 109.9377
583.1166, 109.7618
583.5988, 109.5771
584.0809, 109.3153
584.5630, 109.2478
585.0451, 109.5236
585.5272, 109.8323
586.0093, 109.9517
586.4915, 109.9950
586.9736, 110.2366
587.4557, 110.8106
587.9378, 111.4925
588.4199, 111.8714
588.9020, 111.9082
589.3842, 111.9739
589.8663, 112.0017
590.3484, 112.2078
590.8305, 112.8613
591.3126, 113.7585
591.7947, 114.4368
592.2769, 114.6683
592.7590, 114.8427
593.2411, 115.2573
593.7232, 115.8518
594.2053, 116.5270
594.6874, 117.2741
595.1696, 117.9024
595.6517, 118.1839
596.1338, 118.1248
596.6159, 118.3348
597.0980, 119.1129
597.5801, 119.7453
598.0623, 119.9949
598.5444, 120.0668
599.0265, 120.1150
599.5086, 120.2076
599.9907, 120.4580
600.4728, 121.0750
600.9550, 121.9565
601.4371, 122.2882
601.9192, 121.7985
602.4013, 121.4204
602.8834, 121.6662
603.3655, 122.0619
603.8477, 122.2035
604.3298, 122.0556
604.8119, 121.7484
605.2940, 121.2708
605.7761, 120.7143
606.2582, 120.1495
606.7404, 119.5999
607.2225, 119.2084
607.7046, 119.0877
608.1867, 119.0475
608.6688, 118.6918
609.1509, 117.8720
609.6331, 117.0657
610.1152, 116.1484
610.5973, 115.3660
611.0794, 114.9457
611.5615, 114.7395
612.0436, 114.4458
612.5258, 113.9238
613.0079, 113.2961
613.4900, 112.8085
613.9721, 112.4786
614.4542, 111.8585
614.9363, 110.6888
615.4185, 109.5822
615.9006, 109.0648
616.3827, 108.8694
616.8648, 108.4931
617.3469, 107.8216
617.8290, 107.0080
618.3112, 105.9956
618.7933, 104.9515
619.2754, 104.1407
619.7575, 103.6115
620.2396, 103.3423
620.7217, 103.3875
621.2039, 103.6460
621.6860, 103.4367
622.1681, 102.1791
622.6502, 101.2519
623.1323, 101.0335
623.6144, 100.9474
624.0966, 100.5094
624.5787, 99.76494
625.0608, 99.11385
625.5429, 98.83932
626.0250, 98.78380
626.5071, 98.61730
626.9893, 98.33266
627.4714, 98.08843
627.9535, 97.95939
628.4356, 97.83932
628.9177, 97.56498
629.3998, 97.16532
629.8820, 96.87269
630.3641, 96.74304
630.8462, 96.70613
631.3283, 96.78254
631.8104, 96.90781
632.2925, 96.98666
632.7747, 96.98908
633.2568, 96.90812
633.7389, 96.70334
634.2210, 96.37327
634.7031, 96.29056
635.1852, 96.72474
635.6674, 96.99717
636.1495, 96.90253
636.6316, 96.62347
637.1137, 96.31937
637.5958, 96.01260
638.0779, 95.65563
638.5601, 95.10852
639.0422, 94.54038
639.5243, 94.28757
640.0064, 94.33511
640.4885, 94.37650
640.9706, 94.28598
641.4528, 94.12360
641.9349, 93.97185
642.4170, 93.81475
642.8991, 93.74200
643.3812, 94.02627
643.8633, 94.10803
644.3455, 93.46240
644.8276, 92.52747
645.3097, 92.05280
645.7918, 92.27176
646.2739, 92.68661
646.7560, 92.65163
647.2382, 92.18664
647.7203, 91.89441
648.2024, 91.84196
648.6845, 91.80151
649.1666, 91.68670
649.6487, 91.51183
650.1309, 91.28312
650.6130, 90.98986
651.0951, 90.71449
651.5772, 90.44568
652.0593, 90.23914
652.5414, 90.20899
653.0236, 90.30656
653.5057, 90.34319
653.9878, 90.22426
654.4699, 90.01875
654.9520, 89.85427
655.4341, 89.74619
655.9163, 89.62829
656.3984, 89.27040
656.8805, 89.15482
657.3626, 89.83173
657.8447, 90.70837
658.3268, 90.83733
658.8090, 89.90508
659.2911, 88.81428
659.7732, 88.31890
660.2553, 88.23006
660.7374, 88.10936
661.2195, 87.92099
661.7017, 87.71889
662.1838, 87.48772
662.6659, 87.32359
663.1480, 87.50558
663.6301, 88.44151
664.1122, 88.84776
664.5944, 88.31438
665.0765, 87.61098
665.5586, 87.06951
666.0407, 86.71892
666.5228, 86.53971
667.0049, 86.52331
667.4871, 86.62209
667.9692, 86.87209
668.4513, 87.24554
668.9334, 87.24800
669.4155, 86.71937
669.8976, 86.18276
670.3798, 85.94923
670.8619, 85.90585
671.3440, 85.78452
671.8261, 85.52102
672.3082, 85.36867
672.7903, 85.47546
673.2725, 85.66659
673.7546, 85.79578
674.2367, 85.86821
674.7188, 85.96033
675.2009, 86.11272
675.6830, 86.25672
676.1652, 86.26022
676.6473, 86.10510
677.1294, 85.90492
677.6115, 85.63198
678.0936, 85.35409
678.5757, 85.03369
679.0579, 84.75256
679.5400, 84.64877
680.0221, 84.76712
680.5042, 84.93654
680.9863, 85.05389
681.4684, 85.17041
681.9506, 85.43179
682.4327, 85.78850
682.9148, 85.92946
683.3969, 85.66830
683.8790, 85.21425
684.3611, 84.99094
684.8433, 85.08570
685.3254, 85.14590
685.8075, 85.28548
686.2896, 85.26157
686.7717, 84.74085
687.2538, 84.10582
687.7360, 83.97944
688.2181, 84.54674
688.7002, 85.06643
689.1823, 84.82069
689.6644, 84.16014
690.1465, 83.79878
690.6287, 83.76311
691.1108, 83.79549
691.5929, 83.78100
692.0750, 83.74375
692.5571, 83.73110
693.0392, 83.76536
693.5214, 83.75508
694.0035, 83.72672
694.4856, 83.63074
694.9677, 83.28679
695.4498, 82.93274
695.9319, 82.97106
696.4141, 83.48428
696.8962, 83.99543
697.3783, 84.00541
697.8604, 83.67234
698.3425, 83.45198
698.8246, 83.35520
699.3068, 83.33818
699.7889, 83.43932
700.2710, 83.51674
700.7531, 83.30936
701.2352, 82.71609
701.7173, 82.34921
702.1995, 82.38054
702.6816, 82.45911
703.1637, 82.44199
703.6458, 82.38631
704.1279, 82.40040
704.6100, 82.49609
705.0922, 82.55094
705.5743, 82.37047
706.0564, 82.08117
706.5385, 82.24764
707.0206, 82.94790
707.5027, 83.37267
707.9849, 83.21548
708.4670, 82.74763
708.9491, 82.14864
709.4312, 81.42195
709.9133, 81.14814
710.3954, 81.73128
710.8776, 82.34258
711.3597, 82.69363
711.8418, 82.86723
712.3239, 82.95631
712.8060, 82.98827
713.2881, 82.96420
713.7703, 82.87940
714.2524, 82.74689
714.7345, 82.57806
715.2166, 82.35408
715.6987, 82.26986
716.1808, 82.46159
716.6630, 82.66178
717.1451, 82.57655
717.6272, 82.27849
718.1093, 82.09428
718.5914, 82.15547
719.0735, 82.19675
719.5557, 82.03756
720.0378, 81.87327
720.5199, 82.00752
721.0020, 82.36930
721.4841, 82.55115
721.9662, 82.27024
722.4484, 81.74580
722.9305, 81.43774
723.4126, 81.35961
723.8947, 81.34081
724.3768, 81.39906
724.8589, 81.44133
725.3411, 81.35918
725.8232, 81.22707
726.3053, 81.23725
726.7874, 81.49289
727.2695, 81.65916
727.7516, 81.48235
728.2338, 81.29996
728.7159, 81.54679
729.1980, 82.03515
729.6801, 82.17653
730.1622, 81.69710
730.6443, 81.03278
731.1265, 80.85669
731.6086, 81.17124
732.0907, 81.42185
732.5728, 81.60238
733.0549, 81.70136
733.5370, 81.70264
734.0192, 81.62154
734.5013, 81.46031
734.9834, 81.19741
735.4655, 81.02670
735.9476, 81.09267
736.4297, 81.15696
736.9119, 81.02015
737.3940, 80.79723
737.8761, 80.68724
738.3582, 80.74187
738.8403, 80.87534
739.3224, 81.03878
739.8046, 81.19883
740.2867, 81.17839
740.7688, 80.95081
741.2509, 80.68002
741.7330, 80.30937
742.2151, 80.05247
742.6973, 80.24301
743.1794, 80.81088
743.6615, 81.18607
744.1436, 81.22321
744.6257, 81.18406
745.1078, 81.16735
745.5900, 81.11434
746.0721, 80.89774
746.5542, 80.56543
747.0363, 80.34342
747.5184, 80.39011
748.0005, 80.57453
748.4827, 80.62357
748.9648, 80.54105
749.4469, 80.61841
749.9290, 80.98145
750.4111, 81.22375
750.8932, 81.00143
751.3754, 80.47668
751.8575, 80.16348
752.3396, 80.12103
752.8217, 80.12431
753.3038, 80.20028
753.7859, 80.25996
754.2681, 80.23681
754.7502, 80.15784
755.2323, 80.07580
755.7144, 80.00975
756.1965, 79.95167
756.6786, 79.88000
757.1608, 79.81023
757.6429, 79.78591
758.1250, 79.80740
758.6071, 79.94604
759.0892, 80.30366
759.5714, 80.62534
760.0535, 80.51551
760.5356, 79.89880
761.0177, 79.51783
761.4998, 79.60221
761.9819, 79.61153
762.4641, 79.23964
762.9462, 78.85060
763.4283, 78.85889
763.9104, 79.22739
764.3925, 79.54186
764.8746, 79.52304
765.3568, 79.39048
765.8389, 79.45728
766.3210, 79.66376
766.8031, 79.70023
767.2852, 79.50046
767.7673, 79.61777
768.2495, 80.61636
768.7316, 82.07176
769.2137, 82.38928
769.6958, 80.68594
770.1779, 79.52721
770.6600, 79.16738
771.1422, 79.08874
771.6243, 79.21529
772.1064, 79.42396
772.5885, 79.54493
773.0706, 79.53455
773.5527, 79.47850
774.0349, 79.43642
774.5170, 79.37658
774.9991, 79.23709
775.4812, 79.03986
775.9633, 78.85444
776.4454, 78.70690
776.9276, 78.62942
777.4097, 78.67864
777.8918, 78.84914
778.3739, 78.93677
778.8560, 78.89443
779.3381, 78.87747
779.8203, 78.99425
780.3024, 79.08702
780.7845, 78.99036
781.2666, 78.74757
781.7487, 78.57352
782.2308, 78.49794
782.7130, 78.52459
783.1951, 78.77510
783.6772, 79.05376
784.1593, 79.12514
784.6414, 78.99129
785.1235, 78.75459
785.6057, 78.46006
786.0878, 78.20997
786.5699, 78.26043
787.0520, 78.60025
787.5341, 78.60191
788.0162, 78.08359
788.4984, 77.81103
788.9805, 78.38471
789.4626, 79.23734
789.9447, 79.26032
790.4268, 78.22935
790.9089, 77.58621
791.3911, 77.65574
791.8732, 77.83358
792.3553, 77.94688
792.8374, 77.99323
793.3195, 77.94289
793.8016, 77.82211
794.2838, 77.77568
794.7659, 77.95403
795.2480, 78.19445
795.7301, 78.22909
796.2122, 78.10056
796.6943, 77.99756
797.1765, 77.95737
797.6586, 77.91927
798.1407, 77.82986
798.6228, 77.71764
799.1049, 77.69776
799.5870, 77.88494
800.0692, 77.91987
800.5513, 77.67224
801.0334, 77.40128
801.5155, 77.09164
801.9976, 76.86874
802.4797, 76.95611
802.9619, 77.41276
803.4440, 77.85910
803.9261, 78.24049
804.4082, 78.41793
804.8903, 78.07300
805.3724, 77.45710
805.8546, 77.14230
806.3367, 77.26897
806.8188, 77.51034
807.3009, 77.56151
807.7830, 77.46875
808.2651, 77.43058
808.7473, 77.46817
809.2294, 77.40382
809.7115, 77.15962
810.1936, 76.88901
810.6757, 76.64347
811.1578, 76.47116
811.6400, 76.57016
812.1221, 77.19476
812.6042, 77.57310
813.0863, 77.41917
813.5684, 77.16841
814.0505, 77.06757
814.5327, 77.07113
815.0148, 77.05793
815.4969, 76.99419
815.9790, 76.95703
816.4611, 77.02793
816.9432, 77.16174
817.4254, 77.32342
817.9075, 77.48486
818.3896, 77.46526
818.8717, 77.20269
819.3538, 76.93285
819.8359, 76.91195
820.3181, 77.08115
820.8002, 77.01445
821.2823, 76.55068
821.7644, 76.21793
822.2465, 76.02894
822.7286, 76.04223
823.2108, 76.48128
823.6929, 77.09421
824.1750, 77.35012
824.6571, 77.08796
825.1392, 76.79333
825.6213, 76.48927
826.1035, 76.37293
826.5856, 76.89130
827.0677, 77.64361
827.5498, 77.77100
828.0319, 77.07324
828.5140, 76.24977
828.9962, 75.92742
829.4783, 75.99355
829.9604, 76.18691
830.4425, 76.50162
830.9246, 76.71596
831.4067, 76.75849
831.8889, 76.79342
832.3710, 76.98266
832.8531, 77.26466
833.3352, 77.36118
833.8173, 77.17787
834.2994, 76.96554
834.7816, 76.67393
835.2637, 76.41185
835.7458, 76.20058
836.2279, 76.06099
836.7100, 76.02206
837.1921, 76.09074
837.6743, 76.22775
838.1564, 76.52415
838.6385, 76.78232
839.1206, 76.77001
839.6027, 76.59777
840.0848, 76.48824
840.5670, 76.48811
841.0491, 76.52174
841.5312, 76.54789
842.0133, 76.51907
842.4954, 76.21465
842.9775, 75.62122
843.4597, 75.43941
843.9418, 75.85561
844.4239, 76.33569
844.9060, 76.59666
845.3881, 76.67981
845.8702, 76.65564
846.3524, 76.43979
846.8345, 76.37737
847.3166, 76.72655
847.7987, 76.91082
848.2808, 76.51559
848.7629, 76.01321
849.2451, 75.99375
849.7272, 76.42776
850.2093, 76.70362
850.6914, 76.44737
851.1735, 76.06147
851.6556, 75.80727
852.1378, 75.68037
852.6199, 75.71416
853.1020, 75.87780
853.5841, 76.03165
854.0662, 76.09663
854.5483, 76.14916
855.0305, 76.38854
855.5126, 76.79350
855.9947, 76.82738
856.4768, 76.40858
856.9589, 75.99415
857.4410, 75.72309
857.9232, 75.57655
858.4053, 75.53027
858.8874, 75.58442
859.3695, 75.76384
859.8516, 76.38583
860.3337, 76.68145
860.8159, 76.29415
861.2980, 75.80065
861.7801, 75.54454
862.2622, 75.49715
862.7443, 75.55920
863.2264, 75.73544
863.7086, 75.83278
864.1907, 75.58410
864.6728, 75.31609
865.1549, 75.43586
865.6370, 75.82029
866.1191, 76.20536
866.6013, 76.48388
867.0834, 76.49145
867.5655, 75.98172
868.0476, 75.20583
868.5297, 74.92950
869.0118, 75.15000
869.4940, 75.40099
869.9761, 75.62170
870.4582, 75.78301
870.9403, 75.85949
871.4224, 75.87009
871.9045, 75.86191
872.3867, 75.83033
872.8688, 75.79311
873.3509, 75.69427
873.8330, 75.65807
874.3151, 75.72404
874.7972, 75.86545
875.2794, 76.16836
875.7615, 76.57446
876.2436, 76.65714
876.7257, 75.93690
877.2078, 75.30189
877.6899, 75.29152
878.1721, 75.56191
878.6542, 75.79334
879.1363, 75.93973
879.6184, 76.02825
880.1005, 76.07122
880.5826, 76.07323
881.0648, 75.98952
881.5469, 75.87910
882.0290, 75.96944
882.5111, 76.23352
882.9932, 76.34387
883.4753, 76.18852
883.9575, 75.97690
884.4396, 75.92075
884.9217, 75.97720
885.4038, 75.89759
885.8859, 75.59056
886.3680, 75.43166
886.8502, 75.52181
887.3323, 75.66507
887.8144, 75.81828
888.2965, 75.92899
888.7786, 75.85429
889.2607, 75.52367
889.7429, 75.44321
890.2250, 75.98934
890.7071, 76.43259
891.1892, 76.43452
891.6713, 76.21166
892.1534, 75.93502
892.6356, 75.66061
893.1177, 75.45248
893.5998, 75.35011
894.0819, 75.29640
894.5640, 75.26527
895.0461, 75.23685
895.5283, 75.14613
896.0104, 75.02437
896.4925, 75.00601
896.9746, 75.13937
897.4567, 75.33542
897.9388, 75.54092
898.4210, 75.70196
898.9031, 75.45596
899.3852, 74.77014
899.8673, 74.57432
900.3494, 75.16335
900.8315, 75.82063
901.3137, 76.03350
901.7958, 75.93265
902.2779, 75.88931
902.7600, 75.96352
903.2421, 75.92460
903.7242, 75.69833
904.2064, 75.45496
904.6885, 75.04054
905.1706, 74.77746
905.6527, 75.17477
906.1348, 76.12981
906.6169, 76.68070
907.0991, 76.26156
907.5812, 75.87589
908.0633, 75.93526
908.5454, 76.15571
909.0275, 76.29750
909.5096, 76.38860
909.9918, 76.58749
910.4739, 76.94224
910.9560, 77.21792
911.4381, 77.12849
911.9202, 76.90134
912.4023, 76.90018
912.8845, 77.04549
913.3666, 77.04743
913.8487, 76.87389
914.3308, 76.82896
914.8129, 77.14538
915.2950, 77.65461
915.7772, 78.04154
916.2593, 78.30384
916.7414, 78.27847
917.2235, 77.90259
917.7056, 77.55599
918.1877, 77.35495
918.6699, 77.34347
919.1520, 77.62698
919.6341, 78.19392
920.1162, 78.57391
920.5983, 78.75889
921.0804, 78.77009
921.5626, 78.41093
922.0447, 78.08152
922.5268, 77.91652
923.0089, 77.94746
923.4910, 78.30727
923.9731, 79.09574
924.4553, 79.63432
924.9374, 79.59628
925.4195, 79.45334
925.9016, 79.36282
926.3837, 79.34202
926.8658, 79.42636
927.3480, 79.58993
927.8301, 79.73674
928.3122, 79.81580
928.7943, 79.89562
929.2764, 80.00368
929.7585, 80.16835
930.2407, 80.54082
930.7228, 80.99934
931.2049, 81.13668
931.6870, 80.85701
932.1691, 80.52056
932.6512, 80.42574
933.1334, 80.56495
933.6155, 81.00224
934.0976, 81.69426
934.5797, 82.25346
935.0618, 82.62062
935.5439, 82.99162
936.0261, 83.47874
936.5082, 83.99809
936.9903, 84.41727
937.4724, 84.73253
937.9545, 84.95158
938.4366, 84.96441
938.9188, 85.18703
939.4009, 85.76538
939.8830, 86.50618
940.3651, 87.32755
940.8472, 88.18948
941.3293, 88.97726
941.8115, 89.82356
942.2936, 90.29394
942.7757, 89.93307
943.2578, 89.72527
943.7399, 90.15755
944.2220, 90.83828
944.7042, 91.32170
945.1863, 91.62333
945.6684, 92.09146
946.1505, 92.98092
946.6326, 93.79534
947.1147, 94.25221
947.5969, 94.57314
948.0790, 94.93958
948.5611, 95.33525
949.0432, 95.65063
949.5253, 95.87449
950.0074, 96.20613
950.4896, 96.78455
950.9717, 97.55459
951.4538, 98.66039
951.9359, 99.83756
952.4180, 100.3361
952.9001, 100.2438
953.3823, 100.4987
953.8644, 101.5826
954.3465, 103.0125
954.8286, 104.1617
955.3107, 105.0884
955.7928, 106.0309
956.2750, 106.9945
956.7571, 107.9499
957.2392, 108.8753
957.7213, 110.0279
958.2034, 111.6664
958.6855, 113.5372
959.1677, 114.9311
959.6498, 115.7190
960.1319, 116.7317
960.6140, 118.0026
961.0961, 119.4334
961.5782, 121.0962
962.0604, 122.7378
962.5425, 124.0266
963.0246, 125.0282
963.5067, 126.2810
963.9888, 128.0393
964.4709, 129.6262
964.9531, 130.8320
965.4352, 132.1011
965.9173, 133.7165
966.3994, 135.4360
966.8815, 136.8003
967.3636, 137.8239
967.8458, 139.4568
968.3279, 141.9741
968.8100, 145.0295
969.2921, 149.1369
969.7742, 153.1783
970.2563, 156.0418
970.7385, 158.2876
971.2206, 161.0500
971.7027, 164.6008
972.1848, 168.4315
972.6669, 172.1988
973.1490, 176.1763
973.6312, 180.8932
974.1133, 185.7492
974.5954, 190.0077
975.0775, 193.5810
975.5596, 196.6654
976.0417, 199.3415
976.5239, 201.4712
977.0060, 203.0730
977.4881, 203.9622
977.9702, 203.8361
978.4523, 202.7212
978.9344, 200.5424
979.4166, 197.3869
979.8987, 193.9402
980.3808, 190.6824
980.8629, 187.0412
981.3450, 181.7254
981.8271, 175.0936
982.3093, 169.0910
982.7914, 163.7655
983.2735, 158.6953
983.7556, 153.7747
984.2377, 149.0130
984.7198, 144.3795
985.2020, 139.9972
985.6841, 136.2743
986.1662, 133.2925
986.6483, 130.3082
987.1304, 127.2346
987.6125, 124.3745
988.0947, 121.8187
988.5768, 119.5133
989.0589, 117.4174
989.5410, 115.5212
990.0231, 113.7810
990.5052, 112.2072
990.9874, 110.7642
991.4695, 109.4869
991.9516, 108.2916
992.4337, 107.2057
992.9158, 106.1244
993.3979, 104.8193
993.8801, 103.2921
994.3622, 102.1201
994.8443, 101.6152
995.3264, 101.0064
995.8085, 100.0448
996.2906, 99.13225
996.7728, 98.43369
997.2549, 97.94904
997.7370, 97.75455
998.2191, 97.85561
998.7012, 97.75351
999.1833, 97.15524
999.6655, 96.56302
1000.148, 96.19262
1000.630, 95.86351
1001.112, 95.38126
1001.594, 94.83977
1002.076, 94.45716
1002.558, 94.28378
1003.040, 94.10448
1003.522, 93.80743
1004.005, 93.47533
1004.487, 93.13689
1004.969, 92.81033
1005.451, 92.49537
1005.933, 92.21232
1006.415, 92.00975
1006.897, 91.90504
1007.379, 91.84692
1007.861, 91.91295
1008.344, 91.90032
1008.826, 91.45304
1009.308, 90.82665
1009.790, 90.48359
1010.272, 90.43661
1010.754, 90.43681
1011.236, 90.36571
1011.718, 90.31961
1012.201, 90.45898
1012.683, 90.66193
1013.165, 90.68534
1013.647, 90.58348
1014.129, 90.53535
1014.611, 90.55962
1015.093, 90.55309
1015.575, 90.45832
1016.057, 90.26608
1016.540, 89.89074
1017.022, 89.41647
1017.504, 89.15943
1017.986, 89.09461
1018.468, 89.06194
1018.950, 89.02151
1019.432, 88.92664
1019.914, 88.75294
1020.396, 88.46756
1020.879, 87.87585
1021.361, 87.04533
1021.843, 86.90630
1022.325, 87.47349
1022.807, 87.80092
1023.289, 87.64474
1023.771, 87.24522
1024.253, 86.73714
1024.735, 86.22306
1025.218, 85.96693
1025.700, 85.98999
1026.182, 85.89786
1026.664, 85.66148
1027.146, 85.49055
1027.628, 85.47124
1028.110, 85.41141
1028.592, 85.11036
1029.075, 84.71835
1029.557, 84.70367
1030.039, 85.21081
1030.521, 85.23181
1031.003, 84.51225
1031.485, 84.06473
1031.967, 84.28740
1032.449, 84.63696
1032.932, 84.67380
1033.414, 84.48277
1033.896, 84.31926
1034.378, 84.13119
1034.860, 84.17121
1035.342, 84.61998
1035.824, 84.94965
1036.306, 85.03055
1036.788, 84.91219
1037.271, 84.44902
1037.753, 83.85435
1038.235, 83.89384
1038.717, 84.97559
1039.199, 85.56165
1039.681, 85.36800
1040.163, 85.08870
1040.645, 84.56625
1041.127, 84.32430
1041.610, 85.14240
1042.092, 86.57100
1042.574, 87.11071
1043.056, 86.31458
1043.538, 85.83718
1044.020, 85.89149
1044.502, 86.07990
1044.984, 86.49532
1045.467, 86.82370
1045.949, 86.63857
1046.431, 86.16944
1046.913, 86.17332
1047.395, 86.96780
1047.877, 87.38119
1048.359, 86.87253
1048.841, 86.46667
1049.323, 86.64433
1049.806, 86.94905
1050.288, 86.96541
1050.770, 86.78709
1051.252, 86.72752
1051.734, 86.84388
1052.216, 87.01836
1052.698, 87.28722
1053.180, 87.53291
1053.662, 87.68149
1054.145, 87.81419
1054.627, 88.08721
1055.109, 88.38864
1055.591, 88.40195
1056.073, 88.01733
1056.555, 87.67464
1057.037, 87.33263
1057.519, 87.26667
1058.002, 87.91467
1058.484, 88.61140
1058.966, 88.74955
1059.448, 88.46315
1059.930, 88.10886
1060.412, 87.73454
1060.894, 87.57143
1061.376, 87.89903
1061.859, 88.20088
1062.341, 88.26364
1062.823, 88.18306
1063.305, 87.93965
1063.787, 87.65974
1064.269, 87.57717
1064.751, 87.74429
1065.233, 88.00632
1065.715, 88.38674
1066.198, 88.74214
1066.680, 88.94392
1067.162, 89.14453
1067.644, 89.52402
1068.126, 89.98683
1068.608, 90.30116
1069.090, 90.42814
1069.572, 90.64703
1070.054, 91.25478
1070.537, 91.74508
1071.019, 91.74070
1071.501, 91.64233
1071.983, 91.75139
1072.465, 92.03279
1072.947, 92.42249
1073.429, 92.88680
1073.911, 93.26706
1074.394, 93.48534
1074.876, 93.62005
1075.358, 93.65545
1075.840, 93.67361
1076.322, 93.74467
1076.804, 93.84192
1077.286, 93.89141
1077.768, 93.90147
1078.250, 94.01315
1078.733, 94.39941
1079.215, 94.66695
1079.697, 94.48122
1080.179, 94.25648
1080.661, 94.27721
1081.143, 94.47054
1081.625, 94.74419
1082.107, 95.06332
1082.590, 95.37960
1083.072, 95.70466
1083.554, 95.94140
1084.036, 96.03675
1084.518, 96.03549
1085.000, 95.91598
1085.482, 95.75181
1085.964, 95.57243
1086.447, 95.42866
1086.929, 95.49252
1087.411, 95.90407
1087.893, 96.14875
1088.375, 95.79201
1088.857, 95.46826
1089.339, 95.57205
1089.821, 95.87656
1090.303, 96.17729
1090.786, 96.45142
1091.268, 96.76318
1091.750, 97.16262
1092.232, 97.31014
1092.714, 96.71612
1093.196, 96.30134
1093.678, 96.51419
1094.160, 97.08617
1094.642, 98.15359
1095.125, 99.25984
1095.607, 99.36557
1096.089, 98.24812
1096.571, 97.63917
1097.053, 98.56895
1097.535, 99.41502
1098.017, 99.62300
1098.499, 99.52581
1098.982, 99.17725
1099.464, 98.78866
1099.946, 98.69878
1100.428, 98.92276
1100.910, 99.07523
1101.392, 99.10600
1101.874, 98.99223
1102.356, 98.54150
1102.839, 98.15520
1103.321, 98.19022
1103.803, 98.32671
1104.285, 98.14844
1104.767, 97.67472
1105.249, 97.21828
1105.731, 96.86028
1106.213, 96.45124
1106.695, 96.06712
1107.177, 95.50402
1107.660, 94.44924
1108.142, 93.37304
1108.624, 92.82014
1109.106, 92.62276
1109.588, 92.14848
1110.070, 91.27818
1110.552, 90.37740
1111.034, 89.32121
1111.517, 88.43975
1111.999, 87.89464
1112.481, 87.46615
1112.963, 86.99397
1113.445, 86.53380
1113.927, 86.24873
1114.409, 86.19832
1114.891, 85.89895
1115.374, 85.11290
1115.856, 84.48171
1116.338, 84.11501
1116.820, 83.87304
1117.302, 83.70905
1117.784, 83.61072
1118.266, 83.58020
1118.748, 83.61141
1119.230, 83.57122
1119.713, 83.43791
1120.195, 83.28640
1120.677, 83.12667
1121.159, 82.92276
1121.641, 82.57454
1122.123, 82.32607
1122.605, 82.47091
1123.087, 82.89830
1123.569, 83.17508
1124.052, 83.33538
1124.534, 83.15055
1125.016, 82.48378
1125.498, 81.97770
1125.980, 81.80600
1126.462, 81.85123
1126.944, 82.07932
1127.426, 82.35897
1127.909, 82.40573
1128.391, 82.22105
1128.873, 82.04694
1129.355, 81.87305
1129.837, 81.86518
1130.319, 82.08060
1130.801, 82.17162
1131.283, 81.94747
1131.766, 81.54772
1132.248, 81.11750
1132.730, 80.70495
1133.212, 80.58279
1133.694, 80.71493
1134.176, 80.62001
1134.658, 80.26995
1135.140, 80.00154
1135.622, 79.93401
1136.104, 79.93602
1136.587, 79.91142
1137.069, 79.81444
1137.551, 79.48595
1138.033, 79.02285
1138.515, 78.76378
1138.997, 78.68536
1139.479, 78.61803
1139.961, 78.52409
1140.444, 78.44783
1140.926, 78.41664
1141.408, 78.38512
1141.890, 78.39651
1142.372, 78.30364
1142.854, 77.69951
1143.336, 76.85201
1143.818, 76.32250
1144.301, 76.12938
1144.783, 76.07651
1145.265, 76.07894
1145.747, 76.03957
1146.229, 75.90745
1146.711, 75.66664
1147.193, 75.16135
1147.675, 74.64738
1148.157, 74.51904
1148.640, 74.59598
1149.122, 74.48997
1149.604, 74.16213
1150.086, 73.85091
1150.568, 73.64885
1151.050, 73.52856
1151.532, 73.52827
1152.014, 73.54307
1152.496, 73.54234
1152.979, 73.48357
1153.461, 73.31245
1153.943, 73.04861
1154.425, 72.72212
1154.907, 72.32380
1155.389, 72.04265
1155.871, 72.05361
1156.353, 72.02284
1156.836, 71.76713
1157.318, 71.51469
1157.800, 71.38905
1158.282, 71.37772
1158.764, 71.52547
1159.246, 71.80948
1159.728, 71.86344
1160.210, 71.52973
1160.693, 71.18328
1161.175, 70.68706
1161.657, 70.39982
1162.139, 70.62816
1162.621, 70.85962
1163.103, 70.54813
1163.585, 69.97582
1164.067, 69.95983
1164.549, 70.62935
1165.031, 70.92976
1165.514, 70.79740
1165.996, 70.48000
1166.478, 69.92412
1166.960, 69.53945
1167.442, 69.58388
1167.924, 69.77718
1168.406, 69.73737
1168.888, 69.52714
1169.371, 69.46688
1169.853, 69.55276
1170.335, 69.57253
1170.817, 69.51247
1171.299, 69.43800
1171.781, 69.37000
1172.263, 69.31046
1172.745, 69.25822
1173.228, 69.23255
1173.710, 69.33679
1174.192, 69.46962
1174.674, 69.20045
1175.156, 68.71937
1175.638, 68.75030
1176.120, 69.25626
1176.602, 69.52750
1177.084, 69.27802
1177.567, 68.90545
1178.049, 68.71265
1178.531, 68.61171
1179.013, 68.44336
1179.495, 68.34887
1179.977, 68.67458
1180.459, 69.15290
1180.941, 69.18103
1181.423, 68.75903
1181.906, 68.48302
1182.388, 68.64849
1182.870, 68.76994
1183.352, 68.38516
1183.834, 68.12663
1184.316, 68.57595
1184.798, 69.15430
1185.280, 69.22448
1185.763, 69.00490
1186.245, 69.11468
1186.727, 69.65260
1187.209, 69.84834
1187.691, 69.20235
1188.173, 68.78626
1188.655, 68.97208
1189.137, 69.13511
1189.620, 68.90849
1190.102, 68.65697
1190.584, 68.83119
1191.066, 69.24670
1191.548, 69.20307
1192.030, 68.55628
1192.512, 68.14674
1192.994, 67.96384
1193.476, 68.10442
1193.958, 68.68095
1194.441, 69.20502
1194.923, 69.40691
1195.405, 69.38642
1195.887, 69.23472
1196.369, 69.02336
1196.851, 69.13851
1197.333, 69.51145
1197.815, 69.33936
1198.298, 68.64936
1198.780, 68.23836
1199.262, 68.30616
1199.744, 68.42713
1200.226, 68.31064
1200.708, 68.19206
1201.190, 68.44270
1201.672, 68.84588
1202.155, 69.08350
1202.637, 69.16839
1203.119, 69.10119
1203.601, 68.91916
1204.083, 68.65495
1204.565, 68.34646
1205.047, 68.20146
1205.529, 68.36237
1206.011, 68.66466
1206.494, 69.24027
1206.976, 69.65890
1207.458, 69.45179
1207.940, 69.00428
1208.422, 68.70683
1208.904, 68.60318
1209.386, 68.70193
1209.868, 69.06355
1210.350, 69.24947
1210.833, 69.00549
1211.315, 68.86067
1211.797, 69.01346
1212.279, 69.15365
1212.761, 69.07907
1213.243, 68.99639
1213.725, 69.20873
1214.207, 69.59970
1214.690, 69.59136
1215.172, 69.04922
1215.654, 68.85427
1216.136, 69.08082
1216.618, 69.21239
1217.100, 69.13928
1217.582, 68.88499
1218.064, 68.41985
1218.547, 68.13100
1219.029, 68.65359
1219.511, 69.56013
1219.993, 69.49035
1220.475, 68.78584
1220.957, 68.71857
1221.439, 69.18718
1221.921, 69.36950
1222.403, 69.11864
1222.885, 68.93491
1223.368, 69.10310
1223.850, 69.33823
1224.332, 69.45830
1224.814, 69.43964
1225.296, 69.11955
1225.778, 68.75914
1226.260, 68.70800
1226.742, 68.84518
1227.225, 68.84589
1227.707, 68.68826
1228.189, 68.73045
1228.671, 69.37599
1229.153, 69.58367
1229.635, 68.55702
1230.117, 67.77895
1230.599, 67.90374
1231.082, 68.41460
1231.564, 69.15595
1232.046, 69.85062
1232.528, 69.91504
1233.010, 69.35905
1233.492, 69.11678
1233.974, 69.29169
1234.456, 69.31090
1234.938, 69.11112
1235.421, 68.85217
1235.903, 68.56918
1236.385, 68.41070
1236.867, 68.50379
1237.349, 68.74184
1237.831, 68.97944
1238.313, 69.19411
1238.795, 69.31420
1239.277, 69.34433
1239.760, 69.24748
1240.242, 69.07589
1240.724, 69.02323
1241.206, 69.13663
1241.688, 69.28639
1242.170, 69.41592
1242.652, 69.47791
1243.134, 69.46864
1243.617, 69.33904
1244.099, 68.82103
1244.581, 68.34679
1245.063, 68.55170
1245.545, 69.14113
1246.027, 69.38274
1246.509, 69.16790
1246.991, 68.93134
1247.474, 68.55228
1247.956, 68.47457
1248.438, 69.01889
1248.920, 69.41602
1249.402, 69.38979
1249.884, 69.20467
1250.366, 69.05173
1250.848, 68.88454
1251.330, 68.56174
1251.813, 68.12257
1252.295, 68.13895
1252.777, 68.60810
1253.259, 69.04106
1253.741, 69.38210
1254.223, 69.53836
1254.705, 69.49773
1255.187, 69.54722
1255.669, 69.90147
1256.152, 70.34729
1256.634, 70.77493
1257.116, 70.99856
1257.598, 70.64672
1258.080, 69.97910
1258.562, 69.22289
1259.044, 68.56380
1259.526, 68.33646
1260.009, 68.56197
1260.491, 68.86295
1260.973, 69.16160
1261.455, 69.36958
1261.937, 69.42158
1262.419, 69.42336
1262.901, 69.37438
1263.383, 69.33558
1263.865, 69.40382
1264.348, 69.46351
1264.830, 69.28346
1265.312, 68.91580
1265.794, 68.90951
1266.276, 69.36871
1266.758, 69.56765
1267.240, 69.45974
1267.722, 69.27077
1268.204, 69.05143
1268.687, 68.89189
1269.169, 68.84498
1269.651, 68.90407
1270.133, 69.12116
1270.615, 69.34798
1271.097, 69.22351
1271.579, 68.96052
1272.061, 69.04037
1272.544, 69.28383
1273.026, 69.12098
1273.508, 68.63428
1273.990, 68.60154
1274.472, 69.35447
1274.954, 69.80871
1275.436, 69.11445
1275.918, 68.53702
1276.401, 68.75204
1276.883, 69.01223
1277.365, 68.72301
1277.847, 68.36903
1278.329, 68.54679
1278.811, 69.07466
1279.293, 69.41531
1279.775, 69.56993
1280.257, 69.46435
1280.740, 69.03305
1281.222, 68.83443
1281.704, 68.95486
1282.186, 69.02600
1282.668, 68.89812
##END=



