##NAMES=Zincite
##RRUFFID=R050419
##IDEAL CHEMISTRY=Zn^2+^O
##LOCALITY=Sterling Hill, Sussex County, New Jersey, USA
##OWNER=RRUFF
##SOURCE=Marcus Origlieri
##DESCRIPTION=Deep red crystal associated with calcite
##STATUS=The identification of this mineral has been confirmed by X-ray diffraction and chemical analysis
##URL=rruff.info/R050419
##MEASURED CHEMISTRY=(Zn_0.99_Mn_0.01_)O
91.00781, 4.637146
91.48993, 4.690220
91.97205, 4.711586
92.45416, 4.719409
92.93628, 4.695216
93.41840, 4.568095
93.90051, 4.271788
94.38263, 3.964076
94.86475, 3.946271
95.34686, 4.215728
95.82898, 4.518831
96.31110, 4.639749
96.79321, 4.596109
97.27533, 4.567514
97.75745, 4.598682
98.23956, 4.674318
98.72168, 4.724813
99.20380, 4.740876
99.68591, 4.759268
100.1680, 4.809897
100.6501, 4.886607
101.1323, 5.024222
101.6144, 5.239135
102.0965, 5.535692
102.5786, 5.851928
103.0607, 6.177390
103.5428, 6.533875
104.0250, 6.993798
104.5071, 7.675234
104.9892, 8.253384
105.4713, 8.558551
105.9534, 8.326565
106.4355, 8.409314
106.9177, 9.001281
107.3998, 9.915785
107.8819, 10.57963
108.3640, 10.68691
108.8461, 10.78116
109.3282, 11.11769
109.8104, 11.89720
110.2925, 12.67913
110.7746, 13.53075
111.2567, 14.41399
111.7388, 15.06362
112.2209, 15.07416
112.7031, 15.03744
113.1852, 15.36375
113.6673, 16.48657
114.1494, 17.63848
114.6315, 18.63358
115.1136, 19.47052
115.5958, 20.24509
116.0779, 21.00651
116.5600, 21.71689
117.0421, 22.33122
117.5242, 22.66451
118.0063, 23.03017
118.4885, 23.60998
118.9706, 24.44160
119.4527, 25.36777
119.9348, 26.25433
120.4169, 27.17175
120.8990, 28.26611
121.3812, 30.02964
121.8633, 31.80213
122.3454, 32.92921
122.8275, 33.25327
123.3096, 33.09898
123.7917, 32.45581
124.2739, 31.47284
124.7560, 30.69725
125.2381, 30.60425
125.7202, 30.93309
126.2023, 31.21379
126.6844, 31.24085
127.1666, 31.31119
127.6487, 32.02770
128.1308, 33.34739
128.6129, 34.52231
129.0950, 34.47404
129.5771, 33.65804
130.0593, 33.83159
130.5414, 36.26456
131.0235, 39.71880
131.5056, 40.68551
131.9877, 38.81291
132.4698, 36.06535
132.9520, 34.58623
133.4341, 34.31277
133.9162, 34.42249
134.3983, 34.73642
134.8804, 35.22575
135.3625, 35.66336
135.8447, 36.00848
136.3268, 36.40692
136.8089, 37.16284
137.2910, 38.36683
137.7731, 39.40986
138.2552, 40.19780
138.7374, 40.80412
139.2195, 40.47011
139.7016, 38.85659
140.1837, 36.63559
140.6658, 35.26337
141.1479, 34.98259
141.6301, 34.92770
142.1122, 34.65897
142.5943, 33.96325
143.0764, 33.26301
143.5585, 33.75297
144.0406, 34.03352
144.5228, 34.11591
145.0049, 33.40662
145.4870, 33.71962
145.9691, 33.62293
146.4512, 33.50944
146.9333, 33.96632
147.4155, 33.37218
147.8976, 33.82002
148.3797, 33.85191
148.8618, 34.07418
149.3439, 33.88422
149.8260, 33.82159
150.3082, 33.44456
150.7903, 33.88967
151.2724, 34.12537
151.7545, 34.16290
152.2366, 33.40876
152.7188, 33.67690
153.2009, 33.53536
153.6830, 33.37702
154.1651, 33.78905
154.6472, 33.15005
155.1293, 33.55304
155.6115, 33.54007
156.0936, 33.71748
156.5757, 33.48267
157.0578, 33.37519
157.5399, 33.68005
158.0220, 33.75659
158.5042, 33.47432
158.9863, 33.66383
159.4684, 33.01044
159.9505, 33.01553
160.4326, 33.12209
160.9147, 33.37435
161.3969, 33.55541
161.8790, 33.59958
162.3611, 33.54822
162.8432, 33.41001
163.3253, 33.16798
163.8074, 32.90147
164.2896, 32.60411
164.7717, 32.30673
165.2538, 32.07155
165.7359, 31.96374
166.2180, 31.90589
166.7001, 31.83722
167.1823, 31.73584
167.6644, 31.64736
168.1465, 31.62663
168.6286, 31.64687
169.1107, 31.63313
169.5928, 31.49443
170.0750, 31.32185
170.5571, 31.21108
171.0392, 31.20492
171.5213, 31.23245
172.0034, 31.24534
172.4855, 31.24502
172.9677, 31.23671
173.4498, 31.21326
173.9319, 31.18675
174.4140, 31.18362
174.8961, 31.26039
175.3782, 31.30617
175.8604, 31.13624
176.3425, 30.77840
176.8246, 30.47245
177.3067, 30.44546
177.7888, 30.59516
178.2709, 30.71744
178.7531, 30.76984
179.2352, 30.75189
179.7173, 30.64771
180.1994, 30.45924
180.6815, 30.23665
181.1636, 30.00107
181.6458, 29.76291
182.1279, 29.56195
182.6100, 29.41793
183.0921, 29.31449
183.5742, 29.20268
184.0563, 29.08195
184.5385, 28.99932
185.0206, 29.03749
185.5027, 29.17034
185.9848, 29.27264
186.4669, 29.31776
186.9490, 29.29885
187.4312, 29.15033
187.9133, 28.85282
188.3954, 28.57121
188.8775, 28.53350
189.3596, 28.71597
189.8417, 28.89681
190.3239, 28.99909
190.8060, 29.03140
191.2881, 29.01987
191.7702, 28.95691
192.2523, 28.88174
192.7344, 28.85446
193.2166, 28.87532
193.6987, 28.87607
194.1808, 28.80956
194.6629, 28.68547
195.1450, 28.61795
195.6271, 28.61557
196.1093, 28.64767
196.5914, 28.67808
197.0735, 28.70782
197.5556, 28.72215
198.0377, 28.68015
198.5198, 28.58007
199.0020, 28.62593
199.4841, 28.86168
199.9662, 29.16532
200.4483, 29.35167
200.9304, 29.41387
201.4125, 29.40078
201.8947, 29.31350
202.3768, 29.14477
202.8589, 28.97444
203.3410, 28.76486
203.8231, 28.60351
204.3052, 28.71252
204.7874, 29.17053
205.2695, 29.57067
205.7516, 29.71012
206.2337, 29.55032
206.7158, 29.38431
207.1979, 29.19454
207.6801, 29.01899
208.1622, 28.95274
208.6443, 29.02675
209.1264, 29.11229
209.6085, 29.14511
210.0906, 29.10781
210.5728, 29.09914
211.0549, 29.12793
211.5370, 29.18085
212.0191, 29.22686
212.5012, 29.26294
212.9833, 29.30116
213.4655, 29.36150
213.9476, 29.47380
214.4297, 29.48548
214.9118, 29.33193
215.3939, 29.10839
215.8760, 29.07832
216.3581, 29.35151
216.8403, 29.59230
217.3224, 29.58915
217.8045, 29.17896
218.2866, 29.04618
218.7687, 29.31108
219.2508, 29.82125
219.7330, 30.16262
220.2151, 30.29031
220.6972, 30.33013
221.1793, 30.33316
221.6614, 30.28919
222.1435, 30.22548
222.6257, 30.10003
223.1078, 29.96738
223.5899, 29.99400
224.0720, 30.27560
224.5541, 30.56414
225.0362, 30.75082
225.5184, 30.80749
226.0005, 30.82453
226.4826, 30.77676
226.9647, 30.69848
227.4468, 30.68871
227.9289, 30.78312
228.4111, 30.89293
228.8932, 30.97543
229.3753, 31.00897
229.8574, 31.07099
230.3395, 31.18544
230.8216, 31.32340
231.3038, 31.39762
231.7859, 31.34997
232.2680, 31.32290
232.7501, 31.38221
233.2322, 31.55765
233.7143, 31.75895
234.1965, 32.03672
234.6786, 32.33027
235.1607, 32.45588
235.6428, 32.28695
236.1249, 32.13317
236.6070, 32.13409
237.0892, 32.35231
237.5713, 32.59165
238.0534, 32.88134
238.5355, 33.18407
239.0176, 33.40491
239.4997, 33.53761
239.9819, 33.60007
240.4640, 33.58001
240.9461, 33.39172
241.4282, 33.32702
241.9103, 33.42299
242.3924, 33.63091
242.8746, 33.83994
243.3567, 34.06309
243.8388, 34.26901
244.3209, 34.46783
244.8030, 34.73285
245.2851, 34.77417
245.7673, 34.46133
246.2494, 33.97866
246.7315, 33.73459
247.2136, 33.84916
247.6957, 34.01175
248.1778, 34.09789
248.6600, 34.05990
249.1421, 34.09768
249.6242, 34.27071
250.1063, 34.48809
250.5884, 34.56961
251.0705, 34.46858
251.5527, 34.30889
252.0348, 34.12042
252.5169, 33.87449
252.9990, 33.69818
253.4811, 33.60098
253.9632, 33.56499
254.4454, 33.57766
254.9275, 33.70514
255.4096, 33.75235
255.8917, 33.60912
256.3738, 33.19118
256.8560, 33.00527
257.3381, 33.20090
257.8202, 33.50166
258.3023, 33.45269
258.7844, 32.87923
259.2665, 32.34142
259.7487, 32.04339
260.2308, 32.04287
260.7129, 31.87687
261.1950, 31.47515
261.6771, 30.98604
262.1592, 30.62401
262.6414, 30.45622
263.1235, 30.24863
263.6056, 29.89848
264.0877, 29.38117
264.5698, 29.07857
265.0519, 29.09412
265.5341, 29.18368
266.0162, 29.01323
266.4983, 28.45062
266.9804, 28.05056
267.4625, 28.02494
267.9446, 28.36487
268.4268, 28.42769
268.9089, 28.13031
269.3910, 27.70138
269.8731, 27.35257
270.3552, 27.08705
270.8373, 26.90705
271.3195, 26.85442
271.8016, 26.90606
272.2837, 26.80040
272.7658, 26.48976
273.2479, 26.12480
273.7300, 25.80436
274.2122, 25.51083
274.6943, 25.38832
275.1764, 25.52680
275.6585, 25.86026
276.1406, 26.03168
276.6227, 26.01261
277.1049, 25.92672
277.5870, 25.86785
278.0691, 25.83882
278.5512, 25.80292
279.0333, 25.74610
279.5154, 25.68268
279.9976, 25.65688
280.4797, 25.66842
280.9618, 25.71914
281.4439, 25.86175
281.9260, 26.09747
282.4081, 26.16818
282.8903, 25.99341
283.3724, 25.68760
283.8545, 25.51835
284.3366, 25.49241
284.8187, 25.53105
285.3008, 25.61365
285.7830, 25.73368
286.2651, 25.79088
286.7472, 25.75297
287.2293, 25.69426
287.7114, 25.77824
288.1935, 26.00344
288.6757, 26.20687
289.1578, 26.22443
289.6399, 26.11658
290.1220, 26.25031
290.6041, 26.71252
291.0862, 27.20175
291.5684, 27.22550
292.0505, 26.82811
292.5326, 26.43259
293.0147, 26.23609
293.4968, 26.19937
293.9789, 26.21566
294.4611, 26.28861
294.9432, 26.37512
295.4253, 26.42462
295.9074, 26.44425
296.3895, 26.46332
296.8716, 26.51882
297.3538, 26.57696
297.8359, 26.53314
298.3180, 26.38059
298.8001, 26.26800
299.2822, 26.33842
299.7643, 26.55873
300.2465, 26.84922
300.7286, 27.29776
301.2107, 27.72334
301.6928, 27.81418
302.1749, 27.58977
302.6570, 27.35981
303.1392, 27.39557
303.6213, 27.58958
304.1034, 27.75179
304.5855, 27.78945
305.0676, 27.82116
305.5497, 28.01216
306.0319, 28.32736
306.5140, 28.59401
306.9961, 28.62315
307.4782, 28.56446
307.9603, 28.60450
308.4424, 28.82410
308.9246, 29.07843
309.4067, 29.27346
309.8888, 29.41463
310.3709, 29.52100
310.8530, 29.52990
311.3351, 29.54684
311.8173, 29.67044
312.2994, 29.94074
312.7815, 30.24668
313.2636, 30.60993
313.7457, 30.95472
314.2278, 31.14485
314.7100, 30.88904
315.1921, 30.62790
315.6742, 30.64587
316.1563, 31.00416
316.6384, 31.43229
317.1205, 31.92597
317.6027, 32.38787
318.0848, 32.69103
318.5669, 32.68100
319.0490, 32.60726
319.5311, 32.51230
320.0132, 32.39400
320.4954, 32.43045
320.9775, 32.80063
321.4596, 33.28428
321.9417, 33.68952
322.4238, 33.89111
322.9059, 34.10025
323.3881, 34.35784
323.8702, 34.66179
324.3523, 35.00025
324.8344, 35.48461
325.3165, 35.92863
325.7986, 36.22704
326.2808, 36.20111
326.7629, 36.23098
327.2450, 36.42065
327.7271, 36.70530
328.2092, 36.82684
328.6913, 36.52336
329.1735, 36.28630
329.6556, 36.33455
330.1377, 36.96935
330.6198, 37.31468
331.1019, 37.27419
331.5840, 36.97201
332.0662, 36.62448
332.5483, 36.14213
333.0304, 35.74288
333.5125, 35.54871
333.9946, 35.63712
334.4767, 35.49219
334.9589, 35.00683
335.4410, 34.39511
335.9231, 33.93196
336.4052, 33.67735
336.8873, 33.42147
337.3694, 33.09575
337.8516, 32.71111
338.3336, 32.46109
338.8158, 32.40187
339.2979, 32.35855
339.7800, 32.11585
340.2621, 31.62030
340.7442, 31.33990
341.2263, 31.44783
341.7085, 31.78461
342.1906, 31.77124
342.6727, 31.35842
343.1548, 30.90439
343.6369, 30.65425
344.1190, 30.59811
344.6012, 30.54813
345.0833, 30.49020
345.5654, 30.41976
346.0475, 30.29628
346.5296, 30.12696
347.0117, 30.02538
347.4939, 30.12923
347.9760, 30.35488
348.4581, 30.40497
348.9402, 30.23907
349.4223, 30.04848
349.9044, 30.06586
350.3866, 30.24243
350.8687, 30.40995
351.3508, 30.49214
351.8329, 30.52904
352.3150, 30.60436
352.7971, 30.71552
353.2793, 30.77015
353.7614, 30.48603
354.2435, 29.66652
354.7256, 30.18885
355.2077, 30.47240
355.6898, 30.53000
356.1720, 29.68490
356.6541, 30.00545
357.1362, 29.85886
357.6183, 29.69312
358.1004, 30.17773
358.5826, 29.87261
359.0647, 29.89294
359.5468, 29.95765
360.0289, 30.03642
360.5110, 30.13745
360.9931, 30.27702
361.4753, 30.61566
361.9574, 30.86998
362.4395, 30.81392
362.9216, 30.35302
363.4037, 29.64278
363.8858, 30.24685
364.3680, 30.61215
364.8501, 30.75148
365.3322, 29.98813
365.8143, 30.39041
366.2964, 30.32556
366.7785, 30.24155
367.2607, 30.80791
367.7428, 30.17585
368.2249, 30.83187
368.7070, 31.04451
369.1891, 31.27170
369.6712, 31.41682
370.1534, 31.40721
370.6355, 31.31146
371.1176, 31.35647
371.5997, 31.68904
372.0818, 31.97080
372.5639, 32.03278
373.0461, 31.74357
373.5282, 31.67970
374.0103, 31.93112
374.4924, 32.32115
374.9745, 32.58810
375.4566, 32.72012
375.9388, 32.76945
376.4209, 32.73027
376.9030, 32.60895
377.3851, 32.50700
377.8672, 32.41630
378.3493, 32.36787
378.8315, 32.38027
379.3136, 32.45361
379.7957, 32.64347
380.2778, 33.01933
380.7599, 33.46137
381.2420, 33.64079
381.7242, 33.55488
382.2063, 33.48099
382.6884, 33.62905
383.1705, 33.94015
383.6526, 34.20865
384.1347, 34.41015
384.6169, 34.58284
385.0990, 34.76517
385.5811, 34.95406
386.0632, 35.13245
386.5453, 35.27639
387.0274, 35.41296
387.5096, 35.59252
387.9917, 35.81404
388.4738, 36.00890
388.9559, 36.04370
389.4380, 36.03905
389.9201, 36.15799
390.4023, 36.49700
390.8844, 36.92278
391.3665, 37.45684
391.8486, 38.03792
392.3307, 38.42007
392.8128, 38.22202
393.2950, 37.95841
393.7771, 38.00511
394.2592, 38.54197
394.7413, 39.06213
395.2234, 39.37689
395.7055, 39.57578
396.1877, 39.79754
396.6698, 40.12886
397.1519, 40.43335
397.6340, 40.58857
398.1161, 40.54269
398.5982, 40.80587
399.0804, 41.78474
399.5625, 42.85923
400.0446, 43.57673
400.5267, 43.66700
401.0088, 43.79195
401.4909, 43.95624
401.9731, 44.19123
402.4552, 44.63624
402.9373, 45.37176
403.4194, 46.18695
403.9015, 46.99212
404.3836, 47.78889
404.8658, 48.56574
405.3479, 49.30188
405.8300, 50.03446
406.3121, 50.81004
406.7942, 51.62014
407.2763, 52.53149
407.7585, 53.59132
408.2406, 54.77687
408.7227, 55.96288
409.2048, 57.15357
409.6869, 58.26536
410.1690, 59.11477
410.6512, 59.77562
411.1333, 60.65622
411.6154, 61.86637
412.0975, 63.27090
412.5796, 64.75868
413.0617, 66.30331
413.5439, 67.79823
414.0260, 69.05421
414.5081, 70.29137
414.9902, 71.80700
415.4723, 73.63860
415.9544, 75.65965
416.4366, 77.78920
416.9187, 80.02335
417.4008, 82.34612
417.8829, 84.95683
418.3650, 87.49837
418.8471, 89.68919
419.3293, 91.58407
419.8114, 93.64010
420.2935, 95.99438
420.7756, 98.60645
421.2577, 101.4251
421.7398, 104.6713
422.2220, 107.7657
422.7041, 110.5861
423.1862, 113.1963
423.6683, 115.7235
424.1504, 118.1069
424.6325, 120.5263
425.1147, 122.9556
425.5968, 125.4000
426.0789, 128.1028
426.5610, 131.2209
427.0431, 134.4565
427.5252, 137.4945
428.0074, 140.0922
428.4895, 143.0835
428.9716, 146.6706
429.4537, 150.6289
429.9358, 154.1351
430.4179, 157.0222
430.9001, 160.0055
431.3822, 163.5315
431.8643, 167.6128
432.3464, 171.3551
432.8285, 174.7383
433.3106, 177.8426
433.7928, 180.8961
434.2749, 183.8396
434.7570, 186.1770
435.2391, 187.7736
435.7212, 188.6588
436.2033, 189.0195
436.6855, 188.8121
437.1676, 187.6101
437.6497, 184.7898
438.1318, 180.8744
438.6139, 176.6056
439.0960, 172.0609
439.5782, 167.3234
440.0603, 162.0876
440.5424, 156.7161
441.0245, 151.9672
441.5066, 148.0879
441.9887, 144.9242
442.4709, 142.6120
442.9530, 141.1134
443.4351, 139.6172
443.9172, 137.4282
444.3993, 135.3632
444.8814, 134.0547
445.3636, 134.0790
445.8457, 134.2053
446.3278, 134.2837
446.8099, 134.3483
447.2920, 134.4904
447.7741, 134.8783
448.2563, 135.1550
448.7384, 135.1146
449.2205, 134.6584
449.7026, 134.7143
450.1847, 135.5508
450.6668, 136.5624
451.1490, 137.1394
451.6311, 137.1223
452.1132, 137.3122
452.5953, 137.8794
453.0774, 138.6883
453.5595, 139.4111
454.0417, 140.0436
454.5238, 140.6482
455.0059, 141.2783
455.4880, 141.9146
455.9701, 142.4677
456.4522, 142.9171
456.9344, 143.3775
457.4165, 143.9949
457.8986, 144.7275
458.3807, 145.4441
458.8628, 146.1322
459.3449, 146.7618
459.8271, 147.2323
460.3092, 147.5948
460.7913, 148.0746
461.2734, 148.9134
461.7555, 149.8582
462.2376, 150.7502
462.7198, 151.5935
463.2019, 152.2170
463.6840, 152.3213
464.1661, 152.2255
464.6482, 152.3153
465.1303, 152.8691
465.6125, 153.4300
466.0946, 153.8334
466.5767, 154.1075
467.0588, 154.5085
467.5409, 155.2433
468.0230, 155.9435
468.5052, 156.4148
468.9873, 156.4514
469.4694, 156.8017
469.9515, 157.6531
470.4336, 158.6561
470.9157, 159.3279
471.3979, 159.6131
471.8800, 159.7349
472.3621, 159.6885
472.8442, 159.5300
473.3263, 159.5760
473.8084, 159.8609
474.2906, 160.0815
474.7727, 159.9438
475.2548, 159.5287
475.7369, 159.1979
476.2190, 158.9632
476.7011, 158.9082
477.1833, 159.3056
477.6654, 159.9817
478.1475, 160.4599
478.6296, 160.4897
479.1117, 160.2637
479.5938, 159.8991
480.0760, 159.4169
480.5581, 158.9699
481.0402, 158.5492
481.5223, 158.2533
482.0044, 158.2255
482.4865, 158.6634
482.9687, 158.9038
483.4508, 158.4249
483.9329, 157.6913
484.4150, 157.3698
484.8971, 158.1624
485.3792, 158.7583
485.8614, 158.8465
486.3435, 158.4530
486.8256, 157.8811
487.3077, 156.9676
487.7898, 156.0760
488.2719, 155.3793
488.7541, 154.8800
489.2362, 154.6712
489.7183, 154.9444
490.2004, 155.2543
490.6825, 154.7853
491.1646, 153.4313
491.6468, 152.3610
492.1289, 151.9809
492.6110, 152.0865
493.0931, 152.0614
493.5752, 151.9079
494.0573, 151.8062
494.5395, 151.9071
495.0216, 152.1481
495.5037, 152.3204
495.9858, 152.3341
496.4679, 152.6398
496.9500, 153.6304
497.4322, 155.1959
497.9143, 157.1387
498.3964, 159.4064
498.8785, 162.0088
499.3606, 165.0012
499.8427, 168.3709
500.3249, 171.8455
500.8070, 175.0470
501.2891, 178.5903
501.7712, 182.8278
502.2533, 188.0044
502.7354, 193.2381
503.2176, 198.0382
503.6997, 203.0587
504.1818, 208.9784
504.6639, 216.0256
505.1460, 223.5125
505.6281, 231.1315
506.1103, 239.1685
506.5924, 248.4723
507.0745, 259.1145
507.5566, 270.7511
508.0387, 283.2758
508.5208, 296.6748
509.0030, 310.6291
509.4851, 325.0614
509.9672, 340.4609
510.4493, 357.7595
510.9314, 376.5273
511.4135, 395.3892
511.8957, 413.7988
512.3778, 432.1409
512.8599, 450.9546
513.3420, 470.0361
513.8242, 488.6975
514.3063, 507.1427
514.7884, 524.9507
515.2705, 542.0773
515.7526, 558.4698
516.2347, 572.8689
516.7169, 584.0472
517.1990, 593.4305
517.6811, 602.1059
518.1632, 610.8064
518.6453, 618.0334
519.1274, 623.3369
519.6096, 627.1212
520.0917, 629.9775
520.5738, 631.5927
521.0559, 632.7734
521.5380, 633.7048
522.0201, 634.3810
522.5023, 634.6453
522.9844, 634.4219
523.4665, 634.0130
523.9486, 633.7305
524.4307, 633.5502
524.9128, 632.9092
525.3950, 631.7685
525.8771, 630.1713
526.3592, 628.0798
526.8413, 625.5660
527.3234, 622.8121
527.8055, 619.8585
528.2877, 616.7556
528.7698, 613.6693
529.2519, 610.5224
529.7340, 606.8748
530.2161, 602.1660
530.6982, 597.0883
531.1804, 592.1288
531.6625, 587.5168
532.1446, 582.5576
532.6267, 576.9338
533.1088, 570.9528
533.5909, 564.9871
534.0731, 558.6222
534.5552, 552.8132
535.0373, 547.8857
535.5194, 543.5303
536.0015, 538.6558
536.4836, 533.0262
536.9658, 527.4184
537.4479, 522.0468
537.9300, 516.9374
538.4121, 512.4684
538.8942, 508.8174
539.3763, 505.1259
539.8585, 500.5357
540.3406, 495.2083
540.8227, 490.0576
541.3048, 485.1131
541.7869, 480.4901
542.2690, 476.5723
542.7512, 473.0813
543.2333, 469.3161
543.7154, 464.7019
544.1975, 459.9357
544.6796, 455.7239
545.1617, 451.8848
545.6439, 447.7838
546.1260, 442.6134
546.6081, 437.4848
547.0902, 433.1349
547.5723, 429.9203
548.0544, 426.5080
548.5366, 422.5460
549.0187, 418.3709
549.5008, 414.2755
549.9829, 410.3662
550.4650, 406.3244
550.9471, 401.9718
551.4293, 397.5640
551.9114, 393.6392
552.3935, 390.2772
552.8756, 386.9976
553.3577, 383.4297
553.8398, 379.7968
554.3220, 377.2412
554.8041, 375.7776
555.2862, 374.7393
555.7683, 373.6964
556.2504, 372.6725
556.7325, 371.6623
557.2147, 370.6411
557.6968, 369.7662
558.1789, 369.2065
558.6610, 368.8657
559.1431, 368.6075
559.6252, 368.5353
560.1074, 368.3755
560.5895, 367.9694
561.0716, 367.3759
561.5537, 366.8056
562.0358, 366.2425
562.5179, 365.7570
563.0001, 365.3966
563.4822, 365.1772
563.9643, 364.9473
564.4464, 364.8041
564.9285, 364.5164
565.4106, 363.8494
565.8928, 362.7252
566.3749, 361.8120
566.8570, 361.3000
567.3391, 360.6895
567.8212, 358.9980
568.3033, 356.3712
568.7855, 354.0400
569.2676, 352.6998
569.7497, 351.5713
570.2318, 349.3236
570.7139, 346.1950
571.1960, 343.0420
571.6782, 340.9875
572.1603, 338.7314
572.6424, 334.9850
573.1245, 329.5064
573.6066, 324.2855
574.0887, 320.6034
574.5709, 317.1255
575.0530, 312.7642
575.5351, 306.5526
576.0172, 300.5772
576.4993, 295.0977
576.9814, 289.7827
577.4636, 284.2299
577.9457, 278.5099
578.4278, 272.3440
578.9099, 265.5882
579.3920, 258.4804
579.8741, 251.9992
580.3563, 246.2271
580.8384, 240.3361
581.3205, 233.7578
581.8026, 226.6282
582.2847, 219.5944
582.7668, 212.6421
583.2490, 205.8498
583.7311, 198.9718
584.2132, 192.4346
584.6953, 186.8974
585.1774, 183.1490
585.6595, 179.0067
586.1416, 172.6538
586.6237, 165.3733
587.1058, 159.0053
587.5880, 154.9197
588.0701, 150.7692
588.5522, 145.8675
589.0343, 140.4176
589.5164, 135.3444
589.9985, 130.6555
590.4807, 126.3204
590.9628, 122.3340
591.4449, 118.7004
591.9270, 115.1391
592.4091, 111.6249
592.8912, 108.2855
593.3734, 105.3328
593.8555, 102.6695
594.3376, 99.84538
594.8197, 96.73806
595.3018, 93.75268
595.7839, 91.37090
596.2661, 89.44146
596.7482, 87.67579
597.2303, 86.01061
597.7124, 84.42490
598.1945, 82.89057
598.6766, 81.42082
599.1588, 80.06717
599.6409, 78.96693
600.1230, 77.88935
600.6051, 76.69737
601.0872, 75.37904
601.5693, 74.28071
602.0515, 73.49686
602.5336, 72.81721
603.0157, 72.12096
603.4978, 71.40421
603.9799, 70.65813
604.4620, 69.85823
604.9442, 69.07866
605.4263, 68.41025
605.9084, 67.84335
606.3905, 67.39242
606.8726, 67.09203
607.3547, 66.82678
607.8369, 66.43044
608.3190, 65.95106
608.8011, 65.49945
609.2832, 65.16090
609.7653, 64.84415
610.2474, 64.49936
610.7296, 64.12414
611.2117, 63.73991
611.6938, 63.23470
612.1759, 62.81591
612.6580, 62.63789
613.1401, 62.80464
613.6223, 62.73024
614.1044, 62.32362
614.5865, 61.80216
615.0686, 61.34453
615.5507, 60.95543
616.0328, 60.62282
616.5150, 60.37553
616.9971, 60.12055
617.4792, 59.63937
617.9613, 59.00140
618.4434, 58.52788
618.9255, 58.35398
619.4077, 58.36357
619.8898, 58.55202
620.3719, 58.83438
620.8540, 58.94537
621.3361, 58.56990
621.8182, 58.14224
622.3004, 57.93840
622.7825, 57.96776
623.2646, 57.90247
623.7467, 57.60215
624.2288, 57.25493
624.7109, 56.94725
625.1931, 56.67660
625.6752, 56.44939
626.1573, 56.26540
626.6394, 56.12012
627.1215, 56.01647
627.6036, 55.95451
628.0858, 55.89853
628.5679, 55.84389
629.0500, 55.79013
629.5321, 55.77747
630.0142, 55.77206
630.4963, 55.66217
630.9785, 55.29659
631.4606, 54.91433
631.9427, 54.73158
632.4248, 54.70652
632.9069, 54.70440
633.3890, 54.67812
633.8712, 54.65587
634.3533, 54.69602
634.8354, 54.81396
635.3175, 54.72549
635.7996, 54.15401
636.2817, 53.68156
636.7639, 53.71498
637.2460, 54.45253
637.7281, 54.62403
638.2102, 54.10358
638.6923, 53.37660
639.1744, 52.93266
639.6566, 52.74823
640.1387, 52.68069
640.6208, 52.73006
641.1029, 52.81356
641.5850, 52.92249
642.0671, 52.98766
642.5493, 52.87202
643.0314, 52.29099
643.5135, 51.73955
643.9956, 51.50904
644.4777, 51.51921
644.9598, 51.51223
645.4420, 51.42688
645.9241, 51.32005
646.4062, 51.20104
646.8883, 51.07212
647.3704, 50.96723
647.8525, 50.89429
648.3347, 50.82987
648.8168, 50.75372
649.2989, 50.66618
649.7810, 50.62645
650.2631, 50.63789
650.7452, 50.66756
651.2274, 50.72664
651.7095, 50.77300
652.1916, 50.70996
652.6737, 50.50442
653.1558, 50.24913
653.6379, 49.89671
654.1201, 49.57145
654.6022, 49.43446
655.0843, 49.82110
655.5664, 50.06751
656.0485, 49.95295
656.5306, 49.59929
657.0128, 49.27944
657.4949, 48.95921
657.9770, 48.75097
658.4591, 48.75448
658.9412, 48.88224
659.4233, 48.69915
659.9055, 48.17484
660.3876, 47.66663
660.8697, 47.37029
661.3518, 47.23098
661.8339, 47.12626
662.3160, 47.05508
662.7982, 47.01335
663.2803, 47.03222
663.7624, 47.05940
664.2445, 47.05834
664.7266, 47.03325
665.2087, 46.92401
665.6909, 46.63178
666.1730, 46.29366
666.6551, 46.02171
667.1372, 45.79360
667.6193, 45.68903
668.1014, 45.79826
668.5836, 45.93889
669.0657, 45.81943
669.5478, 45.41145
670.0299, 45.09889
670.5120, 44.98525
670.9941, 44.96012
671.4763, 44.82945
671.9584, 44.61693
672.4405, 44.41331
672.9226, 44.27946
673.4047, 44.15394
673.8868, 43.95525
674.3690, 43.71446
674.8511, 43.53503
675.3332, 43.59251
675.8153, 43.59405
676.2974, 43.35219
676.7795, 42.84904
677.2617, 42.53155
677.7438, 42.47300
678.2259, 42.48458
678.7080, 42.48148
679.1901, 42.46385
679.6722, 42.42647
680.1544, 42.37242
680.6365, 42.27861
681.1186, 42.13151
681.6007, 41.92725
682.0828, 41.62181
682.5649, 41.18916
683.0471, 40.78815
683.5292, 40.59956
684.0113, 40.50590
684.4934, 40.36217
684.9755, 39.99024
685.4576, 39.77757
685.9398, 40.04012
686.4219, 40.45255
686.9040, 40.45996
687.3861, 39.75108
687.8682, 39.28041
688.3503, 39.29482
688.8325, 39.56842
689.3146, 39.46424
689.7967, 38.97649
690.2788, 38.60793
690.7609, 38.65139
691.2430, 38.87626
691.7252, 38.83971
692.2073, 38.59594
692.6894, 38.39104
693.1715, 38.47218
693.6536, 38.55914
694.1357, 38.41607
694.6179, 38.04308
695.1000, 37.72494
695.5821, 37.55712
696.0642, 37.43791
696.5463, 37.33424
697.0284, 37.25837
697.5106, 37.09910
697.9927, 36.81357
698.4748, 36.54514
698.9569, 36.44908
699.4390, 36.49794
699.9211, 36.46918
700.4033, 36.34705
700.8854, 36.15166
701.3675, 35.80278
701.8496, 35.42401
702.3317, 35.23354
702.8138, 35.36048
703.2960, 35.47662
703.7781, 35.40175
704.2602, 35.22884
704.7423, 35.07167
705.2244, 35.01276
705.7065, 34.88170
706.1887, 34.63485
706.6708, 34.32761
707.1529, 34.03346
707.6350, 33.73859
708.1171, 33.54726
708.5992, 33.51816
709.0814, 33.56909
709.5635, 33.52526
710.0456, 33.40358
710.5277, 33.28587
711.0098, 33.22848
711.4919, 33.18090
711.9741, 33.08374
712.4562, 32.95506
712.9383, 32.86350
713.4204, 32.96022
713.9025, 32.97976
714.3846, 32.71468
714.8668, 32.18819
715.3489, 31.95300
715.8310, 32.12751
716.3131, 32.35551
716.7952, 32.50557
717.2773, 32.56844
717.7595, 32.36099
718.2416, 31.86790
718.7237, 31.38016
719.2058, 31.13172
719.6879, 31.04036
720.1700, 31.01943
720.6522, 31.06647
721.1343, 31.04599
721.6164, 30.78505
722.0985, 30.48280
722.5806, 30.29519
723.0627, 30.27515
723.5449, 30.31973
724.0270, 30.54116
724.5091, 30.71298
724.9912, 30.56625
725.4733, 30.00513
725.9554, 29.71626
726.4376, 29.81896
726.9197, 30.02036
727.4018, 29.86431
727.8839, 29.47222
728.3660, 29.25577
728.8481, 29.40718
729.3303, 29.55050
729.8124, 29.31623
730.2945, 28.87591
730.7766, 28.49355
731.2587, 28.22430
731.7408, 28.04246
732.2230, 27.95122
732.7051, 27.94211
733.1872, 28.03222
733.6693, 28.29146
734.1514, 28.44055
734.6335, 28.39117
735.1157, 28.21269
735.5978, 28.05656
736.0799, 27.92514
736.5620, 27.83869
737.0441, 27.84363
737.5262, 27.86891
738.0084, 27.81776
738.4905, 27.71427
738.9726, 27.64020
739.4547, 27.68926
739.9368, 27.71905
740.4189, 27.65038
740.9011, 27.48728
741.3832, 27.36086
741.8653, 27.28547
742.3474, 27.21918
742.8295, 27.15542
743.3116, 27.08861
743.7938, 26.93282
744.2759, 26.68215
744.7580, 26.53169
745.2401, 26.74759
745.7222, 27.09295
746.2043, 27.18247
746.6865, 27.01077
747.1686, 26.81310
747.6507, 26.68551
748.1328, 26.60258
748.6149, 26.54370
749.0970, 26.50283
749.5792, 26.53087
750.0613, 26.71575
750.5434, 26.85964
751.0255, 26.79418
751.5076, 26.48738
751.9897, 26.39691
752.4719, 26.56651
752.9540, 26.72531
753.4361, 26.48684
753.9182, 26.08298
754.4003, 25.95104
754.8824, 26.14710
755.3646, 26.19795
755.8467, 26.70237
756.3288, 26.96800
756.8109, 27.00769
757.2930, 26.14467
757.7751, 26.44731
758.2573, 25.78792
758.7394, 26.35610
759.2215, 26.68551
759.7036, 26.78896
760.1857, 25.98972
760.6678, 26.35612
761.1500, 26.25540
761.6321, 26.13551
762.1142, 26.66597
762.5963, 25.99802
763.0784, 26.51818
763.5605, 26.56406
764.0427, 26.82701
764.5248, 26.61993
765.0069, 26.55802
765.4890, 26.96629
765.9711, 26.48681
766.4532, 26.47327
766.9354, 26.54149
767.4175, 26.64744
767.8996, 26.80746
768.3817, 26.89328
768.8638, 26.86214
769.3459, 26.79825
769.8281, 26.85019
770.3102, 26.98147
770.7923, 27.08941
771.2744, 27.16599
771.7565, 27.16510
772.2386, 26.93186
772.7208, 26.62501
773.2029, 26.52091
773.6850, 26.93305
774.1671, 27.23917
774.6492, 27.33654
775.1313, 27.28644
775.6135, 27.18598
776.0956, 27.01592
776.5777, 26.95120
777.0598, 27.07867
777.5419, 27.27474
778.0240, 27.29218
778.5062, 27.18762
778.9883, 27.13916
779.4704, 27.36333
779.9525, 27.53015
780.4346, 27.33234
780.9167, 26.92492
781.3989, 26.68822
781.8810, 26.82170
782.3631, 26.99315
782.8452, 27.19845
783.3273, 27.38427
783.8094, 27.36103
784.2916, 27.10637
784.7737, 26.86047
785.2558, 26.67663
785.7379, 26.58251
786.2200, 26.74442
786.7021, 27.06309
787.1843, 27.19683
787.6664, 26.73706
788.1485, 26.28703
788.6306, 26.26041
789.1127, 26.53649
789.5948, 26.64063
790.0770, 26.34858
790.5591, 26.14531
791.0412, 26.17002
791.5233, 26.35633
792.0054, 26.49578
792.4875, 26.58820
792.9697, 26.56820
793.4518, 26.29445
793.9339, 25.98872
794.4160, 26.09155
794.8981, 26.48279
795.3802, 26.76286
795.8624, 26.63097
796.3445, 26.45381
796.8266, 26.37647
797.3087, 26.39841
797.7908, 26.49222
798.2729, 26.76907
798.7551, 26.89233
799.2372, 26.70582
799.7193, 26.32023
800.2014, 26.11749
800.6835, 26.09298
801.1656, 26.18112
801.6478, 26.45198
802.1299, 26.73956
802.6120, 26.84170
803.0941, 26.79623
803.5762, 26.72515
804.0583, 26.62286
804.5405, 26.55954
805.0226, 26.58979
805.5047, 26.68486
805.9868, 26.74122
806.4689, 26.76140
806.9510, 26.72705
807.4332, 26.60544
807.9153, 26.44326
808.3974, 26.39013
808.8795, 26.42901
809.3616, 26.46235
809.8438, 26.37358
810.3259, 26.31398
810.8080, 26.48626
811.2901, 26.80065
811.7722, 26.96663
812.2543, 26.73354
812.7365, 26.54628
813.2186, 26.54632
813.7007, 26.66869
814.1828, 26.65217
814.6649, 26.46913
815.1470, 26.36823
815.6292, 26.47706
816.1113, 26.68452
816.5934, 26.82914
817.0755, 26.90106
817.5576, 26.86720
818.0397, 26.55695
818.5219, 26.29349
819.0040, 26.30296
819.4861, 26.49765
819.9682, 26.57886
820.4503, 26.41507
820.9324, 26.34490
821.4146, 26.47998
821.8967, 26.72234
822.3788, 26.81499
822.8609, 26.76487
823.3430, 26.67567
823.8251, 26.52161
824.3073, 26.43559
824.7894, 26.66763
825.2715, 27.08012
825.7536, 27.38432
826.2357, 27.40565
826.7178, 27.37711
827.2000, 27.30121
827.6821, 27.23452
828.1642, 27.30150
828.6463, 27.55341
829.1284, 27.76525
829.6105, 27.90480
830.0927, 27.96390
830.5748, 27.86955
831.0569, 27.67541
831.5390, 27.57020
832.0211, 27.66214
832.5032, 27.78757
832.9854, 27.82528
833.4675, 27.82235
833.9496, 27.84918
834.4317, 27.98431
834.9138, 28.04963
835.3959, 27.96257
835.8781, 27.86808
836.3602, 28.07130
836.8423, 28.56770
837.3244, 28.76858
837.8065, 28.48311
838.2886, 28.13752
838.7708, 28.27736
839.2529, 28.68791
839.7350, 29.01964
840.2171, 29.15735
840.6992, 29.24671
841.1813, 29.31232
841.6635, 29.36639
842.1456, 29.42341
842.6277, 29.48710
843.1098, 29.53779
843.5919, 29.56821
844.0740, 29.60307
844.5562, 29.68282
845.0383, 29.79089
845.5204, 29.85983
846.0025, 29.86746
846.4846, 29.92522
846.9667, 30.20303
847.4489, 30.51716
847.9310, 30.68020
848.4131, 30.58806
848.8952, 30.56354
849.3773, 30.67201
849.8594, 30.76993
850.3416, 30.70035
850.8237, 30.47152
851.3058, 30.45376
851.7879, 30.67016
852.2700, 30.94122
852.7521, 31.15612
853.2343, 31.32240
853.7164, 31.41085
854.1985, 31.41330
854.6806, 31.51925
855.1627, 31.98380
855.6448, 32.38479
856.1270, 32.46323
856.6091, 32.20870
857.0912, 32.22932
857.5733, 32.58995
858.0554, 32.85858
858.5375, 32.59720
859.0197, 32.09761
859.5018, 32.06595
859.9839, 32.43552
860.4660, 32.76878
860.9481, 32.78222
861.4302, 32.73405
861.9124, 32.76787
862.3945, 32.87907
862.8766, 32.93522
863.3587, 32.88942
863.8408, 32.89756
864.3229, 33.02227
864.8051, 33.23266
865.2872, 33.44246
865.7693, 33.65348
866.2514, 33.86683
866.7335, 34.13988
867.2156, 34.35754
867.6978, 34.36261
868.1799, 34.24593
868.6620, 34.21550
869.1441, 34.42044
869.6262, 34.58184
870.1083, 34.65381
870.5905, 34.67132
871.0726, 34.67818
871.5547, 34.67676
872.0368, 34.77940
872.5189, 35.04968
873.0010, 35.33400
873.4832, 35.42910
873.9653, 35.42683
874.4474, 35.48594
874.9295, 35.76188
875.4116, 35.90932
875.8937, 35.69824
876.3759, 35.42188
876.8580, 35.36406
877.3401, 35.56611
877.8222, 35.75889
878.3043, 35.92741
878.7864, 36.07216
879.2686, 36.22242
879.7507, 36.34284
880.2328, 36.32670
880.7149, 36.13703
881.1970, 36.04242
881.6791, 36.27079
882.1613, 36.56915
882.6434, 36.75525
883.1255, 36.80636
883.6076, 36.90945
884.0897, 37.08884
884.5718, 37.24328
885.0540, 37.31445
885.5361, 37.30603
886.0182, 37.17718
886.5003, 36.95050
886.9824, 36.80626
887.4645, 36.93420
887.9467, 37.10640
888.4288, 37.10080
888.9109, 36.95874
889.3930, 37.17210
889.8751, 38.00369
890.3572, 38.62997
890.8394, 38.72546
891.3215, 38.48471
891.8036, 38.45917
892.2857, 38.60518
892.7678, 38.67869
893.2499, 38.46697
893.7321, 38.27177
894.2142, 38.36281
894.6963, 38.62260
895.1784, 38.82496
895.6605, 38.95407
896.1426, 38.96927
896.6248, 38.78510
897.1069, 38.58228
897.5890, 38.68737
898.0711, 39.06256
898.5532, 39.29803
899.0353, 39.28622
899.5175, 39.29662
899.9996, 39.64008
900.4817, 40.12709
900.9638, 40.55004
901.4459, 40.91552
901.9280, 41.08839
902.4102, 40.94213
902.8923, 40.75105
903.3744, 40.73486
903.8565, 40.89937
904.3386, 40.85567
904.8207, 40.59457
905.3029, 40.38303
905.7850, 40.50647
906.2671, 40.74424
906.7492, 40.87312
907.2313, 40.88141
907.7134, 40.83371
908.1956, 40.62849
908.6777, 40.50877
909.1598, 40.57544
909.6419, 40.79082
910.1240, 40.96920
910.6061, 41.10926
911.0883, 41.27280
911.5704, 41.55538
912.0525, 41.78953
912.5346, 41.67905
913.0167, 41.36397
913.4988, 41.14804
913.9810, 41.13004
914.4631, 41.24030
914.9452, 41.57695
915.4273, 41.95498
915.9094, 42.05346
916.3915, 41.83599
916.8737, 41.85766
917.3558, 42.24432
917.8379, 42.66199
918.3200, 42.63405
918.8021, 42.43101
919.2842, 42.50624
919.7664, 43.04402
920.2485, 43.38657
920.7306, 43.08304
921.2127, 42.73588
921.6948, 42.73507
922.1769, 43.11269
922.6591, 43.30112
923.1412, 43.27944
923.6233, 43.28095
924.1054, 43.52597
924.5875, 43.86170
925.0696, 44.08625
925.5518, 44.20467
926.0339, 44.28073
926.5160, 44.14235
926.9981, 44.19896
927.4802, 44.67876
927.9623, 45.41802
928.4445, 45.94011
928.9266, 46.24049
929.4087, 46.37856
929.8908, 46.33546
930.3729, 46.21811
930.8550, 46.07665
931.3372, 45.98753
931.8193, 46.10041
932.3014, 46.60803
932.7835, 47.07486
933.2656, 47.38116
933.7477, 47.62294
934.2299, 47.90466
934.7120, 48.24227
935.1941, 48.42638
935.6762, 48.42958
936.1583, 48.42744
936.6404, 48.53246
937.1226, 48.75627
937.6047, 49.20523
938.0868, 49.88400
938.5689, 50.34491
939.0510, 50.21404
939.5331, 50.07351
940.0153, 50.13523
940.4974, 50.37943
940.9795, 50.66642
941.4616, 50.99732
941.9437, 51.43181
942.4258, 52.07715
942.9080, 52.74295
943.3901, 53.18828
943.8722, 53.47088
944.3543, 53.71429
944.8364, 53.91192
945.3185, 54.13301
945.8007, 54.37724
946.2828, 54.65593
946.7649, 54.88498
947.2470, 55.07819
947.7291, 55.95133
948.2112, 57.71741
948.6934, 59.29208
949.1755, 59.45935
949.6576, 58.99171
950.1397, 58.68464
950.6218, 58.64602
951.1039, 58.81562
951.5861, 59.26926
952.0682, 59.79115
952.5503, 60.30015
953.0324, 60.79001
953.5145, 61.21947
953.9966, 61.58751
954.4788, 61.90263
954.9609, 61.91296
955.4430, 62.10761
955.9251, 63.21810
956.4072, 64.81479
956.8893, 65.72570
957.3715, 65.35790
957.8536, 65.00340
958.3357, 64.75501
958.8178, 64.68945
959.2999, 64.99768
959.7820, 65.61474
960.2642, 66.26364
960.7463, 66.91689
961.2284, 67.47899
961.7105, 67.79889
962.1926, 68.05807
962.6747, 68.41382
963.1569, 68.88850
963.6390, 69.46370
964.1211, 70.21891
964.6032, 70.86935
965.0853, 71.14722
965.5674, 71.20274
966.0496, 71.47717
966.5317, 71.92830
967.0138, 72.36415
967.4959, 72.57462
967.9780, 72.85812
968.4601, 73.44681
968.9423, 74.19277
969.4244, 74.73528
969.9065, 75.03716
970.3886, 75.30045
970.8707, 75.54395
971.3528, 75.81490
971.8350, 76.20975
972.3171, 76.67158
972.7992, 77.10608
973.2813, 77.49545
973.7634, 77.87038
974.2455, 78.14069
974.7277, 78.49857
975.2098, 79.11375
975.6919, 79.99262
976.1740, 80.51596
976.6561, 80.66200
977.1382, 80.92068
977.6204, 81.74606
978.1025, 82.74754
978.5846, 83.50296
979.0667, 84.04289
979.5488, 84.48349
980.0309, 84.84303
980.5131, 85.08391
980.9952, 85.09299
981.4773, 85.09282
981.9594, 85.53661
982.4415, 86.35631
982.9236, 86.98526
983.4058, 87.28944
983.8879, 87.55318
984.3700, 88.01084
984.8521, 88.54349
985.3342, 89.07838
985.8163, 89.64185
986.2985, 89.93777
986.7806, 89.82439
987.2627, 89.77416
987.7448, 90.10845
988.2269, 90.66455
988.7090, 90.83714
989.1912, 90.74887
989.6733, 90.90893
990.1554, 91.86844
990.6375, 92.82101
991.1196, 93.35532
991.6017, 93.63251
992.0839, 93.93295
992.5660, 94.28120
993.0481, 94.52123
993.5302, 94.60830
994.0123, 94.69428
994.4944, 94.95370
994.9766, 95.32298
995.4587, 95.71607
995.9408, 96.11762
996.4229, 96.52135
996.9050, 96.94270
997.3871, 97.34078
997.8693, 97.67603
998.3514, 97.97044
998.8335, 98.39368
999.3156, 98.93027
999.7977, 99.31841
1000.280, 99.35189
1000.762, 99.30734
1001.244, 99.44527
1001.726, 99.68298
1002.208, 99.87881
1002.690, 99.92658
1003.173, 100.0771
1003.655, 100.3489
1004.137, 100.7015
1004.619, 101.1899
1005.101, 101.7232
1005.583, 101.8777
1006.065, 101.6498
1006.547, 101.4987
1007.029, 101.6653
1007.512, 102.0138
1007.994, 102.6249
1008.476, 103.3758
1008.958, 103.6560
1009.440, 103.3687
1009.922, 103.2182
1010.404, 103.4644
1010.886, 103.8361
1011.369, 103.9492
1011.851, 103.9270
1012.333, 103.9829
1012.815, 104.2106
1013.297, 104.4346
1013.779, 104.6549
1014.261, 104.8332
1014.743, 104.9445
1015.225, 104.9915
1015.708, 104.9181
1016.190, 104.7410
1016.672, 104.7253
1017.154, 105.2042
1017.636, 105.7589
1018.118, 106.0186
1018.600, 106.1024
1019.082, 106.4301
1019.565, 107.0698
1020.047, 107.8125
1020.529, 108.6548
1021.011, 109.5139
1021.493, 110.3239
1021.975, 111.0648
1022.457, 111.6589
1022.939, 112.0687
1023.421, 112.5485
1023.904, 113.2707
1024.386, 114.0333
1024.868, 114.7363
1025.350, 115.3909
1025.832, 116.1278
1026.314, 116.9461
1026.796, 117.6594
1027.278, 118.0155
1027.760, 118.4539
1028.243, 119.5322
1028.725, 120.9630
1029.207, 122.2612
1029.689, 123.2341
1030.171, 124.2615
1030.653, 125.4097
1031.135, 126.4998
1031.617, 127.2847
1032.100, 127.8745
1032.582, 128.6263
1033.064, 129.5574
1033.546, 130.5790
1034.028, 131.7557
1034.510, 132.9085
1034.992, 133.8953
1035.474, 134.8048
1035.957, 135.8616
1036.439, 137.0894
1036.921, 138.2557
1037.403, 139.2867
1037.885, 140.3388
1038.367, 141.6887
1038.849, 143.1079
1039.331, 144.2773
1039.813, 145.1320
1040.296, 145.7998
1040.778, 146.1123
1041.260, 146.6048
1041.742, 147.5832
1042.224, 148.9582
1042.706, 150.5746
1043.188, 152.3111
1043.670, 153.7887
1044.152, 154.6276
1044.635, 155.3687
1045.117, 156.1850
1045.599, 157.0370
1046.081, 157.9038
1046.563, 158.8234
1047.045, 159.4817
1047.527, 159.8411
1048.009, 160.1807
1048.492, 160.7817
1048.974, 161.4651
1049.456, 162.0614
1049.938, 162.5649
1050.420, 163.0011
1050.902, 163.3323
1051.384, 163.7115
1051.866, 164.1846
1052.349, 164.7144
1052.831, 165.1802
1053.313, 165.6449
1053.795, 166.3843
1054.277, 167.6227
1054.759, 168.4406
1055.241, 167.8555
1055.723, 167.1945
1056.205, 167.3957
1056.688, 168.4273
1057.170, 169.0505
1057.652, 169.2661
1058.134, 169.2764
1058.616, 168.9782
1059.098, 168.7569
1059.580, 169.1351
1060.062, 169.8093
1060.544, 170.1974
1061.027, 170.0523
1061.509, 169.9676
1061.991, 169.9758
1062.473, 170.0167
1062.955, 169.9467
1063.437, 169.8927
1063.919, 170.3375
1064.401, 171.1929
1064.884, 171.5711
1065.366, 170.5065
1065.848, 169.5757
1066.330, 169.2526
1066.812, 169.3826
1067.294, 169.7988
1067.776, 170.4432
1068.258, 170.7033
1068.740, 170.4149
1069.223, 169.9348
1069.705, 169.3200
1070.187, 168.8007
1070.669, 168.6548
1071.151, 168.9127
1071.633, 168.8890
1072.115, 168.5029
1072.597, 168.2414
1073.079, 168.4131
1073.562, 168.7016
1074.044, 168.6118
1074.526, 168.2872
1075.008, 167.9901
1075.490, 167.7889
1075.972, 167.6321
1076.454, 167.4692
1076.936, 167.4168
1077.419, 167.5870
1077.901, 167.9495
1078.383, 168.4773
1078.865, 169.1164
1079.347, 169.4920
1079.829, 169.0992
1080.311, 168.7235
1080.793, 168.7299
1081.275, 168.9719
1081.758, 169.3425
1082.240, 169.8761
1082.722, 169.7668
1083.204, 168.8341
1083.686, 168.0419
1084.168, 168.5107
1084.650, 169.3074
1085.132, 169.5118
1085.615, 169.0896
1086.097, 168.9650
1086.579, 169.2573
1087.061, 169.5862
1087.543, 169.8877
1088.025, 170.0838
1088.507, 170.0108
1088.989, 169.7467
1089.471, 169.4031
1089.953, 168.9610
1090.436, 168.6177
1090.918, 168.5038
1091.400, 168.3678
1091.882, 168.0090
1092.364, 167.5293
1092.846, 167.5325
1093.328, 167.8906
1093.810, 167.9987
1094.293, 167.3764
1094.775, 166.7165
1095.257, 166.3184
1095.739, 166.0585
1096.221, 165.8172
1096.703, 165.6004
1097.185, 165.3036
1097.667, 164.9189
1098.150, 164.6133
1098.632, 164.7888
1099.114, 164.8565
1099.596, 164.0995
1100.078, 162.8081
1100.560, 161.9996
1101.042, 162.0330
1101.524, 161.6151
1102.006, 160.4984
1102.489, 159.1688
1102.971, 158.0191
1103.453, 157.0661
1103.935, 156.4494
1104.417, 156.1586
1104.899, 155.6911
1105.381, 154.7615
1105.863, 153.8995
1106.345, 153.3284
1106.828, 152.8012
1107.310, 151.7165
1107.792, 150.2393
1108.274, 148.8924
1108.756, 147.7864
1109.238, 146.8007
1109.720, 146.1450
1110.202, 145.3197
1110.685, 143.9155
1111.167, 142.0735
1111.649, 141.0140
1112.131, 140.6743
1112.613, 140.4252
1113.095, 140.1706
1113.577, 139.6433
1114.059, 138.5427
1114.542, 137.1202
1115.024, 135.6209
1115.506, 133.9398
1115.988, 132.7982
1116.470, 132.2488
1116.952, 131.7051
1117.434, 130.5985
1117.916, 129.4339
1118.398, 128.9036
1118.880, 128.7360
1119.363, 128.2430
1119.845, 127.0666
1120.327, 126.1516
1120.809, 125.6401
1121.291, 125.1610
1121.773, 124.3058
1122.255, 123.2498
1122.737, 122.1905
1123.220, 121.1873
1123.702, 120.5034
1124.184, 120.7970
1124.666, 120.6159
1125.148, 119.5491
1125.630, 118.1277
1126.112, 117.2316
1126.594, 116.6861
1127.077, 115.8708
1127.559, 114.6787
1128.041, 113.7624
1128.523, 113.7799
1129.005, 113.7588
1129.487, 113.2426
1129.969, 112.3930
1130.451, 111.6277
1130.933, 110.9578
1131.416, 110.5259
1131.898, 110.4190
1132.380, 110.3237
1132.862, 110.2104
1133.344, 109.8542
1133.826, 108.9199
1134.308, 107.4748
1134.790, 106.7524
1135.272, 106.7673
1135.755, 106.6461
1136.237, 105.9246
1136.719, 105.1017
1137.201, 104.6661
1137.683, 104.4041
1138.165, 104.0571
1138.647, 103.6227
1139.129, 102.9884
1139.612, 102.1055
1140.094, 101.3686
1140.576, 101.2054
1141.058, 101.1882
1141.540, 100.7010
1142.022, 99.95889
1142.504, 99.42285
1142.986, 99.37254
1143.469, 99.14893
1143.951, 98.69088
1144.433, 98.19302
1144.915, 97.82722
1145.397, 97.52932
1145.879, 97.21561
1146.361, 96.86687
1146.843, 96.42368
1147.325, 95.91063
1147.807, 95.17098
1148.290, 94.02406
1148.772, 92.94915
1149.254, 92.69563
1149.736, 92.93790
1150.218, 92.79680
1150.700, 92.23367
1151.182, 91.66957
1151.664, 91.42741
1152.147, 90.99878
1152.629, 90.11458
1153.111, 89.11652
1153.593, 88.78313
1154.075, 88.91914
1154.557, 88.70246
1155.039, 87.99583
1155.521, 87.16483
1156.004, 86.26040
1156.486, 85.45041
1156.968, 84.85174
1157.450, 84.37716
1157.932, 83.74220
1158.414, 82.95958
1158.896, 82.06029
1159.378, 80.98569
1159.860, 80.13269
1160.343, 80.11038
1160.825, 80.09425
1161.307, 79.47097
1161.789, 78.31986
1162.271, 77.17904
1162.753, 76.05643
1163.235, 75.15651
1163.717, 74.60191
1164.199, 74.16003
1164.682, 73.84401
1165.164, 73.41597
1165.646, 72.55745
1166.128, 71.23531
1166.610, 70.31924
1167.092, 69.83312
1167.574, 69.26832
1168.056, 68.28053
1168.539, 67.26403
1169.021, 66.67357
1169.503, 66.22391
1169.985, 65.48647
1170.467, 64.37248
1170.949, 63.33083
1171.431, 62.36601
1171.913, 61.51359
1172.396, 60.87872
1172.878, 60.31018
1173.360, 59.62281
1173.842, 58.88866
1174.324, 58.23997
1174.806, 57.73197
1175.288, 57.18883
1175.770, 56.60256
1176.252, 56.01291
1176.734, 55.51117
1177.217, 54.97715
1177.699, 54.17762
1178.181, 53.22651
1178.663, 52.49967
1179.145, 52.18846
1179.627, 51.74751
1180.109, 51.13696
1180.591, 50.40700
1181.074, 49.49237
1181.556, 48.57330
1182.038, 47.88751
1182.520, 47.42421
1183.002, 47.09290
1183.484, 47.05114
1183.966, 46.70707
1184.448, 45.90850
1184.931, 45.04306
1185.413, 44.58355
1185.895, 44.32528
1186.377, 43.92415
1186.859, 43.38087
1187.341, 42.94468
1187.823, 42.77454
1188.305, 42.46455
1188.787, 41.88569
1189.270, 41.27452
1189.752, 41.02713
1190.234, 40.94450
1190.716, 40.65369
1191.198, 40.12381
1191.680, 39.66610
1192.162, 39.42818
1192.644, 39.08379
1193.126, 38.47401
1193.609, 37.88644
1194.091, 37.94121
1194.573, 38.30237
1195.055, 38.32239
1195.537, 37.88929
1196.019, 37.50076
1196.501, 37.27837
1196.983, 37.09243
1197.466, 36.92414
1197.948, 36.73542
1198.430, 36.40523
1198.912, 36.01303
1199.394, 35.74201
1199.876, 35.65435
1200.358, 35.46717
1200.840, 34.99950
1201.323, 34.65702
1201.805, 34.63632
1202.287, 34.75794
1202.769, 34.63522
1203.251, 34.37415
1203.733, 34.22813
1204.215, 34.30948
1204.697, 34.22387
1205.179, 33.82914
1205.661, 33.41057
1206.144, 33.08471
1206.626, 32.82793
1207.108, 32.55795
1207.590, 32.32759
1208.072, 32.28992
1208.554, 32.59849
1209.036, 32.70063
1209.518, 32.39801
1210.001, 32.12892
1210.483, 32.14605
1210.965, 32.31524
1211.447, 32.36257
1211.929, 32.29810
1212.411, 32.12502
1212.893, 31.75095
1213.375, 31.53760
1213.858, 31.61176
1214.340, 31.65512
1214.822, 31.44460
1215.304, 31.11248
1215.786, 31.01682
1216.268, 31.04716
1216.750, 30.95265
1217.232, 30.57113
1217.714, 30.24327
1218.197, 29.96331
1218.679, 29.80904
1219.161, 29.90472
1219.643, 30.10588
1220.125, 30.07003
1220.607, 29.89511
1221.089, 29.81383
1221.571, 30.03460
1222.053, 30.06813
1222.536, 29.82821
1223.018, 29.56897
1223.500, 29.46718
1223.982, 29.45582
1224.464, 29.45368
1224.946, 29.43206
1225.428, 29.32403
1225.910, 28.95763
1226.393, 28.77747
1226.875, 28.83094
1227.357, 28.94478
1227.839, 29.05093
1228.321, 29.09924
1228.803, 28.98021
1229.285, 28.74211
1229.767, 28.49305
1230.250, 28.24146
1230.732, 28.00379
1231.214, 27.76256
1231.696, 27.60249
1232.178, 27.66998
1232.660, 27.79936
1233.142, 27.74649
1233.624, 27.57775
1234.106, 27.45874
1234.589, 27.48479
1235.071, 27.36126
1235.553, 27.05762
1236.035, 26.73277
1236.517, 26.39922
1236.999, 26.20344
1237.481, 25.66337
1237.963, 26.15212
1238.445, 26.40211
1238.928, 26.42601
1239.410, 25.54733
1239.892, 25.83432
1240.374, 25.65415
1240.856, 25.45484
1241.338, 25.90586
1241.820, 25.15850
1242.302, 25.59921
1242.785, 25.56554
1243.267, 25.74906
1243.749, 25.46254
1244.231, 25.32121
1244.713, 25.65004
1245.195, 25.71855
1245.677, 25.37792
1246.159, 25.57522
1246.641, 24.81143
1247.124, 24.89089
1247.606, 25.24098
1248.088, 25.32433
1248.570, 25.58914
1249.052, 25.78262
1249.534, 25.79275
1250.016, 25.61845
1250.498, 25.02587
1250.980, 24.39019
1251.463, 24.26386
1251.945, 24.63749
1252.427, 24.75444
1252.909, 24.60899
1253.391, 24.49574
1253.873, 24.70370
1254.355, 24.85151
1254.837, 24.72260
1255.320, 24.49330
1255.802, 24.34270
1256.284, 24.26308
1256.766, 24.20748
1257.248, 24.17626
1257.730, 24.18304
1258.212, 24.27130
1258.694, 24.33276
1259.177, 23.52359
1259.659, 24.00939
1260.141, 24.25643
1260.623, 24.27750
1261.105, 23.39589
1261.587, 23.67990
1262.069, 23.49680
1262.551, 23.29453
1263.033, 23.74262
1263.516, 22.99217
1263.998, 23.39368
1264.480, 23.35789
1264.962, 23.43061
1265.444, 23.28060
1265.926, 22.99353
1266.408, 22.91009
1266.890, 23.38758
1267.372, 23.54827
1267.855, 23.27195
1268.337, 22.92627
1268.819, 22.81025
1269.301, 22.83030
1269.783, 22.93322
1270.265, 23.05844
1270.747, 23.03815
1271.229, 22.81966
1271.712, 22.55323
1272.194, 22.21287
1272.676, 22.06958
1273.158, 22.59356
1273.640, 23.16812
1274.122, 23.13184
1274.604, 22.75557
1275.086, 22.60498
1275.568, 22.74789
1276.051, 22.70856
1276.533, 22.47172
1277.015, 22.28471
1277.497, 22.35633
1277.979, 22.47434
1278.461, 22.56928
1278.943, 22.59298
1279.425, 22.43101
1279.907, 22.09025
1280.390, 22.12457
1280.872, 22.48660
1281.354, 22.72424
1281.836, 22.51655
1282.318, 22.23162
1282.800, 21.91918
1283.282, 21.66896
1283.764, 21.59704
1284.247, 21.65817
1284.729, 21.62643
1285.211, 21.52554
1285.693, 21.44978
1286.175, 21.44461
1286.657, 21.45678
1287.139, 21.47065
1287.621, 21.51353
1288.104, 21.64817
1288.586, 21.80274
1289.068, 21.83797
1289.550, 21.77060
1290.032, 21.63740
1290.514, 21.37714
1290.996, 21.17706
1291.478, 21.02452
1291.960, 20.99015
1292.443, 21.24069
1292.925, 21.50410
1293.407, 21.32663
1293.889, 20.97910
1294.371, 20.97174
1294.853, 21.45154
1295.335, 21.43306
1295.817, 20.89813
1296.299, 20.56826
1296.782, 20.96627
1297.264, 21.45510
1297.746, 21.61229
1298.228, 21.56715
1298.710, 21.44486
1299.192, 21.25570
1299.674, 21.12958
1300.156, 21.06479
1300.639, 21.04424
1301.121, 21.07321
1301.603, 21.12011
1302.085, 21.22442
1302.567, 21.29007
1303.049, 21.27250
1303.531, 21.16805
##END=



