##NAMES=Zinkenite
##RRUFFID=R060186
##IDEAL CHEMISTRY=Pb^2+^_9_Sb^3+^_22_S^2-^_42_
##LOCALITY=Llallagua, Potosi Department, Bolivia
##OWNER=RRUFF
##SOURCE=Lloyd Twaites
##DESCRIPTION=Lead-gray metallic foliated fragment intimately associated with stibnite
##STATUS=The identification of this mineral has been confirmed by X-ray diffraction and chemical analysis
##URL=rruff.info/R060186
##MEASURED CHEMISTRY=lighter phase: (Pb_8.84_Cu_0.16_)_Σ=9_(Sb_21.92_As_0.08_)_Σ=22_S_42.00_ ; darker phase: Sb_2.00_S_3.00_
90.26367, 25.05945
90.74579, 25.08808
91.22791, 25.07795
91.71002, 25.03329
92.19214, 24.99123
92.67426, 25.05420
93.15637, 25.15306
93.63850, 25.10409
94.12061, 24.83263
94.60273, 24.37730
95.08485, 23.73500
95.56696, 22.87393
96.04908, 22.08051
96.53120, 21.77194
97.01331, 21.93077
97.49543, 22.09777
97.97755, 22.00495
98.45966, 21.67823
98.94178, 21.65711
99.42390, 22.06726
99.90602, 22.60562
100.3881, 22.63643
100.8703, 22.02530
101.3524, 21.37969
101.8345, 20.95882
102.3166, 20.75334
102.7987, 20.88513
103.2808, 21.58173
103.7630, 22.61773
104.2451, 22.92432
104.7272, 22.15635
105.2093, 21.11831
105.6914, 20.31398
106.1735, 19.84320
106.6557, 19.44129
107.1378, 19.00106
107.6199, 18.50648
108.1020, 18.43513
108.5841, 19.21754
109.0662, 20.19743
109.5484, 20.79601
110.0305, 20.80264
110.5126, 20.64507
110.9947, 20.34891
111.4768, 19.86996
111.9590, 19.45365
112.4411, 18.99914
112.9232, 18.64603
113.4053, 18.58695
113.8874, 18.97896
114.3695, 19.56591
114.8517, 20.34858
115.3338, 21.55374
115.8159, 22.36458
116.2980, 22.19493
116.7801, 21.44991
117.2622, 21.01586
117.7444, 21.42146
118.2265, 22.12801
118.7086, 22.77428
119.1907, 23.22159
119.6728, 23.70166
120.1549, 24.30612
120.6371, 25.03946
121.1192, 25.92380
121.6013, 26.85140
122.0834, 27.96780
122.5655, 29.47678
123.0477, 32.00834
123.5298, 34.45952
124.0119, 35.43087
124.4940, 35.04029
124.9761, 34.95367
125.4582, 36.80412
125.9404, 39.89927
126.4225, 42.87156
126.9046, 45.15338
127.3867, 46.99866
127.8688, 48.80414
128.3509, 50.57714
128.8331, 52.23870
129.3152, 53.61668
129.7973, 54.77356
130.2794, 55.98693
130.7615, 57.22443
131.2436, 58.59633
131.7258, 60.62820
132.2079, 63.50647
132.6900, 66.55538
133.1721, 68.50935
133.6542, 69.34270
134.1364, 70.41193
134.6185, 72.39909
135.1006, 75.30482
135.5827, 78.91508
136.0648, 83.52124
136.5469, 88.51591
137.0291, 92.50493
137.5112, 95.41245
137.9933, 97.50898
138.4754, 98.70959
138.9575, 98.78410
139.4396, 99.39346
139.9218, 100.9532
140.4039, 103.1774
140.8860, 104.5386
141.3681, 104.6507
141.8502, 104.5677
142.3323, 105.0970
142.8145, 106.3971
143.2966, 107.9142
143.7787, 109.5536
144.2608, 111.3313
144.7429, 113.3158
145.2251, 115.5555
145.7072, 117.9836
146.1893, 120.5702
146.6714, 123.4925
147.1535, 126.2955
147.6356, 128.7512
148.1178, 130.7227
148.5999, 133.2114
149.0820, 135.4173
149.5641, 138.6171
150.0462, 141.2868
150.5283, 143.4550
151.0105, 143.6195
151.4926, 146.3714
151.9747, 148.0862
152.4568, 149.7586
152.9389, 152.8747
153.4210, 153.3303
153.9032, 156.4239
154.3853, 158.4642
154.8674, 160.9865
155.3495, 162.4652
155.8316, 164.2663
156.3138, 167.1115
156.7959, 166.2967
157.2780, 167.2510
157.7601, 168.3058
158.2422, 169.3130
158.7243, 170.3588
159.2065, 171.5063
159.6886, 172.8434
160.1707, 174.1353
160.6528, 175.2916
161.1349, 176.3469
161.6170, 177.3940
162.0992, 178.6161
162.5813, 179.7510
163.0634, 180.6082
163.5455, 180.9534
164.0276, 181.2796
164.5097, 181.5966
164.9919, 182.0042
165.4740, 182.9044
165.9561, 184.9102
166.4382, 187.3021
166.9203, 189.4600
167.4025, 191.1913
167.8846, 192.6654
168.3667, 193.8235
168.8488, 194.7366
169.3309, 195.8638
169.8130, 198.0747
170.2952, 200.5009
170.7773, 202.0267
171.2594, 201.5833
171.7415, 200.6483
172.2236, 200.4177
172.7057, 200.8584
173.1879, 201.5433
173.6700, 202.2393
174.1521, 202.9534
174.6342, 203.7008
175.1163, 204.5054
175.5984, 205.3410
176.0806, 206.2278
176.5627, 207.1713
177.0448, 207.9789
177.5269, 208.4957
178.0090, 208.7468
178.4911, 208.8035
178.9733, 208.5334
179.4554, 208.1386
179.9375, 207.8914
180.4196, 207.7906
180.9017, 207.9092
181.3839, 208.4203
181.8660, 209.2437
182.3481, 210.1118
182.8302, 210.9951
183.3123, 211.8285
183.7944, 212.4699
184.2766, 212.9304
184.7587, 213.1808
185.2408, 213.0220
185.7229, 212.5384
186.2050, 212.2304
186.6871, 212.3647
187.1693, 211.9215
187.6514, 213.0784
188.1335, 213.7053
188.6156, 213.8306
189.0977, 211.9518
189.5798, 212.6608
190.0620, 212.3328
190.5441, 211.9622
191.0262, 213.0355
191.5083, 211.4482
191.9904, 212.4986
192.4725, 212.4960
192.9547, 212.9753
193.4368, 212.4112
193.9189, 212.1694
194.4010, 212.9713
194.8831, 213.1953
195.3652, 212.5111
195.8474, 213.0211
196.3295, 211.3974
196.8116, 211.6460
197.2937, 212.7025
197.7758, 212.2979
198.2579, 212.3478
198.7401, 210.3936
199.2222, 211.0272
199.7043, 210.6237
200.1864, 210.1778
200.6685, 211.1756
201.1507, 209.5129
201.6328, 210.4878
202.1149, 210.4098
202.5970, 210.8138
203.0791, 210.1742
203.5612, 209.8570
204.0434, 210.5835
204.5255, 209.0096
205.0076, 206.7219
205.4897, 204.1714
205.9718, 202.1750
206.4539, 200.8035
206.9361, 199.5614
207.4182, 198.3851
207.9003, 197.3233
208.3824, 196.5265
208.8645, 196.0579
209.3466, 195.6874
209.8288, 195.3209
210.3109, 195.0109
210.7930, 194.4505
211.2751, 193.5009
211.7572, 192.3125
212.2393, 191.4403
212.7215, 191.0192
213.2036, 190.6342
213.6857, 189.9951
214.1678, 188.9918
214.6499, 188.0967
215.1321, 187.3613
215.6142, 186.7537
216.0963, 186.1614
216.5784, 185.5965
217.0605, 185.0267
217.5426, 184.4302
218.0248, 183.8080
218.5069, 183.1747
218.9890, 182.5326
219.4711, 181.8816
219.9532, 181.1711
220.4353, 180.2622
220.9175, 179.5134
221.3996, 179.1890
221.8817, 179.4900
222.3638, 179.7052
222.8459, 179.7794
223.3280, 179.7189
223.8102, 179.5401
224.2923, 179.1848
224.7744, 178.7946
225.2565, 178.4219
225.7386, 177.9488
226.2208, 177.7874
226.7029, 178.0765
227.1850, 178.7210
227.6671, 179.2395
228.1492, 179.6706
228.6313, 179.9212
229.1135, 179.9044
229.5956, 179.4730
230.0777, 179.1034
230.5598, 178.8201
231.0419, 178.6255
231.5240, 178.5322
232.0062, 178.5982
232.4883, 178.6909
232.9704, 178.7681
233.4525, 178.9732
233.9346, 178.8304
234.4167, 178.1254
234.8989, 177.0235
235.3810, 176.3386
235.8631, 176.3581
236.3452, 176.4020
236.8273, 176.0471
237.3095, 175.0285
237.7916, 174.1917
238.2737, 173.6774
238.7558, 173.3798
239.2379, 172.8110
239.7200, 171.6947
240.2022, 170.6760
240.6843, 170.1646
241.1664, 170.6045
241.6485, 170.5638
242.1306, 169.8232
242.6127, 168.5579
243.0949, 167.4594
243.5770, 166.6397
244.0591, 165.8349
244.5412, 164.8637
245.0233, 163.4161
245.5054, 162.5128
245.9876, 162.4004
246.4697, 162.8287
246.9518, 162.0123
247.4339, 163.3552
247.9160, 164.1681
248.3981, 164.4794
248.8803, 162.7868
249.3624, 163.6818
249.8445, 163.5398
250.3266, 163.3553
250.8087, 164.6145
251.2909, 163.2134
251.7730, 164.4497
252.2551, 164.6332
252.7372, 165.2986
253.2193, 164.9205
253.7014, 164.8647
254.1836, 165.8527
254.6657, 166.2627
255.1478, 165.7645
255.6299, 166.4605
256.1120, 165.0229
256.5941, 165.4575
257.0763, 166.7000
257.5584, 166.2543
258.0405, 166.9693
258.5226, 167.2423
259.0047, 166.5979
259.4868, 167.2110
259.9690, 167.9483
260.4511, 168.8553
260.9332, 169.6527
261.4153, 170.2380
261.8974, 170.8132
262.3795, 171.7641
262.8617, 173.2974
263.3438, 174.7217
263.8259, 175.7436
264.3080, 176.2585
264.7901, 177.1220
265.2722, 178.4908
265.7544, 180.0188
266.2365, 181.1217
266.7186, 181.6054
267.2007, 182.2176
267.6829, 182.9423
268.1650, 183.7227
268.6471, 186.1897
269.1292, 191.0483
269.6113, 196.5532
270.0934, 200.6197
270.5756, 202.3064
271.0577, 204.0849
271.5398, 205.3462
272.0219, 206.1164
272.5040, 205.0200
272.9861, 206.2607
273.4683, 206.5201
273.9504, 206.7086
274.4325, 208.1868
274.9146, 207.1976
275.3967, 208.5910
275.8788, 208.9886
276.3610, 209.7954
276.8431, 209.6150
277.3252, 209.6977
277.8073, 210.7040
278.2894, 211.1493
278.7715, 210.7311
279.2537, 211.3743
279.7358, 210.0322
280.2179, 210.3722
280.7000, 211.4198
281.1821, 210.8899
281.6642, 211.3908
282.1464, 211.4550
282.6285, 209.6479
283.1106, 209.8391
283.5927, 209.1210
284.0748, 208.3918
284.5569, 207.6380
285.0391, 206.9542
285.5212, 206.3790
286.0033, 205.9122
286.4854, 205.5794
286.9675, 205.3750
287.4496, 205.3121
287.9318, 205.4230
288.4139, 205.7105
288.8960, 206.1398
289.3781, 206.7937
289.8602, 207.6110
290.3424, 208.2674
290.8245, 208.7182
291.3066, 209.0553
291.7887, 209.3215
292.2708, 209.5433
292.7530, 209.9559
293.2351, 210.8311
293.7172, 212.0096
294.1993, 212.9902
294.6814, 213.7555
295.1635, 214.3213
295.6457, 214.6822
296.1278, 214.8488
296.6099, 214.8575
297.0920, 214.5099
297.5741, 214.0576
298.0562, 214.2509
298.5384, 215.1708
299.0205, 215.7823
299.5026, 214.6255
299.9847, 212.2996
300.4668, 210.3652
300.9489, 209.9733
301.4311, 210.0759
301.9132, 209.1396
302.3953, 207.1920
302.8774, 205.0775
303.3595, 203.4926
303.8416, 202.1973
304.3238, 200.7296
304.8059, 198.9816
305.2880, 197.0021
305.7701, 194.7568
306.2522, 192.2765
306.7343, 189.8889
307.2165, 188.0446
307.6986, 186.3092
308.1807, 184.1188
308.6628, 181.1685
309.1449, 177.9445
309.6270, 174.7584
310.1092, 171.5533
310.5913, 168.2488
311.0734, 164.6799
311.5555, 161.0416
312.0376, 157.5433
312.5197, 154.2200
313.0019, 151.0264
313.4840, 147.7020
313.9661, 144.4469
314.4482, 141.6367
314.9304, 139.8376
315.4125, 138.2415
315.8946, 136.3120
316.3767, 133.8764
316.8588, 131.6415
317.3409, 129.9527
317.8231, 128.6036
318.3052, 127.3271
318.7873, 126.0641
319.2694, 124.8214
319.7515, 123.5654
320.2336, 122.2852
320.7158, 121.1377
321.1979, 120.3145
321.6800, 119.5858
322.1621, 118.7477
322.6442, 117.5281
323.1263, 116.4320
323.6085, 115.6112
324.0906, 115.0524
324.5727, 114.5186
325.0548, 111.9426
325.5369, 112.8832
326.0190, 113.2938
326.5012, 113.2027
326.9833, 111.1076
327.4654, 111.6003
327.9475, 111.0559
328.4296, 110.4691
328.9117, 111.3260
329.3939, 109.5224
329.8760, 110.3563
330.3581, 110.1375
330.8402, 110.4005
331.3223, 109.6200
331.8044, 109.1619
332.2866, 108.8074
332.7687, 108.0122
333.2508, 107.2141
333.7329, 106.5284
334.2150, 105.9211
334.6971, 105.6073
335.1793, 105.7224
335.6614, 105.9969
336.1435, 106.0866
336.6256, 105.9566
337.1077, 105.7397
337.5899, 105.4589
338.0720, 105.1159
338.5541, 104.7742
339.0362, 104.4305
339.5183, 104.0979
340.0005, 103.7789
340.4826, 103.4627
340.9647, 103.2300
341.4468, 103.1063
341.9289, 103.0694
342.4110, 103.0892
342.8932, 103.1884
343.3753, 103.1875
343.8574, 102.8363
344.3395, 102.1698
344.8216, 101.8408
345.3037, 101.9756
345.7859, 102.3430
346.2680, 102.5796
346.7501, 102.6896
347.2322, 102.7261
347.7143, 102.7413
348.1964, 102.7067
348.6786, 102.4666
349.1607, 101.9717
349.6428, 101.5184
350.1249, 101.6371
350.6070, 102.1095
351.0891, 102.2357
351.5713, 101.3664
352.0534, 100.1648
352.5355, 99.70659
353.0176, 99.97221
353.4997, 100.2645
353.9818, 99.89749
354.4640, 99.23432
354.9461, 98.84209
355.4282, 99.01115
355.9103, 99.34917
356.3924, 99.56135
356.8745, 99.66203
357.3567, 99.70338
357.8388, 99.73673
358.3209, 99.71436
358.8030, 99.58044
359.2851, 99.29301
359.7672, 98.98425
360.2494, 98.65643
360.7315, 98.36085
361.2136, 98.19607
361.6957, 98.34964
362.1779, 98.51701
362.6600, 98.52795
363.1421, 98.34695
363.6242, 98.17944
364.1063, 98.25144
364.5884, 98.29855
365.0706, 98.04983
365.5527, 96.87146
366.0348, 95.99744
366.5169, 95.89169
366.9990, 96.50096
367.4811, 96.85185
367.9633, 96.53837
368.4454, 96.15768
368.9275, 96.05704
369.4096, 96.64146
369.8917, 96.95061
370.3738, 96.85064
370.8560, 96.46858
371.3381, 96.15512
371.8202, 95.90722
372.3023, 95.72920
372.7844, 95.64400
373.2665, 95.69266
373.7487, 95.65443
374.2308, 95.45688
374.7129, 95.24621
375.1950, 95.26905
375.6771, 95.65280
376.1592, 95.85789
376.6414, 95.68861
377.1235, 95.19143
377.6056, 94.82905
378.0877, 94.61662
378.5698, 94.48078
379.0519, 94.32571
379.5341, 94.15170
380.0162, 94.17079
380.4983, 94.50243
380.9804, 94.94768
381.4625, 94.97086
381.9446, 94.58207
382.4268, 94.23341
382.9089, 94.36287
383.3910, 94.76640
383.8731, 94.67793
384.3553, 93.94875
384.8374, 93.16313
385.3195, 93.07618
385.8016, 93.50572
386.2837, 93.91563
386.7658, 94.00064
387.2480, 93.96520
387.7301, 94.11147
388.2122, 94.42922
388.6943, 94.68079
389.1764, 94.61100
389.6585, 94.39673
390.1407, 94.28600
390.6228, 94.52429
391.1049, 94.62945
391.5870, 94.01456
392.0691, 92.95774
392.5512, 92.29723
393.0334, 92.76598
393.5155, 93.51149
393.9976, 94.01015
394.4797, 94.15879
394.9618, 94.16507
395.4439, 93.96531
395.9261, 93.69761
396.4082, 93.54629
396.8903, 93.86880
397.3724, 93.99480
397.8545, 93.57656
398.3366, 92.57703
398.8188, 91.95244
399.3009, 92.05966
399.7830, 92.36864
400.2651, 92.54748
400.7472, 92.49436
401.2293, 92.46402
401.7115, 92.49087
402.1936, 92.54607
402.6757, 92.51875
403.1578, 92.28661
403.6399, 92.18505
404.1220, 92.43459
404.6042, 93.15702
405.0863, 93.51509
405.5684, 93.45329
406.0505, 93.11153
406.5326, 92.57729
407.0147, 91.79861
407.4969, 91.22356
407.9790, 91.01620
408.4611, 91.09092
408.9432, 91.08454
409.4254, 90.98380
409.9075, 90.94826
410.3896, 91.12167
410.8717, 91.47279
411.3538, 91.91059
411.8359, 92.48333
412.3181, 92.97025
412.8002, 92.96263
413.2823, 92.56232
413.7644, 92.17837
414.2465, 92.03613
414.7286, 92.02958
415.2108, 91.99128
415.6929, 91.91000
416.1750, 91.92970
416.6571, 92.33498
417.1392, 92.85672
417.6213, 93.13579
418.1035, 92.82407
418.5856, 92.47852
419.0677, 92.53153
419.5498, 92.85313
420.0319, 92.95375
420.5140, 92.23792
420.9962, 91.52243
421.4783, 91.37923
421.9604, 92.18076
422.4425, 92.75803
422.9246, 92.60160
423.4067, 92.14608
423.8889, 91.98568
424.3710, 92.56775
424.8531, 93.05866
425.3352, 93.26027
425.8173, 93.17338
426.2994, 93.06516
426.7816, 92.91798
427.2637, 92.76817
427.7458, 92.65073
428.2279, 92.61645
428.7100, 92.44781
429.1921, 91.97470
429.6743, 91.46005
430.1564, 91.72609
430.6385, 93.08377
431.1206, 94.01114
431.6028, 93.64709
432.0849, 92.06512
432.5670, 91.12288
433.0491, 90.89571
433.5312, 90.99340
434.0133, 90.99676
434.4955, 90.94170
434.9776, 91.10437
435.4597, 91.66206
435.9418, 92.33460
436.4239, 92.64285
436.9060, 92.60844
437.3882, 92.38567
437.8703, 91.84794
438.3524, 91.26067
438.8345, 91.05959
439.3166, 91.33459
439.7987, 91.68729
440.2809, 91.80770
440.7630, 91.79663
441.2451, 91.81059
441.7272, 91.93353
442.2093, 92.07584
442.6914, 92.28158
443.1736, 92.51001
443.6557, 92.50129
444.1378, 91.74828
444.6199, 91.00822
445.1020, 90.80882
445.5841, 91.61655
446.0663, 92.20363
446.5484, 92.10394
447.0305, 91.75081
447.5126, 90.91735
447.9947, 92.20859
448.4768, 92.96973
448.9590, 93.22929
449.4411, 91.48486
449.9232, 91.24037
450.4053, 91.35824
450.8874, 91.78999
451.3695, 91.95313
451.8517, 91.75462
452.3338, 91.72226
452.8159, 91.97282
453.2980, 92.32920
453.7801, 92.37268
454.2622, 92.07536
454.7444, 91.86801
455.2265, 91.99923
455.7086, 92.38765
456.1907, 92.72163
456.6729, 93.01125
457.1550, 93.16668
457.6371, 92.99892
458.1192, 92.64022
458.6013, 92.42136
459.0834, 92.47691
459.5656, 92.60383
460.0477, 92.53770
460.5298, 92.35410
461.0119, 92.27878
461.4940, 92.63934
461.9761, 93.01015
462.4583, 92.95067
462.9404, 92.38369
463.4225, 92.01246
463.9046, 92.48429
464.3867, 93.15504
464.8688, 93.40503
465.3510, 92.48599
465.8331, 91.82019
466.3152, 91.90649
466.7973, 92.51571
467.2794, 92.81621
467.7615, 92.54591
468.2437, 92.16662
468.7258, 91.75933
469.2079, 91.23829
469.6900, 91.15784
470.1721, 91.87373
470.6542, 92.64050
471.1364, 92.52274
471.6185, 91.16759
472.1006, 90.36450
472.5827, 90.57761
473.0648, 91.45079
473.5469, 91.93444
474.0291, 92.01360
474.5112, 91.88510
474.9933, 91.48812
475.4754, 90.94231
475.9575, 90.84984
476.4396, 91.28037
476.9218, 91.78877
477.4039, 91.86938
477.8860, 91.66245
478.3681, 91.49152
478.8503, 91.47391
479.3324, 91.51466
479.8145, 91.53880
480.2966, 91.54556
480.7787, 91.53400
481.2608, 91.36553
481.7430, 91.27341
482.2251, 91.53088
482.7072, 92.27615
483.1893, 92.72359
483.6714, 92.28047
484.1535, 91.54744
484.6357, 91.13147
485.1178, 91.36501
485.5999, 91.64904
486.0820, 92.06103
486.5641, 92.49007
487.0462, 92.48643
487.5284, 91.68304
488.0105, 90.94132
488.4926, 90.62086
488.9747, 90.80318
489.4568, 90.89701
489.9389, 90.86877
490.4211, 90.81152
490.9032, 90.82546
491.3853, 90.91263
491.8674, 91.03786
492.3495, 91.22126
492.8316, 91.40342
493.3138, 91.42675
493.7959, 91.30398
494.2780, 91.18264
494.7601, 91.19249
495.2422, 91.25098
495.7243, 91.13229
496.2065, 89.84097
496.6886, 91.01369
497.1707, 91.65630
497.6528, 91.79731
498.1349, 89.93436
498.6170, 90.65910
499.0992, 90.34681
499.5813, 89.99200
500.0634, 91.08096
500.5455, 89.50948
501.0276, 90.57555
501.5097, 90.58875
501.9919, 91.08381
502.4740, 90.53544
502.9561, 90.30936
503.4382, 91.12705
503.9203, 91.36680
504.4025, 90.69830
504.8846, 91.22401
505.3667, 89.61607
505.8488, 89.88043
506.3309, 90.95261
506.8130, 90.33659
507.2952, 90.88136
507.7773, 90.98404
508.2594, 89.07757
508.7415, 90.66521
509.2236, 90.74178
509.7057, 89.26677
510.1879, 90.73469
510.6700, 89.47358
511.1521, 89.18658
511.6342, 89.63264
512.1163, 89.31450
512.5984, 90.20121
513.0806, 89.92719
513.5627, 89.54948
514.0448, 89.62435
514.5269, 88.41676
515.0090, 89.58838
515.4911, 89.13480
515.9733, 89.48905
516.4554, 90.02643
516.9375, 89.16174
517.4196, 89.78139
517.9017, 88.09918
518.3839, 88.34301
518.8660, 88.37945
519.3481, 89.64698
519.8302, 87.97599
520.3123, 88.16632
520.7944, 89.14917
521.2766, 89.02309
521.7587, 89.36066
522.2408, 88.32565
522.7229, 88.58008
523.2050, 88.47909
523.6871, 89.60627
524.1693, 89.76385
524.6514, 88.75214
525.1335, 87.74537
525.6156, 88.96094
526.0977, 88.07015
526.5798, 88.31573
527.0620, 87.38766
527.5441, 87.47295
528.0262, 87.54217
528.5083, 88.13084
528.9904, 87.14437
529.4725, 88.20111
529.9547, 88.07693
530.4368, 88.30061
530.9189, 88.48560
531.4010, 87.08590
531.8831, 86.98526
532.3652, 88.74345
532.8474, 87.66682
533.3295, 87.16237
533.8116, 87.06465
534.2937, 88.88649
534.7758, 88.92413
535.2579, 86.82909
535.7401, 88.56632
536.2222, 87.94587
536.7043, 88.02605
537.1865, 87.85061
537.6686, 87.75084
538.1507, 86.68857
538.6328, 86.89469
539.1149, 88.13213
539.5970, 87.61132
540.0792, 88.28522
540.5613, 86.78182
541.0434, 86.57083
541.5255, 86.70290
542.0076, 86.96008
542.4897, 86.21758
542.9719, 87.47430
543.4540, 87.39989
543.9361, 86.17192
544.4182, 86.19531
544.9003, 86.01093
545.3824, 87.98956
545.8646, 86.99429
546.3467, 85.78846
546.8288, 86.94017
547.3109, 87.33624
547.7930, 86.71073
548.2751, 86.62806
548.7573, 85.51551
549.2394, 85.98233
549.7215, 85.90596
550.2036, 86.72455
550.6857, 85.61615
551.1678, 86.72611
551.6500, 85.66940
552.1321, 86.86918
552.6142, 85.76665
553.0963, 86.71503
553.5784, 85.21538
554.0605, 85.48760
554.5427, 85.90025
555.0248, 86.76656
555.5069, 85.88880
555.9890, 86.86270
556.4711, 86.21165
556.9532, 86.61828
557.4354, 86.43839
557.9175, 85.52446
558.3996, 86.68092
558.8817, 85.94908
559.3638, 86.49228
559.8459, 84.97029
560.3281, 85.95882
560.8102, 85.43580
561.2923, 85.19588
561.7744, 85.04943
562.2565, 85.05757
562.7386, 85.09668
563.2208, 85.14334
563.7029, 85.19917
564.1850, 85.28983
564.6671, 85.46936
565.1492, 85.58695
565.6313, 85.54014
566.1135, 85.31145
566.5956, 85.14439
567.0777, 85.02551
567.5598, 85.02009
568.0419, 85.30997
568.5240, 85.81106
569.0062, 86.08577
569.4883, 86.00172
569.9704, 85.76615
570.4525, 85.64537
570.9346, 85.58228
571.4167, 85.43652
571.8989, 84.97588
572.3810, 84.54598
572.8631, 84.43436
573.3452, 84.59837
573.8273, 84.72336
574.3094, 84.58701
574.7916, 84.46240
575.2737, 84.50974
575.7558, 84.80500
576.2379, 85.08274
576.7200, 85.42826
577.2021, 85.67625
577.6843, 85.65383
578.1664, 85.25340
578.6485, 84.89857
579.1306, 84.62780
579.6127, 84.42393
580.0948, 84.25755
580.5770, 84.12908
581.0591, 83.99539
581.5412, 83.81390
582.0233, 83.63179
582.5054, 83.54924
582.9875, 83.56318
583.4697, 83.64517
583.9518, 83.92727
584.4340, 84.18738
584.9161, 84.10486
585.3982, 83.59978
585.8803, 83.20897
586.3624, 83.31612
586.8445, 83.60806
587.3267, 83.79530
587.8088, 83.61719
588.2909, 83.59187
588.7730, 83.92184
589.2551, 84.40173
589.7372, 84.68882
590.2194, 84.73350
590.7015, 84.67575
591.1836, 84.52038
591.6657, 84.28909
592.1478, 84.08085
592.6299, 83.88963
593.1121, 83.77254
593.5942, 83.88734
594.0763, 84.11507
594.5584, 83.94967
595.0405, 83.36378
595.5226, 82.73199
596.0048, 82.31285
596.4869, 82.08254
596.9690, 82.02528
597.4511, 82.20082
597.9332, 82.38735
598.4153, 82.47121
598.8975, 82.48318
599.3796, 82.47212
599.8617, 82.28055
600.3438, 82.25514
600.8259, 82.57094
601.3080, 83.13955
601.7902, 83.64546
602.2723, 84.23339
602.7544, 84.49590
603.2365, 84.15646
603.7186, 83.23324
604.2007, 82.68469
604.6829, 82.54751
605.1650, 82.62172
605.6471, 82.83151
606.1292, 83.12930
606.6113, 83.33244
607.0934, 83.41740
607.5756, 83.40323
608.0577, 83.24026
608.5398, 83.00358
609.0219, 82.83260
609.5040, 82.86687
609.9861, 82.84396
610.4683, 82.45166
610.9504, 81.90822
611.4325, 81.67831
611.9146, 82.30157
612.3967, 82.82822
612.8788, 82.93401
613.3610, 82.65794
613.8431, 82.44392
614.3252, 82.34483
614.8073, 82.22121
615.2894, 81.93388
615.7715, 81.45853
616.2537, 81.35339
616.7358, 81.67432
617.2179, 82.09175
617.7000, 82.30598
618.1821, 82.34158
618.6642, 82.25918
619.1464, 82.03486
619.6285, 81.81364
620.1106, 81.75767
620.5927, 81.80268
621.0748, 81.83884
621.5569, 81.85689
622.0391, 80.77524
622.5212, 81.96471
623.0033, 82.62408
623.4854, 82.78185
623.9675, 80.93565
624.4496, 81.67716
624.9318, 81.38162
625.4139, 81.04358
625.8960, 82.14929
626.3781, 80.59457
626.8602, 81.67738
627.3423, 81.70734
627.8245, 82.21917
628.3066, 82.35063
628.7887, 81.92269
629.2708, 81.16708
629.7529, 80.93313
630.2350, 81.06986
630.7172, 81.26981
631.1993, 81.53593
631.6815, 81.65199
632.1636, 81.22013
632.6457, 80.56870
633.1278, 80.21439
633.6099, 80.52988
634.0920, 80.95653
634.5742, 81.50184
635.0563, 82.04910
635.5384, 82.18192
636.0205, 81.60790
636.5026, 81.02916
636.9847, 80.61278
637.4669, 80.36514
637.9490, 80.40820
638.4311, 80.82120
638.9132, 81.17429
639.3953, 81.09661
639.8774, 80.69748
640.3596, 80.51140
640.8417, 80.57494
641.3238, 80.63655
641.8059, 80.37251
642.2880, 79.98901
642.7701, 79.78777
643.2523, 79.86594
643.7344, 80.03762
644.2165, 80.22954
644.6986, 80.45189
645.1807, 80.71639
645.6628, 81.36996
646.1450, 81.62199
646.6271, 81.06946
647.1092, 80.11683
647.5913, 79.88979
648.0734, 80.72862
648.5555, 81.32047
649.0377, 81.16507
649.5198, 80.44596
650.0019, 79.93333
650.4840, 79.62016
650.9661, 79.52210
651.4482, 79.79178
651.9304, 80.23145
652.4125, 80.48952
652.8946, 80.55324
653.3767, 80.58113
653.8588, 80.72644
654.3409, 80.85242
654.8231, 80.82198
655.3052, 80.53825
655.7873, 80.31264
656.2694, 80.17831
656.7515, 80.15427
657.2336, 80.28934
657.7158, 80.81147
658.1979, 80.94736
658.6800, 80.45891
659.1621, 79.75804
659.6442, 79.63592
660.1263, 80.09859
660.6085, 80.48482
661.0906, 80.57279
661.5727, 80.49157
662.0548, 80.43990
662.5369, 80.41361
663.0190, 80.39754
663.5012, 80.48106
663.9833, 80.49682
664.4654, 80.18881
664.9475, 79.62392
665.4296, 79.31425
665.9117, 79.81554
666.3939, 80.28381
666.8760, 80.23661
667.3581, 79.57256
667.8402, 79.06709
668.3223, 78.67314
668.8044, 78.50558
669.2866, 78.77324
669.7687, 79.50792
670.2508, 79.85743
670.7329, 79.72505
671.2150, 79.43235
671.6971, 79.28268
672.1793, 79.25829
672.6614, 79.32077
673.1435, 79.47032
673.6256, 79.67656
674.1077, 80.02079
674.5898, 80.38204
675.0720, 80.56992
675.5541, 80.25943
676.0362, 80.06937
676.5183, 80.36294
677.0004, 80.89695
677.4825, 80.97206
677.9647, 80.27243
678.4468, 79.74273
678.9290, 79.74106
679.4111, 80.10611
679.8932, 80.00521
680.3753, 79.41309
680.8574, 78.78024
681.3395, 78.15965
681.8217, 77.73418
682.3038, 78.11219
682.7859, 79.23226
683.2680, 80.21323
683.7501, 80.53779
684.2322, 80.42649
684.7144, 79.94722
685.1965, 79.01869
685.6786, 78.33414
686.1607, 78.13582
686.6428, 78.21616
687.1249, 78.43461
687.6071, 78.89538
688.0892, 79.25798
688.5713, 79.52219
689.0534, 79.69040
689.5355, 79.76964
690.0176, 79.76037
690.4998, 79.61206
690.9819, 79.27171
691.4640, 78.91918
691.9461, 78.85310
692.4282, 78.96420
692.9103, 79.00599
693.3925, 78.73167
693.8746, 78.54234
694.3567, 78.74883
694.8388, 79.21272
695.3209, 79.60944
695.8030, 80.00257
696.2852, 80.14502
696.7673, 79.83723
697.2494, 79.21195
697.7315, 79.02773
698.2136, 79.44009
698.6957, 79.78072
699.1779, 79.74418
699.6600, 79.39977
700.1421, 78.98828
700.6242, 78.51746
701.1063, 78.16744
701.5884, 78.15186
702.0706, 78.28313
702.5527, 78.29484
703.0348, 78.16973
703.5169, 78.16920
703.9990, 78.57423
704.4811, 79.04343
704.9633, 79.35410
705.4454, 79.48656
705.9275, 79.41884
706.4096, 78.98553
706.8917, 78.53966
707.3738, 78.45084
707.8560, 78.78648
708.3381, 78.79447
708.8202, 78.33005
709.3023, 77.84344
709.7844, 77.93261
710.2665, 78.46033
710.7487, 79.10875
711.2308, 79.93382
711.7129, 80.49879
712.1950, 80.20073
712.6771, 79.49100
713.1592, 79.05017
713.6414, 79.45840
714.1235, 79.72898
714.6056, 79.57064
715.0877, 79.14194
715.5698, 78.70359
716.0519, 78.13867
716.5341, 77.89011
717.0162, 78.14700
717.4983, 78.73304
717.9804, 79.18980
718.4625, 79.52007
718.9446, 79.71167
719.4268, 79.63387
719.9089, 79.49894
720.3910, 79.69579
720.8731, 80.11775
721.3552, 80.31956
721.8373, 79.71743
722.3195, 79.15260
722.8016, 79.21733
723.2837, 79.94207
723.7658, 80.24589
724.2479, 79.86148
724.7300, 79.35778
725.2122, 78.93694
725.6943, 78.59689
726.1765, 78.60497
726.6586, 79.03294
727.1407, 79.35041
727.6228, 78.79729
728.1049, 77.88061
728.5870, 78.04758
729.0692, 79.44258
729.5513, 80.60190
730.0334, 80.10941
730.5155, 79.10062
730.9976, 78.66637
731.4797, 79.18613
731.9619, 79.64450
732.4440, 79.96349
732.9261, 80.08119
733.4082, 79.88391
733.8903, 79.19665
734.3724, 78.79440
734.8546, 78.74613
735.3367, 78.91843
735.8188, 79.30019
736.3009, 79.79613
736.7830, 79.89823
737.2651, 79.38918
737.7473, 78.83524
738.2294, 78.88004
738.7115, 79.22612
739.1936, 79.42857
739.6757, 79.14292
740.1578, 78.95566
740.6400, 79.16049
741.1221, 79.52493
741.6042, 79.64581
742.0863, 79.42437
742.5684, 79.17040
743.0505, 78.92256
743.5327, 78.67830
744.0148, 78.35943
744.4969, 77.99023
744.9790, 77.89002
745.4611, 78.39263
745.9432, 78.95744
746.4254, 78.64700
746.9075, 77.81859
747.3896, 77.40031
747.8717, 78.37656
748.3538, 79.27493
748.8359, 79.29865
749.3181, 78.64423
749.8002, 78.38865
750.2823, 78.76549
750.7644, 79.20859
751.2465, 79.62826
751.7286, 79.97069
752.2108, 79.84886
752.6929, 79.25212
753.1750, 78.74367
753.6571, 78.69717
754.1392, 78.91599
754.6213, 79.19627
755.1035, 79.49257
755.5856, 79.54290
756.0677, 78.81889
756.5498, 78.13809
757.0319, 78.07292
757.5140, 78.67338
757.9962, 79.02142
758.4783, 78.88908
758.9604, 78.74987
759.4425, 78.85029
759.9246, 79.17892
760.4067, 79.32511
760.8889, 79.28371
761.3710, 79.09048
761.8531, 78.54031
762.3352, 77.93137
762.8173, 77.93024
763.2994, 78.55062
763.7816, 79.18179
764.2637, 79.70386
764.7458, 79.90402
765.2279, 79.43773
765.7100, 78.00599
766.1921, 77.31590
766.6743, 77.86733
767.1564, 78.66123
767.6385, 79.09054
768.1206, 79.12488
768.6027, 79.09620
769.0848, 78.99812
769.5670, 78.87611
770.0491, 78.76656
770.5312, 78.66262
771.0133, 78.49631
771.4954, 78.23866
771.9775, 78.17290
772.4597, 78.75483
772.9418, 79.43308
773.4240, 79.73638
773.9061, 79.46269
774.3882, 79.11619
774.8703, 78.51987
775.3524, 78.08391
775.8345, 78.27126
776.3167, 79.16157
776.7988, 79.68757
777.2809, 79.75191
777.7630, 79.60310
778.2451, 79.33606
778.7272, 79.08596
779.2094, 79.22865
779.6915, 79.97363
780.1736, 80.47506
780.6557, 79.97438
781.1378, 79.11314
781.6199, 78.51054
782.1021, 78.43119
782.5842, 78.32580
783.0663, 78.02457
783.5484, 77.88735
784.0305, 78.49757
784.5126, 79.90205
784.9948, 80.65018
785.4769, 80.48301
785.9590, 80.04749
786.4411, 80.18580
786.9232, 80.56778
787.4053, 80.53728
787.8875, 79.74523
788.3696, 79.05147
788.8517, 78.96284
789.3338, 79.14704
789.8159, 79.22410
790.2980, 79.05148
790.7802, 78.97677
791.2623, 79.06230
791.7444, 79.17826
792.2265, 79.12366
792.7086, 78.91149
793.1907, 78.77888
793.6729, 78.76773
794.1550, 78.82748
794.6371, 78.92630
795.1192, 79.05046
795.6013, 79.17403
796.0834, 79.26648
796.5656, 79.40557
797.0477, 79.84695
797.5298, 80.23914
798.0119, 80.07238
798.4940, 78.65278
798.9761, 78.61484
799.4583, 79.16063
799.9404, 79.46702
800.4225, 79.54688
800.9046, 78.72173
801.3867, 79.06522
801.8688, 78.94037
802.3510, 78.79633
802.8331, 79.30430
803.3152, 78.61079
803.7973, 79.10843
804.2794, 79.13058
804.7615, 79.37035
805.2437, 79.13890
805.7258, 78.94029
806.2079, 79.24036
806.6900, 79.26057
807.1721, 79.19375
807.6542, 79.03511
808.1364, 78.86086
808.6185, 78.77799
809.1006, 78.76333
809.5827, 78.74658
810.0648, 78.70690
810.5469, 78.67924
811.0291, 78.67168
811.5112, 78.69837
811.9933, 78.77834
812.4754, 78.99699
812.9575, 79.14597
813.4396, 79.25742
813.9218, 79.25840
814.4039, 78.97912
814.8860, 78.38240
815.3681, 78.11668
815.8502, 78.29124
816.3323, 78.63137
816.8145, 78.98867
817.2966, 79.23768
817.7787, 79.09506
818.2608, 78.35703
818.7429, 77.70108
819.2251, 77.45447
819.7072, 77.44413
820.1893, 77.51197
820.6714, 77.64903
821.1536, 77.87125
821.6357, 78.25446
822.1178, 78.58607
822.5999, 78.54432
823.0820, 78.20353
823.5641, 78.09585
824.0463, 78.30396
824.5284, 78.55408
825.0105, 78.53574
825.4926, 78.44445
825.9747, 78.55888
826.4568, 79.06864
826.9390, 79.30521
827.4211, 78.72285
827.9032, 78.12627
828.3853, 78.11587
828.8674, 78.88851
829.3495, 79.27103
829.8317, 79.20403
830.3138, 78.96400
830.7959, 78.62670
831.2780, 78.35717
831.7601, 78.73764
832.2422, 79.86829
832.7244, 80.56982
833.2065, 79.45103
833.6886, 78.06506
834.1707, 77.71675
834.6528, 78.94778
835.1349, 79.48890
835.6171, 79.01407
836.0992, 78.40348
836.5813, 78.26550
837.0634, 78.56026
837.5455, 78.64540
838.0276, 78.51463
838.5098, 78.44858
838.9919, 78.76329
839.4740, 79.19170
839.9561, 79.50048
840.4382, 79.66853
840.9203, 79.59689
841.4025, 78.89275
841.8846, 78.29484
842.3667, 78.16752
842.8488, 78.50002
843.3309, 78.71072
843.8130, 78.78129
844.2952, 78.83644
844.7773, 78.96757
845.2594, 79.13155
845.7415, 79.26934
846.2236, 79.36401
846.7057, 79.31425
847.1879, 78.95522
847.6700, 78.53751
848.1521, 78.13530
848.6342, 77.77872
849.1163, 77.63179
849.5984, 77.77267
850.0806, 77.98544
850.5627, 78.27882
851.0448, 78.54936
851.5269, 78.31492
852.0090, 77.64992
852.4911, 77.17339
852.9733, 77.35288
853.4554, 77.69874
853.9375, 77.75742
854.4196, 77.63091
854.9017, 77.57159
855.3839, 77.77132
855.8660, 77.89603
856.3481, 77.84994
856.8302, 77.70715
857.3123, 77.62589
857.7944, 77.60824
858.2766, 77.62607
858.7587, 77.68361
859.2408, 77.75005
859.7229, 77.77907
860.2050, 77.78391
860.6871, 77.79218
861.1693, 77.83629
861.6514, 77.85046
862.1335, 77.67197
862.6156, 77.51783
863.0977, 77.72514
863.5798, 78.58921
864.0620, 78.90757
864.5441, 78.43999
865.0262, 77.75394
865.5083, 77.60621
865.9904, 77.83036
866.4726, 77.92083
866.9547, 77.78789
867.4368, 77.52029
867.9189, 76.96127
868.4011, 76.42583
868.8832, 76.24156
869.3653, 76.69833
869.8474, 76.85426
870.3295, 76.58622
870.8116, 76.21099
871.2938, 75.94198
871.7759, 75.77896
872.2580, 75.70554
872.7401, 75.71970
873.2222, 75.88687
873.7043, 76.64434
874.1865, 77.32404
874.6686, 77.05748
875.1507, 75.76951
875.6328, 74.90183
876.1149, 75.12683
876.5970, 75.50880
877.0792, 75.69846
877.5613, 75.73172
878.0434, 76.10715
878.5255, 76.84970
879.0076, 77.26919
879.4897, 76.67197
879.9719, 75.69839
880.4540, 75.19813
880.9361, 75.09610
881.4182, 75.13230
881.9003, 75.31902
882.3824, 75.49694
882.8646, 75.62505
883.3467, 75.70154
883.8288, 75.74529
884.3109, 75.78551
884.7930, 75.58608
885.2751, 74.96802
885.7573, 74.29504
886.2394, 74.19581
886.7215, 74.52551
887.2036, 74.96423
887.6857, 75.67228
888.1678, 76.01327
888.6500, 75.34153
889.1321, 74.30221
889.6142, 73.73988
890.0963, 73.77099
890.5784, 74.07591
891.0605, 74.76359
891.5427, 75.41440
892.0248, 75.34399
892.5069, 74.85731
892.9890, 75.05173
893.4711, 76.18371
893.9532, 76.93294
894.4354, 75.94134
894.9175, 74.50371
895.3996, 73.68305
895.8817, 73.75880
896.3638, 73.67961
896.8459, 73.30796
897.3281, 73.06915
897.8102, 73.34061
898.2923, 74.00011
898.7744, 74.31606
899.2565, 74.32044
899.7386, 74.36588
900.2208, 75.00896
900.7029, 75.49866
901.1850, 75.02287
901.6671, 73.75231
902.1492, 73.07700
902.6313, 73.63398
903.1135, 73.90537
903.5956, 73.30035
904.0777, 72.28761
904.5598, 72.32947
905.0419, 73.28776
905.5240, 74.06989
906.0062, 74.32352
906.4883, 74.15949
906.9704, 73.13703
907.4525, 71.91326
907.9346, 71.54062
908.4167, 73.25031
908.8989, 73.70568
909.3810, 73.92169
909.8631, 73.91116
910.3452, 72.99561
910.8273, 73.24870
911.3094, 73.03345
911.7916, 72.79898
912.2737, 73.21656
912.7558, 72.43264
913.2380, 72.83985
913.7201, 72.77159
914.2022, 72.01485
914.6843, 71.99411
915.1664, 72.46542
915.6486, 72.89565
916.1307, 72.98598
916.6128, 72.75704
917.0949, 72.52266
917.5770, 72.28282
918.0591, 72.12580
918.5413, 72.12669
919.0234, 72.22266
919.5055, 72.40307
919.9876, 72.63198
920.4697, 72.77630
920.9518, 72.66663
921.4340, 72.64114
921.9161, 72.85563
922.3982, 73.15234
922.8803, 73.07962
923.3624, 72.65044
923.8445, 72.28996
924.3267, 72.14238
924.8088, 72.05276
925.2909, 71.76065
925.7730, 71.44406
926.2551, 71.37903
926.7372, 71.89544
927.2194, 72.20036
927.7015, 72.16531
928.1836, 71.95000
928.6657, 71.61712
929.1478, 71.16824
929.6299, 71.03310
930.1121, 71.24586
930.5942, 71.56392
931.0763, 71.91961
931.5584, 72.18204
932.0405, 72.13377
932.5226, 71.76279
933.0048, 71.53564
933.4869, 71.64232
933.9690, 71.81579
934.4511, 72.01787
934.9332, 72.20886
935.4153, 72.10106
935.8975, 71.71185
936.3796, 71.46535
936.8617, 71.70834
937.3438, 72.00503
937.8259, 71.14607
938.3080, 71.79398
938.7902, 72.13817
939.2723, 72.19499
939.7544, 71.10366
940.2365, 71.49491
940.7186, 71.29202
941.2007, 71.06476
941.6829, 71.66467
942.1650, 70.74034
942.6471, 71.32715
943.1292, 71.31074
943.6113, 71.57040
944.0934, 71.23225
944.5756, 71.07873
945.0577, 71.52324
945.5398, 71.63662
946.0219, 71.22964
946.5040, 71.50686
946.9861, 71.30000
947.4683, 71.54202
947.9504, 71.49504
948.4325, 71.18571
948.9146, 70.83752
949.3967, 70.38088
949.8788, 70.11740
950.3610, 70.46121
950.8431, 71.18362
951.3252, 71.58939
951.8073, 71.51128
952.2894, 71.30559
952.7715, 70.94592
953.2537, 70.59986
953.7358, 70.66503
954.2179, 71.00459
954.7000, 70.98610
955.1821, 70.37648
955.6642, 69.91380
956.1464, 70.43636
956.6285, 71.13448
957.1106, 71.22740
957.5927, 70.50167
958.0748, 69.85381
958.5569, 69.18073
959.0391, 68.86156
959.5212, 69.39863
960.0033, 70.43586
960.4855, 70.96391
960.9676, 71.01681
961.4497, 70.79725
961.9318, 69.96256
962.4139, 69.34547
962.8961, 69.68882
963.3782, 69.40105
963.8603, 69.94591
964.3424, 70.25137
964.8245, 70.33031
965.3066, 69.50423
965.7888, 69.84679
966.2709, 69.72101
966.7530, 69.57602
967.2351, 70.08305
967.7172, 69.38860
968.1993, 69.88530
968.6815, 69.90651
969.1636, 70.14533
969.6457, 70.08168
970.1278, 70.25769
970.6099, 70.25471
971.0920, 70.05721
971.5742, 69.87667
972.0563, 69.84881
972.5384, 69.92825
973.0205, 70.14045
973.5026, 70.42591
973.9847, 70.56075
974.4669, 70.16862
974.9490, 70.02473
975.4311, 70.43056
975.9132, 71.06281
976.3953, 71.27412
976.8774, 71.08546
977.3596, 70.72520
977.8417, 70.17951
978.3238, 69.76791
978.8059, 69.90196
979.2880, 70.26234
979.7701, 70.49963
980.2523, 70.50676
980.7344, 70.57737
981.2165, 70.80289
981.6986, 70.94115
982.1807, 70.81120
982.6628, 70.47060
983.1450, 70.10836
983.6271, 69.74901
984.1092, 69.54881
984.5913, 69.67226
985.0734, 69.90234
985.5555, 70.23244
986.0377, 70.56055
986.5198, 70.62123
987.0019, 70.29464
987.4840, 70.12122
987.9661, 70.22715
988.4482, 70.38749
988.9304, 70.28548
989.4125, 70.02042
989.8946, 69.73818
990.3767, 69.43710
990.8588, 69.31868
991.3409, 69.64228
991.8231, 70.01719
992.3052, 70.23244
992.7873, 70.28856
993.2694, 70.24939
993.7515, 70.11180
994.2336, 69.96071
994.7158, 69.75821
995.1979, 69.64095
995.6800, 69.95195
996.1621, 70.45565
996.6442, 70.60163
997.1263, 69.77066
997.6085, 69.23103
998.0906, 69.17771
998.5727, 69.35776
999.0548, 69.45968
999.5369, 69.50326
1000.019, 69.64951
1000.501, 69.92762
1000.983, 70.10910
1001.465, 69.80560
1001.948, 69.51796
1002.430, 69.76369
1002.912, 70.57072
1003.394, 70.86610
1003.876, 70.49826
1004.358, 70.11747
1004.840, 69.97423
1005.322, 69.96432
1005.804, 69.88731
1006.287, 69.77444
1006.769, 69.69601
1007.251, 69.61787
1007.733, 69.67214
1008.215, 69.67677
1008.697, 69.70502
1009.179, 70.25679
1009.661, 70.56918
1010.144, 70.65503
1010.626, 69.83585
1011.108, 70.18533
1011.590, 70.06646
1012.072, 69.92839
1012.554, 70.44234
1013.036, 69.75481
1013.518, 70.25842
1014.000, 70.28654
1014.483, 70.53230
1014.965, 70.30681
1015.447, 70.22688
1015.929, 70.61832
1016.411, 70.74875
1016.893, 70.46902
1017.375, 70.72859
1017.857, 70.02459
1018.340, 70.16615
1018.822, 70.39352
1019.304, 70.22717
1019.786, 69.48936
1020.268, 69.18391
1020.750, 69.35788
1021.232, 69.65909
1021.714, 69.94776
1022.196, 70.17831
1022.679, 70.29226
1023.161, 70.28780
1023.643, 70.15715
1024.125, 69.52438
1024.607, 69.30534
1025.089, 69.86474
1025.571, 70.64078
1026.053, 70.83485
1026.536, 70.50429
1027.018, 70.01875
1027.500, 69.39912
1027.982, 69.03702
1028.464, 69.49453
1028.946, 70.12517
1029.428, 70.47074
1029.910, 70.49191
1030.392, 70.22787
1030.875, 69.52722
1031.357, 69.09951
1031.839, 69.27275
1032.321, 69.73447
1032.803, 69.95963
1033.285, 70.03909
1033.767, 70.16743
1034.249, 70.47717
1034.732, 70.69084
1035.214, 70.68208
1035.696, 70.61210
1036.178, 70.61998
1036.660, 70.70390
1037.142, 70.61570
1037.624, 70.36130
1038.106, 70.07228
1038.589, 69.53459
1039.071, 69.27282
1039.553, 70.22514
1040.035, 70.73579
1040.517, 71.00706
1040.999, 71.05179
1041.481, 70.19151
1041.963, 70.49987
1042.445, 70.33990
1042.927, 70.16071
1043.410, 70.63348
1043.892, 69.90483
1044.374, 69.91722
1044.856, 70.00652
1045.338, 69.90516
1045.820, 69.72749
1046.302, 69.43717
1046.784, 69.11702
1047.267, 69.36961
1047.749, 70.12341
1048.231, 70.47948
1048.713, 69.79285
1049.195, 69.09138
1049.677, 69.32360
1050.159, 69.97224
1050.641, 70.32445
1051.124, 70.22044
1051.606, 70.12989
1052.088, 70.07558
1052.570, 69.95487
1053.052, 69.56918
1053.534, 69.11362
1054.016, 68.96975
1054.498, 69.09984
1054.980, 69.28410
1055.463, 69.45204
1055.945, 69.66039
1056.427, 70.01109
1056.909, 70.31871
1057.391, 70.17200
1057.873, 69.64564
1058.355, 69.35942
1058.837, 69.41623
1059.319, 69.61274
1059.802, 69.97261
1060.284, 70.26147
1060.766, 70.24947
1061.248, 69.95237
1061.730, 69.73544
1062.212, 69.62856
1062.694, 69.43430
1063.176, 69.02547
1063.659, 68.59280
1064.141, 68.34313
1064.623, 68.28210
1065.105, 68.46537
1065.587, 69.21117
1066.069, 69.45515
1066.551, 68.73293
1067.033, 68.08322
1067.516, 68.50671
1067.998, 69.67577
1068.480, 69.56574
1068.962, 68.43515
1069.444, 67.73508
1069.926, 68.99036
1070.408, 70.06074
1070.890, 69.62427
1071.372, 68.50896
1071.854, 67.94925
1072.337, 68.00603
1072.819, 68.09992
1073.301, 68.18654
1073.783, 68.20331
1074.265, 67.94769
1074.747, 67.69725
1075.229, 67.76353
1075.711, 68.14646
1076.194, 68.52806
1076.676, 68.97820
1077.158, 69.17170
1077.640, 68.95277
1078.122, 68.55857
1078.604, 68.34631
1079.086, 68.28484
1079.568, 68.35870
1080.051, 68.64199
1080.533, 68.72414
1081.015, 68.29538
1081.497, 67.78849
1081.979, 67.34407
1082.461, 67.00099
1082.943, 67.06766
1083.425, 67.49525
1083.907, 67.91558
1084.390, 68.18849
1084.872, 68.35772
1085.354, 68.39376
1085.836, 68.36866
1086.318, 68.36499
1086.800, 68.35580
1087.282, 68.57049
1087.764, 69.06698
1088.247, 69.34557
1088.729, 68.73812
1089.211, 67.89328
1089.693, 67.47762
1090.175, 67.47753
1090.657, 67.77517
1091.139, 68.67020
1091.621, 69.24162
1092.104, 69.33108
1092.586, 69.13821
1093.068, 68.76914
1093.550, 68.36350
1094.032, 68.33724
1094.514, 68.73912
1094.996, 68.94292
1095.478, 68.45850
1095.960, 67.95895
1096.443, 67.65224
1096.925, 67.54024
1097.407, 67.71383
1097.889, 68.12203
1098.371, 68.40347
1098.853, 68.48314
1099.335, 68.34366
1099.817, 67.48999
1100.299, 66.77693
1100.782, 67.18678
1101.264, 68.77084
1101.746, 69.31895
1102.228, 68.77023
1102.710, 68.03294
1103.192, 67.39287
1103.674, 67.00420
1104.156, 67.27256
1104.639, 67.84765
1105.121, 68.14779
1105.603, 67.84058
1106.085, 67.75172
1106.567, 67.99093
1107.049, 68.13760
1107.531, 67.69051
1108.013, 66.98902
1108.495, 66.68887
1108.978, 66.74174
1109.460, 66.89159
1109.942, 67.08334
1110.424, 67.32931
1110.906, 67.70889
1111.388, 68.03922
1111.870, 68.02969
1112.352, 67.75691
1112.834, 67.56833
1113.317, 67.48801
1113.799, 67.34080
1114.281, 66.77072
1114.763, 66.38862
1115.245, 66.61162
1115.727, 67.18935
1116.209, 67.51225
1116.691, 67.58957
1117.174, 67.66308
1117.656, 67.82431
1118.138, 67.77142
1118.620, 66.90006
1119.102, 65.96307
1119.584, 65.62460
1120.066, 65.89871
1120.548, 66.53265
1121.031, 67.66210
1121.513, 68.12667
1121.995, 67.20634
1122.477, 66.02135
1122.959, 66.00701
1123.441, 66.57527
1123.923, 66.88392
1124.405, 66.62347
1124.887, 66.58309
1125.370, 66.88763
1125.852, 67.08682
1126.334, 66.79222
1126.816, 66.30321
1127.298, 66.24211
1127.780, 66.49625
1128.262, 66.79877
1128.744, 67.10674
1129.227, 67.39960
1129.709, 67.77312
1130.191, 67.98521
1130.673, 67.70235
1131.155, 67.08719
1131.637, 66.78592
1132.119, 66.76765
1132.601, 66.77036
1133.083, 66.58630
1133.566, 66.50095
1134.048, 66.69588
1134.530, 66.95982
1135.012, 66.96248
1135.494, 66.74080
1135.976, 66.76134
1136.458, 67.06158
1136.940, 67.23615
1137.422, 66.88013
1137.905, 66.44070
1138.387, 66.10490
1138.869, 65.90544
1139.351, 65.99580
1139.833, 66.39562
1140.315, 66.58876
1140.797, 66.44921
1141.279, 66.33633
1141.762, 66.68307
1142.244, 67.11199
1142.726, 67.30990
1143.208, 67.25948
1143.690, 67.06863
1144.172, 66.67989
1144.654, 66.53719
1145.136, 66.86644
1145.619, 67.23148
1146.101, 67.00316
1146.583, 66.54546
1147.065, 66.28101
1147.547, 66.29787
1148.029, 66.51968
1148.511, 67.07853
1148.993, 67.37659
1149.475, 67.05502
1149.958, 66.46799
1150.440, 66.09897
1150.922, 65.91923
1151.404, 65.88065
1151.886, 66.01926
1152.368, 66.21340
1152.850, 66.53371
1153.332, 66.73077
1153.814, 66.58430
1154.297, 66.23994
1154.779, 66.05529
1155.261, 65.98332
1155.743, 65.89944
1156.225, 65.67871
1156.707, 65.56688
1157.189, 65.64708
1157.671, 65.74746
1158.154, 65.62667
1158.636, 65.40279
1159.118, 65.67185
1159.600, 66.33456
1160.082, 66.87031
1160.564, 67.09444
1161.046, 67.04645
1161.528, 66.54374
1162.010, 65.99688
1162.493, 66.01836
1162.975, 66.46997
1163.457, 66.21647
1163.939, 65.28384
1164.421, 64.74470
1164.903, 65.78560
1165.385, 66.72636
1165.867, 66.73756
1166.349, 66.24187
1166.832, 65.81784
1167.314, 65.47295
1167.796, 65.40750
1168.278, 65.64535
1168.760, 65.88107
1169.242, 65.83627
1169.724, 65.78757
1170.206, 66.00909
1170.689, 66.33008
1171.171, 66.22851
1171.653, 65.71371
1172.135, 65.48943
1172.617, 65.70271
1173.099, 66.08418
1173.581, 66.75344
1174.063, 67.21141
1174.546, 66.89554
1175.028, 65.99783
1175.510, 65.32424
1175.992, 64.86553
1176.474, 64.79225
1176.956, 65.23447
1177.438, 65.69954
1177.920, 65.70168
1178.402, 65.52907
1178.885, 65.37661
1179.367, 65.26939
1179.849, 65.53735
1180.331, 66.23881
1180.813, 66.70627
1181.295, 66.68343
1181.777, 66.41249
1182.259, 65.74837
1182.742, 65.22031
1183.224, 65.69027
1183.706, 67.38604
1184.188, 67.76049
1184.670, 66.61781
1185.152, 65.57629
1185.634, 65.39756
1186.116, 65.58968
1186.599, 65.72777
1187.081, 65.82342
1187.563, 65.88656
1188.045, 65.91476
1188.527, 65.91108
1189.009, 65.86018
1189.491, 65.86156
1189.973, 65.94564
1190.455, 66.13889
1190.938, 66.63873
1191.420, 67.21048
1191.902, 67.47220
1192.384, 67.33984
1192.866, 66.90708
1193.348, 66.09116
1193.830, 65.37266
1194.312, 65.09928
1194.794, 65.06462
1195.277, 64.96082
1195.759, 64.90192
1196.241, 65.15765
1196.723, 66.10708
1197.205, 66.53766
1197.687, 66.36288
1198.169, 65.98980
1198.651, 65.37580
1199.134, 65.00991
1199.616, 65.40301
1200.098, 66.10260
1200.580, 66.49848
1201.062, 66.60697
1201.544, 65.56731
1202.026, 66.11662
1202.508, 66.40308
1202.990, 66.59178
1203.473, 66.64300
1203.955, 66.38316
1204.437, 65.93718
1204.919, 65.72848
1205.401, 65.97913
1205.883, 66.01974
1206.365, 65.73641
1206.847, 65.49913
1207.329, 65.79002
1207.812, 66.24638
1208.294, 66.42800
1208.776, 66.35721
1209.258, 66.19852
1209.740, 65.94353
1210.222, 65.68372
1210.704, 65.40665
1211.186, 65.20890
1211.669, 65.16229
1212.151, 65.26463
1212.633, 65.61906
1213.115, 66.15446
1213.597, 66.46874
1214.079, 66.56219
1214.561, 66.32333
1215.043, 65.66633
1215.526, 64.97987
1216.008, 64.61095
1216.490, 64.49009
1216.972, 64.53522
1217.454, 64.75040
1217.936, 65.20430
1218.418, 65.99837
1218.900, 66.68266
1219.382, 67.21959
1219.865, 67.48891
1220.347, 67.13258
1220.829, 66.59698
1221.311, 66.48105
1221.793, 66.74068
1222.275, 66.55473
1222.757, 65.70797
1223.239, 65.24714
1223.722, 65.43718
1224.204, 65.75820
1224.686, 65.50526
1225.168, 65.18832
1225.650, 65.48219
1226.132, 66.33601
1226.614, 66.64712
1227.096, 66.31217
1227.578, 65.93760
1228.061, 65.63622
1228.543, 65.40431
1229.025, 65.15708
1229.507, 65.04134
1229.989, 65.30489
1230.471, 65.89631
1230.953, 66.22175
1231.435, 66.25585
1231.917, 66.25070
1232.400, 66.25685
1232.882, 66.27166
1233.364, 66.18512
1233.846, 66.19157
1234.328, 66.67757
1234.810, 67.47788
1235.292, 67.41998
1235.774, 66.45302
1236.257, 65.87354
1236.739, 66.07252
1237.221, 66.31759
1237.703, 65.80691
1238.185, 65.23707
1238.667, 65.27840
1239.149, 65.76740
1239.631, 65.96913
1240.114, 65.89188
1240.596, 65.85181
1241.078, 65.94672
1241.560, 65.96521
1242.042, 65.41993
1242.524, 65.07999
1243.006, 65.69167
1243.488, 66.87141
1243.970, 67.05330
1244.453, 66.36709
1244.935, 65.82869
1245.417, 65.66364
1245.899, 65.74940
1246.381, 66.27290
1246.863, 66.74863
1247.345, 66.90459
1247.827, 66.82148
1248.309, 66.72345
1248.792, 66.61217
1249.274, 66.48020
1249.756, 66.31737
1250.238, 66.19764
1250.720, 66.15911
1251.202, 66.17870
1251.684, 66.27081
1252.166, 66.38962
1252.649, 66.37730
1253.131, 66.29512
1253.613, 66.39851
1254.095, 66.81470
1254.577, 66.87566
1255.059, 65.94951
1255.541, 65.27511
1256.023, 65.37022
1256.505, 65.86477
1256.988, 65.99990
1257.470, 65.94389
1257.952, 65.94224
1258.434, 65.41534
1258.916, 66.17073
1259.398, 66.62240
1259.880, 66.78670
1260.362, 65.80286
1260.844, 66.30159
1261.327, 66.20631
1261.809, 66.08652
1262.291, 66.79393
1262.773, 65.97707
1263.255, 66.67136
1263.737, 66.76244
1264.219, 66.49428
1264.701, 66.59025
1265.184, 66.67168
1265.666, 66.16240
1266.148, 65.59580
1266.630, 65.74134
1267.112, 66.68661
1267.594, 67.05497
1268.076, 66.76918
1268.558, 66.49837
1269.041, 66.41098
1269.523, 66.49426
1270.005, 66.98335
1270.487, 67.44754
1270.969, 67.34772
1271.451, 66.81777
1271.933, 66.64723
1272.415, 66.83234
1272.897, 67.01217
1273.380, 67.11191
1273.862, 67.11626
1274.344, 66.96724
1274.826, 66.75683
1275.308, 66.48251
1275.790, 66.21951
1276.272, 66.28705
1276.754, 66.60913
1277.237, 66.77596
1277.719, 66.69463
1278.201, 66.52528
1278.683, 66.08622
1279.165, 65.94379
1279.647, 66.50200
1280.129, 67.27332
1280.611, 67.12705
1281.094, 66.36205
1281.576, 65.72443
1282.058, 65.32525
1282.540, 65.22138
1283.022, 65.63154
1283.504, 66.00710
1283.986, 66.22656
1284.468, 66.31347
1284.950, 66.21830
1285.432, 66.05764
1285.915, 66.05909
1286.397, 66.23877
1286.879, 66.24569
1287.361, 65.92971
1287.843, 65.88500
1288.325, 66.30092
1288.807, 66.79613
1289.289, 66.89075
1289.772, 66.86220
1290.254, 67.02170
1290.736, 67.35290
1291.218, 67.64889
1291.700, 67.94942
1292.182, 67.68650
1292.664, 66.69199
1293.146, 65.88239
1293.629, 66.38894
1294.111, 67.01164
1294.593, 66.71355
1295.075, 65.98200
1295.557, 65.92938
1296.039, 66.46675
1296.521, 66.52822
1297.003, 65.99832
1297.485, 65.62035
1297.968, 66.11524
1298.450, 66.47026
1298.932, 66.21872
1299.414, 65.79245
1299.896, 65.92232
1300.378, 66.40945
1300.860, 66.60336
1301.342, 66.49197
1301.824, 66.47424
1302.307, 66.59536
##END=



