##NAMES=Zinnwaldite
##RRUFFID=R040138
##IDEAL CHEMISTRY=K(Al,Fe,Li)_3_(Si,Al)_4_O_10_(OH)F
##LOCALITY=TÃ¸rdal, Telemark, Norway
##OWNER=RRUFF
##SOURCE=University of Arizona Mineral Museum
##DESCRIPTION=Dark green mica book, polytype 1M
##STATUS=The identification of this mineral has been confirmed by X-ray diffraction and chemical analysis
##URL=rruff.info/R040138
##MEASURED CHEMISTRY=(K_0.96_Na_0.04_)(Al_0.35_Fe^2+^_0.29_Li_0.27_Mg_0.04_Mn_0.03_Ti_0.02_)_3_(Si_0.66_Al_0.34_)_4_O_10_((OH)_0.64_F_0.36_)_2_
162.9636, 1616.247
163.4457, 1612.549
163.9278, 1617.141
164.4099, 1627.910
164.8920, 1642.606
165.3741, 1663.452
165.8563, 1681.812
166.3384, 1689.159
166.8205, 1690.710
167.3026, 1695.353
167.7847, 1709.468
168.2668, 1728.093
168.7490, 1739.665
169.2311, 1741.146
169.7132, 1742.480
170.1953, 1751.052
170.6774, 1762.717
171.1595, 1770.737
171.6417, 1770.661
172.1238, 1765.540
172.6059, 1762.991
173.0880, 1763.872
173.5701, 1765.753
174.0522, 1768.800
174.5344, 1771.822
175.0165, 1772.965
175.4986, 1771.168
175.9807, 1767.031
176.4628, 1760.671
176.9449, 1746.450
177.4271, 1741.220
177.9092, 1758.826
178.3913, 1786.132
178.8734, 1804.844
179.3555, 1804.486
179.8376, 1791.417
180.3197, 1784.738
180.8019, 1788.448
181.2840, 1791.698
181.7661, 1789.603
182.2482, 1785.517
182.7303, 1783.530
183.2124, 1785.654
183.6946, 1791.070
184.1767, 1797.854
184.6588, 1807.612
185.1409, 1815.765
185.6230, 1821.578
186.1051, 1825.246
186.5873, 1826.771
187.0694, 1825.947
187.5515, 1823.546
188.0336, 1821.647
188.5157, 1820.954
188.9978, 1819.521
189.4800, 1816.891
189.9621, 1813.484
190.4442, 1809.888
190.9263, 1806.457
191.4084, 1802.523
191.8905, 1795.805
192.3727, 1782.113
192.8548, 1773.384
193.3369, 1774.456
193.8190, 1779.193
194.3011, 1781.894
194.7832, 1780.301
195.2654, 1775.852
195.7475, 1771.328
196.2296, 1765.510
196.7117, 1762.059
197.1938, 1764.600
197.6759, 1767.606
198.1581, 1765.110
198.6402, 1755.274
199.1223, 1742.946
199.6044, 1737.450
200.0865, 1742.565
200.5686, 1747.333
201.0508, 1751.648
201.5329, 1754.798
202.0150, 1756.034
202.4971, 1755.208
202.9792, 1752.931
203.4613, 1750.712
203.9435, 1750.972
204.4256, 1745.399
204.9077, 1725.721
205.3898, 1706.415
205.8719, 1700.643
206.3540, 1709.474
206.8362, 1720.311
207.3183, 1713.436
207.8004, 1676.436
208.2825, 1653.832
208.7646, 1654.454
209.2467, 1660.910
209.7289, 1664.498
210.2110, 1663.637
210.6931, 1660.992
211.1752, 1659.538
211.6573, 1659.578
212.1395, 1659.762
212.6216, 1664.534
213.1037, 1665.758
213.5858, 1654.422
214.0679, 1633.771
214.5500, 1617.174
215.0322, 1620.254
215.5143, 1647.818
215.9964, 1662.861
216.4785, 1653.902
216.9606, 1643.336
217.4427, 1640.130
217.9249, 1642.858
218.4070, 1644.391
218.8891, 1637.323
219.3712, 1621.104
219.8533, 1616.395
220.3354, 1638.021
220.8176, 1657.288
221.2997, 1667.585
221.7818, 1669.498
222.2639, 1664.981
222.7460, 1654.297
223.2281, 1638.413
223.7103, 1628.666
224.1924, 1628.609
224.6745, 1631.537
225.1566, 1640.486
225.6387, 1650.679
226.1208, 1654.300
226.6030, 1645.942
227.0851, 1629.685
227.5672, 1623.087
228.0493, 1635.791
228.5314, 1645.589
229.0135, 1646.200
229.4957, 1642.972
229.9778, 1642.764
230.4599, 1648.802
230.9420, 1657.602
231.4241, 1660.259
231.9062, 1652.487
232.3884, 1645.611
232.8705, 1638.542
233.3526, 1634.182
233.8347, 1636.091
234.3168, 1645.256
234.7989, 1657.806
235.2811, 1668.462
235.7632, 1681.031
236.2453, 1681.875
236.7274, 1655.691
237.2095, 1628.696
237.6916, 1621.232
238.1738, 1635.844
238.6559, 1656.587
239.1380, 1663.224
239.6201, 1651.518
240.1022, 1641.248
240.5843, 1631.919
241.0665, 1625.121
241.5486, 1622.094
242.0307, 1622.633
242.5128, 1625.479
242.9949, 1631.248
243.4770, 1640.791
243.9592, 1642.776
244.4413, 1627.075
244.9234, 1613.098
245.4055, 1607.134
245.8876, 1608.783
246.3697, 1616.046
246.8519, 1630.432
247.3340, 1650.184
247.8161, 1657.898
248.2982, 1642.587
248.7803, 1629.539
249.2624, 1627.199
249.7446, 1632.740
250.2267, 1641.959
250.7088, 1653.908
251.1909, 1666.709
251.6730, 1675.026
252.1551, 1678.194
252.6373, 1677.918
253.1194, 1671.394
253.6015, 1663.505
254.0836, 1660.296
254.5657, 1664.706
255.0478, 1671.625
255.5300, 1664.196
256.0121, 1675.608
256.4942, 1682.479
256.9763, 1685.052
257.4584, 1670.459
257.9406, 1678.033
258.4227, 1676.724
258.9048, 1675.050
259.3869, 1685.745
259.8690, 1673.648
260.3511, 1684.146
260.8333, 1685.625
261.3154, 1691.232
261.7975, 1687.900
262.2796, 1687.329
262.7617, 1695.700
263.2438, 1699.119
263.7260, 1694.759
264.2081, 1700.628
264.6902, 1688.219
265.1723, 1692.032
265.6544, 1691.895
266.1365, 1691.881
266.6187, 1692.099
267.1008, 1695.262
267.5829, 1698.218
268.0650, 1692.495
268.5471, 1675.031
269.0292, 1658.302
269.5114, 1651.039
269.9935, 1650.440
270.4756, 1652.850
270.9577, 1658.605
271.4398, 1665.950
271.9219, 1673.161
272.4041, 1680.252
272.8862, 1687.618
273.3683, 1698.440
273.8504, 1707.886
274.3325, 1706.684
274.8146, 1688.519
275.2968, 1670.370
275.7789, 1666.698
276.2610, 1673.577
276.7431, 1673.354
277.2252, 1656.153
277.7073, 1634.126
278.1895, 1629.173
278.6716, 1644.564
279.1537, 1657.501
279.6358, 1658.004
280.1179, 1651.123
280.6000, 1645.622
281.0822, 1643.617
281.5643, 1641.732
282.0464, 1634.094
282.5285, 1619.679
283.0106, 1613.181
283.4927, 1623.835
283.9749, 1638.316
284.4570, 1645.245
284.9391, 1643.640
285.4212, 1636.776
285.9033, 1624.941
286.3854, 1608.802
286.8676, 1604.719
287.3497, 1628.621
287.8318, 1648.038
288.3139, 1640.630
288.7960, 1615.264
289.2781, 1597.679
289.7603, 1603.348
290.2424, 1625.527
290.7245, 1635.712
291.2066, 1622.795
291.6887, 1612.527
292.1708, 1611.164
292.6530, 1613.661
293.1351, 1613.942
293.6172, 1609.853
294.0993, 1602.742
294.5814, 1594.677
295.0635, 1582.616
295.5457, 1575.773
296.0278, 1578.695
296.5099, 1583.180
296.9920, 1582.770
297.4741, 1577.245
297.9562, 1571.317
298.4384, 1570.137
298.9205, 1574.703
299.4026, 1577.076
299.8847, 1573.577
300.3668, 1571.610
300.8489, 1576.231
301.3310, 1584.380
301.8131, 1589.237
302.2953, 1585.901
302.7774, 1576.120
303.2595, 1568.771
303.7416, 1564.758
304.2237, 1562.113
304.7058, 1560.446
305.1880, 1559.744
305.6701, 1560.092
306.1522, 1561.530
306.6343, 1563.789
307.1164, 1567.765
307.5985, 1575.607
308.0807, 1577.030
308.5628, 1561.215
309.0449, 1544.618
309.5270, 1537.764
310.0091, 1541.262
310.4912, 1547.653
310.9734, 1551.212
311.4555, 1552.121
311.9376, 1552.332
312.4197, 1552.278
312.9018, 1550.964
313.3839, 1545.285
313.8661, 1537.728
314.3482, 1535.112
314.8303, 1544.055
315.3124, 1558.255
315.7945, 1566.608
316.2766, 1568.472
316.7588, 1568.096
317.2409, 1565.943
317.7230, 1563.541
318.2051, 1563.839
318.6872, 1569.214
319.1693, 1573.756
319.6515, 1572.320
320.1336, 1566.017
320.6157, 1560.015
321.0978, 1556.597
321.5799, 1553.403
322.0620, 1544.531
322.5442, 1527.869
323.0263, 1518.500
323.5084, 1527.402
323.9905, 1543.098
324.4726, 1549.214
324.9547, 1543.077
325.4369, 1535.869
325.9190, 1538.472
326.4011, 1552.084
326.8832, 1564.379
327.3653, 1577.102
327.8474, 1587.062
328.3296, 1592.612
328.8117, 1593.912
329.2938, 1591.046
329.7759, 1583.516
330.2580, 1572.809
330.7401, 1565.919
331.2223, 1565.494
331.7044, 1565.611
332.1865, 1565.146
332.6686, 1565.162
333.1507, 1567.418
333.6328, 1572.259
334.1150, 1577.642
334.5971, 1580.281
335.0792, 1578.421
335.5613, 1578.573
336.0434, 1582.924
336.5255, 1587.112
337.0077, 1589.735
337.4898, 1590.285
337.9719, 1587.861
338.4540, 1580.529
338.9361, 1569.398
339.4182, 1565.124
339.9004, 1574.371
340.3825, 1580.690
340.8646, 1575.619
341.3467, 1566.502
341.8288, 1563.208
342.3109, 1570.040
342.7931, 1580.919
343.2752, 1586.857
343.7573, 1587.239
344.2394, 1586.983
344.7215, 1586.009
345.2036, 1585.843
345.6858, 1589.174
346.1679, 1595.886
346.6500, 1599.670
347.1321, 1591.315
347.6142, 1577.054
348.0963, 1576.494
348.5785, 1595.583
349.0606, 1615.843
349.5427, 1621.462
350.0248, 1616.425
350.5069, 1611.856
350.9890, 1611.683
351.4712, 1611.069
351.9533, 1602.511
352.4354, 1588.465
352.9175, 1583.403
353.3996, 1597.368
353.8817, 1620.789
354.3639, 1626.913
354.8460, 1607.388
355.3281, 1592.235
355.8102, 1590.223
356.2923, 1595.100
356.7744, 1599.895
357.2566, 1603.074
357.7387, 1606.851
358.2208, 1614.437
358.7029, 1627.744
359.1850, 1633.663
359.6671, 1629.263
360.1493, 1621.623
360.6314, 1610.262
361.1135, 1598.279
361.5956, 1591.747
362.0777, 1594.626
362.5598, 1604.180
363.0420, 1610.299
363.5241, 1610.099
364.0062, 1611.002
364.4883, 1614.448
364.9704, 1618.875
365.4525, 1623.903
365.9347, 1629.067
366.4168, 1632.346
366.8989, 1630.125
367.3810, 1621.858
367.8631, 1617.088
368.3452, 1618.450
368.8274, 1620.767
369.3095, 1620.012
369.7916, 1618.047
370.2737, 1619.723
370.7558, 1629.991
371.2379, 1642.993
371.7201, 1648.377
372.2022, 1645.539
372.6843, 1640.776
373.1664, 1635.592
373.6485, 1630.613
374.1306, 1625.704
374.6128, 1619.438
375.0949, 1618.397
375.5770, 1633.584
376.0591, 1655.157
376.5412, 1660.399
377.0233, 1643.052
377.5055, 1622.092
377.9876, 1617.177
378.4697, 1630.396
378.9518, 1641.303
379.4339, 1652.266
379.9160, 1658.516
380.3982, 1654.725
380.8803, 1643.553
381.3624, 1630.790
381.8445, 1618.696
382.3266, 1610.180
382.8087, 1614.411
383.2909, 1652.849
383.7730, 1675.708
384.2551, 1670.504
384.7372, 1656.974
385.2193, 1651.352
385.7014, 1655.970
386.1836, 1662.508
386.6657, 1661.764
387.1478, 1653.195
387.6299, 1647.970
388.1120, 1649.319
388.5941, 1650.388
389.0763, 1648.558
389.5584, 1645.087
390.0405, 1641.649
390.5226, 1638.459
391.0047, 1636.990
391.4868, 1640.410
391.9690, 1649.285
392.4511, 1657.576
392.9332, 1664.000
393.4153, 1668.849
393.8974, 1671.734
394.3795, 1672.736
394.8617, 1674.964
395.3438, 1684.361
395.8259, 1694.459
396.3080, 1691.895
396.7901, 1674.807
397.2722, 1658.004
397.7544, 1651.741
398.2365, 1654.672
398.7186, 1657.164
399.2007, 1656.265
399.6828, 1658.173
400.1649, 1666.441
400.6471, 1678.819
401.1292, 1693.730
401.6113, 1710.773
402.0934, 1724.016
402.5755, 1723.680
403.0576, 1702.357
403.5398, 1690.017
404.0219, 1692.832
404.5040, 1697.464
404.9861, 1699.639
405.4682, 1697.871
405.9503, 1688.654
406.4325, 1667.828
406.9146, 1642.328
407.3967, 1639.943
407.8788, 1678.168
408.3609, 1703.413
408.8430, 1697.985
409.3252, 1681.648
409.8073, 1667.368
410.2894, 1657.782
410.7715, 1652.368
411.2536, 1650.616
411.7357, 1652.629
412.2179, 1660.627
412.7000, 1678.136
413.1821, 1693.428
413.6642, 1696.757
414.1463, 1692.135
414.6284, 1686.570
415.1106, 1681.584
415.5927, 1675.688
416.0748, 1666.167
416.5569, 1654.635
417.0390, 1645.531
417.5211, 1639.904
418.0033, 1639.230
418.4854, 1647.381
418.9675, 1669.361
419.4496, 1682.550
419.9317, 1679.618
420.4138, 1672.956
420.8960, 1672.509
421.3781, 1676.173
421.8602, 1674.822
422.3423, 1662.135
422.8244, 1640.675
423.3065, 1620.998
423.7887, 1597.300
424.2708, 1585.256
424.7529, 1591.679
425.2350, 1605.652
425.7171, 1620.653
426.1992, 1634.635
426.6814, 1645.572
427.1635, 1650.630
427.6456, 1650.314
428.1277, 1650.393
428.6098, 1651.755
429.0919, 1651.767
429.5741, 1648.728
430.0562, 1643.616
430.5383, 1637.584
431.0204, 1630.521
431.5025, 1623.408
431.9846, 1616.848
432.4668, 1610.877
432.9489, 1605.760
433.4310, 1601.708
433.9131, 1597.967
434.3952, 1592.817
434.8773, 1585.811
435.3595, 1583.645
435.8416, 1589.377
436.3237, 1597.648
436.8058, 1607.250
437.2879, 1616.709
437.7701, 1623.659
438.2522, 1626.991
438.7343, 1626.273
439.2164, 1619.808
439.6985, 1601.181
440.1806, 1588.371
440.6628, 1581.361
441.1449, 1579.643
441.6270, 1587.547
442.1091, 1601.500
442.5912, 1609.475
443.0733, 1598.785
443.5555, 1576.448
444.0376, 1572.728
444.5197, 1596.840
445.0018, 1613.673
445.4839, 1599.164
445.9660, 1576.246
446.4482, 1569.918
446.9303, 1585.765
447.4124, 1598.031
447.8945, 1584.354
448.3766, 1557.209
448.8587, 1544.078
449.3409, 1549.282
449.8230, 1557.866
450.3051, 1558.284
450.7872, 1551.431
451.2693, 1547.579
451.7514, 1548.978
452.2336, 1550.511
452.7157, 1552.465
453.1978, 1552.846
453.6799, 1545.888
454.1620, 1530.876
454.6441, 1518.324
455.1263, 1523.589
455.6084, 1551.426
456.0905, 1570.038
456.5726, 1572.194
457.0547, 1571.891
457.5368, 1573.795
458.0190, 1575.829
458.5011, 1572.924
458.9832, 1561.830
459.4653, 1550.490
459.9474, 1553.446
460.4295, 1571.018
460.9117, 1579.101
461.3938, 1566.172
461.8759, 1551.995
462.3580, 1558.252
462.8401, 1580.458
463.3222, 1594.705
463.8044, 1587.147
464.2865, 1574.762
464.7686, 1573.733
465.2507, 1581.447
465.7328, 1586.193
466.2149, 1582.579
466.6971, 1574.433
467.1792, 1568.994
467.6613, 1566.185
468.1434, 1566.788
468.6255, 1571.631
469.1076, 1579.074
469.5898, 1590.735
470.0719, 1604.254
470.5540, 1613.929
471.0361, 1616.020
471.5182, 1612.396
472.0003, 1607.877
472.4825, 1601.308
472.9646, 1597.099
473.4467, 1597.160
473.9288, 1599.307
474.4109, 1602.310
474.8930, 1606.127
475.3752, 1611.371
475.8573, 1619.767
476.3394, 1629.259
476.8215, 1636.734
477.3036, 1642.098
477.7857, 1644.847
478.2679, 1643.577
478.7500, 1640.463
479.2321, 1641.450
479.7142, 1649.508
480.1963, 1653.712
480.6784, 1645.965
481.1606, 1637.517
481.6427, 1641.673
482.1248, 1656.880
482.6069, 1669.331
483.0890, 1668.263
483.5711, 1656.337
484.0533, 1647.814
484.5354, 1639.895
485.0175, 1640.657
485.4996, 1656.489
485.9817, 1676.555
486.4638, 1694.532
486.9460, 1708.686
487.4281, 1716.578
487.9102, 1710.850
488.3923, 1697.652
488.8744, 1698.216
489.3565, 1715.534
489.8387, 1729.930
490.3208, 1729.522
490.8029, 1720.834
491.2850, 1717.852
491.7671, 1721.927
492.2492, 1727.594
492.7314, 1735.158
493.2135, 1742.135
493.6956, 1743.949
494.1777, 1741.181
494.6598, 1740.504
495.1419, 1747.282
495.6241, 1760.324
496.1062, 1772.250
496.5883, 1785.447
497.0704, 1793.730
497.5525, 1791.793
498.0346, 1788.223
498.5168, 1791.444
498.9989, 1801.468
499.4810, 1810.386
499.9631, 1809.348
500.4452, 1802.080
500.9273, 1804.555
501.4095, 1819.934
501.8916, 1831.294
502.3737, 1826.220
502.8558, 1815.931
503.3379, 1819.895
503.8200, 1843.052
504.3022, 1860.810
504.7843, 1858.345
505.2664, 1848.840
505.7485, 1846.991
506.2306, 1853.733
506.7127, 1863.795
507.1949, 1874.169
507.6770, 1884.399
508.1591, 1892.488
508.6412, 1899.755
509.1233, 1902.605
509.6054, 1894.649
510.0876, 1887.195
510.5697, 1888.498
511.0518, 1898.633
511.5339, 1913.351
512.0161, 1932.830
512.4982, 1952.626
512.9803, 1958.043
513.4624, 1946.119
513.9445, 1937.591
514.4266, 1940.468
514.9088, 1949.683
515.3909, 1959.074
515.8730, 1968.798
516.3551, 1976.996
516.8372, 1982.746
517.3193, 1987.020
517.8015, 1989.729
518.2836, 1991.602
518.7657, 1994.860
519.2478, 2000.564
519.7299, 2008.832
520.2120, 2020.758
520.6942, 2044.137
521.1763, 2055.948
521.6584, 2048.695
522.1405, 2038.356
522.6226, 2030.321
523.1047, 2026.366
523.5869, 2029.922
524.0690, 2045.791
524.5511, 2063.345
525.0332, 2061.433
525.5153, 2040.226
525.9974, 2028.470
526.4796, 2037.764
526.9617, 2050.675
527.4438, 2041.847
527.9259, 2015.105
528.4080, 2009.286
528.8901, 2052.845
529.3723, 2096.022
529.8544, 2107.469
530.3365, 2097.683
530.8186, 2086.433
531.3007, 2080.712
531.7828, 2079.497
532.2650, 2083.029
532.7471, 2093.917
533.2292, 2092.965
533.7113, 2061.978
534.1934, 2040.094
534.6755, 2048.585
535.1577, 2069.440
535.6398, 2076.396
536.1219, 2060.803
536.6040, 2041.993
537.0861, 2040.262
537.5682, 2049.880
538.0504, 2050.730
538.5325, 2039.241
539.0146, 2028.851
539.4967, 2030.516
539.9788, 2041.077
540.4609, 2044.656
540.9431, 2038.402
541.4252, 2030.008
541.9073, 2017.984
542.3894, 2006.475
542.8715, 2001.236
543.3536, 2001.407
543.8358, 1999.436
544.3179, 1988.249
544.8000, 1971.093
545.2821, 1963.235
545.7642, 1968.887
546.2463, 1972.340
546.7285, 1969.803
547.2106, 1963.331
547.6926, 1951.020
548.1747, 1934.136
548.6569, 1924.347
549.1390, 1935.776
549.6211, 1950.553
550.1032, 1946.261
550.5853, 1926.874
551.0674, 1911.583
551.5496, 1908.321
552.0317, 1910.602
552.5138, 1908.279
552.9959, 1901.008
553.4780, 1889.924
553.9601, 1862.044
554.4423, 1844.650
554.9244, 1862.000
555.4065, 1892.937
555.8886, 1902.231
556.3707, 1876.545
556.8528, 1839.484
557.3350, 1818.709
557.8171, 1812.383
558.2992, 1806.277
558.7813, 1800.013
559.2634, 1790.880
559.7455, 1774.561
560.2277, 1754.281
560.7098, 1740.236
561.1919, 1733.595
561.6740, 1731.175
562.1561, 1738.787
562.6382, 1746.000
563.1204, 1739.529
563.6025, 1720.043
564.0846, 1698.261
564.5667, 1680.750
565.0488, 1668.925
565.5309, 1670.397
566.0131, 1694.657
566.4952, 1708.240
566.9773, 1702.704
567.4594, 1686.381
567.9415, 1656.977
568.4236, 1619.144
568.9058, 1591.534
569.3879, 1588.159
569.8700, 1592.763
570.3521, 1589.133
570.8342, 1579.516
571.3163, 1571.087
571.7985, 1565.927
572.2806, 1563.725
572.7627, 1564.737
573.2448, 1569.640
573.7269, 1571.312
574.2090, 1571.859
574.6912, 1566.863
575.1733, 1547.430
575.6554, 1525.952
576.1375, 1517.875
576.6196, 1525.772
577.1017, 1536.527
577.5839, 1540.305
578.0660, 1537.406
578.5481, 1525.119
579.0302, 1501.381
579.5123, 1487.539
579.9944, 1498.509
580.4766, 1520.540
580.9587, 1526.559
581.4408, 1514.203
581.9229, 1500.086
582.4050, 1482.923
582.8871, 1467.919
583.3693, 1457.596
583.8514, 1452.356
584.3335, 1454.243
584.8156, 1464.324
585.2977, 1475.019
585.7798, 1471.418
586.2620, 1451.435
586.7441, 1443.078
587.2262, 1455.578
587.7083, 1466.666
588.1904, 1463.419
588.6725, 1450.512
589.1547, 1433.499
589.6368, 1409.409
590.1189, 1390.962
590.6010, 1386.111
591.0831, 1389.329
591.5652, 1395.091
592.0474, 1402.155
592.5295, 1410.342
593.0116, 1420.325
593.4937, 1428.920
593.9758, 1425.309
594.4579, 1403.214
594.9401, 1383.893
595.4222, 1364.024
595.9043, 1352.250
596.3864, 1359.499
596.8685, 1378.364
597.3506, 1390.100
597.8328, 1385.664
598.3149, 1376.091
598.7970, 1368.613
599.2791, 1363.996
599.7612, 1366.354
600.2433, 1376.519
600.7255, 1384.160
601.2076, 1379.067
601.6897, 1363.736
602.1718, 1358.694
602.6539, 1378.644
603.1360, 1388.777
603.6182, 1376.319
604.1003, 1361.304
604.5824, 1359.889
605.0645, 1370.641
605.5466, 1381.183
606.0287, 1384.391
606.5109, 1383.631
606.9930, 1383.119
607.4751, 1382.978
607.9572, 1384.687
608.4393, 1389.203
608.9214, 1393.483
609.4036, 1394.994
609.8857, 1393.697
610.3678, 1388.183
610.8499, 1373.944
611.3320, 1361.649
611.8141, 1352.108
612.2963, 1346.699
612.7784, 1347.866
613.2605, 1355.065
613.7426, 1364.836
614.2247, 1376.722
614.7068, 1387.549
615.1890, 1387.042
615.6711, 1374.520
616.1532, 1366.545
616.6353, 1369.586
617.1174, 1375.763
617.5995, 1375.220
618.0817, 1367.790
618.5638, 1366.083
619.0459, 1376.849
619.5280, 1386.163
620.0101, 1388.044
620.4922, 1385.748
620.9744, 1382.011
621.4565, 1378.257
621.9386, 1377.368
622.4207, 1382.736
622.9028, 1392.705
623.3849, 1401.727
623.8671, 1410.533
624.3492, 1413.717
624.8313, 1407.331
625.3134, 1397.249
625.7955, 1388.924
626.2776, 1382.264
626.7598, 1380.830
627.2419, 1387.621
627.7240, 1397.051
628.2061, 1412.398
628.6882, 1426.117
629.1703, 1423.987
629.6525, 1404.760
630.1346, 1384.406
630.6167, 1378.894
631.0988, 1385.674
631.5809, 1390.257
632.0630, 1391.793
632.5452, 1394.835
633.0273, 1403.650
633.5094, 1411.728
633.9915, 1410.300
634.4736, 1399.978
634.9557, 1392.555
635.4379, 1390.320
635.9200, 1391.637
636.4021, 1398.943
636.8842, 1407.972
637.3663, 1411.416
637.8484, 1408.025
638.3306, 1403.110
638.8127, 1400.975
639.2948, 1402.093
639.7769, 1411.451
640.2590, 1433.397
640.7411, 1447.990
641.2233, 1446.095
641.7054, 1437.648
642.1875, 1432.891
642.6696, 1431.443
643.1517, 1428.581
643.6339, 1419.728
644.1160, 1413.069
644.5981, 1414.181
645.0802, 1419.961
645.5623, 1427.069
646.0444, 1434.019
646.5266, 1437.878
647.0087, 1434.659
647.4908, 1426.785
647.9729, 1427.494
648.4550, 1440.485
648.9371, 1446.365
649.4193, 1432.664
649.9014, 1418.397
650.3835, 1425.500
650.8656, 1450.396
651.3477, 1467.875
651.8298, 1471.437
652.3120, 1469.392
652.7941, 1462.970
653.2762, 1454.588
653.7583, 1445.025
654.2404, 1435.918
654.7225, 1434.241
655.2047, 1448.407
655.6868, 1470.534
656.1689, 1470.021
656.6510, 1440.947
657.1331, 1427.061
657.6152, 1445.245
658.0974, 1469.890
658.5795, 1479.559
659.0616, 1476.341
659.5437, 1468.068
660.0258, 1447.442
660.5079, 1431.805
660.9901, 1427.232
661.4722, 1430.439
661.9543, 1441.140
662.4364, 1456.733
662.9185, 1470.387
663.4006, 1477.833
663.8828, 1479.755
664.3649, 1474.663
664.8470, 1462.069
665.3291, 1459.920
665.8112, 1474.986
666.2933, 1491.247
666.7755, 1495.682
667.2576, 1491.426
667.7397, 1492.801
668.2218, 1504.318
668.7039, 1514.058
669.1860, 1517.438
669.6682, 1520.076
670.1503, 1528.232
670.6324, 1539.594
671.1145, 1546.374
671.5966, 1544.323
672.0787, 1539.376
672.5609, 1541.113
673.0430, 1548.131
673.5251, 1548.505
674.0072, 1539.284
674.4893, 1535.468
674.9714, 1550.620
675.4536, 1573.582
675.9357, 1573.827
676.4178, 1534.552
676.8999, 1509.328
677.3820, 1507.007
677.8641, 1511.357
678.3463, 1516.174
678.8284, 1521.093
679.3105, 1527.127
679.7926, 1534.581
680.2747, 1541.576
680.7568, 1546.542
681.2390, 1549.632
681.7211, 1550.895
682.2032, 1550.396
682.6853, 1548.535
683.1674, 1544.702
683.6495, 1542.393
684.1317, 1548.515
684.6138, 1566.847
685.0959, 1573.402
685.5780, 1554.781
686.0601, 1540.442
686.5422, 1538.049
687.0244, 1543.011
687.5065, 1556.860
687.9886, 1576.958
688.4707, 1581.321
688.9528, 1539.577
689.4349, 1489.448
689.9171, 1477.276
690.3992, 1492.562
690.8813, 1506.190
691.3634, 1509.916
691.8455, 1503.500
692.3276, 1483.854
692.8098, 1454.256
693.2919, 1445.747
693.7740, 1469.272
694.2561, 1489.830
694.7382, 1505.717
695.2203, 1512.213
695.7025, 1501.617
696.1846, 1478.314
696.6667, 1458.359
697.1488, 1443.657
697.6309, 1436.187
698.1130, 1441.124
698.5952, 1451.631
699.0773, 1460.298
699.5594, 1465.912
700.0415, 1469.260
700.5236, 1470.787
701.0057, 1470.633
701.4879, 1467.484
701.9700, 1460.873
702.4521, 1462.325
702.9342, 1477.046
703.4163, 1489.037
703.8984, 1487.695
704.3806, 1477.584
704.8627, 1469.677
705.3448, 1464.700
705.8269, 1459.641
706.3090, 1453.491
706.7911, 1447.711
707.2733, 1442.981
707.7554, 1439.278
708.2375, 1436.111
708.7196, 1433.413
709.2017, 1432.720
709.6838, 1438.293
710.1660, 1446.297
710.6481, 1444.454
711.1302, 1433.450
711.6123, 1427.497
712.0944, 1431.661
712.5765, 1443.027
713.0587, 1459.929
713.5408, 1483.149
714.0229, 1495.119
714.5050, 1488.699
714.9871, 1480.375
715.4692, 1471.481
715.9514, 1462.660
716.4335, 1452.073
716.9156, 1441.491
717.3977, 1438.345
717.8798, 1450.808
718.3619, 1464.244
718.8441, 1465.162
719.3262, 1459.856
719.8083, 1459.947
720.2904, 1466.113
720.7725, 1470.598
721.2546, 1468.023
721.7368, 1461.095
722.2189, 1455.939
722.7010, 1452.559
723.1831, 1451.262
723.6652, 1453.408
724.1473, 1455.003
724.6295, 1453.164
725.1116, 1449.519
725.5937, 1447.211
726.0758, 1446.119
726.5579, 1446.909
727.0400, 1454.743
727.5222, 1459.382
728.0043, 1450.912
728.4864, 1436.534
728.9685, 1427.342
729.4506, 1426.511
729.9327, 1431.131
730.4149, 1444.133
730.8970, 1458.470
731.3791, 1454.296
731.8612, 1433.911
732.3433, 1419.961
732.8254, 1419.627
733.3076, 1422.898
733.7897, 1418.565
734.2718, 1407.871
734.7539, 1407.783
735.2360, 1429.994
735.7181, 1443.184
736.2003, 1436.534
736.6824, 1427.010
737.1645, 1425.567
737.6466, 1429.716
738.1287, 1431.039
738.6108, 1425.571
739.0930, 1421.211
739.5751, 1424.123
740.0572, 1429.364
740.5393, 1432.508
741.0214, 1432.616
741.5035, 1427.463
741.9857, 1415.972
742.4678, 1404.623
742.9499, 1403.121
743.4320, 1410.888
743.9141, 1421.440
744.3962, 1436.532
744.8784, 1444.126
745.3605, 1438.213
745.8426, 1424.589
746.3247, 1409.823
746.8068, 1393.334
747.2889, 1381.148
747.7711, 1368.471
748.2532, 1365.841
748.7353, 1385.847
749.2174, 1409.389
749.6995, 1417.172
750.1816, 1411.484
750.6638, 1410.216
751.1459, 1426.439
751.6280, 1441.109
752.1101, 1433.671
752.5922, 1413.254
753.0743, 1393.887
753.5565, 1378.712
754.0386, 1371.693
754.5207, 1375.306
755.0028, 1387.410
755.4849, 1407.998
755.9670, 1439.849
756.4492, 1451.351
756.9313, 1433.855
757.4134, 1416.688
757.8955, 1415.127
758.3776, 1418.839
758.8597, 1409.260
759.3419, 1384.258
759.8240, 1370.273
760.3061, 1380.169
760.7882, 1388.541
761.2703, 1380.454
761.7524, 1369.580
762.2346, 1374.157
762.7167, 1392.515
763.1988, 1404.953
763.6809, 1397.246
764.1630, 1384.284
764.6451, 1386.069
765.1273, 1395.502
765.6094, 1391.156
766.0915, 1372.113
766.5736, 1361.451
767.0557, 1374.997
767.5378, 1398.284
768.0200, 1396.455
768.5021, 1362.630
768.9842, 1346.413
769.4663, 1355.425
769.9484, 1367.548
770.4305, 1376.573
770.9127, 1381.264
771.3948, 1379.704
771.8769, 1371.786
772.3590, 1360.536
772.8411, 1341.027
773.3232, 1324.598
773.8054, 1316.029
774.2875, 1312.462
774.7696, 1311.763
775.2517, 1313.004
775.7338, 1314.783
776.2159, 1316.278
776.6981, 1318.117
777.1802, 1322.314
777.6623, 1327.081
778.1444, 1328.352
778.6265, 1325.728
779.1086, 1320.378
779.5908, 1312.852
780.0729, 1303.869
780.5550, 1294.359
781.0371, 1284.102
781.5192, 1276.249
782.0013, 1272.524
782.4835, 1265.980
782.9656, 1248.905
783.4477, 1232.591
783.9298, 1234.600
784.4119, 1255.458
784.8940, 1268.539
785.3762, 1268.641
785.8583, 1266.110
786.3404, 1260.977
786.8225, 1256.508
787.3046, 1258.245
787.7867, 1263.218
788.2689, 1261.169
788.7510, 1246.189
789.2331, 1228.407
789.7152, 1215.433
790.1973, 1205.564
790.6794, 1194.384
791.1616, 1183.205
791.6437, 1179.879
792.1258, 1187.775
792.6079, 1197.840
793.0900, 1196.149
793.5721, 1184.637
794.0543, 1185.340
794.5364, 1201.637
795.0185, 1208.258
795.5006, 1195.885
795.9827, 1175.585
796.4648, 1154.952
796.9470, 1135.011
797.4291, 1127.530
797.9112, 1151.402
798.3933, 1160.575
798.8754, 1137.527
799.3575, 1114.674
799.8397, 1113.604
800.3218, 1125.279
800.8039, 1130.808
801.2860, 1125.192
801.7681, 1118.467
802.2502, 1114.635
802.7324, 1112.795
803.2145, 1113.596
803.6966, 1115.310
804.1787, 1113.325
804.6608, 1107.447
805.1429, 1104.964
805.6251, 1113.856
806.1072, 1127.682
806.5893, 1134.259
807.0714, 1133.479
807.5535, 1120.947
808.0356, 1094.884
808.5178, 1074.663
808.9999, 1074.651
809.4820, 1085.789
809.9641, 1084.431
810.4462, 1065.308
810.9283, 1053.155
811.4105, 1051.671
811.8926, 1051.026
812.3747, 1045.176
812.8568, 1039.839
813.3389, 1043.359
813.8210, 1055.699
814.3032, 1063.623
814.7853, 1063.013
815.2674, 1060.470
815.7495, 1054.013
816.2316, 1049.888
816.7137, 1057.987
817.1959, 1073.470
817.6780, 1080.028
818.1601, 1068.972
818.6422, 1056.515
819.1243, 1058.013
819.6064, 1066.025
820.0886, 1068.879
820.5707, 1067.450
821.0528, 1068.764
821.5349, 1075.100
822.0170, 1079.858
822.4991, 1074.927
822.9813, 1062.825
823.4634, 1053.997
823.9455, 1048.449
824.4276, 1044.667
824.9097, 1042.141
825.3918, 1042.680
825.8740, 1049.594
826.3561, 1059.149
826.8382, 1057.836
827.3203, 1036.581
827.8024, 1025.484
828.2845, 1031.755
828.7667, 1039.465
829.2488, 1043.127
829.7309, 1044.986
830.2130, 1047.229
830.6951, 1050.040
831.1772, 1054.406
831.6594, 1067.531
832.1415, 1073.729
832.6236, 1059.966
833.1057, 1040.583
833.5878, 1029.004
834.0699, 1025.573
834.5521, 1025.372
835.0342, 1026.557
835.5163, 1028.430
835.9984, 1029.767
836.4805, 1031.688
836.9626, 1038.098
837.4448, 1046.984
837.9269, 1049.604
838.4090, 1043.385
838.8911, 1036.509
839.3732, 1037.738
839.8553, 1045.085
840.3375, 1053.427
840.8196, 1062.959
841.3017, 1060.412
841.7838, 1039.975
842.2659, 1025.498
842.7480, 1036.267
843.2302, 1059.966
843.7123, 1064.253
844.1944, 1040.110
844.6765, 1026.813
845.1586, 1029.367
845.6407, 1035.309
846.1229, 1044.991
846.6050, 1053.047
847.0871, 1051.011
847.5692, 1040.241
848.0513, 1037.957
848.5334, 1057.214
849.0156, 1070.702
849.4977, 1068.465
849.9798, 1060.022
850.4619, 1047.432
850.9440, 1035.815
851.4261, 1034.422
851.9083, 1046.363
852.3904, 1063.739
852.8725, 1092.592
853.3546, 1114.973
853.8367, 1103.848
854.3188, 1074.073
854.8010, 1056.572
855.2831, 1056.863
855.7652, 1061.853
856.2473, 1063.272
856.7294, 1060.167
857.2115, 1044.660
857.6937, 1022.406
858.1758, 1022.920
858.6579, 1048.088
859.1400, 1070.110
859.6221, 1076.120
860.1042, 1073.235
860.5864, 1071.678
861.0685, 1071.190
861.5506, 1062.198
862.0327, 1039.765
862.5148, 1029.083
862.9969, 1040.099
863.4791, 1055.384
863.9612, 1060.930
864.4433, 1060.009
864.9254, 1064.655
865.4075, 1080.381
865.8896, 1090.159
866.3718, 1093.481
866.8539, 1091.791
867.3360, 1080.765
867.8181, 1068.045
868.3002, 1063.844
868.7823, 1067.919
869.2645, 1067.806
869.7466, 1055.074
870.2287, 1044.453
870.7108, 1040.646
871.1929, 1042.142
871.6750, 1049.927
872.1572, 1061.378
872.6393, 1072.867
873.1214, 1083.471
873.6035, 1087.285
874.0856, 1074.013
874.5677, 1056.757
875.0499, 1046.815
875.5320, 1045.367
876.0141, 1060.323
876.4962, 1088.344
876.9783, 1104.150
877.4604, 1088.362
877.9426, 1060.965
878.4247, 1054.967
878.9068, 1064.918
879.3889, 1069.787
879.8710, 1068.740
880.3531, 1072.931
880.8353, 1087.343
881.3174, 1099.871
881.7995, 1094.040
882.2816, 1074.326
882.7637, 1070.471
883.2458, 1084.749
883.7280, 1098.913
884.2101, 1111.490
884.6922, 1118.280
885.1743, 1114.786
885.6564, 1105.668
886.1385, 1101.601
886.6207, 1105.034
887.1028, 1102.084
887.5849, 1085.396
888.0670, 1074.257
888.5491, 1076.086
889.0313, 1083.392
889.5134, 1092.054
889.9955, 1100.997
890.4776, 1105.217
890.9597, 1100.927
891.4418, 1098.135
891.9240, 1097.792
892.4061, 1099.699
892.8882, 1105.518
893.3703, 1112.571
893.8524, 1119.712
894.3345, 1125.888
894.8167, 1122.668
895.2988, 1093.804
895.7809, 1070.378
896.2630, 1074.489
896.7451, 1088.064
897.2272, 1093.340
897.7094, 1091.179
898.1915, 1088.165
898.6736, 1086.594
899.1557, 1089.880
899.6378, 1108.702
900.1199, 1127.563
900.6021, 1123.043
901.0842, 1104.916
901.5663, 1094.350
902.0484, 1094.344
902.5305, 1096.120
903.0126, 1094.551
903.4948, 1090.068
903.9769, 1080.343
904.4590, 1068.642
904.9411, 1065.026
905.4232, 1069.756
905.9053, 1084.524
906.3875, 1109.643
906.8696, 1127.323
907.3517, 1117.959
907.8338, 1092.116
908.3159, 1085.037
908.7980, 1096.859
909.2802, 1109.205
909.7623, 1121.467
910.2444, 1123.244
910.7265, 1107.221
911.2086, 1084.974
911.6907, 1072.292
912.1729, 1069.200
912.6550, 1075.716
913.1371, 1097.838
913.6192, 1109.982
914.1013, 1103.808
914.5834, 1094.090
915.0656, 1088.211
915.5477, 1087.022
916.0298, 1094.168
916.5119, 1115.552
916.9940, 1122.849
917.4761, 1102.319
917.9583, 1087.160
918.4404, 1090.719
918.9225, 1097.538
919.4046, 1095.303
919.8867, 1086.083
920.3688, 1078.136
920.8510, 1072.540
921.3331, 1067.137
921.8152, 1056.654
922.2973, 1052.040
922.7794, 1064.886
923.2615, 1082.078
923.7437, 1086.807
924.2258, 1079.555
924.7079, 1075.428
925.1900, 1082.872
925.6721, 1087.665
926.1542, 1078.542
926.6364, 1069.642
927.1185, 1075.154
927.6006, 1087.915
928.0827, 1093.907
928.5648, 1090.518
929.0469, 1087.412
929.5291, 1093.174
930.0112, 1097.475
930.4933, 1089.929
930.9754, 1078.277
931.4575, 1071.461
931.9396, 1069.548
932.4218, 1069.805
932.9039, 1071.165
933.3860, 1072.472
933.8681, 1074.076
934.3502, 1073.985
934.8323, 1067.786
935.3145, 1058.541
935.7966, 1052.328
936.2787, 1049.910
936.7608, 1049.711
937.2429, 1051.020
937.7250, 1052.376
938.2072, 1049.350
938.6893, 1046.113
939.1714, 1058.258
939.6535, 1079.437
940.1356, 1080.936
940.6177, 1058.232
941.0999, 1034.544
941.5820, 1025.829
942.0641, 1027.619
942.5462, 1033.965
943.0283, 1043.923
943.5104, 1054.603
943.9926, 1065.208
944.4747, 1065.775
944.9568, 1052.991
945.4389, 1038.903
945.9210, 1034.412
946.4031, 1036.520
946.8853, 1037.634
947.3674, 1037.744
947.8495, 1034.619
948.3316, 1027.686
948.8137, 1021.619
949.2958, 1017.241
949.7780, 1020.109
950.2601, 1038.982
950.7422, 1068.741
951.2243, 1082.312
951.7064, 1078.801
952.1885, 1061.653
952.6707, 1024.962
953.1528, 998.8286
953.6349, 999.1062
954.1170, 1013.473
954.5991, 1027.883
955.0812, 1041.673
955.5634, 1039.254
956.0455, 1009.623
956.5276, 999.9285
957.0097, 1028.497
957.4918, 1050.666
957.9739, 1038.048
958.4561, 1009.481
958.9382, 994.8491
959.4203, 994.7509
959.9024, 1000.230
960.3845, 1018.070
960.8666, 1027.615
961.3488, 1021.013
961.8309, 1012.045
962.3130, 1008.197
962.7951, 1008.083
963.2772, 1009.941
963.7593, 1015.251
964.2415, 1014.530
964.7236, 1000.791
965.2057, 991.1788
965.6878, 993.8007
966.1699, 996.2679
966.6520, 984.6288
967.1342, 968.3463
967.6163, 971.7076
968.0984, 1003.234
968.5805, 1022.177
969.0626, 1019.674
969.5447, 1013.723
970.0269, 1005.388
970.5090, 998.3303
970.9911, 995.2547
971.4732, 995.5894
971.9553, 997.5633
972.4374, 1000.712
972.9196, 1006.598
973.4017, 1023.371
973.8838, 1032.856
974.3659, 1021.331
974.8480, 1005.948
975.3301, 1003.181
975.8123, 1009.462
976.2944, 1010.636
976.7765, 1001.704
977.2586, 996.9402
977.7407, 1005.589
978.2228, 1011.668
978.7050, 1006.978
979.1871, 997.3060
979.6692, 984.0430
980.1513, 971.1374
980.6334, 971.2483
981.1155, 993.8369
981.5977, 1008.251
982.0798, 997.0684
982.5619, 985.2573
983.0440, 986.9615
983.5261, 993.7114
984.0082, 996.7881
984.4904, 995.6596
984.9725, 992.7185
985.4546, 988.7794
985.9367, 982.4769
986.4188, 964.7347
986.9009, 954.1311
987.3831, 970.0082
987.8652, 993.2330
988.3473, 1000.507
988.8294, 992.8137
989.3115, 985.8958
989.7936, 984.6205
990.2758, 984.0704
990.7579, 982.9922
991.2400, 981.1813
991.7221, 976.7640
992.2042, 972.6929
992.6863, 973.5340
993.1685, 978.3851
993.6506, 981.0922
994.1327, 977.9282
994.6148, 977.4068
995.0969, 987.6821
995.5790, 997.1910
996.0612, 1002.148
996.5433, 999.0195
997.0254, 975.4230
997.5075, 938.5920
997.9896, 921.6655
998.4717, 941.8988
998.9539, 964.9993
999.4360, 977.8738
999.9181, 985.2872
1000.400, 989.6131
1000.882, 990.9526
1001.364, 986.9379
1001.847, 979.4658
1002.329, 976.9344
1002.811, 985.2623
1003.293, 989.2247
1003.775, 977.6362
1004.257, 963.6144
1004.739, 954.6983
1005.221, 949.7096
1005.703, 948.1985
1006.186, 948.7133
1006.668, 946.4179
1007.150, 937.6639
1007.632, 933.0056
1008.114, 940.1937
1008.596, 949.7974
1009.078, 958.3733
1009.560, 964.0201
1010.043, 963.9511
1010.525, 959.1622
1011.007, 953.6486
1011.489, 948.0447
1011.971, 943.9089
1012.453, 939.4813
1012.935, 939.4476
1013.417, 947.8231
1013.899, 961.2870
1014.382, 982.2137
1014.864, 1004.501
1015.346, 1009.492
1015.828, 987.8678
1016.310, 967.1008
1016.792, 961.4108
1017.274, 954.9229
1017.756, 931.2752
1018.239, 908.5512
1018.721, 910.1465
1019.203, 928.9647
1019.685, 938.3032
1020.167, 929.1873
1020.649, 925.0569
1021.131, 936.8627
1021.613, 951.2233
1022.095, 969.3394
1022.578, 980.9713
1023.060, 971.0799
1023.542, 948.2582
1024.024, 934.7295
1024.506, 935.3212
1024.988, 940.2806
1025.470, 955.0015
1025.952, 963.3149
1026.435, 952.0079
1026.917, 938.4849
1027.399, 938.6686
1027.881, 946.9142
1028.363, 948.7724
1028.845, 941.2562
1029.327, 937.3798
1029.809, 942.3859
1030.292, 947.2966
1030.774, 950.8778
1031.256, 952.4417
1031.738, 947.3390
1032.220, 941.6583
1032.702, 948.9084
1033.184, 971.6250
1033.666, 983.7792
1034.148, 973.7807
1034.630, 966.1554
1035.113, 971.6122
1035.595, 973.0449
1036.077, 953.1946
1036.559, 927.5812
1037.041, 921.2974
1037.523, 935.3027
1038.005, 944.4876
1038.487, 945.7949
1038.970, 946.8263
1039.452, 947.7483
1039.934, 948.7910
1040.416, 949.4688
1040.898, 950.8474
1041.380, 955.2524
1041.862, 962.0761
1042.344, 964.3254
1042.826, 958.7060
1043.309, 956.0812
1043.791, 960.5825
1044.273, 960.4273
1044.755, 946.1349
1045.237, 932.9546
1045.719, 938.6930
1046.201, 958.1430
1046.683, 967.0908
1047.166, 963.3015
1047.648, 955.8952
1048.130, 942.2679
1048.612, 933.2935
1049.094, 933.4587
1049.576, 936.1995
1050.058, 936.3317
1050.540, 934.5005
1051.022, 931.6992
1051.505, 927.2704
1051.987, 929.8930
1052.469, 941.5429
1052.951, 947.3549
1053.433, 943.2778
1053.915, 935.0834
1054.397, 925.2312
1054.879, 918.2079
1055.361, 924.3168
1055.844, 941.7884
1056.326, 948.5598
1056.808, 944.7222
1057.290, 942.4758
1057.772, 943.9087
1058.254, 946.5470
1058.736, 949.2668
1059.218, 950.2903
1059.701, 945.3742
1060.183, 938.4343
1060.665, 949.5968
1061.147, 972.3121
1061.629, 963.7747
1062.111, 924.1998
1062.593, 896.1276
1063.075, 895.8636
1063.557, 905.4329
1064.040, 908.4212
1064.522, 908.8042
1065.004, 916.1259
1065.486, 925.7135
1065.968, 920.4152
1066.450, 906.5363
1066.932, 913.6938
1067.414, 945.9062
1067.896, 971.1158
1068.379, 966.3463
1068.861, 949.8207
1069.343, 938.1918
1069.825, 930.5423
1070.307, 927.8824
1070.789, 927.2020
1071.271, 920.7291
1071.753, 909.8196
1072.236, 905.5396
1072.718, 913.6072
1073.200, 923.5984
1073.682, 928.4623
1074.164, 931.5574
1074.646, 935.9664
1075.128, 940.0969
1075.610, 941.3258
1076.093, 940.5499
1076.575, 941.0428
1077.057, 943.7595
1077.539, 944.7554
1078.021, 938.8336
1078.503, 935.4269
1078.985, 940.2838
1079.467, 947.8271
1079.949, 959.2078
1080.432, 967.5900
1080.914, 957.8520
1081.396, 930.0125
1081.878, 915.3644
1082.360, 933.4932
1082.842, 943.6071
1083.324, 928.4355
1083.806, 917.3892
1084.288, 930.9769
1084.771, 949.8621
1085.253, 950.7094
1085.735, 937.8115
1086.217, 932.8738
1086.699, 940.6028
1087.181, 943.7207
1087.663, 940.3148
1088.145, 935.8300
1088.628, 929.8901
1089.110, 926.8032
1089.592, 931.2357
1090.074, 938.9069
1090.556, 940.7218
1091.038, 936.5992
1091.520, 927.8071
1092.002, 912.7005
1092.484, 904.6044
1092.967, 906.5699
1093.449, 909.4006
1093.931, 908.3091
1094.413, 906.8639
1094.895, 910.3794
1095.377, 916.3600
1095.859, 913.3671
1096.341, 903.3401
1096.823, 905.1912
1097.306, 918.0804
1097.788, 917.1467
1098.270, 895.3024
1098.752, 871.6506
1099.234, 860.3082
1099.716, 860.0641
1100.198, 876.2125
1100.680, 898.2684
1101.163, 903.7755
1101.645, 897.0654
1102.127, 889.0421
1102.609, 882.9439
1103.091, 881.3610
1103.573, 885.8100
1104.055, 889.8989
1104.537, 887.2790
1105.020, 883.0506
1105.502, 882.9656
1105.984, 883.1826
1106.466, 875.6013
1106.948, 865.3867
1107.430, 866.9802
1107.912, 882.4169
1108.394, 892.0917
1108.876, 883.0377
1109.359, 874.3746
1109.841, 872.4713
1110.323, 873.9307
1110.805, 878.9862
1111.287, 884.6711
1111.769, 888.5385
1112.251, 890.0270
1112.733, 887.4314
1113.215, 879.6100
1113.698, 869.9156
1114.180, 849.5975
1114.662, 842.0204
1115.144, 861.7426
1115.626, 882.3378
1116.108, 885.9312
1116.590, 878.9775
1117.072, 872.8495
1117.555, 867.5380
1118.037, 863.2729
1118.519, 859.5620
1119.001, 861.1500
1119.483, 870.2098
1119.965, 872.6283
1120.447, 861.3409
1120.929, 849.6027
1121.411, 852.4040
1121.894, 861.6616
1122.376, 852.5376
1122.858, 830.4889
1123.340, 824.9446
1123.822, 834.5938
1124.304, 847.8982
1124.786, 860.5894
1125.268, 863.8019
1125.750, 851.9280
1126.233, 838.5076
1126.715, 842.2241
1127.197, 850.5613
1127.679, 844.3163
1128.161, 831.8032
1128.643, 825.9429
1129.125, 826.2074
1129.607, 826.8062
1130.090, 826.2932
1130.572, 827.5742
1131.054, 835.2681
1131.536, 839.4525
1132.018, 831.3011
1132.500, 821.9687
1132.982, 819.6334
1133.464, 820.0752
1133.947, 817.1163
1134.429, 811.8056
1134.911, 810.5225
1135.393, 816.1149
1135.875, 818.5505
1136.357, 807.5915
1136.839, 808.4257
1137.321, 840.0679
1137.803, 862.2000
1138.286, 846.0161
1138.768, 814.2213
1139.250, 799.7187
1139.732, 800.9700
1140.214, 803.3826
1140.696, 807.0042
1141.178, 813.0348
1141.660, 822.4612
1142.142, 822.0153
1142.625, 806.6940
1143.107, 793.6589
1143.589, 796.4073
1144.071, 808.4437
1144.553, 823.0363
1145.035, 836.2041
1145.517, 832.0897
1145.999, 816.5145
1146.482, 806.8952
1146.964, 805.0104
1147.446, 805.7153
1147.928, 807.0566
1148.410, 810.9324
1148.892, 824.1440
1149.374, 831.1964
1149.856, 807.5223
1150.339, 781.1750
1150.821, 786.7663
1151.303, 804.7458
1151.785, 800.1401
1152.267, 776.0423
1152.749, 765.0569
1153.231, 778.0805
1153.713, 792.3302
1154.195, 806.5337
1154.677, 815.9242
1155.160, 820.0211
1155.642, 817.5698
1156.124, 803.3024
1156.606, 785.9114
1157.088, 778.1198
1157.570, 779.2766
1158.052, 783.0585
1158.534, 792.5427
1159.017, 786.7514
1159.499, 759.2288
1159.981, 752.1887
1160.463, 780.9180
1160.945, 810.2825
1161.427, 814.8654
1161.909, 805.4156
1162.391, 798.0710
1162.874, 792.4888
1163.356, 787.5577
1163.838, 783.3130
1164.320, 779.9626
1164.802, 777.5385
1165.284, 775.0406
1165.766, 772.7031
1166.248, 776.0606
1166.730, 792.8163
1167.213, 806.0463
1167.695, 797.0227
1168.177, 783.2297
1168.659, 778.1680
1169.141, 779.2672
1169.623, 783.9426
1170.105, 790.5600
1170.587, 796.7625
1171.069, 802.4653
1171.552, 804.9583
1172.034, 802.5247
1172.516, 798.7349
1172.998, 791.8827
1173.480, 787.0791
1173.962, 787.5127
1174.444, 789.4901
1174.926, 788.8706
1175.409, 786.9065
1175.891, 787.7689
1176.373, 791.4772
1176.855, 800.5685
1177.337, 815.4805
1177.819, 813.4547
1178.301, 790.8122
1178.783, 773.6790
1179.266, 774.7842
1179.748, 780.0265
1180.230, 772.3101
1180.712, 764.0355
1181.194, 782.6010
1181.676, 809.8815
1182.158, 814.8200
1182.640, 802.9689
1183.122, 784.1892
1183.604, 765.2396
1184.087, 762.1080
1184.569, 783.1558
1185.051, 800.5063
1185.533, 802.0345
1186.015, 796.3535
1186.497, 777.4702
1186.979, 762.8870
1187.461, 771.0714
1187.944, 786.7135
1188.426, 786.3759
1188.908, 773.0562
1189.390, 765.7556
1189.872, 765.0378
1190.354, 768.9186
1190.836, 778.7278
1191.318, 787.5087
1191.801, 793.8756
1192.283, 798.3086
1192.765, 801.2425
1193.247, 800.4825
1193.729, 791.4063
1194.211, 779.5078
1194.693, 781.9909
1195.175, 791.1235
1195.657, 783.3910
1196.140, 764.1651
1196.622, 751.0593
1197.104, 748.0457
1197.586, 754.2818
1198.068, 770.7004
1198.550, 782.4434
1199.032, 775.7967
1199.514, 767.5321
1199.996, 764.3602
1200.479, 766.2760
1200.961, 781.0011
1201.443, 795.9189
1201.925, 787.4647
1202.407, 759.7005
1202.889, 751.1071
1203.371, 770.8190
1203.853, 780.3773
1204.336, 776.3094
1204.818, 772.7668
1205.300, 771.7922
1205.782, 776.5828
1206.264, 790.2289
1206.746, 801.3340
1207.228, 795.0720
1207.710, 778.7820
1208.193, 770.3905
1208.675, 767.2844
1209.157, 759.4715
1209.639, 750.7673
1210.121, 756.5848
1210.603, 775.2117
1211.085, 788.5256
1211.567, 789.3466
1212.049, 786.2691
1212.531, 782.1993
1213.014, 778.9103
1213.496, 778.8538
1213.978, 778.2283
1214.460, 776.4413
1214.942, 771.0643
1215.424, 753.3748
1215.906, 730.1527
1216.388, 727.4871
1216.871, 750.6755
1217.353, 760.5862
1217.835, 752.5901
1218.317, 752.0035
1218.799, 763.6478
1219.281, 773.7927
1219.763, 776.9269
1220.245, 774.2427
1220.728, 765.7391
1221.210, 756.5835
1221.692, 757.9944
1222.174, 764.1332
1222.656, 762.1773
1223.138, 755.8095
1223.620, 753.9993
1224.102, 755.3819
1224.584, 749.7153
1225.067, 735.9642
1225.549, 734.4906
1226.031, 765.5470
1226.513, 787.2631
1226.995, 776.7031
1227.477, 765.4975
1227.959, 773.6387
1228.441, 779.4565
1228.923, 760.9952
1229.406, 735.0660
1229.888, 731.6429
1230.370, 748.3820
1230.852, 760.0620
1231.334, 766.5328
1231.816, 773.0695
1232.298, 779.6033
1232.780, 773.5666
1233.263, 753.5722
1233.745, 743.9351
1234.227, 758.8962
1234.709, 775.6169
1235.191, 765.7914
1235.673, 750.7756
1236.155, 757.6803
1236.637, 769.1683
1237.120, 762.3428
1237.602, 748.2798
1238.084, 746.7990
1238.566, 757.1712
1239.048, 766.1585
1239.530, 771.6151
1240.012, 775.8748
1240.494, 782.3261
1240.976, 780.8299
1241.458, 767.7439
1241.941, 751.6588
1242.423, 733.7979
1242.905, 722.2196
##END=



