##NAMES=Zircon
##RRUFFID=R100128
##IDEAL CHEMISTRY=Zr^4+^SiO_4_
##LOCALITY=Cambodia
##OWNER=RRUFF
##SOURCE=William W. Pinch
##DESCRIPTION=Blue cut gemstone
##STATUS=The identification of this mineral has been confirmed by single-crystal X-ray diffraction.
##URL=rruff.info/R100128
90.60547, 4130.904
91.08759, 4029.360
91.56970, 4008.781
92.05182, 4040.742
92.53394, 4148.172
93.01605, 4255.643
93.49817, 4342.745
93.98029, 4415.313
94.46240, 4471.165
94.94452, 4505.867
95.42664, 4527.880
95.90874, 4543.881
96.39086, 4555.696
96.87298, 4562.959
97.35509, 4560.596
97.83721, 4538.380
98.31933, 4520.692
98.80145, 4510.587
99.28356, 4504.182
99.76568, 4499.144
100.2478, 4494.469
100.7299, 4490.722
101.2120, 4489.978
101.6941, 4492.653
102.1763, 4497.778
102.6584, 4505.321
103.1405, 4514.800
103.6226, 4525.341
104.1047, 4536.235
104.5868, 4547.877
105.0690, 4562.354
105.5511, 4580.322
106.0332, 4599.156
106.5153, 4617.720
106.9974, 4635.905
107.4795, 4654.015
107.9617, 4671.162
108.4438, 4688.297
108.9259, 4708.712
109.4080, 4734.708
109.8901, 4763.485
110.3722, 4791.156
110.8544, 4816.885
111.3365, 4842.963
111.8186, 4870.896
112.3007, 4900.195
112.7828, 4930.167
113.2649, 4959.868
113.7471, 4989.547
114.2292, 5020.834
114.7113, 5053.045
115.1934, 5088.244
115.6755, 5129.136
116.1576, 5174.426
116.6397, 5220.006
117.1219, 5261.092
117.6040, 5294.803
118.0861, 5333.183
118.5682, 5378.218
119.0503, 5425.443
119.5324, 5472.175
120.0146, 5517.775
120.4967, 5563.789
120.9788, 5612.438
121.4609, 5665.848
121.9430, 5718.963
122.4251, 5770.356
122.9073, 5822.008
123.3894, 5875.564
123.8715, 5931.921
124.3536, 5990.585
124.8357, 6050.292
125.3178, 6111.310
125.8000, 6172.672
126.2821, 6233.032
126.7642, 6293.059
127.2463, 6354.184
127.7284, 6417.860
128.2105, 6482.939
128.6927, 6547.395
129.1748, 6610.722
129.6569, 6674.427
130.1390, 6739.283
130.6211, 6804.885
131.1032, 6874.093
131.5854, 6950.983
132.0675, 7031.624
132.5496, 7112.421
133.0317, 7192.065
133.5138, 7271.294
133.9959, 7352.920
134.4781, 7439.500
134.9602, 7525.093
135.4423, 7607.468
135.9244, 7688.258
136.4065, 7769.415
136.8886, 7852.709
137.3708, 7938.179
137.8529, 8019.081
138.3350, 8096.565
138.8171, 8168.360
139.2992, 8233.233
139.7813, 8291.949
140.2635, 8346.777
140.7456, 8399.870
141.2277, 8452.253
141.7098, 8491.777
142.1919, 8517.507
142.6740, 8534.370
143.1561, 8545.386
143.6383, 8550.548
144.1204, 8547.411
144.6025, 8533.166
145.0846, 8506.101
145.5667, 8471.265
146.0488, 8427.713
146.5310, 8377.045
147.0131, 8319.953
147.4952, 8255.902
147.9773, 8188.420
148.4594, 8119.487
148.9415, 8049.498
149.4237, 7979.219
149.9058, 7909.847
150.3879, 7840.478
150.8700, 7769.383
151.3521, 7693.938
151.8342, 7618.984
152.3164, 7546.850
152.7985, 7477.830
153.2806, 7411.700
153.7627, 7349.289
154.2448, 7290.494
154.7269, 7232.750
155.2091, 7175.024
155.6912, 7119.237
156.1733, 7065.855
156.6554, 7014.972
157.1375, 6967.766
157.6196, 6925.800
158.1018, 6890.033
158.5839, 6857.125
159.0660, 6828.550
159.5481, 6801.122
160.0302, 6771.604
160.5123, 6739.721
160.9945, 6709.179
161.4766, 6687.123
161.9587, 6681.515
162.4408, 6672.767
162.9229, 6657.212
163.4050, 6640.410
163.8871, 6627.288
164.3693, 6619.662
164.8514, 6616.467
165.3335, 6615.406
165.8156, 6617.962
166.2977, 6620.620
166.7798, 6622.932
167.2620, 6625.178
167.7441, 6627.209
168.2262, 6628.509
168.7083, 6630.648
169.1904, 6638.563
169.6725, 6654.722
170.1547, 6670.714
170.6368, 6682.515
171.1189, 6691.252
171.6010, 6700.653
172.0831, 6712.026
172.5652, 6725.528
173.0474, 6741.034
173.5295, 6759.210
174.0116, 6778.027
174.4937, 6794.587
174.9758, 6808.934
175.4579, 6827.062
175.9401, 6855.283
176.4222, 6887.072
176.9043, 6914.990
177.3864, 6937.025
177.8685, 6956.903
178.3506, 6978.915
178.8328, 7002.924
179.3149, 7029.968
179.7970, 7061.847
180.2791, 7096.160
180.7612, 7130.588
181.2433, 7164.297
181.7255, 7198.472
182.2076, 7236.374
182.6897, 7281.322
183.1718, 7323.766
183.6539, 7361.362
184.1360, 7396.086
184.6181, 7429.001
185.1003, 7460.461
185.5824, 7491.616
186.0645, 7526.169
186.5466, 7564.536
187.0287, 7606.692
187.5108, 7652.805
187.9930, 7702.233
188.4751, 7754.106
188.9572, 7807.651
189.4393, 7863.269
189.9214, 7922.899
190.4035, 7989.951
190.8857, 8057.102
191.3678, 8120.827
191.8499, 8183.653
192.3320, 8249.682
192.8141, 8321.044
193.2962, 8397.979
193.7784, 8484.456
194.2605, 8577.287
194.7426, 8679.869
195.2247, 8787.902
195.7068, 8905.754
196.1889, 9042.205
196.6711, 9196.257
197.1532, 9379.215
197.6353, 9626.643
198.1174, 9922.105
198.5995, 10288.35
199.0816, 10779.34
199.5638, 11377.54
200.0459, 11978.10
200.5280, 12610.84
201.0101, 13155.40
201.4922, 13343.97
201.9743, 13016.37
202.4565, 12483.08
202.9386, 11928.19
203.4207, 11346.24
203.9028, 10887.80
204.3849, 10682.91
204.8670, 10647.24
205.3492, 10671.05
205.8313, 10751.11
206.3134, 10863.67
206.7955, 10981.46
207.2776, 11103.82
207.7597, 11234.66
208.2419, 11372.66
208.7240, 11521.56
209.2061, 11686.27
209.6882, 11868.89
210.1703, 12066.99
210.6524, 12278.35
211.1346, 12504.39
211.6167, 12737.19
212.0988, 12998.44
212.5809, 13253.47
213.0630, 13473.86
213.5451, 13648.69
214.0273, 13776.28
214.5094, 13845.39
214.9915, 13822.39
215.4736, 13798.04
215.9557, 13772.84
216.4378, 13762.90
216.9200, 13781.43
217.4021, 13833.94
217.8842, 13921.87
218.3663, 14047.38
218.8484, 14202.96
219.3305, 14416.50
219.8127, 14669.87
220.2948, 14984.84
220.7769, 15390.04
221.2590, 15898.50
221.7411, 16491.62
222.2232, 17118.61
222.7054, 17967.39
223.1875, 18609.23
223.6696, 19101.33
224.1517, 19350.32
224.6338, 19210.82
225.1159, 18617.00
225.5980, 17684.71
226.0802, 16741.96
226.5623, 15646.87
227.0444, 14718.61
227.5265, 14018.31
228.0086, 13487.83
228.4907, 13078.87
228.9729, 12773.52
229.4550, 12550.67
229.9371, 12366.12
230.4192, 12231.99
230.9013, 12113.35
231.3834, 12007.15
231.8656, 11913.43
232.3477, 11833.42
232.8298, 11768.24
233.3119, 11714.42
233.7940, 11665.31
234.2761, 11620.06
234.7583, 11579.71
235.2404, 11546.08
235.7225, 11517.30
236.2046, 11489.33
236.6867, 11459.99
237.1688, 11432.73
237.6510, 11415.12
238.1331, 11408.50
238.6152, 11400.31
239.0973, 11383.98
239.5794, 11363.18
240.0615, 11345.30
240.5437, 11331.55
241.0258, 11322.87
241.5079, 11321.75
241.9900, 11327.95
242.4721, 11334.76
242.9542, 11337.98
243.4364, 11339.71
243.9185, 11345.56
244.4006, 11357.50
244.8827, 11372.38
245.3648, 11385.51
245.8469, 11397.45
246.3290, 11414.07
246.8112, 11441.43
247.2933, 11475.90
247.7754, 11506.45
248.2575, 11529.41
248.7396, 11552.04
249.2217, 11580.76
249.7039, 11613.97
250.1860, 11646.18
250.6681, 11671.96
251.1502, 11693.86
251.6323, 11722.04
252.1144, 11758.19
252.5966, 11798.80
253.0787, 11842.61
253.5608, 11888.54
254.0429, 11934.82
254.5250, 11980.07
255.0071, 12024.64
255.4893, 12070.41
255.9714, 12117.76
256.4535, 12165.62
256.9356, 12214.07
257.4177, 12262.49
257.8998, 12309.92
258.3820, 12354.58
258.8641, 12398.19
259.3462, 12446.73
259.8283, 12500.39
260.3104, 12559.40
260.7925, 12626.72
261.2747, 12697.99
261.7568, 12766.71
262.2389, 12829.38
262.7210, 12888.84
263.2031, 12955.73
263.6852, 13040.02
264.1674, 13114.10
264.6495, 13163.74
265.1316, 13204.64
265.6137, 13252.84
266.0958, 13315.29
266.5779, 13387.81
267.0601, 13460.89
267.5422, 13534.68
268.0243, 13608.49
268.5064, 13685.39
268.9885, 13760.74
269.4706, 13829.87
269.9528, 13891.21
270.4349, 13946.81
270.9170, 13999.84
271.3991, 14046.39
271.8812, 14097.70
272.3633, 14157.90
272.8455, 14220.04
273.3276, 14278.69
273.8097, 14332.64
274.2918, 14383.88
274.7739, 14435.45
275.2560, 14488.50
275.7382, 14539.28
276.2202, 14590.34
276.7024, 14637.89
277.1845, 14678.97
277.6666, 14713.67
278.1487, 14744.86
278.6308, 14776.69
279.1129, 14811.62
279.5951, 14837.52
280.0772, 14847.02
280.5593, 14855.51
281.0414, 14874.46
281.5235, 14901.60
282.0056, 14925.07
282.4878, 14933.46
282.9699, 14925.48
283.4520, 14910.95
283.9341, 14883.74
284.4162, 14857.03
284.8983, 14838.42
285.3805, 14825.31
285.8626, 14809.69
286.3447, 14785.07
286.8268, 14751.77
287.3089, 14720.02
287.7910, 14694.42
288.2732, 14665.56
288.7553, 14628.67
289.2374, 14586.75
289.7195, 14546.06
290.2016, 14510.39
290.6837, 14478.81
291.1659, 14445.25
291.6480, 14411.31
292.1301, 14373.59
292.6122, 14327.67
293.0943, 14278.46
293.5764, 14232.84
294.0586, 14193.76
294.5407, 14159.58
295.0228, 14125.74
295.5049, 14095.31
295.9870, 14061.28
296.4691, 14019.02
296.9513, 13975.00
297.4334, 13936.58
297.9155, 13906.24
298.3976, 13879.98
298.8797, 13851.15
299.3618, 13816.34
299.8440, 13785.62
300.3261, 13760.93
300.8082, 13739.21
301.2903, 13718.41
301.7724, 13697.99
302.2545, 13677.34
302.7367, 13655.31
303.2188, 13630.85
303.7009, 13609.60
304.1830, 13592.32
304.6651, 13577.05
305.1472, 13562.66
305.6294, 13549.05
306.1115, 13536.65
306.5936, 13525.92
307.0757, 13516.91
307.5578, 13508.49
308.0399, 13502.05
308.5221, 13494.77
309.0042, 13484.20
309.4863, 13471.66
309.9684, 13461.09
310.4505, 13455.43
310.9326, 13453.63
311.4148, 13448.20
311.8969, 13433.34
312.3790, 13422.17
312.8611, 13420.74
313.3432, 13424.61
313.8253, 13426.10
314.3075, 13421.55
314.7896, 13413.96
315.2717, 13411.00
315.7538, 13415.48
316.2359, 13420.75
316.7180, 13424.72
317.2001, 13429.99
317.6823, 13439.93
318.1644, 13455.49
318.6465, 13473.80
319.1286, 13490.21
319.6107, 13500.75
320.0928, 13519.79
320.5750, 13552.44
321.0571, 13589.68
321.5392, 13622.67
322.0213, 13651.31
322.5034, 13684.59
322.9855, 13731.62
323.4677, 13794.86
323.9498, 13858.14
324.4319, 13915.62
324.9140, 13978.41
325.3961, 14053.18
325.8782, 14138.35
326.3604, 14229.08
326.8425, 14322.24
327.3246, 14417.86
327.8067, 14517.99
328.2888, 14618.95
328.7709, 14728.09
329.2531, 14847.11
329.7352, 14975.49
330.2173, 15112.39
330.6994, 15257.50
331.1815, 15410.32
331.6636, 15570.88
332.1458, 15737.50
332.6279, 15915.08
333.1100, 16103.59
333.5921, 16302.20
334.0742, 16510.61
334.5563, 16727.45
335.0385, 16955.70
335.5206, 17197.78
336.0027, 17457.24
336.4848, 17725.85
336.9669, 18008.45
337.4490, 18297.50
337.9312, 18587.51
338.4133, 18879.84
338.8954, 19177.90
339.3775, 19484.92
339.8596, 19801.81
340.3417, 20124.62
340.8239, 20441.80
341.3060, 20774.63
341.7881, 21133.38
342.2702, 21514.16
342.7523, 21905.26
343.2344, 22297.60
343.7166, 22694.40
344.1987, 23107.95
344.6808, 23539.92
345.1629, 23988.00
345.6450, 24454.82
346.1271, 24937.09
346.6093, 25438.86
347.0914, 25958.02
347.5735, 26505.62
348.0556, 27089.76
348.5377, 27701.28
349.0198, 28379.98
349.5020, 29088.81
349.9841, 29880.08
350.4662, 30768.36
350.9483, 31762.16
351.4304, 32883.52
351.9125, 34153.20
352.3947, 35574.95
352.8768, 37108.88
353.3589, 38901.36
353.8410, 40655.73
354.3231, 42435.49
354.8052, 44089.62
355.2874, 45394.62
355.7695, 46218.71
356.2516, 46535.10
356.7337, 46183.08
357.2158, 44767.39
357.6979, 43156.00
358.1800, 41307.40
358.6621, 39443.40
359.1443, 37784.16
359.6264, 36405.87
360.1085, 35289.56
360.5906, 34405.45
361.0727, 33797.44
361.5548, 33318.71
362.0370, 32986.61
362.5191, 32744.60
363.0012, 32574.22
363.4833, 32465.63
363.9654, 32405.81
364.4475, 32381.23
364.9297, 32391.30
365.4118, 32446.10
365.8939, 32562.57
366.3760, 32709.94
366.8581, 32870.67
367.3402, 33051.12
367.8224, 33266.15
368.3045, 33525.18
368.7866, 33821.94
369.2687, 34141.16
369.7508, 34485.61
370.2329, 34846.72
370.7151, 35220.85
371.1972, 35609.63
371.6793, 36021.05
372.1614, 36454.42
372.6435, 36909.49
373.1256, 37387.66
373.6078, 37889.54
374.0899, 38394.36
374.5720, 38903.30
375.0541, 39409.70
375.5362, 39915.57
376.0183, 40420.07
376.5005, 40901.16
376.9826, 41350.42
377.4647, 41766.79
377.9468, 42151.05
378.4289, 42505.23
378.9110, 42820.43
379.3932, 43086.98
379.8753, 43312.67
380.3574, 43506.79
380.8395, 43677.41
381.3216, 43812.92
381.8037, 43894.96
382.2859, 43923.38
382.7680, 43919.69
383.2501, 43890.20
383.7322, 43832.41
384.2143, 43751.21
384.6964, 43649.88
385.1786, 43515.96
385.6607, 43339.12
386.1428, 43125.57
386.6249, 42890.75
387.1070, 42640.80
387.5891, 42366.37
388.0713, 42054.67
388.5534, 41709.34
389.0355, 41322.74
389.5176, 40885.63
389.9997, 40411.19
390.4818, 39910.83
390.9640, 39383.67
391.4461, 38831.85
391.9282, 38252.70
392.4103, 37648.58
392.8924, 37037.96
393.3745, 36417.56
393.8567, 35793.73
394.3388, 35164.95
394.8209, 34535.24
395.3030, 33919.48
395.7851, 33316.68
396.2672, 32730.70
396.7494, 32160.33
397.2315, 31605.15
397.7136, 31073.85
398.1957, 30562.93
398.6778, 30073.72
399.1599, 29602.50
399.6420, 29150.68
400.1241, 28727.50
400.6063, 28343.50
401.0884, 27998.10
401.5705, 27666.74
402.0526, 27341.84
402.5347, 27036.90
403.0168, 26759.38
403.4990, 26503.82
403.9811, 26262.44
404.4632, 26032.36
404.9453, 25816.81
405.4274, 25624.79
405.9095, 25466.57
406.3917, 25319.34
406.8738, 25180.94
407.3559, 25053.48
407.8380, 24936.30
408.3201, 24830.38
408.8022, 24738.62
409.2844, 24663.78
409.7665, 24606.63
410.2486, 24557.51
410.7307, 24517.24
411.2128, 24484.79
411.6949, 24456.82
412.1771, 24436.82
412.6592, 24431.21
413.1413, 24444.15
413.6234, 24469.63
414.1055, 24493.85
414.5876, 24513.31
415.0698, 24542.80
415.5519, 24588.46
416.0340, 24643.77
416.5161, 24705.05
416.9982, 24772.24
417.4803, 24846.35
417.9625, 24926.60
418.4446, 25013.84
418.9267, 25117.78
419.4088, 25244.85
419.8909, 25377.69
420.3730, 25504.59
420.8552, 25628.15
421.3373, 25751.98
421.8194, 25874.49
422.3015, 26000.49
422.7836, 26138.28
423.2657, 26287.43
423.7479, 26434.69
424.2300, 26574.15
424.7121, 26709.16
425.1942, 26846.77
425.6763, 26987.46
426.1584, 27126.66
426.6406, 27262.59
427.1227, 27396.08
427.6048, 27525.50
428.0869, 27650.97
428.5690, 27780.58
429.0511, 27926.31
429.5333, 28087.41
430.0154, 28224.53
430.4975, 28323.22
430.9796, 28411.56
431.4617, 28501.93
431.9438, 28593.86
432.4260, 28685.94
432.9081, 28777.25
433.3902, 28866.69
433.8723, 28951.56
434.3544, 29032.76
434.8365, 29106.37
435.3187, 29180.03
435.8008, 29240.71
436.2829, 29285.63
436.7650, 29309.47
437.2471, 29297.71
437.7292, 29238.79
438.2114, 29132.69
438.6935, 28967.38
439.1756, 28723.72
439.6577, 28440.00
440.1398, 28103.87
440.6219, 27739.67
441.1040, 27377.74
441.5862, 27032.33
442.0683, 26698.45
442.5504, 26370.23
443.0325, 26045.37
443.5146, 25730.90
443.9967, 25425.18
444.4789, 25132.92
444.9610, 24862.27
445.4431, 24611.03
445.9252, 24365.54
446.4073, 24118.47
446.8894, 23871.46
447.3716, 23630.83
447.8537, 23396.60
448.3358, 23168.92
448.8179, 22946.74
449.3000, 22730.17
449.7821, 22519.75
450.2643, 22315.85
450.7464, 22115.89
451.2285, 21918.08
451.7106, 21722.15
452.1927, 21532.68
452.6748, 21351.28
453.1570, 21176.94
453.6391, 21011.31
454.1212, 20852.80
454.6033, 20695.18
455.0854, 20535.33
455.5675, 20377.94
456.0497, 20227.47
456.5318, 20083.71
457.0139, 19941.43
457.4960, 19798.73
457.9781, 19654.96
458.4602, 19507.39
458.9424, 19356.32
459.4245, 19201.95
459.9066, 19047.71
460.3887, 18888.83
460.8708, 18720.93
461.3529, 18543.15
461.8351, 18356.20
462.3172, 18158.37
462.7993, 17950.43
463.2814, 17742.80
463.7635, 17534.92
464.2456, 17327.99
464.7278, 17118.21
465.2099, 16909.03
465.6920, 16706.03
466.1741, 16510.23
466.6562, 16319.71
467.1383, 16131.17
467.6205, 15942.20
468.1026, 15757.71
468.5847, 15578.87
469.0668, 15403.56
469.5489, 15230.50
470.0310, 15060.50
470.5132, 14897.78
470.9953, 14745.31
471.4774, 14601.19
471.9595, 14460.83
472.4416, 14324.79
472.9237, 14191.47
473.4059, 14062.73
473.8880, 13935.81
474.3701, 13807.39
474.8522, 13677.71
475.3343, 13550.63
475.8164, 13428.00
476.2986, 13310.74
476.7807, 13200.61
477.2628, 13099.09
477.7449, 13000.09
478.2270, 12898.61
478.7091, 12795.80
479.1913, 12697.51
479.6734, 12603.91
480.1555, 12515.11
480.6376, 12434.42
481.1197, 12358.28
481.6018, 12277.41
482.0839, 12188.40
482.5660, 12099.18
483.0482, 12020.67
483.5303, 11956.73
484.0124, 11891.34
484.4945, 11823.99
484.9766, 11755.95
485.4587, 11686.21
485.9409, 11616.05
486.4230, 11548.12
486.9051, 11483.59
487.3872, 11422.34
487.8693, 11365.27
488.3514, 11316.14
488.8336, 11263.20
489.3157, 11201.73
489.7978, 11139.98
490.2799, 11084.12
490.7620, 11033.91
491.2441, 10985.08
491.7263, 10933.89
492.2084, 10881.51
492.6905, 10833.84
493.1726, 10792.68
493.6547, 10752.31
494.1368, 10711.66
494.6190, 10670.38
495.1011, 10627.43
495.5832, 10582.33
496.0653, 10538.28
496.5474, 10499.28
497.0295, 10463.54
497.5117, 10425.49
497.9938, 10383.54
498.4759, 10342.06
498.9580, 10304.22
499.4401, 10269.57
499.9222, 10235.70
500.4044, 10203.64
500.8865, 10170.96
501.3686, 10133.65
501.8507, 10094.96
502.3328, 10062.30
502.8149, 10038.53
503.2971, 10017.20
503.7792, 9989.122
504.2613, 9951.572
504.7434, 9916.046
505.2255, 9882.337
505.7076, 9850.720
506.1898, 9822.736
506.6719, 9796.797
507.1540, 9770.438
507.6361, 9742.410
508.1182, 9712.573
508.6003, 9680.328
509.0825, 9644.044
509.5646, 9609.646
510.0467, 9577.605
510.5288, 9547.745
511.0109, 9521.239
511.4930, 9497.022
511.9752, 9471.713
512.4573, 9442.667
512.9394, 9411.407
513.4215, 9381.375
513.9036, 9352.611
514.3857, 9324.081
514.8679, 9296.057
515.3500, 9267.288
515.8321, 9236.077
516.3142, 9202.071
516.7963, 9168.554
517.2784, 9136.974
517.7606, 9106.550
518.2427, 9076.090
518.7248, 9045.502
519.2069, 9015.375
519.6890, 8986.229
520.1711, 8957.725
520.6533, 8929.188
521.1354, 8900.516
521.6175, 8871.736
522.0996, 8843.074
522.5817, 8814.270
523.0638, 8784.593
523.5460, 8754.417
524.0281, 8725.495
524.5102, 8699.801
524.9923, 8677.343
525.4744, 8655.312
525.9565, 8637.728
526.4387, 8615.223
526.9208, 8582.764
527.4029, 8546.288
527.8850, 8512.045
528.3671, 8481.599
528.8492, 8452.304
529.3314, 8421.623
529.8135, 8389.737
530.2956, 8357.421
530.7777, 8324.423
531.2598, 8291.882
531.7419, 8261.017
532.2241, 8231.068
532.7062, 8200.611
533.1883, 8170.322
533.6704, 8137.753
534.1525, 8100.362
534.6346, 8059.443
535.1168, 8016.654
535.5989, 7972.055
536.0810, 7929.140
536.5631, 7892.741
537.0452, 7863.120
537.5273, 7827.826
538.0095, 7781.836
538.4916, 7736.180
538.9737, 7695.876
539.4558, 7657.972
539.9379, 7618.062
540.4200, 7574.730
540.9022, 7528.761
541.3843, 7481.283
541.8664, 7432.034
542.3485, 7382.814
542.8306, 7333.573
543.3127, 7284.816
543.7948, 7236.699
544.2769, 7189.333
544.7590, 7143.494
545.2411, 7099.584
545.7233, 7055.646
546.2054, 7009.860
546.6875, 6962.115
547.1696, 6913.565
547.6517, 6864.419
548.1339, 6814.518
548.6160, 6761.709
549.0981, 6707.866
549.5802, 6658.220
550.0623, 6617.375
550.5444, 6577.394
551.0266, 6531.729
551.5087, 6483.043
551.9908, 6437.882
552.4729, 6398.352
552.9550, 6360.197
553.4371, 6318.042
553.9193, 6270.767
554.4014, 6225.437
554.8835, 6182.125
555.3656, 6140.450
555.8477, 6099.897
556.3298, 6060.751
556.8120, 6024.377
557.2941, 5990.977
557.7762, 5959.067
558.2583, 5925.875
558.7404, 5891.141
559.2225, 5858.703
559.7047, 5829.316
560.1868, 5801.866
560.6689, 5776.818
561.1510, 5752.813
561.6331, 5726.675
562.1152, 5696.186
562.5974, 5667.174
563.0795, 5645.597
563.5616, 5630.058
564.0437, 5616.100
564.5258, 5603.201
565.0079, 5589.739
565.4901, 5573.634
565.9722, 5555.153
566.4543, 5539.044
566.9364, 5525.927
567.4185, 5514.500
567.9006, 5505.568
568.3828, 5497.585
568.8649, 5487.736
569.3470, 5475.614
569.8291, 5463.834
570.3112, 5455.657
570.7933, 5451.245
571.2755, 5447.161
571.7576, 5444.002
572.2397, 5440.366
572.7218, 5434.223
573.2039, 5428.227
573.6860, 5425.669
574.1682, 5427.282
574.6503, 5430.333
575.1324, 5432.532
575.6145, 5434.000
576.0966, 5435.509
576.5787, 5437.297
577.0609, 5438.261
577.5430, 5437.557
578.0251, 5435.541
578.5072, 5433.283
578.9893, 5430.924
579.4714, 5428.055
579.9536, 5424.014
580.4357, 5419.660
580.9178, 5415.263
581.3999, 5411.275
581.8820, 5409.705
582.3641, 5412.336
582.8463, 5418.508
583.3284, 5424.305
583.8105, 5429.183
584.2926, 5434.575
584.7747, 5442.489
585.2568, 5449.569
585.7390, 5452.366
586.2211, 5451.498
586.7032, 5450.881
587.1853, 5453.265
587.6674, 5457.930
588.1495, 5462.932
588.6317, 5468.223
589.1138, 5474.336
589.5959, 5482.108
590.0780, 5490.189
590.5601, 5496.943
591.0422, 5502.393
591.5244, 5507.471
592.0065, 5511.870
592.4886, 5516.428
592.9707, 5521.267
593.4528, 5526.772
593.9349, 5534.654
594.4171, 5545.850
594.8992, 5558.039
595.3813, 5566.885
595.8634, 5569.945
596.3455, 5576.978
596.8276, 5592.086
597.3098, 5606.242
597.7919, 5615.313
598.2740, 5620.940
598.7561, 5626.240
599.2382, 5632.486
599.7203, 5638.836
600.2025, 5643.667
600.6846, 5647.098
601.1667, 5652.682
601.6488, 5661.630
602.1309, 5671.056
602.6130, 5678.241
603.0952, 5684.641
603.5773, 5693.396
604.0594, 5706.978
604.5415, 5719.171
605.0236, 5724.897
605.5057, 5728.041
605.9879, 5735.410
606.4700, 5747.683
606.9521, 5759.200
607.4342, 5764.650
607.9163, 5765.322
608.3984, 5771.342
608.8806, 5788.905
609.3627, 5803.266
609.8448, 5812.203
610.3269, 5818.259
610.8090, 5823.445
611.2911, 5827.771
611.7733, 5829.706
612.2554, 5826.774
612.7375, 5822.011
613.2196, 5823.342
613.7017, 5831.449
614.1838, 5838.678
614.6660, 5843.020
615.1481, 5845.276
615.6302, 5846.384
616.1123, 5846.420
616.5944, 5845.046
617.0765, 5840.984
617.5587, 5836.682
618.0408, 5833.654
618.5229, 5831.669
619.0050, 5830.364
619.4871, 5829.570
619.9692, 5828.390
620.4514, 5825.211
620.9335, 5819.308
621.4156, 5816.772
621.8977, 5822.086
622.3798, 5825.466
622.8619, 5823.141
623.3441, 5818.220
623.8262, 5814.345
624.3083, 5812.382
624.7904, 5810.494
625.2725, 5806.811
625.7546, 5802.072
626.2367, 5798.494
626.7188, 5796.303
627.2009, 5793.863
627.6830, 5789.750
628.1652, 5785.319
628.6473, 5784.466
629.1294, 5789.444
629.6115, 5790.305
630.0936, 5782.908
630.5757, 5773.220
631.0579, 5764.466
631.5400, 5757.136
632.0221, 5751.179
632.5042, 5746.594
632.9863, 5743.290
633.4684, 5742.238
633.9506, 5745.047
634.4327, 5741.646
634.9148, 5726.287
635.3969, 5711.245
635.8790, 5703.398
636.3611, 5699.694
636.8433, 5694.954
637.3254, 5687.878
637.8075, 5679.669
638.2896, 5671.043
638.7717, 5661.990
639.2538, 5652.173
639.7360, 5641.625
640.2181, 5631.044
640.7002, 5620.866
641.1823, 5611.120
641.6644, 5601.813
642.1465, 5596.087
642.6287, 5586.359
643.1108, 5568.843
643.5929, 5550.583
644.0750, 5534.777
644.5571, 5522.369
645.0392, 5514.612
645.5214, 5513.086
646.0035, 5513.795
646.4856, 5509.213
646.9677, 5499.377
647.4498, 5491.568
647.9319, 5486.717
648.4141, 5484.843
648.8962, 5487.458
649.3783, 5493.285
649.8604, 5497.433
650.3425, 5497.833
650.8246, 5498.729
651.3068, 5501.159
651.7889, 5505.271
652.2710, 5511.337
652.7531, 5519.312
653.2352, 5528.885
653.7173, 5539.904
654.1995, 5552.143
654.6816, 5564.701
655.1637, 5576.893
655.6458, 5590.964
656.1279, 5609.427
656.6100, 5628.125
657.0922, 5643.020
657.5743, 5655.933
658.0564, 5673.202
658.5385, 5699.482
659.0206, 5728.059
659.5027, 5752.492
659.9849, 5774.031
660.4670, 5795.887
660.9491, 5818.655
661.4312, 5844.168
661.9133, 5874.745
662.3954, 5910.003
662.8776, 5943.458
663.3597, 5973.914
663.8418, 6004.129
664.3239, 6032.339
664.8060, 6062.104
665.2881, 6096.172
665.7703, 6134.654
666.2524, 6176.667
666.7345, 6223.386
667.2166, 6271.145
667.6987, 6312.290
668.1808, 6347.088
668.6630, 6385.354
669.1451, 6429.312
669.6272, 6477.010
670.1093, 6527.069
670.5914, 6579.401
671.0735, 6630.221
671.5557, 6677.935
672.0378, 6725.876
672.5199, 6773.741
673.0020, 6822.627
673.4841, 6873.784
673.9662, 6927.385
674.4484, 6983.491
674.9305, 7042.734
675.4126, 7104.214
675.8947, 7165.400
676.3768, 7226.336
676.8589, 7286.521
677.3411, 7343.435
677.8232, 7402.962
678.3053, 7471.658
678.7874, 7546.990
679.2695, 7619.252
679.7516, 7685.253
680.2338, 7748.977
680.7159, 7809.767
681.1980, 7870.879
681.6801, 7938.490
682.1622, 8013.056
682.6443, 8091.299
683.1265, 8171.182
683.6086, 8251.619
684.0907, 8327.438
684.5728, 8393.851
685.0549, 8465.614
685.5370, 8547.651
686.0192, 8632.348
686.5013, 8718.380
686.9834, 8803.400
687.4655, 8881.853
687.9476, 8947.604
688.4297, 9012.958
688.9119, 9088.249
689.3940, 9171.246
689.8761, 9257.929
690.3582, 9347.901
690.8403, 9436.425
691.3224, 9520.552
691.8046, 9600.610
692.2867, 9679.571
692.7688, 9758.313
693.2509, 9834.750
693.7330, 9907.926
694.2151, 9979.506
694.6973, 10049.59
695.1794, 10119.36
695.6615, 10191.33
696.1436, 10267.49
696.6257, 10343.06
697.1078, 10411.56
697.5900, 10475.08
698.0721, 10543.67
698.5542, 10618.73
699.0363, 10691.16
699.5184, 10754.37
700.0005, 10810.37
700.4827, 10865.40
700.9648, 10920.97
701.4469, 10972.41
701.9290, 11015.40
702.4111, 11058.19
702.8932, 11108.63
703.3754, 11162.05
703.8575, 11208.82
704.3396, 11244.48
704.8217, 11275.01
705.3038, 11307.19
705.7859, 11340.05
706.2681, 11369.17
706.7502, 11394.07
707.2323, 11415.67
707.7144, 11434.40
708.1965, 11450.31
708.6786, 11463.42
709.1607, 11473.54
709.6428, 11481.54
710.1249, 11488.65
710.6071, 11492.53
711.0892, 11489.72
711.5713, 11483.43
712.0534, 11479.62
712.5355, 11480.13
713.0176, 11480.27
713.4998, 11475.03
713.9819, 11464.92
714.4640, 11453.09
714.9461, 11440.25
715.4282, 11421.60
715.9103, 11392.68
716.3925, 11359.92
716.8746, 11334.29
717.3567, 11317.32
717.8388, 11294.18
718.3209, 11259.50
718.8030, 11222.95
719.2852, 11190.96
719.7673, 11159.04
720.2494, 11119.65
720.7315, 11071.78
721.2136, 11021.81
721.6957, 10975.97
722.1779, 10932.31
722.6600, 10885.34
723.1421, 10835.07
723.6242, 10778.32
724.1063, 10713.66
724.5884, 10643.33
725.0706, 10569.02
725.5527, 10490.49
726.0348, 10412.76
726.5169, 10337.20
726.9990, 10260.72
727.4811, 10185.92
727.9633, 10107.33
728.4454, 10018.74
728.9275, 9920.840
729.4096, 9819.935
729.8917, 9720.041
730.3738, 9620.723
730.8560, 9519.838
731.3381, 9417.489
731.8202, 9317.723
732.3023, 9223.590
732.7844, 9126.152
733.2665, 9016.682
733.7487, 8898.657
734.2308, 8785.462
734.7129, 8680.403
735.1950, 8575.145
735.6771, 8468.937
736.1592, 8360.650
736.6414, 8246.418
737.1235, 8128.969
737.6056, 8014.376
738.0877, 7904.352
738.5698, 7798.324
739.0519, 7696.347
739.5341, 7597.959
740.0162, 7496.542
740.4983, 7391.314
740.9804, 7286.840
741.4625, 7185.464
741.9446, 7086.608
742.4268, 6989.489
742.9089, 6894.069
743.3910, 6799.710
743.8731, 6707.180
744.3552, 6614.780
744.8373, 6519.748
745.3195, 6425.215
745.8016, 6335.241
746.2837, 6251.146
746.7658, 6171.068
747.2479, 6095.680
747.7300, 6022.568
748.2122, 5944.435
748.6943, 5861.050
749.1764, 5780.243
749.6585, 5704.445
750.1406, 5631.471
750.6227, 5558.132
751.1049, 5484.838
751.5870, 5414.703
752.0691, 5350.295
752.5512, 5285.456
753.0333, 5217.464
753.5154, 5149.530
753.9976, 5083.102
754.4797, 5019.183
754.9618, 4959.225
755.4439, 4904.344
755.9260, 4851.340
756.4081, 4796.656
756.8903, 4740.267
757.3724, 4681.820
757.8545, 4620.807
758.3366, 4563.952
758.8187, 4516.224
759.3008, 4474.230
759.7830, 4429.329
760.2651, 4379.610
760.7472, 4331.197
761.2293, 4283.302
761.7114, 4237.738
762.1935, 4196.903
762.6757, 4158.176
763.1578, 4117.048
763.6399, 4072.811
764.1220, 4030.639
764.6041, 3995.748
765.0862, 3964.305
765.5684, 3930.376
766.0505, 3894.326
766.5326, 3859.836
767.0147, 3828.033
767.4968, 3796.405
767.9789, 3762.090
768.4611, 3725.058
768.9432, 3691.015
769.4253, 3661.010
769.9074, 3631.941
770.3895, 3603.389
770.8716, 3575.434
771.3538, 3549.049
771.8359, 3523.560
772.3180, 3496.675
772.8001, 3466.388
773.2822, 3437.226
773.7643, 3413.783
774.2465, 3392.789
774.7286, 3369.022
775.2107, 3342.594
775.6928, 3317.116
776.1749, 3294.496
776.6570, 3273.901
777.1392, 3254.440
777.6213, 3236.668
778.1034, 3215.426
778.5855, 3188.239
779.0676, 3162.314
779.5497, 3141.787
780.0319, 3123.751
780.5140, 3104.738
780.9961, 3084.433
781.4782, 3064.454
781.9603, 3046.017
782.4424, 3027.109
782.9246, 3005.013
783.4067, 2982.266
783.8888, 2963.027
784.3709, 2947.745
784.8530, 2933.560
785.3351, 2918.503
785.8173, 2902.485
786.2994, 2885.128
786.7815, 2866.490
787.2636, 2848.208
787.7457, 2830.640
788.2278, 2813.338
788.7100, 2796.094
789.1921, 2778.958
789.6742, 2762.444
790.1563, 2747.001
790.6384, 2731.264
791.1205, 2714.277
791.6026, 2697.908
792.0847, 2683.420
792.5668, 2670.164
793.0490, 2656.976
793.5311, 2643.546
794.0132, 2629.845
794.4953, 2615.956
794.9774, 2601.714
795.4595, 2586.477
795.9417, 2570.482
796.4238, 2555.624
796.9059, 2542.459
797.3880, 2530.564
797.8701, 2519.703
798.3522, 2509.682
798.8344, 2498.629
799.3165, 2485.732
799.7986, 2473.208
800.2807, 2461.731
800.7628, 2450.415
801.2449, 2438.985
801.7271, 2427.346
802.2092, 2415.206
802.6913, 2401.679
803.1734, 2389.767
803.6555, 2382.735
804.1376, 2377.026
804.6198, 2368.608
805.1019, 2358.067
805.5840, 2348.006
806.0661, 2339.618
806.5482, 2331.648
807.0303, 2322.377
807.5125, 2311.977
807.9946, 2302.227
808.4767, 2293.320
808.9588, 2283.711
809.4409, 2272.516
809.9230, 2261.082
810.4052, 2250.942
810.8873, 2242.109
811.3694, 2233.418
811.8515, 2224.613
812.3336, 2216.311
812.8157, 2208.817
813.2979, 2201.725
813.7800, 2194.574
814.2621, 2187.610
814.7442, 2181.741
815.2263, 2177.590
815.7084, 2173.407
816.1906, 2167.423
816.6727, 2160.263
817.1548, 2152.731
817.6369, 2145.111
818.1190, 2138.864
818.6011, 2134.716
819.0833, 2131.470
819.5654, 2127.741
820.0475, 2123.593
820.5296, 2116.202
821.0117, 2103.372
821.4938, 2091.626
821.9760, 2082.308
822.4581, 2075.081
822.9402, 2071.002
823.4223, 2069.095
823.9044, 2064.891
824.3865, 2056.325
824.8687, 2047.257
825.3508, 2037.098
825.8329, 2028.669
826.3150, 2027.382
826.7971, 2030.186
827.2792, 2027.246
827.7614, 2014.092
828.2435, 2000.520
828.7256, 2001.777
829.2077, 2012.684
829.6898, 2012.645
830.1719, 2001.155
830.6541, 1987.209
831.1362, 1973.453
831.6183, 1960.986
832.1004, 1951.200
832.5825, 1944.103
833.0646, 1937.023
833.5468, 1929.829
834.0289, 1922.936
834.5110, 1915.863
834.9931, 1909.637
835.4752, 1905.707
835.9573, 1903.022
836.4395, 1898.873
836.9216, 1892.301
837.4037, 1885.176
837.8858, 1878.039
838.3679, 1871.158
838.8500, 1864.612
839.3322, 1858.578
839.8143, 1853.590
840.2964, 1849.773
840.7785, 1846.288
841.2606, 1842.465
841.7427, 1838.172
842.2249, 1832.611
842.7070, 1825.726
843.1891, 1819.430
843.6712, 1814.217
844.1533, 1809.768
844.6354, 1806.183
845.1176, 1803.093
845.5997, 1798.689
846.0818, 1790.478
846.5639, 1784.982
847.0460, 1785.498
847.5281, 1785.064
848.0103, 1779.869
848.4924, 1771.868
848.9745, 1763.652
849.4566, 1755.740
849.9387, 1749.167
850.4208, 1745.328
850.9030, 1742.256
851.3851, 1737.927
851.8672, 1733.081
852.3493, 1729.593
852.8314, 1727.560
853.3135, 1724.691
853.7957, 1718.949
854.2778, 1712.338
854.7599, 1710.486
855.2420, 1713.227
855.7241, 1711.954
856.2062, 1705.087
856.6884, 1697.460
857.1705, 1691.246
857.6526, 1686.445
858.1347, 1683.262
858.6168, 1682.247
859.0989, 1680.353
859.5811, 1677.933
860.0632, 1674.190
860.5453, 1667.512
861.0274, 1660.493
861.5095, 1655.624
861.9916, 1652.625
862.4738, 1649.511
862.9559, 1645.876
863.4380, 1641.357
863.9201, 1634.461
864.4022, 1627.408
864.8843, 1623.672
865.3665, 1622.353
865.8486, 1620.113
866.3307, 1615.536
866.8128, 1609.531
867.2949, 1602.529
867.7770, 1595.097
868.2592, 1590.216
868.7413, 1587.949
869.2234, 1584.354
869.7055, 1578.027
870.1876, 1571.410
870.6697, 1567.039
871.1519, 1564.302
871.6340, 1559.710
872.1161, 1551.568
872.5981, 1544.799
873.0803, 1540.743
873.5624, 1536.905
874.0445, 1533.167
874.5266, 1528.600
875.0087, 1521.339
875.4908, 1511.010
875.9730, 1501.399
876.4551, 1493.427
876.9372, 1487.019
877.4193, 1483.324
877.9014, 1480.525
878.3835, 1476.221
878.8657, 1470.270
879.3478, 1463.889
879.8299, 1457.726
880.3120, 1451.775
880.7941, 1445.962
881.2762, 1440.341
881.7584, 1435.448
882.2405, 1431.203
882.7226, 1425.965
883.2047, 1418.929
883.6868, 1411.302
884.1689, 1404.703
884.6511, 1399.101
885.1332, 1394.117
885.6153, 1390.061
886.0974, 1385.777
886.5795, 1381.408
887.0616, 1376.216
887.5438, 1368.454
888.0259, 1359.431
888.5080, 1353.310
888.9901, 1352.060
889.4722, 1349.182
889.9543, 1342.094
890.4365, 1334.931
890.9186, 1330.059
891.4007, 1326.343
891.8828, 1322.284
892.3649, 1317.573
892.8470, 1312.555
893.3292, 1307.335
893.8113, 1302.002
894.2934, 1296.796
894.7755, 1291.500
895.2576, 1285.402
895.7397, 1278.783
896.2219, 1273.212
896.7040, 1269.578
897.1861, 1266.462
897.6682, 1261.567
898.1503, 1255.198
898.6324, 1249.720
899.1146, 1245.221
899.5967, 1240.508
900.0788, 1235.032
900.5609, 1229.881
901.0430, 1226.314
901.5251, 1223.957
902.0073, 1220.468
902.4894, 1215.319
902.9715, 1210.070
903.4536, 1204.826
903.9357, 1199.430
904.4178, 1193.173
904.9000, 1187.056
905.3821, 1182.925
905.8642, 1181.070
906.3463, 1178.191
906.8284, 1172.460
907.3105, 1166.806
907.7927, 1163.069
908.2748, 1159.770
908.7569, 1155.146
909.2390, 1149.452
909.7211, 1144.080
910.2032, 1139.700
910.6854, 1135.594
911.1675, 1130.801
911.6496, 1125.995
912.1317, 1122.859
912.6138, 1120.768
913.0959, 1117.177
913.5781, 1111.401
914.0602, 1105.189
914.5423, 1100.126
915.0244, 1095.875
915.5065, 1091.226
915.9886, 1086.167
916.4708, 1081.852
916.9529, 1078.562
917.4350, 1074.960
917.9171, 1069.947
918.3992, 1064.853
918.8813, 1062.278
919.3635, 1062.783
919.8456, 1061.337
920.3277, 1056.519
920.8098, 1052.106
921.2919, 1049.222
921.7740, 1046.715
922.2562, 1044.256
922.7383, 1041.531
923.2204, 1037.562
923.7025, 1031.747
924.1846, 1025.961
924.6667, 1021.317
925.1489, 1016.135
925.6310, 1008.499
926.1131, 1000.193
926.5952, 993.9062
927.0773, 989.8126
927.5594, 985.7255
928.0416, 980.3926
928.5237, 975.5704
929.0058, 969.5126
929.4879, 964.4441
929.9700, 958.4990
930.4521, 952.0751
930.9343, 947.0709
931.4164, 944.2512
931.8985, 942.0369
932.3806, 938.7451
932.8627, 934.5603
933.3448, 930.1062
933.8270, 925.3672
934.3091, 919.4088
934.7912, 911.9144
935.2733, 906.2842
935.7554, 905.3947
936.2375, 906.8498
936.7197, 904.6504
937.2018, 897.9919
937.6839, 892.1689
938.1660, 887.0203
938.6481, 883.1425
939.1302, 881.3262
939.6124, 880.0818
940.0945, 878.1306
940.5766, 875.4449
941.0587, 871.7320
941.5408, 865.8464
942.0229, 860.6895
942.5051, 855.9502
942.9872, 852.4398
943.4693, 851.8691
943.9514, 852.0721
944.4335, 849.7379
944.9156, 844.5847
945.3978, 840.2420
945.8799, 838.7997
946.3620, 837.4159
946.8441, 834.5071
947.3262, 831.0804
947.8083, 828.0920
948.2905, 825.5429
948.7726, 823.1264
949.2547, 820.7327
949.7368, 818.1683
950.2189, 815.0012
950.7010, 811.7550
951.1832, 809.3318
951.6653, 807.3405
952.1474, 804.4802
952.6295, 800.7592
953.1116, 797.9453
953.5938, 797.2783
954.0759, 797.2949
954.5580, 795.3893
955.0400, 791.9542
955.5222, 789.0920
956.0043, 786.8535
956.4864, 784.4509
956.9685, 781.5057
957.4506, 779.4180
957.9327, 779.6600
958.4149, 781.7647
958.8970, 783.9154
959.3791, 786.3069
959.8612, 787.6727
960.3433, 787.4406
960.8254, 787.5150
961.3076, 789.0246
961.7897, 790.9580
962.2718, 791.8770
962.7539, 791.7546
963.2360, 791.9971
963.7181, 792.3024
964.2003, 793.4503
964.6824, 795.3676
965.1645, 798.2535
965.6466, 802.0907
966.1287, 807.0330
966.6108, 812.9102
967.0930, 819.4952
967.5751, 829.3955
968.0572, 842.1160
968.5393, 859.5956
969.0214, 879.9605
969.5035, 907.5295
969.9857, 943.2929
970.4678, 989.9113
970.9499, 1052.139
971.4320, 1131.160
971.9141, 1227.396
972.3962, 1354.941
972.8784, 1486.430
973.3605, 1620.967
973.8426, 1730.875
974.3247, 1778.054
974.8068, 1757.264
975.2889, 1673.616
975.7711, 1522.220
976.2532, 1351.662
976.7353, 1203.097
977.2174, 1079.525
977.6995, 988.6384
978.1816, 926.4720
978.6638, 883.8793
979.1459, 856.7061
979.6280, 837.5491
980.1101, 820.7819
980.5922, 806.9947
981.0743, 798.5025
981.5565, 794.6058
982.0386, 790.8986
982.5207, 787.1071
983.0028, 784.8777
983.4849, 784.9847
983.9670, 785.5857
984.4492, 784.5963
984.9313, 782.4453
985.4134, 780.9988
985.8955, 780.1907
986.3776, 780.7204
986.8597, 782.8696
987.3419, 785.5482
987.8240, 788.2512
988.3061, 791.1680
988.7882, 794.5901
989.2703, 798.5009
989.7524, 802.5211
990.2346, 806.1501
990.7167, 811.0056
991.1988, 817.3483
991.6809, 824.8729
992.1630, 832.5560
992.6451, 841.7430
993.1273, 855.0820
993.6094, 872.9374
994.0915, 892.1087
994.5736, 914.3740
995.0557, 935.5816
995.5378, 954.9642
996.0200, 972.9494
996.5021, 988.0607
996.9842, 1002.516
997.4663, 1020.038
997.9484, 1040.862
998.4305, 1066.216
998.9127, 1095.347
999.3948, 1130.253
999.8769, 1168.335
1000.359, 1215.132
1000.841, 1271.713
1001.323, 1341.758
1001.805, 1429.327
1002.287, 1533.053
1002.770, 1673.122
1003.252, 1832.119
1003.734, 2059.903
1004.216, 2346.470
1004.698, 2755.611
1005.180, 3380.335
1005.662, 4210.765
1006.144, 5238.936
1006.627, 6518.349
1007.109, 7593.216
1007.591, 8213.753
1008.073, 8320.284
1008.555, 7641.210
1009.037, 6464.721
1009.519, 5230.163
1010.001, 4088.316
1010.483, 3154.558
1010.966, 2505.811
1011.448, 2051.467
1011.930, 1726.351
1012.412, 1501.063
1012.894, 1331.191
1013.376, 1206.994
1013.858, 1110.569
1014.340, 1035.397
1014.823, 975.7822
1015.305, 928.3336
1015.787, 890.2172
1016.269, 857.8141
1016.751, 830.6349
1017.233, 807.9455
1017.715, 789.4508
1018.197, 772.9089
1018.679, 757.6722
1019.162, 743.7250
1019.644, 731.0939
1020.126, 719.5438
1020.608, 708.3611
1021.090, 697.6250
1021.572, 687.9133
1022.054, 679.2429
1022.536, 671.3293
1023.018, 664.0709
1023.501, 657.6650
1023.983, 652.3724
1024.465, 647.8366
1024.947, 642.9232
1025.429, 637.5803
1025.911, 632.7321
1026.393, 628.5102
1026.875, 624.0345
1027.358, 618.8259
1027.840, 613.8049
1028.322, 609.9110
1028.804, 606.9238
1029.286, 604.1742
1029.768, 601.8542
1030.250, 598.8800
1030.732, 595.0123
1031.214, 590.9747
1031.697, 586.5992
1032.179, 582.9290
1032.661, 581.2948
1033.143, 581.2206
1033.625, 580.2271
1034.107, 577.8505
1034.589, 575.7440
1035.071, 574.1446
1035.553, 572.4346
1036.036, 570.5955
1036.518, 568.3346
1037.000, 564.9366
1037.482, 560.7852
1037.964, 558.1308
1038.446, 557.9525
1038.928, 557.3748
1039.410, 556.1108
1039.893, 554.8376
1040.375, 553.9737
1040.857, 553.0410
1041.339, 551.3398
1041.821, 549.0928
1042.303, 547.5923
1042.785, 547.6913
1043.267, 546.8997
1043.750, 544.4440
1044.232, 541.9199
1044.714, 539.7244
1045.196, 537.8433
1045.678, 536.3475
1046.160, 535.1696
1046.642, 534.0036
1047.124, 532.8771
1047.606, 531.6310
1048.089, 529.7103
1048.571, 528.3235
1049.053, 528.7432
1049.535, 529.3054
1050.017, 527.9182
1050.499, 525.1576
1050.981, 523.7195
1051.463, 524.7302
1051.945, 525.1912
1052.428, 524.3749
1052.910, 523.0084
1053.392, 521.0341
1053.874, 518.9766
1054.356, 517.5568
1054.838, 516.5021
1055.320, 514.6205
1055.802, 511.1187
1056.285, 508.7232
1056.767, 509.0063
1057.249, 509.6029
1057.731, 509.9056
1058.213, 509.5370
1058.695, 507.5088
1059.177, 504.5866
1059.659, 503.2425
1060.141, 504.5695
1060.624, 504.9489
1061.106, 502.1532
1061.588, 499.2746
1062.070, 497.8339
1062.552, 497.1098
1063.034, 496.5107
1063.516, 495.9292
1063.998, 495.4305
1064.480, 495.1043
1064.963, 494.2412
1065.445, 492.1956
1065.927, 489.9870
1066.409, 487.9657
1066.891, 486.1845
1067.373, 484.5696
1067.855, 483.2599
1068.337, 482.7650
1068.820, 483.2743
1069.302, 483.1681
1069.784, 481.7773
1070.266, 479.5719
1070.748, 475.6730
1071.230, 472.0490
1071.712, 470.7224
1072.194, 471.0121
1072.677, 471.4718
1073.159, 471.7462
1073.641, 471.1740
1074.123, 468.8149
1074.605, 466.3681
1075.087, 464.5821
1075.569, 463.1901
1076.051, 461.9543
1076.533, 460.9226
1077.016, 459.8599
1077.498, 458.8775
1077.980, 459.5986
1078.462, 463.6702
1078.944, 468.2038
1079.426, 474.6703
1079.908, 478.2782
1080.390, 472.6729
1080.872, 462.8094
1081.354, 456.4510
1081.837, 454.5919
1082.319, 453.4370
1082.801, 451.3157
1083.283, 450.0958
1083.765, 451.5004
1084.247, 453.2422
1084.729, 453.3075
1085.211, 454.7429
1085.694, 453.9855
1086.176, 456.4309
1086.658, 458.1043
1087.140, 458.8227
1087.622, 457.2452
1088.104, 450.2292
1088.586, 443.6060
1089.068, 441.5211
1089.551, 441.5840
1090.033, 441.1556
1090.515, 440.0977
1090.997, 439.3868
1091.479, 439.5447
1091.961, 438.8382
1092.443, 435.7626
1092.925, 432.6988
1093.407, 430.5927
1093.890, 429.3599
1094.372, 428.9832
1094.854, 429.3435
1095.336, 430.5934
1095.818, 433.0063
1096.300, 433.8380
1096.782, 431.1655
1097.264, 428.1530
1097.746, 425.8204
1098.229, 423.8317
1098.711, 421.7583
1099.193, 419.8671
1099.675, 418.7280
1100.157, 418.4190
1100.639, 418.2404
1101.121, 418.3158
1101.603, 418.0744
1102.086, 417.0921
1102.568, 416.0294
1103.050, 415.1526
1103.532, 414.5328
1104.014, 414.5141
1104.496, 414.9742
1104.978, 414.5783
1105.460, 412.3543
1105.943, 410.5288
1106.425, 409.8124
1106.907, 409.1206
1107.389, 407.9876
1107.871, 406.6191
1108.353, 405.1077
1108.835, 403.5532
1109.317, 402.3641
1109.799, 401.6827
1110.281, 401.0895
1110.764, 400.4795
1111.246, 400.0594
1111.728, 400.1197
1112.210, 400.1754
1112.692, 400.0325
1113.174, 399.5577
1113.656, 398.2422
1114.138, 395.6855
1114.621, 394.1314
1115.103, 394.2487
1115.585, 394.2898
1116.067, 394.0459
1116.549, 393.5690
1117.031, 392.7478
1117.513, 391.8296
1117.995, 391.3539
1118.478, 391.3407
1118.960, 390.3123
1119.442, 387.3510
1119.924, 385.6426
1120.406, 386.0925
1120.888, 386.4868
1121.370, 385.7358
1121.852, 384.7251
1122.334, 384.5125
1122.817, 384.9229
1123.299, 385.0372
1123.781, 384.9051
1124.263, 384.1759
1124.745, 382.6137
1125.227, 381.2580
1125.709, 380.4056
1126.191, 379.9309
1126.673, 379.8065
1127.156, 379.8525
1127.638, 379.5924
1128.120, 379.4753
1128.602, 379.2986
1129.084, 378.9248
1129.566, 378.7884
1130.048, 378.1704
1130.530, 377.7095
1131.013, 377.8068
1131.495, 378.1095
1131.977, 378.1716
1132.459, 377.9443
1132.941, 376.8950
1133.423, 375.1386
1133.905, 374.6571
1134.387, 375.5786
1134.870, 375.5448
1135.352, 373.6259
1135.834, 371.9580
1136.316, 372.7984
1136.798, 374.6725
1137.280, 374.1350
1137.762, 371.9970
1138.244, 371.0985
1138.726, 371.4150
1139.208, 372.1949
1139.691, 373.1551
1140.173, 373.9914
1140.655, 374.5905
1141.137, 374.3133
1141.619, 371.3288
1142.101, 367.6064
1142.583, 367.1799
1143.065, 368.6389
1143.548, 368.3795
1144.030, 366.5991
1144.512, 366.2826
1144.994, 368.5103
1145.476, 370.7848
1145.958, 371.1117
1146.440, 370.5592
1146.922, 369.8710
1147.405, 369.1955
1147.887, 368.6802
1148.369, 368.3446
1148.851, 368.3387
1149.333, 368.5748
1149.815, 368.4345
1150.297, 367.5052
1150.779, 366.4747
1151.261, 365.5329
1151.744, 364.8701
1152.226, 364.9603
1152.708, 365.1664
1153.190, 364.5705
1153.672, 363.4171
1154.154, 362.7885
1154.636, 363.0742
1155.118, 362.8015
1155.600, 360.9249
1156.083, 359.2634
1156.565, 358.3050
1157.047, 357.9157
1157.529, 358.5517
1158.011, 359.3946
1158.493, 359.0505
1158.975, 357.4733
1159.457, 356.1027
1159.940, 355.0356
1160.422, 354.1512
1160.904, 353.2920
1161.386, 352.8488
1161.868, 353.3333
1162.350, 353.7865
1162.832, 352.7723
1163.314, 351.3252
1163.796, 353.2153
1164.279, 359.8811
1164.761, 361.3461
1165.243, 355.7970
1165.725, 351.3811
1166.207, 349.7402
1166.689, 349.1144
1167.171, 348.5273
1167.653, 348.3427
1168.135, 349.2010
1168.618, 350.8498
1169.100, 351.9093
1169.582, 352.3794
1170.064, 352.4424
1170.546, 352.1159
1171.028, 351.3448
1171.510, 350.1109
1171.992, 349.2132
1172.474, 349.3786
1172.957, 349.8239
1173.439, 348.7643
1173.921, 349.2418
1174.403, 349.3941
1174.885, 349.0819
1175.367, 349.8444
1175.849, 349.4073
1176.331, 348.9312
1176.814, 348.9207
1177.296, 348.9032
1177.778, 348.2639
1178.260, 347.6671
1178.742, 348.0034
1179.224, 348.7702
1179.706, 349.3251
1180.188, 349.7386
1180.671, 350.3740
1181.153, 351.1937
1181.635, 351.6603
1182.117, 351.5043
1182.599, 351.0958
1183.081, 350.3172
1183.563, 349.7251
1184.045, 349.6700
1184.527, 349.9708
1185.010, 350.6817
1185.492, 351.5230
1185.974, 351.7493
1186.456, 351.1916
1186.938, 351.4115
1187.420, 352.4479
1187.902, 354.6090
1188.384, 360.4338
1188.866, 364.2794
1189.349, 362.3269
1189.831, 358.6043
1190.313, 357.1176
1190.795, 357.3744
1191.277, 357.4506
1191.759, 357.3257
1192.241, 357.0250
1192.723, 356.3383
1193.206, 356.2350
1193.688, 356.9671
1194.170, 358.1598
1194.652, 359.7071
1195.134, 361.1874
1195.616, 361.9991
1196.098, 362.2367
1196.580, 362.0780
1197.063, 361.6278
1197.545, 362.2149
1198.027, 363.7599
1198.509, 364.3687
1198.991, 363.6028
1199.473, 363.2336
1199.955, 364.5407
1200.437, 366.3173
1200.919, 367.1817
1201.401, 367.3233
1201.884, 366.4859
1202.366, 365.4750
1202.848, 366.2291
1203.330, 368.2376
1203.812, 369.2885
1204.294, 368.8216
1204.776, 368.4669
1205.258, 369.0140
1205.741, 370.2292
1206.223, 372.4914
1206.705, 374.7936
1207.187, 376.3602
1207.669, 377.5210
1208.151, 378.7849
1208.633, 380.0485
1209.115, 380.7468
1209.598, 380.6046
1210.080, 380.9458
1210.562, 382.5935
1211.044, 383.8236
1211.526, 383.7006
1212.008, 383.8519
1212.490, 385.3777
1212.972, 387.1836
1213.454, 387.9566
1213.937, 387.8957
1214.419, 387.8940
1214.901, 387.8525
1215.383, 388.4735
1215.865, 389.9126
1216.347, 391.0045
1216.829, 391.4218
1217.311, 392.0807
1217.793, 393.5565
1218.276, 395.2047
1218.758, 396.1195
1219.240, 396.5940
1219.722, 397.6910
1220.204, 399.0425
1220.686, 398.9478
1221.168, 397.7997
1221.650, 397.5043
1222.133, 398.5004
1222.615, 400.3672
1223.097, 403.0326
1223.579, 404.9611
1224.061, 403.8292
1224.543, 402.2837
1225.025, 403.0771
1225.507, 404.7970
1225.990, 405.6860
1226.472, 406.1247
1226.954, 407.4415
1227.436, 409.6833
1227.918, 411.1886
1228.400, 411.2354
1228.882, 411.0152
1229.364, 409.9601
1229.846, 409.7902
1230.328, 411.9974
1230.811, 414.5140
1231.293, 415.7023
1231.775, 416.1943
1232.257, 417.2174
1232.739, 418.7636
1233.221, 419.3198
1233.703, 418.0316
1234.185, 420.1321
1234.668, 426.8961
1235.150, 431.8315
1235.632, 432.7062
1236.114, 432.0466
1236.596, 431.6339
1237.078, 431.8172
1237.560, 433.3860
1238.042, 435.9740
1238.525, 438.7919
1239.007, 441.5402
1239.489, 443.0292
1239.971, 443.5145
1240.453, 444.3459
1240.935, 445.9294
1241.417, 447.8106
1241.899, 449.7377
1242.381, 451.7939
1242.864, 454.2170
1243.346, 456.6394
1243.828, 458.6902
1244.310, 460.6295
1244.792, 462.7430
1245.274, 464.9904
1245.756, 467.0245
1246.238, 468.8044
1246.720, 471.4535
1247.203, 476.6237
1247.685, 480.2403
1248.167, 481.1584
1248.649, 481.7649
1249.131, 482.3310
1249.613, 483.5811
1250.095, 486.3288
1250.577, 489.7594
1251.059, 492.2148
1251.542, 494.7906
1252.024, 496.1670
1252.506, 499.2575
1252.988, 501.7339
1253.470, 503.5457
1253.952, 506.4352
1254.434, 510.8132
1254.916, 514.4614
1255.399, 515.6649
1255.881, 516.6265
1256.363, 520.4255
1256.845, 523.1905
1257.327, 528.7821
1257.809, 531.7886
1258.291, 536.5863
1258.773, 542.3949
1259.255, 547.0764
1259.738, 550.3525
1260.220, 553.7493
1260.702, 557.8776
1261.184, 561.9772
1261.666, 565.0325
1262.148, 569.0858
1262.630, 575.4784
1263.112, 582.6271
1263.594, 589.6582
1264.077, 596.5097
1264.559, 603.0457
1265.041, 609.2496
1265.523, 614.6227
1266.005, 618.6461
1266.487, 624.9839
1266.969, 633.9719
1267.451, 643.2142
1267.934, 652.1606
1268.416, 660.7076
1268.898, 668.8399
1269.380, 677.1065
1269.862, 686.2197
1270.344, 695.8380
1270.826, 705.4905
1271.308, 715.1896
1271.791, 724.8461
1272.273, 734.5696
1272.755, 744.3857
1273.237, 754.5250
1273.719, 765.6080
1274.201, 777.8930
1274.683, 791.0949
1275.165, 806.0184
1275.647, 820.6842
1276.130, 833.3398
1276.612, 846.8293
1277.094, 864.0499
1277.576, 881.9167
1278.058, 896.5971
1278.540, 909.3253
1279.022, 923.4630
1279.504, 939.0505
1279.986, 955.7265
1280.469, 973.8090
1280.951, 990.1465
1281.433, 1004.290
1281.915, 1018.584
1282.397, 1033.976
1282.879, 1049.725
1283.361, 1065.403
1283.843, 1079.968
1284.326, 1092.178
1284.808, 1101.963
##END=



