##NAMES=Zircon
##RRUFFID=R050034
##IDEAL CHEMISTRY=Zr^4+^SiO_4_
##LOCALITY=Oaxaca, Mexico
##OWNER=RRUFF
##SOURCE=University of Arizona Mineral Museum
##DESCRIPTION=Reddish brown single crystal fragments
##STATUS=The identification of this mineral has been confirmed by X-ray diffraction and chemical analysis
##URL=rruff.info/R050034
##MEASURED CHEMISTRY=Zr_1.00_Si_1.00_O_4_
171.6417, 23560.95
172.1238, 23607.95
172.6059, 23650.73
173.0880, 23685.05
173.5701, 23724.13
174.0522, 23778.19
174.5344, 23839.66
175.0165, 23897.68
175.4986, 23949.38
175.9807, 23993.16
176.4628, 24023.65
176.9449, 24034.36
177.4271, 24043.13
177.9092, 24051.94
178.3913, 24064.32
178.8734, 24085.06
179.3555, 24116.69
179.8376, 24158.34
180.3197, 24207.95
180.8019, 24266.46
181.2840, 24332.35
181.7661, 24421.11
182.2482, 24511.31
182.7303, 24571.33
183.2124, 24579.40
183.6946, 24558.11
184.1767, 24573.48
184.6588, 24643.54
185.1409, 24721.07
185.6230, 24807.29
186.1051, 24887.53
186.5873, 24936.41
187.0694, 24934.76
187.5515, 24915.82
188.0336, 24976.83
188.5157, 25181.63
188.9978, 25356.90
189.4800, 25450.68
189.9621, 25506.00
190.4442, 25565.54
190.9263, 25646.99
191.4084, 25745.18
191.8905, 25849.17
192.3727, 25966.80
192.8548, 26076.57
193.3369, 26164.41
193.8190, 26249.15
194.3011, 26352.97
194.7832, 26485.03
195.2654, 26628.85
195.7475, 26743.62
196.2296, 26798.95
196.7117, 26885.15
197.1938, 27022.17
197.6759, 27184.69
198.1581, 27354.86
198.6402, 27526.49
199.1223, 27695.59
199.6044, 27854.18
200.0865, 27997.71
200.5686, 28139.56
201.0508, 28288.90
201.5329, 28433.16
202.0150, 28565.72
202.4971, 28684.11
202.9792, 28780.96
203.4613, 28840.97
203.9435, 28844.88
204.4256, 28853.79
204.9077, 28844.54
205.3898, 28857.59
205.8719, 28925.05
206.3540, 29051.19
206.8362, 29211.95
207.3183, 29382.29
207.8004, 29575.80
208.2825, 29739.11
208.7646, 29855.80
209.2467, 29959.16
209.7289, 30068.36
210.2110, 30184.66
210.6931, 30297.85
211.1752, 30403.42
211.6573, 30516.64
212.1395, 30560.24
212.6216, 30492.34
213.1037, 30396.30
213.5858, 30297.34
214.0679, 30204.82
214.5500, 30125.83
215.0322, 30068.42
215.5143, 30034.86
215.9964, 30009.67
216.4785, 29976.59
216.9606, 29966.55
217.4427, 29997.18
217.9249, 30062.83
218.4070, 30143.93
218.8891, 30221.11
219.3712, 30293.12
219.8533, 30407.31
220.3354, 30639.33
220.8176, 30841.31
221.2997, 30959.47
221.7818, 31016.26
222.2639, 31062.24
222.7460, 31133.08
223.2281, 31225.25
223.7103, 31295.41
224.1924, 31357.11
224.6745, 31377.05
225.1566, 31322.18
225.6387, 31226.69
226.1208, 31138.40
226.6030, 31084.67
227.0851, 31059.75
227.5672, 31040.29
228.0493, 31032.16
228.5314, 31021.65
229.0135, 30998.46
229.4957, 30974.70
229.9778, 30961.65
230.4599, 30964.08
230.9420, 30984.14
231.4241, 31032.03
231.9062, 31140.53
232.3884, 31219.02
232.8705, 31221.47
233.3526, 31211.93
233.8347, 31250.88
234.3168, 31357.25
234.7989, 31497.92
235.2811, 31615.83
235.7632, 31701.36
236.2453, 31787.01
236.7274, 31874.31
237.2095, 31964.20
237.6916, 32060.08
238.1738, 32161.50
238.6559, 32262.74
239.1380, 32355.13
239.6201, 32434.04
240.1022, 32522.11
240.5843, 32627.62
241.0665, 32736.21
241.5486, 32843.57
242.0307, 32948.54
242.5128, 33049.91
242.9949, 33145.09
243.4770, 33233.40
243.9592, 33325.86
244.4413, 33430.11
244.9234, 33532.23
245.4055, 33616.47
245.8876, 33693.22
246.3697, 33790.23
246.8519, 33942.38
247.3340, 34138.56
247.8161, 34265.95
248.2982, 34265.54
248.7803, 34272.96
249.2624, 34327.70
249.7446, 34422.14
250.2267, 34544.98
250.7088, 34697.60
251.1909, 34867.63
251.6730, 35019.75
252.1551, 35148.89
252.6373, 35270.57
253.1194, 35374.27
253.6015, 35479.85
254.0836, 35615.65
254.5657, 35797.73
255.0478, 35990.76
255.5300, 36131.85
256.0121, 36202.89
256.4942, 36289.52
256.9763, 36401.91
257.4584, 36548.00
257.9406, 36751.20
258.4227, 37018.15
258.9048, 37295.59
259.3869, 37534.91
259.8690, 37735.99
260.3511, 37907.82
260.8333, 38034.40
261.3154, 38147.48
261.7975, 38261.42
262.2796, 38378.98
262.7617, 38518.53
263.2438, 38700.28
263.7260, 38918.91
264.2081, 39142.05
264.6902, 39369.95
265.1723, 39596.63
265.6544, 39833.13
266.1365, 40069.98
266.6187, 40269.07
267.1008, 40380.51
267.5829, 40447.93
268.0650, 40566.81
268.5471, 40749.53
269.0292, 40949.80
269.5114, 41156.73
269.9935, 41357.14
270.4756, 41523.11
270.9577, 41613.82
271.4398, 41694.59
271.9219, 41849.07
272.4041, 42079.85
272.8862, 42308.25
273.3683, 42502.29
273.8504, 42664.42
274.3325, 42801.18
274.8146, 42898.07
275.2968, 42996.90
275.7789, 43129.90
276.2610, 43289.58
276.7431, 43446.15
277.2252, 43588.18
277.7073, 43723.96
278.1895, 43873.88
278.6716, 44046.32
279.1537, 44193.72
279.6358, 44271.61
280.1179, 44319.11
280.6000, 44405.54
281.0822, 44549.03
281.5643, 44715.95
282.0464, 44871.22
282.5285, 45013.43
283.0106, 45151.76
283.4927, 45285.01
283.9749, 45416.02
284.4570, 45551.20
284.9391, 45689.95
285.4212, 45821.58
285.9033, 45936.47
286.3854, 46033.95
286.8676, 46127.80
287.3497, 46217.77
287.8318, 46304.86
288.3139, 46380.77
288.7960, 46453.53
289.2781, 46542.39
289.7603, 46658.06
290.2424, 46797.73
290.7245, 46948.57
291.2066, 47121.23
291.6887, 47291.25
292.1708, 47474.11
292.6530, 47645.55
293.1351, 47760.16
293.6172, 47803.63
294.0993, 47827.98
294.5814, 47926.25
295.0635, 48147.18
295.5457, 48355.66
296.0278, 48528.33
296.5099, 48704.89
296.9920, 48923.08
297.4741, 49180.89
297.9562, 49436.03
298.4384, 49642.71
298.9205, 49791.32
299.4026, 49960.95
299.8847, 50207.15
300.3668, 50418.45
300.8489, 50505.70
301.3311, 50528.77
301.8131, 50619.39
302.2953, 50874.91
302.7774, 51256.56
303.2595, 51567.15
303.7416, 51784.79
304.2237, 51955.11
304.7058, 52058.17
305.1880, 52137.42
305.6701, 52240.99
306.1522, 52387.25
306.6343, 52551.47
307.1164, 52699.66
307.5985, 52836.35
308.0807, 52937.38
308.5628, 52972.22
309.0449, 52986.75
309.5270, 53004.66
310.0091, 53028.69
310.4912, 53049.20
310.9734, 53063.06
311.4555, 53068.98
311.9376, 53048.03
312.4197, 52977.65
312.9018, 52910.96
313.3839, 52906.43
313.8661, 52933.66
314.3482, 52910.72
314.8303, 52758.07
315.3124, 52551.37
315.7945, 52438.93
316.2766, 52439.84
316.7588, 52423.11
317.2409, 52297.28
317.7230, 52116.02
318.2051, 51971.88
318.6872, 51898.05
319.1693, 51824.45
319.6515, 51695.66
320.1336, 51521.92
320.6157, 51344.48
321.0978, 51174.52
321.5799, 51012.90
322.0620, 50859.42
322.5442, 50714.64
323.0263, 50574.80
323.5084, 50442.98
323.9905, 50313.21
324.4726, 50167.07
324.9547, 50001.20
325.4369, 49858.35
325.9190, 49792.61
326.4011, 49814.44
326.8832, 49765.71
327.3653, 49581.37
327.8474, 49388.82
328.3296, 49253.00
328.8117, 49168.46
329.2938, 49112.89
329.7759, 49078.24
330.2580, 49052.95
330.7401, 48985.62
331.2223, 48839.59
331.7044, 48696.08
332.1865, 48552.36
332.6686, 48419.80
333.1507, 48312.52
333.6328, 48234.29
334.1150, 48173.78
334.5971, 48114.50
335.0792, 48056.50
335.5613, 48000.42
336.0434, 47944.39
336.5255, 47891.71
337.0077, 47844.21
337.4898, 47801.92
337.9719, 47763.96
338.4540, 47730.09
338.9361, 47700.18
339.4182, 47671.15
339.9004, 47630.05
340.3825, 47611.21
340.8646, 47637.79
341.3467, 47684.63
341.8288, 47719.61
342.3109, 47729.75
342.7931, 47728.97
343.2752, 47727.91
343.7573, 47720.88
344.2394, 47757.46
344.7215, 47895.70
345.2036, 48045.84
345.6858, 48127.14
346.1679, 48137.84
346.6500, 48154.76
347.1321, 48228.24
347.6142, 48344.68
348.0963, 48465.68
348.5785, 48584.16
349.0606, 48718.95
349.5427, 48907.62
350.0248, 49127.72
350.5069, 49309.10
350.9890, 49416.57
351.4712, 49499.82
351.9533, 49612.23
352.4354, 49742.75
352.9175, 49831.79
353.3996, 49848.29
353.8817, 49809.42
354.3639, 49762.36
354.8460, 49748.63
355.3281, 49649.23
355.8102, 49385.14
356.2923, 49045.11
356.7744, 48736.51
357.2566, 48480.57
357.7387, 48235.76
358.2208, 47952.89
358.7029, 47619.26
359.1850, 47315.82
359.6671, 47052.73
360.1493, 46805.79
360.6314, 46571.90
361.1135, 46345.40
361.5956, 46116.94
362.0777, 45879.23
362.5598, 45637.10
363.0420, 45405.39
363.5241, 45177.13
364.0062, 44973.13
364.4883, 44802.21
364.9704, 44649.35
365.4525, 44506.89
365.9347, 44371.80
366.4168, 44234.66
366.8989, 44083.91
367.3810, 43917.16
367.8631, 43755.49
368.3452, 43588.13
368.8274, 43440.82
369.3095, 43333.61
369.7916, 43254.02
370.2737, 43172.95
370.7558, 43075.36
371.2379, 42969.55
371.7201, 42874.95
372.2022, 42794.55
372.6843, 42697.02
373.1664, 42555.50
373.6485, 42397.84
374.1306, 42267.75
374.6128, 42173.04
375.0949, 42082.77
375.5770, 41986.21
376.0591, 41882.72
376.5412, 41770.40
377.0233, 41648.45
377.5055, 41520.30
377.9876, 41384.52
378.4697, 41240.16
378.9518, 41118.73
379.4339, 41052.18
379.9160, 40980.65
380.3982, 40862.74
380.8803, 40709.98
381.3624, 40561.66
381.8445, 40440.15
382.3266, 40333.65
382.8087, 40203.56
383.2909, 40021.66
383.7730, 39853.48
384.2551, 39713.42
384.7372, 39579.38
385.2193, 39427.73
385.7014, 39258.09
386.1836, 39092.12
386.6657, 38954.57
387.1478, 38847.82
387.6299, 38734.30
388.1120, 38612.57
388.5941, 38483.87
389.0763, 38350.43
389.5584, 38210.37
390.0405, 38060.77
390.5226, 37896.85
391.0047, 37728.48
391.4868, 37569.33
391.9690, 37420.80
392.4511, 37273.72
392.9332, 37124.94
393.4153, 36978.46
393.8974, 36840.73
394.3795, 36711.10
394.8617, 36579.77
395.3438, 36437.39
395.8259, 36291.91
396.3080, 36162.61
396.7901, 36053.17
397.2722, 35926.32
397.7544, 35741.39
398.2365, 35517.16
398.7186, 35347.95
399.2007, 35282.14
399.6828, 35217.47
400.1649, 35109.55
400.6471, 34978.21
401.1292, 34856.94
401.6113, 34756.09
402.0934, 34662.06
402.5755, 34550.68
403.0576, 34405.00
403.5398, 34297.52
404.0219, 34258.24
404.5040, 34222.72
404.9861, 34163.43
405.4682, 34079.71
405.9503, 33976.86
406.4325, 33855.44
406.9146, 33723.68
407.3967, 33615.52
407.8788, 33549.64
408.3609, 33469.00
408.8430, 33341.17
409.3252, 33209.02
409.8073, 33107.54
410.2894, 33041.42
410.7715, 32987.70
411.2536, 32916.24
411.7357, 32836.89
412.2179, 32814.34
412.7000, 32880.27
413.1821, 32936.92
413.6642, 32893.68
414.1463, 32794.20
414.6284, 32724.84
415.1106, 32720.08
415.5927, 32726.53
416.0748, 32693.41
416.5569, 32638.05
417.0390, 32621.66
417.5211, 32671.79
418.0033, 32743.32
418.4854, 32766.05
418.9675, 32718.53
419.4496, 32694.35
419.9317, 32700.47
420.4138, 32727.85
420.8960, 32781.98
421.3781, 32853.57
421.8602, 32917.67
422.3423, 32957.46
422.8244, 32979.65
423.3065, 33013.32
423.7887, 33067.30
424.2708, 33119.64
424.7529, 33157.72
425.2350, 33200.21
425.7171, 33260.88
426.1992, 33342.39
426.6814, 33439.66
427.1635, 33547.91
427.6456, 33668.11
428.1277, 33803.59
428.6098, 33961.25
429.0919, 34120.80
429.5741, 34257.64
430.0562, 34394.03
430.5383, 34569.81
431.0204, 34813.03
431.5025, 35056.94
431.9846, 35238.14
432.4668, 35372.72
432.9489, 35522.09
433.4310, 35706.93
433.9131, 35893.86
434.3952, 36048.64
434.8773, 36169.66
435.3595, 36251.84
435.8416, 36293.82
436.3237, 36297.00
436.8058, 36270.00
437.2879, 36205.29
437.7701, 36084.02
438.2522, 35896.14
438.7343, 35647.79
439.2164, 35352.45
439.6985, 34977.25
440.1806, 34613.39
440.6628, 34285.05
441.1449, 33946.14
441.6270, 33552.83
442.1091, 33117.00
442.5912, 32686.31
443.0733, 32291.17
443.5555, 31933.68
444.0376, 31631.09
444.5197, 31404.45
445.0018, 31173.36
445.4839, 30893.44
445.9660, 30598.75
446.4482, 30318.40
446.9303, 30056.56
447.4124, 29813.27
447.8945, 29592.58
448.3766, 29389.61
448.8587, 29195.09
449.3409, 29006.67
449.8230, 28831.24
450.3051, 28674.22
450.7872, 28535.09
451.2693, 28403.77
451.7514, 28298.96
452.2336, 28179.85
452.7157, 28007.12
453.1978, 27821.67
453.6799, 27690.79
454.1620, 27630.74
454.6441, 27591.05
455.1263, 27506.36
455.6084, 27369.17
456.0905, 27230.30
456.5726, 27059.84
457.0547, 26920.79
457.5368, 26856.72
458.0190, 26831.43
458.5011, 26783.53
458.9832, 26683.45
459.4653, 26569.77
459.9474, 26502.78
460.4295, 26483.61
460.9117, 26450.06
461.3938, 26384.80
461.8759, 26309.20
462.3580, 26244.96
462.8401, 26188.70
463.3222, 26120.45
463.8044, 26014.82
464.2865, 25910.16
464.7686, 25847.14
465.2507, 25816.94
465.7328, 25783.40
466.2149, 25731.25
466.6971, 25666.29
467.1792, 25600.17
467.6613, 25530.20
468.1434, 25464.70
468.6255, 25399.46
469.1076, 25342.09
469.5898, 25306.19
470.0719, 25283.26
470.5540, 25250.53
471.0361, 25192.38
471.5182, 25117.50
472.0003, 25049.07
472.4825, 24988.22
472.9646, 24931.99
473.4467, 24889.00
473.9288, 24844.00
474.4109, 24777.90
474.8930, 24694.46
475.3752, 24628.96
475.8573, 24614.36
476.3394, 24625.54
476.8215, 24628.84
477.3036, 24623.50
477.7857, 24582.77
478.2679, 24481.11
478.7500, 24345.65
479.2321, 24240.74
479.7142, 24171.21
480.1963, 24114.97
480.6784, 24075.07
481.1606, 24041.89
481.6427, 24007.97
482.1248, 23972.09
482.6069, 23935.28
483.0890, 23898.00
483.5711, 23860.46
484.0533, 23822.81
484.5354, 23783.86
485.0175, 23746.76
485.4996, 23711.21
485.9817, 23677.93
486.4638, 23646.30
486.9460, 23616.86
487.4281, 23593.64
487.9102, 23587.49
488.3923, 23589.62
488.8744, 23568.32
489.3565, 23518.18
489.8387, 23475.66
490.3208, 23465.30
490.8029, 23471.21
491.2850, 23457.88
491.7671, 23415.73
492.2492, 23382.30
492.7314, 23387.91
493.2135, 23399.21
493.6956, 23373.61
494.1777, 23310.42
494.6598, 23240.16
495.1419, 23184.59
495.6241, 23142.97
496.1062, 23109.48
496.5883, 23093.93
497.0704, 23073.05
497.5525, 23030.10
498.0346, 22990.92
498.5168, 22983.70
498.9989, 23007.11
499.4810, 23030.07
499.9631, 23030.07
500.4452, 23009.00
500.9273, 22970.82
501.4095, 22911.60
501.8916, 22850.76
502.3737, 22788.55
502.8558, 22734.75
503.3379, 22707.73
503.8200, 22716.38
504.3022, 22715.82
504.7843, 22671.86
505.2664, 22619.88
505.7485, 22603.95
506.2306, 22624.51
506.7127, 22656.01
507.1949, 22683.86
507.6770, 22705.70
508.1591, 22710.66
508.6412, 22681.96
509.1233, 22660.44
509.6054, 22662.79
510.0876, 22661.70
510.5697, 22631.96
511.0518, 22577.14
511.5339, 22522.75
512.0161, 22486.37
512.4982, 22464.07
512.9803, 22444.83
513.4624, 22428.21
513.9445, 22418.74
514.4266, 22423.03
514.9088, 22431.02
515.3909, 22428.82
515.8730, 22415.66
516.3551, 22403.33
516.8372, 22399.70
517.3193, 22395.28
517.8015, 22374.39
518.2836, 22342.86
518.7657, 22328.04
519.2478, 22346.94
519.7299, 22380.26
520.2120, 22381.29
520.6942, 22332.10
521.1763, 22283.82
521.6584, 22237.70
522.1405, 22191.38
522.6226, 22133.42
523.1047, 22074.12
523.5869, 22040.85
524.0690, 22053.32
524.5511, 22086.32
525.0332, 22100.95
525.5153, 22097.27
525.9974, 22085.17
526.4796, 22062.63
526.9617, 22039.38
527.4438, 22029.14
527.9259, 22029.84
528.4080, 22022.50
528.8901, 21992.47
529.3723, 21965.51
529.8544, 21965.20
530.3365, 21977.34
530.8186, 21970.47
531.3007, 21934.38
531.7828, 21891.61
532.2650, 21875.80
532.7471, 21894.15
533.2292, 21893.84
533.7113, 21852.10
534.1934, 21817.46
534.6755, 21811.62
535.1577, 21818.81
535.6398, 21818.51
536.1219, 21805.01
536.6040, 21781.56
537.0861, 21748.18
537.5682, 21707.25
538.0504, 21664.38
538.5325, 21619.43
539.0146, 21580.59
539.4967, 21554.80
539.9788, 21540.33
540.4609, 21528.51
540.9431, 21526.07
541.4252, 21516.71
541.9073, 21491.90
542.3894, 21462.12
542.8715, 21436.14
543.3536, 21415.38
543.8358, 21398.85
544.3179, 21387.27
544.8000, 21377.66
545.2821, 21354.81
545.7642, 21311.52
546.2463, 21274.93
546.7285, 21261.54
547.2106, 21250.33
547.6927, 21220.97
548.1748, 21175.06
548.6569, 21137.21
549.1390, 21128.02
549.6211, 21125.52
550.1032, 21100.79
550.5853, 21059.76
551.0674, 21031.58
551.5496, 21028.72
552.0317, 21038.57
552.5138, 21042.13
552.9959, 21041.96
553.4780, 21025.89
553.9601, 20973.05
554.4423, 20928.86
554.9244, 20922.34
555.4065, 20933.14
555.8886, 20924.06
556.3707, 20880.68
556.8528, 20835.80
557.3350, 20840.71
557.8171, 20886.25
558.2992, 20892.14
558.7813, 20839.61
559.2634, 20783.62
559.7455, 20760.22
560.2277, 20761.39
560.7098, 20758.78
561.1919, 20750.94
561.6740, 20741.44
562.1561, 20732.03
562.6382, 20721.14
563.1204, 20705.18
563.6025, 20685.20
564.0846, 20666.64
564.5667, 20652.74
565.0488, 20644.36
565.5309, 20650.66
566.0131, 20693.73
566.4952, 20695.54
566.9773, 20596.32
567.4594, 20488.32
567.9415, 20427.39
568.4236, 20409.88
568.9058, 20404.89
569.3879, 20408.74
569.8700, 20411.02
570.3521, 20391.30
570.8342, 20359.84
571.3163, 20358.35
571.7985, 20402.33
572.2806, 20451.21
572.7627, 20453.64
573.2448, 20402.91
573.7269, 20369.10
574.2090, 20361.39
574.6912, 20358.33
575.1733, 20356.23
575.6554, 20355.17
576.1375, 20361.00
576.6196, 20372.86
577.1017, 20372.04
577.5839, 20328.17
578.0660, 20258.18
578.5481, 20222.13
579.0302, 20224.02
579.5123, 20231.74
579.9944, 20229.38
580.4766, 20225.64
580.9587, 20239.03
581.4408, 20272.73
581.9229, 20306.02
582.4050, 20351.45
582.8871, 20381.49
583.3693, 20356.65
583.8514, 20304.36
584.3335, 20289.64
584.8156, 20342.73
585.2977, 20419.96
585.7798, 20451.23
586.2620, 20432.54
586.7441, 20411.71
587.2262, 20384.28
587.7083, 20365.78
588.1904, 20374.40
588.6725, 20395.21
589.1547, 20401.84
589.6368, 20382.59
590.1189, 20371.00
590.6010, 20393.70
591.0831, 20427.46
591.5652, 20441.71
592.0474, 20435.58
592.5295, 20422.96
593.0116, 20410.70
593.4937, 20405.37
593.9758, 20432.40
594.4579, 20518.19
594.9401, 20573.15
595.4222, 20548.40
595.9043, 20528.79
596.3864, 20574.42
596.8685, 20658.58
597.3506, 20707.83
597.8328, 20681.04
598.3149, 20638.24
598.7970, 20632.02
599.2791, 20652.21
599.7612, 20673.43
600.2433, 20690.87
600.7255, 20710.05
601.2076, 20737.85
601.6897, 20771.46
602.1718, 20787.49
602.6539, 20747.50
603.1360, 20743.43
603.6182, 20825.39
604.1003, 20911.07
604.5824, 20928.45
605.0645, 20888.01
605.5466, 20855.52
606.0287, 20866.84
606.5109, 20908.97
606.9930, 20979.24
607.4751, 21070.65
607.9572, 21121.97
608.4393, 21112.29
608.9214, 21082.11
609.4036, 21071.08
609.8857, 21079.29
610.3678, 21079.53
610.8499, 21057.90
611.3320, 21046.64
611.8141, 21050.54
612.2963, 21070.03
612.7784, 21114.98
613.2605, 21179.58
613.7426, 21235.00
614.2247, 21258.04
614.7068, 21257.68
615.1890, 21251.75
615.6711, 21239.63
616.1532, 21238.88
616.6353, 21263.17
617.1174, 21284.82
617.5995, 21263.74
618.0817, 21198.82
618.5638, 21165.57
619.0459, 21176.43
619.5280, 21208.26
620.0101, 21282.70
620.4922, 21358.01
620.9744, 21369.64
621.4565, 21314.44
621.9386, 21260.82
622.4207, 21275.37
622.9028, 21338.55
623.3849, 21372.70
623.8671, 21373.29
624.3492, 21371.14
624.8313, 21375.90
625.3134, 21381.34
625.7955, 21378.33
626.2776, 21367.44
626.7598, 21360.64
627.2419, 21357.17
627.7240, 21360.75
628.2061, 21389.83
628.6882, 21420.47
629.1703, 21411.12
629.6525, 21356.42
630.1346, 21293.91
630.6167, 21258.81
631.0988, 21247.79
631.5809, 21245.32
632.0630, 21256.86
632.5452, 21255.23
633.0273, 21226.97
633.5094, 21186.81
633.9915, 21146.67
634.4736, 21106.99
634.9557, 21080.04
635.4379, 21081.87
635.9200, 21083.07
636.4021, 21064.57
636.8842, 21035.60
637.3663, 21011.84
637.8484, 20996.59
638.3306, 20980.77
638.8127, 20954.66
639.2948, 20920.31
639.7769, 20892.33
640.2590, 20874.14
640.7411, 20849.54
641.2233, 20810.14
641.7054, 20766.17
642.1875, 20731.92
642.6696, 20705.73
643.1517, 20665.57
643.6339, 20580.74
644.1160, 20508.77
644.5981, 20499.55
645.0802, 20516.36
645.5623, 20500.56
646.0444, 20441.67
646.5266, 20374.19
647.0087, 20332.71
647.4908, 20308.31
647.9729, 20253.44
648.4550, 20157.38
648.9371, 20076.14
649.4193, 20033.35
649.9014, 20000.26
650.3835, 19948.23
650.8656, 19879.97
651.3477, 19812.67
651.8298, 19745.40
652.3120, 19683.68
652.7941, 19631.43
653.2762, 19585.17
653.7583, 19544.22
654.2404, 19506.03
654.7225, 19460.65
655.2047, 19398.57
655.6868, 19325.26
656.1689, 19259.50
656.6510, 19201.99
657.1331, 19149.31
657.6152, 19110.08
658.0974, 19062.55
658.5795, 18979.03
659.0616, 18868.16
659.5437, 18769.62
660.0258, 18688.58
660.5079, 18617.86
660.9901, 18568.20
661.4722, 18519.32
661.9543, 18440.49
662.4364, 18337.78
662.9185, 18249.56
663.4006, 18204.55
663.8828, 18180.17
664.3649, 18123.79
664.8470, 18034.07
665.3291, 17960.03
665.8112, 17918.71
666.2933, 17869.49
666.7755, 17769.61
667.2576, 17636.62
667.7397, 17546.47
668.2218, 17529.45
668.7039, 17505.95
669.1860, 17462.12
669.6682, 17405.17
670.1503, 17331.18
670.6324, 17248.90
671.1145, 17181.05
671.5966, 17140.40
672.0787, 17104.52
672.5609, 17032.75
673.0430, 16932.73
673.5251, 16865.11
674.0072, 16840.68
674.4893, 16817.77
674.9714, 16774.00
675.4536, 16713.04
675.9357, 16642.67
676.4178, 16545.67
676.8999, 16476.85
677.3820, 16452.79
677.8641, 16441.69
678.3463, 16441.81
678.8284, 16438.78
679.3105, 16412.15
679.7926, 16355.50
680.2747, 16279.72
680.7568, 16178.15
681.2390, 16069.72
681.7211, 16009.96
682.2032, 15998.16
682.6853, 15977.59
683.1674, 15924.55
683.6495, 15847.96
684.1317, 15756.44
684.6138, 15641.54
685.0959, 15558.11
685.5780, 15532.13
686.0601, 15505.75
686.5422, 15461.81
687.0244, 15412.72
687.5065, 15376.50
687.9886, 15353.00
688.4707, 15317.59
688.9528, 15237.55
689.4349, 15152.74
689.9171, 15118.37
690.3992, 15117.10
690.8813, 15093.46
691.3634, 15032.87
691.8455, 14969.00
692.3276, 14937.67
692.8098, 14933.83
693.2919, 14911.77
693.7740, 14859.73
694.2561, 14815.61
694.7382, 14793.23
695.2203, 14774.67
695.7025, 14749.45
696.1846, 14717.72
696.6667, 14681.38
697.1488, 14639.92
697.6309, 14595.44
698.1130, 14540.29
698.5952, 14487.93
699.0773, 14463.27
699.5594, 14461.10
700.0415, 14448.08
700.5236, 14402.48
701.0057, 14339.88
701.4879, 14292.61
701.9700, 14261.33
702.4521, 14228.85
702.9342, 14192.45
703.4163, 14157.62
703.8984, 14125.50
704.3806, 14098.11
704.8627, 14084.15
705.3448, 14099.89
705.8269, 14082.01
706.3090, 13987.45
706.7911, 13891.21
707.2733, 13839.04
707.7554, 13815.90
708.2375, 13794.66
708.7196, 13766.39
709.2017, 13734.93
709.6838, 13700.34
710.1660, 13666.16
710.6481, 13642.69
711.1302, 13629.58
711.6123, 13621.09
712.0944, 13617.85
712.5765, 13606.87
713.0587, 13569.83
713.5408, 13505.17
714.0229, 13447.37
714.5050, 13384.41
714.9871, 13346.17
715.4692, 13361.41
715.9514, 13383.67
716.4335, 13376.36
716.9156, 13340.63
717.3977, 13296.80
717.8798, 13246.89
718.3619, 13200.32
718.8441, 13165.78
719.3262, 13139.14
719.8083, 13113.55
720.2904, 13088.17
720.7725, 13066.10
721.2546, 13050.14
721.7368, 13036.15
722.2189, 13010.13
722.7010, 12967.37
723.1831, 12949.82
723.6652, 12982.46
724.1473, 12997.11
724.6295, 12944.21
725.1116, 12851.81
725.5937, 12775.15
726.0758, 12712.57
726.5579, 12674.03
727.0400, 12687.70
727.5222, 12698.95
728.0043, 12668.14
728.4864, 12615.32
728.9685, 12574.13
729.4506, 12553.87
729.9327, 12542.47
730.4149, 12539.05
730.8970, 12532.85
731.3791, 12490.70
731.8612, 12417.39
732.3433, 12358.44
732.8254, 12327.10
733.3076, 12313.04
733.7897, 12308.97
734.2718, 12313.24
734.7539, 12302.68
735.2360, 12260.86
735.7181, 12231.70
736.2003, 12239.69
736.6824, 12243.15
737.1645, 12205.78
737.6466, 12143.29
738.1287, 12102.85
738.6108, 12107.40
739.0930, 12109.61
739.5751, 12074.65
740.0572, 12028.55
740.5393, 12003.62
741.0214, 11996.49
741.5035, 11984.00
741.9857, 11955.34
742.4678, 11926.14
742.9499, 11927.67
743.4320, 11955.59
743.9141, 11940.37
744.3962, 11870.19
744.8784, 11819.47
745.3605, 11824.81
745.8426, 11850.91
746.3247, 11850.89
746.8068, 11821.91
747.2889, 11791.54
747.7711, 11751.87
748.2532, 11720.77
748.7353, 11718.00
749.2174, 11713.81
749.6995, 11672.22
750.1816, 11601.60
750.6638, 11546.88
751.1459, 11534.77
751.6280, 11535.66
752.1101, 11526.06
752.5922, 11508.66
753.0743, 11488.23
753.5565, 11465.40
754.0386, 11437.50
754.5207, 11402.27
755.0028, 11367.17
755.4849, 11350.80
755.9670, 11357.01
756.4492, 11342.79
756.9313, 11296.64
757.4134, 11257.22
757.8955, 11244.44
758.3776, 11244.95
758.8597, 11239.47
759.3419, 11227.95
759.8240, 11213.30
760.3061, 11197.40
760.7882, 11176.36
761.2703, 11142.19
761.7524, 11106.43
762.2346, 11081.29
762.7167, 11067.32
763.1988, 11057.07
763.6809, 11046.64
764.1630, 11037.58
764.6451, 11032.88
765.1273, 11030.72
765.6094, 11028.27
766.0915, 11024.43
766.5736, 11014.15
767.0557, 10994.17
767.5378, 10966.41
768.0200, 10931.77
768.5021, 10886.54
768.9842, 10858.56
769.4663, 10853.82
769.9484, 10855.07
770.4305, 10862.26
770.9127, 10866.41
771.3948, 10849.06
771.8769, 10807.20
772.3590, 10784.83
772.8411, 10818.31
773.3232, 10834.63
773.8054, 10783.13
774.2875, 10715.27
774.7696, 10690.92
775.2517, 10708.40
775.7338, 10721.46
776.2159, 10702.21
776.6981, 10673.65
777.1802, 10665.93
777.6623, 10667.52
778.1444, 10645.34
778.6265, 10599.81
779.1086, 10566.48
779.5908, 10566.22
780.0729, 10583.61
780.5550, 10592.49
781.0371, 10593.01
781.5192, 10582.72
782.0013, 10560.82
782.4835, 10527.91
782.9656, 10464.93
783.4477, 10409.51
783.9298, 10426.15
784.4119, 10517.43
784.8940, 10559.46
785.3762, 10508.14
785.8583, 10457.26
786.3404, 10432.46
786.8225, 10417.99
787.3046, 10403.31
787.7867, 10385.65
788.2689, 10359.81
788.7510, 10317.16
789.2331, 10286.81
789.7152, 10313.93
790.1973, 10358.45
790.6794, 10348.29
791.1616, 10291.21
791.6437, 10244.69
792.1258, 10233.22
792.6079, 10235.13
793.0900, 10220.43
793.5721, 10191.49
794.0543, 10171.95
794.5364, 10162.73
795.0185, 10158.02
795.5006, 10159.60
795.9827, 10157.48
796.4648, 10138.51
796.9470, 10105.27
797.4291, 10086.34
797.9112, 10105.41
798.3933, 10104.71
798.8754, 10065.69
799.3575, 10022.20
799.8397, 9992.696
800.3218, 9973.040
800.8039, 9951.963
801.2860, 9925.893
801.7681, 9906.480
802.2502, 9914.185
802.7324, 9918.185
803.2145, 9873.918
803.6966, 9809.973
804.1787, 9791.101
804.6608, 9827.148
805.1429, 9858.972
805.6251, 9832.284
806.1072, 9774.614
806.5893, 9746.666
807.0714, 9743.997
807.5535, 9731.856
808.0356, 9703.554
808.5178, 9678.946
808.9999, 9671.836
809.4820, 9675.807
809.9641, 9675.251
810.4462, 9669.793
810.9283, 9661.408
811.4105, 9652.385
811.8926, 9636.556
812.3747, 9605.649
812.8568, 9570.609
813.3389, 9543.404
813.8210, 9524.221
814.3032, 9509.352
814.7853, 9499.606
815.2674, 9492.509
815.7495, 9487.127
816.2316, 9484.104
816.7137, 9491.749
817.1959, 9502.124
817.6780, 9490.321
818.1601, 9441.081
818.6422, 9390.652
819.1243, 9374.112
819.6064, 9373.333
820.0886, 9356.952
820.5707, 9329.800
821.0528, 9320.745
821.5349, 9338.861
822.0170, 9354.474
822.4991, 9331.070
822.9813, 9279.922
823.4634, 9247.522
823.9455, 9233.906
824.4276, 9237.862
824.9097, 9264.590
825.3918, 9286.568
825.8740, 9280.571
826.3561, 9255.886
826.8382, 9245.711
827.3203, 9269.898
827.8024, 9262.128
828.2845, 9184.476
828.7667, 9121.443
829.2488, 9117.731
829.7309, 9136.078
830.2130, 9131.074
830.6951, 9100.037
831.1772, 9074.192
831.6594, 9056.618
832.1415, 9051.024
832.6236, 9073.919
833.1057, 9098.598
833.5878, 9095.333
834.0699, 9068.391
834.5521, 9039.839
835.0342, 9018.205
835.5163, 9004.626
835.9984, 9007.796
836.4805, 9015.507
836.9626, 9007.181
837.4448, 8984.586
837.9269, 8956.507
838.4090, 8926.550
838.8911, 8899.667
839.3732, 8880.035
839.8553, 8868.815
840.3375, 8875.490
840.8196, 8900.693
841.3017, 8908.578
841.7838, 8889.880
842.2659, 8868.132
842.7480, 8859.824
843.2302, 8858.588
843.7123, 8847.385
844.1944, 8820.837
844.6765, 8802.226
845.1586, 8792.994
845.6407, 8789.563
846.1229, 8798.414
846.6050, 8807.193
847.0871, 8803.252
847.5692, 8787.143
848.0513, 8768.521
848.5334, 8745.941
849.0156, 8724.618
849.4977, 8704.288
849.9798, 8687.228
850.4619, 8677.803
850.9440, 8672.305
851.4261, 8659.257
851.9083, 8633.676
852.3904, 8622.430
852.8725, 8666.460
853.3546, 8713.909
853.8367, 8699.481
854.3188, 8649.061
854.8010, 8620.833
855.2831, 8623.629
855.7652, 8622.206
856.2473, 8587.305
856.7294, 8543.922
857.2115, 8542.308
857.6937, 8571.805
858.1758, 8585.350
858.6579, 8578.534
859.1400, 8562.375
859.6221, 8541.031
860.1042, 8519.027
860.5864, 8501.979
861.0685, 8490.071
861.5506, 8487.199
862.0327, 8496.765
862.5148, 8501.242
862.9969, 8493.105
863.4791, 8487.297
863.9612, 8504.083
864.4433, 8530.280
864.9254, 8515.382
865.4075, 8418.148
865.8896, 8366.073
866.3718, 8390.392
866.8539, 8420.297
867.3360, 8438.295
867.8181, 8444.586
868.3002, 8437.440
868.7823, 8417.777
869.2645, 8396.582
869.7466, 8367.240
870.2287, 8349.170
870.7108, 8362.971
871.1929, 8380.366
871.6750, 8376.715
872.1572, 8355.440
872.6393, 8327.139
873.1214, 8294.739
873.6035, 8269.094
874.0856, 8257.274
874.5677, 8256.753
875.0499, 8277.629
875.5320, 8303.635
876.0141, 8293.001
876.4962, 8245.317
876.9783, 8208.697
877.4604, 8218.138
877.9426, 8245.326
878.4247, 8241.979
878.9068, 8217.438
879.3889, 8211.411
879.8710, 8224.080
880.3531, 8220.391
880.8353, 8185.299
881.3174, 8143.892
881.7995, 8125.458
882.2816, 8127.397
882.7637, 8134.883
883.2458, 8148.875
883.7280, 8162.792
884.2101, 8178.897
884.6922, 8182.438
885.1743, 8158.650
885.6564, 8121.955
886.1385, 8103.706
886.6207, 8106.852
887.1028, 8116.433
887.5849, 8146.063
888.0670, 8159.796
888.5491, 8133.938
889.0313, 8101.023
889.5134, 8090.490
889.9955, 8097.454
890.4776, 8099.326
890.9597, 8092.673
891.4418, 8084.451
891.9240, 8067.492
892.4061, 8057.969
892.8882, 8075.381
893.3703, 8099.479
893.8524, 8098.729
894.3345, 8071.219
894.8167, 8050.564
895.2988, 8058.393
895.7809, 8066.509
896.2630, 8060.719
896.7451, 8047.023
897.2272, 8026.322
897.7094, 8004.148
898.1915, 7991.762
898.6736, 7993.223
899.1557, 8000.726
899.6378, 8012.553
900.1199, 8023.424
900.6021, 8025.757
901.0842, 8022.366
901.5663, 8020.727
902.0484, 8020.917
902.5305, 8014.351
903.0126, 7994.677
903.4948, 7972.221
903.9769, 7963.512
904.4590, 7964.213
904.9411, 7960.160
905.4232, 7951.752
905.9053, 7947.814
906.3875, 7951.187
906.8696, 7956.619
907.3517, 7959.748
907.8338, 7959.900
908.3159, 7955.435
908.7980, 7946.389
909.2802, 7925.091
909.7623, 7886.453
910.2444, 7872.393
910.7265, 7910.048
911.2086, 7961.088
911.6907, 7967.833
912.1729, 7930.989
912.6550, 7911.021
913.1371, 7911.443
913.6192, 7918.268
914.1013, 7933.259
914.5834, 7946.636
915.0656, 7952.728
915.5477, 7952.277
916.0298, 7945.698
916.5119, 7928.768
916.9940, 7921.828
917.4761, 7938.559
917.9583, 7945.896
918.4404, 7924.207
918.9225, 7900.648
919.4046, 7901.860
919.8867, 7919.582
920.3688, 7922.355
920.8510, 7903.587
921.3331, 7879.283
921.8152, 7829.804
922.2973, 7800.557
922.7794, 7835.746
923.2615, 7887.306
923.7437, 7895.136
924.2258, 7860.064
924.7079, 7831.479
925.1900, 7834.582
925.6721, 7829.195
926.1542, 7777.924
926.6364, 7731.583
927.1185, 7739.290
927.6006, 7778.066
928.0827, 7806.087
928.5648, 7814.001
929.0469, 7816.276
929.5291, 7821.887
930.0112, 7823.735
930.4933, 7815.875
930.9754, 7801.608
931.4575, 7782.668
931.9396, 7761.347
932.4218, 7737.525
932.9039, 7711.524
933.3860, 7703.738
933.8681, 7756.833
934.3502, 7817.766
934.8323, 7806.521
935.3145, 7754.314
935.7966, 7723.300
936.2787, 7721.042
936.7608, 7728.207
937.2429, 7735.131
937.7250, 7739.258
938.2072, 7733.374
938.6893, 7724.024
939.1714, 7733.674
939.6535, 7754.229
940.1356, 7745.357
940.6177, 7702.054
941.0999, 7671.349
941.5820, 7688.541
942.0641, 7725.644
942.5462, 7729.276
943.0283, 7707.249
943.5104, 7700.455
943.9926, 7709.713
944.4747, 7723.100
944.9568, 7737.048
945.4389, 7750.505
945.9210, 7762.199
946.4031, 7773.304
946.8853, 7791.597
947.3674, 7816.928
947.8495, 7815.239
948.3316, 7781.645
948.8137, 7752.120
949.2958, 7739.821
949.7780, 7741.146
950.2601, 7755.044
950.7422, 7777.168
951.2243, 7780.717
951.7064, 7760.167
952.1885, 7759.260
952.6707, 7787.653
953.1528, 7814.596
953.6349, 7825.265
954.1170, 7828.436
954.5991, 7835.241
955.0812, 7845.666
955.5634, 7859.172
956.0455, 7872.295
956.5276, 7899.932
957.0097, 7949.102
957.4918, 8003.152
957.9739, 8055.462
958.4561, 8105.154
958.9382, 8151.974
959.4203, 8196.825
959.9024, 8225.908
960.3845, 8217.126
960.8666, 8236.675
961.3488, 8295.183
961.8309, 8383.838
962.3130, 8521.118
962.7951, 8672.347
963.2772, 8759.597
963.7593, 8758.678
964.2415, 8823.623
964.7236, 9002.314
965.2057, 9177.346
965.6878, 9321.121
966.1699, 9464.000
966.6520, 9628.617
967.1342, 9806.824
967.6163, 9977.300
968.0984, 10134.02
968.5805, 10305.12
969.0626, 10529.11
969.5447, 10718.90
970.0269, 10853.99
970.5090, 10946.05
970.9911, 11011.39
971.4732, 11040.21
971.9553, 11000.81
972.4374, 10875.30
972.9196, 10735.35
973.4017, 10588.74
973.8838, 10430.29
974.3659, 10242.89
974.8480, 10056.14
975.3301, 9895.952
975.8123, 9758.807
976.2944, 9634.482
976.7765, 9525.771
977.2586, 9415.229
977.7407, 9285.345
978.2228, 9170.071
978.7050, 9085.850
979.1871, 9022.716
979.6692, 8977.672
980.1513, 8944.489
980.6334, 8904.725
981.1155, 8849.245
981.5977, 8803.898
982.0798, 8770.505
982.5619, 8755.977
983.0440, 8767.533
983.5261, 8796.900
984.0082, 8843.836
984.4904, 8900.549
984.9725, 8938.690
985.4546, 8933.418
985.9367, 8961.603
986.4188, 9089.579
986.9009, 9215.497
987.3831, 9256.184
987.8652, 9277.991
988.3473, 9355.641
988.8294, 9491.459
989.3115, 9652.967
989.7936, 9833.262
990.2758, 10029.40
990.7579, 10225.69
991.2400, 10452.38
991.7221, 10730.55
992.2042, 11048.66
992.6863, 11390.16
993.1685, 11758.34
993.6506, 12176.89
994.1327, 12652.52
994.6148, 13176.96
995.0969, 13748.08
995.5790, 14365.77
996.0612, 15021.16
996.5433, 15725.12
997.0254, 16492.21
997.5075, 17325.19
997.9896, 18216.28
998.4717, 19156.17
998.9539, 20173.86
999.4360, 21291.17
999.9181, 22490.36
1000.400, 23789.30
1000.882, 25132.22
1001.364, 26505.89
1001.847, 27863.46
1002.329, 29066.61
1002.811, 30122.26
1003.293, 30852.29
1003.775, 31245.97
1004.257, 31213.95
1004.739, 30585.33
1005.221, 29561.46
1005.703, 28334.55
1006.186, 26962.94
1006.668, 25468.82
1007.150, 23819.86
1007.632, 22215.76
1008.114, 20710.74
1008.596, 19323.68
1009.078, 18060.11
1009.560, 16927.52
1010.043, 15948.94
1010.525, 15107.09
1011.007, 14343.33
1011.489, 13636.58
1011.971, 13002.60
1012.453, 12450.76
1012.935, 11964.88
1013.417, 11550.39
1013.899, 11187.80
1014.382, 10869.98
1014.864, 10588.20
1015.346, 10315.17
1015.828, 10036.70
1016.310, 9802.074
1016.792, 9662.063
1017.274, 9533.149
1017.756, 9367.887
1018.239, 9192.475
1018.721, 9030.950
1019.203, 8885.552
1019.685, 8751.811
1020.167, 8628.236
1020.649, 8518.890
1021.131, 8435.499
1021.613, 8352.930
1022.095, 8251.266
1022.578, 8151.602
1023.060, 8075.601
1023.542, 8017.597
1024.024, 7961.383
1024.506, 7905.553
1024.988, 7842.830
1025.470, 7750.883
1025.952, 7678.886
1026.435, 7667.342
1026.917, 7663.167
1027.399, 7619.249
1027.881, 7551.233
1028.363, 7497.987
1028.845, 7466.627
1029.327, 7432.229
1029.809, 7375.500
1030.292, 7335.768
1030.774, 7345.307
1031.256, 7353.189
1031.738, 7313.704
1032.220, 7253.061
1032.702, 7223.385
1033.184, 7231.470
1033.666, 7225.208
1034.148, 7186.259
1034.630, 7151.972
1035.113, 7130.626
1035.595, 7112.909
1036.077, 7090.323
1036.559, 7069.996
1037.041, 7066.002
1037.523, 7079.139
1038.005, 7082.903
1038.487, 7085.733
1038.970, 7064.638
1039.452, 6982.312
1039.934, 6923.014
1040.416, 6942.245
1040.898, 6987.627
1041.380, 6994.314
1041.862, 6966.796
1042.344, 6955.968
1042.826, 6975.167
1043.309, 6981.482
1043.791, 6967.773
1044.273, 6951.631
1044.755, 6938.342
1045.237, 6926.669
1045.719, 6915.383
1046.201, 6904.525
1046.683, 6895.566
1047.166, 6893.702
1047.648, 6872.014
1048.130, 6816.524
1048.612, 6784.675
1049.094, 6802.081
1049.576, 6826.746
1050.058, 6823.266
1050.540, 6800.886
1051.022, 6783.624
1051.505, 6771.531
1051.987, 6764.675
1052.469, 6763.713
1052.951, 6763.514
1053.433, 6762.148
1053.915, 6766.669
1054.397, 6783.710
1054.879, 6803.473
1055.361, 6807.610
1055.844, 6797.245
1056.326, 6784.705
1056.808, 6769.924
1057.290, 6756.582
1057.772, 6745.225
1058.254, 6744.723
1058.736, 6761.025
1059.218, 6774.524
1059.701, 6753.913
1060.183, 6714.163
1060.665, 6713.749
1061.147, 6742.536
1061.629, 6738.997
1062.111, 6701.363
1062.593, 6674.940
1063.075, 6677.334
1063.557, 6695.380
1064.040, 6720.516
1064.522, 6744.948
1065.004, 6752.638
1065.486, 6748.849
1065.968, 6747.250
1066.450, 6746.359
1066.932, 6734.197
1067.414, 6709.806
1067.896, 6689.830
1068.379, 6685.754
1068.861, 6690.361
1069.343, 6708.132
1069.825, 6719.986
1070.307, 6680.253
1070.789, 6621.431
1071.271, 6619.336
1071.753, 6670.438
1072.236, 6702.039
1072.718, 6679.436
1073.200, 6647.670
1073.682, 6628.188
1074.164, 6625.273
1074.646, 6658.988
1075.128, 6699.226
1075.610, 6706.596
1076.093, 6688.416
1076.575, 6673.072
1077.057, 6667.915
1077.539, 6669.627
1078.021, 6687.478
1078.503, 6697.761
1078.985, 6680.821
1079.467, 6661.011
1079.949, 6655.065
1080.432, 6660.385
1080.914, 6675.722
1081.396, 6699.369
1081.878, 6707.655
1082.360, 6675.764
1082.842, 6659.888
1083.324, 6681.316
1083.806, 6705.067
1084.288, 6718.470
1084.771, 6724.021
1085.253, 6720.138
1085.735, 6710.256
1086.217, 6712.333
1086.699, 6738.716
1087.181, 6743.363
1087.663, 6715.870
1088.145, 6686.882
1088.628, 6660.351
1089.110, 6642.394
1089.592, 6641.573
1090.074, 6647.180
1090.556, 6633.410
1091.038, 6598.924
1091.520, 6583.493
1092.002, 6587.768
1092.484, 6608.976
1092.967, 6648.020
1093.449, 6702.728
1093.931, 6779.522
1094.413, 6830.228
1094.895, 6784.906
1095.377, 6674.219
1095.859, 6608.368
1096.341, 6583.260
1096.823, 6569.451
1097.306, 6564.675
1097.788, 6579.323
1098.270, 6614.810
1098.752, 6640.406
1099.234, 6629.252
1099.716, 6605.119
1100.198, 6606.520
1100.680, 6620.373
1101.163, 6619.596
1101.645, 6608.414
1102.127, 6600.197
1102.609, 6596.571
1103.091, 6590.347
1103.573, 6577.808
1104.055, 6569.956
1104.537, 6587.044
1105.020, 6601.052
1105.502, 6572.644
1105.984, 6536.460
1106.466, 6539.148
1106.948, 6568.388
1107.430, 6591.071
1107.912, 6599.389
1108.394, 6597.773
1108.876, 6583.168
1109.359, 6566.315
1109.841, 6549.025
1110.323, 6533.214
1110.805, 6514.916
1111.287, 6502.452
1111.769, 6507.496
1112.251, 6528.029
1112.733, 6553.143
1113.215, 6596.764
1113.698, 6606.661
1114.180, 6538.873
1114.662, 6506.612
1115.144, 6564.557
1115.626, 6622.293
1116.108, 6614.546
1116.590, 6571.843
1117.072, 6550.884
1117.555, 6551.779
1118.037, 6544.177
1118.519, 6523.231
1119.001, 6524.609
1119.483, 6556.675
1119.965, 6584.441
1120.447, 6593.956
1120.929, 6586.537
1121.411, 6558.835
1121.894, 6526.609
1122.376, 6538.894
1122.858, 6584.819
1123.340, 6607.508
1123.822, 6608.070
1124.304, 6606.991
1124.786, 6609.017
1125.268, 6609.172
1125.750, 6604.475
1126.233, 6599.601
1126.715, 6602.125
1127.197, 6605.648
1127.679, 6603.711
1128.161, 6595.156
1128.643, 6570.065
1129.125, 6538.543
1129.607, 6525.951
1130.090, 6538.166
1130.572, 6561.654
1131.054, 6604.842
1131.536, 6630.551
1132.018, 6603.721
1132.500, 6570.447
1132.982, 6560.790
1133.464, 6563.796
1133.947, 6567.669
1134.429, 6570.319
1134.911, 6569.065
1135.393, 6561.788
1135.875, 6556.829
1136.357, 6554.915
1136.839, 6555.479
1137.321, 6560.685
1137.803, 6564.847
1138.286, 6562.953
1138.768, 6560.327
1139.250, 6565.026
1139.732, 6576.373
1140.214, 6588.602
1140.696, 6602.156
1141.178, 6613.614
1141.660, 6622.735
1142.142, 6632.383
1142.625, 6644.141
1143.107, 6642.285
1143.589, 6611.750
1144.071, 6575.096
1144.553, 6576.551
1145.035, 6602.091
1145.517, 6612.820
1145.999, 6609.828
1146.482, 6585.321
1146.964, 6550.945
1147.446, 6560.677
1147.928, 6630.763
1148.410, 6690.079
1148.892, 6680.305
1149.374, 6648.368
1149.856, 6618.225
1150.339, 6602.698
1150.821, 6632.673
1151.303, 6675.093
1151.785, 6671.517
1152.267, 6630.430
1152.749, 6620.152
1153.231, 6669.342
1153.713, 6700.785
1154.195, 6685.778
1154.677, 6666.355
1155.160, 6648.204
1155.642, 6636.965
1156.124, 6634.770
1156.606, 6642.171
1157.088, 6662.974
1157.570, 6695.325
1158.052, 6716.924
1158.534, 6725.677
1159.017, 6734.354
1159.499, 6745.279
1159.981, 6741.869
1160.463, 6716.333
1160.945, 6700.709
1161.427, 6720.009
1161.909, 6753.383
1162.391, 6770.845
1162.874, 6771.598
1163.356, 6740.162
1163.838, 6692.043
1164.320, 6685.603
1164.802, 6714.770
1165.284, 6722.462
1165.766, 6694.465
1166.248, 6683.011
1166.730, 6731.962
1167.213, 6785.242
1167.695, 6797.800
1168.177, 6792.900
1168.659, 6778.641
1169.141, 6768.497
1169.623, 6784.317
1170.105, 6816.417
1170.587, 6830.523
1171.069, 6816.646
1171.552, 6819.024
1172.034, 6863.131
1172.516, 6896.145
1172.998, 6904.945
1173.480, 6908.954
1173.962, 6916.790
1174.444, 6922.288
1174.926, 6917.126
1175.409, 6905.911
1175.891, 6906.138
1176.373, 6919.175
1176.855, 6921.086
1177.337, 6911.344
1177.819, 6917.486
1178.301, 6944.222
1178.783, 6969.641
1179.266, 6983.097
1179.748, 6991.817
1180.230, 7002.463
1180.712, 7014.436
1181.194, 7028.771
1181.676, 7042.341
1182.158, 7051.985
1182.640, 7055.328
1183.122, 7038.174
1183.604, 7009.570
1184.087, 7012.817
1184.569, 7068.456
1185.051, 7119.258
1185.533, 7139.334
1186.015, 7148.700
1186.497, 7138.712
1186.979, 7139.255
1187.461, 7187.456
1187.944, 7247.909
1188.426, 7266.614
1188.908, 7250.998
1189.390, 7246.839
1189.872, 7254.866
1190.354, 7273.573
1190.836, 7306.871
1191.318, 7334.361
1191.801, 7351.940
1192.283, 7356.975
1192.765, 7345.407
1193.247, 7340.875
1193.729, 7376.188
1194.211, 7435.535
1194.693, 7488.726
1195.175, 7531.817
1195.657, 7545.601
1196.140, 7541.915
1196.622, 7560.458
1197.104, 7601.991
1197.586, 7627.114
1198.068, 7616.292
1198.550, 7610.540
1199.032, 7633.150
1199.514, 7671.319
1199.996, 7735.529
1200.479, 7794.196
1200.961, 7822.710
1201.443, 7829.950
1201.925, 7823.014
1202.407, 7806.748
1202.889, 7809.933
1203.371, 7838.580
1203.853, 7866.530
1204.336, 7888.353
1204.818, 7931.341
1205.300, 8008.809
1205.782, 8065.791
1206.264, 8065.957
1206.746, 8080.200
1207.228, 8209.963
1207.710, 8382.434
1208.193, 8398.617
1208.675, 8313.170
1209.157, 8273.642
1209.639, 8277.018
1210.121, 8294.374
1210.603, 8316.092
1211.085, 8331.556
1211.567, 8336.311
1212.049, 8350.967
1212.531, 8406.486
1213.014, 8450.566
1213.496, 8437.107
1213.978, 8422.983
1214.460, 8450.640
1214.942, 8498.312
1215.424, 8544.151
1215.906, 8583.941
1216.388, 8606.049
1216.871, 8605.944
1217.353, 8615.901
1217.835, 8636.946
1218.317, 8665.936
1218.799, 8704.716
1219.281, 8733.437
1219.763, 8742.951
##END=



