##NAMES=Zircon
##RRUFFID=R100144
##IDEAL CHEMISTRY=Zr^4+^SiO_4_
##LOCALITY=Sri Lanka
##OWNER=RRUFF
##SOURCE=William W. Pinch
##DESCRIPTION=Brown, red, and green cut gemstones
##STATUS=The identification of this mineral has been confirmed by single-crystal X-ray diffraction.
##URL=rruff.info/R100144
90.60547, 12810.94
91.08759, 12512.15
91.56970, 12456.96
92.05182, 12553.86
92.53394, 12876.17
93.01605, 13194.15
93.49817, 13443.49
93.98029, 13643.93
94.46240, 13797.71
94.94452, 13892.91
95.42664, 13953.53
95.90874, 13997.70
96.39086, 14031.09
96.87298, 14054.91
97.35509, 14058.58
97.83721, 14016.63
98.31933, 13978.44
98.80145, 13947.20
99.28356, 13921.96
99.76568, 13901.78
100.2478, 13885.85
100.7299, 13875.29
101.2120, 13875.05
101.6941, 13887.07
102.1763, 13907.09
102.6584, 13935.08
103.1405, 13969.41
103.6226, 14008.51
104.1047, 14051.85
104.5868, 14098.51
105.0690, 14140.41
105.5511, 14170.70
106.0332, 14201.96
106.5153, 14240.82
106.9974, 14286.29
107.4795, 14332.02
107.9617, 14371.81
108.4438, 14407.48
108.9259, 14446.69
109.4080, 14492.15
109.8901, 14540.73
110.3722, 14588.25
110.8544, 14633.73
111.3365, 14679.39
111.8186, 14728.23
112.3007, 14778.40
112.7828, 14826.21
113.2649, 14867.27
113.7471, 14902.44
114.2292, 14941.37
114.7113, 14987.06
115.1934, 15034.50
115.6755, 15081.94
116.1576, 15129.36
116.6397, 15177.69
117.1219, 15228.60
117.6040, 15283.94
118.0861, 15336.08
118.5682, 15378.96
119.0503, 15423.37
119.5324, 15477.05
120.0146, 15540.89
120.4967, 15609.38
120.9788, 15672.92
121.4609, 15727.36
121.9430, 15782.01
122.4251, 15835.51
122.9073, 15889.67
123.3894, 15945.76
123.8715, 16004.42
124.3536, 16065.64
124.8357, 16129.67
125.3178, 16197.24
125.8000, 16265.34
126.2821, 16331.95
126.7642, 16397.83
127.2463, 16464.48
127.7284, 16533.26
128.2105, 16603.29
128.6927, 16672.85
129.1748, 16741.12
129.6569, 16810.58
130.1390, 16884.69
130.6211, 16964.39
131.1032, 17043.24
131.5854, 17118.61
132.0675, 17192.12
132.5496, 17263.63
133.0317, 17331.53
133.5138, 17399.77
133.9959, 17479.78
134.4781, 17581.79
134.9602, 17680.26
135.4423, 17766.75
135.9244, 17846.30
136.4065, 17925.24
136.8886, 18007.97
137.3708, 18094.36
137.8529, 18175.68
138.3350, 18249.07
138.8171, 18320.22
139.2992, 18390.46
139.7813, 18459.65
140.2635, 18527.73
140.7456, 18594.81
141.2277, 18661.81
141.7098, 18718.99
142.1919, 18757.80
142.6740, 18795.95
143.1561, 18846.44
143.6383, 18908.63
144.1204, 18968.73
144.6025, 19011.98
145.0846, 19035.15
145.5667, 19058.00
146.0488, 19081.44
146.5310, 19104.77
147.0131, 19128.56
147.4952, 19153.71
147.9773, 19175.39
148.4594, 19184.55
148.9415, 19183.53
149.4237, 19184.81
149.9058, 19194.84
150.3879, 19210.76
150.8700, 19224.90
151.3521, 19237.41
151.8342, 19245.55
152.3164, 19245.38
152.7985, 19238.08
153.2806, 19232.90
153.7627, 19239.18
154.2448, 19257.21
154.7269, 19270.14
155.2091, 19269.73
155.6912, 19267.82
156.1733, 19268.83
156.6554, 19273.68
157.1375, 19282.56
157.6196, 19296.70
158.1018, 19318.40
158.5839, 19338.49
159.0660, 19357.62
159.5481, 19374.44
160.0302, 19385.97
160.5123, 19392.22
160.9945, 19397.71
161.4766, 19410.49
161.9587, 19436.49
162.4408, 19461.81
162.9229, 19485.09
163.4050, 19508.26
163.8871, 19533.34
164.3693, 19561.14
164.8514, 19590.32
165.3335, 19617.59
165.8156, 19640.41
166.2977, 19664.89
166.7798, 19695.14
167.2620, 19727.02
167.7441, 19752.79
168.2262, 19767.81
168.7083, 19777.69
169.1904, 19798.36
169.6725, 19832.51
170.1547, 19869.36
170.6368, 19905.81
171.1189, 19941.78
171.6010, 19976.67
172.0831, 20009.35
172.5652, 20041.43
173.0474, 20076.74
173.5295, 20116.47
174.0116, 20156.95
174.4937, 20193.23
174.9758, 20225.42
175.4579, 20262.99
175.9401, 20314.69
176.4222, 20372.13
176.9043, 20425.81
177.3864, 20473.60
177.8685, 20519.12
178.3506, 20566.87
178.8328, 20617.00
179.3149, 20669.47
179.7970, 20725.29
180.2791, 20782.97
180.7612, 20840.86
181.2433, 20898.54
181.7255, 20956.61
182.2076, 21017.39
182.6897, 21084.71
183.1718, 21147.02
183.6539, 21197.39
184.1360, 21244.16
184.6181, 21296.09
185.1003, 21357.67
185.5824, 21425.79
186.0645, 21488.59
186.5466, 21537.00
187.0287, 21591.54
187.5108, 21658.65
187.9930, 21731.93
188.4751, 21801.79
188.9572, 21862.04
189.4393, 21916.41
189.9214, 21985.47
190.4035, 22083.64
190.8857, 22180.43
191.3678, 22268.53
191.8499, 22351.29
192.3320, 22435.08
192.8141, 22523.53
193.2962, 22616.38
193.7784, 22713.43
194.2605, 22806.06
194.7426, 22910.14
195.2247, 23030.97
195.7068, 23167.73
196.1889, 23316.60
196.6711, 23472.36
197.1532, 23641.25
197.6353, 23844.26
198.1174, 24094.45
198.5995, 24363.04
199.0816, 24646.04
199.5638, 24940.65
200.0459, 25230.71
200.5280, 25535.75
201.0101, 25815.10
201.4922, 25976.62
201.9743, 25986.69
202.4565, 25909.69
202.9386, 25768.15
203.4207, 25559.36
203.9028, 25374.04
204.3849, 25254.62
204.8670, 25195.55
205.3492, 25194.54
205.8313, 25264.99
206.3134, 25376.10
206.7955, 25492.58
207.2776, 25613.50
207.7597, 25744.40
208.2419, 25893.34
208.7240, 26051.79
209.2061, 26214.99
209.6882, 26385.96
210.1703, 26551.79
210.6524, 26693.29
211.1346, 26812.67
211.6167, 26896.46
212.0988, 26934.99
212.5809, 26942.56
213.0630, 26926.37
213.5451, 26886.56
214.0273, 26835.44
214.5094, 26798.13
214.9915, 26766.58
215.4736, 26767.88
215.9557, 26804.91
216.4378, 26871.07
216.9200, 26960.71
217.4021, 27070.97
217.8842, 27202.74
218.3663, 27357.14
218.8484, 27538.73
219.3305, 27740.54
219.8127, 27974.21
220.2948, 28221.19
220.7769, 28472.58
221.2590, 28724.38
221.7411, 28961.12
222.2232, 29137.75
222.7054, 29267.78
223.1875, 29306.31
223.6696, 29241.82
224.1517, 29089.28
224.6338, 28853.35
225.1159, 28535.02
225.5980, 28158.43
226.0802, 27792.29
226.5623, 27409.08
227.0444, 27072.31
227.5265, 26794.44
228.0086, 26563.68
228.4907, 26373.53
228.9729, 26222.01
229.4550, 26100.77
229.9371, 25992.00
230.4192, 25891.41
230.9013, 25808.25
231.3834, 25750.08
231.8656, 25709.27
232.3477, 25675.24
232.8298, 25644.15
233.3119, 25620.04
233.7940, 25598.09
234.2761, 25587.28
234.7583, 25580.05
235.2404, 25578.05
235.7225, 25578.40
236.2046, 25575.22
236.6867, 25565.41
237.1688, 25554.00
237.6510, 25550.78
238.1331, 25556.64
238.6152, 25561.71
239.0973, 25563.07
239.5794, 25561.25
240.0615, 25555.30
240.5437, 25541.67
241.0258, 25530.95
241.5079, 25540.68
241.9900, 25570.53
242.4721, 25597.61
242.9542, 25609.29
243.4364, 25611.04
243.9185, 25616.51
244.4006, 25628.46
244.8827, 25644.89
245.3648, 25665.66
245.8469, 25690.05
246.3290, 25711.71
246.8112, 25726.35
247.2933, 25735.71
247.7754, 25745.27
248.2575, 25755.33
248.7396, 25766.14
249.2217, 25776.18
249.7039, 25786.39
250.1860, 25800.61
250.6681, 25825.00
251.1502, 25855.66
251.6323, 25877.90
252.1144, 25886.98
252.5966, 25893.73
253.0787, 25903.18
253.5608, 25915.28
254.0429, 25930.31
254.5250, 25949.44
255.0071, 25971.66
255.4893, 25992.77
255.9714, 26010.56
256.4535, 26031.15
256.9356, 26061.32
257.4177, 26095.12
257.8998, 26122.25
258.3820, 26134.06
258.8641, 26136.37
259.3462, 26150.93
259.8283, 26186.84
260.3104, 26220.23
260.7925, 26243.16
261.2747, 26259.53
261.7568, 26273.87
262.2389, 26287.93
262.7210, 26302.32
263.2031, 26319.19
263.6852, 26339.74
264.1674, 26360.85
264.6495, 26381.36
265.1316, 26402.08
265.6137, 26423.96
266.0958, 26447.44
266.5779, 26471.88
267.0601, 26495.31
267.5422, 26516.09
268.0243, 26539.13
268.5064, 26570.63
268.9885, 26601.64
269.4706, 26621.85
269.9528, 26628.03
270.4349, 26628.73
270.9170, 26640.65
271.3991, 26669.84
271.8812, 26698.83
272.3633, 26729.07
272.8455, 26756.96
273.3276, 26778.28
273.8097, 26792.63
274.2918, 26804.39
274.7739, 26820.16
275.2560, 26841.52
275.7382, 26863.70
276.2202, 26889.51
276.7024, 26913.82
277.1845, 26931.36
277.6666, 26942.61
278.1487, 26954.06
278.6308, 26974.63
279.1129, 27009.35
279.5951, 27034.99
280.0772, 27041.43
280.5593, 27049.00
281.0414, 27072.61
281.5235, 27109.40
282.0056, 27143.95
282.4878, 27160.99
282.9699, 27158.21
283.4520, 27154.93
283.9341, 27146.16
284.4162, 27141.91
284.8983, 27150.55
285.3805, 27167.98
285.8626, 27182.52
286.3447, 27184.29
286.8268, 27173.75
287.3089, 27173.59
287.7910, 27192.03
288.2732, 27211.21
288.7553, 27228.59
289.2374, 27242.85
289.7195, 27251.57
290.2016, 27252.81
290.6837, 27248.23
291.1659, 27247.33
291.6480, 27251.02
292.1301, 27256.96
292.6122, 27263.68
293.0943, 27272.57
293.5764, 27287.49
294.0586, 27310.54
294.5407, 27336.63
295.0228, 27352.01
295.5049, 27341.45
295.9870, 27338.56
296.4691, 27350.34
296.9513, 27367.97
297.4334, 27382.51
297.9155, 27391.02
298.3976, 27395.79
298.8797, 27400.13
299.3618, 27400.15
299.8440, 27408.27
300.3261, 27431.67
300.8082, 27458.38
301.2903, 27478.18
301.7724, 27489.36
302.2545, 27498.12
302.7367, 27511.56
303.2188, 27530.36
303.7009, 27551.88
304.1830, 27578.20
304.6651, 27605.12
305.1472, 27629.75
305.6294, 27652.16
306.1115, 27674.48
306.5936, 27698.53
307.0757, 27724.51
307.5578, 27749.39
308.0399, 27769.51
308.5221, 27792.28
309.0042, 27823.99
309.4863, 27861.42
309.9684, 27895.09
310.4505, 27918.26
310.9326, 27933.10
311.4148, 27954.15
311.8969, 27985.57
312.3790, 28017.60
312.8611, 28046.86
313.3432, 28075.50
313.8253, 28106.71
314.3075, 28141.69
314.7896, 28181.17
315.2717, 28227.81
315.7538, 28294.44
316.2359, 28350.07
316.7180, 28379.02
317.2001, 28401.71
317.6823, 28442.07
318.1644, 28506.92
318.6465, 28582.90
319.1286, 28650.09
319.6107, 28701.23
320.0928, 28759.84
320.5750, 28827.70
321.0571, 28901.42
321.5392, 28980.59
322.0213, 29063.75
322.5034, 29146.97
322.9855, 29224.84
323.4677, 29296.17
323.9498, 29374.75
324.4319, 29461.96
324.9140, 29553.68
325.3961, 29647.99
325.8782, 29745.05
326.3604, 29847.47
326.8425, 29957.79
327.3246, 30075.13
327.8067, 30191.21
328.2888, 30307.07
328.7709, 30421.43
329.2531, 30529.17
329.7352, 30636.02
330.2173, 30750.13
330.6994, 30875.27
331.1815, 31011.17
331.6636, 31158.36
332.1458, 31322.74
332.6279, 31492.33
333.1100, 31668.57
333.5921, 31848.09
334.0742, 32027.71
334.5563, 32205.49
335.0385, 32385.41
335.5206, 32571.24
336.0027, 32763.14
336.4848, 32963.42
336.9669, 33179.45
337.4490, 33398.65
337.9312, 33609.83
338.4133, 33815.32
338.8954, 34026.74
339.3775, 34255.90
339.8596, 34505.16
340.3417, 34748.32
340.8239, 34966.56
341.3060, 35197.93
341.7881, 35456.08
342.2702, 35738.11
342.7523, 36034.52
343.2344, 36338.37
343.7166, 36650.88
344.1987, 36975.50
344.6808, 37310.85
345.1629, 37662.88
345.6450, 38023.11
346.1271, 38401.92
346.6093, 38813.77
347.0914, 39260.67
347.5735, 39734.76
348.0556, 40211.73
348.5377, 40683.89
349.0198, 41179.80
349.5020, 41727.91
349.9841, 42276.02
350.4662, 42798.62
350.9483, 43283.86
351.4304, 43722.08
351.9125, 44107.14
352.3947, 44448.61
352.8768, 44666.87
353.3589, 44741.22
353.8410, 44714.88
354.3231, 44579.80
354.8052, 44354.19
355.2874, 44063.77
355.7695, 43721.75
356.2516, 43334.77
356.7337, 42930.16
357.2158, 42471.63
357.6979, 42046.48
358.1800, 41667.55
358.6621, 41327.98
359.1443, 41022.07
359.6264, 40745.95
360.1085, 40502.05
360.5906, 40295.11
361.0727, 40134.59
361.5548, 39988.09
362.0370, 39846.98
362.5191, 39722.05
363.0012, 39622.93
363.4833, 39548.43
363.9654, 39489.74
364.4475, 39433.19
364.9297, 39376.83
365.4118, 39355.67
365.8939, 39395.22
366.3760, 39444.27
366.8581, 39474.98
367.3402, 39499.30
367.8224, 39544.96
368.3045, 39633.32
368.7866, 39749.15
369.2687, 39846.34
369.7508, 39914.23
370.2329, 39986.66
370.7151, 40076.29
371.1972, 40175.40
371.6793, 40277.81
372.1614, 40380.75
372.6435, 40489.25
373.1256, 40610.87
373.6078, 40746.41
374.0899, 40881.26
374.5720, 41007.78
375.0541, 41137.50
375.5362, 41285.97
376.0183, 41450.56
376.5005, 41602.14
376.9826, 41710.85
377.4647, 41789.85
377.9468, 41891.40
378.4289, 42027.18
378.9110, 42165.75
379.3932, 42291.13
379.8753, 42403.82
380.3574, 42502.57
380.8395, 42584.89
381.3216, 42654.91
381.8037, 42715.33
382.2859, 42766.18
382.7680, 42813.18
383.2501, 42859.61
383.7322, 42902.80
384.2143, 42942.47
384.6964, 42981.83
385.1786, 43006.30
385.6607, 42998.55
386.1428, 42969.41
386.6249, 42950.57
387.1070, 42954.38
387.5891, 42956.55
388.0713, 42927.40
388.5534, 42870.09
389.0355, 42800.17
389.5176, 42714.98
389.9997, 42622.24
390.4818, 42530.88
390.9640, 42440.54
391.4461, 42343.55
391.9282, 42232.64
392.4103, 42110.39
392.8924, 41992.39
393.3745, 41886.23
393.8567, 41775.10
394.3388, 41650.60
394.8209, 41516.48
395.3030, 41381.49
395.7851, 41247.33
396.2672, 41113.34
396.7494, 40976.55
397.2315, 40835.99
397.7136, 40695.02
398.1957, 40551.42
398.6778, 40407.47
399.1599, 40263.93
399.6420, 40121.21
400.1241, 39980.54
400.6063, 39843.55
401.0884, 39709.93
401.5705, 39576.07
402.0526, 39433.76
402.5347, 39300.59
403.0168, 39185.45
403.4990, 39082.57
403.9811, 38984.05
404.4632, 38886.68
404.9453, 38790.30
405.4274, 38693.86
405.9095, 38593.14
406.3917, 38501.98
406.8738, 38419.87
407.3559, 38347.41
407.8380, 38285.50
408.3201, 38233.66
408.8022, 38189.32
409.2844, 38149.48
409.7665, 38114.13
410.2486, 38083.68
410.7307, 38055.84
411.2128, 38035.67
411.6949, 38024.58
412.1771, 38021.75
412.6592, 38025.89
413.1413, 38036.41
413.6234, 38053.06
414.1055, 38076.89
414.5876, 38111.17
415.0698, 38142.97
415.5519, 38165.14
416.0340, 38186.65
416.5161, 38211.65
416.9982, 38241.47
417.4803, 38279.02
417.9625, 38324.45
418.4446, 38378.84
418.9267, 38453.24
419.4088, 38557.50
419.8909, 38665.11
420.3730, 38756.50
420.8552, 38838.29
421.3373, 38922.67
421.8194, 39013.71
422.3015, 39108.90
422.7836, 39205.20
423.2657, 39302.41
423.7479, 39401.10
424.2300, 39496.32
424.7121, 39598.27
425.1942, 39721.72
425.6763, 39867.79
426.1584, 40026.20
426.6406, 40195.53
427.1227, 40374.00
427.6048, 40552.79
428.0869, 40730.51
428.5690, 40925.55
429.0511, 41156.02
429.5333, 41424.62
430.0154, 41698.63
430.4975, 41971.96
430.9796, 42256.85
431.4617, 42559.44
431.9438, 42877.59
432.4260, 43210.30
432.9081, 43556.48
433.3902, 43910.72
433.8723, 44259.96
434.3544, 44610.18
434.8365, 44942.19
435.3187, 45275.56
435.8008, 45576.94
436.2829, 45825.88
436.7650, 46015.14
437.2471, 46136.30
437.7292, 46180.52
438.2114, 46147.45
438.6935, 46055.19
439.1756, 45880.26
439.6577, 45670.63
440.1398, 45411.69
440.6219, 45132.82
441.1040, 44871.71
441.5862, 44645.30
442.0683, 44442.43
442.5504, 44243.89
443.0325, 44043.75
443.5146, 43865.67
443.9967, 43702.82
444.4789, 43571.09
444.9610, 43486.23
445.4431, 43443.71
445.9252, 43424.15
446.4073, 43415.58
446.8894, 43419.19
447.3716, 43439.56
447.8537, 43476.43
448.3358, 43530.38
448.8179, 43612.37
449.3000, 43706.79
449.7821, 43797.61
450.2643, 43880.54
450.7464, 43963.70
451.2285, 44057.99
451.7106, 44159.89
452.1927, 44250.84
452.6748, 44328.78
453.1570, 44390.49
453.6391, 44432.88
454.1212, 44457.27
454.6033, 44458.83
455.0854, 44440.62
455.5675, 44396.08
456.0497, 44322.32
456.5318, 44218.31
457.0139, 44076.60
457.4960, 43891.82
457.9781, 43668.58
458.4602, 43415.64
458.9424, 43140.04
459.4245, 42828.76
459.9066, 42482.06
460.3887, 42098.13
460.8708, 41666.27
461.3529, 41189.20
461.8351, 40692.84
462.3172, 40196.56
462.7993, 39703.26
463.2814, 39207.79
463.7635, 38711.75
464.2456, 38211.98
464.7278, 37693.73
465.2099, 37171.26
465.6920, 36663.79
466.1741, 36176.31
466.6562, 35708.16
467.1383, 35259.77
467.6205, 34831.27
468.1026, 34410.32
468.5847, 33998.74
469.0668, 33592.42
469.5489, 33187.62
470.0310, 32787.11
470.5132, 32402.41
470.9953, 32040.76
471.4774, 31698.83
471.9595, 31368.24
472.4416, 31049.42
472.9237, 30742.46
473.4059, 30454.55
473.8880, 30176.41
474.3701, 29899.06
474.8522, 29622.95
475.3343, 29353.36
475.8164, 29092.46
476.2986, 28842.54
476.7807, 28606.86
477.2628, 28387.50
477.7449, 28178.19
478.2270, 27974.26
478.7091, 27776.96
479.1913, 27591.65
479.6734, 27426.97
480.1555, 27265.24
480.6376, 27093.54
481.1197, 26918.67
481.6018, 26754.60
482.0839, 26606.00
482.5660, 26467.86
483.0482, 26333.38
483.5303, 26205.04
484.0124, 26072.34
484.4945, 25926.62
484.9766, 25785.20
485.4587, 25657.80
485.9409, 25541.70
486.4230, 25429.62
486.9051, 25317.17
487.3872, 25204.50
487.8693, 25092.82
488.3514, 24978.59
488.8336, 24870.78
489.3157, 24773.64
489.7978, 24679.48
490.2799, 24583.49
490.7620, 24485.71
491.2441, 24389.90
491.7263, 24300.41
492.2084, 24215.72
492.6905, 24126.96
493.1726, 24030.68
493.6547, 23939.47
494.1368, 23863.59
494.6190, 23793.75
495.1011, 23721.29
495.5832, 23644.84
496.0653, 23565.69
496.5474, 23482.04
497.0295, 23396.79
497.5117, 23321.57
497.9938, 23260.38
498.4759, 23198.50
498.9580, 23119.41
499.4401, 23027.38
499.9222, 22946.76
500.4044, 22887.96
500.8865, 22831.28
501.3686, 22764.61
501.8507, 22692.57
502.3328, 22623.96
502.8149, 22562.04
503.2971, 22503.66
503.7792, 22445.48
504.2613, 22389.25
504.7434, 22324.30
505.2255, 22239.21
505.7076, 22157.87
506.1898, 22094.67
506.6719, 22043.66
507.1540, 21993.11
507.6361, 21937.04
508.1182, 21875.49
508.6003, 21807.30
509.0825, 21727.00
509.5646, 21654.62
510.0467, 21598.84
510.5288, 21545.80
511.0109, 21489.93
511.4930, 21430.13
511.9752, 21365.21
512.4573, 21290.65
512.9394, 21212.74
513.4215, 21148.51
513.9036, 21100.63
514.3857, 21047.46
514.8679, 20976.97
515.3500, 20899.08
515.8321, 20826.56
516.3142, 20759.90
516.7963, 20696.34
517.2784, 20637.08
517.7606, 20578.82
518.2427, 20514.90
518.7248, 20445.26
519.2069, 20379.13
519.6890, 20323.79
520.1711, 20276.33
520.6533, 20223.97
521.1354, 20163.16
521.6175, 20102.64
522.0996, 20046.27
522.5817, 19989.65
523.0638, 19927.33
523.5460, 19859.52
524.0281, 19791.38
524.5102, 19727.73
524.9923, 19668.81
525.4744, 19615.76
525.9565, 19581.03
526.4387, 19536.10
526.9208, 19466.16
527.4029, 19388.29
527.8850, 19321.24
528.3671, 19269.49
528.8492, 19222.70
529.3314, 19170.34
529.8135, 19113.22
530.2956, 19057.93
530.7777, 19005.81
531.2598, 18954.00
531.7419, 18899.70
532.2241, 18844.94
532.7062, 18792.75
533.1883, 18745.72
533.6704, 18697.51
534.1525, 18644.69
534.6346, 18587.24
535.1168, 18521.39
535.5989, 18445.23
536.0810, 18372.31
536.5631, 18318.64
537.0452, 18285.18
537.5273, 18242.14
538.0095, 18180.72
538.4916, 18120.25
538.9737, 18068.30
539.4558, 18021.39
539.9379, 17974.33
540.4200, 17925.41
540.9022, 17875.21
541.3843, 17825.50
541.8664, 17777.33
542.3485, 17723.66
542.8306, 17655.18
543.3127, 17591.85
543.7948, 17543.74
544.2769, 17503.91
544.7590, 17462.40
545.2411, 17415.62
545.7233, 17365.41
546.2054, 17314.13
546.6875, 17261.58
547.1696, 17208.39
547.6517, 17154.57
548.1339, 17100.20
548.6160, 17043.87
549.0981, 16986.89
549.5802, 16932.58
550.0623, 16883.90
550.5444, 16835.85
551.0266, 16783.34
551.5087, 16729.01
551.9908, 16679.62
552.4729, 16637.38
552.9550, 16597.06
553.4371, 16552.46
553.9193, 16503.00
554.4014, 16451.65
554.8835, 16395.07
555.3656, 16340.77
555.8477, 16292.89
556.3298, 16248.30
556.8120, 16202.60
557.2941, 16153.98
557.7762, 16105.43
558.2583, 16061.25
558.7404, 16022.31
559.2225, 15982.27
559.7047, 15941.37
560.1868, 15899.02
560.6689, 15854.45
561.1510, 15808.43
561.6331, 15761.52
562.1152, 15713.41
562.5974, 15666.12
563.0795, 15620.91
563.5616, 15577.94
564.0437, 15538.75
564.5258, 15504.10
565.0079, 15469.99
565.4901, 15431.54
565.9722, 15389.45
566.4543, 15353.72
566.9364, 15333.57
567.4185, 15309.39
567.9006, 15269.85
568.3828, 15223.35
568.8649, 15181.63
569.3470, 15147.93
569.8291, 15116.83
570.3112, 15082.41
570.7933, 15044.21
571.2755, 15009.00
571.7576, 14977.48
572.2397, 14948.14
572.7218, 14919.63
573.2039, 14893.28
573.6860, 14871.21
574.1682, 14853.71
574.6503, 14837.55
575.1324, 14820.48
575.6145, 14802.21
576.0966, 14781.55
576.5787, 14758.28
577.0609, 14733.01
577.5430, 14704.96
578.0251, 14675.68
578.5072, 14648.48
578.9893, 14622.01
579.4714, 14600.86
579.9536, 14591.60
580.4357, 14586.18
580.9178, 14574.91
581.3999, 14556.74
581.8820, 14534.50
582.3641, 14509.56
582.8463, 14483.17
583.3284, 14462.34
583.8105, 14449.63
584.2926, 14439.29
584.7747, 14435.70
585.2568, 14430.61
585.7390, 14414.86
586.2211, 14390.45
586.7032, 14368.76
587.1853, 14358.25
587.6674, 14356.03
588.1495, 14355.85
588.6317, 14358.68
589.1138, 14357.23
589.5959, 14345.44
590.0780, 14331.85
590.5601, 14327.86
591.0422, 14333.22
591.5244, 14335.88
592.0065, 14328.79
592.4886, 14320.00
592.9707, 14315.58
593.4528, 14315.67
593.9349, 14321.16
594.4171, 14333.01
594.8992, 14345.59
595.3813, 14348.43
595.8634, 14336.08
596.3455, 14329.88
596.8276, 14338.31
597.3098, 14343.02
597.7919, 14332.69
598.2740, 14314.23
598.7561, 14299.50
599.2382, 14293.36
599.7203, 14291.94
600.2025, 14291.56
600.6846, 14292.14
601.1667, 14288.82
601.6488, 14279.27
602.1309, 14269.84
602.6130, 14268.53
603.0952, 14270.11
603.5773, 14263.13
604.0594, 14242.42
604.5415, 14220.28
605.0236, 14205.02
605.5057, 14191.47
605.9879, 14169.56
606.4700, 14138.64
606.9521, 14109.42
607.4342, 14091.43
607.9163, 14082.84
608.3984, 14069.75
608.8806, 14049.40
609.3627, 14027.83
609.8448, 14007.29
610.3269, 13984.31
610.8090, 13954.87
611.2911, 13919.82
611.7733, 13884.45
612.2554, 13853.44
612.7375, 13823.66
613.2196, 13785.12
613.7017, 13736.17
614.1838, 13694.95
614.6660, 13671.27
615.1481, 13652.15
615.6302, 13621.41
616.1123, 13579.96
616.5944, 13539.67
617.0765, 13503.85
617.5587, 13469.22
618.0408, 13433.58
618.5229, 13397.46
619.0050, 13362.74
619.4871, 13330.00
619.9692, 13296.06
620.4514, 13255.60
620.9335, 13206.46
621.4156, 13165.96
621.8977, 13139.65
622.3798, 13115.81
622.8619, 13094.70
623.3441, 13072.96
623.8262, 13047.06
624.3083, 13016.32
624.7904, 12982.33
625.2725, 12944.79
625.7546, 12905.42
626.2367, 12868.57
626.7188, 12834.29
627.2009, 12804.44
627.6830, 12780.96
628.1652, 12761.61
628.6473, 12741.85
629.1294, 12724.04
629.6115, 12699.26
630.0936, 12658.19
630.5757, 12616.47
631.0579, 12584.54
631.5400, 12561.58
632.0221, 12543.44
632.5042, 12528.24
632.9863, 12513.97
633.4684, 12497.86
633.9506, 12480.89
634.4327, 12456.11
634.9148, 12413.64
635.3969, 12375.68
635.8790, 12355.82
636.3611, 12346.66
636.8433, 12335.27
637.3254, 12317.82
637.8075, 12299.97
638.2896, 12287.89
638.7717, 12277.82
639.2538, 12261.62
639.7360, 12238.39
640.2181, 12213.04
640.7002, 12188.33
641.1823, 12164.91
641.6644, 12145.06
642.1465, 12134.17
642.6287, 12119.65
643.1108, 12097.09
643.5929, 12074.71
644.0750, 12058.03
644.5571, 12046.42
645.0392, 12036.24
645.5214, 12025.48
646.0035, 12015.43
646.4856, 12009.26
646.9677, 12006.95
647.4498, 12001.67
647.9319, 11990.11
648.4141, 11979.80
648.8962, 11978.64
649.3783, 11984.07
649.8604, 11986.64
650.3425, 11983.62
650.8246, 11980.18
651.3068, 11977.46
651.7889, 11975.78
652.2710, 11975.50
652.7531, 11976.69
653.2352, 11979.80
653.7173, 11985.68
654.1995, 11992.93
654.6816, 11994.61
655.1637, 11985.56
655.6458, 11983.38
656.1279, 11997.20
656.6100, 12013.53
657.0922, 12024.99
657.5743, 12032.45
658.0564, 12040.18
658.5385, 12050.53
659.0206, 12060.91
659.5027, 12068.85
659.9849, 12074.83
660.4670, 12079.97
660.9491, 12084.45
661.4312, 12089.75
661.9133, 12097.72
662.3954, 12108.02
662.8776, 12115.56
663.3597, 12117.47
663.8418, 12120.44
664.3239, 12123.89
664.8060, 12129.64
665.2881, 12139.61
665.7703, 12153.45
666.2524, 12169.58
666.7345, 12188.83
667.2166, 12207.22
667.6987, 12215.90
668.1808, 12215.19
668.6630, 12216.36
669.1451, 12221.89
669.6272, 12230.17
670.1093, 12239.39
670.5914, 12249.85
671.0735, 12263.60
671.5557, 12285.18
672.0378, 12304.33
672.5199, 12315.44
673.0020, 12323.52
673.4841, 12333.12
673.9662, 12345.45
674.4484, 12361.22
674.9305, 12381.88
675.4126, 12405.15
675.8947, 12422.58
676.3768, 12432.16
676.8589, 12445.13
677.3411, 12465.22
677.8232, 12488.04
678.3053, 12512.14
678.7874, 12536.33
679.2695, 12555.73
679.7516, 12567.58
680.2338, 12576.55
680.7159, 12582.89
681.1980, 12589.09
681.6801, 12599.54
682.1622, 12614.69
682.6443, 12631.91
683.1265, 12649.42
683.6086, 12666.68
684.0907, 12680.58
684.5728, 12686.44
685.0549, 12698.87
685.5370, 12726.08
686.0192, 12754.56
686.5013, 12778.21
686.9834, 12796.65
687.4655, 12810.19
687.9476, 12817.23
688.4297, 12822.30
688.9119, 12827.23
689.3940, 12833.57
689.8761, 12846.52
690.3582, 12866.89
690.8403, 12887.27
691.3224, 12902.63
691.8046, 12913.05
692.2867, 12918.52
692.7688, 12914.45
693.2509, 12913.09
693.7330, 12915.14
694.2151, 12919.86
694.6973, 12929.52
695.1794, 12941.35
695.6615, 12949.21
696.1436, 12950.13
696.6257, 12947.33
697.1078, 12943.19
697.5900, 12938.16
698.0721, 12932.71
698.5542, 12926.60
699.0363, 12925.12
699.5184, 12934.09
700.0005, 12948.69
700.4827, 12951.92
700.9648, 12935.73
701.4469, 12920.75
701.9290, 12906.71
702.4111, 12894.35
702.8932, 12885.51
703.3754, 12878.47
703.8575, 12869.04
704.3396, 12855.34
704.8217, 12842.18
705.3038, 12838.99
705.7859, 12842.31
706.2681, 12833.22
706.7502, 12808.34
707.2323, 12784.93
707.7144, 12774.13
708.1965, 12769.45
708.6786, 12755.79
709.1607, 12731.13
709.6428, 12703.94
710.1249, 12670.55
710.6071, 12638.75
711.0892, 12613.61
711.5713, 12593.03
712.0534, 12573.97
712.5355, 12555.11
713.0176, 12535.23
713.4998, 12512.74
713.9819, 12487.97
714.4640, 12462.77
714.9461, 12437.87
715.4282, 12408.44
715.9103, 12370.31
716.3925, 12329.36
716.8746, 12295.61
717.3567, 12270.53
717.8388, 12240.05
718.3209, 12199.56
718.8030, 12157.27
719.2852, 12117.14
719.7673, 12077.54
720.2494, 12034.46
720.7315, 11987.83
721.2136, 11943.31
721.6957, 11908.12
722.1779, 11878.07
722.6600, 11837.92
723.1421, 11786.34
723.6242, 11733.79
724.1063, 11683.23
724.5884, 11632.95
725.0706, 11581.60
725.5527, 11528.88
726.0348, 11476.32
726.5169, 11424.74
726.9990, 11372.20
727.4811, 11318.76
727.9633, 11263.58
728.4454, 11205.03
728.9275, 11144.09
729.4096, 11085.51
729.8917, 11033.31
730.3738, 10983.42
730.8560, 10925.52
731.3381, 10859.41
731.8202, 10797.00
732.3023, 10742.01
732.7844, 10686.48
733.2665, 10622.93
733.7487, 10554.24
734.2308, 10491.15
734.7129, 10436.44
735.1950, 10382.71
735.6771, 10331.38
736.1592, 10277.83
736.6414, 10216.38
737.1235, 10149.50
737.6056, 10083.23
738.0877, 10019.65
738.5698, 9958.752
739.0519, 9900.084
739.5341, 9843.791
740.0162, 9791.334
740.4983, 9744.306
740.9804, 9694.605
741.4625, 9637.588
741.9446, 9576.415
742.4268, 9516.285
742.9089, 9456.659
743.3910, 9400.047
743.8731, 9348.405
744.3552, 9297.890
744.8373, 9248.443
745.3195, 9198.182
745.8016, 9142.484
746.2837, 9081.731
746.7658, 9024.399
747.2479, 8980.991
747.7300, 8945.502
748.2122, 8900.796
748.6943, 8846.665
749.1764, 8794.002
749.6585, 8746.613
750.1406, 8699.727
750.6227, 8646.604
751.1049, 8587.851
751.5870, 8536.375
752.0691, 8498.998
752.5512, 8459.162
753.0333, 8412.027
753.5154, 8362.522
753.9976, 8312.789
754.4797, 8264.454
754.9618, 8220.203
755.4439, 8181.821
755.9260, 8145.806
756.4081, 8108.298
756.8903, 8069.248
757.3724, 8028.703
757.8545, 7986.443
758.3366, 7945.094
758.8187, 7906.517
759.3008, 7869.516
759.7830, 7830.781
760.2651, 7788.100
760.7472, 7748.822
761.2293, 7716.899
761.7114, 7683.992
762.1935, 7645.511
762.6757, 7604.708
763.1578, 7565.304
763.6399, 7528.376
764.1220, 7494.058
764.6041, 7463.459
765.0862, 7434.970
765.5684, 7406.888
766.0505, 7378.721
766.5326, 7349.500
767.0147, 7318.837
767.4968, 7285.978
767.9789, 7249.515
768.4611, 7209.547
768.9432, 7175.646
769.4253, 7150.364
769.9074, 7126.499
770.3895, 7105.894
770.8716, 7083.615
771.3538, 7055.679
771.8359, 7023.347
772.3180, 6990.939
772.8001, 6959.437
773.2822, 6929.034
773.7643, 6898.821
774.2465, 6870.524
774.7286, 6848.721
775.2107, 6832.158
775.6928, 6812.906
776.1749, 6786.284
776.6570, 6756.184
777.1392, 6730.250
777.6213, 6709.065
778.1034, 6687.850
778.5855, 6667.116
779.0676, 6645.296
779.5497, 6621.927
780.0319, 6596.974
780.5140, 6569.398
780.9961, 6538.542
781.4782, 6512.101
781.9603, 6495.625
782.4424, 6480.062
782.9246, 6459.079
783.4067, 6435.995
783.8888, 6417.070
784.3709, 6402.629
784.8530, 6386.442
785.3351, 6362.767
785.8173, 6335.138
786.2994, 6312.336
786.7815, 6294.439
787.2636, 6279.553
787.7457, 6268.839
788.2278, 6255.951
788.7100, 6234.265
789.1921, 6207.102
789.6742, 6188.330
790.1563, 6185.334
790.6384, 6176.740
791.1205, 6157.917
791.6026, 6136.842
792.0847, 6115.570
792.5668, 6095.983
793.0490, 6081.486
793.5311, 6072.997
794.0132, 6063.708
794.4953, 6048.548
794.9774, 6028.655
795.4595, 6003.426
795.9417, 5974.404
796.4238, 5951.648
796.9059, 5938.597
797.3880, 5928.630
797.8701, 5914.570
798.3522, 5896.572
798.8344, 5879.281
799.3165, 5862.090
799.7986, 5846.459
800.2807, 5836.106
800.7628, 5824.142
801.2449, 5804.235
801.7271, 5779.563
802.2092, 5758.996
802.6913, 5744.917
803.1734, 5734.416
803.6555, 5728.126
804.1376, 5723.416
804.6198, 5719.563
805.1019, 5714.758
805.5840, 5703.658
806.0661, 5684.177
806.5482, 5662.670
807.0303, 5648.098
807.5125, 5639.640
807.9946, 5629.418
808.4767, 5617.202
808.9588, 5604.251
809.4409, 5590.342
809.9230, 5577.087
810.4052, 5567.678
810.8873, 5562.017
811.3694, 5550.155
811.8515, 5524.415
812.3336, 5503.005
812.8157, 5491.772
813.2979, 5484.308
813.7800, 5475.945
814.2621, 5466.909
814.7442, 5459.967
815.2263, 5456.857
815.7084, 5453.123
816.1906, 5443.620
816.6727, 5430.700
817.1548, 5418.855
817.6369, 5408.393
818.1190, 5399.040
818.6011, 5390.825
819.0833, 5381.969
819.5654, 5369.377
820.0475, 5352.760
820.5296, 5340.086
821.0117, 5334.142
821.4938, 5326.115
821.9760, 5311.250
822.4581, 5295.638
822.9402, 5285.350
823.4223, 5279.045
823.9044, 5270.240
824.3865, 5255.673
824.8687, 5241.639
825.3508, 5229.737
825.8329, 5220.080
826.3150, 5215.492
826.7971, 5213.154
827.2792, 5205.318
827.7614, 5188.466
828.2435, 5168.971
828.7256, 5154.196
829.2077, 5143.289
829.6898, 5133.216
830.1719, 5123.933
830.6541, 5115.065
831.1362, 5106.469
831.6183, 5098.472
832.1004, 5091.946
832.5825, 5086.854
833.0646, 5077.601
833.5468, 5058.409
834.0289, 5044.219
834.5110, 5040.152
834.9931, 5038.264
835.4752, 5034.349
835.9573, 5028.518
836.4395, 5021.686
836.9216, 5013.895
837.4037, 5005.835
837.8858, 4996.733
838.3679, 4988.401
838.8500, 4983.969
839.3322, 4981.774
839.8143, 4977.379
840.2964, 4969.319
840.7785, 4959.673
841.2606, 4950.162
841.7427, 4941.205
842.2249, 4934.899
842.7070, 4931.339
843.1891, 4928.307
843.6712, 4925.558
844.1533, 4922.237
844.6354, 4917.459
845.1176, 4911.518
845.5997, 4905.956
846.0818, 4900.880
846.5639, 4896.049
847.0460, 4892.631
847.5281, 4888.189
848.0103, 4880.503
848.4924, 4871.524
848.9745, 4864.164
849.4566, 4859.007
849.9387, 4854.492
850.4208, 4850.483
850.9030, 4846.158
851.3851, 4840.687
851.8672, 4834.359
852.3493, 4827.673
852.8314, 4820.802
853.3135, 4813.694
853.7957, 4806.427
854.2778, 4798.810
854.7599, 4790.578
855.2420, 4781.709
855.7241, 4771.783
856.2062, 4760.621
856.6884, 4748.886
857.1705, 4736.057
857.6526, 4724.180
858.1347, 4718.043
858.6168, 4720.670
859.0989, 4715.178
859.5811, 4692.948
860.0632, 4673.917
860.5453, 4665.581
861.0274, 4659.974
861.5095, 4649.437
861.9916, 4634.667
862.4738, 4622.242
862.9559, 4617.981
863.4380, 4609.553
863.9201, 4583.525
864.4022, 4552.627
864.8843, 4533.782
865.3665, 4524.729
865.8486, 4514.108
866.3307, 4497.113
866.8128, 4477.517
867.2949, 4460.127
867.7770, 4444.202
868.2592, 4425.732
868.7413, 4404.706
869.2234, 4384.896
869.7055, 4367.441
870.1876, 4350.807
870.6697, 4333.824
871.1519, 4316.497
871.6340, 4299.073
872.1161, 4281.601
872.5981, 4263.872
873.0803, 4245.581
873.5624, 4227.424
874.0445, 4209.918
874.5266, 4192.628
875.0087, 4174.845
875.4908, 4156.605
875.9730, 4137.251
876.4551, 4115.544
876.9372, 4093.882
877.4193, 4073.532
877.9014, 4054.267
878.3835, 4035.579
878.8657, 4017.554
879.3478, 4000.974
879.8299, 3986.692
880.3120, 3972.566
880.7941, 3954.749
881.2762, 3939.404
881.7584, 3917.841
882.2405, 3904.312
882.7226, 3888.592
883.2047, 3867.992
883.6868, 3846.699
884.1689, 3830.788
884.6511, 3820.016
885.1332, 3807.813
885.6153, 3794.309
886.0974, 3778.714
886.5795, 3759.152
887.0616, 3739.542
887.5438, 3721.667
888.0259, 3706.002
888.5080, 3694.416
888.9901, 3690.344
889.4722, 3682.115
889.9543, 3662.063
890.4365, 3643.908
890.9186, 3637.485
891.4007, 3636.011
891.8828, 3630.345
892.3649, 3619.077
892.8470, 3606.240
893.3292, 3593.851
893.8113, 3581.185
894.2934, 3567.165
894.7755, 3552.622
895.2576, 3538.897
895.7397, 3526.305
896.2219, 3514.704
896.7040, 3504.074
897.1861, 3494.957
897.6682, 3488.916
898.1503, 3485.466
898.6324, 3480.587
899.1146, 3474.282
899.5967, 3466.531
900.0788, 3457.296
900.5609, 3446.427
901.0430, 3433.177
901.5251, 3418.246
902.0073, 3405.968
902.4894, 3395.917
902.9715, 3389.315
903.4536, 3389.216
903.9357, 3389.075
904.4178, 3385.702
904.9000, 3380.720
905.3821, 3376.407
905.8642, 3373.000
906.3463, 3369.157
906.8284, 3364.393
907.3105, 3359.332
907.7927, 3354.524
908.2748, 3349.418
908.7569, 3343.127
909.2390, 3335.970
909.7211, 3328.923
910.2032, 3322.339
910.6854, 3316.564
911.1675, 3312.302
911.6496, 3308.792
912.1317, 3304.720
912.6138, 3300.278
913.0959, 3296.429
913.5781, 3293.422
914.0602, 3290.530
914.5423, 3287.063
915.0244, 3283.182
915.5065, 3279.081
915.9886, 3274.752
916.4708, 3271.687
916.9529, 3270.364
917.4350, 3268.511
917.9171, 3264.487
918.3992, 3259.999
918.8813, 3258.457
919.3635, 3260.702
919.8456, 3259.425
920.3277, 3252.944
920.8098, 3245.761
921.2919, 3237.779
921.7740, 3230.364
922.2562, 3224.152
922.7383, 3219.330
923.2204, 3216.594
923.7025, 3217.013
924.1846, 3216.926
924.6667, 3215.376
925.1489, 3213.088
925.6310, 3209.783
926.1131, 3206.365
926.5952, 3203.805
927.0773, 3202.330
927.5594, 3202.066
928.0416, 3204.080
928.5237, 3205.652
929.0058, 3203.199
929.4879, 3199.242
929.9700, 3197.685
930.4521, 3198.546
930.9343, 3200.611
931.4164, 3203.285
931.8985, 3205.177
932.3806, 3204.560
932.8627, 3201.915
933.3448, 3198.056
933.8270, 3193.262
934.3091, 3190.512
934.7912, 3190.528
935.2733, 3191.782
935.7554, 3193.241
936.2375, 3195.132
936.7197, 3198.138
937.2018, 3202.595
937.6839, 3206.540
938.1660, 3210.575
938.6481, 3212.315
939.1302, 3208.554
939.6124, 3205.216
940.0945, 3209.551
940.5766, 3220.447
941.0587, 3227.623
941.5408, 3229.762
942.0229, 3230.309
942.5051, 3227.377
942.9872, 3225.069
943.4693, 3225.585
943.9514, 3227.809
944.4335, 3230.196
944.9156, 3232.564
945.3978, 3235.469
945.8799, 3238.588
946.3620, 3242.960
946.8441, 3251.251
947.3262, 3259.420
947.8083, 3261.567
948.2905, 3260.152
948.7726, 3262.973
949.2547, 3272.959
949.7368, 3283.258
950.2189, 3286.745
950.7010, 3288.327
951.1832, 3294.966
951.6653, 3305.066
952.1474, 3314.381
952.6295, 3322.298
953.1116, 3330.800
953.5938, 3341.120
954.0759, 3353.266
954.5580, 3367.753
955.0400, 3384.181
955.5222, 3400.155
956.0043, 3415.719
956.4864, 3432.435
956.9685, 3450.708
957.4506, 3472.038
957.9327, 3498.189
958.4149, 3528.069
958.8970, 3555.948
959.3791, 3581.271
959.8612, 3607.941
960.3433, 3636.211
960.8254, 3665.487
961.3076, 3693.935
961.7897, 3724.795
962.2718, 3762.329
962.7539, 3806.491
963.2360, 3855.433
963.7181, 3904.616
964.2003, 3965.571
964.6824, 4039.298
965.1645, 4124.418
965.6466, 4217.300
966.1287, 4322.745
966.6108, 4447.939
967.0930, 4593.782
967.5751, 4758.732
968.0572, 4950.404
968.5393, 5151.457
969.0214, 5375.986
969.5035, 5589.145
969.9857, 5778.825
970.4678, 5926.170
970.9499, 5993.605
971.4320, 5966.995
971.9141, 5876.423
972.3962, 5713.256
972.8784, 5519.056
973.3605, 5313.365
973.8426, 5110.809
974.3247, 4929.352
974.8068, 4772.198
975.2889, 4634.260
975.7711, 4513.555
976.2532, 4410.390
976.7353, 4327.900
977.2174, 4261.854
977.6995, 4205.120
978.1816, 4156.860
978.6638, 4117.276
979.1459, 4086.163
979.6280, 4063.719
980.1101, 4050.812
980.5922, 4044.238
981.0743, 4036.345
981.5565, 4028.624
982.0386, 4031.085
982.5207, 4044.260
983.0028, 4061.242
983.4849, 4079.480
983.9670, 4098.933
984.4492, 4118.802
984.9313, 4140.511
985.4134, 4171.232
985.8955, 4211.394
986.3776, 4257.141
986.8597, 4307.494
987.3419, 4365.870
987.8240, 4433.711
988.3061, 4510.690
988.7882, 4596.222
989.2703, 4690.003
989.7524, 4795.694
990.2346, 4918.057
990.7167, 5041.746
991.1988, 5161.550
991.6809, 5287.926
992.1630, 5424.794
992.6451, 5572.962
993.1273, 5734.359
993.6094, 5909.447
994.0915, 6092.702
994.5736, 6269.225
995.0557, 6476.239
995.5378, 6714.932
996.0200, 6990.829
996.5021, 7298.088
996.9842, 7648.119
997.4663, 8056.046
997.9484, 8519.101
998.4305, 9065.999
998.9127, 9689.581
999.3948, 10413.34
999.8769, 11243.71
1000.359, 12176.20
1000.841, 13235.19
1001.323, 14383.66
1001.805, 15577.98
1002.287, 16835.68
1002.770, 17879.91
1003.252, 18676.13
1003.734, 19092.33
1004.216, 19007.50
1004.698, 18501.79
1005.180, 17589.14
1005.662, 16363.68
1006.144, 15029.68
1006.627, 13647.86
1007.109, 12337.06
1007.591, 11180.04
1008.073, 10164.78
1008.555, 9296.607
1009.037, 8555.432
1009.519, 7913.259
1010.001, 7360.717
1010.483, 6883.155
1010.966, 6477.556
1011.448, 6126.860
1011.930, 5819.538
1012.412, 5549.615
1012.894, 5306.818
1013.376, 5089.605
1013.858, 4897.450
1014.340, 4728.276
1014.823, 4575.838
1015.305, 4436.070
1015.787, 4307.512
1016.269, 4189.043
1016.751, 4079.458
1017.233, 3975.748
1017.715, 3878.271
1018.197, 3787.830
1018.679, 3704.707
1019.162, 3629.443
1019.644, 3563.033
1020.126, 3502.485
1020.608, 3439.418
1021.090, 3374.667
1021.572, 3317.269
1022.054, 3267.628
1022.536, 3220.506
1023.018, 3174.214
1023.501, 3129.986
1023.983, 3088.805
1024.465, 3050.288
1024.947, 3013.549
1025.429, 2978.727
1025.911, 2945.559
1026.393, 2914.038
1026.875, 2883.285
1027.358, 2852.797
1027.840, 2823.448
1028.322, 2796.253
1028.804, 2770.907
1029.286, 2747.106
1029.768, 2724.778
1030.250, 2704.245
1030.732, 2686.514
1031.214, 2667.496
1031.697, 2644.734
1032.179, 2621.901
1032.661, 2602.712
1033.143, 2586.646
1033.625, 2570.684
1034.107, 2553.663
1034.589, 2539.929
1035.071, 2531.906
1035.553, 2522.859
1036.036, 2510.110
1036.518, 2495.889
1037.000, 2482.668
1037.482, 2470.037
1037.964, 2455.243
1038.446, 2435.552
1038.928, 2419.261
1039.410, 2408.206
1039.893, 2398.128
1040.375, 2387.114
1040.857, 2376.838
1041.339, 2369.717
1041.821, 2364.996
1042.303, 2358.712
1042.785, 2349.973
1043.267, 2341.212
1043.750, 2332.121
1044.232, 2323.516
1044.714, 2315.179
1045.196, 2307.869
1045.678, 2302.856
1046.160, 2299.657
1046.642, 2295.875
1047.124, 2290.678
1047.606, 2286.249
1048.089, 2284.667
1048.571, 2281.701
1049.053, 2273.716
1049.535, 2265.065
1050.017, 2260.640
1050.499, 2259.458
1050.981, 2256.456
1051.463, 2250.225
1051.945, 2243.927
1052.428, 2236.806
1052.910, 2231.510
1053.392, 2231.708
1053.874, 2232.390
1054.356, 2227.430
1054.838, 2218.477
1055.320, 2212.488
1055.802, 2211.638
1056.285, 2211.078
1056.767, 2210.586
1057.249, 2208.667
1057.731, 2203.058
1058.213, 2196.863
1058.695, 2193.161
1059.177, 2191.591
1059.659, 2190.291
1060.141, 2188.898
1060.624, 2187.420
1061.106, 2186.108
1061.588, 2184.394
1062.070, 2180.698
1062.552, 2177.481
1063.034, 2178.144
1063.516, 2181.257
1063.998, 2182.508
1064.480, 2180.659
1064.963, 2178.594
1065.445, 2177.335
1065.927, 2176.289
1066.409, 2174.849
1066.891, 2173.714
1067.373, 2174.210
1067.855, 2175.427
1068.337, 2174.752
1068.820, 2171.397
1069.302, 2169.460
1069.784, 2172.426
1070.266, 2175.081
1070.748, 2173.896
1071.230, 2171.860
1071.712, 2171.937
1072.194, 2173.364
1072.677, 2174.053
1073.159, 2173.549
1073.641, 2172.814
1074.123, 2171.686
1074.605, 2171.177
1075.087, 2172.826
1075.569, 2174.382
1076.051, 2173.240
1076.533, 2170.788
1077.016, 2169.438
1077.498, 2169.739
1077.980, 2171.804
1078.462, 2177.286
1078.944, 2182.236
1079.426, 2184.041
1079.908, 2185.271
1080.390, 2187.869
1080.872, 2191.437
1081.354, 2195.487
1081.837, 2199.713
1082.319, 2202.923
1082.801, 2203.729
1083.283, 2205.326
1083.765, 2210.755
1084.247, 2215.890
1084.729, 2216.652
1085.211, 2215.868
1085.694, 2217.371
1086.176, 2221.414
1086.658, 2226.375
1087.140, 2232.249
1087.622, 2237.462
1088.104, 2240.170
1088.586, 2243.377
1089.068, 2250.885
1089.551, 2258.570
1090.033, 2261.048
1090.515, 2259.160
1090.997, 2257.240
1091.479, 2256.160
1091.961, 2256.367
1092.443, 2258.406
1092.925, 2261.318
1093.407, 2266.091
1093.890, 2270.278
1094.372, 2270.339
1094.854, 2268.133
1095.336, 2268.405
1095.818, 2272.219
1096.300, 2277.682
1096.782, 2286.742
1097.264, 2293.999
1097.746, 2296.645
1098.229, 2297.395
1098.711, 2297.569
1099.193, 2297.806
1099.675, 2298.601
1100.157, 2300.024
1100.639, 2303.350
1101.121, 2310.167
1101.603, 2317.054
1102.086, 2324.691
1102.568, 2330.408
1103.050, 2330.884
1103.532, 2329.354
1104.014, 2330.256
1104.496, 2333.767
1104.978, 2337.566
1105.460, 2340.559
1105.943, 2345.020
1106.425, 2354.556
1106.907, 2361.735
1107.389, 2361.834
1107.871, 2359.017
1108.353, 2356.783
1108.835, 2355.549
1109.317, 2356.445
1109.799, 2361.272
1110.281, 2363.974
1110.764, 2362.258
1111.246, 2360.833
1111.728, 2360.880
1112.210, 2361.847
1112.692, 2363.939
1113.174, 2366.483
1113.656, 2367.541
1114.138, 2366.443
1114.621, 2366.822
1115.103, 2367.931
1115.585, 2371.901
1116.067, 2382.649
1116.549, 2391.534
1117.031, 2392.313
1117.513, 2389.127
1117.995, 2388.273
1118.478, 2389.760
1118.960, 2393.087
1119.442, 2399.555
1119.924, 2404.723
1120.406, 2407.430
1120.888, 2410.614
1121.370, 2416.218
1121.852, 2421.779
1122.334, 2423.966
1122.817, 2423.739
1123.299, 2426.591
1123.781, 2433.583
1124.263, 2439.069
1124.745, 2442.202
1125.227, 2446.438
1125.709, 2453.021
1126.191, 2460.263
1126.673, 2466.637
1127.156, 2474.545
1127.638, 2480.718
1128.120, 2490.338
1128.602, 2499.188
1129.084, 2507.189
1129.566, 2514.378
1130.048, 2520.567
1130.530, 2527.374
1131.013, 2535.643
1131.495, 2545.627
1131.977, 2558.083
1132.459, 2572.313
1132.941, 2584.348
1133.423, 2594.538
1133.905, 2606.697
1134.387, 2621.154
1134.870, 2634.883
1135.352, 2646.696
1135.834, 2658.917
1136.316, 2674.070
1136.798, 2686.131
1137.280, 2702.993
1137.762, 2713.433
1138.244, 2726.602
1138.726, 2741.913
1139.208, 2754.992
1139.691, 2765.081
1140.173, 2775.065
1140.655, 2786.901
1141.137, 2799.044
1141.619, 2808.924
1142.101, 2818.241
1142.583, 2829.716
1143.065, 2843.145
1143.548, 2858.369
1144.030, 2875.007
1144.512, 2892.229
1144.994, 2909.737
1145.476, 2926.782
1145.958, 2942.924
1146.440, 2958.177
1146.922, 2972.605
1147.405, 2986.118
1147.887, 2997.237
1148.369, 3007.870
1148.851, 3021.969
1149.333, 3039.914
1149.815, 3058.302
1150.297, 3075.312
1150.779, 3093.146
1151.261, 3113.731
1151.744, 3134.896
1152.226, 3155.729
1152.708, 3175.716
1153.190, 3194.603
1153.672, 3212.216
1154.154, 3227.380
1154.636, 3239.034
1155.118, 3254.395
1155.600, 3278.967
1156.083, 3302.931
1156.565, 3319.438
1157.047, 3337.852
1157.529, 3366.936
1158.011, 3401.366
1158.493, 3432.738
1158.975, 3460.792
1159.457, 3486.563
1159.940, 3506.773
1160.422, 3530.358
1160.904, 3559.051
1161.386, 3589.234
1161.868, 3620.345
1162.350, 3651.621
1162.832, 3682.883
1163.314, 3713.496
1163.796, 3740.915
1164.279, 3769.552
1164.761, 3797.903
1165.243, 3822.516
1165.725, 3851.560
1166.207, 3876.042
1166.689, 3898.178
1167.171, 3919.255
1167.653, 3938.749
1168.135, 3955.963
1168.618, 3971.099
1169.100, 3985.622
1169.582, 3999.451
1170.064, 4009.666
1170.546, 4016.055
1171.028, 4022.291
1171.510, 4029.603
1171.992, 4037.446
1172.474, 4045.679
1172.957, 4052.717
1173.439, 4054.688
1173.921, 4053.612
1174.403, 4054.372
1174.885, 4057.550
1175.367, 4065.983
1175.849, 4078.796
1176.331, 4090.070
1176.814, 4097.245
1177.296, 4101.915
1177.778, 4103.454
1178.260, 4105.953
1178.742, 4115.859
1179.224, 4128.414
1179.706, 4137.228
1180.188, 4143.433
1180.671, 4149.511
1181.153, 4156.437
1181.635, 4165.614
1182.117, 4177.971
1182.599, 4191.376
1183.081, 4205.327
1183.563, 4219.165
1184.045, 4230.975
1184.527, 4243.767
1185.010, 4263.927
1185.492, 4286.550
1185.974, 4298.506
1186.456, 4297.236
1186.938, 4301.588
1187.420, 4317.187
1187.902, 4334.726
1188.384, 4354.109
1188.866, 4373.480
1189.349, 4392.650
1189.831, 4410.657
1190.313, 4425.110
1190.795, 4444.039
1191.277, 4461.916
1191.759, 4478.353
1192.241, 4499.019
1192.723, 4515.650
1193.206, 4533.017
1193.688, 4552.118
1194.170, 4571.776
1194.652, 4591.217
1195.134, 4611.013
1195.616, 4632.256
1196.098, 4654.052
1196.580, 4671.985
1197.063, 4686.482
1197.545, 4703.750
1198.027, 4723.538
1198.509, 4738.213
1198.991, 4746.146
1199.473, 4755.749
1199.955, 4772.975
1200.437, 4793.024
1200.919, 4809.996
1201.401, 4825.532
1201.884, 4842.738
1202.366, 4860.696
1202.848, 4875.508
1203.330, 4889.523
1203.812, 4911.998
1204.294, 4944.506
1204.776, 4973.670
1205.258, 4990.618
1205.741, 5003.952
1206.223, 5015.410
1206.705, 5029.156
1207.187, 5049.133
1207.669, 5072.780
1208.151, 5099.075
1208.633, 5125.794
1209.115, 5146.913
1209.598, 5159.807
1210.080, 5176.258
1210.562, 5202.717
1211.044, 5226.212
1211.526, 5241.323
1212.008, 5256.601
1212.490, 5277.383
1212.972, 5298.713
1213.454, 5313.742
1213.937, 5324.374
1214.419, 5339.885
1214.901, 5360.979
1215.383, 5384.290
1215.865, 5410.877
1216.347, 5431.902
1216.829, 5444.318
1217.311, 5460.174
1217.793, 5486.899
1218.276, 5517.447
1218.758, 5542.775
1219.240, 5563.986
1219.722, 5583.003
1220.204, 5600.948
1220.686, 5620.769
1221.168, 5643.221
1221.650, 5670.985
1222.133, 5703.803
1222.615, 5735.924
1223.097, 5764.123
1223.579, 5790.958
1224.061, 5817.361
1224.543, 5844.979
1225.025, 5875.995
1225.507, 5908.242
1225.990, 5940.192
1226.472, 5970.688
1226.954, 5996.680
1227.436, 6018.700
1227.918, 6047.261
1228.400, 6090.500
1228.882, 6129.281
1229.364, 6154.180
1229.846, 6180.461
1230.328, 6215.421
1230.811, 6252.654
1231.293, 6286.788
1231.775, 6320.167
1232.257, 6356.789
1232.739, 6396.647
1233.221, 6438.144
1233.703, 6481.663
1234.185, 6525.931
1234.668, 6571.172
1235.150, 6614.924
1235.632, 6656.072
1236.114, 6699.739
1236.596, 6750.788
1237.078, 6802.404
1237.560, 6841.584
1238.042, 6872.397
1238.525, 6907.013
1239.007, 6946.093
1239.489, 6992.839
1239.971, 7046.398
1240.453, 7103.909
1240.935, 7163.989
1241.417, 7223.798
1241.899, 7281.987
1242.381, 7338.481
1242.864, 7393.825
1243.346, 7447.666
1243.828, 7495.215
1244.310, 7544.954
1244.792, 7608.892
1245.274, 7681.582
1245.756, 7748.584
1246.238, 7807.704
1246.720, 7869.416
1247.203, 7934.682
1247.685, 8004.122
1248.167, 8081.244
1248.649, 8157.037
1249.131, 8227.753
1249.613, 8297.614
1250.095, 8368.756
1250.577, 8443.454
1251.059, 8527.140
1251.542, 8619.014
1252.024, 8708.327
1252.506, 8795.437
1252.988, 8887.120
1253.470, 8983.960
1253.952, 9084.112
1254.434, 9186.484
1254.916, 9294.097
1255.399, 9408.712
1255.881, 9523.318
1256.363, 9622.440
1256.845, 9720.964
1257.327, 9840.474
1257.809, 9971.895
1258.291, 10103.90
1258.773, 10235.13
1259.255, 10367.01
1259.738, 10500.10
1260.220, 10637.10
1260.702, 10780.53
1261.184, 10923.69
1261.666, 11055.83
1262.148, 11200.09
1262.630, 11373.87
1263.112, 11555.09
1263.594, 11729.44
1264.077, 11899.19
1264.559, 12061.85
1265.041, 12242.15
1265.523, 12421.00
1266.005, 12599.41
1266.487, 12793.50
1266.969, 12978.47
1267.451, 13169.78
1267.934, 13371.11
1268.416, 13578.38
1268.898, 13791.04
1269.380, 14009.68
1269.862, 14234.86
1270.344, 14468.18
1270.826, 14719.71
1271.308, 14979.44
1271.791, 15228.69
1272.273, 15469.38
1272.755, 15705.82
1273.237, 15941.78
1273.719, 16181.67
1274.201, 16426.92
1274.683, 16695.04
1275.165, 17010.71
1275.647, 17330.52
1276.130, 17646.68
1276.612, 17955.04
1277.094, 18250.95
1277.576, 18540.22
1278.058, 18821.05
1278.540, 19099.51
1279.022, 19393.31
1279.504, 19703.59
1279.986, 20013.81
1280.469, 20323.52
1280.951, 20628.54
1281.433, 20928.92
1281.915, 21227.31
1282.397, 21526.75
1282.879, 21823.45
1283.361, 22115.28
1283.843, 22395.51
1284.326, 22656.10
1284.808, 22895.75
##END=



